trial_nr	onset	event_type	phase	response	nr_frames	movie_index	movie_duration	movie_file	blank	onset_abs	duration
0	0.21644902229309082	stim	0		298					20.143891096115112	2.5420680046081543
0	2.7303731441497803	response	0	space						22.6578152179718	
1	2.758517026901245	stim	0		4614					22.685959100723267	38.45713710784912
1	41.20611119270325	pulse	0	t						61.13355326652527	
1	41.215654134750366	stim	1		1715					61.14309620857239	14.300786018371582
1	42.80636405944824	pulse	1	t						62.733806133270264	
1	44.40655708312988	pulse	1	t						64.3339991569519	
1	46.006840229034424	pulse	1	t						65.93428230285645	
1	47.606993198394775	pulse	1	t						67.5344352722168	
1	49.20726704597473	pulse	1	t						69.13470911979675	
1	50.807552099227905	pulse	1	t						70.73499417304993	
1	52.40771007537842	pulse	1	t						72.33515214920044	
1	54.00798010826111	pulse	1	t						73.93542218208313	
2	55.51644015312195	fix_pre	0		11	0.0	2.5	/experiments/knapen_AOT/AOT_stimuli/rescaled_final/1370_rv.mp4	0.0	75.44388222694397	0.11680889129638672
2	55.60826516151428	pulse	0	t		0.0	2.5	/experiments/knapen_AOT/AOT_stimuli/rescaled_final/1370_rv.mp4	0.0	75.5357072353363	
2	55.633249044418335	movie	1		239	0.0	2.5	/experiments/knapen_AOT/AOT_stimuli/rescaled_final/1370_rv.mp4	0.0	75.56069111824036	2.49184513092041
2	57.20913314819336	pulse	1	t		0.0	2.5	/experiments/knapen_AOT/AOT_stimuli/rescaled_final/1370_rv.mp4	0.0	77.13657522201538	
2	58.125094175338745	fix_post	2		10	0.0	2.5	/experiments/knapen_AOT/AOT_stimuli/rescaled_final/1370_rv.mp4	0.0	78.05253624916077	0.09997797012329102
3	58.225072145462036	fix_pre	0		120	1.0	2.5	/experiments/knapen_AOT/AOT_stimuli/rescaled_final/0183_rv.mp4	0.0	78.15251421928406	1.0002059936523438
3	58.808823108673096	pulse	0	t		1.0	2.5	/experiments/knapen_AOT/AOT_stimuli/rescaled_final/0183_rv.mp4	0.0	78.73626518249512	
3	59.22527813911438	movie	1		243	1.0	2.5	/experiments/knapen_AOT/AOT_stimuli/rescaled_final/0183_rv.mp4	0.0	79.1527202129364	2.5003669261932373
3	60.40910601615906	pulse	1	t		1.0	2.5	/experiments/knapen_AOT/AOT_stimuli/rescaled_final/0183_rv.mp4	0.0	80.33654808998108	
3	61.72564506530762	fix_post	2		12	1.0	2.5	/experiments/knapen_AOT/AOT_stimuli/rescaled_final/0183_rv.mp4	0.0	81.65308713912964	0.09999895095825195
4	61.82564401626587	fix_pre	0		120	2.0	2.5	/experiments/knapen_AOT/AOT_stimuli/rescaled_final/1271_rv.mp4	0.0	81.75308609008789	1.0002191066741943
4	62.00923299789429	pulse	0	t		2.0	2.5	/experiments/knapen_AOT/AOT_stimuli/rescaled_final/1271_rv.mp4	0.0	81.93667507171631	
4	62.82586312294006	movie	1		243	2.0	2.5	/experiments/knapen_AOT/AOT_stimuli/rescaled_final/1271_rv.mp4	0.0	82.75330519676208	2.5004940032958984
4	63.60941505432129	pulse	1	t		2.0	2.5	/experiments/knapen_AOT/AOT_stimuli/rescaled_final/1271_rv.mp4	0.0	83.53685712814331	
4	65.20961403846741	pulse	1	t		2.0	2.5	/experiments/knapen_AOT/AOT_stimuli/rescaled_final/1271_rv.mp4	0.0	85.13705611228943	
4	65.32635712623596	fix_post	2		12	2.0	2.5	/experiments/knapen_AOT/AOT_stimuli/rescaled_final/1271_rv.mp4	0.0	85.25379920005798	0.09981894493103027
5	65.42617607116699	fix_pre	0		120	3.0	2.5	/experiments/knapen_AOT/AOT_stimuli/rescaled_final/1579_fw.mp4	0.0	85.35361814498901	1.0001859664916992
5	66.42636203765869	movie	1		243	3.0	2.5	/experiments/knapen_AOT/AOT_stimuli/rescaled_final/1579_fw.mp4	0.0	86.35380411148071	2.5005221366882324
5	66.81053900718689	pulse	1	t		3.0	2.5	/experiments/knapen_AOT/AOT_stimuli/rescaled_final/1579_fw.mp4	0.0	86.73798108100891	
5	68.41017603874207	pulse	1	t		3.0	2.5	/experiments/knapen_AOT/AOT_stimuli/rescaled_final/1579_fw.mp4	0.0	88.33761811256409	
5	68.92688417434692	fix_post	2		12	3.0	2.5	/experiments/knapen_AOT/AOT_stimuli/rescaled_final/1579_fw.mp4	0.0	88.85432624816895	0.10004401206970215
6	69.02692818641663	fix_pre	0		119	4.0	2.5	/experiments/knapen_AOT/AOT_stimuli/rescaled_final/1251_rv.mp4	0.0	88.95437026023865	0.9916009902954102
6	70.01039505004883	pulse	0	t		4.0	2.5	/experiments/knapen_AOT/AOT_stimuli/rescaled_final/1251_rv.mp4	0.0	89.93783712387085	
6	70.01852917671204	movie	1		243	4.0	2.5	/experiments/knapen_AOT/AOT_stimuli/rescaled_final/1251_rv.mp4	0.0	89.94597125053406	2.5087578296661377
6	71.61108922958374	pulse	1	t		4.0	2.5	/experiments/knapen_AOT/AOT_stimuli/rescaled_final/1251_rv.mp4	0.0	91.53853130340576	
6	72.52728700637817	fix_post	2		12	4.0	2.5	/experiments/knapen_AOT/AOT_stimuli/rescaled_final/1251_rv.mp4	0.0	92.4547290802002	0.10000920295715332
7	72.62729620933533	fix_pre	0		120	5.0	2.5	blank	1.0	92.55473828315735	1.000199794769287
7	73.21089506149292	pulse	0	t		5.0	2.5	blank	1.0	93.13833713531494	
7	73.62749600410461	movie	1		300	5.0	2.5	blank	1.0	93.55493807792664	2.50028920173645
7	74.81106305122375	pulse	1	t		5.0	2.5	blank	1.0	94.73850512504578	
7	76.12778520584106	fix_post	2		12	5.0	2.5	blank	1.0	96.05522727966309	0.09998893737792969
8	76.227774143219	fix_pre	0		120	6.0	2.5	/experiments/knapen_AOT/AOT_stimuli/rescaled_final/0708_rv.mp4	0.0	96.15521621704102	1.0001850128173828
8	76.41145014762878	pulse	0	t		6.0	2.5	/experiments/knapen_AOT/AOT_stimuli/rescaled_final/0708_rv.mp4	0.0	96.3388922214508	
8	77.22795915603638	movie	1		243	6.0	2.5	/experiments/knapen_AOT/AOT_stimuli/rescaled_final/0708_rv.mp4	0.0	97.1554012298584	2.5003678798675537
8	78.011559009552	pulse	1	t		6.0	2.5	/experiments/knapen_AOT/AOT_stimuli/rescaled_final/0708_rv.mp4	0.0	97.93900108337402	
8	79.61196208000183	pulse	1	t		6.0	2.5	/experiments/knapen_AOT/AOT_stimuli/rescaled_final/0708_rv.mp4	0.0	99.53940415382385	
8	79.72832703590393	fix_post	2		12	6.0	2.5	/experiments/knapen_AOT/AOT_stimuli/rescaled_final/0708_rv.mp4	0.0	99.65576910972595	0.09998917579650879
9	79.82831621170044	fix_pre	0		120	7.0	2.5	/experiments/knapen_AOT/AOT_stimuli/rescaled_final/1063_fw.mp4	0.0	99.75575828552246	1.000216007232666
9	80.8285322189331	movie	1		242	7.0	2.5	/experiments/knapen_AOT/AOT_stimuli/rescaled_final/1063_fw.mp4	0.0	100.75597429275513	2.4921138286590576
9	81.21312618255615	pulse	1	t		7.0	2.5	/experiments/knapen_AOT/AOT_stimuli/rescaled_final/1063_fw.mp4	0.0	101.14056825637817	
9	82.81237316131592	pulse	1	t		7.0	2.5	/experiments/knapen_AOT/AOT_stimuli/rescaled_final/1063_fw.mp4	0.0	102.73981523513794	
9	83.32064604759216	fix_post	2		12	7.0	2.5	/experiments/knapen_AOT/AOT_stimuli/rescaled_final/1063_fw.mp4	0.0	103.24808812141418	0.09989309310913086
10	83.4205391407013	fix_pre	0		120	8.0	2.5	/experiments/knapen_AOT/AOT_stimuli/rescaled_final/1527_fw.mp4	0.0	103.34798121452332	1.0001919269561768
10	84.41262722015381	pulse	0	t		8.0	2.5	/experiments/knapen_AOT/AOT_stimuli/rescaled_final/1527_fw.mp4	0.0	104.34006929397583	
10	84.42073106765747	movie	1		248	8.0	2.5	/experiments/knapen_AOT/AOT_stimuli/rescaled_final/1527_fw.mp4	0.0	104.34817314147949	2.5086870193481445
10	86.0141441822052	pulse	1	t		8.0	2.5	/experiments/knapen_AOT/AOT_stimuli/rescaled_final/1527_fw.mp4	0.0	105.94158625602722	
10	86.92941808700562	fix_post	2		12	8.0	2.5	/experiments/knapen_AOT/AOT_stimuli/rescaled_final/1527_fw.mp4	0.0	106.85686016082764	0.10005998611450195
11	87.02947807312012	fix_pre	0		120	9.0	2.5	/experiments/knapen_AOT/AOT_stimuli/rescaled_final/1434_fw.mp4	0.0	106.95692014694214	1.000067949295044
11	87.60564613342285	pulse	0	t		9.0	2.5	/experiments/knapen_AOT/AOT_stimuli/rescaled_final/1434_fw.mp4	0.0	107.53308820724487	
11	88.02954602241516	movie	1		243	9.0	2.5	/experiments/knapen_AOT/AOT_stimuli/rescaled_final/1434_fw.mp4	0.0	107.95698809623718	2.5005910396575928
11	89.21343302726746	pulse	1	t		9.0	2.5	/experiments/knapen_AOT/AOT_stimuli/rescaled_final/1434_fw.mp4	0.0	109.14087510108948	
11	90.53013706207275	fix_post	2		12	9.0	2.5	/experiments/knapen_AOT/AOT_stimuli/rescaled_final/1434_fw.mp4	0.0	110.45757913589478	0.09981799125671387
12	90.62995505332947	fix_pre	0		120	10.0	2.5	/experiments/knapen_AOT/AOT_stimuli/rescaled_final/0789_rv.mp4	0.0	110.55739712715149	1.0001490116119385
12	90.80598306655884	pulse	0	t		10.0	2.5	/experiments/knapen_AOT/AOT_stimuli/rescaled_final/0789_rv.mp4	0.0	110.73342514038086	
12	91.6301040649414	movie	1		243	10.0	2.5	/experiments/knapen_AOT/AOT_stimuli/rescaled_final/0789_rv.mp4	0.0	111.55754613876343	2.500537157058716
12	92.40639305114746	pulse	1	t		10.0	2.5	/experiments/knapen_AOT/AOT_stimuli/rescaled_final/0789_rv.mp4	0.0	112.33383512496948	
12	94.01384711265564	pulse	1	t		10.0	2.5	/experiments/knapen_AOT/AOT_stimuli/rescaled_final/0789_rv.mp4	0.0	113.94128918647766	
12	94.13064122200012	fix_post	2		12	10.0	2.5	/experiments/knapen_AOT/AOT_stimuli/rescaled_final/0789_rv.mp4	0.0	114.05808329582214	0.09982991218566895
13	94.23047113418579	fix_pre	0		120	11.0	2.5	/experiments/knapen_AOT/AOT_stimuli/rescaled_final/1208_fw.mp4	0.0	114.15791320800781	1.0002200603485107
13	95.2306911945343	movie	1		243	11.0	2.5	/experiments/knapen_AOT/AOT_stimuli/rescaled_final/1208_fw.mp4	0.0	115.15813326835632	2.4919939041137695
13	95.60597801208496	pulse	1	t		11.0	2.5	/experiments/knapen_AOT/AOT_stimuli/rescaled_final/1208_fw.mp4	0.0	115.53342008590698	
13	97.2096860408783	pulse	1	t		11.0	2.5	/experiments/knapen_AOT/AOT_stimuli/rescaled_final/1208_fw.mp4	0.0	117.13712811470032	
13	97.72268509864807	fix_post	2		12	11.0	2.5	/experiments/knapen_AOT/AOT_stimuli/rescaled_final/1208_fw.mp4	0.0	117.65012717247009	0.1000370979309082
14	97.82272219657898	fix_pre	0		119	12.0	2.5	blank	1.0	117.750164270401	0.9918320178985596
14	98.80640912055969	pulse	0	t		12.0	2.5	blank	1.0	118.73385119438171	
14	98.81455421447754	movie	1		301	12.0	2.5	blank	1.0	118.74199628829956	2.508650779724121
14	100.40671014785767	pulse	1	t		12.0	2.5	blank	1.0	120.33415222167969	
14	101.32320499420166	fix_post	2		12	12.0	2.5	blank	1.0	121.25064706802368	0.0999901294708252
15	101.42319512367249	fix_pre	0		120	13.0	2.5	/experiments/knapen_AOT/AOT_stimuli/rescaled_final/0438_fw.mp4	0.0	121.3506371974945	1.0001840591430664
15	102.00684905052185	pulse	0	t		13.0	2.5	/experiments/knapen_AOT/AOT_stimuli/rescaled_final/0438_fw.mp4	0.0	121.93429112434387	
15	102.42337918281555	movie	1		243	13.0	2.5	/experiments/knapen_AOT/AOT_stimuli/rescaled_final/0438_fw.mp4	0.0	122.35082125663757	2.500485897064209
15	103.60713815689087	pulse	1	t		13.0	2.5	/experiments/knapen_AOT/AOT_stimuli/rescaled_final/0438_fw.mp4	0.0	123.53458023071289	
15	104.92386507987976	fix_post	2		12	13.0	2.5	/experiments/knapen_AOT/AOT_stimuli/rescaled_final/0438_fw.mp4	0.0	124.85130715370178	0.09987711906433105
16	105.02374219894409	fix_pre	0		120	14.0	2.5	/experiments/knapen_AOT/AOT_stimuli/rescaled_final/0885_rv.mp4	0.0	124.95118427276611	1.0001640319824219
16	105.20737099647522	pulse	0	t		14.0	2.5	/experiments/knapen_AOT/AOT_stimuli/rescaled_final/0885_rv.mp4	0.0	125.13481307029724	
16	106.02390623092651	movie	1		243	14.0	2.5	/experiments/knapen_AOT/AOT_stimuli/rescaled_final/0885_rv.mp4	0.0	125.95134830474854	2.50038480758667
16	106.80764722824097	pulse	1	t		14.0	2.5	/experiments/knapen_AOT/AOT_stimuli/rescaled_final/0885_rv.mp4	0.0	126.73508930206299	
16	108.40796422958374	pulse	1	t		14.0	2.5	/experiments/knapen_AOT/AOT_stimuli/rescaled_final/0885_rv.mp4	0.0	128.33540630340576	
16	108.52429103851318	fix_post	2		12	14.0	2.5	/experiments/knapen_AOT/AOT_stimuli/rescaled_final/0885_rv.mp4	0.0	128.4517331123352	0.09998416900634766
17	108.62427520751953	fix_pre	0		120	15.0	2.5	/experiments/knapen_AOT/AOT_stimuli/rescaled_final/2074_fw.mp4	0.0	128.55171728134155	1.000199794769287
17	109.62447500228882	movie	1		241	15.0	2.5	/experiments/knapen_AOT/AOT_stimuli/rescaled_final/2074_fw.mp4	0.0	129.55191707611084	2.4921200275421143
17	110.00876307487488	pulse	1	t		15.0	2.5	/experiments/knapen_AOT/AOT_stimuli/rescaled_final/2074_fw.mp4	0.0	129.9362051486969	
17	111.60830903053284	pulse	1	t		15.0	2.5	/experiments/knapen_AOT/AOT_stimuli/rescaled_final/2074_fw.mp4	0.0	131.53575110435486	
17	112.11659502983093	fix_post	2		12	15.0	2.5	/experiments/knapen_AOT/AOT_stimuli/rescaled_final/2074_fw.mp4	0.0	132.04403710365295	0.09987497329711914
18	112.21647000312805	fix_pre	0		120	16.0	2.5	/experiments/knapen_AOT/AOT_stimuli/rescaled_final/1343_rv.mp4	0.0	132.14391207695007	1.0001580715179443
18	113.2086250782013	pulse	0	t		16.0	2.5	/experiments/knapen_AOT/AOT_stimuli/rescaled_final/1343_rv.mp4	0.0	133.13606715202332	
18	113.216628074646	movie	1		244	16.0	2.5	/experiments/knapen_AOT/AOT_stimuli/rescaled_final/1343_rv.mp4	0.0	133.14407014846802	2.5087101459503174
18	114.80903911590576	pulse	1	t		16.0	2.5	/experiments/knapen_AOT/AOT_stimuli/rescaled_final/1343_rv.mp4	0.0	134.73648118972778	
18	115.72533822059631	fix_post	2		12	16.0	2.5	/experiments/knapen_AOT/AOT_stimuli/rescaled_final/1343_rv.mp4	0.0	135.65278029441833	0.10002589225769043
19	115.825364112854	fix_pre	0		120	17.0	2.5	/experiments/knapen_AOT/AOT_stimuli/rescaled_final/1909_fw.mp4	0.0	135.75280618667603	1.0003180503845215
19	116.40900421142578	pulse	0	t		17.0	2.5	/experiments/knapen_AOT/AOT_stimuli/rescaled_final/1909_fw.mp4	0.0	136.3364462852478	
19	116.82568216323853	movie	1		245	17.0	2.5	/experiments/knapen_AOT/AOT_stimuli/rescaled_final/1909_fw.mp4	0.0	136.75312423706055	2.5002009868621826
19	118.00928521156311	pulse	1	t		17.0	2.5	/experiments/knapen_AOT/AOT_stimuli/rescaled_final/1909_fw.mp4	0.0	137.93672728538513	
19	119.32588315010071	fix_post	2		12	17.0	2.5	/experiments/knapen_AOT/AOT_stimuli/rescaled_final/1909_fw.mp4	0.0	139.25332522392273	0.10002303123474121
20	119.42590618133545	fix_pre	0		116	18.0	2.5	/experiments/knapen_AOT/AOT_stimuli/rescaled_final/1437_rv.mp4	0.0	139.35334825515747	1.00016188621521
20	119.6094651222229	pulse	0	t		18.0	2.5	/experiments/knapen_AOT/AOT_stimuli/rescaled_final/1437_rv.mp4	0.0	139.53690719604492	
20	120.42606806755066	movie	1		242	18.0	2.5	/experiments/knapen_AOT/AOT_stimuli/rescaled_final/1437_rv.mp4	0.0	140.35351014137268	2.5006160736083984
20	121.20980215072632	pulse	1	t		18.0	2.5	/experiments/knapen_AOT/AOT_stimuli/rescaled_final/1437_rv.mp4	0.0	141.13724422454834	
20	122.81046605110168	pulse	1	t		18.0	2.5	/experiments/knapen_AOT/AOT_stimuli/rescaled_final/1437_rv.mp4	0.0	142.7379081249237	
20	122.92668414115906	fix_post	2		12	18.0	2.5	/experiments/knapen_AOT/AOT_stimuli/rescaled_final/1437_rv.mp4	0.0	142.85412621498108	0.09977293014526367
21	123.02645707130432	fix_pre	0		120	19.0	2.5	/experiments/knapen_AOT/AOT_stimuli/rescaled_final/1193_fw.mp4	0.0	142.95389914512634	1.0001871585845947
21	124.02664422988892	movie	1		241	19.0	2.5	/experiments/knapen_AOT/AOT_stimuli/rescaled_final/1193_fw.mp4	0.0	143.95408630371094	2.492126941680908
21	124.41138315200806	pulse	1	t		19.0	2.5	/experiments/knapen_AOT/AOT_stimuli/rescaled_final/1193_fw.mp4	0.0	144.33882522583008	
21	126.01052808761597	pulse	1	t		19.0	2.5	/experiments/knapen_AOT/AOT_stimuli/rescaled_final/1193_fw.mp4	0.0	145.937970161438	
21	126.51877117156982	fix_post	2		12	19.0	2.5	/experiments/knapen_AOT/AOT_stimuli/rescaled_final/1193_fw.mp4	0.0	146.44621324539185	0.09995889663696289
22	126.61873006820679	fix_pre	0		120	20.0	2.5	blank	1.0	146.5461721420288	1.0000700950622559
22	127.61063408851624	pulse	0	t		20.0	2.5	blank	1.0	147.53807616233826	
22	127.61880016326904	movie	1		301	20.0	2.5	blank	1.0	147.54624223709106	2.5087180137634277
22	129.21092700958252	pulse	1	t		20.0	2.5	blank	1.0	149.13836908340454	
22	130.12751817703247	fix_post	2		12	20.0	2.5	blank	1.0	150.0549602508545	0.1001729965209961
23	130.22769117355347	fix_pre	0		120	21.0	2.5	/experiments/knapen_AOT/AOT_stimuli/rescaled_final/0804_rv.mp4	0.0	150.1551332473755	1.000011920928955
23	130.81111407279968	pulse	0	t		21.0	2.5	/experiments/knapen_AOT/AOT_stimuli/rescaled_final/0804_rv.mp4	0.0	150.7385561466217	
23	131.22770309448242	movie	1		243	21.0	2.5	/experiments/knapen_AOT/AOT_stimuli/rescaled_final/0804_rv.mp4	0.0	151.15514516830444	2.5003130435943604
23	132.41143608093262	pulse	1	t		21.0	2.5	/experiments/knapen_AOT/AOT_stimuli/rescaled_final/0804_rv.mp4	0.0	152.33887815475464	
23	133.72801613807678	fix_post	2		12	21.0	2.5	/experiments/knapen_AOT/AOT_stimuli/rescaled_final/0804_rv.mp4	0.0	153.6554582118988	0.1000359058380127
24	133.8280520439148	fix_pre	0		120	22.0	2.5	/experiments/knapen_AOT/AOT_stimuli/rescaled_final/1756_rv.mp4	0.0	153.75549411773682	1.0001661777496338
24	134.0116891860962	pulse	0	t		22.0	2.5	/experiments/knapen_AOT/AOT_stimuli/rescaled_final/1756_rv.mp4	0.0	153.9391312599182	
24	134.82821822166443	movie	1		242	22.0	2.5	/experiments/knapen_AOT/AOT_stimuli/rescaled_final/1756_rv.mp4	0.0	154.75566029548645	2.5005879402160645
24	135.61188507080078	pulse	1	t		22.0	2.5	/experiments/knapen_AOT/AOT_stimuli/rescaled_final/1756_rv.mp4	0.0	155.5393271446228	
24	137.21190404891968	pulse	1	t		22.0	2.5	/experiments/knapen_AOT/AOT_stimuli/rescaled_final/1756_rv.mp4	0.0	157.1393461227417	
24	137.3288061618805	fix_post	2		12	22.0	2.5	/experiments/knapen_AOT/AOT_stimuli/rescaled_final/1756_rv.mp4	0.0	157.25624823570251	0.09977006912231445
25	137.4285762310028	fix_pre	0		120	23.0	2.5	/experiments/knapen_AOT/AOT_stimuli/rescaled_final/1692_fw.mp4	0.0	157.35601830482483	1.0001587867736816
25	138.4287350177765	movie	1		241	23.0	2.5	/experiments/knapen_AOT/AOT_stimuli/rescaled_final/1692_fw.mp4	0.0	158.3561770915985	2.4921181201934814
25	138.8134641647339	pulse	1	t		23.0	2.5	/experiments/knapen_AOT/AOT_stimuli/rescaled_final/1692_fw.mp4	0.0	158.7409062385559	
25	140.41263699531555	pulse	1	t		23.0	2.5	/experiments/knapen_AOT/AOT_stimuli/rescaled_final/1692_fw.mp4	0.0	160.34007906913757	
25	140.92085313796997	fix_post	2		12	23.0	2.5	/experiments/knapen_AOT/AOT_stimuli/rescaled_final/1692_fw.mp4	0.0	160.848295211792	0.09992408752441406
26	141.02077722549438	fix_pre	0		120	24.0	2.5	/experiments/knapen_AOT/AOT_stimuli/rescaled_final/1601_rv.mp4	0.0	160.9482192993164	1.0001578330993652
26	142.00542902946472	pulse	0	t		24.0	2.5	/experiments/knapen_AOT/AOT_stimuli/rescaled_final/1601_rv.mp4	0.0	161.93287110328674	
26	142.02093505859375	movie	1		243	24.0	2.5	/experiments/knapen_AOT/AOT_stimuli/rescaled_final/1601_rv.mp4	0.0	161.94837713241577	2.5087649822235107
26	143.61364316940308	pulse	1	t		24.0	2.5	/experiments/knapen_AOT/AOT_stimuli/rescaled_final/1601_rv.mp4	0.0	163.5410852432251	
26	144.52970004081726	fix_post	2		12	24.0	2.5	/experiments/knapen_AOT/AOT_stimuli/rescaled_final/1601_rv.mp4	0.0	164.45714211463928	0.09996199607849121
27	144.62966203689575	fix_pre	0		120	25.0	2.5	/experiments/knapen_AOT/AOT_stimuli/rescaled_final/0577_fw.mp4	0.0	164.55710411071777	1.0001749992370605
27	145.2056691646576	pulse	0	t		25.0	2.5	/experiments/knapen_AOT/AOT_stimuli/rescaled_final/0577_fw.mp4	0.0	165.13311123847961	
27	145.6298370361328	movie	1		243	25.0	2.5	/experiments/knapen_AOT/AOT_stimuli/rescaled_final/0577_fw.mp4	0.0	165.55727910995483	2.5003600120544434
27	146.805810213089	pulse	1	t		25.0	2.5	/experiments/knapen_AOT/AOT_stimuli/rescaled_final/0577_fw.mp4	0.0	166.733252286911	
27	148.13019704818726	fix_post	2		12	25.0	2.5	/experiments/knapen_AOT/AOT_stimuli/rescaled_final/0577_fw.mp4	0.0	168.05763912200928	0.1000051498413086
28	148.23020219802856	fix_pre	0		120	26.0	2.5	blank	1.0	168.1576442718506	1.0002670288085938
28	148.4054741859436	pulse	0	t		26.0	2.5	blank	1.0	168.33291625976562	
28	149.23046922683716	movie	1		300	26.0	2.5	blank	1.0	169.15791130065918	2.5002408027648926
28	150.00569200515747	pulse	1	t		26.0	2.5	blank	1.0	169.9331340789795	
28	151.60582399368286	pulse	1	t		26.0	2.5	blank	1.0	171.53326606750488	
28	151.73071002960205	fix_post	2		12	26.0	2.5	blank	1.0	171.65815210342407	0.1000051498413086
29	151.83071517944336	fix_pre	0		120	27.0	2.5	/experiments/knapen_AOT/AOT_stimuli/rescaled_final/2004_rv.mp4	0.0	171.75815725326538	1.0002708435058594
29	152.83098602294922	movie	1		241	27.0	2.5	/experiments/knapen_AOT/AOT_stimuli/rescaled_final/2004_rv.mp4	0.0	172.75842809677124	2.492048978805542
29	153.2061710357666	pulse	1	t		27.0	2.5	/experiments/knapen_AOT/AOT_stimuli/rescaled_final/2004_rv.mp4	0.0	173.13361310958862	
29	154.80649209022522	pulse	1	t		27.0	2.5	/experiments/knapen_AOT/AOT_stimuli/rescaled_final/2004_rv.mp4	0.0	174.73393416404724	
29	155.32303500175476	fix_post	2		12	27.0	2.5	/experiments/knapen_AOT/AOT_stimuli/rescaled_final/2004_rv.mp4	0.0	175.25047707557678	0.0999000072479248
30	155.42293500900269	fix_pre	0		119	28.0	2.5	/experiments/knapen_AOT/AOT_stimuli/rescaled_final/0518_fw.mp4	0.0	175.3503770828247	0.991828203201294
30	156.4066710472107	pulse	0	t		28.0	2.5	/experiments/knapen_AOT/AOT_stimuli/rescaled_final/0518_fw.mp4	0.0	176.33411312103271	
30	156.41476321220398	movie	1		244	28.0	2.5	/experiments/knapen_AOT/AOT_stimuli/rescaled_final/0518_fw.mp4	0.0	176.342205286026	2.5088019371032715
30	158.0076231956482	pulse	1	t		28.0	2.5	/experiments/knapen_AOT/AOT_stimuli/rescaled_final/0518_fw.mp4	0.0	177.93506526947021	
30	158.92356514930725	fix_post	2		12	28.0	2.5	/experiments/knapen_AOT/AOT_stimuli/rescaled_final/0518_fw.mp4	0.0	178.85100722312927	0.09995889663696289
31	159.0235240459442	fix_pre	0		120	29.0	2.5	/experiments/knapen_AOT/AOT_stimuli/rescaled_final/0397_fw.mp4	0.0	178.95096611976624	1.000169038772583
31	159.60707306861877	pulse	0	t		29.0	2.5	/experiments/knapen_AOT/AOT_stimuli/rescaled_final/0397_fw.mp4	0.0	179.5345151424408	
31	160.0236930847168	movie	1		244	29.0	2.5	/experiments/knapen_AOT/AOT_stimuli/rescaled_final/0397_fw.mp4	0.0	179.95113515853882	2.5004730224609375
31	161.20749306678772	pulse	1	t		29.0	2.5	/experiments/knapen_AOT/AOT_stimuli/rescaled_final/0397_fw.mp4	0.0	181.13493514060974	
31	162.52416610717773	fix_post	2		12	29.0	2.5	/experiments/knapen_AOT/AOT_stimuli/rescaled_final/0397_fw.mp4	0.0	182.45160818099976	0.09987902641296387
32	162.6240451335907	fix_pre	0		120	30.0	2.5	/experiments/knapen_AOT/AOT_stimuli/rescaled_final/1835_fw.mp4	0.0	182.55148720741272	1.0001099109649658
32	162.8075270652771	pulse	0	t		30.0	2.5	/experiments/knapen_AOT/AOT_stimuli/rescaled_final/1835_fw.mp4	0.0	182.73496913909912	
32	163.62415504455566	movie	1		242	30.0	2.5	/experiments/knapen_AOT/AOT_stimuli/rescaled_final/1835_fw.mp4	0.0	183.55159711837769	2.5005991458892822
32	164.4078061580658	pulse	1	t		30.0	2.5	/experiments/knapen_AOT/AOT_stimuli/rescaled_final/1835_fw.mp4	0.0	184.33524823188782	
32	166.00896620750427	pulse	1	t		30.0	2.5	/experiments/knapen_AOT/AOT_stimuli/rescaled_final/1835_fw.mp4	0.0	185.9364082813263	
32	166.12475419044495	fix_post	2		12	30.0	2.5	/experiments/knapen_AOT/AOT_stimuli/rescaled_final/1835_fw.mp4	0.0	186.05219626426697	0.09979796409606934
33	166.22455215454102	fix_pre	0		120	31.0	2.5	/experiments/knapen_AOT/AOT_stimuli/rescaled_final/1756_rv.mp4	0.0	186.15199422836304	1.0001580715179443
33	167.22471022605896	movie	1		241	31.0	2.5	/experiments/knapen_AOT/AOT_stimuli/rescaled_final/1756_rv.mp4	0.0	187.15215229988098	2.4920308589935303
33	167.60874915122986	pulse	1	t		31.0	2.5	/experiments/knapen_AOT/AOT_stimuli/rescaled_final/1756_rv.mp4	0.0	187.53619122505188	
33	169.20859122276306	pulse	1	t		31.0	2.5	/experiments/knapen_AOT/AOT_stimuli/rescaled_final/1756_rv.mp4	0.0	189.13603329658508	
33	169.7167410850525	fix_post	2		12	31.0	2.5	/experiments/knapen_AOT/AOT_stimuli/rescaled_final/1756_rv.mp4	0.0	189.6441831588745	0.10000801086425781
34	169.81674909591675	fix_pre	0		120	32.0	2.5	/experiments/knapen_AOT/AOT_stimuli/rescaled_final/1362_rv.mp4	0.0	189.74419116973877	1.0002079010009766
34	170.80873703956604	pulse	0	t		32.0	2.5	/experiments/knapen_AOT/AOT_stimuli/rescaled_final/1362_rv.mp4	0.0	190.73617911338806	
34	170.81695699691772	movie	1		244	32.0	2.5	/experiments/knapen_AOT/AOT_stimuli/rescaled_final/1362_rv.mp4	0.0	190.74439907073975	2.5086560249328613
34	172.40971422195435	pulse	1	t		32.0	2.5	/experiments/knapen_AOT/AOT_stimuli/rescaled_final/1362_rv.mp4	0.0	192.33715629577637	
34	173.3256130218506	fix_post	2		12	32.0	2.5	/experiments/knapen_AOT/AOT_stimuli/rescaled_final/1362_rv.mp4	0.0	193.2530550956726	0.10003399848937988
35	173.42564702033997	fix_pre	0		120	33.0	2.5	/experiments/knapen_AOT/AOT_stimuli/rescaled_final/0449_fw.mp4	0.0	193.353089094162	1.0001420974731445
35	174.00934410095215	pulse	0	t		33.0	2.5	/experiments/knapen_AOT/AOT_stimuli/rescaled_final/0449_fw.mp4	0.0	193.93678617477417	
35	174.4257891178131	movie	1		244	33.0	2.5	/experiments/knapen_AOT/AOT_stimuli/rescaled_final/0449_fw.mp4	0.0	194.35323119163513	2.500351905822754
35	175.60962200164795	pulse	1	t		33.0	2.5	/experiments/knapen_AOT/AOT_stimuli/rescaled_final/0449_fw.mp4	0.0	195.53706407546997	
35	176.92614102363586	fix_post	2		12	33.0	2.5	/experiments/knapen_AOT/AOT_stimuli/rescaled_final/0449_fw.mp4	0.0	196.85358309745789	0.10012507438659668
36	177.02626609802246	fix_pre	0		120	34.0	2.5	blank	1.0	196.95370817184448	1.0000529289245605
36	177.2097442150116	pulse	0	t		34.0	2.5	blank	1.0	197.13718628883362	
36	178.02631902694702	movie	1		300	34.0	2.5	blank	1.0	197.95376110076904	2.500420093536377
36	178.80992102622986	pulse	1	t		34.0	2.5	blank	1.0	198.73736310005188	
36	180.41020917892456	pulse	1	t		34.0	2.5	blank	1.0	200.33765125274658	
36	180.5267391204834	fix_post	2		12	34.0	2.5	blank	1.0	200.45418119430542	0.09995293617248535
37	180.62669205665588	fix_pre	0		119	35.0	2.5	/experiments/knapen_AOT/AOT_stimuli/rescaled_final/0949_rv.mp4	0.0	200.5541341304779	0.9918301105499268
37	181.6185221672058	movie	1		243	35.0	2.5	/experiments/knapen_AOT/AOT_stimuli/rescaled_final/0949_rv.mp4	0.0	201.54596424102783	2.5005369186401367
37	182.0106770992279	pulse	1	t		35.0	2.5	/experiments/knapen_AOT/AOT_stimuli/rescaled_final/0949_rv.mp4	0.0	201.93811917304993	
37	183.61070704460144	pulse	1	t		35.0	2.5	/experiments/knapen_AOT/AOT_stimuli/rescaled_final/0949_rv.mp4	0.0	203.53814911842346	
37	184.11905908584595	fix_post	2		12	35.0	2.5	/experiments/knapen_AOT/AOT_stimuli/rescaled_final/0949_rv.mp4	0.0	204.04650115966797	0.09987807273864746
38	184.2189371585846	fix_pre	0		116	36.0	2.5	/experiments/knapen_AOT/AOT_stimuli/rescaled_final/0150_fw.mp4	0.0	204.14637923240662	1.0002448558807373
38	185.21088409423828	pulse	0	t		36.0	2.5	/experiments/knapen_AOT/AOT_stimuli/rescaled_final/0150_fw.mp4	0.0	205.1383261680603	
38	185.21918201446533	movie	1		243	36.0	2.5	/experiments/knapen_AOT/AOT_stimuli/rescaled_final/0150_fw.mp4	0.0	205.14662408828735	2.5086560249328613
38	186.81164622306824	pulse	1	t		36.0	2.5	/experiments/knapen_AOT/AOT_stimuli/rescaled_final/0150_fw.mp4	0.0	206.73908829689026	
38	187.7278380393982	fix_post	2		12	36.0	2.5	/experiments/knapen_AOT/AOT_stimuli/rescaled_final/0150_fw.mp4	0.0	207.65528011322021	0.09994196891784668
39	187.82778000831604	fix_pre	0		120	37.0	2.5	/experiments/knapen_AOT/AOT_stimuli/rescaled_final/0789_fw.mp4	0.0	207.75522208213806	1.0001401901245117
39	188.41152000427246	pulse	0	t		37.0	2.5	/experiments/knapen_AOT/AOT_stimuli/rescaled_final/0789_fw.mp4	0.0	208.33896207809448	
39	188.82792019844055	movie	1		243	37.0	2.5	/experiments/knapen_AOT/AOT_stimuli/rescaled_final/0789_fw.mp4	0.0	208.75536227226257	2.5005598068237305
39	190.01179313659668	pulse	1	t		37.0	2.5	/experiments/knapen_AOT/AOT_stimuli/rescaled_final/0789_fw.mp4	0.0	209.9392352104187	
39	191.32848000526428	fix_post	2		12	37.0	2.5	/experiments/knapen_AOT/AOT_stimuli/rescaled_final/0789_fw.mp4	0.0	211.2559220790863	0.09985208511352539
40	191.4283320903778	fix_pre	0		120	38.0	2.5	/experiments/knapen_AOT/AOT_stimuli/rescaled_final/1080_rv.mp4	0.0	211.35577416419983	1.000140905380249
40	191.61183500289917	pulse	0	t		38.0	2.5	/experiments/knapen_AOT/AOT_stimuli/rescaled_final/1080_rv.mp4	0.0	211.5392770767212	
40	192.42847299575806	movie	1		244	38.0	2.5	/experiments/knapen_AOT/AOT_stimuli/rescaled_final/1080_rv.mp4	0.0	212.35591506958008	2.5003480911254883
40	193.21210312843323	pulse	1	t		38.0	2.5	/experiments/knapen_AOT/AOT_stimuli/rescaled_final/1080_rv.mp4	0.0	213.13954520225525	
40	194.81472206115723	pulse	1	t		38.0	2.5	/experiments/knapen_AOT/AOT_stimuli/rescaled_final/1080_rv.mp4	0.0	214.74216413497925	
40	194.92882108688354	fix_post	2		12	38.0	2.5	/experiments/knapen_AOT/AOT_stimuli/rescaled_final/1080_rv.mp4	0.0	214.85626316070557	0.10001707077026367
41	195.0288381576538	fix_pre	0		119	39.0	2.5	/experiments/knapen_AOT/AOT_stimuli/rescaled_final/2107_rv.mp4	0.0	214.95628023147583	0.991832971572876
41	196.02067112922668	movie	1		247	39.0	2.5	/experiments/knapen_AOT/AOT_stimuli/rescaled_final/2107_rv.mp4	0.0	215.9481132030487	2.5003600120544434
41	196.4127700328827	pulse	1	t		39.0	2.5	/experiments/knapen_AOT/AOT_stimuli/rescaled_final/2107_rv.mp4	0.0	216.3402121067047	
41	198.0128722190857	pulse	1	t		39.0	2.5	/experiments/knapen_AOT/AOT_stimuli/rescaled_final/2107_rv.mp4	0.0	217.94031429290771	
41	198.52103114128113	fix_post	2		12	39.0	2.5	/experiments/knapen_AOT/AOT_stimuli/rescaled_final/2107_rv.mp4	0.0	218.44847321510315	0.10001802444458008
42	198.6210491657257	fix_pre	0		120	40.0	2.5	blank	1.0	218.54849123954773	1.0002028942108154
42	199.60558819770813	pulse	0	t		40.0	2.5	blank	1.0	219.53303027153015	
42	199.62125205993652	movie	1		301	40.0	2.5	blank	1.0	219.54869413375854	2.508686065673828
42	201.2057831287384	pulse	1	t		40.0	2.5	blank	1.0	221.13322520256042	
42	202.12993812561035	fix_post	2		12	40.0	2.5	blank	1.0	222.05738019943237	0.10007405281066895
43	202.23001217842102	fix_pre	0		120	41.0	2.5	/experiments/knapen_AOT/AOT_stimuli/rescaled_final/1356_fw.mp4	0.0	222.15745425224304	1.0000560283660889
43	202.8051311969757	pulse	0	t		41.0	2.5	/experiments/knapen_AOT/AOT_stimuli/rescaled_final/1356_fw.mp4	0.0	222.73257327079773	
43	203.2300682067871	movie	1		243	41.0	2.5	/experiments/knapen_AOT/AOT_stimuli/rescaled_final/1356_fw.mp4	0.0	223.15751028060913	2.500370979309082
43	204.4057321548462	pulse	1	t		41.0	2.5	/experiments/knapen_AOT/AOT_stimuli/rescaled_final/1356_fw.mp4	0.0	224.3331742286682	
43	205.7304391860962	fix_post	2		12	41.0	2.5	/experiments/knapen_AOT/AOT_stimuli/rescaled_final/1356_fw.mp4	0.0	225.6578812599182	0.10004091262817383
44	205.83048009872437	fix_pre	0		120	42.0	2.5	/experiments/knapen_AOT/AOT_stimuli/rescaled_final/1356_rv.mp4	0.0	225.7579221725464	1.0001671314239502
44	206.00586819648743	pulse	0	t		42.0	2.5	/experiments/knapen_AOT/AOT_stimuli/rescaled_final/1356_rv.mp4	0.0	225.93331027030945	
44	206.83064723014832	movie	1		242	42.0	2.5	/experiments/knapen_AOT/AOT_stimuli/rescaled_final/1356_rv.mp4	0.0	226.75808930397034	2.4919838905334473
44	207.60585021972656	pulse	1	t		42.0	2.5	/experiments/knapen_AOT/AOT_stimuli/rescaled_final/1356_rv.mp4	0.0	227.53329229354858	
44	209.2061731815338	pulse	1	t		42.0	2.5	/experiments/knapen_AOT/AOT_stimuli/rescaled_final/1356_rv.mp4	0.0	229.13361525535583	
44	209.32263112068176	fix_post	2		12	42.0	2.5	/experiments/knapen_AOT/AOT_stimuli/rescaled_final/1356_rv.mp4	0.0	229.25007319450378	0.10003805160522461
45	209.422669172287	fix_pre	0		120	43.0	2.5	/experiments/knapen_AOT/AOT_stimuli/rescaled_final/0320_fw.mp4	0.0	229.350111246109	1.0001399517059326
45	210.42280912399292	movie	1		244	43.0	2.5	/experiments/knapen_AOT/AOT_stimuli/rescaled_final/0320_fw.mp4	0.0	230.35025119781494	2.500364065170288
45	210.80691003799438	pulse	1	t		43.0	2.5	/experiments/knapen_AOT/AOT_stimuli/rescaled_final/0320_fw.mp4	0.0	230.7343521118164	
45	212.4066550731659	pulse	1	t		43.0	2.5	/experiments/knapen_AOT/AOT_stimuli/rescaled_final/0320_fw.mp4	0.0	232.33409714698792	
45	212.9231731891632	fix_post	2		12	43.0	2.5	/experiments/knapen_AOT/AOT_stimuli/rescaled_final/0320_fw.mp4	0.0	232.85061526298523	0.10002398490905762
46	213.02319717407227	fix_pre	0		119	44.0	2.5	/experiments/knapen_AOT/AOT_stimuli/rescaled_final/1151_rv.mp4	0.0	232.9506392478943	0.9918270111083984
46	214.0069260597229	pulse	0	t		44.0	2.5	/experiments/knapen_AOT/AOT_stimuli/rescaled_final/1151_rv.mp4	0.0	233.93436813354492	
46	214.01502418518066	movie	1		244	44.0	2.5	/experiments/knapen_AOT/AOT_stimuli/rescaled_final/1151_rv.mp4	0.0	233.94246625900269	2.508772850036621
46	215.60763812065125	pulse	1	t		44.0	2.5	/experiments/knapen_AOT/AOT_stimuli/rescaled_final/1151_rv.mp4	0.0	235.53508019447327	
46	216.52379703521729	fix_post	2		12	44.0	2.5	/experiments/knapen_AOT/AOT_stimuli/rescaled_final/1151_rv.mp4	0.0	236.4512391090393	0.09998106956481934
47	216.6237781047821	fix_pre	0		120	45.0	2.5	/experiments/knapen_AOT/AOT_stimuli/rescaled_final/0183_rv.mp4	0.0	236.55122017860413	1.0001399517059326
47	217.20747208595276	pulse	0	t		45.0	2.5	/experiments/knapen_AOT/AOT_stimuli/rescaled_final/0183_rv.mp4	0.0	237.13491415977478	
47	217.62391805648804	movie	1		243	45.0	2.5	/experiments/knapen_AOT/AOT_stimuli/rescaled_final/0183_rv.mp4	0.0	237.55136013031006	2.500343084335327
47	218.80774402618408	pulse	1	t		45.0	2.5	/experiments/knapen_AOT/AOT_stimuli/rescaled_final/0183_rv.mp4	0.0	238.7351861000061	
47	220.12426114082336	fix_post	2		12	45.0	2.5	/experiments/knapen_AOT/AOT_stimuli/rescaled_final/0183_rv.mp4	0.0	240.05170321464539	0.10006904602050781
48	220.22433018684387	fix_pre	0		120	46.0	2.5	/experiments/knapen_AOT/AOT_stimuli/rescaled_final/0712_fw.mp4	0.0	240.1517722606659	1.0001368522644043
48	220.4078450202942	pulse	0	t		46.0	2.5	/experiments/knapen_AOT/AOT_stimuli/rescaled_final/0712_fw.mp4	0.0	240.3352870941162	
48	221.22446703910828	movie	1		244	46.0	2.5	/experiments/knapen_AOT/AOT_stimuli/rescaled_final/0712_fw.mp4	0.0	241.1519091129303	2.5002970695495605
48	222.00803112983704	pulse	1	t		46.0	2.5	/experiments/knapen_AOT/AOT_stimuli/rescaled_final/0712_fw.mp4	0.0	241.93547320365906	
48	223.60830903053284	pulse	1	t		46.0	2.5	/experiments/knapen_AOT/AOT_stimuli/rescaled_final/0712_fw.mp4	0.0	243.53575110435486	
48	223.72476410865784	fix_post	2		12	46.0	2.5	/experiments/knapen_AOT/AOT_stimuli/rescaled_final/0712_fw.mp4	0.0	243.65220618247986	0.10005903244018555
49	223.82482314109802	fix_pre	0		120	47.0	2.5	/experiments/knapen_AOT/AOT_stimuli/rescaled_final/1296_rv.mp4	0.0	243.75226521492004	1.0001509189605713
49	224.8249740600586	movie	1		243	47.0	2.5	/experiments/knapen_AOT/AOT_stimuli/rescaled_final/1296_rv.mp4	0.0	244.75241613388062	2.4920151233673096
49	225.20908904075623	pulse	1	t		47.0	2.5	/experiments/knapen_AOT/AOT_stimuli/rescaled_final/1296_rv.mp4	0.0	245.13653111457825	
49	226.80890703201294	pulse	1	t		47.0	2.5	/experiments/knapen_AOT/AOT_stimuli/rescaled_final/1296_rv.mp4	0.0	246.73634910583496	
49	227.3169891834259	fix_post	2		12	47.0	2.5	/experiments/knapen_AOT/AOT_stimuli/rescaled_final/1296_rv.mp4	0.0	247.24443125724792	0.10000395774841309
50	227.41699314117432	fix_pre	0		120	48.0	2.5	/experiments/knapen_AOT/AOT_stimuli/rescaled_final/0558_fw.mp4	0.0	247.34443521499634	1.00022292137146
50	228.40904211997986	pulse	0	t		48.0	2.5	/experiments/knapen_AOT/AOT_stimuli/rescaled_final/0558_fw.mp4	0.0	248.33648419380188	
50	228.41721606254578	movie	1		244	48.0	2.5	/experiments/knapen_AOT/AOT_stimuli/rescaled_final/0558_fw.mp4	0.0	248.3446581363678	2.5086510181427
50	230.010400056839	pulse	1	t		48.0	2.5	/experiments/knapen_AOT/AOT_stimuli/rescaled_final/0558_fw.mp4	0.0	249.937842130661	
50	230.92586708068848	fix_post	2		12	48.0	2.5	/experiments/knapen_AOT/AOT_stimuli/rescaled_final/0558_fw.mp4	0.0	250.8533091545105	0.10008692741394043
51	231.02595400810242	fix_pre	0		120	49.0	2.5	blank	1.0	250.95339608192444	1.0000932216644287
51	231.60963416099548	pulse	0	t		49.0	2.5	blank	1.0	251.5370762348175	
51	232.02604722976685	movie	1		300	49.0	2.5	blank	1.0	251.95348930358887	2.500363826751709
51	233.20983219146729	pulse	1	t		49.0	2.5	blank	1.0	253.1372742652893	
51	234.52641105651855	fix_post	2		12	49.0	2.5	blank	1.0	254.45385313034058	0.10001206398010254
52	234.62642312049866	fix_pre	0		120	50.0	2.5	/experiments/knapen_AOT/AOT_stimuli/rescaled_final/1942_fw.mp4	0.0	254.55386519432068	1.0002238750457764
52	234.8100390434265	pulse	0	t		50.0	2.5	/experiments/knapen_AOT/AOT_stimuli/rescaled_final/1942_fw.mp4	0.0	254.73748111724854	
52	235.62664699554443	movie	1		243	50.0	2.5	/experiments/knapen_AOT/AOT_stimuli/rescaled_final/1942_fw.mp4	0.0	255.55408906936646	2.500284194946289
52	236.41025805473328	pulse	1	t		50.0	2.5	/experiments/knapen_AOT/AOT_stimuli/rescaled_final/1942_fw.mp4	0.0	256.3377001285553	
52	238.0103280544281	pulse	1	t		50.0	2.5	/experiments/knapen_AOT/AOT_stimuli/rescaled_final/1942_fw.mp4	0.0	257.9377701282501	
52	238.12693119049072	fix_post	2		12	50.0	2.5	/experiments/knapen_AOT/AOT_stimuli/rescaled_final/1942_fw.mp4	0.0	258.05437326431274	0.10006093978881836
53	238.22699213027954	fix_pre	0		120	51.0	2.5	/experiments/knapen_AOT/AOT_stimuli/rescaled_final/1646_fw.mp4	0.0	258.15443420410156	1.000140905380249
53	239.2271330356598	movie	1		242	51.0	2.5	/experiments/knapen_AOT/AOT_stimuli/rescaled_final/1646_fw.mp4	0.0	259.1545751094818	2.491986036300659
53	239.61143922805786	pulse	1	t		51.0	2.5	/experiments/knapen_AOT/AOT_stimuli/rescaled_final/1646_fw.mp4	0.0	259.5388813018799	
53	241.2109341621399	pulse	1	t		51.0	2.5	/experiments/knapen_AOT/AOT_stimuli/rescaled_final/1646_fw.mp4	0.0	261.1383762359619	
53	241.71911907196045	fix_post	2		12	51.0	2.5	/experiments/knapen_AOT/AOT_stimuli/rescaled_final/1646_fw.mp4	0.0	261.64656114578247	0.10005307197570801
54	241.81917214393616	fix_pre	0		120	52.0	2.5	/experiments/knapen_AOT/AOT_stimuli/rescaled_final/1279_fw.mp4	0.0	261.7466142177582	1.0001518726348877
54	242.81129002571106	pulse	0	t		52.0	2.5	/experiments/knapen_AOT/AOT_stimuli/rescaled_final/1279_fw.mp4	0.0	262.7387320995331	
54	242.81932401657104	movie	1		245	52.0	2.5	/experiments/knapen_AOT/AOT_stimuli/rescaled_final/1279_fw.mp4	0.0	262.74676609039307	2.508716106414795
54	244.41190814971924	pulse	1	t		52.0	2.5	/experiments/knapen_AOT/AOT_stimuli/rescaled_final/1279_fw.mp4	0.0	264.33935022354126	
54	245.32804012298584	fix_post	2		12	52.0	2.5	/experiments/knapen_AOT/AOT_stimuli/rescaled_final/1279_fw.mp4	0.0	265.25548219680786	0.10007405281066895
55	245.4281141757965	fix_pre	0		118	53.0	2.5	/experiments/knapen_AOT/AOT_stimuli/rescaled_final/1265_rv.mp4	0.0	265.35555624961853	1.000082015991211
55	246.01172018051147	pulse	0	t		53.0	2.5	/experiments/knapen_AOT/AOT_stimuli/rescaled_final/1265_rv.mp4	0.0	265.9391622543335	
55	246.42819619178772	movie	1		243	53.0	2.5	/experiments/knapen_AOT/AOT_stimuli/rescaled_final/1265_rv.mp4	0.0	266.35563826560974	2.5004148483276367
55	247.60802602767944	pulse	1	t		53.0	2.5	/experiments/knapen_AOT/AOT_stimuli/rescaled_final/1265_rv.mp4	0.0	267.53546810150146	
55	248.92861104011536	fix_post	2		12	53.0	2.5	/experiments/knapen_AOT/AOT_stimuli/rescaled_final/1265_rv.mp4	0.0	268.8560531139374	0.09997200965881348
56	249.02858304977417	fix_pre	0		120	54.0	2.5	/experiments/knapen_AOT/AOT_stimuli/rescaled_final/0601_rv.mp4	0.0	268.9560251235962	1.0001330375671387
56	249.21216320991516	pulse	0	t		54.0	2.5	/experiments/knapen_AOT/AOT_stimuli/rescaled_final/0601_rv.mp4	0.0	269.1396052837372	
56	250.0287160873413	movie	1		245	54.0	2.5	/experiments/knapen_AOT/AOT_stimuli/rescaled_final/0601_rv.mp4	0.0	269.95615816116333	2.500378131866455
56	250.81243300437927	pulse	1	t		54.0	2.5	/experiments/knapen_AOT/AOT_stimuli/rescaled_final/0601_rv.mp4	0.0	270.7398750782013	
56	252.4127960205078	pulse	1	t		54.0	2.5	/experiments/knapen_AOT/AOT_stimuli/rescaled_final/0601_rv.mp4	0.0	272.34023809432983	
56	252.52909421920776	fix_post	2		12	54.0	2.5	/experiments/knapen_AOT/AOT_stimuli/rescaled_final/0601_rv.mp4	0.0	272.4565362930298	0.10009193420410156
57	252.62918615341187	fix_pre	0		120	55.0	2.5	blank	1.0	272.5566282272339	1.0000619888305664
57	253.62924814224243	movie	1		299	55.0	2.5	blank	1.0	273.55669021606445	2.492133855819702
57	254.01290702819824	pulse	1	t		55.0	2.5	blank	1.0	273.94034910202026	
57	255.60546612739563	pulse	1	t		55.0	2.5	blank	1.0	275.53290820121765	
57	256.12138199806213	fix_post	2		12	55.0	2.5	blank	1.0	276.04882407188416	0.09992408752441406
58	256.22130608558655	fix_pre	0		120	56.0	2.5	/experiments/knapen_AOT/AOT_stimuli/rescaled_final/0518_rv.mp4	0.0	276.14874815940857	1.0002069473266602
58	257.2059121131897	pulse	0	t		56.0	2.5	/experiments/knapen_AOT/AOT_stimuli/rescaled_final/0518_rv.mp4	0.0	277.1333541870117	
58	257.2215130329132	movie	1		245	56.0	2.5	/experiments/knapen_AOT/AOT_stimuli/rescaled_final/0518_rv.mp4	0.0	277.14895510673523	2.5086231231689453
58	258.8151521682739	pulse	1	t		56.0	2.5	/experiments/knapen_AOT/AOT_stimuli/rescaled_final/0518_rv.mp4	0.0	278.74259424209595	
58	259.73013615608215	fix_post	2		12	56.0	2.5	/experiments/knapen_AOT/AOT_stimuli/rescaled_final/0518_rv.mp4	0.0	279.6575782299042	0.10002493858337402
59	259.8301610946655	fix_pre	0		120	57.0	2.5	/experiments/knapen_AOT/AOT_stimuli/rescaled_final/1942_rv.mp4	0.0	279.75760316848755	1.0002119541168213
59	260.40635418891907	pulse	0	t		57.0	2.5	/experiments/knapen_AOT/AOT_stimuli/rescaled_final/1942_rv.mp4	0.0	280.3337962627411	
59	260.83037304878235	movie	1		243	57.0	2.5	/experiments/knapen_AOT/AOT_stimuli/rescaled_final/1942_rv.mp4	0.0	280.75781512260437	2.5003910064697266
59	262.0063500404358	pulse	1	t		57.0	2.5	/experiments/knapen_AOT/AOT_stimuli/rescaled_final/1942_rv.mp4	0.0	281.9337921142578	
59	263.3307640552521	fix_post	2		12	57.0	2.5	/experiments/knapen_AOT/AOT_stimuli/rescaled_final/1942_rv.mp4	0.0	283.2582061290741	0.09996199607849121
60	263.43072605133057	fix_pre	0		120	58.0	2.5	/experiments/knapen_AOT/AOT_stimuli/rescaled_final/1434_rv.mp4	0.0	283.3581681251526	1.000154972076416
60	263.6059172153473	pulse	0	t		58.0	2.5	/experiments/knapen_AOT/AOT_stimuli/rescaled_final/1434_rv.mp4	0.0	283.5333592891693	
60	264.430881023407	movie	1		244	58.0	2.5	/experiments/knapen_AOT/AOT_stimuli/rescaled_final/1434_rv.mp4	0.0	284.358323097229	2.5003859996795654
60	265.20615100860596	pulse	1	t		58.0	2.5	/experiments/knapen_AOT/AOT_stimuli/rescaled_final/1434_rv.mp4	0.0	285.133593082428	
60	266.80649518966675	pulse	1	t		58.0	2.5	/experiments/knapen_AOT/AOT_stimuli/rescaled_final/1434_rv.mp4	0.0	286.73393726348877	
60	266.93126702308655	fix_post	2		12	58.0	2.5	/experiments/knapen_AOT/AOT_stimuli/rescaled_final/1434_rv.mp4	0.0	286.85870909690857	0.09998798370361328
61	267.03125500679016	fix_pre	0		120	59.0	2.5	/experiments/knapen_AOT/AOT_stimuli/rescaled_final/1990_fw.mp4	0.0	286.9586970806122	1.0001590251922607
61	268.0314140319824	movie	1		243	59.0	2.5	/experiments/knapen_AOT/AOT_stimuli/rescaled_final/1990_fw.mp4	0.0	287.95885610580444	2.4920260906219482
61	268.40668416023254	pulse	1	t		59.0	2.5	/experiments/knapen_AOT/AOT_stimuli/rescaled_final/1990_fw.mp4	0.0	288.33412623405457	
61	270.0069851875305	pulse	1	t		59.0	2.5	/experiments/knapen_AOT/AOT_stimuli/rescaled_final/1990_fw.mp4	0.0	289.93442726135254	
61	270.52344012260437	fix_post	2		12	59.0	2.5	/experiments/knapen_AOT/AOT_stimuli/rescaled_final/1990_fw.mp4	0.0	290.4508821964264	0.1000518798828125
62	270.6234920024872	fix_pre	0		119	60.0	2.5	/experiments/knapen_AOT/AOT_stimuli/rescaled_final/0737_rv.mp4	0.0	290.5509340763092	0.9917991161346436
62	271.60713815689087	pulse	0	t		60.0	2.5	/experiments/knapen_AOT/AOT_stimuli/rescaled_final/0737_rv.mp4	0.0	291.5345802307129	
62	271.6152911186218	movie	1		245	60.0	2.5	/experiments/knapen_AOT/AOT_stimuli/rescaled_final/0737_rv.mp4	0.0	291.54273319244385	2.5086660385131836
62	273.2117521762848	pulse	1	t		60.0	2.5	/experiments/knapen_AOT/AOT_stimuli/rescaled_final/0737_rv.mp4	0.0	293.1391942501068	
62	274.123957157135	fix_post	2		12	60.0	2.5	/experiments/knapen_AOT/AOT_stimuli/rescaled_final/0737_rv.mp4	0.0	294.05139923095703	0.10007286071777344
63	274.2240300178528	fix_pre	0		120	61.0	2.5	/experiments/knapen_AOT/AOT_stimuli/rescaled_final/1078_rv.mp4	0.0	294.1514720916748	1.0001370906829834
63	274.807697057724	pulse	0	t		61.0	2.5	/experiments/knapen_AOT/AOT_stimuli/rescaled_final/1078_rv.mp4	0.0	294.735139131546	
63	275.22416710853577	movie	1		243	61.0	2.5	/experiments/knapen_AOT/AOT_stimuli/rescaled_final/1078_rv.mp4	0.0	295.1516091823578	2.500349998474121
63	276.40802907943726	pulse	1	t		61.0	2.5	/experiments/knapen_AOT/AOT_stimuli/rescaled_final/1078_rv.mp4	0.0	296.3354711532593	
63	277.7245171070099	fix_post	2		12	61.0	2.5	/experiments/knapen_AOT/AOT_stimuli/rescaled_final/1078_rv.mp4	0.0	297.6519591808319	0.10004711151123047
64	277.8245642185211	fix_pre	0		120	62.0	2.5	blank	1.0	297.75200629234314	1.0001559257507324
64	278.0081470012665	pulse	0	t		62.0	2.5	blank	1.0	297.9355890750885	
64	278.82472014427185	movie	1		300	62.0	2.5	blank	1.0	298.7521622180939	2.5003650188446045
64	279.60837721824646	pulse	1	t		62.0	2.5	blank	1.0	299.5358192920685	
64	281.20851016044617	pulse	1	t		62.0	2.5	blank	1.0	301.1359522342682	
64	281.32508516311646	fix_post	2		12	62.0	2.5	blank	1.0	301.2525272369385	0.10002398490905762
65	281.4251091480255	fix_pre	0		120	63.0	2.5	/experiments/knapen_AOT/AOT_stimuli/rescaled_final/1527_rv.mp4	0.0	301.35255122184753	1.0001089572906494
65	282.42521810531616	movie	1		247	63.0	2.5	/experiments/knapen_AOT/AOT_stimuli/rescaled_final/1527_rv.mp4	0.0	302.3526601791382	2.4920079708099365
65	282.8096082210541	pulse	1	t		63.0	2.5	/experiments/knapen_AOT/AOT_stimuli/rescaled_final/1527_rv.mp4	0.0	302.7370502948761	
65	284.409038066864	pulse	1	t		63.0	2.5	/experiments/knapen_AOT/AOT_stimuli/rescaled_final/1527_rv.mp4	0.0	304.33648014068604	
65	284.9172260761261	fix_post	2		12	63.0	2.5	/experiments/knapen_AOT/AOT_stimuli/rescaled_final/1527_rv.mp4	0.0	304.8446681499481	0.10013103485107422
66	285.0173571109772	fix_pre	0		120	64.0	2.5	/experiments/knapen_AOT/AOT_stimuli/rescaled_final/0104_rv.mp4	0.0	304.9447991847992	1.0000989437103271
66	286.00938415527344	pulse	0	t		64.0	2.5	/experiments/knapen_AOT/AOT_stimuli/rescaled_final/0104_rv.mp4	0.0	305.93682622909546	
66	286.0174560546875	movie	1		244	64.0	2.5	/experiments/knapen_AOT/AOT_stimuli/rescaled_final/0104_rv.mp4	0.0	305.9448981285095	2.5088729858398438
66	287.6099271774292	pulse	1	t		64.0	2.5	/experiments/knapen_AOT/AOT_stimuli/rescaled_final/0104_rv.mp4	0.0	307.5373692512512	
66	288.52632904052734	fix_post	2		12	64.0	2.5	/experiments/knapen_AOT/AOT_stimuli/rescaled_final/0104_rv.mp4	0.0	308.45377111434937	0.0998220443725586
67	288.6261510848999	fix_pre	0		120	65.0	2.5	/experiments/knapen_AOT/AOT_stimuli/rescaled_final/1912_rv.mp4	0.0	308.5535931587219	1.0001459121704102
67	289.2098882198334	pulse	0	t		65.0	2.5	/experiments/knapen_AOT/AOT_stimuli/rescaled_final/1912_rv.mp4	0.0	309.1373302936554	
67	289.6262969970703	movie	1		245	65.0	2.5	/experiments/knapen_AOT/AOT_stimuli/rescaled_final/1912_rv.mp4	0.0	309.55373907089233	2.500369071960449
67	290.8100211620331	pulse	1	t		65.0	2.5	/experiments/knapen_AOT/AOT_stimuli/rescaled_final/1912_rv.mp4	0.0	310.7374632358551	
67	292.12666606903076	fix_post	2		12	65.0	2.5	/experiments/knapen_AOT/AOT_stimuli/rescaled_final/1912_rv.mp4	0.0	312.0541081428528	0.10005807876586914
68	292.22672414779663	fix_pre	0		120	66.0	2.5	/experiments/knapen_AOT/AOT_stimuli/rescaled_final/1733_rv.mp4	0.0	312.15416622161865	1.0001299381256104
68	292.4103171825409	pulse	0	t		66.0	2.5	/experiments/knapen_AOT/AOT_stimuli/rescaled_final/1733_rv.mp4	0.0	312.3377592563629	
68	293.22685408592224	movie	1		243	66.0	2.5	/experiments/knapen_AOT/AOT_stimuli/rescaled_final/1733_rv.mp4	0.0	313.15429615974426	2.5003199577331543
68	294.01057720184326	pulse	1	t		66.0	2.5	/experiments/knapen_AOT/AOT_stimuli/rescaled_final/1733_rv.mp4	0.0	313.9380192756653	
68	295.61070704460144	pulse	1	t		66.0	2.5	/experiments/knapen_AOT/AOT_stimuli/rescaled_final/1733_rv.mp4	0.0	315.53814911842346	
68	295.7271740436554	fix_post	2		12	66.0	2.5	/experiments/knapen_AOT/AOT_stimuli/rescaled_final/1733_rv.mp4	0.0	315.6546161174774	0.1001441478729248
69	295.8273181915283	fix_pre	0		120	67.0	2.5	/experiments/knapen_AOT/AOT_stimuli/rescaled_final/1542_fw.mp4	0.0	315.75476026535034	1.000082015991211
69	296.82740020751953	movie	1		242	67.0	2.5	/experiments/knapen_AOT/AOT_stimuli/rescaled_final/1542_fw.mp4	0.0	316.75484228134155	2.492241859436035
69	297.21160221099854	pulse	1	t		67.0	2.5	/experiments/knapen_AOT/AOT_stimuli/rescaled_final/1542_fw.mp4	0.0	317.13904428482056	
69	298.81123304367065	pulse	1	t		67.0	2.5	/experiments/knapen_AOT/AOT_stimuli/rescaled_final/1542_fw.mp4	0.0	318.7386751174927	
69	299.31964206695557	fix_post	2		12	67.0	2.5	/experiments/knapen_AOT/AOT_stimuli/rescaled_final/1542_fw.mp4	0.0	319.2470841407776	0.09977602958679199
70	299.41941809654236	fix_pre	0		120	68.0	2.5	/experiments/knapen_AOT/AOT_stimuli/rescaled_final/1284_fw.mp4	0.0	319.3468601703644	1.00018310546875
70	300.4115791320801	pulse	0	t		68.0	2.5	/experiments/knapen_AOT/AOT_stimuli/rescaled_final/1284_fw.mp4	0.0	320.3390212059021	
70	300.4196012020111	movie	1		245	68.0	2.5	/experiments/knapen_AOT/AOT_stimuli/rescaled_final/1284_fw.mp4	0.0	320.34704327583313	2.5086748600006104
70	302.0121910572052	pulse	1	t		68.0	2.5	/experiments/knapen_AOT/AOT_stimuli/rescaled_final/1284_fw.mp4	0.0	321.9396331310272	
70	302.9282760620117	fix_post	2		12	68.0	2.5	/experiments/knapen_AOT/AOT_stimuli/rescaled_final/1284_fw.mp4	0.0	322.85571813583374	0.1000220775604248
71	303.02829813957214	fix_pre	0		120	69.0	2.5	/experiments/knapen_AOT/AOT_stimuli/rescaled_final/1593_rv.mp4	0.0	322.95574021339417	1.0005998611450195
71	303.61190700531006	pulse	0	t		69.0	2.5	/experiments/knapen_AOT/AOT_stimuli/rescaled_final/1593_rv.mp4	0.0	323.5393490791321	
71	304.02889800071716	movie	1		241	69.0	2.5	/experiments/knapen_AOT/AOT_stimuli/rescaled_final/1593_rv.mp4	0.0	323.9563400745392	2.5000112056732178
71	305.2123022079468	pulse	1	t		69.0	2.5	/experiments/knapen_AOT/AOT_stimuli/rescaled_final/1593_rv.mp4	0.0	325.1397442817688	
71	306.5289092063904	fix_post	2		12	69.0	2.5	/experiments/knapen_AOT/AOT_stimuli/rescaled_final/1593_rv.mp4	0.0	326.4563512802124	0.0999460220336914
72	306.6288552284241	fix_pre	0		120	70.0	2.5	blank	1.0	326.5562973022461	1.0001718997955322
72	306.8125250339508	pulse	0	t		70.0	2.5	blank	1.0	326.7399671077728	
72	307.6290271282196	movie	1		300	70.0	2.5	blank	1.0	327.5564692020416	2.5003280639648438
72	308.41270303726196	pulse	1	t		70.0	2.5	blank	1.0	328.340145111084	
72	310.0053300857544	pulse	1	t		70.0	2.5	blank	1.0	329.9327721595764	
72	310.12935519218445	fix_post	2		12	70.0	2.5	blank	1.0	330.05679726600647	0.10003995895385742
73	310.2293951511383	fix_pre	0		120	71.0	2.5	/experiments/knapen_AOT/AOT_stimuli/rescaled_final/1785_fw.mp4	0.0	330.1568372249603	1.0001649856567383
73	311.22956013679504	movie	1		242	71.0	2.5	/experiments/knapen_AOT/AOT_stimuli/rescaled_final/1785_fw.mp4	0.0	331.15700221061707	2.4919660091400146
73	311.61425709724426	pulse	1	t		71.0	2.5	/experiments/knapen_AOT/AOT_stimuli/rescaled_final/1785_fw.mp4	0.0	331.5416991710663	
73	313.2059531211853	pulse	1	t		71.0	2.5	/experiments/knapen_AOT/AOT_stimuli/rescaled_final/1785_fw.mp4	0.0	333.1333951950073	
73	313.72152614593506	fix_post	2		12	71.0	2.5	/experiments/knapen_AOT/AOT_stimuli/rescaled_final/1785_fw.mp4	0.0	333.6489682197571	0.10007190704345703
74	313.8215980529785	fix_pre	0		120	72.0	2.5	/experiments/knapen_AOT/AOT_stimuli/rescaled_final/0737_rv.mp4	0.0	333.74904012680054	1.0001420974731445
74	314.80604100227356	pulse	0	t		72.0	2.5	/experiments/knapen_AOT/AOT_stimuli/rescaled_final/0737_rv.mp4	0.0	334.7334830760956	
74	314.82174015045166	movie	1		245	72.0	2.5	/experiments/knapen_AOT/AOT_stimuli/rescaled_final/0737_rv.mp4	0.0	334.7491822242737	2.5086960792541504
74	316.4056031703949	pulse	1	t		72.0	2.5	/experiments/knapen_AOT/AOT_stimuli/rescaled_final/0737_rv.mp4	0.0	336.3330452442169	
74	317.3304362297058	fix_post	2		12	72.0	2.5	/experiments/knapen_AOT/AOT_stimuli/rescaled_final/0737_rv.mp4	0.0	337.25787830352783	0.10001993179321289
75	317.430456161499	fix_pre	0		120	73.0	2.5	/experiments/knapen_AOT/AOT_stimuli/rescaled_final/0105_fw.mp4	0.0	337.35789823532104	1.0001399517059326
75	318.00569200515747	pulse	0	t		73.0	2.5	/experiments/knapen_AOT/AOT_stimuli/rescaled_final/0105_fw.mp4	0.0	337.9331340789795	
75	318.43059611320496	movie	1		243	73.0	2.5	/experiments/knapen_AOT/AOT_stimuli/rescaled_final/0105_fw.mp4	0.0	338.358038187027	2.5003509521484375
75	319.60664105415344	pulse	1	t		73.0	2.5	/experiments/knapen_AOT/AOT_stimuli/rescaled_final/0105_fw.mp4	0.0	339.53408312797546	
75	320.9309470653534	fix_post	2		12	73.0	2.5	/experiments/knapen_AOT/AOT_stimuli/rescaled_final/0105_fw.mp4	0.0	340.8583891391754	0.10004806518554688
76	321.03099513053894	fix_pre	0		120	74.0	2.5	/experiments/knapen_AOT/AOT_stimuli/rescaled_final/0243_fw.mp4	0.0	340.95843720436096	1.0001420974731445
76	321.20624899864197	pulse	0	t		74.0	2.5	/experiments/knapen_AOT/AOT_stimuli/rescaled_final/0243_fw.mp4	0.0	341.133691072464	
76	322.0311372280121	movie	1		244	74.0	2.5	/experiments/knapen_AOT/AOT_stimuli/rescaled_final/0243_fw.mp4	0.0	341.9585793018341	2.5003409385681152
76	322.8065140247345	pulse	1	t		74.0	2.5	/experiments/knapen_AOT/AOT_stimuli/rescaled_final/0243_fw.mp4	0.0	342.7339560985565	
76	324.40674114227295	pulse	1	t		74.0	2.5	/experiments/knapen_AOT/AOT_stimuli/rescaled_final/0243_fw.mp4	0.0	344.33418321609497	
76	324.5314781665802	fix_post	2		12	74.0	2.5	/experiments/knapen_AOT/AOT_stimuli/rescaled_final/0243_fw.mp4	0.0	344.4589202404022	0.10004401206970215
77	324.6315221786499	fix_pre	0		119	75.0	2.5	blank	1.0	344.5589642524719	0.9918398857116699
77	325.6233620643616	movie	1		300	75.0	2.5	blank	1.0	345.5508041381836	2.5003631114959717
77	326.00694513320923	pulse	1	t		75.0	2.5	blank	1.0	345.93438720703125	
77	327.6071071624756	pulse	1	t		75.0	2.5	blank	1.0	347.5345492362976	
77	328.12372517585754	fix_post	2		12	75.0	2.5	blank	1.0	348.05116724967957	0.10000205039978027
78	328.2237272262573	fix_pre	0		119	76.0	2.5	/experiments/knapen_AOT/AOT_stimuli/rescaled_final/1146_rv.mp4	0.0	348.15116930007935	0.9918248653411865
78	329.207396030426	pulse	0	t		76.0	2.5	/experiments/knapen_AOT/AOT_stimuli/rescaled_final/1146_rv.mp4	0.0	349.13483810424805	
78	329.2155520915985	movie	1		245	76.0	2.5	/experiments/knapen_AOT/AOT_stimuli/rescaled_final/1146_rv.mp4	0.0	349.14299416542053	2.5086820125579834
78	330.80891013145447	pulse	1	t		76.0	2.5	/experiments/knapen_AOT/AOT_stimuli/rescaled_final/1146_rv.mp4	0.0	350.7363522052765	
78	331.7242341041565	fix_post	2		12	76.0	2.5	/experiments/knapen_AOT/AOT_stimuli/rescaled_final/1146_rv.mp4	0.0	351.6516761779785	0.10001611709594727
79	331.82425022125244	fix_pre	0		120	77.0	2.5	/experiments/knapen_AOT/AOT_stimuli/rescaled_final/1259_rv.mp4	0.0	351.75169229507446	1.0001609325408936
79	332.411639213562	pulse	0	t		77.0	2.5	/experiments/knapen_AOT/AOT_stimuli/rescaled_final/1259_rv.mp4	0.0	352.33908128738403	
79	332.82441115379333	movie	1		244	77.0	2.5	/experiments/knapen_AOT/AOT_stimuli/rescaled_final/1259_rv.mp4	0.0	352.75185322761536	2.500364065170288
79	334.0083341598511	pulse	1	t		77.0	2.5	/experiments/knapen_AOT/AOT_stimuli/rescaled_final/1259_rv.mp4	0.0	353.9357762336731	
79	335.3247752189636	fix_post	2		12	77.0	2.5	/experiments/knapen_AOT/AOT_stimuli/rescaled_final/1259_rv.mp4	0.0	355.25221729278564	0.10001277923583984
80	335.42478799819946	fix_pre	0		120	78.0	2.5	/experiments/knapen_AOT/AOT_stimuli/rescaled_final/1107_rv.mp4	0.0	355.3522300720215	1.0001680850982666
80	335.60840106010437	pulse	0	t		78.0	2.5	/experiments/knapen_AOT/AOT_stimuli/rescaled_final/1107_rv.mp4	0.0	355.5358431339264	
80	336.42495608329773	movie	1		243	78.0	2.5	/experiments/knapen_AOT/AOT_stimuli/rescaled_final/1107_rv.mp4	0.0	356.35239815711975	2.500359058380127
80	337.20856499671936	pulse	1	t		78.0	2.5	/experiments/knapen_AOT/AOT_stimuli/rescaled_final/1107_rv.mp4	0.0	357.1360070705414	
80	338.80898809432983	pulse	1	t		78.0	2.5	/experiments/knapen_AOT/AOT_stimuli/rescaled_final/1107_rv.mp4	0.0	358.73643016815186	
80	338.92531514167786	fix_post	2		12	78.0	2.5	/experiments/knapen_AOT/AOT_stimuli/rescaled_final/1107_rv.mp4	0.0	358.8527572154999	0.10001897811889648
81	339.02533411979675	fix_pre	0		120	79.0	2.5	/experiments/knapen_AOT/AOT_stimuli/rescaled_final/1671_fw.mp4	0.0	358.9527761936188	1.0002849102020264
81	340.0256190299988	movie	1		242	79.0	2.5	/experiments/knapen_AOT/AOT_stimuli/rescaled_final/1671_fw.mp4	0.0	359.9530611038208	2.49190616607666
81	340.4097511768341	pulse	1	t		79.0	2.5	/experiments/knapen_AOT/AOT_stimuli/rescaled_final/1671_fw.mp4	0.0	360.3371932506561	
81	342.00939416885376	pulse	1	t		79.0	2.5	/experiments/knapen_AOT/AOT_stimuli/rescaled_final/1671_fw.mp4	0.0	361.9368362426758	
81	342.51752519607544	fix_post	2		12	79.0	2.5	/experiments/knapen_AOT/AOT_stimuli/rescaled_final/1671_fw.mp4	0.0	362.44496726989746	0.10003995895385742
82	342.6175651550293	fix_pre	0		120	80.0	2.5	/experiments/knapen_AOT/AOT_stimuli/rescaled_final/1912_fw.mp4	0.0	362.5450072288513	1.0001568794250488
82	343.6096041202545	pulse	0	t		80.0	2.5	/experiments/knapen_AOT/AOT_stimuli/rescaled_final/1912_fw.mp4	0.0	363.53704619407654	
82	343.61772203445435	movie	1		246	80.0	2.5	/experiments/knapen_AOT/AOT_stimuli/rescaled_final/1912_fw.mp4	0.0	363.54516410827637	2.5086681842803955
82	345.2104661464691	pulse	1	t		80.0	2.5	/experiments/knapen_AOT/AOT_stimuli/rescaled_final/1912_fw.mp4	0.0	365.13790822029114	
82	346.12639021873474	fix_post	2		12	80.0	2.5	/experiments/knapen_AOT/AOT_stimuli/rescaled_final/1912_fw.mp4	0.0	366.05383229255676	0.10002684593200684
83	346.22641706466675	fix_pre	0		120	81.0	2.5	/experiments/knapen_AOT/AOT_stimuli/rescaled_final/0105_rv.mp4	0.0	366.15385913848877	1.0001299381256104
83	346.8099911212921	pulse	0	t		81.0	2.5	/experiments/knapen_AOT/AOT_stimuli/rescaled_final/0105_rv.mp4	0.0	366.73743319511414	
83	347.22654700279236	movie	1		243	81.0	2.5	/experiments/knapen_AOT/AOT_stimuli/rescaled_final/0105_rv.mp4	0.0	367.1539890766144	2.5003790855407715
83	348.4104552268982	pulse	1	t		81.0	2.5	/experiments/knapen_AOT/AOT_stimuli/rescaled_final/0105_rv.mp4	0.0	368.3378973007202	
83	349.72692608833313	fix_post	2		12	81.0	2.5	/experiments/knapen_AOT/AOT_stimuli/rescaled_final/0105_rv.mp4	0.0	369.65436816215515	0.10005307197570801
84	349.82697916030884	fix_pre	0		120	82.0	2.5	/experiments/knapen_AOT/AOT_stimuli/rescaled_final/1271_fw.mp4	0.0	369.75442123413086	1.0001189708709717
84	350.0105381011963	pulse	0	t		82.0	2.5	/experiments/knapen_AOT/AOT_stimuli/rescaled_final/1271_fw.mp4	0.0	369.9379801750183	
84	350.8270981311798	movie	1		244	82.0	2.5	/experiments/knapen_AOT/AOT_stimuli/rescaled_final/1271_fw.mp4	0.0	370.75454020500183	2.500415086746216
84	351.61079001426697	pulse	1	t		82.0	2.5	/experiments/knapen_AOT/AOT_stimuli/rescaled_final/1271_fw.mp4	0.0	371.538232088089	
84	353.21094822883606	pulse	1	t		82.0	2.5	/experiments/knapen_AOT/AOT_stimuli/rescaled_final/1271_fw.mp4	0.0	373.1383903026581	
84	353.327513217926	fix_post	2		12	82.0	2.5	/experiments/knapen_AOT/AOT_stimuli/rescaled_final/1271_fw.mp4	0.0	373.25495529174805	0.09995484352111816
85	353.42746806144714	fix_pre	0		120	83.0	2.5	blank	1.0	373.35491013526917	1.0002341270446777
85	354.4277021884918	movie	1		299	83.0	2.5	blank	1.0	374.35514426231384	2.491959810256958
85	354.8113341331482	pulse	1	t		83.0	2.5	blank	1.0	374.7387762069702	
85	356.41154503822327	pulse	1	t		83.0	2.5	blank	1.0	376.3389871120453	
85	356.9196619987488	fix_post	2		12	83.0	2.5	blank	1.0	376.8471040725708	0.10003018379211426
87	357.0196921825409	stim	0		1716					376.9471342563629	14.302134037017822
87	358.0116820335388	pulse	0	t						377.93912410736084	
87	359.61188411712646	pulse	0	t						379.5393261909485	
87	361.2122440338135	pulse	0	t						381.1396861076355	
87	362.8125309944153	pulse	0	t						382.7399730682373	
87	364.4126682281494	pulse	0	t						384.34011030197144	
87	366.0128140449524	pulse	0	t						385.9402561187744	
87	367.6130790710449	pulse	0	t						387.54052114486694	
87	369.2059061527252	pulse	0	t						389.13334822654724	
87	370.80622911453247	pulse	0	t						390.7336711883545	
