trial_nr	onset	event_type	phase	response	nr_frames	movie_index	movie_duration	movie_file	blank	onset_abs	duration
0	0.18324708938598633	stim	0		60					92.93589925765991	0.516610860824585
0	0.6948120594024658	response	0	space						93.44746422767639	
1	0.6998579502105713	stim	0		3873					93.4525101184845	32.289767026901245
1	32.97981309890747	pulse	0	t						125.7324652671814	
1	32.989624977111816	stim	1		1716					125.74227714538574	14.300640106201172
1	34.571845054626465	pulse	1	t						127.32449722290039	
1	36.17203903198242	pulse	1	t						128.92469120025635	
1	37.772340059280396	pulse	1	t						130.52499222755432	
1	39.3724570274353	pulse	1	t						132.12510919570923	
1	40.97277617454529	pulse	1	t						133.7254283428192	
1	42.573047161102295	pulse	1	t						135.32569932937622	
1	44.173360109329224	pulse	1	t						136.92601227760315	
1	45.77342510223389	pulse	1	t						138.5260772705078	
2	47.29026508331299	fix_pre	0		11	0.0	2.5	/experiments/knapen_AOT/AOT_stimuli/rescaled_final/1427_rv.mp4	0.0	140.0429172515869	0.09169387817382812
2	47.373690128326416	pulse	0	t		0.0	2.5	/experiments/knapen_AOT/AOT_stimuli/rescaled_final/1427_rv.mp4	0.0	140.12634229660034	
2	47.381958961486816	movie	1		246	0.0	2.5	/experiments/knapen_AOT/AOT_stimuli/rescaled_final/1427_rv.mp4	0.0	140.13461112976074	2.5086100101470947
2	48.974584102630615	pulse	1	t		0.0	2.5	/experiments/knapen_AOT/AOT_stimuli/rescaled_final/1427_rv.mp4	0.0	141.72723627090454	
2	49.89056897163391	fix_post	2		12	0.0	2.5	/experiments/knapen_AOT/AOT_stimuli/rescaled_final/1427_rv.mp4	0.0	142.64322113990784	0.10011100769042969
3	49.99067997932434	fix_pre	0		120	1.0	2.5	/experiments/knapen_AOT/AOT_stimuli/rescaled_final/2179_rv.mp4	0.0	142.74333214759827	1.0000760555267334
3	50.574321031570435	pulse	0	t		1.0	2.5	/experiments/knapen_AOT/AOT_stimuli/rescaled_final/2179_rv.mp4	0.0	143.32697319984436	
3	50.990756034851074	movie	1		242	1.0	2.5	/experiments/knapen_AOT/AOT_stimuli/rescaled_final/2179_rv.mp4	0.0	143.743408203125	2.5005569458007812
3	52.1746780872345	pulse	1	t		1.0	2.5	/experiments/knapen_AOT/AOT_stimuli/rescaled_final/2179_rv.mp4	0.0	144.92733025550842	
3	53.491312980651855	fix_post	2		12	1.0	2.5	/experiments/knapen_AOT/AOT_stimuli/rescaled_final/2179_rv.mp4	0.0	146.24396514892578	0.09986019134521484
4	53.59117317199707	fix_pre	0		120	2.0	2.5	/experiments/knapen_AOT/AOT_stimuli/rescaled_final/1259_fw.mp4	0.0	146.343825340271	1.0001089572906494
4	53.77471113204956	pulse	0	t		2.0	2.5	/experiments/knapen_AOT/AOT_stimuli/rescaled_final/1259_fw.mp4	0.0	146.5273633003235	
4	54.59128212928772	movie	1		243	2.0	2.5	/experiments/knapen_AOT/AOT_stimuli/rescaled_final/1259_fw.mp4	0.0	147.34393429756165	2.5003600120544434
4	55.37491011619568	pulse	1	t		2.0	2.5	/experiments/knapen_AOT/AOT_stimuli/rescaled_final/1259_fw.mp4	0.0	148.1275622844696	
4	56.9749550819397	pulse	1	t		2.0	2.5	/experiments/knapen_AOT/AOT_stimuli/rescaled_final/1259_fw.mp4	0.0	149.72760725021362	
4	57.09164214134216	fix_post	2		12	2.0	2.5	/experiments/knapen_AOT/AOT_stimuli/rescaled_final/1259_fw.mp4	0.0	149.8442943096161	0.10004281997680664
5	57.19168496131897	fix_pre	0		120	3.0	2.5	/experiments/knapen_AOT/AOT_stimuli/rescaled_final/0495_fw.mp4	0.0	149.9443371295929	1.0001261234283447
5	58.191811084747314	movie	1		242	3.0	2.5	/experiments/knapen_AOT/AOT_stimuli/rescaled_final/0495_fw.mp4	0.0	150.94446325302124	2.492034912109375
5	58.57588195800781	pulse	1	t		3.0	2.5	/experiments/knapen_AOT/AOT_stimuli/rescaled_final/0495_fw.mp4	0.0	151.32853412628174	
5	60.17571711540222	pulse	1	t		3.0	2.5	/experiments/knapen_AOT/AOT_stimuli/rescaled_final/0495_fw.mp4	0.0	152.92836928367615	
5	60.68384599685669	fix_post	2		12	3.0	2.5	/experiments/knapen_AOT/AOT_stimuli/rescaled_final/0495_fw.mp4	0.0	153.43649816513062	0.10002398490905762
6	60.78386998176575	fix_pre	0		120	4.0	2.5	/experiments/knapen_AOT/AOT_stimuli/rescaled_final/1990_rv.mp4	0.0	153.53652215003967	1.0003011226654053
6	61.775920152664185	pulse	0	t		4.0	2.5	/experiments/knapen_AOT/AOT_stimuli/rescaled_final/1990_rv.mp4	0.0	154.5285723209381	
6	61.78417110443115	movie	1		244	4.0	2.5	/experiments/knapen_AOT/AOT_stimuli/rescaled_final/1990_rv.mp4	0.0	154.53682327270508	2.50862193107605
6	63.376569986343384	pulse	1	t		4.0	2.5	/experiments/knapen_AOT/AOT_stimuli/rescaled_final/1990_rv.mp4	0.0	156.1292221546173	
6	64.2927930355072	fix_post	2		12	4.0	2.5	/experiments/knapen_AOT/AOT_stimuli/rescaled_final/1990_rv.mp4	0.0	157.04544520378113	0.09996700286865234
7	64.39276003837585	fix_pre	0		120	5.0	2.5	/experiments/knapen_AOT/AOT_stimuli/rescaled_final/0357_fw.mp4	0.0	157.14541220664978	1.0001311302185059
7	64.97638297080994	pulse	0	t		5.0	2.5	/experiments/knapen_AOT/AOT_stimuli/rescaled_final/0357_fw.mp4	0.0	157.72903513908386	
7	65.39289116859436	movie	1		243	5.0	2.5	/experiments/knapen_AOT/AOT_stimuli/rescaled_final/0357_fw.mp4	0.0	158.1455433368683	2.5004279613494873
7	66.57670617103577	pulse	1	t		5.0	2.5	/experiments/knapen_AOT/AOT_stimuli/rescaled_final/0357_fw.mp4	0.0	159.3293583393097	
7	67.89331912994385	fix_post	2		12	5.0	2.5	/experiments/knapen_AOT/AOT_stimuli/rescaled_final/0357_fw.mp4	0.0	160.64597129821777	0.09996390342712402
8	67.99328303337097	fix_pre	0		120	6.0	2.5	/experiments/knapen_AOT/AOT_stimuli/rescaled_final/0104_fw.mp4	0.0	160.7459352016449	1.0001671314239502
8	68.16933298110962	pulse	0	t		6.0	2.5	/experiments/knapen_AOT/AOT_stimuli/rescaled_final/0104_fw.mp4	0.0	160.92198514938354	
8	68.99345016479492	movie	1		242	6.0	2.5	/experiments/knapen_AOT/AOT_stimuli/rescaled_final/0104_fw.mp4	0.0	161.74610233306885	2.500581979751587
8	69.76972913742065	pulse	1	t		6.0	2.5	/experiments/knapen_AOT/AOT_stimuli/rescaled_final/0104_fw.mp4	0.0	162.52238130569458	
8	71.37733316421509	pulse	1	t		6.0	2.5	/experiments/knapen_AOT/AOT_stimuli/rescaled_final/0104_fw.mp4	0.0	164.129985332489	
8	71.49403214454651	fix_post	2		12	6.0	2.5	/experiments/knapen_AOT/AOT_stimuli/rescaled_final/0104_fw.mp4	0.0	164.24668431282043	0.09978580474853516
9	71.59381794929504	fix_pre	0		120	7.0	2.5	blank	1.0	164.34647011756897	1.0001471042633057
9	72.59396505355835	movie	1		299	7.0	2.5	blank	1.0	165.34661722183228	2.4920620918273926
9	72.96996307373047	pulse	1	t		7.0	2.5	blank	1.0	165.7226152420044	
9	74.56948208808899	pulse	1	t		7.0	2.5	blank	1.0	167.32213425636292	
9	75.08602714538574	fix_post	2		12	7.0	2.5	blank	1.0	167.83867931365967	0.09999203681945801
10	75.1860191822052	fix_pre	0		119	8.0	2.5	/experiments/knapen_AOT/AOT_stimuli/rescaled_final/0930_fw.mp4	0.0	167.93867135047913	0.9919078350067139
10	76.16960501670837	pulse	0	t		8.0	2.5	/experiments/knapen_AOT/AOT_stimuli/rescaled_final/0930_fw.mp4	0.0	168.9222571849823	
10	76.17792701721191	movie	1		243	8.0	2.5	/experiments/knapen_AOT/AOT_stimuli/rescaled_final/0930_fw.mp4	0.0	168.93057918548584	2.5087549686431885
10	77.77498507499695	pulse	1	t		8.0	2.5	/experiments/knapen_AOT/AOT_stimuli/rescaled_final/0930_fw.mp4	0.0	170.52763724327087	
10	78.6866819858551	fix_post	2		12	8.0	2.5	/experiments/knapen_AOT/AOT_stimuli/rescaled_final/0930_fw.mp4	0.0	171.43933415412903	0.09988617897033691
11	78.78656816482544	fix_pre	0		120	9.0	2.5	/experiments/knapen_AOT/AOT_stimuli/rescaled_final/0210_fw.mp4	0.0	171.53922033309937	1.0001678466796875
11	79.37013697624207	pulse	0	t		9.0	2.5	/experiments/knapen_AOT/AOT_stimuli/rescaled_final/0210_fw.mp4	0.0	172.122789144516	
11	79.78673601150513	movie	1		242	9.0	2.5	/experiments/knapen_AOT/AOT_stimuli/rescaled_final/0210_fw.mp4	0.0	172.53938817977905	2.5005791187286377
11	80.97053098678589	pulse	1	t		9.0	2.5	/experiments/knapen_AOT/AOT_stimuli/rescaled_final/0210_fw.mp4	0.0	173.72318315505981	
11	82.28731513023376	fix_post	2		12	9.0	2.5	/experiments/knapen_AOT/AOT_stimuli/rescaled_final/0210_fw.mp4	0.0	175.0399672985077	0.09976601600646973
12	82.38708114624023	fix_pre	0		120	10.0	2.5	/experiments/knapen_AOT/AOT_stimuli/rescaled_final/0737_fw.mp4	0.0	175.13973331451416	1.0001859664916992
12	82.57061004638672	pulse	0	t		10.0	2.5	/experiments/knapen_AOT/AOT_stimuli/rescaled_final/0737_fw.mp4	0.0	175.32326221466064	
12	83.38726711273193	movie	1		243	10.0	2.5	/experiments/knapen_AOT/AOT_stimuli/rescaled_final/0737_fw.mp4	0.0	176.13991928100586	2.500527858734131
12	84.17088317871094	pulse	1	t		10.0	2.5	/experiments/knapen_AOT/AOT_stimuli/rescaled_final/0737_fw.mp4	0.0	176.92353534698486	
12	85.77160215377808	pulse	1	t		10.0	2.5	/experiments/knapen_AOT/AOT_stimuli/rescaled_final/0737_fw.mp4	0.0	178.524254322052	
12	85.88779497146606	fix_post	2		12	10.0	2.5	/experiments/knapen_AOT/AOT_stimuli/rescaled_final/0737_fw.mp4	0.0	178.64044713974	0.09983515739440918
13	85.98763012886047	fix_pre	0		119	11.0	2.5	/experiments/knapen_AOT/AOT_stimuli/rescaled_final/0525_fw.mp4	0.0	178.7402822971344	0.9917969703674316
13	86.9794270992279	movie	1		239	11.0	2.5	/experiments/knapen_AOT/AOT_stimuli/rescaled_final/0525_fw.mp4	0.0	179.73207926750183	2.5091819763183594
13	87.37144207954407	pulse	1	t		11.0	2.5	/experiments/knapen_AOT/AOT_stimuli/rescaled_final/0525_fw.mp4	0.0	180.124094247818	
13	88.97155117988586	pulse	1	t		11.0	2.5	/experiments/knapen_AOT/AOT_stimuli/rescaled_final/0525_fw.mp4	0.0	181.7242033481598	
13	89.48860907554626	fix_post	2		11	11.0	2.5	/experiments/knapen_AOT/AOT_stimuli/rescaled_final/0525_fw.mp4	0.0	182.2412612438202	0.09121108055114746
14	89.57982015609741	fix_pre	0		120	12.0	2.5	blank	1.0	182.33247232437134	1.000201940536499
14	90.57195210456848	pulse	0	t		12.0	2.5	blank	1.0	183.3246042728424	
14	90.58002209663391	movie	1		301	12.0	2.5	blank	1.0	183.33267426490784	2.5087239742279053
14	92.17203712463379	pulse	1	t		12.0	2.5	blank	1.0	184.92468929290771	
14	93.08874607086182	fix_post	2		12	12.0	2.5	blank	1.0	185.84139823913574	0.099945068359375
15	93.18869113922119	fix_pre	0		120	13.0	2.5	/experiments/knapen_AOT/AOT_stimuli/rescaled_final/0320_fw.mp4	0.0	185.94134330749512	1.0001909732818604
15	93.77226996421814	pulse	0	t		13.0	2.5	/experiments/knapen_AOT/AOT_stimuli/rescaled_final/0320_fw.mp4	0.0	186.52492213249207	
15	94.18888211250305	movie	1		243	13.0	2.5	/experiments/knapen_AOT/AOT_stimuli/rescaled_final/0320_fw.mp4	0.0	186.94153428077698	2.5004758834838867
15	95.37261414527893	pulse	1	t		13.0	2.5	/experiments/knapen_AOT/AOT_stimuli/rescaled_final/0320_fw.mp4	0.0	188.12526631355286	
15	96.68935799598694	fix_post	2		12	13.0	2.5	/experiments/knapen_AOT/AOT_stimuli/rescaled_final/0320_fw.mp4	0.0	189.44201016426086	0.09989500045776367
16	96.7892529964447	fix_pre	0		120	14.0	2.5	/experiments/knapen_AOT/AOT_stimuli/rescaled_final/0789_fw.mp4	0.0	189.54190516471863	1.0001840591430664
16	96.97290301322937	pulse	0	t		14.0	2.5	/experiments/knapen_AOT/AOT_stimuli/rescaled_final/0789_fw.mp4	0.0	189.7255551815033	
16	97.78943705558777	movie	1		243	14.0	2.5	/experiments/knapen_AOT/AOT_stimuli/rescaled_final/0789_fw.mp4	0.0	190.5420892238617	2.500540018081665
16	98.57318496704102	pulse	1	t		14.0	2.5	/experiments/knapen_AOT/AOT_stimuli/rescaled_final/0789_fw.mp4	0.0	191.32583713531494	
16	100.17388415336609	pulse	1	t		14.0	2.5	/experiments/knapen_AOT/AOT_stimuli/rescaled_final/0789_fw.mp4	0.0	192.92653632164001	
16	100.28997707366943	fix_post	2		12	14.0	2.5	/experiments/knapen_AOT/AOT_stimuli/rescaled_final/0789_fw.mp4	0.0	193.04262924194336	0.09985089302062988
17	100.38982796669006	fix_pre	0		120	15.0	2.5	/experiments/knapen_AOT/AOT_stimuli/rescaled_final/0581_rv.mp4	0.0	193.142480134964	1.0000929832458496
17	101.38992094993591	movie	1		243	15.0	2.5	/experiments/knapen_AOT/AOT_stimuli/rescaled_final/0581_rv.mp4	0.0	194.14257311820984	2.4920570850372314
17	101.77402400970459	pulse	1	t		15.0	2.5	/experiments/knapen_AOT/AOT_stimuli/rescaled_final/0581_rv.mp4	0.0	194.52667617797852	
17	103.37372612953186	pulse	1	t		15.0	2.5	/experiments/knapen_AOT/AOT_stimuli/rescaled_final/0581_rv.mp4	0.0	196.1263782978058	
17	103.88197803497314	fix_post	2		12	15.0	2.5	/experiments/knapen_AOT/AOT_stimuli/rescaled_final/0581_rv.mp4	0.0	196.63463020324707	0.10004091262817383
18	103.98201894760132	fix_pre	0		120	16.0	2.5	/experiments/knapen_AOT/AOT_stimuli/rescaled_final/2041_rv.mp4	0.0	196.73467111587524	1.0000932216644287
18	104.97411799430847	pulse	0	t		16.0	2.5	/experiments/knapen_AOT/AOT_stimuli/rescaled_final/2041_rv.mp4	0.0	197.7267701625824	
18	104.98211216926575	movie	1		243	16.0	2.5	/experiments/knapen_AOT/AOT_stimuli/rescaled_final/2041_rv.mp4	0.0	197.73476433753967	2.5088019371032715
18	106.57508707046509	pulse	1	t		16.0	2.5	/experiments/knapen_AOT/AOT_stimuli/rescaled_final/2041_rv.mp4	0.0	199.327739238739	
18	107.49091410636902	fix_post	2		12	16.0	2.5	/experiments/knapen_AOT/AOT_stimuli/rescaled_final/2041_rv.mp4	0.0	200.24356627464294	0.09994697570800781
19	107.59086108207703	fix_pre	0		120	17.0	2.5	/experiments/knapen_AOT/AOT_stimuli/rescaled_final/0340_rv.mp4	0.0	200.34351325035095	1.0001440048217773
19	108.17445302009583	pulse	0	t		17.0	2.5	/experiments/knapen_AOT/AOT_stimuli/rescaled_final/0340_rv.mp4	0.0	200.92710518836975	
19	108.5910050868988	movie	1		243	17.0	2.5	/experiments/knapen_AOT/AOT_stimuli/rescaled_final/0340_rv.mp4	0.0	201.34365725517273	2.500364065170288
19	109.77476906776428	pulse	1	t		17.0	2.5	/experiments/knapen_AOT/AOT_stimuli/rescaled_final/0340_rv.mp4	0.0	202.5274212360382	
19	111.09136915206909	fix_post	2		12	17.0	2.5	/experiments/knapen_AOT/AOT_stimuli/rescaled_final/0340_rv.mp4	0.0	203.84402132034302	0.0999748706817627
20	111.19134402275085	fix_pre	0		120	18.0	2.5	/experiments/knapen_AOT/AOT_stimuli/rescaled_final/1985_fw.mp4	0.0	203.94399619102478	1.0001919269561768
20	111.37500715255737	pulse	0	t		18.0	2.5	/experiments/knapen_AOT/AOT_stimuli/rescaled_final/1985_fw.mp4	0.0	204.1276593208313	
20	112.19153594970703	movie	1		245	18.0	2.5	/experiments/knapen_AOT/AOT_stimuli/rescaled_final/1985_fw.mp4	0.0	204.94418811798096	2.500369071960449
20	112.9753270149231	pulse	1	t		18.0	2.5	/experiments/knapen_AOT/AOT_stimuli/rescaled_final/1985_fw.mp4	0.0	205.72797918319702	
20	114.57549905776978	pulse	1	t		18.0	2.5	/experiments/knapen_AOT/AOT_stimuli/rescaled_final/1985_fw.mp4	0.0	207.3281512260437	
20	114.69190502166748	fix_post	2		12	18.0	2.5	/experiments/knapen_AOT/AOT_stimuli/rescaled_final/1985_fw.mp4	0.0	207.4445571899414	0.10003399848937988
21	114.79193902015686	fix_pre	0		120	19.0	2.5	/experiments/knapen_AOT/AOT_stimuli/rescaled_final/1792_rv.mp4	0.0	207.5445911884308	1.0001201629638672
21	115.79205918312073	movie	1		242	19.0	2.5	/experiments/knapen_AOT/AOT_stimuli/rescaled_final/1792_rv.mp4	0.0	208.54471135139465	2.4920737743377686
21	116.17626810073853	pulse	1	t		19.0	2.5	/experiments/knapen_AOT/AOT_stimuli/rescaled_final/1792_rv.mp4	0.0	208.92892026901245	
21	117.77603912353516	pulse	1	t		19.0	2.5	/experiments/knapen_AOT/AOT_stimuli/rescaled_final/1792_rv.mp4	0.0	210.52869129180908	
21	118.2841329574585	fix_post	2		12	19.0	2.5	/experiments/knapen_AOT/AOT_stimuli/rescaled_final/1792_rv.mp4	0.0	211.03678512573242	0.10002899169921875
22	118.38416194915771	fix_pre	0		120	20.0	2.5	/experiments/knapen_AOT/AOT_stimuli/rescaled_final/0386_fw.mp4	0.0	211.13681411743164	1.0001211166381836
22	119.37615203857422	pulse	0	t		20.0	2.5	/experiments/knapen_AOT/AOT_stimuli/rescaled_final/0386_fw.mp4	0.0	212.12880420684814	
22	119.3842830657959	movie	1		245	20.0	2.5	/experiments/knapen_AOT/AOT_stimuli/rescaled_final/0386_fw.mp4	0.0	212.13693523406982	2.5087289810180664
22	120.9767861366272	pulse	1	t		20.0	2.5	/experiments/knapen_AOT/AOT_stimuli/rescaled_final/0386_fw.mp4	0.0	213.72943830490112	
22	121.89301204681396	fix_post	2		12	20.0	2.5	/experiments/knapen_AOT/AOT_stimuli/rescaled_final/0386_fw.mp4	0.0	214.6456642150879	0.09998703002929688
23	121.99299907684326	fix_pre	0		120	21.0	2.5	blank	1.0	214.7456512451172	1.000166893005371
23	122.56916117668152	pulse	0	t		21.0	2.5	blank	1.0	215.32181334495544	
23	122.99316596984863	movie	1		300	21.0	2.5	blank	1.0	215.74581813812256	2.5003890991210938
23	124.16929697990417	pulse	1	t		21.0	2.5	blank	1.0	216.9219491481781	
23	125.49355506896973	fix_post	2		12	21.0	2.5	blank	1.0	218.24620723724365	0.09996891021728516
24	125.59352397918701	fix_pre	0		120	22.0	2.5	/experiments/knapen_AOT/AOT_stimuli/rescaled_final/1434_fw.mp4	0.0	218.34617614746094	1.0001599788665771
24	125.76972317695618	pulse	0	t		22.0	2.5	/experiments/knapen_AOT/AOT_stimuli/rescaled_final/1434_fw.mp4	0.0	218.5223753452301	
24	126.59368395805359	movie	1		243	22.0	2.5	/experiments/knapen_AOT/AOT_stimuli/rescaled_final/1434_fw.mp4	0.0	219.34633612632751	2.5005931854248047
24	127.36983704566956	pulse	1	t		22.0	2.5	/experiments/knapen_AOT/AOT_stimuli/rescaled_final/1434_fw.mp4	0.0	220.12248921394348	
24	128.96920704841614	pulse	1	t		22.0	2.5	/experiments/knapen_AOT/AOT_stimuli/rescaled_final/1434_fw.mp4	0.0	221.72185921669006	
24	129.0942771434784	fix_post	2		12	22.0	2.5	/experiments/knapen_AOT/AOT_stimuli/rescaled_final/1434_fw.mp4	0.0	221.84692931175232	0.09980487823486328
25	129.19408202171326	fix_pre	0		119	23.0	2.5	/experiments/knapen_AOT/AOT_stimuli/rescaled_final/0386_rv.mp4	0.0	221.94673418998718	0.9918019771575928
25	130.18588399887085	movie	1		244	23.0	2.5	/experiments/knapen_AOT/AOT_stimuli/rescaled_final/0386_rv.mp4	0.0	222.93853616714478	2.500369071960449
25	130.57001900672913	pulse	1	t		23.0	2.5	/experiments/knapen_AOT/AOT_stimuli/rescaled_final/0386_rv.mp4	0.0	223.32267117500305	
25	132.16979098320007	pulse	1	t		23.0	2.5	/experiments/knapen_AOT/AOT_stimuli/rescaled_final/0386_rv.mp4	0.0	224.922443151474	
25	132.6862530708313	fix_post	2		12	23.0	2.5	/experiments/knapen_AOT/AOT_stimuli/rescaled_final/0386_rv.mp4	0.0	225.43890523910522	0.10002303123474121
26	132.78627610206604	fix_pre	0		119	24.0	2.5	/experiments/knapen_AOT/AOT_stimuli/rescaled_final/1444_fw.mp4	0.0	225.53892827033997	0.9918110370635986
26	133.77009510993958	pulse	0	t		24.0	2.5	/experiments/knapen_AOT/AOT_stimuli/rescaled_final/1444_fw.mp4	0.0	226.5227472782135	
26	133.77808713912964	movie	1		244	24.0	2.5	/experiments/knapen_AOT/AOT_stimuli/rescaled_final/1444_fw.mp4	0.0	226.53073930740356	2.508718967437744
26	135.37074899673462	pulse	1	t		24.0	2.5	/experiments/knapen_AOT/AOT_stimuli/rescaled_final/1444_fw.mp4	0.0	228.12340116500854	
26	136.28680610656738	fix_post	2		12	24.0	2.5	/experiments/knapen_AOT/AOT_stimuli/rescaled_final/1444_fw.mp4	0.0	229.0394582748413	0.10009002685546875
27	136.38689613342285	fix_pre	0		120	25.0	2.5	/experiments/knapen_AOT/AOT_stimuli/rescaled_final/0465_rv.mp4	0.0	229.13954830169678	1.000074863433838
27	136.9705080986023	pulse	0	t		25.0	2.5	/experiments/knapen_AOT/AOT_stimuli/rescaled_final/0465_rv.mp4	0.0	229.72316026687622	
27	137.3869709968567	movie	1		242	25.0	2.5	/experiments/knapen_AOT/AOT_stimuli/rescaled_final/0465_rv.mp4	0.0	230.13962316513062	2.500460147857666
27	138.57071495056152	pulse	1	t		25.0	2.5	/experiments/knapen_AOT/AOT_stimuli/rescaled_final/0465_rv.mp4	0.0	231.32336711883545	
27	139.88743114471436	fix_post	2		12	25.0	2.5	/experiments/knapen_AOT/AOT_stimuli/rescaled_final/0465_rv.mp4	0.0	232.64008331298828	0.09998202323913574
28	139.9874131679535	fix_pre	0		120	26.0	2.5	/experiments/knapen_AOT/AOT_stimuli/rescaled_final/1612_fw.mp4	0.0	232.74006533622742	1.0000898838043213
28	140.17092514038086	pulse	0	t		26.0	2.5	/experiments/knapen_AOT/AOT_stimuli/rescaled_final/1612_fw.mp4	0.0	232.92357730865479	
28	140.9875030517578	movie	1		243	26.0	2.5	/experiments/knapen_AOT/AOT_stimuli/rescaled_final/1612_fw.mp4	0.0	233.74015522003174	2.5005860328674316
28	141.77125215530396	pulse	1	t		26.0	2.5	/experiments/knapen_AOT/AOT_stimuli/rescaled_final/1612_fw.mp4	0.0	234.52390432357788	
28	143.3720099925995	pulse	1	t		26.0	2.5	/experiments/knapen_AOT/AOT_stimuli/rescaled_final/1612_fw.mp4	0.0	236.1246621608734	
28	143.48808908462524	fix_post	2		12	26.0	2.5	/experiments/knapen_AOT/AOT_stimuli/rescaled_final/1612_fw.mp4	0.0	236.24074125289917	0.09987902641296387
29	143.5879681110382	fix_pre	0		120	27.0	2.5	/experiments/knapen_AOT/AOT_stimuli/rescaled_final/0558_fw.mp4	0.0	236.34062027931213	1.0000598430633545
29	144.58802795410156	movie	1		242	27.0	2.5	/experiments/knapen_AOT/AOT_stimuli/rescaled_final/0558_fw.mp4	0.0	237.3406801223755	2.494319200515747
29	144.97297716140747	pulse	1	t		27.0	2.5	/experiments/knapen_AOT/AOT_stimuli/rescaled_final/0558_fw.mp4	0.0	237.7256293296814	
29	146.57188415527344	pulse	1	t		27.0	2.5	/experiments/knapen_AOT/AOT_stimuli/rescaled_final/0558_fw.mp4	0.0	239.32453632354736	
29	147.0823471546173	fix_post	2		8	27.0	2.5	/experiments/knapen_AOT/AOT_stimuli/rescaled_final/0558_fw.mp4	0.0	239.83499932289124	0.0977928638458252
30	147.18014001846313	fix_pre	0		120	28.0	2.5	blank	1.0	239.93279218673706	1.000108003616333
30	148.17208909988403	pulse	0	t		28.0	2.5	blank	1.0	240.92474126815796	
30	148.18024802207947	movie	1		301	28.0	2.5	blank	1.0	240.9329001903534	2.5087101459503174
30	149.7724130153656	pulse	1	t		28.0	2.5	blank	1.0	242.52506518363953	
30	150.68895816802979	fix_post	2		12	28.0	2.5	blank	1.0	243.4416103363037	0.10005593299865723
31	150.78901410102844	fix_pre	0		120	29.0	2.5	/experiments/knapen_AOT/AOT_stimuli/rescaled_final/0951_rv.mp4	0.0	243.54166626930237	1.000190019607544
31	151.3725621700287	pulse	0	t		29.0	2.5	/experiments/knapen_AOT/AOT_stimuli/rescaled_final/0951_rv.mp4	0.0	244.1252143383026	
31	151.789204120636	movie	1		244	29.0	2.5	/experiments/knapen_AOT/AOT_stimuli/rescaled_final/0951_rv.mp4	0.0	244.5418562889099	2.500290870666504
31	152.97302412986755	pulse	1	t		29.0	2.5	/experiments/knapen_AOT/AOT_stimuli/rescaled_final/0951_rv.mp4	0.0	245.72567629814148	
31	154.2894949913025	fix_post	2		12	29.0	2.5	/experiments/knapen_AOT/AOT_stimuli/rescaled_final/0951_rv.mp4	0.0	247.04214715957642	0.10007715225219727
32	154.3895721435547	fix_pre	0		120	30.0	2.5	/experiments/knapen_AOT/AOT_stimuli/rescaled_final/0998_rv.mp4	0.0	247.1422243118286	1.0000848770141602
32	154.57310009002686	pulse	0	t		30.0	2.5	/experiments/knapen_AOT/AOT_stimuli/rescaled_final/0998_rv.mp4	0.0	247.32575225830078	
32	155.38965702056885	movie	1		243	30.0	2.5	/experiments/knapen_AOT/AOT_stimuli/rescaled_final/0998_rv.mp4	0.0	248.14230918884277	2.5005130767822266
32	156.1733169555664	pulse	1	t		30.0	2.5	/experiments/knapen_AOT/AOT_stimuli/rescaled_final/0998_rv.mp4	0.0	248.92596912384033	
32	157.7737009525299	pulse	1	t		30.0	2.5	/experiments/knapen_AOT/AOT_stimuli/rescaled_final/0998_rv.mp4	0.0	250.52635312080383	
32	157.89017009735107	fix_post	2		12	30.0	2.5	/experiments/knapen_AOT/AOT_stimuli/rescaled_final/0998_rv.mp4	0.0	250.642822265625	0.09997987747192383
33	157.990149974823	fix_pre	0		119	31.0	2.5	/experiments/knapen_AOT/AOT_stimuli/rescaled_final/0879_rv.mp4	0.0	250.74280214309692	0.9917271137237549
33	158.98187708854675	movie	1		244	31.0	2.5	/experiments/knapen_AOT/AOT_stimuli/rescaled_final/0879_rv.mp4	0.0	251.73452925682068	2.5003459453582764
33	159.37383198738098	pulse	1	t		31.0	2.5	/experiments/knapen_AOT/AOT_stimuli/rescaled_final/0879_rv.mp4	0.0	252.1264841556549	
33	160.97406601905823	pulse	1	t		31.0	2.5	/experiments/knapen_AOT/AOT_stimuli/rescaled_final/0879_rv.mp4	0.0	253.72671818733215	
33	161.48222303390503	fix_post	2		12	31.0	2.5	/experiments/knapen_AOT/AOT_stimuli/rescaled_final/0879_rv.mp4	0.0	254.23487520217896	0.10004091262817383
34	161.5822639465332	fix_pre	0		120	32.0	2.5	/experiments/knapen_AOT/AOT_stimuli/rescaled_final/1437_fw.mp4	0.0	254.33491611480713	1.0001370906829834
34	162.57427310943604	pulse	0	t		32.0	2.5	/experiments/knapen_AOT/AOT_stimuli/rescaled_final/1437_fw.mp4	0.0	255.32692527770996	
34	162.5824010372162	movie	1		245	32.0	2.5	/experiments/knapen_AOT/AOT_stimuli/rescaled_final/1437_fw.mp4	0.0	255.3350532054901	2.5087239742279053
34	164.17604207992554	pulse	1	t		32.0	2.5	/experiments/knapen_AOT/AOT_stimuli/rescaled_final/1437_fw.mp4	0.0	256.92869424819946	
34	165.0911250114441	fix_post	2		12	32.0	2.5	/experiments/knapen_AOT/AOT_stimuli/rescaled_final/1437_fw.mp4	0.0	257.843777179718	0.1000220775604248
35	165.19114708900452	fix_pre	0		120	33.0	2.5	/experiments/knapen_AOT/AOT_stimuli/rescaled_final/0319_rv.mp4	0.0	257.94379925727844	1.0001389980316162
35	165.77475714683533	pulse	0	t		33.0	2.5	/experiments/knapen_AOT/AOT_stimuli/rescaled_final/0319_rv.mp4	0.0	258.52740931510925	
35	166.19128608703613	movie	1		242	33.0	2.5	/experiments/knapen_AOT/AOT_stimuli/rescaled_final/0319_rv.mp4	0.0	258.94393825531006	2.5005838871002197
35	167.37516903877258	pulse	1	t		33.0	2.5	/experiments/knapen_AOT/AOT_stimuli/rescaled_final/0319_rv.mp4	0.0	260.1278212070465	
35	168.69186997413635	fix_post	2		12	33.0	2.5	/experiments/knapen_AOT/AOT_stimuli/rescaled_final/0319_rv.mp4	0.0	261.4445221424103	0.09976506233215332
36	168.7916350364685	fix_pre	0		120	34.0	2.5	/experiments/knapen_AOT/AOT_stimuli/rescaled_final/1666_rv.mp4	0.0	261.54428720474243	1.0001869201660156
36	168.9752221107483	pulse	0	t		34.0	2.5	/experiments/knapen_AOT/AOT_stimuli/rescaled_final/1666_rv.mp4	0.0	261.7278742790222	
36	169.79182195663452	movie	1		242	34.0	2.5	/experiments/knapen_AOT/AOT_stimuli/rescaled_final/1666_rv.mp4	0.0	262.54447412490845	2.5004680156707764
36	170.57541012763977	pulse	1	t		34.0	2.5	/experiments/knapen_AOT/AOT_stimuli/rescaled_final/1666_rv.mp4	0.0	263.3280622959137	
36	172.1755690574646	pulse	1	t		34.0	2.5	/experiments/knapen_AOT/AOT_stimuli/rescaled_final/1666_rv.mp4	0.0	264.9282212257385	
36	172.2922899723053	fix_post	2		12	34.0	2.5	/experiments/knapen_AOT/AOT_stimuli/rescaled_final/1666_rv.mp4	0.0	265.0449421405792	0.09995698928833008
37	172.39224696159363	fix_pre	0		120	35.0	2.5	blank	1.0	265.14489912986755	1.000089168548584
37	173.3923361301422	movie	1		299	35.0	2.5	blank	1.0	266.14498829841614	2.492063045501709
37	173.77603101730347	pulse	1	t		35.0	2.5	blank	1.0	266.5286831855774	
37	175.3762149810791	pulse	1	t		35.0	2.5	blank	1.0	268.128867149353	
37	175.88439917564392	fix_post	2		12	35.0	2.5	blank	1.0	268.63705134391785	0.10002589225769043
38	175.9844250679016	fix_pre	0		120	36.0	2.5	/experiments/knapen_AOT/AOT_stimuli/rescaled_final/1926_rv.mp4	0.0	268.73707723617554	1.0001730918884277
38	176.97643494606018	pulse	0	t		36.0	2.5	/experiments/knapen_AOT/AOT_stimuli/rescaled_final/1926_rv.mp4	0.0	269.7290871143341	
38	176.98459815979004	movie	1		246	36.0	2.5	/experiments/knapen_AOT/AOT_stimuli/rescaled_final/1926_rv.mp4	0.0	269.73725032806396	2.5086889266967773
38	178.57709908485413	pulse	1	t		36.0	2.5	/experiments/knapen_AOT/AOT_stimuli/rescaled_final/1926_rv.mp4	0.0	271.32975125312805	
38	179.49328708648682	fix_post	2		12	36.0	2.5	/experiments/knapen_AOT/AOT_stimuli/rescaled_final/1926_rv.mp4	0.0	272.24593925476074	0.09997391700744629
39	179.59326100349426	fix_pre	0		120	37.0	2.5	/experiments/knapen_AOT/AOT_stimuli/rescaled_final/0340_fw.mp4	0.0	272.3459131717682	1.0001389980316162
39	180.17700600624084	pulse	0	t		37.0	2.5	/experiments/knapen_AOT/AOT_stimuli/rescaled_final/0340_fw.mp4	0.0	272.92965817451477	
39	180.59340000152588	movie	1		243	37.0	2.5	/experiments/knapen_AOT/AOT_stimuli/rescaled_final/0340_fw.mp4	0.0	273.3460521697998	2.5004169940948486
39	181.77721405029297	pulse	1	t		37.0	2.5	/experiments/knapen_AOT/AOT_stimuli/rescaled_final/0340_fw.mp4	0.0	274.5298662185669	
39	183.09381699562073	fix_post	2		12	37.0	2.5	/experiments/knapen_AOT/AOT_stimuli/rescaled_final/0340_fw.mp4	0.0	275.84646916389465	0.10002517700195312
40	183.19384217262268	fix_pre	0		120	38.0	2.5	/experiments/knapen_AOT/AOT_stimuli/rescaled_final/0029_rv.mp4	0.0	275.9464943408966	1.0001428127288818
40	183.36998105049133	pulse	0	t		38.0	2.5	/experiments/knapen_AOT/AOT_stimuli/rescaled_final/0029_rv.mp4	0.0	276.12263321876526	
40	184.19398498535156	movie	1		242	38.0	2.5	/experiments/knapen_AOT/AOT_stimuli/rescaled_final/0029_rv.mp4	0.0	276.9466371536255	2.4922831058502197
40	184.97022795677185	pulse	1	t		38.0	2.5	/experiments/knapen_AOT/AOT_stimuli/rescaled_final/0029_rv.mp4	0.0	277.7228801250458	
40	186.57837009429932	pulse	1	t		38.0	2.5	/experiments/knapen_AOT/AOT_stimuli/rescaled_final/0029_rv.mp4	0.0	279.33102226257324	
40	186.68626809120178	fix_post	2		13	38.0	2.5	/experiments/knapen_AOT/AOT_stimuli/rescaled_final/0029_rv.mp4	0.0	279.4389202594757	0.10805201530456543
41	186.79432010650635	fix_pre	0		119	39.0	2.5	/experiments/knapen_AOT/AOT_stimuli/rescaled_final/0922_fw.mp4	0.0	279.5469722747803	0.9918389320373535
41	187.7861590385437	movie	1		243	39.0	2.5	/experiments/knapen_AOT/AOT_stimuli/rescaled_final/0922_fw.mp4	0.0	280.5388112068176	2.5005271434783936
41	188.1700520515442	pulse	1	t		39.0	2.5	/experiments/knapen_AOT/AOT_stimuli/rescaled_final/0922_fw.mp4	0.0	280.9227042198181	
41	189.76995611190796	pulse	1	t		39.0	2.5	/experiments/knapen_AOT/AOT_stimuli/rescaled_final/0922_fw.mp4	0.0	282.5226082801819	
41	190.2866861820221	fix_post	2		12	39.0	2.5	/experiments/knapen_AOT/AOT_stimuli/rescaled_final/0922_fw.mp4	0.0	283.039338350296	0.09995889663696289
42	190.38664507865906	fix_pre	0		119	40.0	2.5	/experiments/knapen_AOT/AOT_stimuli/rescaled_final/1444_rv.mp4	0.0	283.139297246933	0.9917230606079102
42	191.37019395828247	pulse	0	t		40.0	2.5	/experiments/knapen_AOT/AOT_stimuli/rescaled_final/1444_rv.mp4	0.0	284.1228461265564	
42	191.37836813926697	movie	1		244	40.0	2.5	/experiments/knapen_AOT/AOT_stimuli/rescaled_final/1444_rv.mp4	0.0	284.1310203075409	2.508733034133911
42	192.97196912765503	pulse	1	t		40.0	2.5	/experiments/knapen_AOT/AOT_stimuli/rescaled_final/1444_rv.mp4	0.0	285.72462129592896	
42	193.88710117340088	fix_post	2		12	40.0	2.5	/experiments/knapen_AOT/AOT_stimuli/rescaled_final/1444_rv.mp4	0.0	286.6397533416748	0.09996986389160156
43	193.98707103729248	fix_pre	0		120	41.0	2.5	/experiments/knapen_AOT/AOT_stimuli/rescaled_final/0915_fw.mp4	0.0	286.7397232055664	1.000195026397705
43	194.57065606117249	pulse	0	t		41.0	2.5	/experiments/knapen_AOT/AOT_stimuli/rescaled_final/0915_fw.mp4	0.0	287.3233082294464	
43	194.98726606369019	movie	1		242	41.0	2.5	/experiments/knapen_AOT/AOT_stimuli/rescaled_final/0915_fw.mp4	0.0	287.7399182319641	2.5005459785461426
43	196.1711621284485	pulse	1	t		41.0	2.5	/experiments/knapen_AOT/AOT_stimuli/rescaled_final/0915_fw.mp4	0.0	288.9238142967224	
43	197.48781204223633	fix_post	2		12	41.0	2.5	/experiments/knapen_AOT/AOT_stimuli/rescaled_final/0915_fw.mp4	0.0	290.24046421051025	0.09989500045776367
44	197.5877070426941	fix_pre	0		120	42.0	2.5	blank	1.0	290.340359210968	1.0000691413879395
44	197.77126502990723	pulse	0	t		42.0	2.5	blank	1.0	290.52391719818115	
44	198.58777618408203	movie	1		300	42.0	2.5	blank	1.0	291.34042835235596	2.5004069805145264
44	199.37140011787415	pulse	1	t		42.0	2.5	blank	1.0	292.12405228614807	
44	200.97172212600708	pulse	1	t		42.0	2.5	blank	1.0	293.724374294281	
44	201.08818316459656	fix_post	2		12	42.0	2.5	blank	1.0	293.8408353328705	0.09998297691345215
45	201.18816614151	fix_pre	0		119	43.0	2.5	/experiments/knapen_AOT/AOT_stimuli/rescaled_final/1146_fw.mp4	0.0	293.94081830978394	0.9918258190155029
45	202.1799919605255	movie	1		243	43.0	2.5	/experiments/knapen_AOT/AOT_stimuli/rescaled_final/1146_fw.mp4	0.0	294.93264412879944	2.5004680156707764
45	202.5720410346985	pulse	1	t		43.0	2.5	/experiments/knapen_AOT/AOT_stimuli/rescaled_final/1146_fw.mp4	0.0	295.3246932029724	
45	204.17219614982605	pulse	1	t		43.0	2.5	/experiments/knapen_AOT/AOT_stimuli/rescaled_final/1146_fw.mp4	0.0	296.9248483181	
45	204.6804599761963	fix_post	2		12	43.0	2.5	/experiments/knapen_AOT/AOT_stimuli/rescaled_final/1146_fw.mp4	0.0	297.4331121444702	0.099884033203125
46	204.7803440093994	fix_pre	0		120	44.0	2.5	/experiments/knapen_AOT/AOT_stimuli/rescaled_final/2082_fw.mp4	0.0	297.53299617767334	1.0002429485321045
46	205.77240109443665	pulse	0	t		44.0	2.5	/experiments/knapen_AOT/AOT_stimuli/rescaled_final/2082_fw.mp4	0.0	298.52505326271057	
46	205.78058695793152	movie	1		244	44.0	2.5	/experiments/knapen_AOT/AOT_stimuli/rescaled_final/2082_fw.mp4	0.0	298.53323912620544	2.508714199066162
46	207.3739721775055	pulse	1	t		44.0	2.5	/experiments/knapen_AOT/AOT_stimuli/rescaled_final/2082_fw.mp4	0.0	300.1266243457794	
46	208.28930115699768	fix_post	2		12	44.0	2.5	/experiments/knapen_AOT/AOT_stimuli/rescaled_final/2082_fw.mp4	0.0	301.0419533252716	0.09994983673095703
47	208.38925099372864	fix_pre	0		118	45.0	2.5	/experiments/knapen_AOT/AOT_stimuli/rescaled_final/1658_rv.mp4	0.0	301.14190316200256	1.000154972076416
47	208.9729471206665	pulse	0	t		45.0	2.5	/experiments/knapen_AOT/AOT_stimuli/rescaled_final/1658_rv.mp4	0.0	301.72559928894043	
47	209.38940596580505	movie	1		244	45.0	2.5	/experiments/knapen_AOT/AOT_stimuli/rescaled_final/1658_rv.mp4	0.0	302.142058134079	2.50039005279541
47	210.57323598861694	pulse	1	t		45.0	2.5	/experiments/knapen_AOT/AOT_stimuli/rescaled_final/1658_rv.mp4	0.0	303.32588815689087	
47	211.88979601860046	fix_post	2		12	45.0	2.5	/experiments/knapen_AOT/AOT_stimuli/rescaled_final/1658_rv.mp4	0.0	304.6424481868744	0.09998607635498047
48	211.98978209495544	fix_pre	0		120	46.0	2.5	/experiments/knapen_AOT/AOT_stimuli/rescaled_final/2067_rv.mp4	0.0	304.74243426322937	1.0001568794250488
48	212.1734299659729	pulse	0	t		46.0	2.5	/experiments/knapen_AOT/AOT_stimuli/rescaled_final/2067_rv.mp4	0.0	304.9260821342468	
48	212.9899389743805	movie	1		244	46.0	2.5	/experiments/knapen_AOT/AOT_stimuli/rescaled_final/2067_rv.mp4	0.0	305.7425911426544	2.5003750324249268
48	213.77354907989502	pulse	1	t		46.0	2.5	/experiments/knapen_AOT/AOT_stimuli/rescaled_final/2067_rv.mp4	0.0	306.52620124816895	
48	215.37379217147827	pulse	1	t		46.0	2.5	/experiments/knapen_AOT/AOT_stimuli/rescaled_final/2067_rv.mp4	0.0	308.1264443397522	
48	215.49031400680542	fix_post	2		12	46.0	2.5	/experiments/knapen_AOT/AOT_stimuli/rescaled_final/2067_rv.mp4	0.0	308.24296617507935	0.10000014305114746
49	215.59031414985657	fix_pre	0		120	47.0	2.5	/experiments/knapen_AOT/AOT_stimuli/rescaled_final/1454_rv.mp4	0.0	308.3429663181305	1.0001568794250488
49	216.59047102928162	movie	1		242	47.0	2.5	/experiments/knapen_AOT/AOT_stimuli/rescaled_final/1454_rv.mp4	0.0	309.34312319755554	2.492166042327881
49	216.9745590686798	pulse	1	t		47.0	2.5	/experiments/knapen_AOT/AOT_stimuli/rescaled_final/1454_rv.mp4	0.0	309.72721123695374	
49	218.5744559764862	pulse	1	t		47.0	2.5	/experiments/knapen_AOT/AOT_stimuli/rescaled_final/1454_rv.mp4	0.0	311.32710814476013	
49	219.0826370716095	fix_post	2		12	47.0	2.5	/experiments/knapen_AOT/AOT_stimuli/rescaled_final/1454_rv.mp4	0.0	311.8352892398834	0.09992504119873047
50	219.18256211280823	fix_pre	0		120	48.0	2.5	blank	1.0	311.93521428108215	1.000236988067627
50	220.17461514472961	pulse	0	t		48.0	2.5	blank	1.0	312.92726731300354	
50	220.18279910087585	movie	1		301	48.0	2.5	blank	1.0	312.9354512691498	2.5086510181427
50	221.77483105659485	pulse	1	t		48.0	2.5	blank	1.0	314.5274832248688	
50	222.69145011901855	fix_post	2		12	48.0	2.5	blank	1.0	315.4441022872925	0.09994101524353027
51	222.79139113426208	fix_pre	0		120	49.0	2.5	/experiments/knapen_AOT/AOT_stimuli/rescaled_final/1240_rv.mp4	0.0	315.544043302536	1.0001308917999268
51	223.3750171661377	pulse	0	t		49.0	2.5	/experiments/knapen_AOT/AOT_stimuli/rescaled_final/1240_rv.mp4	0.0	316.1276693344116	
51	223.791522026062	movie	1		243	49.0	2.5	/experiments/knapen_AOT/AOT_stimuli/rescaled_final/1240_rv.mp4	0.0	316.54417419433594	2.500623941421509
51	224.9753429889679	pulse	1	t		49.0	2.5	/experiments/knapen_AOT/AOT_stimuli/rescaled_final/1240_rv.mp4	0.0	317.7279951572418	
51	226.29214596748352	fix_post	2		12	49.0	2.5	/experiments/knapen_AOT/AOT_stimuli/rescaled_final/1240_rv.mp4	0.0	319.04479813575745	0.09975719451904297
52	226.39190316200256	fix_pre	0		120	50.0	2.5	/experiments/knapen_AOT/AOT_stimuli/rescaled_final/1926_fw.mp4	0.0	319.1445553302765	1.0001440048217773
52	226.57551503181458	pulse	0	t		50.0	2.5	/experiments/knapen_AOT/AOT_stimuli/rescaled_final/1926_fw.mp4	0.0	319.3281672000885	
52	227.39204716682434	movie	1		245	50.0	2.5	/experiments/knapen_AOT/AOT_stimuli/rescaled_final/1926_fw.mp4	0.0	320.14469933509827	2.5004098415374756
52	228.17570209503174	pulse	1	t		50.0	2.5	/experiments/knapen_AOT/AOT_stimuli/rescaled_final/1926_fw.mp4	0.0	320.92835426330566	
52	229.77357506752014	pulse	1	t		50.0	2.5	/experiments/knapen_AOT/AOT_stimuli/rescaled_final/1926_fw.mp4	0.0	322.52622723579407	
52	229.89245700836182	fix_post	2		12	50.0	2.5	/experiments/knapen_AOT/AOT_stimuli/rescaled_final/1926_fw.mp4	0.0	322.64510917663574	0.09999704360961914
53	229.99245405197144	fix_pre	0		120	51.0	2.5	/experiments/knapen_AOT/AOT_stimuli/rescaled_final/2133_rv.mp4	0.0	322.74510622024536	1.0001521110534668
53	230.9926061630249	movie	1		242	51.0	2.5	/experiments/knapen_AOT/AOT_stimuli/rescaled_final/2133_rv.mp4	0.0	323.7452583312988	2.4920358657836914
53	231.37747502326965	pulse	1	t		51.0	2.5	/experiments/knapen_AOT/AOT_stimuli/rescaled_final/2133_rv.mp4	0.0	324.1301271915436	
53	232.9765260219574	pulse	1	t		51.0	2.5	/experiments/knapen_AOT/AOT_stimuli/rescaled_final/2133_rv.mp4	0.0	325.7291781902313	
53	233.4846420288086	fix_post	2		12	51.0	2.5	/experiments/knapen_AOT/AOT_stimuli/rescaled_final/2133_rv.mp4	0.0	326.2372941970825	0.10004711151123047
54	233.58468914031982	fix_pre	0		120	52.0	2.5	/experiments/knapen_AOT/AOT_stimuli/rescaled_final/0029_fw.mp4	0.0	326.33734130859375	1.0001769065856934
54	234.56928396224976	pulse	0	t		52.0	2.5	/experiments/knapen_AOT/AOT_stimuli/rescaled_final/0029_fw.mp4	0.0	327.3219361305237	
54	234.58486604690552	movie	1		245	52.0	2.5	/experiments/knapen_AOT/AOT_stimuli/rescaled_final/0029_fw.mp4	0.0	327.33751821517944	2.5086629390716553
54	236.17741107940674	pulse	1	t		52.0	2.5	/experiments/knapen_AOT/AOT_stimuli/rescaled_final/0029_fw.mp4	0.0	328.93006324768066	
54	237.09352898597717	fix_post	2		12	52.0	2.5	/experiments/knapen_AOT/AOT_stimuli/rescaled_final/0029_fw.mp4	0.0	329.8461811542511	0.10001707077026367
55	237.19354605674744	fix_pre	0		120	53.0	2.5	/experiments/knapen_AOT/AOT_stimuli/rescaled_final/0806_fw.mp4	0.0	329.94619822502136	1.0001730918884277
55	237.76964497566223	pulse	0	t		53.0	2.5	/experiments/knapen_AOT/AOT_stimuli/rescaled_final/0806_fw.mp4	0.0	330.52229714393616	
55	238.19371914863586	movie	1		242	53.0	2.5	/experiments/knapen_AOT/AOT_stimuli/rescaled_final/0806_fw.mp4	0.0	330.9463713169098	2.50050687789917
55	239.3696620464325	pulse	1	t		53.0	2.5	/experiments/knapen_AOT/AOT_stimuli/rescaled_final/0806_fw.mp4	0.0	332.1223142147064	
55	240.69422602653503	fix_post	2		12	53.0	2.5	/experiments/knapen_AOT/AOT_stimuli/rescaled_final/0806_fw.mp4	0.0	333.44687819480896	0.09984207153320312
56	240.79406809806824	fix_pre	0		120	54.0	2.5	/experiments/knapen_AOT/AOT_stimuli/rescaled_final/1527_fw.mp4	0.0	333.54672026634216	1.000175952911377
56	240.97005605697632	pulse	0	t		54.0	2.5	/experiments/knapen_AOT/AOT_stimuli/rescaled_final/1527_fw.mp4	0.0	333.72270822525024	
56	241.79424405097961	movie	1		248	54.0	2.5	/experiments/knapen_AOT/AOT_stimuli/rescaled_final/1527_fw.mp4	0.0	334.54689621925354	2.50039005279541
56	242.56966304779053	pulse	1	t		54.0	2.5	/experiments/knapen_AOT/AOT_stimuli/rescaled_final/1527_fw.mp4	0.0	335.32231521606445	
56	244.16978907585144	pulse	1	t		54.0	2.5	/experiments/knapen_AOT/AOT_stimuli/rescaled_final/1527_fw.mp4	0.0	336.92244124412537	
56	244.29463410377502	fix_post	2		12	54.0	2.5	/experiments/knapen_AOT/AOT_stimuli/rescaled_final/1527_fw.mp4	0.0	337.04728627204895	0.10001897811889648
57	244.39465308189392	fix_pre	0		119	55.0	2.5	/experiments/knapen_AOT/AOT_stimuli/rescaled_final/1323_fw.mp4	0.0	337.14730525016785	0.991750955581665
57	245.3864040374756	movie	1		243	55.0	2.5	/experiments/knapen_AOT/AOT_stimuli/rescaled_final/1323_fw.mp4	0.0	338.1390562057495	2.500370979309082
57	245.77424597740173	pulse	1	t		55.0	2.5	/experiments/knapen_AOT/AOT_stimuli/rescaled_final/1323_fw.mp4	0.0	338.52689814567566	
57	247.3702471256256	pulse	1	t		55.0	2.5	/experiments/knapen_AOT/AOT_stimuli/rescaled_final/1323_fw.mp4	0.0	340.12289929389954	
57	247.88677501678467	fix_post	2		12	55.0	2.5	/experiments/knapen_AOT/AOT_stimuli/rescaled_final/1323_fw.mp4	0.0	340.6394271850586	0.10005998611450195
58	247.98683500289917	fix_pre	0		119	56.0	2.5	blank	1.0	340.7394871711731	0.9919130802154541
58	248.97048997879028	pulse	0	t		56.0	2.5	blank	1.0	341.7231421470642	
58	248.97874808311462	movie	1		301	56.0	2.5	blank	1.0	341.73140025138855	2.508612871170044
58	250.5707290172577	pulse	1	t		56.0	2.5	blank	1.0	343.3233811855316	
58	251.48736095428467	fix_post	2		12	56.0	2.5	blank	1.0	344.2400131225586	0.100006103515625
59	251.5873670578003	fix_pre	0		120	57.0	2.5	/experiments/knapen_AOT/AOT_stimuli/rescaled_final/1146_fw.mp4	0.0	344.3400192260742	1.000265121459961
59	252.17096209526062	pulse	0	t		57.0	2.5	/experiments/knapen_AOT/AOT_stimuli/rescaled_final/1146_fw.mp4	0.0	344.92361426353455	
59	252.58763217926025	movie	1		243	57.0	2.5	/experiments/knapen_AOT/AOT_stimuli/rescaled_final/1146_fw.mp4	0.0	345.3402843475342	2.500253915786743
59	253.77134704589844	pulse	1	t		57.0	2.5	/experiments/knapen_AOT/AOT_stimuli/rescaled_final/1146_fw.mp4	0.0	346.52399921417236	
59	255.087886095047	fix_post	2		12	57.0	2.5	/experiments/knapen_AOT/AOT_stimuli/rescaled_final/1146_fw.mp4	0.0	347.8405382633209	0.1000669002532959
60	255.1879529953003	fix_pre	0		120	58.0	2.5	/experiments/knapen_AOT/AOT_stimuli/rescaled_final/2109_rv.mp4	0.0	347.9406051635742	1.0001180171966553
60	255.37147617340088	pulse	0	t		58.0	2.5	/experiments/knapen_AOT/AOT_stimuli/rescaled_final/2109_rv.mp4	0.0	348.1241283416748	
60	256.18807101249695	movie	1		243	58.0	2.5	/experiments/knapen_AOT/AOT_stimuli/rescaled_final/2109_rv.mp4	0.0	348.9407231807709	2.5003349781036377
60	256.97171807289124	pulse	1	t		58.0	2.5	/experiments/knapen_AOT/AOT_stimuli/rescaled_final/2109_rv.mp4	0.0	349.72437024116516	
60	258.571830034256	pulse	1	t		58.0	2.5	/experiments/knapen_AOT/AOT_stimuli/rescaled_final/2109_rv.mp4	0.0	351.3244822025299	
60	258.6884059906006	fix_post	2		12	58.0	2.5	/experiments/knapen_AOT/AOT_stimuli/rescaled_final/2109_rv.mp4	0.0	351.4410581588745	0.10003304481506348
61	258.78843903541565	fix_pre	0		120	59.0	2.5	/experiments/knapen_AOT/AOT_stimuli/rescaled_final/0208_rv.mp4	0.0	351.5410912036896	1.0001609325408936
61	259.78859996795654	movie	1		243	59.0	2.5	/experiments/knapen_AOT/AOT_stimuli/rescaled_final/0208_rv.mp4	0.0	352.54125213623047	2.4920010566711426
61	260.1734881401062	pulse	1	t		59.0	2.5	/experiments/knapen_AOT/AOT_stimuli/rescaled_final/0208_rv.mp4	0.0	352.9261403083801	
61	261.772341966629	pulse	1	t		59.0	2.5	/experiments/knapen_AOT/AOT_stimuli/rescaled_final/0208_rv.mp4	0.0	354.52499413490295	
61	262.2806010246277	fix_post	2		12	59.0	2.5	/experiments/knapen_AOT/AOT_stimuli/rescaled_final/0208_rv.mp4	0.0	355.0332531929016	0.1000370979309082
62	262.3806381225586	fix_pre	0		120	60.0	2.5	/experiments/knapen_AOT/AOT_stimuli/rescaled_final/0150_rv.mp4	0.0	355.1332902908325	1.0001330375671387
62	263.37260913848877	pulse	0	t		60.0	2.5	/experiments/knapen_AOT/AOT_stimuli/rescaled_final/0150_rv.mp4	0.0	356.1252613067627	
62	263.38077116012573	movie	1		243	60.0	2.5	/experiments/knapen_AOT/AOT_stimuli/rescaled_final/0150_rv.mp4	0.0	356.13342332839966	2.508759021759033
62	264.9739420413971	pulse	1	t		60.0	2.5	/experiments/knapen_AOT/AOT_stimuli/rescaled_final/0150_rv.mp4	0.0	357.726594209671	
62	265.88953018188477	fix_post	2		12	60.0	2.5	/experiments/knapen_AOT/AOT_stimuli/rescaled_final/0150_rv.mp4	0.0	358.6421823501587	0.09996891021728516
63	265.98949909210205	fix_pre	0		120	61.0	2.5	blank	1.0	358.742151260376	1.0001320838928223
63	266.57305812835693	pulse	0	t		61.0	2.5	blank	1.0	359.32571029663086	
63	266.9896311759949	movie	1		300	61.0	2.5	blank	1.0	359.7422833442688	2.5003929138183594
63	268.1733310222626	pulse	1	t		61.0	2.5	blank	1.0	360.9259831905365	
63	269.49002408981323	fix_post	2		12	61.0	2.5	blank	1.0	362.24267625808716	0.10001707077026367
64	269.5900411605835	fix_pre	0		120	62.0	2.5	/experiments/knapen_AOT/AOT_stimuli/rescaled_final/1080_fw.mp4	0.0	362.3426933288574	1.000147819519043
64	269.77351903915405	pulse	0	t		62.0	2.5	/experiments/knapen_AOT/AOT_stimuli/rescaled_final/1080_fw.mp4	0.0	362.526171207428	
64	270.59018898010254	movie	1		240	62.0	2.5	/experiments/knapen_AOT/AOT_stimuli/rescaled_final/1080_fw.mp4	0.0	363.34284114837646	2.5004191398620605
64	271.3739221096039	pulse	1	t		62.0	2.5	/experiments/knapen_AOT/AOT_stimuli/rescaled_final/1080_fw.mp4	0.0	364.1265742778778	
64	272.9740700721741	pulse	1	t		62.0	2.5	/experiments/knapen_AOT/AOT_stimuli/rescaled_final/1080_fw.mp4	0.0	365.726722240448	
64	273.0906081199646	fix_post	2		12	62.0	2.5	/experiments/knapen_AOT/AOT_stimuli/rescaled_final/1080_fw.mp4	0.0	365.8432602882385	0.09997892379760742
65	273.1905870437622	fix_pre	0		120	63.0	2.5	/experiments/knapen_AOT/AOT_stimuli/rescaled_final/1080_rv.mp4	0.0	365.94323921203613	1.000143051147461
65	274.19073009490967	movie	1		243	63.0	2.5	/experiments/knapen_AOT/AOT_stimuli/rescaled_final/1080_rv.mp4	0.0	366.9433822631836	2.492027997970581
65	274.5748691558838	pulse	1	t		63.0	2.5	/experiments/knapen_AOT/AOT_stimuli/rescaled_final/1080_rv.mp4	0.0	367.3275213241577	
65	276.17453813552856	pulse	1	t		63.0	2.5	/experiments/knapen_AOT/AOT_stimuli/rescaled_final/1080_rv.mp4	0.0	368.9271903038025	
65	276.68275809288025	fix_post	2		12	63.0	2.5	/experiments/knapen_AOT/AOT_stimuli/rescaled_final/1080_rv.mp4	0.0	369.4354102611542	0.10002493858337402
66	276.7827830314636	fix_pre	0		120	64.0	2.5	/experiments/knapen_AOT/AOT_stimuli/rescaled_final/1835_rv.mp4	0.0	369.53543519973755	1.0001981258392334
66	277.7748351097107	pulse	0	t		64.0	2.5	/experiments/knapen_AOT/AOT_stimuli/rescaled_final/1835_rv.mp4	0.0	370.5274872779846	
66	277.78298115730286	movie	1		243	64.0	2.5	/experiments/knapen_AOT/AOT_stimuli/rescaled_final/1835_rv.mp4	0.0	370.5356333255768	2.5087008476257324
66	279.37547397613525	pulse	1	t		64.0	2.5	/experiments/knapen_AOT/AOT_stimuli/rescaled_final/1835_rv.mp4	0.0	372.1281261444092	
66	280.2916820049286	fix_post	2		12	64.0	2.5	/experiments/knapen_AOT/AOT_stimuli/rescaled_final/1835_rv.mp4	0.0	373.0443341732025	0.10000801086425781
67	280.39169001579285	fix_pre	0		120	65.0	2.5	/experiments/knapen_AOT/AOT_stimuli/rescaled_final/0442_rv.mp4	0.0	373.1443421840668	1.0001060962677002
67	280.9753420352936	pulse	0	t		65.0	2.5	/experiments/knapen_AOT/AOT_stimuli/rescaled_final/0442_rv.mp4	0.0	373.7279942035675	
67	281.39179611206055	movie	1		244	65.0	2.5	/experiments/knapen_AOT/AOT_stimuli/rescaled_final/0442_rv.mp4	0.0	374.1444482803345	2.5003738403320312
67	282.5755469799042	pulse	1	t		65.0	2.5	/experiments/knapen_AOT/AOT_stimuli/rescaled_final/0442_rv.mp4	0.0	375.3281991481781	
67	283.8921699523926	fix_post	2		12	65.0	2.5	/experiments/knapen_AOT/AOT_stimuli/rescaled_final/0442_rv.mp4	0.0	376.6448221206665	0.10003399848937988
68	283.99220395088196	fix_pre	0		120	66.0	2.5	/experiments/knapen_AOT/AOT_stimuli/rescaled_final/0027_rv.mp4	0.0	376.7448561191559	1.0001351833343506
68	284.1757471561432	pulse	0	t		66.0	2.5	/experiments/knapen_AOT/AOT_stimuli/rescaled_final/0027_rv.mp4	0.0	376.9283993244171	
68	284.9923391342163	movie	1		242	66.0	2.5	/experiments/knapen_AOT/AOT_stimuli/rescaled_final/0027_rv.mp4	0.0	377.74499130249023	2.500584840774536
68	285.7759771347046	pulse	1	t		66.0	2.5	/experiments/knapen_AOT/AOT_stimuli/rescaled_final/0027_rv.mp4	0.0	378.5286293029785	
68	287.37680411338806	pulse	1	t		66.0	2.5	/experiments/knapen_AOT/AOT_stimuli/rescaled_final/0027_rv.mp4	0.0	380.129456281662	
68	287.49292397499084	fix_post	2		12	66.0	2.5	/experiments/knapen_AOT/AOT_stimuli/rescaled_final/0027_rv.mp4	0.0	380.24557614326477	0.09980106353759766
69	287.59272503852844	fix_pre	0		120	67.0	2.5	/experiments/knapen_AOT/AOT_stimuli/rescaled_final/1356_rv.mp4	0.0	380.34537720680237	1.0001420974731445
69	288.5928671360016	movie	1		242	67.0	2.5	/experiments/knapen_AOT/AOT_stimuli/rescaled_final/1356_rv.mp4	0.0	381.3455193042755	2.4920380115509033
69	288.9777829647064	pulse	1	t		67.0	2.5	/experiments/knapen_AOT/AOT_stimuli/rescaled_final/1356_rv.mp4	0.0	381.73043513298035	
69	290.5766999721527	pulse	1	t		67.0	2.5	/experiments/knapen_AOT/AOT_stimuli/rescaled_final/1356_rv.mp4	0.0	383.32935214042664	
69	291.0849051475525	fix_post	2		12	67.0	2.5	/experiments/knapen_AOT/AOT_stimuli/rescaled_final/1356_rv.mp4	0.0	383.8375573158264	0.10001897811889648
70	291.1849241256714	fix_pre	0		120	68.0	2.5	/experiments/knapen_AOT/AOT_stimuli/rescaled_final/1023_rv.mp4	0.0	383.9375762939453	1.0002338886260986
70	292.17708110809326	pulse	0	t		68.0	2.5	/experiments/knapen_AOT/AOT_stimuli/rescaled_final/1023_rv.mp4	0.0	384.9297332763672	
70	292.1851580142975	movie	1		244	68.0	2.5	/experiments/knapen_AOT/AOT_stimuli/rescaled_final/1023_rv.mp4	0.0	384.9378101825714	2.5086190700531006
70	293.7777371406555	pulse	1	t		68.0	2.5	/experiments/knapen_AOT/AOT_stimuli/rescaled_final/1023_rv.mp4	0.0	386.53038930892944	
70	294.6937770843506	fix_post	2		12	68.0	2.5	/experiments/knapen_AOT/AOT_stimuli/rescaled_final/1023_rv.mp4	0.0	387.4464292526245	0.10002303123474121
71	294.7938001155853	fix_pre	0		120	69.0	2.5	/experiments/knapen_AOT/AOT_stimuli/rescaled_final/1370_fw.mp4	0.0	387.54645228385925	1.0001740455627441
71	295.3774881362915	pulse	0	t		69.0	2.5	/experiments/knapen_AOT/AOT_stimuli/rescaled_final/1370_fw.mp4	0.0	388.13014030456543	
71	295.79397416114807	movie	1		243	69.0	2.5	/experiments/knapen_AOT/AOT_stimuli/rescaled_final/1370_fw.mp4	0.0	388.546626329422	2.5004758834838867
71	296.96986198425293	pulse	1	t		69.0	2.5	/experiments/knapen_AOT/AOT_stimuli/rescaled_final/1370_fw.mp4	0.0	389.72251415252686	
71	298.29445004463196	fix_post	2		12	69.0	2.5	/experiments/knapen_AOT/AOT_stimuli/rescaled_final/1370_fw.mp4	0.0	391.0471022129059	0.09988713264465332
72	298.3943371772766	fix_pre	0		120	70.0	2.5	blank	1.0	391.14698934555054	1.0001709461212158
72	298.56949615478516	pulse	0	t		70.0	2.5	blank	1.0	391.3221483230591	
72	299.3945081233978	movie	1		300	70.0	2.5	blank	1.0	392.14716029167175	2.500356912612915
72	300.1698031425476	pulse	1	t		70.0	2.5	blank	1.0	392.92245531082153	
72	301.77006697654724	pulse	1	t		70.0	2.5	blank	1.0	394.52271914482117	
72	301.89486503601074	fix_post	2		12	70.0	2.5	blank	1.0	394.64751720428467	0.09999299049377441
73	301.9948580265045	fix_pre	0		120	71.0	2.5	/experiments/knapen_AOT/AOT_stimuli/rescaled_final/0885_fw.mp4	0.0	394.74751019477844	1.0001609325408936
73	302.9950189590454	movie	1		242	71.0	2.5	/experiments/knapen_AOT/AOT_stimuli/rescaled_final/0885_fw.mp4	0.0	395.74767112731934	2.4920310974121094
73	303.37027406692505	pulse	1	t		71.0	2.5	/experiments/knapen_AOT/AOT_stimuli/rescaled_final/0885_fw.mp4	0.0	396.122926235199	
73	304.97059416770935	pulse	1	t		71.0	2.5	/experiments/knapen_AOT/AOT_stimuli/rescaled_final/0885_fw.mp4	0.0	397.7232463359833	
73	305.4870500564575	fix_post	2		12	71.0	2.5	/experiments/knapen_AOT/AOT_stimuli/rescaled_final/0885_fw.mp4	0.0	398.23970222473145	0.1000669002532959
74	305.5871169567108	fix_pre	0		119	72.0	2.5	/experiments/knapen_AOT/AOT_stimuli/rescaled_final/0259_rv.mp4	0.0	398.33976912498474	0.9918251037597656
74	306.5706980228424	pulse	0	t		72.0	2.5	/experiments/knapen_AOT/AOT_stimuli/rescaled_final/0259_rv.mp4	0.0	399.32335019111633	
74	306.5789420604706	movie	1		244	72.0	2.5	/experiments/knapen_AOT/AOT_stimuli/rescaled_final/0259_rv.mp4	0.0	399.3315942287445	2.5086469650268555
74	308.17128109931946	pulse	1	t		72.0	2.5	/experiments/knapen_AOT/AOT_stimuli/rescaled_final/0259_rv.mp4	0.0	400.9239332675934	
74	309.08758902549744	fix_post	2		12	72.0	2.5	/experiments/knapen_AOT/AOT_stimuli/rescaled_final/0259_rv.mp4	0.0	401.84024119377136	0.10010313987731934
75	309.18769216537476	fix_pre	0		120	73.0	2.5	/experiments/knapen_AOT/AOT_stimuli/rescaled_final/1350_fw.mp4	0.0	401.9403443336487	1.0001139640808105
75	309.771281003952	pulse	0	t		73.0	2.5	/experiments/knapen_AOT/AOT_stimuli/rescaled_final/1350_fw.mp4	0.0	402.52393317222595	
75	310.18780612945557	movie	1		244	73.0	2.5	/experiments/knapen_AOT/AOT_stimuli/rescaled_final/1350_fw.mp4	0.0	402.9404582977295	2.500372886657715
75	311.3716721534729	pulse	1	t		73.0	2.5	/experiments/knapen_AOT/AOT_stimuli/rescaled_final/1350_fw.mp4	0.0	404.1243243217468	
75	312.6881790161133	fix_post	2		12	73.0	2.5	/experiments/knapen_AOT/AOT_stimuli/rescaled_final/1350_fw.mp4	0.0	405.4408311843872	0.10001897811889648
76	312.7881979942322	fix_pre	0		120	74.0	2.5	/experiments/knapen_AOT/AOT_stimuli/rescaled_final/0579_rv.mp4	0.0	405.5408501625061	1.0001029968261719
76	312.9716739654541	pulse	0	t		74.0	2.5	/experiments/knapen_AOT/AOT_stimuli/rescaled_final/0579_rv.mp4	0.0	405.724326133728	
76	313.78830099105835	movie	1		243	74.0	2.5	/experiments/knapen_AOT/AOT_stimuli/rescaled_final/0579_rv.mp4	0.0	406.5409531593323	2.5003859996795654
76	314.5719530582428	pulse	1	t		74.0	2.5	/experiments/knapen_AOT/AOT_stimuli/rescaled_final/0579_rv.mp4	0.0	407.3246052265167	
76	316.17193508148193	pulse	1	t		74.0	2.5	/experiments/knapen_AOT/AOT_stimuli/rescaled_final/0579_rv.mp4	0.0	408.92458724975586	
76	316.2886869907379	fix_post	2		12	74.0	2.5	/experiments/knapen_AOT/AOT_stimuli/rescaled_final/0579_rv.mp4	0.0	409.04133915901184	0.09999608993530273
77	316.3886830806732	fix_pre	0		119	75.0	2.5	blank	1.0	409.14133524894714	0.9918079376220703
77	317.3804910182953	movie	1		300	75.0	2.5	blank	1.0	410.1331431865692	2.5005011558532715
77	317.77252101898193	pulse	1	t		75.0	2.5	blank	1.0	410.52517318725586	
77	319.37273597717285	pulse	1	t		75.0	2.5	blank	1.0	412.1253881454468	
77	319.88099217414856	fix_post	2		12	75.0	2.5	blank	1.0	412.6336443424225	0.0999147891998291
78	319.9809069633484	fix_pre	0		120	76.0	2.5	/experiments/knapen_AOT/AOT_stimuli/rescaled_final/1708_fw.mp4	0.0	412.7335591316223	1.0001461505889893
78	320.9729039669037	pulse	0	t		76.0	2.5	/experiments/knapen_AOT/AOT_stimuli/rescaled_final/1708_fw.mp4	0.0	413.7255561351776	
78	320.9810531139374	movie	1		245	76.0	2.5	/experiments/knapen_AOT/AOT_stimuli/rescaled_final/1708_fw.mp4	0.0	413.7337052822113	2.508654832839966
78	322.5740611553192	pulse	1	t		76.0	2.5	/experiments/knapen_AOT/AOT_stimuli/rescaled_final/1708_fw.mp4	0.0	415.32671332359314	
78	323.48970794677734	fix_post	2		12	76.0	2.5	/experiments/knapen_AOT/AOT_stimuli/rescaled_final/1708_fw.mp4	0.0	416.24236011505127	0.10005307197570801
79	323.58976101875305	fix_pre	0		120	77.0	2.5	/experiments/knapen_AOT/AOT_stimuli/rescaled_final/1265_fw.mp4	0.0	416.342413187027	1.0001599788665771
79	324.1734161376953	pulse	0	t		77.0	2.5	/experiments/knapen_AOT/AOT_stimuli/rescaled_final/1265_fw.mp4	0.0	416.92606830596924	
79	324.58992099761963	movie	1		243	77.0	2.5	/experiments/knapen_AOT/AOT_stimuli/rescaled_final/1265_fw.mp4	0.0	417.34257316589355	2.5003349781036377
79	325.77377915382385	pulse	1	t		77.0	2.5	/experiments/knapen_AOT/AOT_stimuli/rescaled_final/1265_fw.mp4	0.0	418.5264313220978	
79	327.09025597572327	fix_post	2		12	77.0	2.5	/experiments/knapen_AOT/AOT_stimuli/rescaled_final/1265_fw.mp4	0.0	419.8429081439972	0.10004806518554688
80	327.1903040409088	fix_pre	0		120	78.0	2.5	/experiments/knapen_AOT/AOT_stimuli/rescaled_final/0867_fw.mp4	0.0	419.94295620918274	1.0001490116119385
80	327.3740990161896	pulse	0	t		78.0	2.5	/experiments/knapen_AOT/AOT_stimuli/rescaled_final/0867_fw.mp4	0.0	420.1267511844635	
80	328.19045305252075	movie	1		243	78.0	2.5	/experiments/knapen_AOT/AOT_stimuli/rescaled_final/0867_fw.mp4	0.0	420.9431052207947	2.500365972518921
80	328.97401905059814	pulse	1	t		78.0	2.5	/experiments/knapen_AOT/AOT_stimuli/rescaled_final/0867_fw.mp4	0.0	421.72667121887207	
80	330.5743601322174	pulse	1	t		78.0	2.5	/experiments/knapen_AOT/AOT_stimuli/rescaled_final/0867_fw.mp4	0.0	423.32701230049133	
80	330.6908190250397	fix_post	2		12	78.0	2.5	/experiments/knapen_AOT/AOT_stimuli/rescaled_final/0867_fw.mp4	0.0	423.4434711933136	0.1000831127166748
81	330.79090213775635	fix_pre	0		120	79.0	2.5	/experiments/knapen_AOT/AOT_stimuli/rescaled_final/1168_rv.mp4	0.0	423.5435543060303	1.0001468658447266
81	331.7910490036011	movie	1		241	79.0	2.5	/experiments/knapen_AOT/AOT_stimuli/rescaled_final/1168_rv.mp4	0.0	424.543701171875	2.492187976837158
81	332.1793360710144	pulse	1	t		79.0	2.5	/experiments/knapen_AOT/AOT_stimuli/rescaled_final/1168_rv.mp4	0.0	424.93198823928833	
81	333.7748739719391	pulse	1	t		79.0	2.5	/experiments/knapen_AOT/AOT_stimuli/rescaled_final/1168_rv.mp4	0.0	426.527526140213	
81	334.28323698043823	fix_post	2		12	79.0	2.5	/experiments/knapen_AOT/AOT_stimuli/rescaled_final/1168_rv.mp4	0.0	427.03588914871216	0.09983110427856445
82	334.3830680847168	fix_pre	0		120	80.0	2.5	/experiments/knapen_AOT/AOT_stimuli/rescaled_final/1240_fw.mp4	0.0	427.1357202529907	1.0001540184020996
82	335.3750560283661	pulse	0	t		80.0	2.5	/experiments/knapen_AOT/AOT_stimuli/rescaled_final/1240_fw.mp4	0.0	428.12770819664	
82	335.3832221031189	movie	1		245	80.0	2.5	/experiments/knapen_AOT/AOT_stimuli/rescaled_final/1240_fw.mp4	0.0	428.1358742713928	2.5086669921875
82	336.9761769771576	pulse	1	t		80.0	2.5	/experiments/knapen_AOT/AOT_stimuli/rescaled_final/1240_fw.mp4	0.0	429.7288291454315	
82	337.8918890953064	fix_post	2		12	80.0	2.5	/experiments/knapen_AOT/AOT_stimuli/rescaled_final/1240_fw.mp4	0.0	430.6445412635803	0.10000491142272949
83	337.9918940067291	fix_pre	0		120	81.0	2.5	/experiments/knapen_AOT/AOT_stimuli/rescaled_final/1271_fw.mp4	0.0	430.74454617500305	1.0001590251922607
83	338.5755410194397	pulse	0	t		81.0	2.5	/experiments/knapen_AOT/AOT_stimuli/rescaled_final/1271_fw.mp4	0.0	431.3281931877136	
83	338.9920530319214	movie	1		244	81.0	2.5	/experiments/knapen_AOT/AOT_stimuli/rescaled_final/1271_fw.mp4	0.0	431.7447052001953	2.500364065170288
83	340.1759159564972	pulse	1	t		81.0	2.5	/experiments/knapen_AOT/AOT_stimuli/rescaled_final/1271_fw.mp4	0.0	432.9285681247711	
83	341.4924170970917	fix_post	2		12	81.0	2.5	/experiments/knapen_AOT/AOT_stimuli/rescaled_final/1271_fw.mp4	0.0	434.2450692653656	0.1000070571899414
84	341.5924241542816	fix_pre	0		120	82.0	2.5	blank	1.0	434.34507632255554	1.0001978874206543
84	341.7760920524597	pulse	0	t		82.0	2.5	blank	1.0	434.52874422073364	
84	342.59262204170227	movie	1		300	82.0	2.5	blank	1.0	435.3452742099762	2.500351905822754
84	343.3762741088867	pulse	1	t		82.0	2.5	blank	1.0	436.12892627716064	
84	344.976438999176	pulse	1	t		82.0	2.5	blank	1.0	437.72909116744995	
84	345.092973947525	fix_post	2		12	82.0	2.5	blank	1.0	437.84562611579895	0.10000205039978027
85	345.1929759979248	fix_pre	0		120	83.0	2.5	/experiments/knapen_AOT/AOT_stimuli/rescaled_final/0692_rv.mp4	0.0	437.94562816619873	1.0001521110534668
85	346.19312810897827	movie	1		242	83.0	2.5	/experiments/knapen_AOT/AOT_stimuli/rescaled_final/0692_rv.mp4	0.0	438.9457802772522	2.492039918899536
85	346.5773169994354	pulse	1	t		83.0	2.5	/experiments/knapen_AOT/AOT_stimuli/rescaled_final/0692_rv.mp4	0.0	439.32996916770935	
85	348.16962695121765	pulse	1	t		83.0	2.5	/experiments/knapen_AOT/AOT_stimuli/rescaled_final/0692_rv.mp4	0.0	440.9222791194916	
85	348.6851680278778	fix_post	2		12	83.0	2.5	/experiments/knapen_AOT/AOT_stimuli/rescaled_final/0692_rv.mp4	0.0	441.43782019615173	0.1000361442565918
87	348.7852041721344	stim	0		1716					441.5378563404083	14.302127838134766
87	349.76986813545227	pulse	0	t						442.5225203037262	
87	351.37012910842896	pulse	0	t						444.1227812767029	
87	352.9702579975128	pulse	0	t						445.72291016578674	
87	354.57041907310486	pulse	0	t						447.3230712413788	
87	356.1697211265564	pulse	0	t						448.9223732948303	
87	357.77005314826965	pulse	0	t						450.5227053165436	
87	359.3702321052551	pulse	0	t						452.12288427352905	
87	360.97042298316956	pulse	0	t						453.7230751514435	
87	362.57079315185547	pulse	0	t						455.3234453201294	
