trial_nr	onset	event_type	phase	response	nr_frames	movie_index	movie_duration	movie_file	blank	onset_abs	duration
0	0.2083740234375	stim	0		6					19.10942006111145	0.049874067306518555
0	0.25031208992004395	response	0	space						19.151358127593994	
1	0.25824809074401855	stim	0		4362					19.15929412841797	36.36667990684509
1	36.6101930141449	pulse	0	t						55.51123905181885	
1	36.62492799758911	stim	1		1715					55.52597403526306	14.29917597770691
1	38.20570111274719	pulse	1	t						57.10674715042114	
1	39.80590200424194	pulse	1	t						58.706948041915894	
1	41.40621900558472	pulse	1	t						60.30726504325867	
1	43.00654315948486	pulse	1	t						61.90758919715881	
1	44.606733083724976	pulse	1	t						63.507779121398926	
1	46.20682907104492	pulse	1	t						65.10787510871887	
1	47.799565076828	pulse	1	t						66.70061111450195	
1	49.399742126464844	pulse	1	t						68.3007881641388	
2	50.92410397529602	fix_pre	0		11	0.0	2.5	/experiments/knapen_AOT/AOT_stimuli/rescaled_final/1252_rv.mp4	0.0	69.82515001296997	0.09165310859680176
2	51.000165939331055	pulse	0	t		0.0	2.5	/experiments/knapen_AOT/AOT_stimuli/rescaled_final/1252_rv.mp4	0.0	69.901211977005	
2	51.01575708389282	movie	1		242	0.0	2.5	/experiments/knapen_AOT/AOT_stimuli/rescaled_final/1252_rv.mp4	0.0	69.91680312156677	2.5088050365448
2	52.60882616043091	pulse	1	t		0.0	2.5	/experiments/knapen_AOT/AOT_stimuli/rescaled_final/1252_rv.mp4	0.0	71.50987219810486	
2	53.52456212043762	fix_post	2		12	0.0	2.5	/experiments/knapen_AOT/AOT_stimuli/rescaled_final/1252_rv.mp4	0.0	72.42560815811157	0.09999394416809082
3	53.62455606460571	fix_pre	0		120	1.0	2.5	/experiments/knapen_AOT/AOT_stimuli/rescaled_final/1263_rv.mp4	0.0	72.52560210227966	1.0000710487365723
3	54.19996404647827	pulse	0	t		1.0	2.5	/experiments/knapen_AOT/AOT_stimuli/rescaled_final/1263_rv.mp4	0.0	73.10101008415222	
3	54.624627113342285	movie	1		244	1.0	2.5	/experiments/knapen_AOT/AOT_stimuli/rescaled_final/1263_rv.mp4	0.0	73.52567315101624	2.5004689693450928
3	55.80079412460327	pulse	1	t		1.0	2.5	/experiments/knapen_AOT/AOT_stimuli/rescaled_final/1263_rv.mp4	0.0	74.70184016227722	
3	57.12509608268738	fix_post	2		12	1.0	2.5	/experiments/knapen_AOT/AOT_stimuli/rescaled_final/1263_rv.mp4	0.0	76.02614212036133	0.09999203681945801
4	57.225088119506836	fix_pre	0		120	2.0	2.5	/experiments/knapen_AOT/AOT_stimuli/rescaled_final/1795_fw.mp4	0.0	76.12613415718079	1.0000898838043213
4	57.40025496482849	pulse	0	t		2.0	2.5	/experiments/knapen_AOT/AOT_stimuli/rescaled_final/1795_fw.mp4	0.0	76.30130100250244	
4	58.22517800331116	movie	1		243	2.0	2.5	/experiments/knapen_AOT/AOT_stimuli/rescaled_final/1795_fw.mp4	0.0	77.12622404098511	2.5004870891571045
4	59.00054407119751	pulse	1	t		2.0	2.5	/experiments/knapen_AOT/AOT_stimuli/rescaled_final/1795_fw.mp4	0.0	77.90159010887146	
4	60.600821018218994	pulse	1	t		2.0	2.5	/experiments/knapen_AOT/AOT_stimuli/rescaled_final/1795_fw.mp4	0.0	79.50186705589294	
4	60.72566509246826	fix_post	2		12	2.0	2.5	/experiments/knapen_AOT/AOT_stimuli/rescaled_final/1795_fw.mp4	0.0	79.62671113014221	0.09992694854736328
5	60.825592041015625	fix_pre	0		120	3.0	2.5	/experiments/knapen_AOT/AOT_stimuli/rescaled_final/0072_rv.mp4	0.0	79.72663807868958	1.0001330375671387
5	61.825725078582764	movie	1		242	3.0	2.5	/experiments/knapen_AOT/AOT_stimuli/rescaled_final/0072_rv.mp4	0.0	80.72677111625671	2.492042064666748
5	62.2009551525116	pulse	1	t		3.0	2.5	/experiments/knapen_AOT/AOT_stimuli/rescaled_final/0072_rv.mp4	0.0	81.10200119018555	
5	63.80134201049805	pulse	1	t		3.0	2.5	/experiments/knapen_AOT/AOT_stimuli/rescaled_final/0072_rv.mp4	0.0	82.702388048172	
5	64.31776714324951	fix_post	2		12	3.0	2.5	/experiments/knapen_AOT/AOT_stimuli/rescaled_final/0072_rv.mp4	0.0	83.21881318092346	0.0999917984008789
6	64.41775894165039	fix_pre	0		119	4.0	2.5	/experiments/knapen_AOT/AOT_stimuli/rescaled_final/1326_rv.mp4	0.0	83.31880497932434	0.9918332099914551
6	65.40136694908142	pulse	0	t		4.0	2.5	/experiments/knapen_AOT/AOT_stimuli/rescaled_final/1326_rv.mp4	0.0	84.30241298675537	
6	65.40959215164185	movie	1		243	4.0	2.5	/experiments/knapen_AOT/AOT_stimuli/rescaled_final/1326_rv.mp4	0.0	84.3106381893158	2.5087687969207764
6	67.0021231174469	pulse	1	t		4.0	2.5	/experiments/knapen_AOT/AOT_stimuli/rescaled_final/1326_rv.mp4	0.0	85.90316915512085	
6	67.91836094856262	fix_post	2		12	4.0	2.5	/experiments/knapen_AOT/AOT_stimuli/rescaled_final/1326_rv.mp4	0.0	86.81940698623657	0.09998106956481934
7	68.01834201812744	fix_pre	0		120	5.0	2.5	blank	1.0	86.91938805580139	1.0001239776611328
7	68.60195302963257	pulse	0	t		5.0	2.5	blank	1.0	87.50299906730652	
7	69.01846599578857	movie	1		300	5.0	2.5	blank	1.0	87.91951203346252	2.5003890991210938
7	70.20223712921143	pulse	1	t		5.0	2.5	blank	1.0	89.10328316688538	
7	71.51885509490967	fix_post	2		12	5.0	2.5	blank	1.0	90.41990113258362	0.10008001327514648
8	71.61893510818481	fix_pre	0		120	6.0	2.5	/experiments/knapen_AOT/AOT_stimuli/rescaled_final/0294_rv.mp4	0.0	90.51998114585876	1.0001158714294434
8	71.80240607261658	pulse	0	t		6.0	2.5	/experiments/knapen_AOT/AOT_stimuli/rescaled_final/0294_rv.mp4	0.0	90.70345211029053	
8	72.61905097961426	movie	1		243	6.0	2.5	/experiments/knapen_AOT/AOT_stimuli/rescaled_final/0294_rv.mp4	0.0	91.52009701728821	2.5003881454467773
8	73.40261912345886	pulse	1	t		6.0	2.5	/experiments/knapen_AOT/AOT_stimuli/rescaled_final/0294_rv.mp4	0.0	92.30366516113281	
8	75.00311398506165	pulse	1	t		6.0	2.5	/experiments/knapen_AOT/AOT_stimuli/rescaled_final/0294_rv.mp4	0.0	93.9041600227356	
8	75.11943912506104	fix_post	2		12	6.0	2.5	/experiments/knapen_AOT/AOT_stimuli/rescaled_final/0294_rv.mp4	0.0	94.02048516273499	0.09997797012329102
9	75.21941709518433	fix_pre	0		119	7.0	2.5	/experiments/knapen_AOT/AOT_stimuli/rescaled_final/0572_rv.mp4	0.0	94.12046313285828	0.9918229579925537
9	76.21124005317688	movie	1		244	7.0	2.5	/experiments/knapen_AOT/AOT_stimuli/rescaled_final/0572_rv.mp4	0.0	95.11228609085083	2.500375986099243
9	76.60329914093018	pulse	1	t		7.0	2.5	/experiments/knapen_AOT/AOT_stimuli/rescaled_final/0572_rv.mp4	0.0	95.50434517860413	
9	78.20339894294739	pulse	1	t		7.0	2.5	/experiments/knapen_AOT/AOT_stimuli/rescaled_final/0572_rv.mp4	0.0	97.10444498062134	
9	78.71161603927612	fix_post	2		12	7.0	2.5	/experiments/knapen_AOT/AOT_stimuli/rescaled_final/0572_rv.mp4	0.0	97.61266207695007	0.09997701644897461
10	78.8115930557251	fix_pre	0		120	8.0	2.5	/experiments/knapen_AOT/AOT_stimuli/rescaled_final/1276_rv.mp4	0.0	97.71263909339905	1.000140905380249
10	79.80360317230225	pulse	0	t		8.0	2.5	/experiments/knapen_AOT/AOT_stimuli/rescaled_final/1276_rv.mp4	0.0	98.7046492099762	
10	79.81173396110535	movie	1		243	8.0	2.5	/experiments/knapen_AOT/AOT_stimuli/rescaled_final/1276_rv.mp4	0.0	98.7127799987793	2.508782148361206
10	81.40503811836243	pulse	1	t		8.0	2.5	/experiments/knapen_AOT/AOT_stimuli/rescaled_final/1276_rv.mp4	0.0	100.30608415603638	
10	82.32051610946655	fix_post	2		12	8.0	2.5	/experiments/knapen_AOT/AOT_stimuli/rescaled_final/1276_rv.mp4	0.0	101.2215621471405	0.09998202323913574
11	82.42049813270569	fix_pre	0		120	9.0	2.5	/experiments/knapen_AOT/AOT_stimuli/rescaled_final/0948_rv.mp4	0.0	101.32154417037964	1.0001158714294434
11	83.00410604476929	pulse	0	t		9.0	2.5	/experiments/knapen_AOT/AOT_stimuli/rescaled_final/0948_rv.mp4	0.0	101.90515208244324	
11	83.42061400413513	movie	1		242	9.0	2.5	/experiments/knapen_AOT/AOT_stimuli/rescaled_final/0948_rv.mp4	0.0	102.32166004180908	2.5005099773406982
11	84.60446810722351	pulse	1	t		9.0	2.5	/experiments/knapen_AOT/AOT_stimuli/rescaled_final/0948_rv.mp4	0.0	103.50551414489746	
11	85.92112398147583	fix_post	2		12	9.0	2.5	/experiments/knapen_AOT/AOT_stimuli/rescaled_final/0948_rv.mp4	0.0	104.82217001914978	0.09991812705993652
12	86.02104210853577	fix_pre	0		120	10.0	2.5	/experiments/knapen_AOT/AOT_stimuli/rescaled_final/2104_fw.mp4	0.0	104.92208814620972	1.0001578330993652
12	86.20455598831177	pulse	0	t		10.0	2.5	/experiments/knapen_AOT/AOT_stimuli/rescaled_final/2104_fw.mp4	0.0	105.10560202598572	
12	87.02119994163513	movie	1		242	10.0	2.5	/experiments/knapen_AOT/AOT_stimuli/rescaled_final/2104_fw.mp4	0.0	105.92224597930908	2.500441074371338
12	87.80476903915405	pulse	1	t		10.0	2.5	/experiments/knapen_AOT/AOT_stimuli/rescaled_final/2104_fw.mp4	0.0	106.705815076828	
12	89.40479707717896	pulse	1	t		10.0	2.5	/experiments/knapen_AOT/AOT_stimuli/rescaled_final/2104_fw.mp4	0.0	108.3058431148529	
12	89.52164101600647	fix_post	2		12	10.0	2.5	/experiments/knapen_AOT/AOT_stimuli/rescaled_final/2104_fw.mp4	0.0	108.42268705368042	0.09990715980529785
13	89.62154817581177	fix_pre	0		120	11.0	2.5	/experiments/knapen_AOT/AOT_stimuli/rescaled_final/0588_rv.mp4	0.0	108.52259421348572	1.0001239776611328
13	90.6216721534729	movie	1		241	11.0	2.5	/experiments/knapen_AOT/AOT_stimuli/rescaled_final/0588_rv.mp4	0.0	109.52271819114685	2.492102861404419
13	91.00944399833679	pulse	1	t		11.0	2.5	/experiments/knapen_AOT/AOT_stimuli/rescaled_final/0588_rv.mp4	0.0	109.91049003601074	
13	92.60573315620422	pulse	1	t		11.0	2.5	/experiments/knapen_AOT/AOT_stimuli/rescaled_final/0588_rv.mp4	0.0	111.50677919387817	
13	93.11377501487732	fix_post	2		12	11.0	2.5	/experiments/knapen_AOT/AOT_stimuli/rescaled_final/0588_rv.mp4	0.0	112.01482105255127	0.09997105598449707
14	93.21374607086182	fix_pre	0		120	12.0	2.5	/experiments/knapen_AOT/AOT_stimuli/rescaled_final/2168_fw.mp4	0.0	112.11479210853577	1.0002150535583496
14	94.20570015907288	pulse	0	t		12.0	2.5	/experiments/knapen_AOT/AOT_stimuli/rescaled_final/2168_fw.mp4	0.0	113.10674619674683	
14	94.21396112442017	movie	1		244	12.0	2.5	/experiments/knapen_AOT/AOT_stimuli/rescaled_final/2168_fw.mp4	0.0	113.11500716209412	2.5086588859558105
14	95.80690908432007	pulse	1	t		12.0	2.5	/experiments/knapen_AOT/AOT_stimuli/rescaled_final/2168_fw.mp4	0.0	114.70795512199402	
14	96.72262001037598	fix_post	2		12	12.0	2.5	/experiments/knapen_AOT/AOT_stimuli/rescaled_final/2168_fw.mp4	0.0	115.62366604804993	0.10002613067626953
15	96.82264614105225	fix_pre	0		120	13.0	2.5	/experiments/knapen_AOT/AOT_stimuli/rescaled_final/0370_rv.mp4	0.0	115.7236921787262	1.0001258850097656
15	97.40627098083496	pulse	0	t		13.0	2.5	/experiments/knapen_AOT/AOT_stimuli/rescaled_final/0370_rv.mp4	0.0	116.30731701850891	
15	97.82277202606201	movie	1		239	13.0	2.5	/experiments/knapen_AOT/AOT_stimuli/rescaled_final/0370_rv.mp4	0.0	116.72381806373596	2.5005481243133545
15	99.00659203529358	pulse	1	t		13.0	2.5	/experiments/knapen_AOT/AOT_stimuli/rescaled_final/0370_rv.mp4	0.0	117.90763807296753	
15	100.32332015037537	fix_post	2		12	13.0	2.5	/experiments/knapen_AOT/AOT_stimuli/rescaled_final/0370_rv.mp4	0.0	119.22436618804932	0.09990596771240234
16	100.42322611808777	fix_pre	0		120	14.0	2.5	blank	1.0	119.32427215576172	1.0000958442687988
16	100.60669207572937	pulse	0	t		14.0	2.5	blank	1.0	119.50773811340332	
16	101.42332196235657	movie	1		300	14.0	2.5	blank	1.0	120.32436800003052	2.5003511905670166
16	102.20686912536621	pulse	1	t		14.0	2.5	blank	1.0	121.10791516304016	
16	103.80727505683899	pulse	1	t		14.0	2.5	blank	1.0	122.70832109451294	
16	103.92367315292358	fix_post	2		12	14.0	2.5	blank	1.0	122.82471919059753	0.10001778602600098
17	104.02369093894958	fix_pre	0		119	15.0	2.5	/experiments/knapen_AOT/AOT_stimuli/rescaled_final/0662_fw.mp4	0.0	122.92473697662354	0.9918482303619385
17	105.01553916931152	movie	1		242	15.0	2.5	/experiments/knapen_AOT/AOT_stimuli/rescaled_final/0662_fw.mp4	0.0	123.91658520698547	2.500485897064209
17	105.40759897232056	pulse	1	t		15.0	2.5	/experiments/knapen_AOT/AOT_stimuli/rescaled_final/0662_fw.mp4	0.0	124.3086450099945	
17	107.00766706466675	pulse	1	t		15.0	2.5	/experiments/knapen_AOT/AOT_stimuli/rescaled_final/0662_fw.mp4	0.0	125.9087131023407	
17	107.51602506637573	fix_post	2		12	15.0	2.5	/experiments/knapen_AOT/AOT_stimuli/rescaled_final/0662_fw.mp4	0.0	126.41707110404968	0.09989404678344727
18	107.61591911315918	fix_pre	0		120	16.0	2.5	/experiments/knapen_AOT/AOT_stimuli/rescaled_final/0120_rv.mp4	0.0	126.51696515083313	1.0001509189605713
18	108.60055899620056	pulse	0	t		16.0	2.5	/experiments/knapen_AOT/AOT_stimuli/rescaled_final/0120_rv.mp4	0.0	127.50160503387451	
18	108.61607003211975	movie	1		244	16.0	2.5	/experiments/knapen_AOT/AOT_stimuli/rescaled_final/0120_rv.mp4	0.0	127.5171160697937	2.5086629390716553
18	110.2086591720581	pulse	1	t		16.0	2.5	/experiments/knapen_AOT/AOT_stimuli/rescaled_final/0120_rv.mp4	0.0	129.10970520973206	
18	111.1247329711914	fix_post	2		12	16.0	2.5	/experiments/knapen_AOT/AOT_stimuli/rescaled_final/0120_rv.mp4	0.0	130.02577900886536	0.10004711151123047
19	111.22478008270264	fix_pre	0		120	17.0	2.5	/experiments/knapen_AOT/AOT_stimuli/rescaled_final/0156_rv.mp4	0.0	130.1258261203766	1.0001840591430664
19	111.80091404914856	pulse	0	t		17.0	2.5	/experiments/knapen_AOT/AOT_stimuli/rescaled_final/0156_rv.mp4	0.0	130.7019600868225	
19	112.2249641418457	movie	1		242	17.0	2.5	/experiments/knapen_AOT/AOT_stimuli/rescaled_final/0156_rv.mp4	0.0	131.12601017951965	2.500483989715576
19	113.40069508552551	pulse	1	t		17.0	2.5	/experiments/knapen_AOT/AOT_stimuli/rescaled_final/0156_rv.mp4	0.0	132.30174112319946	
19	114.72544813156128	fix_post	2		12	17.0	2.5	/experiments/knapen_AOT/AOT_stimuli/rescaled_final/0156_rv.mp4	0.0	133.62649416923523	0.0999150276184082
20	114.82536315917969	fix_pre	0		120	18.0	2.5	/experiments/knapen_AOT/AOT_stimuli/rescaled_final/1685_rv.mp4	0.0	133.72640919685364	1.0001349449157715
20	115.0006730556488	pulse	0	t		18.0	2.5	/experiments/knapen_AOT/AOT_stimuli/rescaled_final/1685_rv.mp4	0.0	133.90171909332275	
20	115.82549810409546	movie	1		242	18.0	2.5	/experiments/knapen_AOT/AOT_stimuli/rescaled_final/1685_rv.mp4	0.0	134.7265441417694	2.5003819465637207
20	116.60079312324524	pulse	1	t		18.0	2.5	/experiments/knapen_AOT/AOT_stimuli/rescaled_final/1685_rv.mp4	0.0	135.5018391609192	
20	118.20094203948975	pulse	1	t		18.0	2.5	/experiments/knapen_AOT/AOT_stimuli/rescaled_final/1685_rv.mp4	0.0	137.1019880771637	
20	118.32588005065918	fix_post	2		11	18.0	2.5	/experiments/knapen_AOT/AOT_stimuli/rescaled_final/1685_rv.mp4	0.0	137.22692608833313	0.09168004989624023
21	118.41756010055542	fix_pre	0		120	19.0	2.5	/experiments/knapen_AOT/AOT_stimuli/rescaled_final/1499_rv.mp4	0.0	137.31860613822937	1.0001189708709717
21	119.41767907142639	movie	1		243	19.0	2.5	/experiments/knapen_AOT/AOT_stimuli/rescaled_final/1499_rv.mp4	0.0	138.31872510910034	2.5004100799560547
21	119.80166816711426	pulse	1	t		19.0	2.5	/experiments/knapen_AOT/AOT_stimuli/rescaled_final/1499_rv.mp4	0.0	138.7027142047882	
21	121.40160703659058	pulse	1	t		19.0	2.5	/experiments/knapen_AOT/AOT_stimuli/rescaled_final/1499_rv.mp4	0.0	140.30265307426453	
21	121.91808915138245	fix_post	2		12	19.0	2.5	/experiments/knapen_AOT/AOT_stimuli/rescaled_final/1499_rv.mp4	0.0	140.8191351890564	0.09999990463256836
22	122.01808905601501	fix_pre	0		119	20.0	2.5	blank	1.0	140.91913509368896	0.9918038845062256
22	123.0018219947815	pulse	0	t		20.0	2.5	blank	1.0	141.90286803245544	
22	123.00989294052124	movie	1		301	20.0	2.5	blank	1.0	141.9109389781952	2.508700132369995
22	124.60191011428833	pulse	1	t		20.0	2.5	blank	1.0	143.50295615196228	
22	125.51859307289124	fix_post	2		12	20.0	2.5	blank	1.0	144.41963911056519	0.10001802444458008
23	125.61861109733582	fix_pre	0		120	21.0	2.5	/experiments/knapen_AOT/AOT_stimuli/rescaled_final/0834_fw.mp4	0.0	144.51965713500977	1.0001170635223389
23	126.20224499702454	pulse	0	t		21.0	2.5	/experiments/knapen_AOT/AOT_stimuli/rescaled_final/0834_fw.mp4	0.0	145.1032910346985	
23	126.61872816085815	movie	1		242	21.0	2.5	/experiments/knapen_AOT/AOT_stimuli/rescaled_final/0834_fw.mp4	0.0	145.5197741985321	2.50050687789917
23	127.80256199836731	pulse	1	t		21.0	2.5	/experiments/knapen_AOT/AOT_stimuli/rescaled_final/0834_fw.mp4	0.0	146.70360803604126	
23	129.11923503875732	fix_post	2		12	21.0	2.5	/experiments/knapen_AOT/AOT_stimuli/rescaled_final/0834_fw.mp4	0.0	148.02028107643127	0.09992194175720215
24	129.21915698051453	fix_pre	0		120	22.0	2.5	/experiments/knapen_AOT/AOT_stimuli/rescaled_final/1406_rv.mp4	0.0	148.12020301818848	1.000209093093872
24	129.4027180671692	pulse	0	t		22.0	2.5	/experiments/knapen_AOT/AOT_stimuli/rescaled_final/1406_rv.mp4	0.0	148.30376410484314	
24	130.2193660736084	movie	1		242	22.0	2.5	/experiments/knapen_AOT/AOT_stimuli/rescaled_final/1406_rv.mp4	0.0	149.12041211128235	2.5003368854522705
24	131.00288701057434	pulse	1	t		22.0	2.5	/experiments/knapen_AOT/AOT_stimuli/rescaled_final/1406_rv.mp4	0.0	149.9039330482483	
24	132.60292601585388	pulse	1	t		22.0	2.5	/experiments/knapen_AOT/AOT_stimuli/rescaled_final/1406_rv.mp4	0.0	151.50397205352783	
24	132.71970295906067	fix_post	2		12	22.0	2.5	/experiments/knapen_AOT/AOT_stimuli/rescaled_final/1406_rv.mp4	0.0	151.62074899673462	0.09996199607849121
25	132.81966495513916	fix_pre	0		120	23.0	2.5	/experiments/knapen_AOT/AOT_stimuli/rescaled_final/1346_rv.mp4	0.0	151.7207109928131	1.0001401901245117
25	133.81980514526367	movie	1		241	23.0	2.5	/experiments/knapen_AOT/AOT_stimuli/rescaled_final/1346_rv.mp4	0.0	152.72085118293762	2.4921469688415527
25	134.20376205444336	pulse	1	t		23.0	2.5	/experiments/knapen_AOT/AOT_stimuli/rescaled_final/1346_rv.mp4	0.0	153.1048080921173	
25	135.80374598503113	pulse	1	t		23.0	2.5	/experiments/knapen_AOT/AOT_stimuli/rescaled_final/1346_rv.mp4	0.0	154.70479202270508	
25	136.31195211410522	fix_post	2		12	23.0	2.5	/experiments/knapen_AOT/AOT_stimuli/rescaled_final/1346_rv.mp4	0.0	155.21299815177917	0.10000801086425781
26	136.41196012496948	fix_pre	0		120	24.0	2.5	/experiments/knapen_AOT/AOT_stimuli/rescaled_final/0354_rv.mp4	0.0	155.31300616264343	1.0000548362731934
26	137.40387296676636	pulse	0	t		24.0	2.5	/experiments/knapen_AOT/AOT_stimuli/rescaled_final/0354_rv.mp4	0.0	156.3049190044403	
26	137.41201496124268	movie	1		244	24.0	2.5	/experiments/knapen_AOT/AOT_stimuli/rescaled_final/0354_rv.mp4	0.0	156.31306099891663	2.508709192276001
26	139.00615000724792	pulse	1	t		24.0	2.5	/experiments/knapen_AOT/AOT_stimuli/rescaled_final/0354_rv.mp4	0.0	157.90719604492188	
26	139.92072415351868	fix_post	2		12	24.0	2.5	/experiments/knapen_AOT/AOT_stimuli/rescaled_final/0354_rv.mp4	0.0	158.82177019119263	0.09999299049377441
27	140.02071714401245	fix_pre	0		120	25.0	2.5	/experiments/knapen_AOT/AOT_stimuli/rescaled_final/0809_rv.mp4	0.0	158.9217631816864	1.0001440048217773
27	140.60438203811646	pulse	0	t		25.0	2.5	/experiments/knapen_AOT/AOT_stimuli/rescaled_final/0809_rv.mp4	0.0	159.5054280757904	
27	141.02086114883423	movie	1		242	25.0	2.5	/experiments/knapen_AOT/AOT_stimuli/rescaled_final/0809_rv.mp4	0.0	159.92190718650818	2.5004539489746094
27	142.20475101470947	pulse	1	t		25.0	2.5	/experiments/knapen_AOT/AOT_stimuli/rescaled_final/0809_rv.mp4	0.0	161.10579705238342	
27	143.52131509780884	fix_post	2		12	25.0	2.5	/experiments/knapen_AOT/AOT_stimuli/rescaled_final/0809_rv.mp4	0.0	162.4223611354828	0.09999585151672363
28	143.62131094932556	fix_pre	0		120	26.0	2.5	/experiments/knapen_AOT/AOT_stimuli/rescaled_final/0998_fw.mp4	0.0	162.5223569869995	1.0001001358032227
28	143.80483102798462	pulse	0	t		26.0	2.5	/experiments/knapen_AOT/AOT_stimuli/rescaled_final/0998_fw.mp4	0.0	162.70587706565857	
28	144.62141108512878	movie	1		243	26.0	2.5	/experiments/knapen_AOT/AOT_stimuli/rescaled_final/0998_fw.mp4	0.0	163.52245712280273	2.5004398822784424
28	145.4051170349121	pulse	1	t		26.0	2.5	/experiments/knapen_AOT/AOT_stimuli/rescaled_final/0998_fw.mp4	0.0	164.30616307258606	
28	147.0051610469818	pulse	1	t		26.0	2.5	/experiments/knapen_AOT/AOT_stimuli/rescaled_final/0998_fw.mp4	0.0	165.90620708465576	
28	147.12185096740723	fix_post	2		12	26.0	2.5	/experiments/knapen_AOT/AOT_stimuli/rescaled_final/0998_fw.mp4	0.0	166.02289700508118	0.09995818138122559
29	147.22180914878845	fix_pre	0		120	27.0	2.5	/experiments/knapen_AOT/AOT_stimuli/rescaled_final/2015_fw.mp4	0.0	166.1228551864624	1.0002110004425049
29	148.22202014923096	movie	1		241	27.0	2.5	/experiments/knapen_AOT/AOT_stimuli/rescaled_final/2015_fw.mp4	0.0	167.1230661869049	2.4920129776000977
29	148.60615396499634	pulse	1	t		27.0	2.5	/experiments/knapen_AOT/AOT_stimuli/rescaled_final/2015_fw.mp4	0.0	167.5072000026703	
29	150.20593214035034	pulse	1	t		27.0	2.5	/experiments/knapen_AOT/AOT_stimuli/rescaled_final/2015_fw.mp4	0.0	169.1069781780243	
29	150.71403312683105	fix_post	2		12	27.0	2.5	/experiments/knapen_AOT/AOT_stimuli/rescaled_final/2015_fw.mp4	0.0	169.615079164505	0.10001397132873535
30	150.8140470981598	fix_pre	0		120	28.0	2.5	blank	1.0	169.71509313583374	1.0001130104064941
30	151.80598616600037	pulse	0	t		28.0	2.5	blank	1.0	170.70703220367432	
30	151.81416010856628	movie	1		301	28.0	2.5	blank	1.0	170.71520614624023	2.5087890625
30	153.40624594688416	pulse	1	t		28.0	2.5	blank	1.0	172.3072919845581	
30	154.32294917106628	fix_post	2		12	28.0	2.5	blank	1.0	173.22399520874023	0.10002398490905762
31	154.42297315597534	fix_pre	0		120	29.0	2.5	/experiments/knapen_AOT/AOT_stimuli/rescaled_final/0253_rv.mp4	0.0	173.3240191936493	1.0000720024108887
31	155.00650906562805	pulse	0	t		29.0	2.5	/experiments/knapen_AOT/AOT_stimuli/rescaled_final/0253_rv.mp4	0.0	173.907555103302	
31	155.42304515838623	movie	1		244	29.0	2.5	/experiments/knapen_AOT/AOT_stimuli/rescaled_final/0253_rv.mp4	0.0	174.32409119606018	2.500417947769165
31	156.60678100585938	pulse	1	t		29.0	2.5	/experiments/knapen_AOT/AOT_stimuli/rescaled_final/0253_rv.mp4	0.0	175.50782704353333	
31	157.9234631061554	fix_post	2		12	29.0	2.5	/experiments/knapen_AOT/AOT_stimuli/rescaled_final/0253_rv.mp4	0.0	176.82450914382935	0.0999760627746582
32	158.02343916893005	fix_pre	0		120	30.0	2.5	/experiments/knapen_AOT/AOT_stimuli/rescaled_final/1865_rv.mp4	0.0	176.924485206604	1.000168800354004
32	158.20689916610718	pulse	0	t		30.0	2.5	/experiments/knapen_AOT/AOT_stimuli/rescaled_final/1865_rv.mp4	0.0	177.10794520378113	
32	159.02360796928406	movie	1		242	30.0	2.5	/experiments/knapen_AOT/AOT_stimuli/rescaled_final/1865_rv.mp4	0.0	177.924654006958	2.5004971027374268
32	159.80727314949036	pulse	1	t		30.0	2.5	/experiments/knapen_AOT/AOT_stimuli/rescaled_final/1865_rv.mp4	0.0	178.7083191871643	
32	161.4083080291748	pulse	1	t		30.0	2.5	/experiments/knapen_AOT/AOT_stimuli/rescaled_final/1865_rv.mp4	0.0	180.30935406684875	
32	161.52410507202148	fix_post	2		12	30.0	2.5	/experiments/knapen_AOT/AOT_stimuli/rescaled_final/1865_rv.mp4	0.0	180.42515110969543	0.09990191459655762
33	161.62400698661804	fix_pre	0		117	31.0	2.5	/experiments/knapen_AOT/AOT_stimuli/rescaled_final/0476_fw.mp4	0.0	180.525053024292	1.0001380443572998
33	162.62414503097534	movie	1		242	31.0	2.5	/experiments/knapen_AOT/AOT_stimuli/rescaled_final/0476_fw.mp4	0.0	181.5251910686493	2.4922029972076416
33	163.01222801208496	pulse	1	t		31.0	2.5	/experiments/knapen_AOT/AOT_stimuli/rescaled_final/0476_fw.mp4	0.0	181.9132740497589	
33	164.60054111480713	pulse	1	t		31.0	2.5	/experiments/knapen_AOT/AOT_stimuli/rescaled_final/0476_fw.mp4	0.0	183.50158715248108	
33	165.11634802818298	fix_post	2		12	31.0	2.5	/experiments/knapen_AOT/AOT_stimuli/rescaled_final/0476_fw.mp4	0.0	184.01739406585693	0.0998389720916748
34	165.21618700027466	fix_pre	0		120	32.0	2.5	/experiments/knapen_AOT/AOT_stimuli/rescaled_final/0913_fw.mp4	0.0	184.1172330379486	1.0001370906829834
34	166.200590133667	pulse	0	t		32.0	2.5	/experiments/knapen_AOT/AOT_stimuli/rescaled_final/0913_fw.mp4	0.0	185.10163617134094	
34	166.21632409095764	movie	1		244	32.0	2.5	/experiments/knapen_AOT/AOT_stimuli/rescaled_final/0913_fw.mp4	0.0	185.1173701286316	2.5087239742279053
34	167.8087899684906	pulse	1	t		32.0	2.5	/experiments/knapen_AOT/AOT_stimuli/rescaled_final/0913_fw.mp4	0.0	186.70983600616455	
34	168.72504806518555	fix_post	2		12	32.0	2.5	/experiments/knapen_AOT/AOT_stimuli/rescaled_final/0913_fw.mp4	0.0	187.6260941028595	0.10001587867736816
35	168.82506394386292	fix_pre	0		120	33.0	2.5	/experiments/knapen_AOT/AOT_stimuli/rescaled_final/0871_fw.mp4	0.0	187.72610998153687	1.0001552104949951
35	169.40032696723938	pulse	0	t		33.0	2.5	/experiments/knapen_AOT/AOT_stimuli/rescaled_final/0871_fw.mp4	0.0	188.30137300491333	
35	169.8252191543579	movie	1		243	33.0	2.5	/experiments/knapen_AOT/AOT_stimuli/rescaled_final/0871_fw.mp4	0.0	188.72626519203186	2.5004098415374756
35	171.00101900100708	pulse	1	t		33.0	2.5	/experiments/knapen_AOT/AOT_stimuli/rescaled_final/0871_fw.mp4	0.0	189.90206503868103	
35	172.32562899589539	fix_post	2		12	33.0	2.5	/experiments/knapen_AOT/AOT_stimuli/rescaled_final/0871_fw.mp4	0.0	191.22667503356934	0.09994816780090332
36	172.4255771636963	fix_pre	0		120	34.0	2.5	/experiments/knapen_AOT/AOT_stimuli/rescaled_final/1346_fw.mp4	0.0	191.32662320137024	1.0001249313354492
36	172.60073709487915	pulse	0	t		34.0	2.5	/experiments/knapen_AOT/AOT_stimuli/rescaled_final/1346_fw.mp4	0.0	191.5017831325531	
36	173.42570209503174	movie	1		242	34.0	2.5	/experiments/knapen_AOT/AOT_stimuli/rescaled_final/1346_fw.mp4	0.0	192.3267481327057	2.500527858734131
36	174.2010691165924	pulse	1	t		34.0	2.5	/experiments/knapen_AOT/AOT_stimuli/rescaled_final/1346_fw.mp4	0.0	193.10211515426636	
36	175.8013710975647	pulse	1	t		34.0	2.5	/experiments/knapen_AOT/AOT_stimuli/rescaled_final/1346_fw.mp4	0.0	194.70241713523865	
36	175.92622995376587	fix_post	2		12	34.0	2.5	/experiments/knapen_AOT/AOT_stimuli/rescaled_final/1346_fw.mp4	0.0	194.82727599143982	0.09991312026977539
37	176.02614307403564	fix_pre	0		120	35.0	2.5	blank	1.0	194.9271891117096	1.0001280307769775
37	177.02627110481262	movie	1		299	35.0	2.5	blank	1.0	195.92731714248657	2.4920690059661865
37	177.40154194831848	pulse	1	t		35.0	2.5	blank	1.0	196.30258798599243	
37	179.00179195404053	pulse	1	t		35.0	2.5	blank	1.0	197.90283799171448	
37	179.5183401107788	fix_post	2		12	35.0	2.5	blank	1.0	198.41938614845276	0.09999799728393555
38	179.61833810806274	fix_pre	0		119	36.0	2.5	/experiments/knapen_AOT/AOT_stimuli/rescaled_final/0624_rv.mp4	0.0	198.5193841457367	0.9918239116668701
38	180.60194611549377	pulse	0	t		36.0	2.5	/experiments/knapen_AOT/AOT_stimuli/rescaled_final/0624_rv.mp4	0.0	199.50299215316772	
38	180.61016201972961	movie	1		243	36.0	2.5	/experiments/knapen_AOT/AOT_stimuli/rescaled_final/0624_rv.mp4	0.0	199.51120805740356	2.5087039470672607
38	182.20268201828003	pulse	1	t		36.0	2.5	/experiments/knapen_AOT/AOT_stimuli/rescaled_final/0624_rv.mp4	0.0	201.10372805595398	
38	183.11886596679688	fix_post	2		12	36.0	2.5	/experiments/knapen_AOT/AOT_stimuli/rescaled_final/0624_rv.mp4	0.0	202.01991200447083	0.10004520416259766
39	183.21891117095947	fix_pre	0		120	37.0	2.5	/experiments/knapen_AOT/AOT_stimuli/rescaled_final/2150_fw.mp4	0.0	202.11995720863342	1.0002098083496094
39	183.80265307426453	pulse	0	t		37.0	2.5	/experiments/knapen_AOT/AOT_stimuli/rescaled_final/2150_fw.mp4	0.0	202.70369911193848	
39	184.21912097930908	movie	1		242	37.0	2.5	/experiments/knapen_AOT/AOT_stimuli/rescaled_final/2150_fw.mp4	0.0	203.12016701698303	2.500408172607422
39	185.40278697013855	pulse	1	t		37.0	2.5	/experiments/knapen_AOT/AOT_stimuli/rescaled_final/2150_fw.mp4	0.0	204.3038330078125	
39	186.7195291519165	fix_post	2		12	37.0	2.5	/experiments/knapen_AOT/AOT_stimuli/rescaled_final/2150_fw.mp4	0.0	205.62057518959045	0.09984183311462402
40	186.81937098503113	fix_pre	0		120	38.0	2.5	/experiments/knapen_AOT/AOT_stimuli/rescaled_final/1820_rv.mp4	0.0	205.72041702270508	1.0001730918884277
40	187.0028691291809	pulse	0	t		38.0	2.5	/experiments/knapen_AOT/AOT_stimuli/rescaled_final/1820_rv.mp4	0.0	205.90391516685486	
40	187.81954407691956	movie	1		243	38.0	2.5	/experiments/knapen_AOT/AOT_stimuli/rescaled_final/1820_rv.mp4	0.0	206.7205901145935	2.500504970550537
40	188.60332703590393	pulse	1	t		38.0	2.5	/experiments/knapen_AOT/AOT_stimuli/rescaled_final/1820_rv.mp4	0.0	207.50437307357788	
40	190.20340204238892	pulse	1	t		38.0	2.5	/experiments/knapen_AOT/AOT_stimuli/rescaled_final/1820_rv.mp4	0.0	209.10444808006287	
40	190.3200490474701	fix_post	2		12	38.0	2.5	/experiments/knapen_AOT/AOT_stimuli/rescaled_final/1820_rv.mp4	0.0	209.22109508514404	0.09993410110473633
41	190.41998314857483	fix_pre	0		119	39.0	2.5	/experiments/knapen_AOT/AOT_stimuli/rescaled_final/1605_rv.mp4	0.0	209.32102918624878	0.9917428493499756
41	191.4117259979248	movie	1		243	39.0	2.5	/experiments/knapen_AOT/AOT_stimuli/rescaled_final/1605_rv.mp4	0.0	210.31277203559875	2.5005300045013428
41	191.80373406410217	pulse	1	t		39.0	2.5	/experiments/knapen_AOT/AOT_stimuli/rescaled_final/1605_rv.mp4	0.0	210.70478010177612	
41	193.40388011932373	pulse	1	t		39.0	2.5	/experiments/knapen_AOT/AOT_stimuli/rescaled_final/1605_rv.mp4	0.0	212.30492615699768	
41	193.91225600242615	fix_post	2		12	39.0	2.5	/experiments/knapen_AOT/AOT_stimuli/rescaled_final/1605_rv.mp4	0.0	212.8133020401001	0.09997701644897461
42	194.01223301887512	fix_pre	0		120	40.0	2.5	blank	1.0	212.91327905654907	1.0000629425048828
42	195.0042381286621	pulse	0	t		40.0	2.5	blank	1.0	213.90528416633606	
42	195.01229596138	movie	1		301	40.0	2.5	blank	1.0	213.91334199905396	2.508761167526245
42	196.6044840812683	pulse	1	t		40.0	2.5	blank	1.0	215.50553011894226	
42	197.52105712890625	fix_post	2		12	40.0	2.5	blank	1.0	216.4221031665802	0.09999203681945801
43	197.6210491657257	fix_pre	0		120	41.0	2.5	/experiments/knapen_AOT/AOT_stimuli/rescaled_final/0329_rv.mp4	0.0	216.52209520339966	1.0002319812774658
43	198.20470213890076	pulse	0	t		41.0	2.5	/experiments/knapen_AOT/AOT_stimuli/rescaled_final/0329_rv.mp4	0.0	217.1057481765747	
43	198.62128114700317	movie	1		242	41.0	2.5	/experiments/knapen_AOT/AOT_stimuli/rescaled_final/0329_rv.mp4	0.0	217.52232718467712	2.500363826751709
43	199.804918050766	pulse	1	t		41.0	2.5	/experiments/knapen_AOT/AOT_stimuli/rescaled_final/0329_rv.mp4	0.0	218.70596408843994	
43	201.12164497375488	fix_post	2		12	41.0	2.5	/experiments/knapen_AOT/AOT_stimuli/rescaled_final/0329_rv.mp4	0.0	220.02269101142883	0.09993100166320801
44	201.2215759754181	fix_pre	0		120	42.0	2.5	/experiments/knapen_AOT/AOT_stimuli/rescaled_final/2073_rv.mp4	0.0	220.12262201309204	1.0001201629638672
44	201.4051070213318	pulse	0	t		42.0	2.5	/experiments/knapen_AOT/AOT_stimuli/rescaled_final/2073_rv.mp4	0.0	220.30615305900574	
44	202.22169613838196	movie	1		243	42.0	2.5	/experiments/knapen_AOT/AOT_stimuli/rescaled_final/2073_rv.mp4	0.0	221.1227421760559	2.500541925430298
44	203.00548911094666	pulse	1	t		42.0	2.5	/experiments/knapen_AOT/AOT_stimuli/rescaled_final/2073_rv.mp4	0.0	221.9065351486206	
44	204.605455160141	pulse	1	t		42.0	2.5	/experiments/knapen_AOT/AOT_stimuli/rescaled_final/2073_rv.mp4	0.0	223.50650119781494	
44	204.72223806381226	fix_post	2		12	42.0	2.5	/experiments/knapen_AOT/AOT_stimuli/rescaled_final/2073_rv.mp4	0.0	223.6232841014862	0.09992504119873047
45	204.822163105011	fix_pre	0		120	43.0	2.5	/experiments/knapen_AOT/AOT_stimuli/rescaled_final/0765_rv.mp4	0.0	223.72320914268494	1.0001399517059326
45	205.82230305671692	movie	1		244	43.0	2.5	/experiments/knapen_AOT/AOT_stimuli/rescaled_final/0765_rv.mp4	0.0	224.72334909439087	2.4920499324798584
45	206.20638394355774	pulse	1	t		43.0	2.5	/experiments/knapen_AOT/AOT_stimuli/rescaled_final/0765_rv.mp4	0.0	225.1074299812317	
45	207.8060131072998	pulse	1	t		43.0	2.5	/experiments/knapen_AOT/AOT_stimuli/rescaled_final/0765_rv.mp4	0.0	226.70705914497375	
45	208.31435298919678	fix_post	2		12	43.0	2.5	/experiments/knapen_AOT/AOT_stimuli/rescaled_final/0765_rv.mp4	0.0	227.21539902687073	0.1000051498413086
46	208.4143581390381	fix_pre	0		120	44.0	2.5	/experiments/knapen_AOT/AOT_stimuli/rescaled_final/2179_rv.mp4	0.0	227.31540417671204	1.0001180171966553
46	209.4063789844513	pulse	0	t		44.0	2.5	/experiments/knapen_AOT/AOT_stimuli/rescaled_final/2179_rv.mp4	0.0	228.30742502212524	
46	209.41447615623474	movie	1		243	44.0	2.5	/experiments/knapen_AOT/AOT_stimuli/rescaled_final/2179_rv.mp4	0.0	228.3155221939087	2.5087130069732666
46	211.007071018219	pulse	1	t		44.0	2.5	/experiments/knapen_AOT/AOT_stimuli/rescaled_final/2179_rv.mp4	0.0	229.90811705589294	
46	211.923189163208	fix_post	2		12	44.0	2.5	/experiments/knapen_AOT/AOT_stimuli/rescaled_final/2179_rv.mp4	0.0	230.82423520088196	0.10000801086425781
47	212.02319717407227	fix_pre	0		120	45.0	2.5	/experiments/knapen_AOT/AOT_stimuli/rescaled_final/1366_rv.mp4	0.0	230.92424321174622	1.0001208782196045
47	212.60676312446594	pulse	0	t		45.0	2.5	/experiments/knapen_AOT/AOT_stimuli/rescaled_final/1366_rv.mp4	0.0	231.5078091621399	
47	213.02331805229187	movie	1		244	45.0	2.5	/experiments/knapen_AOT/AOT_stimuli/rescaled_final/1366_rv.mp4	0.0	231.92436408996582	2.5003910064697266
47	214.20705914497375	pulse	1	t		45.0	2.5	/experiments/knapen_AOT/AOT_stimuli/rescaled_final/1366_rv.mp4	0.0	233.1081051826477	
47	215.5237090587616	fix_post	2		12	45.0	2.5	/experiments/knapen_AOT/AOT_stimuli/rescaled_final/1366_rv.mp4	0.0	234.42475509643555	0.09996795654296875
48	215.62367701530457	fix_pre	0		120	46.0	2.5	/experiments/knapen_AOT/AOT_stimuli/rescaled_final/0619_rv.mp4	0.0	234.52472305297852	1.0001599788665771
48	215.8072350025177	pulse	0	t		46.0	2.5	/experiments/knapen_AOT/AOT_stimuli/rescaled_final/0619_rv.mp4	0.0	234.70828104019165	
48	216.62383699417114	movie	1		242	46.0	2.5	/experiments/knapen_AOT/AOT_stimuli/rescaled_final/0619_rv.mp4	0.0	235.5248830318451	2.5005271434783936
48	217.40000700950623	pulse	1	t		46.0	2.5	/experiments/knapen_AOT/AOT_stimuli/rescaled_final/0619_rv.mp4	0.0	236.30105304718018	
48	219.00744700431824	pulse	1	t		46.0	2.5	/experiments/knapen_AOT/AOT_stimuli/rescaled_final/0619_rv.mp4	0.0	237.9084930419922	
48	219.12436413764954	fix_post	2		12	46.0	2.5	/experiments/knapen_AOT/AOT_stimuli/rescaled_final/0619_rv.mp4	0.0	238.0254101753235	0.09991598129272461
49	219.22428011894226	fix_pre	0		120	47.0	2.5	/experiments/knapen_AOT/AOT_stimuli/rescaled_final/1112_fw.mp4	0.0	238.1253261566162	1.0001399517059326
49	220.2244200706482	movie	1		241	47.0	2.5	/experiments/knapen_AOT/AOT_stimuli/rescaled_final/1112_fw.mp4	0.0	239.12546610832214	2.4920849800109863
49	220.6091079711914	pulse	1	t		47.0	2.5	/experiments/knapen_AOT/AOT_stimuli/rescaled_final/1112_fw.mp4	0.0	239.51015400886536	
49	222.20074200630188	pulse	1	t		47.0	2.5	/experiments/knapen_AOT/AOT_stimuli/rescaled_final/1112_fw.mp4	0.0	241.10178804397583	
49	222.71650505065918	fix_post	2		12	47.0	2.5	/experiments/knapen_AOT/AOT_stimuli/rescaled_final/1112_fw.mp4	0.0	241.61755108833313	0.10002493858337402
50	222.81652998924255	fix_pre	0		119	48.0	2.5	/experiments/knapen_AOT/AOT_stimuli/rescaled_final/1641_fw.mp4	0.0	241.7175760269165	0.9917480945587158
50	223.80006909370422	pulse	0	t		48.0	2.5	/experiments/knapen_AOT/AOT_stimuli/rescaled_final/1641_fw.mp4	0.0	242.70111513137817	
50	223.80827808380127	movie	1		238	48.0	2.5	/experiments/knapen_AOT/AOT_stimuli/rescaled_final/1641_fw.mp4	0.0	242.70932412147522	2.5087459087371826
50	225.4009611606598	pulse	1	t		48.0	2.5	/experiments/knapen_AOT/AOT_stimuli/rescaled_final/1641_fw.mp4	0.0	244.30200719833374	
50	226.31702399253845	fix_post	2		12	48.0	2.5	/experiments/knapen_AOT/AOT_stimuli/rescaled_final/1641_fw.mp4	0.0	245.2180700302124	0.10001707077026367
51	226.41704106330872	fix_pre	0		120	49.0	2.5	blank	1.0	245.31808710098267	1.0000989437103271
51	227.00058913230896	pulse	0	t		49.0	2.5	blank	1.0	245.9016351699829	
51	227.41714000701904	movie	1		300	49.0	2.5	blank	1.0	246.318186044693	2.5005321502685547
51	228.60078716278076	pulse	1	t		49.0	2.5	blank	1.0	247.5018332004547	
51	229.9176721572876	fix_post	2		12	49.0	2.5	blank	1.0	248.81871819496155	0.09996199607849121
52	230.0176341533661	fix_pre	0		120	50.0	2.5	/experiments/knapen_AOT/AOT_stimuli/rescaled_final/1877_rv.mp4	0.0	248.91868019104004	1.0000088214874268
52	230.20100212097168	pulse	0	t		50.0	2.5	/experiments/knapen_AOT/AOT_stimuli/rescaled_final/1877_rv.mp4	0.0	249.10204815864563	
52	231.01764297485352	movie	1		243	50.0	2.5	/experiments/knapen_AOT/AOT_stimuli/rescaled_final/1877_rv.mp4	0.0	249.91868901252747	2.500507116317749
52	231.80130195617676	pulse	1	t		50.0	2.5	/experiments/knapen_AOT/AOT_stimuli/rescaled_final/1877_rv.mp4	0.0	250.7023479938507	
52	233.4014630317688	pulse	1	t		50.0	2.5	/experiments/knapen_AOT/AOT_stimuli/rescaled_final/1877_rv.mp4	0.0	252.30250906944275	
52	233.51815009117126	fix_post	2		12	50.0	2.5	/experiments/knapen_AOT/AOT_stimuli/rescaled_final/1877_rv.mp4	0.0	252.41919612884521	0.09991002082824707
53	233.6180601119995	fix_pre	0		120	51.0	2.5	/experiments/knapen_AOT/AOT_stimuli/rescaled_final/1276_fw.mp4	0.0	252.51910614967346	1.0002379417419434
53	234.61829805374146	movie	1		242	51.0	2.5	/experiments/knapen_AOT/AOT_stimuli/rescaled_final/1276_fw.mp4	0.0	253.5193440914154	2.4919979572296143
53	235.00228309631348	pulse	1	t		51.0	2.5	/experiments/knapen_AOT/AOT_stimuli/rescaled_final/1276_fw.mp4	0.0	253.90332913398743	
53	236.60205101966858	pulse	1	t		51.0	2.5	/experiments/knapen_AOT/AOT_stimuli/rescaled_final/1276_fw.mp4	0.0	255.50309705734253	
53	237.11029601097107	fix_post	2		12	51.0	2.5	/experiments/knapen_AOT/AOT_stimuli/rescaled_final/1276_fw.mp4	0.0	256.011342048645	0.10001707077026367
54	237.21031308174133	fix_pre	0		120	52.0	2.5	/experiments/knapen_AOT/AOT_stimuli/rescaled_final/1751_rv.mp4	0.0	256.1113591194153	1.0001020431518555
54	238.20226216316223	pulse	0	t		52.0	2.5	/experiments/knapen_AOT/AOT_stimuli/rescaled_final/1751_rv.mp4	0.0	257.1033082008362	
54	238.2104151248932	movie	1		244	52.0	2.5	/experiments/knapen_AOT/AOT_stimuli/rescaled_final/1751_rv.mp4	0.0	257.11146116256714	2.508707046508789
54	239.8071210384369	pulse	1	t		52.0	2.5	/experiments/knapen_AOT/AOT_stimuli/rescaled_final/1751_rv.mp4	0.0	258.70816707611084	
54	240.71912217140198	fix_post	2		12	52.0	2.5	/experiments/knapen_AOT/AOT_stimuli/rescaled_final/1751_rv.mp4	0.0	259.6201682090759	0.10002279281616211
55	240.81914496421814	fix_pre	0		120	53.0	2.5	/experiments/knapen_AOT/AOT_stimuli/rescaled_final/1948_rv.mp4	0.0	259.7201910018921	1.000143051147461
55	241.40274810791016	pulse	0	t		53.0	2.5	/experiments/knapen_AOT/AOT_stimuli/rescaled_final/1948_rv.mp4	0.0	260.3037941455841	
55	241.8192880153656	movie	1		243	53.0	2.5	/experiments/knapen_AOT/AOT_stimuli/rescaled_final/1948_rv.mp4	0.0	260.72033405303955	2.5003950595855713
55	243.00303506851196	pulse	1	t		53.0	2.5	/experiments/knapen_AOT/AOT_stimuli/rescaled_final/1948_rv.mp4	0.0	261.9040811061859	
55	244.31968307495117	fix_post	2		12	53.0	2.5	/experiments/knapen_AOT/AOT_stimuli/rescaled_final/1948_rv.mp4	0.0	263.2207291126251	0.1000370979309082
56	244.41972017288208	fix_pre	0		120	54.0	2.5	blank	1.0	263.32076621055603	1.0000720024108887
56	244.6032521724701	pulse	0	t		54.0	2.5	blank	1.0	263.50429821014404	
56	245.41979217529297	movie	1		300	54.0	2.5	blank	1.0	264.3208382129669	2.5004220008850098
56	246.20348811149597	pulse	1	t		54.0	2.5	blank	1.0	265.1045341491699	
56	247.80370807647705	pulse	1	t		54.0	2.5	blank	1.0	266.704754114151	
56	247.92021417617798	fix_post	2		12	54.0	2.5	blank	1.0	266.82126021385193	0.09997892379760742
57	248.0201930999756	fix_pre	0		120	55.0	2.5	/experiments/knapen_AOT/AOT_stimuli/rescaled_final/0992_fw.mp4	0.0	266.92123913764954	1.0002059936523438
57	249.02039909362793	movie	1		242	55.0	2.5	/experiments/knapen_AOT/AOT_stimuli/rescaled_final/0992_fw.mp4	0.0	267.9214451313019	2.492020845413208
57	249.40438103675842	pulse	1	t		55.0	2.5	/experiments/knapen_AOT/AOT_stimuli/rescaled_final/0992_fw.mp4	0.0	268.3054270744324	
57	251.00429916381836	pulse	1	t		55.0	2.5	/experiments/knapen_AOT/AOT_stimuli/rescaled_final/0992_fw.mp4	0.0	269.9053452014923	
57	251.51241993904114	fix_post	2		12	55.0	2.5	/experiments/knapen_AOT/AOT_stimuli/rescaled_final/0992_fw.mp4	0.0	270.4134659767151	0.10003900527954102
58	251.61245894432068	fix_pre	0		120	56.0	2.5	/experiments/knapen_AOT/AOT_stimuli/rescaled_final/0354_fw.mp4	0.0	270.51350498199463	1.0000810623168945
58	252.60447907447815	pulse	0	t		56.0	2.5	/experiments/knapen_AOT/AOT_stimuli/rescaled_final/0354_fw.mp4	0.0	271.5055251121521	
58	252.61254000663757	movie	1		244	56.0	2.5	/experiments/knapen_AOT/AOT_stimuli/rescaled_final/0354_fw.mp4	0.0	271.5135860443115	2.508747100830078
58	254.20530104637146	pulse	1	t		56.0	2.5	/experiments/knapen_AOT/AOT_stimuli/rescaled_final/0354_fw.mp4	0.0	273.1063470840454	
58	255.12128710746765	fix_post	2		12	56.0	2.5	/experiments/knapen_AOT/AOT_stimuli/rescaled_final/0354_fw.mp4	0.0	274.0223331451416	0.0999610424041748
59	255.22124814987183	fix_pre	0		120	57.0	2.5	/experiments/knapen_AOT/AOT_stimuli/rescaled_final/2078_rv.mp4	0.0	274.1222941875458	1.0001788139343262
59	255.80488395690918	pulse	0	t		57.0	2.5	/experiments/knapen_AOT/AOT_stimuli/rescaled_final/2078_rv.mp4	0.0	274.70592999458313	
59	256.22142696380615	movie	1		242	57.0	2.5	/experiments/knapen_AOT/AOT_stimuli/rescaled_final/2078_rv.mp4	0.0	275.1224730014801	2.500418186187744
59	257.4013180732727	pulse	1	t		57.0	2.5	/experiments/knapen_AOT/AOT_stimuli/rescaled_final/2078_rv.mp4	0.0	276.30236411094666	
59	258.7218451499939	fix_post	2		12	57.0	2.5	/experiments/knapen_AOT/AOT_stimuli/rescaled_final/2078_rv.mp4	0.0	277.62289118766785	0.10013294219970703
60	258.8219780921936	fix_pre	0		120	58.0	2.5	/experiments/knapen_AOT/AOT_stimuli/rescaled_final/0476_rv.mp4	0.0	277.72302412986755	0.9999818801879883
60	259.00549507141113	pulse	0	t		58.0	2.5	/experiments/knapen_AOT/AOT_stimuli/rescaled_final/0476_rv.mp4	0.0	277.9065411090851	
60	259.8219599723816	movie	1		244	58.0	2.5	/experiments/knapen_AOT/AOT_stimuli/rescaled_final/0476_rv.mp4	0.0	278.72300601005554	2.500411033630371
60	260.6055681705475	pulse	1	t		58.0	2.5	/experiments/knapen_AOT/AOT_stimuli/rescaled_final/0476_rv.mp4	0.0	279.50661420822144	
60	262.2057671546936	pulse	1	t		58.0	2.5	/experiments/knapen_AOT/AOT_stimuli/rescaled_final/0476_rv.mp4	0.0	281.10681319236755	
60	262.32237100601196	fix_post	2		12	58.0	2.5	/experiments/knapen_AOT/AOT_stimuli/rescaled_final/0476_rv.mp4	0.0	281.2234170436859	0.09998512268066406
61	262.4223561286926	fix_pre	0		120	59.0	2.5	/experiments/knapen_AOT/AOT_stimuli/rescaled_final/1877_fw.mp4	0.0	281.3234021663666	1.0001578330993652
61	263.422513961792	movie	1		243	59.0	2.5	/experiments/knapen_AOT/AOT_stimuli/rescaled_final/1877_fw.mp4	0.0	282.32355999946594	2.4920341968536377
61	263.8066511154175	pulse	1	t		59.0	2.5	/experiments/knapen_AOT/AOT_stimuli/rescaled_final/1877_fw.mp4	0.0	282.70769715309143	
61	265.4063880443573	pulse	1	t		59.0	2.5	/experiments/knapen_AOT/AOT_stimuli/rescaled_final/1877_fw.mp4	0.0	284.30743408203125	
61	265.91454815864563	fix_post	2		12	59.0	2.5	/experiments/knapen_AOT/AOT_stimuli/rescaled_final/1877_fw.mp4	0.0	284.8155941963196	0.10003995895385742
62	266.0145881175995	fix_pre	0		120	60.0	2.5	/experiments/knapen_AOT/AOT_stimuli/rescaled_final/0091_fw.mp4	0.0	284.91563415527344	1.0000920295715332
62	267.0065281391144	pulse	0	t		60.0	2.5	/experiments/knapen_AOT/AOT_stimuli/rescaled_final/0091_fw.mp4	0.0	285.90757417678833	
62	267.014680147171	movie	1		247	60.0	2.5	/experiments/knapen_AOT/AOT_stimuli/rescaled_final/0091_fw.mp4	0.0	285.91572618484497	2.5087778568267822
62	268.6072270870209	pulse	1	t		60.0	2.5	/experiments/knapen_AOT/AOT_stimuli/rescaled_final/0091_fw.mp4	0.0	287.5082731246948	
62	269.5234580039978	fix_post	2		12	60.0	2.5	/experiments/knapen_AOT/AOT_stimuli/rescaled_final/0091_fw.mp4	0.0	288.42450404167175	0.10000896453857422
63	269.6234669685364	fix_pre	0		120	61.0	2.5	blank	1.0	288.5245130062103	1.0001051425933838
63	270.20707297325134	pulse	0	t		61.0	2.5	blank	1.0	289.1081190109253	
63	270.62357211112976	movie	1		300	61.0	2.5	blank	1.0	289.5246181488037	2.500424861907959
63	271.8073699474335	pulse	1	t		61.0	2.5	blank	1.0	290.7084159851074	
63	273.1239969730377	fix_post	2		12	61.0	2.5	blank	1.0	292.02504301071167	0.10014009475708008
64	273.2241370677948	fix_pre	0		120	62.0	2.5	/experiments/knapen_AOT/AOT_stimuli/rescaled_final/1803_fw.mp4	0.0	292.12518310546875	1.0000169277191162
64	273.4075930118561	pulse	0	t		62.0	2.5	/experiments/knapen_AOT/AOT_stimuli/rescaled_final/1803_fw.mp4	0.0	292.30863904953003	
64	274.2241539955139	movie	1		242	62.0	2.5	/experiments/knapen_AOT/AOT_stimuli/rescaled_final/1803_fw.mp4	0.0	293.12520003318787	2.5004379749298096
64	275.0077610015869	pulse	1	t		62.0	2.5	/experiments/knapen_AOT/AOT_stimuli/rescaled_final/1803_fw.mp4	0.0	293.90880703926086	
64	276.607803106308	pulse	1	t		62.0	2.5	/experiments/knapen_AOT/AOT_stimuli/rescaled_final/1803_fw.mp4	0.0	295.50884914398193	
64	276.7245919704437	fix_post	2		12	62.0	2.5	/experiments/knapen_AOT/AOT_stimuli/rescaled_final/1803_fw.mp4	0.0	295.6256380081177	0.09991717338562012
65	276.82450914382935	fix_pre	0		119	63.0	2.5	/experiments/knapen_AOT/AOT_stimuli/rescaled_final/0478_rv.mp4	0.0	295.7255551815033	0.9918568134307861
65	277.81636595726013	movie	1		243	63.0	2.5	/experiments/knapen_AOT/AOT_stimuli/rescaled_final/0478_rv.mp4	0.0	296.7174119949341	2.5003340244293213
65	278.20839405059814	pulse	1	t		63.0	2.5	/experiments/knapen_AOT/AOT_stimuli/rescaled_final/0478_rv.mp4	0.0	297.1094400882721	
65	279.80105209350586	pulse	1	t		63.0	2.5	/experiments/knapen_AOT/AOT_stimuli/rescaled_final/0478_rv.mp4	0.0	298.7020981311798	
65	280.31669998168945	fix_post	2		12	63.0	2.5	/experiments/knapen_AOT/AOT_stimuli/rescaled_final/0478_rv.mp4	0.0	299.2177460193634	0.0999760627746582
66	280.4166760444641	fix_pre	0		120	64.0	2.5	/experiments/knapen_AOT/AOT_stimuli/rescaled_final/0350_fw.mp4	0.0	299.31772208213806	1.0002861022949219
66	281.40114402770996	pulse	0	t		64.0	2.5	/experiments/knapen_AOT/AOT_stimuli/rescaled_final/0350_fw.mp4	0.0	300.3021900653839	
66	281.41696214675903	movie	1		243	64.0	2.5	/experiments/knapen_AOT/AOT_stimuli/rescaled_final/0350_fw.mp4	0.0	300.318008184433	2.508591890335083
66	283.01325702667236	pulse	1	t		64.0	2.5	/experiments/knapen_AOT/AOT_stimuli/rescaled_final/0350_fw.mp4	0.0	301.9143030643463	
66	283.9255540370941	fix_post	2		12	64.0	2.5	/experiments/knapen_AOT/AOT_stimuli/rescaled_final/0350_fw.mp4	0.0	302.82660007476807	0.10001802444458008
67	284.0255720615387	fix_pre	0		120	65.0	2.5	/experiments/knapen_AOT/AOT_stimuli/rescaled_final/1176_rv.mp4	0.0	302.92661809921265	1.0001530647277832
67	284.60083508491516	pulse	0	t		65.0	2.5	/experiments/knapen_AOT/AOT_stimuli/rescaled_final/1176_rv.mp4	0.0	303.5018811225891	
67	285.0257251262665	movie	1		242	65.0	2.5	/experiments/knapen_AOT/AOT_stimuli/rescaled_final/1176_rv.mp4	0.0	303.92677116394043	2.515328884124756
67	286.2013671398163	pulse	1	t		65.0	2.5	/experiments/knapen_AOT/AOT_stimuli/rescaled_final/1176_rv.mp4	0.0	305.10241317749023	
67	287.54105401039124	fix_post	2		10	65.0	2.5	/experiments/knapen_AOT/AOT_stimuli/rescaled_final/1176_rv.mp4	0.0	306.4421000480652	0.08511900901794434
68	287.6261730194092	fix_pre	0		120	66.0	2.5	/experiments/knapen_AOT/AOT_stimuli/rescaled_final/0443_fw.mp4	0.0	306.52721905708313	1.0001220703125
68	287.8014521598816	pulse	0	t		66.0	2.5	/experiments/knapen_AOT/AOT_stimuli/rescaled_final/0443_fw.mp4	0.0	306.70249819755554	
68	288.6262950897217	movie	1		244	66.0	2.5	/experiments/knapen_AOT/AOT_stimuli/rescaled_final/0443_fw.mp4	0.0	307.52734112739563	2.5003459453582764
68	289.40171098709106	pulse	1	t		66.0	2.5	/experiments/knapen_AOT/AOT_stimuli/rescaled_final/0443_fw.mp4	0.0	308.302757024765	
68	291.0017900466919	pulse	1	t		66.0	2.5	/experiments/knapen_AOT/AOT_stimuli/rescaled_final/0443_fw.mp4	0.0	309.90283608436584	
68	291.12664103507996	fix_post	2		12	66.0	2.5	/experiments/knapen_AOT/AOT_stimuli/rescaled_final/0443_fw.mp4	0.0	310.0276870727539	0.10001707077026367
69	291.2266581058502	fix_pre	0		119	67.0	2.5	/experiments/knapen_AOT/AOT_stimuli/rescaled_final/1514_fw.mp4	0.0	310.12770414352417	0.9918429851531982
69	292.2185010910034	movie	1		242	67.0	2.5	/experiments/knapen_AOT/AOT_stimuli/rescaled_final/1514_fw.mp4	0.0	311.11954712867737	2.500385046005249
69	292.60339307785034	pulse	1	t		67.0	2.5	/experiments/knapen_AOT/AOT_stimuli/rescaled_final/1514_fw.mp4	0.0	311.5044391155243	
69	294.2022840976715	pulse	1	t		67.0	2.5	/experiments/knapen_AOT/AOT_stimuli/rescaled_final/1514_fw.mp4	0.0	313.10333013534546	
69	294.71888613700867	fix_post	2		12	67.0	2.5	/experiments/knapen_AOT/AOT_stimuli/rescaled_final/1514_fw.mp4	0.0	313.6199321746826	0.0999898910522461
70	294.8188760280609	fix_pre	0		119	68.0	2.5	blank	1.0	313.71992206573486	0.9917819499969482
70	295.8026170730591	pulse	0	t		68.0	2.5	blank	1.0	314.70366311073303	
70	295.81065797805786	movie	1		301	68.0	2.5	blank	1.0	314.7117040157318	2.5087811946868896
70	297.40276408195496	pulse	1	t		68.0	2.5	blank	1.0	316.3038101196289	
70	298.31943917274475	fix_post	2		12	68.0	2.5	blank	1.0	317.2204852104187	0.0999748706817627
71	298.4194140434265	fix_pre	0		120	69.0	2.5	/experiments/knapen_AOT/AOT_stimuli/rescaled_final/1036_rv.mp4	0.0	317.32046008110046	1.0001380443572998
71	299.00294494628906	pulse	0	t		69.0	2.5	/experiments/knapen_AOT/AOT_stimuli/rescaled_final/1036_rv.mp4	0.0	317.903990983963	
71	299.4195520877838	movie	1		242	69.0	2.5	/experiments/knapen_AOT/AOT_stimuli/rescaled_final/1036_rv.mp4	0.0	318.32059812545776	2.5004849433898926
71	300.6034519672394	pulse	1	t		69.0	2.5	/experiments/knapen_AOT/AOT_stimuli/rescaled_final/1036_rv.mp4	0.0	319.50449800491333	
71	301.9200370311737	fix_post	2		12	69.0	2.5	/experiments/knapen_AOT/AOT_stimuli/rescaled_final/1036_rv.mp4	0.0	320.82108306884766	0.0999751091003418
72	302.02001214027405	fix_pre	0		120	70.0	2.5	/experiments/knapen_AOT/AOT_stimuli/rescaled_final/0199_fw.mp4	0.0	320.921058177948	1.0001158714294434
72	302.2034900188446	pulse	0	t		70.0	2.5	/experiments/knapen_AOT/AOT_stimuli/rescaled_final/0199_fw.mp4	0.0	321.10453605651855	
72	303.0201280117035	movie	1		243	70.0	2.5	/experiments/knapen_AOT/AOT_stimuli/rescaled_final/0199_fw.mp4	0.0	321.92117404937744	2.5004260540008545
72	303.80377101898193	pulse	1	t		70.0	2.5	/experiments/knapen_AOT/AOT_stimuli/rescaled_final/0199_fw.mp4	0.0	322.7048170566559	
72	305.403795003891	pulse	1	t		70.0	2.5	/experiments/knapen_AOT/AOT_stimuli/rescaled_final/0199_fw.mp4	0.0	324.30484104156494	
72	305.52055406570435	fix_post	2		12	70.0	2.5	/experiments/knapen_AOT/AOT_stimuli/rescaled_final/0199_fw.mp4	0.0	324.4216001033783	0.09996199607849121
73	305.62051606178284	fix_pre	0		120	71.0	2.5	/experiments/knapen_AOT/AOT_stimuli/rescaled_final/1305_rv.mp4	0.0	324.5215620994568	1.0000920295715332
73	306.62060809135437	movie	1		242	71.0	2.5	/experiments/knapen_AOT/AOT_stimuli/rescaled_final/1305_rv.mp4	0.0	325.5216541290283	2.4920339584350586
73	307.0045850276947	pulse	1	t		71.0	2.5	/experiments/knapen_AOT/AOT_stimuli/rescaled_final/1305_rv.mp4	0.0	325.90563106536865	
73	308.60455298423767	pulse	1	t		71.0	2.5	/experiments/knapen_AOT/AOT_stimuli/rescaled_final/1305_rv.mp4	0.0	327.5055990219116	
73	309.11264204978943	fix_post	2		12	71.0	2.5	/experiments/knapen_AOT/AOT_stimuli/rescaled_final/1305_rv.mp4	0.0	328.0136880874634	0.10003089904785156
74	309.2126729488373	fix_pre	0		120	72.0	2.5	/experiments/knapen_AOT/AOT_stimuli/rescaled_final/0906_fw.mp4	0.0	328.11371898651123	1.000124216079712
74	310.20477509498596	pulse	0	t		72.0	2.5	/experiments/knapen_AOT/AOT_stimuli/rescaled_final/0906_fw.mp4	0.0	329.1058211326599	
74	310.212797164917	movie	1		246	72.0	2.5	/experiments/knapen_AOT/AOT_stimuli/rescaled_final/0906_fw.mp4	0.0	329.11384320259094	2.5087778568267822
74	311.80613017082214	pulse	1	t		72.0	2.5	/experiments/knapen_AOT/AOT_stimuli/rescaled_final/0906_fw.mp4	0.0	330.7071762084961	
74	312.7215750217438	fix_post	2		12	72.0	2.5	/experiments/knapen_AOT/AOT_stimuli/rescaled_final/0906_fw.mp4	0.0	331.6226210594177	0.0999910831451416
75	312.8215661048889	fix_pre	0		120	73.0	2.5	/experiments/knapen_AOT/AOT_stimuli/rescaled_final/1514_rv.mp4	0.0	331.72261214256287	1.000119924545288
75	313.4051420688629	pulse	0	t		73.0	2.5	/experiments/knapen_AOT/AOT_stimuli/rescaled_final/1514_rv.mp4	0.0	332.30618810653687	
75	313.8216860294342	movie	1		243	73.0	2.5	/experiments/knapen_AOT/AOT_stimuli/rescaled_final/1514_rv.mp4	0.0	332.72273206710815	2.50040602684021
75	315.00548815727234	pulse	1	t		73.0	2.5	/experiments/knapen_AOT/AOT_stimuli/rescaled_final/1514_rv.mp4	0.0	333.9065341949463	
75	316.3220920562744	fix_post	2		12	73.0	2.5	/experiments/knapen_AOT/AOT_stimuli/rescaled_final/1514_rv.mp4	0.0	335.22313809394836	0.10003399848937988
76	316.4221260547638	fix_pre	0		120	74.0	2.5	/experiments/knapen_AOT/AOT_stimuli/rescaled_final/0543_fw.mp4	0.0	335.32317209243774	1.0001590251922607
76	316.60576009750366	pulse	0	t		74.0	2.5	/experiments/knapen_AOT/AOT_stimuli/rescaled_final/0543_fw.mp4	0.0	335.5068061351776	
76	317.42228507995605	movie	1		243	74.0	2.5	/experiments/knapen_AOT/AOT_stimuli/rescaled_final/0543_fw.mp4	0.0	336.32333111763	2.500403881072998
76	318.2058551311493	pulse	1	t		74.0	2.5	/experiments/knapen_AOT/AOT_stimuli/rescaled_final/0543_fw.mp4	0.0	337.10690116882324	
76	319.80594205856323	pulse	1	t		74.0	2.5	/experiments/knapen_AOT/AOT_stimuli/rescaled_final/0543_fw.mp4	0.0	338.7069880962372	
76	319.92268896102905	fix_post	2		12	74.0	2.5	/experiments/knapen_AOT/AOT_stimuli/rescaled_final/0543_fw.mp4	0.0	338.823734998703	0.09998011589050293
77	320.02266907691956	fix_pre	0		120	75.0	2.5	/experiments/knapen_AOT/AOT_stimuli/rescaled_final/1745_fw.mp4	0.0	338.9237151145935	1.0001580715179443
77	321.0228271484375	movie	1		241	75.0	2.5	/experiments/knapen_AOT/AOT_stimuli/rescaled_final/1745_fw.mp4	0.0	339.92387318611145	2.4921460151672363
77	321.4070110321045	pulse	1	t		75.0	2.5	/experiments/knapen_AOT/AOT_stimuli/rescaled_final/1745_fw.mp4	0.0	340.30805706977844	
77	323.0067720413208	pulse	1	t		75.0	2.5	/experiments/knapen_AOT/AOT_stimuli/rescaled_final/1745_fw.mp4	0.0	341.90781807899475	
77	323.51497316360474	fix_post	2		12	75.0	2.5	/experiments/knapen_AOT/AOT_stimuli/rescaled_final/1745_fw.mp4	0.0	342.4160192012787	0.09988188743591309
78	323.61485505104065	fix_pre	0		120	76.0	2.5	blank	1.0	342.5159010887146	1.0001840591430664
78	324.6068251132965	pulse	0	t		76.0	2.5	blank	1.0	343.50787115097046	
78	324.6150391101837	movie	1		301	76.0	2.5	blank	1.0	343.51608514785767	2.5086679458618164
78	326.20709013938904	pulse	1	t		76.0	2.5	blank	1.0	345.108136177063	
78	327.12370705604553	fix_post	2		12	76.0	2.5	blank	1.0	346.0247530937195	0.0999751091003418
79	327.2236821651459	fix_pre	0		120	77.0	2.5	/experiments/knapen_AOT/AOT_stimuli/rescaled_final/1153_fw.mp4	0.0	346.1247282028198	1.0002188682556152
79	327.8073501586914	pulse	0	t		77.0	2.5	/experiments/knapen_AOT/AOT_stimuli/rescaled_final/1153_fw.mp4	0.0	346.70839619636536	
79	328.2239010334015	movie	1		243	77.0	2.5	/experiments/knapen_AOT/AOT_stimuli/rescaled_final/1153_fw.mp4	0.0	347.12494707107544	2.500417947769165
79	329.407634973526	pulse	1	t		77.0	2.5	/experiments/knapen_AOT/AOT_stimuli/rescaled_final/1153_fw.mp4	0.0	348.30868101119995	
79	330.72431898117065	fix_post	2		12	77.0	2.5	/experiments/knapen_AOT/AOT_stimuli/rescaled_final/1153_fw.mp4	0.0	349.6253650188446	0.09991908073425293
80	330.8242380619049	fix_pre	0		120	78.0	2.5	/experiments/knapen_AOT/AOT_stimuli/rescaled_final/0495_fw.mp4	0.0	349.72528409957886	1.0001399517059326
80	331.0002110004425	pulse	0	t		78.0	2.5	/experiments/knapen_AOT/AOT_stimuli/rescaled_final/0495_fw.mp4	0.0	349.90125703811646	
80	331.82437801361084	movie	1		244	78.0	2.5	/experiments/knapen_AOT/AOT_stimuli/rescaled_final/0495_fw.mp4	0.0	350.7254240512848	2.5003530979156494
80	332.60048604011536	pulse	1	t		78.0	2.5	/experiments/knapen_AOT/AOT_stimuli/rescaled_final/0495_fw.mp4	0.0	351.5015320777893	
80	334.21090602874756	pulse	1	t		78.0	2.5	/experiments/knapen_AOT/AOT_stimuli/rescaled_final/0495_fw.mp4	0.0	353.1119520664215	
80	334.3247311115265	fix_post	2		12	78.0	2.5	/experiments/knapen_AOT/AOT_stimuli/rescaled_final/0495_fw.mp4	0.0	353.22577714920044	0.10005784034729004
81	334.4247889518738	fix_pre	0		120	79.0	2.5	/experiments/knapen_AOT/AOT_stimuli/rescaled_final/0906_fw.mp4	0.0	353.32583498954773	1.0001890659332275
81	335.424978017807	movie	1		244	79.0	2.5	/experiments/knapen_AOT/AOT_stimuli/rescaled_final/0906_fw.mp4	0.0	354.32602405548096	2.492033004760742
81	335.80892515182495	pulse	1	t		79.0	2.5	/experiments/knapen_AOT/AOT_stimuli/rescaled_final/0906_fw.mp4	0.0	354.7099711894989	
81	337.40054297447205	pulse	1	t		79.0	2.5	/experiments/knapen_AOT/AOT_stimuli/rescaled_final/0906_fw.mp4	0.0	356.301589012146	
81	337.91701102256775	fix_post	2		12	79.0	2.5	/experiments/knapen_AOT/AOT_stimuli/rescaled_final/0906_fw.mp4	0.0	356.8180570602417	0.10001111030578613
82	338.01702213287354	fix_pre	0		119	80.0	2.5	/experiments/knapen_AOT/AOT_stimuli/rescaled_final/1001_fw.mp4	0.0	356.9180681705475	0.9917628765106201
82	339.00060296058655	pulse	0	t		80.0	2.5	/experiments/knapen_AOT/AOT_stimuli/rescaled_final/1001_fw.mp4	0.0	357.9016489982605	
82	339.00878500938416	movie	1		243	80.0	2.5	/experiments/knapen_AOT/AOT_stimuli/rescaled_final/1001_fw.mp4	0.0	357.9098310470581	2.50885009765625
82	340.60217094421387	pulse	1	t		80.0	2.5	/experiments/knapen_AOT/AOT_stimuli/rescaled_final/1001_fw.mp4	0.0	359.5032169818878	
82	341.5176351070404	fix_post	2		12	80.0	2.5	/experiments/knapen_AOT/AOT_stimuli/rescaled_final/1001_fw.mp4	0.0	360.41868114471436	0.0999300479888916
83	341.6175651550293	fix_pre	0		120	81.0	2.5	/experiments/knapen_AOT/AOT_stimuli/rescaled_final/1605_rv.mp4	0.0	360.51861119270325	1.0000908374786377
83	342.2012300491333	pulse	0	t		81.0	2.5	/experiments/knapen_AOT/AOT_stimuli/rescaled_final/1605_rv.mp4	0.0	361.10227608680725	
83	342.61765599250793	movie	1		243	81.0	2.5	/experiments/knapen_AOT/AOT_stimuli/rescaled_final/1605_rv.mp4	0.0	361.5187020301819	2.5004329681396484
83	343.8014440536499	pulse	1	t		81.0	2.5	/experiments/knapen_AOT/AOT_stimuli/rescaled_final/1605_rv.mp4	0.0	362.70249009132385	
83	345.1180889606476	fix_post	2		12	81.0	2.5	/experiments/knapen_AOT/AOT_stimuli/rescaled_final/1605_rv.mp4	0.0	364.01913499832153	0.10002017021179199
84	345.2181091308594	fix_pre	0		120	82.0	2.5	/experiments/knapen_AOT/AOT_stimuli/rescaled_final/1233_fw.mp4	0.0	364.1191551685333	1.0001249313354492
84	345.4015779495239	pulse	0	t		82.0	2.5	/experiments/knapen_AOT/AOT_stimuli/rescaled_final/1233_fw.mp4	0.0	364.3026239871979	
84	346.2182340621948	movie	1		242	82.0	2.5	/experiments/knapen_AOT/AOT_stimuli/rescaled_final/1233_fw.mp4	0.0	365.1192800998688	2.5004189014434814
84	347.0017640590668	pulse	1	t		82.0	2.5	/experiments/knapen_AOT/AOT_stimuli/rescaled_final/1233_fw.mp4	0.0	365.9028100967407	
84	348.6021270751953	pulse	1	t		82.0	2.5	/experiments/knapen_AOT/AOT_stimuli/rescaled_final/1233_fw.mp4	0.0	367.50317311286926	
84	348.7186529636383	fix_post	2		12	82.0	2.5	/experiments/knapen_AOT/AOT_stimuli/rescaled_final/1233_fw.mp4	0.0	367.61969900131226	0.09998703002929688
85	348.8186399936676	fix_pre	0		120	83.0	2.5	blank	1.0	367.71968603134155	1.0001070499420166
85	349.8187470436096	movie	1		299	83.0	2.5	blank	1.0	368.71979308128357	2.4920759201049805
85	350.2023940086365	pulse	1	t		83.0	2.5	blank	1.0	369.1034400463104	
85	351.8025200366974	pulse	1	t		83.0	2.5	blank	1.0	370.70356607437134	
85	352.3108229637146	fix_post	2		12	83.0	2.5	blank	1.0	371.21186900138855	0.1000511646270752
87	352.4108741283417	stim	0		1716					371.3119201660156	14.302132844924927
87	353.40277910232544	pulse	0	t						372.3038251399994	
87	355.00305700302124	pulse	0	t						373.9041030406952	
87	356.6032819747925	pulse	0	t						375.50432801246643	
87	358.2035231590271	pulse	0	t						377.10456919670105	
87	359.8037221431732	pulse	0	t						378.70476818084717	
87	361.40400409698486	pulse	0	t						380.3050501346588	
87	363.00425815582275	pulse	0	t						381.9053041934967	
87	364.6045560836792	pulse	0	t						383.50560212135315	
87	366.20472502708435	pulse	0	t						385.1057710647583	
