trial_nr	onset	event_type	phase	response	nr_frames	movie_index	movie_duration	movie_file	blank	onset_abs	duration
0	0.15085911750793457	stim	0		146					21.38554310798645	1.216352939605713
0	1.3591680526733398	response	0	space						22.593852043151855	
1	1.3672120571136475	stim	0		12481					22.601896047592163	104.00750803947449
1	105.3642909526825	pulse	0	t						126.59897494316101	
1	105.37472009658813	stim	1		1717					126.60940408706665	14.308255910873413
1	106.96655011177063	pulse	1	t						128.20123410224915	
1	108.55902409553528	pulse	1	t						129.7937080860138	
1	110.16654109954834	pulse	1	t						131.40122509002686	
1	111.76618695259094	pulse	1	t						133.00087094306946	
1	113.36678099632263	pulse	1	t						134.60146498680115	
1	114.9664831161499	pulse	1	t						136.20116710662842	
1	116.56653189659119	pulse	1	t						137.8012158870697	
1	118.16647291183472	pulse	1	t						139.40115690231323	
2	119.68297600746155	fix_pre	0		11	0.0	2.5	/experiments/AOT/AOT_stimuli/rescaled_final/0554_rv.mp4	0.0	140.91765999794006	0.09166598320007324
2	119.76643490791321	pulse	0	t		0.0	2.5	/experiments/AOT/AOT_stimuli/rescaled_final/0554_rv.mp4	0.0	141.00111889839172	
2	119.77464199066162	movie	1		243	0.0	2.5	/experiments/AOT/AOT_stimuli/rescaled_final/0554_rv.mp4	0.0	141.00932598114014	2.508307933807373
2	121.36746406555176	pulse	1	t		0.0	2.5	/experiments/AOT/AOT_stimuli/rescaled_final/0554_rv.mp4	0.0	142.60214805603027	
2	122.282949924469	fix_post	2		12	0.0	2.5	/experiments/AOT/AOT_stimuli/rescaled_final/0554_rv.mp4	0.0	143.5176339149475	0.10001516342163086
3	122.38296508789062	fix_pre	0		120	1.0	2.5	/experiments/AOT/AOT_stimuli/rescaled_final/1497_rv.mp4	0.0	143.61764907836914	0.9999668598175049
3	122.95906400680542	pulse	0	t		1.0	2.5	/experiments/AOT/AOT_stimuli/rescaled_final/1497_rv.mp4	0.0	144.19374799728394	
3	123.38293194770813	movie	1		244	1.0	2.5	/experiments/AOT/AOT_stimuli/rescaled_final/1497_rv.mp4	0.0	144.61761593818665	2.500040054321289
3	124.56651997566223	pulse	1	t		1.0	2.5	/experiments/AOT/AOT_stimuli/rescaled_final/1497_rv.mp4	0.0	145.80120396614075	
3	125.88297200202942	fix_post	2		12	1.0	2.5	/experiments/AOT/AOT_stimuli/rescaled_final/1497_rv.mp4	0.0	147.11765599250793	0.09996604919433594
4	125.98293805122375	fix_pre	0		120	2.0	2.5	/experiments/AOT/AOT_stimuli/rescaled_final/1845_fw.mp4	0.0	147.21762204170227	1.0000929832458496
4	126.16643810272217	pulse	0	t		2.0	2.5	/experiments/AOT/AOT_stimuli/rescaled_final/1845_fw.mp4	0.0	147.40112209320068	
4	126.9830310344696	movie	1		243	2.0	2.5	/experiments/AOT/AOT_stimuli/rescaled_final/1845_fw.mp4	0.0	148.21771502494812	2.4998769760131836
4	127.76641798019409	pulse	1	t		2.0	2.5	/experiments/AOT/AOT_stimuli/rescaled_final/1845_fw.mp4	0.0	149.0011019706726	
4	129.36481499671936	pulse	1	t		2.0	2.5	/experiments/AOT/AOT_stimuli/rescaled_final/1845_fw.mp4	0.0	150.59949898719788	
4	129.4829080104828	fix_post	2		12	2.0	2.5	/experiments/AOT/AOT_stimuli/rescaled_final/1845_fw.mp4	0.0	150.7175920009613	0.10004305839538574
5	129.58295106887817	fix_pre	0		120	3.0	2.5	/experiments/AOT/AOT_stimuli/rescaled_final/1753_fw.mp4	0.0	150.8176350593567	1.000035047531128
5	130.5829861164093	movie	1		243	3.0	2.5	/experiments/AOT/AOT_stimuli/rescaled_final/1753_fw.mp4	0.0	151.81767010688782	2.5000548362731934
5	130.9673409461975	pulse	1	t		3.0	2.5	/experiments/AOT/AOT_stimuli/rescaled_final/1753_fw.mp4	0.0	152.20202493667603	
5	132.5664939880371	pulse	1	t		3.0	2.5	/experiments/AOT/AOT_stimuli/rescaled_final/1753_fw.mp4	0.0	153.80117797851562	
5	133.0830409526825	fix_post	2		12	3.0	2.5	/experiments/AOT/AOT_stimuli/rescaled_final/1753_fw.mp4	0.0	154.317724943161	0.09987211227416992
6	133.18291306495667	fix_pre	0		119	4.0	2.5	/experiments/AOT/AOT_stimuli/rescaled_final/1120_fw.mp4	0.0	154.41759705543518	0.991724967956543
6	134.16655492782593	pulse	0	t		4.0	2.5	/experiments/AOT/AOT_stimuli/rescaled_final/1120_fw.mp4	0.0	155.40123891830444	
6	134.1746380329132	movie	1		244	4.0	2.5	/experiments/AOT/AOT_stimuli/rescaled_final/1120_fw.mp4	0.0	155.40932202339172	2.50833797454834
6	135.7668731212616	pulse	1	t		4.0	2.5	/experiments/AOT/AOT_stimuli/rescaled_final/1120_fw.mp4	0.0	157.0015571117401	
6	136.68297600746155	fix_post	2		12	4.0	2.5	/experiments/AOT/AOT_stimuli/rescaled_final/1120_fw.mp4	0.0	157.91765999794006	0.09998202323913574
7	136.78295803070068	fix_pre	0		120	5.0	2.5	/experiments/AOT/AOT_stimuli/rescaled_final/1120_rv.mp4	0.0	158.0176420211792	0.9999949932098389
7	137.3664939403534	pulse	0	t		5.0	2.5	/experiments/AOT/AOT_stimuli/rescaled_final/1120_rv.mp4	0.0	158.6011779308319	
7	137.78295302391052	movie	1		244	5.0	2.5	/experiments/AOT/AOT_stimuli/rescaled_final/1120_rv.mp4	0.0	159.01763701438904	2.499958038330078
7	138.96647906303406	pulse	1	t		5.0	2.5	/experiments/AOT/AOT_stimuli/rescaled_final/1120_rv.mp4	0.0	160.20116305351257	
7	140.2829110622406	fix_post	2		12	5.0	2.5	/experiments/AOT/AOT_stimuli/rescaled_final/1120_rv.mp4	0.0	161.51759505271912	0.09995198249816895
8	140.38286304473877	fix_pre	0		120	6.0	2.5	blank	1.0	161.61754703521729	1.0001099109649658
8	140.55889105796814	pulse	0	t		6.0	2.5	blank	1.0	161.79357504844666	
8	141.38297295570374	movie	1		300	6.0	2.5	blank	1.0	162.61765694618225	2.4999661445617676
8	142.16645097732544	pulse	1	t		6.0	2.5	blank	1.0	163.40113496780396	
8	143.7663950920105	pulse	1	t		6.0	2.5	blank	1.0	165.001079082489	
8	143.8829391002655	fix_post	2		12	6.0	2.5	blank	1.0	165.11762309074402	0.09995889663696289
9	143.98289799690247	fix_pre	0		120	7.0	2.5	/experiments/AOT/AOT_stimuli/rescaled_final/1034_fw.mp4	0.0	165.21758198738098	0.9999489784240723
9	144.98284697532654	movie	1		247	7.0	2.5	/experiments/AOT/AOT_stimuli/rescaled_final/1034_fw.mp4	0.0	166.21753096580505	2.500025987625122
9	145.36645698547363	pulse	1	t		7.0	2.5	/experiments/AOT/AOT_stimuli/rescaled_final/1034_fw.mp4	0.0	166.60114097595215	
9	146.96640396118164	pulse	1	t		7.0	2.5	/experiments/AOT/AOT_stimuli/rescaled_final/1034_fw.mp4	0.0	168.20108795166016	
9	147.48287296295166	fix_post	2		12	7.0	2.5	/experiments/AOT/AOT_stimuli/rescaled_final/1034_fw.mp4	0.0	168.71755695343018	0.10002708435058594
10	147.58290004730225	fix_pre	0		119	8.0	2.5	/experiments/AOT/AOT_stimuli/rescaled_final/0554_rv.mp4	0.0	168.81758403778076	0.9916870594024658
10	148.56645393371582	pulse	0	t		8.0	2.5	/experiments/AOT/AOT_stimuli/rescaled_final/0554_rv.mp4	0.0	169.80113792419434	
10	148.5745871067047	movie	1		245	8.0	2.5	/experiments/AOT/AOT_stimuli/rescaled_final/0554_rv.mp4	0.0	169.80927109718323	2.508340835571289
10	150.1660430431366	pulse	1	t		8.0	2.5	/experiments/AOT/AOT_stimuli/rescaled_final/0554_rv.mp4	0.0	171.4007270336151	
10	151.082927942276	fix_post	2		12	8.0	2.5	/experiments/AOT/AOT_stimuli/rescaled_final/0554_rv.mp4	0.0	172.31761193275452	0.09995818138122559
11	151.18288612365723	fix_pre	0		120	9.0	2.5	/experiments/AOT/AOT_stimuli/rescaled_final/0016_fw.mp4	0.0	172.41757011413574	0.9999809265136719
11	151.76637291908264	pulse	0	t		9.0	2.5	/experiments/AOT/AOT_stimuli/rescaled_final/0016_fw.mp4	0.0	173.00105690956116	
11	152.1828670501709	movie	1		245	9.0	2.5	/experiments/AOT/AOT_stimuli/rescaled_final/0016_fw.mp4	0.0	173.4175510406494	2.4999749660491943
11	153.36640810966492	pulse	1	t		9.0	2.5	/experiments/AOT/AOT_stimuli/rescaled_final/0016_fw.mp4	0.0	174.60109210014343	
11	154.6828420162201	fix_post	2		12	9.0	2.5	/experiments/AOT/AOT_stimuli/rescaled_final/0016_fw.mp4	0.0	175.9175260066986	0.10006999969482422
12	154.78291201591492	fix_pre	0		120	10.0	2.5	/experiments/AOT/AOT_stimuli/rescaled_final/0429_rv.mp4	0.0	176.01759600639343	1.0000169277191162
12	154.96641898155212	pulse	0	t		10.0	2.5	/experiments/AOT/AOT_stimuli/rescaled_final/0429_rv.mp4	0.0	176.20110297203064	
12	155.78292894363403	movie	1		243	10.0	2.5	/experiments/AOT/AOT_stimuli/rescaled_final/0429_rv.mp4	0.0	177.01761293411255	2.500110149383545
12	156.55893206596375	pulse	1	t		10.0	2.5	/experiments/AOT/AOT_stimuli/rescaled_final/0429_rv.mp4	0.0	177.79361605644226	
12	158.16481590270996	pulse	1	t		10.0	2.5	/experiments/AOT/AOT_stimuli/rescaled_final/0429_rv.mp4	0.0	179.39949989318848	
12	158.28303909301758	fix_post	2		12	10.0	2.5	/experiments/AOT/AOT_stimuli/rescaled_final/0429_rv.mp4	0.0	179.5177230834961	0.09987688064575195
13	158.38291597366333	fix_pre	0		120	11.0	2.5	/experiments/AOT/AOT_stimuli/rescaled_final/1866_fw.mp4	0.0	179.61759996414185	0.9999761581420898
13	159.38289213180542	movie	1		243	11.0	2.5	/experiments/AOT/AOT_stimuli/rescaled_final/1866_fw.mp4	0.0	180.61757612228394	2.4999778270721436
13	159.765939950943	pulse	1	t		11.0	2.5	/experiments/AOT/AOT_stimuli/rescaled_final/1866_fw.mp4	0.0	181.0006239414215	
13	161.36627292633057	pulse	1	t		11.0	2.5	/experiments/AOT/AOT_stimuli/rescaled_final/1866_fw.mp4	0.0	182.60095691680908	
13	161.88286995887756	fix_post	2		12	11.0	2.5	/experiments/AOT/AOT_stimuli/rescaled_final/1866_fw.mp4	0.0	183.11755394935608	0.09992098808288574
14	161.98279094696045	fix_pre	0		119	12.0	2.5	/experiments/AOT/AOT_stimuli/rescaled_final/0939_rv.mp4	0.0	183.21747493743896	0.9916651248931885
14	162.9662549495697	pulse	0	t		12.0	2.5	/experiments/AOT/AOT_stimuli/rescaled_final/0939_rv.mp4	0.0	184.20093894004822	
14	162.97445607185364	movie	1		246	12.0	2.5	/experiments/AOT/AOT_stimuli/rescaled_final/0939_rv.mp4	0.0	184.20914006233215	2.5085208415985107
14	164.56595611572266	pulse	1	t		12.0	2.5	/experiments/AOT/AOT_stimuli/rescaled_final/0939_rv.mp4	0.0	185.80064010620117	
14	165.48297691345215	fix_post	2		12	12.0	2.5	/experiments/AOT/AOT_stimuli/rescaled_final/0939_rv.mp4	0.0	186.71766090393066	0.0998849868774414
15	165.5828619003296	fix_pre	0		120	13.0	2.5	/experiments/AOT/AOT_stimuli/rescaled_final/0864_fw.mp4	0.0	186.8175458908081	1.0000691413879395
15	166.1662449836731	pulse	0	t		13.0	2.5	/experiments/AOT/AOT_stimuli/rescaled_final/0864_fw.mp4	0.0	187.4009289741516	
15	166.58293104171753	movie	1		247	13.0	2.5	/experiments/AOT/AOT_stimuli/rescaled_final/0864_fw.mp4	0.0	187.81761503219604	2.4997479915618896
15	167.76638007164001	pulse	1	t		13.0	2.5	/experiments/AOT/AOT_stimuli/rescaled_final/0864_fw.mp4	0.0	189.00106406211853	
15	169.08267903327942	fix_post	2		12	13.0	2.5	/experiments/AOT/AOT_stimuli/rescaled_final/0864_fw.mp4	0.0	190.31736302375793	0.09995603561401367
16	169.18263506889343	fix_pre	0		120	14.0	2.5	blank	1.0	190.41731905937195	1.0001740455627441
16	169.36631798744202	pulse	0	t		14.0	2.5	blank	1.0	190.60100197792053	
16	170.18280911445618	movie	1		300	14.0	2.5	blank	1.0	191.4174931049347	2.5000159740448
16	170.96625900268555	pulse	1	t		14.0	2.5	blank	1.0	192.20094299316406	
16	172.566260099411	pulse	1	t		14.0	2.5	blank	1.0	193.80094408988953	
16	172.68282508850098	fix_post	2		12	14.0	2.5	blank	1.0	193.9175090789795	0.09994792938232422
17	172.7827730178833	fix_pre	0		120	15.0	2.5	/experiments/AOT/AOT_stimuli/rescaled_final/1964_fw.mp4	0.0	194.01745700836182	1.0000178813934326
17	173.78279089927673	movie	1		245	15.0	2.5	/experiments/AOT/AOT_stimuli/rescaled_final/1964_fw.mp4	0.0	195.01747488975525	2.4999401569366455
17	174.16569590568542	pulse	1	t		15.0	2.5	/experiments/AOT/AOT_stimuli/rescaled_final/1964_fw.mp4	0.0	195.40037989616394	
17	175.7661681175232	pulse	1	t		15.0	2.5	/experiments/AOT/AOT_stimuli/rescaled_final/1964_fw.mp4	0.0	197.0008521080017	
17	176.28273105621338	fix_post	2		12	15.0	2.5	/experiments/AOT/AOT_stimuli/rescaled_final/1964_fw.mp4	0.0	197.5174150466919	0.09995889663696289
18	176.38268995285034	fix_pre	0		119	16.0	2.5	/experiments/AOT/AOT_stimuli/rescaled_final/0298_rv.mp4	0.0	197.61737394332886	0.9916861057281494
18	177.3663580417633	pulse	0	t		16.0	2.5	/experiments/AOT/AOT_stimuli/rescaled_final/0298_rv.mp4	0.0	198.60104203224182	
18	177.3743760585785	movie	1		245	16.0	2.5	/experiments/AOT/AOT_stimuli/rescaled_final/0298_rv.mp4	0.0	198.609060049057	2.5082919597625732
18	178.96573400497437	pulse	1	t		16.0	2.5	/experiments/AOT/AOT_stimuli/rescaled_final/0298_rv.mp4	0.0	200.20041799545288	
18	179.88266801834106	fix_post	2		12	16.0	2.5	/experiments/AOT/AOT_stimuli/rescaled_final/0298_rv.mp4	0.0	201.11735200881958	0.10001993179321289
19	179.98268795013428	fix_pre	0		120	17.0	2.5	/experiments/AOT/AOT_stimuli/rescaled_final/2032_rv.mp4	0.0	201.2173719406128	1.000035047531128
19	180.56624007225037	pulse	0	t		17.0	2.5	/experiments/AOT/AOT_stimuli/rescaled_final/2032_rv.mp4	0.0	201.80092406272888	
19	180.9827229976654	movie	1		243	17.0	2.5	/experiments/AOT/AOT_stimuli/rescaled_final/2032_rv.mp4	0.0	202.21740698814392	2.4996249675750732
19	182.1662769317627	pulse	1	t		17.0	2.5	/experiments/AOT/AOT_stimuli/rescaled_final/2032_rv.mp4	0.0	203.4009609222412	
19	183.48234796524048	fix_post	2		12	17.0	2.5	/experiments/AOT/AOT_stimuli/rescaled_final/2032_rv.mp4	0.0	204.717031955719	0.10039210319519043
20	183.58274006843567	fix_pre	0		120	18.0	2.5	/experiments/AOT/AOT_stimuli/rescaled_final/0959_rv.mp4	0.0	204.81742405891418	0.9999740123748779
20	183.76622009277344	pulse	0	t		18.0	2.5	/experiments/AOT/AOT_stimuli/rescaled_final/0959_rv.mp4	0.0	205.00090408325195	
20	184.58271408081055	movie	1		245	18.0	2.5	/experiments/AOT/AOT_stimuli/rescaled_final/0959_rv.mp4	0.0	205.81739807128906	2.500037908554077
20	185.36621689796448	pulse	1	t		18.0	2.5	/experiments/AOT/AOT_stimuli/rescaled_final/0959_rv.mp4	0.0	206.600900888443	
20	186.96441411972046	pulse	1	t		18.0	2.5	/experiments/AOT/AOT_stimuli/rescaled_final/0959_rv.mp4	0.0	208.19909811019897	
20	187.08275198936462	fix_post	2		12	18.0	2.5	/experiments/AOT/AOT_stimuli/rescaled_final/0959_rv.mp4	0.0	208.31743597984314	0.09997892379760742
21	187.18273091316223	fix_pre	0		120	19.0	2.5	/experiments/AOT/AOT_stimuli/rescaled_final/1689_rv.mp4	0.0	208.41741490364075	0.9999861717224121
21	188.18271708488464	movie	1		246	19.0	2.5	/experiments/AOT/AOT_stimuli/rescaled_final/1689_rv.mp4	0.0	209.41740107536316	2.5000109672546387
21	188.56614804267883	pulse	1	t		19.0	2.5	/experiments/AOT/AOT_stimuli/rescaled_final/1689_rv.mp4	0.0	209.80083203315735	
21	190.16619110107422	pulse	1	t		19.0	2.5	/experiments/AOT/AOT_stimuli/rescaled_final/1689_rv.mp4	0.0	211.40087509155273	
21	190.68272805213928	fix_post	2		12	19.0	2.5	/experiments/AOT/AOT_stimuli/rescaled_final/1689_rv.mp4	0.0	211.9174120426178	0.0998849868774414
22	190.78261303901672	fix_pre	0		119	20.0	2.5	/experiments/AOT/AOT_stimuli/rescaled_final/2075_fw.mp4	0.0	212.01729702949524	0.9916839599609375
22	191.76617407798767	pulse	0	t		20.0	2.5	/experiments/AOT/AOT_stimuli/rescaled_final/2075_fw.mp4	0.0	213.0008580684662	
22	191.77429699897766	movie	1		246	20.0	2.5	/experiments/AOT/AOT_stimuli/rescaled_final/2075_fw.mp4	0.0	213.00898098945618	2.5084099769592285
22	193.36570811271667	pulse	1	t		20.0	2.5	/experiments/AOT/AOT_stimuli/rescaled_final/2075_fw.mp4	0.0	214.6003921031952	
22	194.2827069759369	fix_post	2		12	20.0	2.5	/experiments/AOT/AOT_stimuli/rescaled_final/2075_fw.mp4	0.0	215.5173909664154	0.09999203681945801
23	194.38269901275635	fix_pre	0		120	21.0	2.5	blank	1.0	215.61738300323486	0.999985933303833
23	194.96618390083313	pulse	0	t		21.0	2.5	blank	1.0	216.20086789131165	
23	195.38268494606018	movie	1		300	21.0	2.5	blank	1.0	216.6173689365387	2.499983072280884
23	196.566143989563	pulse	1	t		21.0	2.5	blank	1.0	217.8008279800415	
23	197.88266801834106	fix_post	2		12	21.0	2.5	blank	1.0	219.11735200881958	0.10003399848937988
24	197.98270201683044	fix_pre	0		120	22.0	2.5	/experiments/AOT/AOT_stimuli/rescaled_final/1704_rv.mp4	0.0	219.21738600730896	0.9998929500579834
24	198.16614699363708	pulse	0	t		22.0	2.5	/experiments/AOT/AOT_stimuli/rescaled_final/1704_rv.mp4	0.0	219.4008309841156	
24	198.98259496688843	movie	1		243	22.0	2.5	/experiments/AOT/AOT_stimuli/rescaled_final/1704_rv.mp4	0.0	220.21727895736694	2.500066041946411
24	199.76614809036255	pulse	1	t		22.0	2.5	/experiments/AOT/AOT_stimuli/rescaled_final/1704_rv.mp4	0.0	221.00083208084106	
24	201.3644781112671	pulse	1	t		22.0	2.5	/experiments/AOT/AOT_stimuli/rescaled_final/1704_rv.mp4	0.0	222.5991621017456	
24	201.48266100883484	fix_post	2		12	22.0	2.5	/experiments/AOT/AOT_stimuli/rescaled_final/1704_rv.mp4	0.0	222.71734499931335	0.0999760627746582
25	201.5826370716095	fix_pre	0		120	23.0	2.5	/experiments/AOT/AOT_stimuli/rescaled_final/0991_fw.mp4	0.0	222.817321062088	0.9999840259552002
25	202.5826210975647	movie	1		243	23.0	2.5	/experiments/AOT/AOT_stimuli/rescaled_final/0991_fw.mp4	0.0	223.8173050880432	2.500006914138794
25	202.96554899215698	pulse	1	t		23.0	2.5	/experiments/AOT/AOT_stimuli/rescaled_final/0991_fw.mp4	0.0	224.2002329826355	
25	204.566143989563	pulse	1	t		23.0	2.5	/experiments/AOT/AOT_stimuli/rescaled_final/0991_fw.mp4	0.0	225.8008279800415	
25	205.0826280117035	fix_post	2		12	23.0	2.5	/experiments/AOT/AOT_stimuli/rescaled_final/0991_fw.mp4	0.0	226.317312002182	0.10000205039978027
26	205.18263006210327	fix_pre	0		119	24.0	2.5	/experiments/AOT/AOT_stimuli/rescaled_final/1497_fw.mp4	0.0	226.4173140525818	0.991675853729248
26	206.16616797447205	pulse	0	t		24.0	2.5	/experiments/AOT/AOT_stimuli/rescaled_final/1497_fw.mp4	0.0	227.40085196495056	
26	206.17430591583252	movie	1		247	24.0	2.5	/experiments/AOT/AOT_stimuli/rescaled_final/1497_fw.mp4	0.0	227.40898990631104	2.5078530311584473
26	207.7670910358429	pulse	1	t		24.0	2.5	/experiments/AOT/AOT_stimuli/rescaled_final/1497_fw.mp4	0.0	229.0017750263214	
26	208.68215894699097	fix_post	2		12	24.0	2.5	/experiments/AOT/AOT_stimuli/rescaled_final/1497_fw.mp4	0.0	229.91684293746948	0.10042595863342285
27	208.7825849056244	fix_pre	0		120	25.0	2.5	/experiments/AOT/AOT_stimuli/rescaled_final/1556_fw.mp4	0.0	230.0172688961029	0.9999542236328125
27	209.36612606048584	pulse	0	t		25.0	2.5	/experiments/AOT/AOT_stimuli/rescaled_final/1556_fw.mp4	0.0	230.60081005096436	
27	209.7825391292572	movie	1		245	25.0	2.5	/experiments/AOT/AOT_stimuli/rescaled_final/1556_fw.mp4	0.0	231.01722311973572	2.500117778778076
27	210.96617913246155	pulse	1	t		25.0	2.5	/experiments/AOT/AOT_stimuli/rescaled_final/1556_fw.mp4	0.0	232.20086312294006	
27	212.28265690803528	fix_post	2		12	25.0	2.5	/experiments/AOT/AOT_stimuli/rescaled_final/1556_fw.mp4	0.0	233.5173408985138	0.099884033203125
28	212.3825409412384	fix_pre	0		120	26.0	2.5	/experiments/AOT/AOT_stimuli/rescaled_final/0823_rv.mp4	0.0	233.61722493171692	0.9997501373291016
28	212.5661129951477	pulse	0	t		26.0	2.5	/experiments/AOT/AOT_stimuli/rescaled_final/0823_rv.mp4	0.0	233.80079698562622	
28	213.3822910785675	movie	1		244	26.0	2.5	/experiments/AOT/AOT_stimuli/rescaled_final/0823_rv.mp4	0.0	234.61697506904602	2.5003340244293213
28	214.1661250591278	pulse	1	t		26.0	2.5	/experiments/AOT/AOT_stimuli/rescaled_final/0823_rv.mp4	0.0	235.40080904960632	
28	215.76501607894897	pulse	1	t		26.0	2.5	/experiments/AOT/AOT_stimuli/rescaled_final/0823_rv.mp4	0.0	236.9997000694275	
28	215.88262510299683	fix_post	2		12	26.0	2.5	/experiments/AOT/AOT_stimuli/rescaled_final/0823_rv.mp4	0.0	237.11730909347534	0.09995102882385254
29	215.98257613182068	fix_pre	0		120	27.0	2.5	blank	1.0	237.2172601222992	0.9999938011169434
29	216.98256993293762	movie	1		300	27.0	2.5	blank	1.0	238.21725392341614	2.500025987625122
29	217.36607694625854	pulse	1	t		27.0	2.5	blank	1.0	238.60076093673706	
29	218.9661090373993	pulse	1	t		27.0	2.5	blank	1.0	240.2007930278778	
29	219.48259592056274	fix_post	2		12	27.0	2.5	blank	1.0	240.71727991104126	0.09997010231018066
30	219.58256602287292	fix_pre	0		119	28.0	2.5	/experiments/AOT/AOT_stimuli/rescaled_final/0955_fw.mp4	0.0	240.81725001335144	0.9916229248046875
30	220.56618404388428	pulse	0	t		28.0	2.5	/experiments/AOT/AOT_stimuli/rescaled_final/0955_fw.mp4	0.0	241.8008680343628	
30	220.5741889476776	movie	1		246	28.0	2.5	/experiments/AOT/AOT_stimuli/rescaled_final/0955_fw.mp4	0.0	241.80887293815613	2.5080959796905518
30	222.1653881072998	pulse	1	t		28.0	2.5	/experiments/AOT/AOT_stimuli/rescaled_final/0955_fw.mp4	0.0	243.40007209777832	
30	223.08228492736816	fix_post	2		12	28.0	2.5	/experiments/AOT/AOT_stimuli/rescaled_final/0955_fw.mp4	0.0	244.31696891784668	0.10023713111877441
31	223.18252205848694	fix_pre	0		120	29.0	2.5	/experiments/AOT/AOT_stimuli/rescaled_final/1006_fw.mp4	0.0	244.41720604896545	1.0001909732818604
31	223.76572704315186	pulse	0	t		29.0	2.5	/experiments/AOT/AOT_stimuli/rescaled_final/1006_fw.mp4	0.0	245.00041103363037	
31	224.1827130317688	movie	1		244	29.0	2.5	/experiments/AOT/AOT_stimuli/rescaled_final/1006_fw.mp4	0.0	245.41739702224731	2.499897003173828
31	225.3664231300354	pulse	1	t		29.0	2.5	/experiments/AOT/AOT_stimuli/rescaled_final/1006_fw.mp4	0.0	246.60110712051392	
31	226.68261003494263	fix_post	2		12	29.0	2.5	/experiments/AOT/AOT_stimuli/rescaled_final/1006_fw.mp4	0.0	247.91729402542114	0.0999610424041748
32	226.7825710773468	fix_pre	0		120	30.0	2.5	/experiments/AOT/AOT_stimuli/rescaled_final/1932_rv.mp4	0.0	248.01725506782532	0.9998989105224609
32	226.9660611152649	pulse	0	t		30.0	2.5	/experiments/AOT/AOT_stimuli/rescaled_final/1932_rv.mp4	0.0	248.2007451057434	
32	227.78246998786926	movie	1		248	30.0	2.5	/experiments/AOT/AOT_stimuli/rescaled_final/1932_rv.mp4	0.0	249.01715397834778	2.499629020690918
32	228.5660719871521	pulse	1	t		30.0	2.5	/experiments/AOT/AOT_stimuli/rescaled_final/1932_rv.mp4	0.0	249.80075597763062	
32	230.16200494766235	pulse	1	t		30.0	2.5	/experiments/AOT/AOT_stimuli/rescaled_final/1932_rv.mp4	0.0	251.39668893814087	
32	230.28209900856018	fix_post	2		12	30.0	2.5	/experiments/AOT/AOT_stimuli/rescaled_final/1932_rv.mp4	0.0	251.5167829990387	0.10046792030334473
33	230.38256692886353	fix_pre	0		120	31.0	2.5	/experiments/AOT/AOT_stimuli/rescaled_final/2078_fw.mp4	0.0	251.61725091934204	0.9999070167541504
33	231.38247394561768	movie	1		245	31.0	2.5	/experiments/AOT/AOT_stimuli/rescaled_final/2078_fw.mp4	0.0	252.6171579360962	2.499974012374878
33	231.76546692848206	pulse	1	t		31.0	2.5	/experiments/AOT/AOT_stimuli/rescaled_final/2078_fw.mp4	0.0	253.00015091896057	
33	233.36597204208374	pulse	1	t		31.0	2.5	/experiments/AOT/AOT_stimuli/rescaled_final/2078_fw.mp4	0.0	254.60065603256226	
33	233.88244795799255	fix_post	2		12	31.0	2.5	/experiments/AOT/AOT_stimuli/rescaled_final/2078_fw.mp4	0.0	255.11713194847107	0.09999704360961914
34	233.98244500160217	fix_pre	0		119	32.0	2.5	/experiments/AOT/AOT_stimuli/rescaled_final/2135_fw.mp4	0.0	255.2171289920807	0.9916830062866211
34	234.96595001220703	pulse	0	t		32.0	2.5	/experiments/AOT/AOT_stimuli/rescaled_final/2135_fw.mp4	0.0	256.20063400268555	
34	234.9741280078888	movie	1		246	32.0	2.5	/experiments/AOT/AOT_stimuli/rescaled_final/2135_fw.mp4	0.0	256.2088119983673	2.5083119869232178
34	236.5670280456543	pulse	1	t		32.0	2.5	/experiments/AOT/AOT_stimuli/rescaled_final/2135_fw.mp4	0.0	257.8017120361328	
34	237.482439994812	fix_post	2		12	32.0	2.5	/experiments/AOT/AOT_stimuli/rescaled_final/2135_fw.mp4	0.0	258.7171239852905	0.09993791580200195
35	237.582377910614	fix_pre	0		120	33.0	2.5	blank	1.0	258.81706190109253	1.0000531673431396
35	238.16591596603394	pulse	0	t		33.0	2.5	blank	1.0	259.40059995651245	
35	238.58243107795715	movie	1		300	33.0	2.5	blank	1.0	259.81711506843567	2.5000059604644775
35	239.76596212387085	pulse	1	t		33.0	2.5	blank	1.0	261.00064611434937	
35	241.08243703842163	fix_post	2		12	33.0	2.5	blank	1.0	262.31712102890015	0.09998798370361328
36	241.18242502212524	fix_pre	0		120	34.0	2.5	/experiments/AOT/AOT_stimuli/rescaled_final/2064_fw.mp4	0.0	262.41710901260376	0.9999949932098389
36	241.36591291427612	pulse	0	t		34.0	2.5	/experiments/AOT/AOT_stimuli/rescaled_final/2064_fw.mp4	0.0	262.60059690475464	
36	242.18242001533508	movie	1		244	34.0	2.5	/experiments/AOT/AOT_stimuli/rescaled_final/2064_fw.mp4	0.0	263.4171040058136	2.499964952468872
36	242.9659779071808	pulse	1	t		34.0	2.5	/experiments/AOT/AOT_stimuli/rescaled_final/2064_fw.mp4	0.0	264.2006618976593	
36	244.56458497047424	pulse	1	t		34.0	2.5	/experiments/AOT/AOT_stimuli/rescaled_final/2064_fw.mp4	0.0	265.79926896095276	
36	244.68238496780396	fix_post	2		12	34.0	2.5	/experiments/AOT/AOT_stimuli/rescaled_final/2064_fw.mp4	0.0	265.91706895828247	0.10000395774841309
37	244.78238892555237	fix_pre	0		120	35.0	2.5	/experiments/AOT/AOT_stimuli/rescaled_final/0027_fw.mp4	0.0	266.0170729160309	1.0000829696655273
37	245.7824718952179	movie	1		243	35.0	2.5	/experiments/AOT/AOT_stimuli/rescaled_final/0027_fw.mp4	0.0	267.0171558856964	2.5000550746917725
37	246.16680312156677	pulse	1	t		35.0	2.5	/experiments/AOT/AOT_stimuli/rescaled_final/0027_fw.mp4	0.0	267.4014871120453	
37	247.76597690582275	pulse	1	t		35.0	2.5	/experiments/AOT/AOT_stimuli/rescaled_final/0027_fw.mp4	0.0	269.00066089630127	
37	248.28252696990967	fix_post	2		12	35.0	2.5	/experiments/AOT/AOT_stimuli/rescaled_final/0027_fw.mp4	0.0	269.5172109603882	0.09983205795288086
38	248.38235902786255	fix_pre	0		119	36.0	2.5	/experiments/AOT/AOT_stimuli/rescaled_final/1311_fw.mp4	0.0	269.61704301834106	0.9916720390319824
38	249.3659200668335	pulse	0	t		36.0	2.5	/experiments/AOT/AOT_stimuli/rescaled_final/1311_fw.mp4	0.0	270.600604057312	
38	249.37403106689453	movie	1		246	36.0	2.5	/experiments/AOT/AOT_stimuli/rescaled_final/1311_fw.mp4	0.0	270.60871505737305	2.508359909057617
38	250.96594500541687	pulse	1	t		36.0	2.5	/experiments/AOT/AOT_stimuli/rescaled_final/1311_fw.mp4	0.0	272.2006289958954	
38	251.88239097595215	fix_post	2		12	36.0	2.5	/experiments/AOT/AOT_stimuli/rescaled_final/1311_fw.mp4	0.0	273.11707496643066	0.10002994537353516
39	251.98242092132568	fix_pre	0		120	37.0	2.5	/experiments/AOT/AOT_stimuli/rescaled_final/2046_rv.mp4	0.0	273.2171049118042	0.9999740123748779
39	252.56595301628113	pulse	0	t		37.0	2.5	/experiments/AOT/AOT_stimuli/rescaled_final/2046_rv.mp4	0.0	273.80063700675964	
39	252.98239493370056	movie	1		245	37.0	2.5	/experiments/AOT/AOT_stimuli/rescaled_final/2046_rv.mp4	0.0	274.2170789241791	2.499988079071045
39	254.1659710407257	pulse	1	t		37.0	2.5	/experiments/AOT/AOT_stimuli/rescaled_final/2046_rv.mp4	0.0	275.4006550312042	
39	255.4823830127716	fix_post	2		12	37.0	2.5	/experiments/AOT/AOT_stimuli/rescaled_final/2046_rv.mp4	0.0	276.7170670032501	0.09995508193969727
40	255.5823380947113	fix_pre	0		120	38.0	2.5	/experiments/AOT/AOT_stimuli/rescaled_final/1831_rv.mp4	0.0	276.8170220851898	1.0000879764556885
40	255.76599407196045	pulse	0	t		38.0	2.5	/experiments/AOT/AOT_stimuli/rescaled_final/1831_rv.mp4	0.0	277.00067806243896	
40	256.582426071167	movie	1		243	38.0	2.5	/experiments/AOT/AOT_stimuli/rescaled_final/1831_rv.mp4	0.0	277.8171100616455	2.4999289512634277
40	257.36604499816895	pulse	1	t		38.0	2.5	/experiments/AOT/AOT_stimuli/rescaled_final/1831_rv.mp4	0.0	278.60072898864746	
40	258.96420097351074	pulse	1	t		38.0	2.5	/experiments/AOT/AOT_stimuli/rescaled_final/1831_rv.mp4	0.0	280.19888496398926	
40	259.0823550224304	fix_post	2		12	38.0	2.5	/experiments/AOT/AOT_stimuli/rescaled_final/1831_rv.mp4	0.0	280.31703901290894	0.1000370979309082
41	259.1823921203613	fix_pre	0		120	39.0	2.5	/experiments/AOT/AOT_stimuli/rescaled_final/0527_fw.mp4	0.0	280.41707611083984	0.9999549388885498
41	260.1823470592499	movie	1		244	39.0	2.5	/experiments/AOT/AOT_stimuli/rescaled_final/0527_fw.mp4	0.0	281.4170310497284	2.5000529289245605
41	260.5659739971161	pulse	1	t		39.0	2.5	/experiments/AOT/AOT_stimuli/rescaled_final/0527_fw.mp4	0.0	281.8006579875946	
41	262.16583704948425	pulse	1	t		39.0	2.5	/experiments/AOT/AOT_stimuli/rescaled_final/0527_fw.mp4	0.0	283.40052103996277	
41	262.68239998817444	fix_post	2		12	39.0	2.5	/experiments/AOT/AOT_stimuli/rescaled_final/0527_fw.mp4	0.0	283.91708397865295	0.09986495971679688
42	262.78226494789124	fix_pre	0		119	40.0	2.5	/experiments/AOT/AOT_stimuli/rescaled_final/0387_fw.mp4	0.0	284.01694893836975	0.9917171001434326
42	263.7658269405365	pulse	0	t		40.0	2.5	/experiments/AOT/AOT_stimuli/rescaled_final/0387_fw.mp4	0.0	285.000510931015	
42	263.77398204803467	movie	1		246	40.0	2.5	/experiments/AOT/AOT_stimuli/rescaled_final/0387_fw.mp4	0.0	285.0086660385132	2.508389949798584
42	265.36597990989685	pulse	1	t		40.0	2.5	/experiments/AOT/AOT_stimuli/rescaled_final/0387_fw.mp4	0.0	286.60066390037537	
42	266.28237199783325	fix_post	2		12	40.0	2.5	/experiments/AOT/AOT_stimuli/rescaled_final/0387_fw.mp4	0.0	287.51705598831177	0.09997105598449707
43	266.38234305381775	fix_pre	0		120	41.0	2.5	/experiments/AOT/AOT_stimuli/rescaled_final/0007_rv.mp4	0.0	287.61702704429626	0.9999699592590332
43	266.96584701538086	pulse	0	t		41.0	2.5	/experiments/AOT/AOT_stimuli/rescaled_final/0007_rv.mp4	0.0	288.2005310058594	
43	267.3823130130768	movie	1		243	41.0	2.5	/experiments/AOT/AOT_stimuli/rescaled_final/0007_rv.mp4	0.0	288.6169970035553	2.4995570182800293
43	268.5658800601959	pulse	1	t		41.0	2.5	/experiments/AOT/AOT_stimuli/rescaled_final/0007_rv.mp4	0.0	289.80056405067444	
43	269.8818700313568	fix_post	2		12	41.0	2.5	/experiments/AOT/AOT_stimuli/rescaled_final/0007_rv.mp4	0.0	291.1165540218353	0.10049104690551758
44	269.98236107826233	fix_pre	0		120	42.0	2.5	blank	1.0	291.21704506874084	0.9999878406524658
44	270.1658880710602	pulse	0	t		42.0	2.5	blank	1.0	291.4005720615387	
44	270.9823489189148	movie	1		300	42.0	2.5	blank	1.0	292.2170329093933	2.5000171661376953
44	271.7657449245453	pulse	1	t		42.0	2.5	blank	1.0	293.0004289150238	
44	273.36580204963684	pulse	1	t		42.0	2.5	blank	1.0	294.60048604011536	
44	273.4823660850525	fix_post	2		12	42.0	2.5	blank	1.0	294.717050075531	0.09999394416809082
45	273.5823600292206	fix_pre	0		120	43.0	2.5	/experiments/AOT/AOT_stimuli/rescaled_final/1964_rv.mp4	0.0	294.8170440196991	0.9999380111694336
45	274.58229804039	movie	1		244	43.0	2.5	/experiments/AOT/AOT_stimuli/rescaled_final/1964_rv.mp4	0.0	295.81698203086853	2.5000619888305664
45	274.9659790992737	pulse	1	t		43.0	2.5	/experiments/AOT/AOT_stimuli/rescaled_final/1964_rv.mp4	0.0	296.2006630897522	
45	276.5658679008484	pulse	1	t		43.0	2.5	/experiments/AOT/AOT_stimuli/rescaled_final/1964_rv.mp4	0.0	297.8005518913269	
45	277.0823600292206	fix_post	2		12	43.0	2.5	/experiments/AOT/AOT_stimuli/rescaled_final/1964_rv.mp4	0.0	298.3170440196991	0.09990501403808594
46	277.18226504325867	fix_pre	0		119	44.0	2.5	/experiments/AOT/AOT_stimuli/rescaled_final/0909_rv.mp4	0.0	298.4169490337372	0.9916529655456543
46	278.16539692878723	pulse	0	t		44.0	2.5	/experiments/AOT/AOT_stimuli/rescaled_final/0909_rv.mp4	0.0	299.40008091926575	
46	278.1739180088043	movie	1		248	44.0	2.5	/experiments/AOT/AOT_stimuli/rescaled_final/0909_rv.mp4	0.0	299.40860199928284	2.5086441040039062
46	279.76475191116333	pulse	1	t		44.0	2.5	/experiments/AOT/AOT_stimuli/rescaled_final/0909_rv.mp4	0.0	300.99943590164185	
46	280.6825621128082	fix_post	2		12	44.0	2.5	/experiments/AOT/AOT_stimuli/rescaled_final/0909_rv.mp4	0.0	301.91724610328674	0.09994983673095703
47	280.7825119495392	fix_pre	0		120	45.0	2.5	/experiments/AOT/AOT_stimuli/rescaled_final/2027_rv.mp4	0.0	302.0171959400177	0.9997320175170898
47	281.36571502685547	pulse	0	t		45.0	2.5	/experiments/AOT/AOT_stimuli/rescaled_final/2027_rv.mp4	0.0	302.600399017334	
47	281.7822439670563	movie	1		244	45.0	2.5	/experiments/AOT/AOT_stimuli/rescaled_final/2027_rv.mp4	0.0	303.0169279575348	2.500030994415283
47	282.9659059047699	pulse	1	t		45.0	2.5	/experiments/AOT/AOT_stimuli/rescaled_final/2027_rv.mp4	0.0	304.2005898952484	
47	284.28227496147156	fix_post	2		12	45.0	2.5	/experiments/AOT/AOT_stimuli/rescaled_final/2027_rv.mp4	0.0	305.5169589519501	0.09990811347961426
48	284.3821830749512	fix_pre	0		120	46.0	2.5	/experiments/AOT/AOT_stimuli/rescaled_final/1721_fw.mp4	0.0	305.6168670654297	1.0001709461212158
48	284.5657649040222	pulse	0	t		46.0	2.5	/experiments/AOT/AOT_stimuli/rescaled_final/1721_fw.mp4	0.0	305.80044889450073	
48	285.3823540210724	movie	1		243	46.0	2.5	/experiments/AOT/AOT_stimuli/rescaled_final/1721_fw.mp4	0.0	306.6170380115509	2.4999189376831055
48	286.1656279563904	pulse	1	t		46.0	2.5	/experiments/AOT/AOT_stimuli/rescaled_final/1721_fw.mp4	0.0	307.4003119468689	
48	287.764032125473	pulse	1	t		46.0	2.5	/experiments/AOT/AOT_stimuli/rescaled_final/1721_fw.mp4	0.0	308.99871611595154	
48	287.8822729587555	fix_post	2		12	46.0	2.5	/experiments/AOT/AOT_stimuli/rescaled_final/1721_fw.mp4	0.0	309.116956949234	0.09999203681945801
49	287.98226499557495	fix_pre	0		120	47.0	2.5	/experiments/AOT/AOT_stimuli/rescaled_final/2164_rv.mp4	0.0	309.21694898605347	0.9999699592590332
49	288.982234954834	movie	1		245	47.0	2.5	/experiments/AOT/AOT_stimuli/rescaled_final/2164_rv.mp4	0.0	310.2169189453125	2.4999990463256836
49	289.365700006485	pulse	1	t		47.0	2.5	/experiments/AOT/AOT_stimuli/rescaled_final/2164_rv.mp4	0.0	310.6003839969635	
49	290.9656879901886	pulse	1	t		47.0	2.5	/experiments/AOT/AOT_stimuli/rescaled_final/2164_rv.mp4	0.0	312.2003719806671	
49	291.48223400115967	fix_post	2		12	47.0	2.5	/experiments/AOT/AOT_stimuli/rescaled_final/2164_rv.mp4	0.0	312.7169179916382	0.09996604919433594
50	291.582200050354	fix_pre	0		119	48.0	2.5	/experiments/AOT/AOT_stimuli/rescaled_final/0965_fw.mp4	0.0	312.8168840408325	0.9916419982910156
50	292.5656809806824	pulse	0	t		48.0	2.5	/experiments/AOT/AOT_stimuli/rescaled_final/0965_fw.mp4	0.0	313.8003649711609	
50	292.573842048645	movie	1		246	48.0	2.5	/experiments/AOT/AOT_stimuli/rescaled_final/0965_fw.mp4	0.0	313.80852603912354	2.5083348751068115
50	294.16522693634033	pulse	1	t		48.0	2.5	/experiments/AOT/AOT_stimuli/rescaled_final/0965_fw.mp4	0.0	315.39991092681885	
50	295.08217692375183	fix_post	2		12	48.0	2.5	/experiments/AOT/AOT_stimuli/rescaled_final/0965_fw.mp4	0.0	316.31686091423035	0.10002708435058594
51	295.1822040081024	fix_pre	0		120	49.0	2.5	blank	1.0	316.41688799858093	1.0000309944152832
51	295.7656650543213	pulse	0	t		49.0	2.5	blank	1.0	317.0003490447998	
51	296.1822350025177	movie	1		300	49.0	2.5	blank	1.0	317.4169189929962	2.499985933303833
51	297.3656589984894	pulse	1	t		49.0	2.5	blank	1.0	318.6003429889679	
51	298.68222093582153	fix_post	2		12	49.0	2.5	blank	1.0	319.91690492630005	0.09999299049377441
52	298.7822139263153	fix_pre	0		120	50.0	2.5	/experiments/AOT/AOT_stimuli/rescaled_final/2135_fw.mp4	0.0	320.0168979167938	0.9998700618743896
52	298.96565890312195	pulse	0	t		50.0	2.5	/experiments/AOT/AOT_stimuli/rescaled_final/2135_fw.mp4	0.0	320.20034289360046	
52	299.7820839881897	movie	1		246	50.0	2.5	/experiments/AOT/AOT_stimuli/rescaled_final/2135_fw.mp4	0.0	321.0167679786682	2.500149965286255
52	300.56562209129333	pulse	1	t		50.0	2.5	/experiments/AOT/AOT_stimuli/rescaled_final/2135_fw.mp4	0.0	321.80030608177185	
52	302.1616051197052	pulse	1	t		50.0	2.5	/experiments/AOT/AOT_stimuli/rescaled_final/2135_fw.mp4	0.0	323.3962891101837	
52	302.28223395347595	fix_post	2		12	50.0	2.5	/experiments/AOT/AOT_stimuli/rescaled_final/2135_fw.mp4	0.0	323.51691794395447	0.0999901294708252
53	302.3822240829468	fix_pre	0		120	51.0	2.5	/experiments/AOT/AOT_stimuli/rescaled_final/0285_rv.mp4	0.0	323.6169080734253	0.9999289512634277
53	303.3821530342102	movie	1		244	51.0	2.5	/experiments/AOT/AOT_stimuli/rescaled_final/0285_rv.mp4	0.0	324.6168370246887	2.5000970363616943
53	303.76682901382446	pulse	1	t		51.0	2.5	/experiments/AOT/AOT_stimuli/rescaled_final/0285_rv.mp4	0.0	325.001513004303	
53	305.36565494537354	pulse	1	t		51.0	2.5	/experiments/AOT/AOT_stimuli/rescaled_final/0285_rv.mp4	0.0	326.60033893585205	
53	305.8822500705719	fix_post	2		12	51.0	2.5	/experiments/AOT/AOT_stimuli/rescaled_final/0285_rv.mp4	0.0	327.1169340610504	0.09998893737792969
54	305.98223900794983	fix_pre	0		119	52.0	2.5	/experiments/AOT/AOT_stimuli/rescaled_final/0112_fw.mp4	0.0	327.21692299842834	0.9916300773620605
54	306.9655840396881	pulse	0	t		52.0	2.5	/experiments/AOT/AOT_stimuli/rescaled_final/0112_fw.mp4	0.0	328.2002680301666	
54	306.9738690853119	movie	1		246	52.0	2.5	/experiments/AOT/AOT_stimuli/rescaled_final/0112_fw.mp4	0.0	328.2085530757904	2.508316993713379
54	308.5652871131897	pulse	1	t		52.0	2.5	/experiments/AOT/AOT_stimuli/rescaled_final/0112_fw.mp4	0.0	329.7999711036682	
54	309.48218607902527	fix_post	2		12	52.0	2.5	/experiments/AOT/AOT_stimuli/rescaled_final/0112_fw.mp4	0.0	330.7168700695038	0.10004281997680664
55	309.5822288990021	fix_pre	0		120	53.0	2.5	/experiments/AOT/AOT_stimuli/rescaled_final/0016_fw.mp4	0.0	330.8169128894806	0.9999701976776123
55	310.16568207740784	pulse	0	t		53.0	2.5	/experiments/AOT/AOT_stimuli/rescaled_final/0016_fw.mp4	0.0	331.40036606788635	
55	310.5821990966797	movie	1		244	53.0	2.5	/experiments/AOT/AOT_stimuli/rescaled_final/0016_fw.mp4	0.0	331.8168830871582	2.500037908554077
55	311.7656409740448	pulse	1	t		53.0	2.5	/experiments/AOT/AOT_stimuli/rescaled_final/0016_fw.mp4	0.0	333.0003249645233	
55	313.08223700523376	fix_post	2		12	53.0	2.5	/experiments/AOT/AOT_stimuli/rescaled_final/0016_fw.mp4	0.0	334.3169209957123	0.09996604919433594
56	313.1822030544281	fix_pre	0		120	54.0	2.5	/experiments/AOT/AOT_stimuli/rescaled_final/1012_rv.mp4	0.0	334.4168870449066	0.9999918937683105
56	313.36567091941833	pulse	0	t		54.0	2.5	/experiments/AOT/AOT_stimuli/rescaled_final/1012_rv.mp4	0.0	334.60035490989685	
56	314.1821949481964	movie	1		243	54.0	2.5	/experiments/AOT/AOT_stimuli/rescaled_final/1012_rv.mp4	0.0	335.4168789386749	2.499868154525757
56	314.9655740261078	pulse	1	t		54.0	2.5	/experiments/AOT/AOT_stimuli/rescaled_final/1012_rv.mp4	0.0	336.2002580165863	
56	316.56419110298157	pulse	1	t		54.0	2.5	/experiments/AOT/AOT_stimuli/rescaled_final/1012_rv.mp4	0.0	337.7988750934601	
56	316.68206310272217	fix_post	2		12	54.0	2.5	/experiments/AOT/AOT_stimuli/rescaled_final/1012_rv.mp4	0.0	337.9167470932007	0.10008502006530762
57	316.7821481227875	fix_pre	0		120	55.0	2.5	blank	1.0	338.016832113266	0.9999878406524658
57	317.78213596343994	movie	1		300	55.0	2.5	blank	1.0	339.01681995391846	2.499937057495117
57	318.1655879020691	pulse	1	t		55.0	2.5	blank	1.0	339.4002718925476	
57	319.7655460834503	pulse	1	t		55.0	2.5	blank	1.0	341.00023007392883	
57	320.28207302093506	fix_post	2		12	55.0	2.5	blank	1.0	341.5167570114136	0.09990501403808594
58	320.38197803497314	fix_pre	0		119	56.0	2.5	/experiments/AOT/AOT_stimuli/rescaled_final/1168_rv.mp4	0.0	341.61666202545166	0.9918010234832764
58	321.3656210899353	pulse	0	t		56.0	2.5	/experiments/AOT/AOT_stimuli/rescaled_final/1168_rv.mp4	0.0	342.6003050804138	
58	321.3737790584564	movie	1		245	56.0	2.5	/experiments/AOT/AOT_stimuli/rescaled_final/1168_rv.mp4	0.0	342.60846304893494	2.508358955383301
58	322.9652829170227	pulse	1	t		56.0	2.5	/experiments/AOT/AOT_stimuli/rescaled_final/1168_rv.mp4	0.0	344.1999669075012	
58	323.8821380138397	fix_post	2		12	56.0	2.5	/experiments/AOT/AOT_stimuli/rescaled_final/1168_rv.mp4	0.0	345.11682200431824	0.09990596771240234
59	323.9820439815521	fix_pre	0		120	57.0	2.5	/experiments/AOT/AOT_stimuli/rescaled_final/0533_rv.mp4	0.0	345.21672797203064	1.0000510215759277
59	324.5655961036682	pulse	0	t		57.0	2.5	/experiments/AOT/AOT_stimuli/rescaled_final/0533_rv.mp4	0.0	345.80028009414673	
59	324.98209500312805	movie	1		244	57.0	2.5	/experiments/AOT/AOT_stimuli/rescaled_final/0533_rv.mp4	0.0	346.21677899360657	2.500138998031616
59	326.1656451225281	pulse	1	t		57.0	2.5	/experiments/AOT/AOT_stimuli/rescaled_final/0533_rv.mp4	0.0	347.4003291130066	
59	327.48223400115967	fix_post	2		12	57.0	2.5	/experiments/AOT/AOT_stimuli/rescaled_final/0533_rv.mp4	0.0	348.7169179916382	0.09984111785888672
60	327.58207511901855	fix_pre	0		120	58.0	2.5	/experiments/AOT/AOT_stimuli/rescaled_final/1466_fw.mp4	0.0	348.81675910949707	0.9999828338623047
60	327.7655680179596	pulse	0	t		58.0	2.5	/experiments/AOT/AOT_stimuli/rescaled_final/1466_fw.mp4	0.0	349.0002520084381	
60	328.58205795288086	movie	1		243	58.0	2.5	/experiments/AOT/AOT_stimuli/rescaled_final/1466_fw.mp4	0.0	349.8167419433594	2.500030040740967
60	329.3654611110687	pulse	1	t		58.0	2.5	/experiments/AOT/AOT_stimuli/rescaled_final/1466_fw.mp4	0.0	350.60014510154724	
60	330.96381306648254	pulse	1	t		58.0	2.5	/experiments/AOT/AOT_stimuli/rescaled_final/1466_fw.mp4	0.0	352.19849705696106	
60	331.0820879936218	fix_post	2		12	58.0	2.5	/experiments/AOT/AOT_stimuli/rescaled_final/1466_fw.mp4	0.0	352.31677198410034	0.09993410110473633
61	331.18202209472656	fix_pre	0		120	59.0	2.5	/experiments/AOT/AOT_stimuli/rescaled_final/0072_fw.mp4	0.0	352.4167060852051	1.0000970363616943
61	332.18211913108826	movie	1		245	59.0	2.5	/experiments/AOT/AOT_stimuli/rescaled_final/0072_fw.mp4	0.0	353.4168031215668	2.4999148845672607
61	332.5651159286499	pulse	1	t		59.0	2.5	/experiments/AOT/AOT_stimuli/rescaled_final/0072_fw.mp4	0.0	353.7997999191284	
61	334.1650800704956	pulse	1	t		59.0	2.5	/experiments/AOT/AOT_stimuli/rescaled_final/0072_fw.mp4	0.0	355.3997640609741	
61	334.6820340156555	fix_post	2		12	59.0	2.5	/experiments/AOT/AOT_stimuli/rescaled_final/0072_fw.mp4	0.0	355.91671800613403	0.09960699081420898
62	334.7816410064697	fix_pre	0		119	60.0	2.5	/experiments/AOT/AOT_stimuli/rescaled_final/0063_rv.mp4	0.0	356.01632499694824	0.9917550086975098
62	335.7656400203705	pulse	0	t		60.0	2.5	/experiments/AOT/AOT_stimuli/rescaled_final/0063_rv.mp4	0.0	357.000324010849	
62	335.77339601516724	movie	1		244	60.0	2.5	/experiments/AOT/AOT_stimuli/rescaled_final/0063_rv.mp4	0.0	357.00808000564575	2.508647918701172
62	337.3649559020996	pulse	1	t		60.0	2.5	/experiments/AOT/AOT_stimuli/rescaled_final/0063_rv.mp4	0.0	358.5996398925781	
62	338.2820439338684	fix_post	2		12	60.0	2.5	/experiments/AOT/AOT_stimuli/rescaled_final/0063_rv.mp4	0.0	359.5167279243469	0.09991216659545898
63	338.38195610046387	fix_pre	0		120	61.0	2.5	blank	1.0	359.6166400909424	1.000079870223999
63	338.96543192863464	pulse	0	t		61.0	2.5	blank	1.0	360.20011591911316	
63	339.38203597068787	movie	1		300	61.0	2.5	blank	1.0	360.6167199611664	2.499974012374878
63	340.5655059814453	pulse	1	t		61.0	2.5	blank	1.0	361.8001899719238	
63	341.88200998306274	fix_post	2		12	61.0	2.5	blank	1.0	363.11669397354126	0.0999290943145752
64	341.9819390773773	fix_pre	0		120	62.0	2.5	/experiments/AOT/AOT_stimuli/rescaled_final/1666_rv.mp4	0.0	363.21662306785583	0.9999890327453613
64	342.16539096832275	pulse	0	t		62.0	2.5	/experiments/AOT/AOT_stimuli/rescaled_final/1666_rv.mp4	0.0	363.40007495880127	
64	342.9819281101227	movie	1		245	62.0	2.5	/experiments/AOT/AOT_stimuli/rescaled_final/1666_rv.mp4	0.0	364.2166121006012	2.4999568462371826
64	343.765517950058	pulse	1	t		62.0	2.5	/experiments/AOT/AOT_stimuli/rescaled_final/1666_rv.mp4	0.0	365.0002019405365	
64	345.36360001564026	pulse	1	t		62.0	2.5	/experiments/AOT/AOT_stimuli/rescaled_final/1666_rv.mp4	0.0	366.5982840061188	
64	345.48188495635986	fix_post	2		12	62.0	2.5	/experiments/AOT/AOT_stimuli/rescaled_final/1666_rv.mp4	0.0	366.7165689468384	0.10004901885986328
65	345.5819339752197	fix_pre	0		120	63.0	2.5	/experiments/AOT/AOT_stimuli/rescaled_final/1928_fw.mp4	0.0	366.81661796569824	1.0000419616699219
65	346.58197593688965	movie	1		246	63.0	2.5	/experiments/AOT/AOT_stimuli/rescaled_final/1928_fw.mp4	0.0	367.81665992736816	2.499997138977051
65	346.96483993530273	pulse	1	t		63.0	2.5	/experiments/AOT/AOT_stimuli/rescaled_final/1928_fw.mp4	0.0	368.19952392578125	
65	348.5654180049896	pulse	1	t		63.0	2.5	/experiments/AOT/AOT_stimuli/rescaled_final/1928_fw.mp4	0.0	369.80010199546814	
65	349.0819730758667	fix_post	2		12	63.0	2.5	/experiments/AOT/AOT_stimuli/rescaled_final/1928_fw.mp4	0.0	370.3166570663452	0.09991884231567383
66	349.1818919181824	fix_pre	0		119	64.0	2.5	/experiments/AOT/AOT_stimuli/rescaled_final/1451_fw.mp4	0.0	370.4165759086609	0.9917051792144775
66	350.1654109954834	pulse	0	t		64.0	2.5	/experiments/AOT/AOT_stimuli/rescaled_final/1451_fw.mp4	0.0	371.4000949859619	
66	350.17359709739685	movie	1		244	64.0	2.5	/experiments/AOT/AOT_stimuli/rescaled_final/1451_fw.mp4	0.0	371.40828108787537	2.508417844772339
66	351.765221118927	pulse	1	t		64.0	2.5	/experiments/AOT/AOT_stimuli/rescaled_final/1451_fw.mp4	0.0	372.9999051094055	
66	352.6820149421692	fix_post	2		12	64.0	2.5	/experiments/AOT/AOT_stimuli/rescaled_final/1451_fw.mp4	0.0	373.9166989326477	0.09998416900634766
67	352.78199911117554	fix_pre	0		120	65.0	2.5	/experiments/AOT/AOT_stimuli/rescaled_final/1692_fw.mp4	0.0	374.01668310165405	1.000025987625122
67	353.36539006233215	pulse	0	t		65.0	2.5	/experiments/AOT/AOT_stimuli/rescaled_final/1692_fw.mp4	0.0	374.60007405281067	
67	353.78202509880066	movie	1		243	65.0	2.5	/experiments/AOT/AOT_stimuli/rescaled_final/1692_fw.mp4	0.0	375.0167090892792	2.4999818801879883
67	354.9654219150543	pulse	1	t		65.0	2.5	/experiments/AOT/AOT_stimuli/rescaled_final/1692_fw.mp4	0.0	376.20010590553284	
67	356.28200697898865	fix_post	2		12	65.0	2.5	/experiments/AOT/AOT_stimuli/rescaled_final/1692_fw.mp4	0.0	377.51669096946716	0.09995293617248535
68	356.38195991516113	fix_pre	0		120	66.0	2.5	/experiments/AOT/AOT_stimuli/rescaled_final/1435_rv.mp4	0.0	377.61664390563965	0.9999971389770508
68	356.56538701057434	pulse	0	t		66.0	2.5	/experiments/AOT/AOT_stimuli/rescaled_final/1435_rv.mp4	0.0	377.80007100105286	
68	357.3819570541382	movie	1		243	66.0	2.5	/experiments/AOT/AOT_stimuli/rescaled_final/1435_rv.mp4	0.0	378.6166410446167	2.499570846557617
68	358.1654269695282	pulse	1	t		66.0	2.5	/experiments/AOT/AOT_stimuli/rescaled_final/1435_rv.mp4	0.0	379.4001109600067	
68	359.7637429237366	pulse	1	t		66.0	2.5	/experiments/AOT/AOT_stimuli/rescaled_final/1435_rv.mp4	0.0	380.9984269142151	
68	359.8815279006958	fix_post	2		12	66.0	2.5	/experiments/AOT/AOT_stimuli/rescaled_final/1435_rv.mp4	0.0	381.1162118911743	0.10038208961486816
69	359.98190999031067	fix_pre	0		120	67.0	2.5	/experiments/AOT/AOT_stimuli/rescaled_final/1846_rv.mp4	0.0	381.2165939807892	0.9999580383300781
69	360.98186802864075	movie	1		243	67.0	2.5	/experiments/AOT/AOT_stimuli/rescaled_final/1846_rv.mp4	0.0	382.21655201911926	2.499953031539917
69	361.3649950027466	pulse	1	t		67.0	2.5	/experiments/AOT/AOT_stimuli/rescaled_final/1846_rv.mp4	0.0	382.5996789932251	
69	362.96532106399536	pulse	1	t		67.0	2.5	/experiments/AOT/AOT_stimuli/rescaled_final/1846_rv.mp4	0.0	384.2000050544739	
69	363.48182106018066	fix_post	2		12	67.0	2.5	/experiments/AOT/AOT_stimuli/rescaled_final/1846_rv.mp4	0.0	384.7165050506592	0.10005688667297363
70	363.58187794685364	fix_pre	0		119	68.0	2.5	blank	1.0	384.81656193733215	0.9915931224822998
70	364.56532406806946	pulse	0	t		68.0	2.5	blank	1.0	385.800008058548	
70	364.57347106933594	movie	1		301	68.0	2.5	blank	1.0	385.80815505981445	2.5084428787231445
70	366.16533493995667	pulse	1	t		68.0	2.5	blank	1.0	387.4000189304352	
70	367.0819139480591	fix_post	2		12	68.0	2.5	blank	1.0	388.3165979385376	0.09987711906433105
71	367.1817910671234	fix_pre	0		120	69.0	2.5	/experiments/AOT/AOT_stimuli/rescaled_final/1991_rv.mp4	0.0	388.41647505760193	0.9999818801879883
71	367.76535511016846	pulse	0	t		69.0	2.5	/experiments/AOT/AOT_stimuli/rescaled_final/1991_rv.mp4	0.0	389.000039100647	
71	368.1817729473114	movie	1		245	69.0	2.5	/experiments/AOT/AOT_stimuli/rescaled_final/1991_rv.mp4	0.0	389.4164569377899	2.500072956085205
71	369.3654661178589	pulse	1	t		69.0	2.5	/experiments/AOT/AOT_stimuli/rescaled_final/1991_rv.mp4	0.0	390.6001501083374	
71	370.6818459033966	fix_post	2		12	69.0	2.5	/experiments/AOT/AOT_stimuli/rescaled_final/1991_rv.mp4	0.0	391.9165298938751	0.10005712509155273
72	370.78190302848816	fix_pre	0		120	70.0	2.5	/experiments/AOT/AOT_stimuli/rescaled_final/1785_fw.mp4	0.0	392.0165870189667	1.0000219345092773
72	370.96527194976807	pulse	0	t		70.0	2.5	/experiments/AOT/AOT_stimuli/rescaled_final/1785_fw.mp4	0.0	392.1999559402466	
72	371.78192496299744	movie	1		243	70.0	2.5	/experiments/AOT/AOT_stimuli/rescaled_final/1785_fw.mp4	0.0	393.01660895347595	2.4998271465301514
72	372.5653419494629	pulse	1	t		70.0	2.5	/experiments/AOT/AOT_stimuli/rescaled_final/1785_fw.mp4	0.0	393.8000259399414	
72	374.16368293762207	pulse	1	t		70.0	2.5	/experiments/AOT/AOT_stimuli/rescaled_final/1785_fw.mp4	0.0	395.3983669281006	
72	374.2817521095276	fix_post	2		12	70.0	2.5	/experiments/AOT/AOT_stimuli/rescaled_final/1785_fw.mp4	0.0	395.5164361000061	0.10010695457458496
73	374.3818590641022	fix_pre	0		120	71.0	2.5	/experiments/AOT/AOT_stimuli/rescaled_final/0379_fw.mp4	0.0	395.6165430545807	1.0000028610229492
73	375.3818619251251	movie	1		243	71.0	2.5	/experiments/AOT/AOT_stimuli/rescaled_final/0379_fw.mp4	0.0	396.61654591560364	2.5000500679016113
73	375.76522612571716	pulse	1	t		71.0	2.5	/experiments/AOT/AOT_stimuli/rescaled_final/0379_fw.mp4	0.0	396.9999101161957	
73	377.3653221130371	pulse	1	t		71.0	2.5	/experiments/AOT/AOT_stimuli/rescaled_final/0379_fw.mp4	0.0	398.6000061035156	
73	377.88191199302673	fix_post	2		12	71.0	2.5	/experiments/AOT/AOT_stimuli/rescaled_final/0379_fw.mp4	0.0	399.11659598350525	0.09999990463256836
74	377.9819118976593	fix_pre	0		119	72.0	2.5	/experiments/AOT/AOT_stimuli/rescaled_final/1529_fw.mp4	0.0	399.2165958881378	0.9915111064910889
74	378.9653351306915	pulse	0	t		72.0	2.5	/experiments/AOT/AOT_stimuli/rescaled_final/1529_fw.mp4	0.0	400.20001912117004	
74	378.9734230041504	movie	1		243	72.0	2.5	/experiments/AOT/AOT_stimuli/rescaled_final/1529_fw.mp4	0.0	400.2081069946289	2.5084540843963623
74	380.5650451183319	pulse	1	t		72.0	2.5	/experiments/AOT/AOT_stimuli/rescaled_final/1529_fw.mp4	0.0	401.7997291088104	
74	381.48187708854675	fix_post	2		12	72.0	2.5	/experiments/AOT/AOT_stimuli/rescaled_final/1529_fw.mp4	0.0	402.71656107902527	0.09997200965881348
75	381.58184909820557	fix_pre	0		120	73.0	2.5	/experiments/AOT/AOT_stimuli/rescaled_final/1018_rv.mp4	0.0	402.8165330886841	0.9999279975891113
75	382.16528511047363	pulse	0	t		73.0	2.5	/experiments/AOT/AOT_stimuli/rescaled_final/1018_rv.mp4	0.0	403.39996910095215	
75	382.5817770957947	movie	1		246	73.0	2.5	/experiments/AOT/AOT_stimuli/rescaled_final/1018_rv.mp4	0.0	403.8164610862732	2.5000159740448
75	383.7654061317444	pulse	1	t		73.0	2.5	/experiments/AOT/AOT_stimuli/rescaled_final/1018_rv.mp4	0.0	405.0000901222229	
75	385.0817930698395	fix_post	2		12	73.0	2.5	/experiments/AOT/AOT_stimuli/rescaled_final/1018_rv.mp4	0.0	406.316477060318	0.09998893737792969
76	385.1817820072174	fix_pre	0		120	74.0	2.5	/experiments/AOT/AOT_stimuli/rescaled_final/1721_rv.mp4	0.0	406.4164659976959	1.0000638961791992
76	385.36533308029175	pulse	0	t		74.0	2.5	/experiments/AOT/AOT_stimuli/rescaled_final/1721_rv.mp4	0.0	406.60001707077026	
76	386.1818459033966	movie	1		244	74.0	2.5	/experiments/AOT/AOT_stimuli/rescaled_final/1721_rv.mp4	0.0	407.4165298938751	2.499495029449463
76	386.9653100967407	pulse	1	t		74.0	2.5	/experiments/AOT/AOT_stimuli/rescaled_final/1721_rv.mp4	0.0	408.19999408721924	
76	388.563777923584	pulse	1	t		74.0	2.5	/experiments/AOT/AOT_stimuli/rescaled_final/1721_rv.mp4	0.0	409.7984619140625	
76	388.68134093284607	fix_post	2		12	74.0	2.5	/experiments/AOT/AOT_stimuli/rescaled_final/1721_rv.mp4	0.0	409.9160249233246	0.10045504570007324
77	388.78179597854614	fix_pre	0		120	75.0	2.5	blank	1.0	410.01647996902466	0.999748945236206
77	389.78154492378235	movie	1		300	75.0	2.5	blank	1.0	411.01622891426086	2.500387191772461
77	390.1648509502411	pulse	1	t		75.0	2.5	blank	1.0	411.3995349407196	
77	391.7650239467621	pulse	1	t		75.0	2.5	blank	1.0	412.9997079372406	
77	392.2819321155548	fix_post	2		12	75.0	2.5	blank	1.0	413.5166161060333	0.09963679313659668
78	392.3815689086914	fix_pre	0		119	76.0	2.5	/experiments/AOT/AOT_stimuli/rescaled_final/1497_rv.mp4	0.0	413.6162528991699	0.9919052124023438
78	393.3652539253235	pulse	0	t		76.0	2.5	/experiments/AOT/AOT_stimuli/rescaled_final/1497_rv.mp4	0.0	414.599937915802	
78	393.37347412109375	movie	1		247	76.0	2.5	/experiments/AOT/AOT_stimuli/rescaled_final/1497_rv.mp4	0.0	414.60815811157227	2.508255958557129
78	394.9645631313324	pulse	1	t		76.0	2.5	/experiments/AOT/AOT_stimuli/rescaled_final/1497_rv.mp4	0.0	416.1992471218109	
78	395.8817300796509	fix_post	2		12	76.0	2.5	/experiments/AOT/AOT_stimuli/rescaled_final/1497_rv.mp4	0.0	417.1164140701294	0.09999704360961914
79	395.9817271232605	fix_pre	0		120	77.0	2.5	/experiments/AOT/AOT_stimuli/rescaled_final/1719_fw.mp4	0.0	417.216411113739	1.0000228881835938
79	396.5652759075165	pulse	0	t		77.0	2.5	/experiments/AOT/AOT_stimuli/rescaled_final/1719_fw.mp4	0.0	417.799959897995	
79	396.9817500114441	movie	1		246	77.0	2.5	/experiments/AOT/AOT_stimuli/rescaled_final/1719_fw.mp4	0.0	418.2164340019226	2.499958038330078
79	398.1651680469513	pulse	1	t		77.0	2.5	/experiments/AOT/AOT_stimuli/rescaled_final/1719_fw.mp4	0.0	419.3998520374298	
79	399.48170804977417	fix_post	2		12	77.0	2.5	/experiments/AOT/AOT_stimuli/rescaled_final/1719_fw.mp4	0.0	420.7163920402527	0.10000991821289062
80	399.58171796798706	fix_pre	0		120	78.0	2.5	/experiments/AOT/AOT_stimuli/rescaled_final/0430_fw.mp4	0.0	420.8164019584656	1.0000040531158447
80	399.7652270793915	pulse	0	t		78.0	2.5	/experiments/AOT/AOT_stimuli/rescaled_final/0430_fw.mp4	0.0	420.99991106987	
80	400.5817220211029	movie	1		244	78.0	2.5	/experiments/AOT/AOT_stimuli/rescaled_final/0430_fw.mp4	0.0	421.8164060115814	2.499911069869995
80	401.3651440143585	pulse	1	t		78.0	2.5	/experiments/AOT/AOT_stimuli/rescaled_final/0430_fw.mp4	0.0	422.59982800483704	
80	402.965784072876	pulse	1	t		78.0	2.5	/experiments/AOT/AOT_stimuli/rescaled_final/0430_fw.mp4	0.0	424.2004680633545	
80	403.0816330909729	fix_post	2		12	78.0	2.5	/experiments/AOT/AOT_stimuli/rescaled_final/0430_fw.mp4	0.0	424.3163170814514	0.10002899169921875
81	403.1816620826721	fix_pre	0		120	79.0	2.5	/experiments/AOT/AOT_stimuli/rescaled_final/2135_rv.mp4	0.0	424.41634607315063	0.9996159076690674
81	404.1812779903412	movie	1		245	79.0	2.5	/experiments/AOT/AOT_stimuli/rescaled_final/2135_rv.mp4	0.0	425.4159619808197	2.500014066696167
81	404.5651569366455	pulse	1	t		79.0	2.5	/experiments/AOT/AOT_stimuli/rescaled_final/2135_rv.mp4	0.0	425.799840927124	
81	406.1651530265808	pulse	1	t		79.0	2.5	/experiments/AOT/AOT_stimuli/rescaled_final/2135_rv.mp4	0.0	427.3998370170593	
81	406.68129205703735	fix_post	2		12	79.0	2.5	/experiments/AOT/AOT_stimuli/rescaled_final/2135_rv.mp4	0.0	427.91597604751587	0.10047101974487305
82	406.7817630767822	fix_pre	0		119	80.0	2.5	/experiments/AOT/AOT_stimuli/rescaled_final/1831_fw.mp4	0.0	428.01644706726074	0.9915478229522705
82	407.76518297195435	pulse	0	t		80.0	2.5	/experiments/AOT/AOT_stimuli/rescaled_final/1831_fw.mp4	0.0	428.99986696243286	
82	407.7733108997345	movie	1		243	80.0	2.5	/experiments/AOT/AOT_stimuli/rescaled_final/1831_fw.mp4	0.0	429.007994890213	2.507935047149658
82	409.36659812927246	pulse	1	t		80.0	2.5	/experiments/AOT/AOT_stimuli/rescaled_final/1831_fw.mp4	0.0	430.601282119751	
82	410.28124594688416	fix_post	2		12	80.0	2.5	/experiments/AOT/AOT_stimuli/rescaled_final/1831_fw.mp4	0.0	431.51592993736267	0.1004180908203125
83	410.38166403770447	fix_pre	0		120	81.0	2.5	/experiments/AOT/AOT_stimuli/rescaled_final/1697_fw.mp4	0.0	431.616348028183	1.0000250339508057
83	410.9651699066162	pulse	0	t		81.0	2.5	/experiments/AOT/AOT_stimuli/rescaled_final/1697_fw.mp4	0.0	432.1998538970947	
83	411.3816890716553	movie	1		245	81.0	2.5	/experiments/AOT/AOT_stimuli/rescaled_final/1697_fw.mp4	0.0	432.6163730621338	2.4999749660491943
83	412.56523990631104	pulse	1	t		81.0	2.5	/experiments/AOT/AOT_stimuli/rescaled_final/1697_fw.mp4	0.0	433.79992389678955	
83	413.88166403770447	fix_post	2		12	81.0	2.5	/experiments/AOT/AOT_stimuli/rescaled_final/1697_fw.mp4	0.0	435.116348028183	0.09997200965881348
84	413.9816360473633	fix_pre	0		120	82.0	2.5	blank	1.0	435.2163200378418	0.9999809265136719
84	414.1652009487152	pulse	0	t		82.0	2.5	blank	1.0	435.3998849391937	
84	414.98161697387695	movie	1		300	82.0	2.5	blank	1.0	436.21630096435547	2.4999449253082275
84	415.7651619911194	pulse	1	t		82.0	2.5	blank	1.0	436.9998459815979	
84	417.3651399612427	pulse	1	t		82.0	2.5	blank	1.0	438.5998239517212	
84	417.4815618991852	fix_post	2		12	82.0	2.5	blank	1.0	438.7162458896637	0.10004615783691406
85	417.5816080570221	fix_pre	0		120	83.0	2.5	/experiments/AOT/AOT_stimuli/rescaled_final/1998_fw.mp4	0.0	438.8162920475006	1.0001919269561768
85	418.58179998397827	movie	1		243	83.0	2.5	/experiments/AOT/AOT_stimuli/rescaled_final/1998_fw.mp4	0.0	439.8164839744568	2.499738931655884
85	418.9647750854492	pulse	1	t		83.0	2.5	/experiments/AOT/AOT_stimuli/rescaled_final/1998_fw.mp4	0.0	440.19945907592773	
85	420.5651640892029	pulse	1	t		83.0	2.5	/experiments/AOT/AOT_stimuli/rescaled_final/1998_fw.mp4	0.0	441.7998480796814	
85	421.08153891563416	fix_post	2		12	83.0	2.5	/experiments/AOT/AOT_stimuli/rescaled_final/1998_fw.mp4	0.0	442.31622290611267	0.10012102127075195
87	421.1816599369049	stim	0		1716					442.4163439273834	14.29992413520813
87	422.16502809524536	pulse	0	t						443.3997120857239	
87	423.76515102386475	pulse	0	t						444.99983501434326	
87	425.3650629520416	pulse	0	t						446.59974694252014	
87	426.96505093574524	pulse	0	t						448.19973492622375	
87	428.5650100708008	pulse	0	t						449.7996940612793	
87	430.1650290489197	pulse	0	t						451.3997130393982	
87	431.7650260925293	pulse	0	t						452.9997100830078	
87	433.36500000953674	pulse	0	t						454.59968400001526	
87	434.9650499820709	pulse	0	t						456.19973397254944	
