trial_nr	onset	event_type	phase	response	nr_frames	movie_index	movie_duration	movie_file	blank	onset_abs	duration
0	0.1582188606262207	stim	0		19					20.751595973968506	0.15834403038024902
0	0.3087649345397949	response	0	space						20.90214204788208	
1	0.3165628910064697	stim	0		4683					20.909940004348755	39.024879932403564
1	39.336730003356934	pulse	0	t						59.93010711669922	
1	39.341442823410034	stim	1		1717					59.93481993675232	14.308190107345581
1	40.93322682380676	pulse	1	t						61.52660393714905	
1	42.52592086791992	pulse	1	t						63.11929798126221	
1	44.13318085670471	pulse	1	t						64.726557970047	
1	45.733269929885864	pulse	1	t						66.32664704322815	
1	47.33296298980713	pulse	1	t						67.92634010314941	
1	48.933109998703	pulse	1	t						69.52648711204529	
1	50.533262968063354	pulse	1	t						71.12664008140564	
1	52.13315486907959	pulse	1	t						72.72653198242188	
2	53.649632930755615	fix_pre	0		11	0.0	2.5	/experiments/AOT/AOT_stimuli/rescaled_final/1666_rv.mp4	0.0	74.2430100440979	0.09165501594543457
2	53.733256816864014	pulse	0	t		0.0	2.5	/experiments/AOT/AOT_stimuli/rescaled_final/1666_rv.mp4	0.0	74.3266339302063	
2	53.74128794670105	movie	1		243	0.0	2.5	/experiments/AOT/AOT_stimuli/rescaled_final/1666_rv.mp4	0.0	74.33466506004333	2.507997989654541
2	55.332695960998535	pulse	1	t		0.0	2.5	/experiments/AOT/AOT_stimuli/rescaled_final/1666_rv.mp4	0.0	75.92607307434082	
2	56.24928593635559	fix_post	2		12	0.0	2.5	/experiments/AOT/AOT_stimuli/rescaled_final/1666_rv.mp4	0.0	76.84266304969788	0.10033488273620605
3	56.3496208190918	fix_pre	0		120	1.0	2.5	/experiments/AOT/AOT_stimuli/rescaled_final/1244_fw.mp4	0.0	76.94299793243408	0.9999961853027344
3	56.933143854141235	pulse	0	t		1.0	2.5	/experiments/AOT/AOT_stimuli/rescaled_final/1244_fw.mp4	0.0	77.52652096748352	
3	57.34961700439453	movie	1		244	1.0	2.5	/experiments/AOT/AOT_stimuli/rescaled_final/1244_fw.mp4	0.0	77.94299411773682	2.499974012374878
3	58.53322792053223	pulse	1	t		1.0	2.5	/experiments/AOT/AOT_stimuli/rescaled_final/1244_fw.mp4	0.0	79.12660503387451	
3	59.84959101676941	fix_post	2		12	1.0	2.5	/experiments/AOT/AOT_stimuli/rescaled_final/1244_fw.mp4	0.0	80.4429681301117	0.10001683235168457
4	59.949607849121094	fix_pre	0		120	2.0	2.5	/experiments/AOT/AOT_stimuli/rescaled_final/2106_fw.mp4	0.0	80.54298496246338	1.0000050067901611
4	60.13305592536926	pulse	0	t		2.0	2.5	/experiments/AOT/AOT_stimuli/rescaled_final/2106_fw.mp4	0.0	80.72643303871155	
4	60.949612855911255	movie	1		246	2.0	2.5	/experiments/AOT/AOT_stimuli/rescaled_final/2106_fw.mp4	0.0	81.54298996925354	2.4999351501464844
4	61.7330858707428	pulse	1	t		2.0	2.5	/experiments/AOT/AOT_stimuli/rescaled_final/2106_fw.mp4	0.0	82.32646298408508	
4	63.331782817840576	pulse	1	t		2.0	2.5	/experiments/AOT/AOT_stimuli/rescaled_final/2106_fw.mp4	0.0	83.92515993118286	
4	63.44954800605774	fix_post	2		12	2.0	2.5	/experiments/AOT/AOT_stimuli/rescaled_final/2106_fw.mp4	0.0	84.04292511940002	0.10008692741394043
5	63.54963493347168	fix_pre	0		120	3.0	2.5	/experiments/AOT/AOT_stimuli/rescaled_final/0734_rv.mp4	0.0	84.14301204681396	0.9995288848876953
5	64.54916381835938	movie	1		247	3.0	2.5	/experiments/AOT/AOT_stimuli/rescaled_final/0734_rv.mp4	0.0	85.14254093170166	2.5000970363616943
5	64.93436193466187	pulse	1	t		3.0	2.5	/experiments/AOT/AOT_stimuli/rescaled_final/0734_rv.mp4	0.0	85.52773904800415	
5	66.5331540107727	pulse	1	t		3.0	2.5	/experiments/AOT/AOT_stimuli/rescaled_final/0734_rv.mp4	0.0	87.12653112411499	
5	67.04926085472107	fix_post	2		12	3.0	2.5	/experiments/AOT/AOT_stimuli/rescaled_final/0734_rv.mp4	0.0	87.64263796806335	0.09989094734191895
6	67.14915180206299	fix_pre	0		119	4.0	2.5	/experiments/AOT/AOT_stimuli/rescaled_final/0222_fw.mp4	0.0	87.74252891540527	0.9920740127563477
6	68.13313698768616	pulse	0	t		4.0	2.5	/experiments/AOT/AOT_stimuli/rescaled_final/0222_fw.mp4	0.0	88.72651410102844	
6	68.14122581481934	movie	1		246	4.0	2.5	/experiments/AOT/AOT_stimuli/rescaled_final/0222_fw.mp4	0.0	88.73460292816162	2.5083250999450684
6	69.73297786712646	pulse	1	t		4.0	2.5	/experiments/AOT/AOT_stimuli/rescaled_final/0222_fw.mp4	0.0	90.32635498046875	
6	70.6495509147644	fix_post	2		12	4.0	2.5	/experiments/AOT/AOT_stimuli/rescaled_final/0222_fw.mp4	0.0	91.24292802810669	0.09999489784240723
7	70.74954581260681	fix_pre	0		120	5.0	2.5	/experiments/AOT/AOT_stimuli/rescaled_final/2093_rv.mp4	0.0	91.3429229259491	1.0000300407409668
7	71.33310985565186	pulse	0	t		5.0	2.5	/experiments/AOT/AOT_stimuli/rescaled_final/2093_rv.mp4	0.0	91.92648696899414	
7	71.74957585334778	movie	1		244	5.0	2.5	/experiments/AOT/AOT_stimuli/rescaled_final/2093_rv.mp4	0.0	92.34295296669006	2.4995639324188232
7	72.93311190605164	pulse	1	t		5.0	2.5	/experiments/AOT/AOT_stimuli/rescaled_final/2093_rv.mp4	0.0	93.52648901939392	
7	74.2491397857666	fix_post	2		12	5.0	2.5	/experiments/AOT/AOT_stimuli/rescaled_final/2093_rv.mp4	0.0	94.84251689910889	0.10046005249023438
8	74.34959983825684	fix_pre	0		120	6.0	2.5	blank	1.0	94.94297695159912	0.9999880790710449
8	74.53306889533997	pulse	0	t		6.0	2.5	blank	1.0	95.12644600868225	
8	75.34958791732788	movie	1		300	6.0	2.5	blank	1.0	95.94296503067017	2.4995880126953125
8	76.13311696052551	pulse	1	t		6.0	2.5	blank	1.0	96.7264940738678	
8	77.73303699493408	pulse	1	t		6.0	2.5	blank	1.0	98.32641410827637	
8	77.8491759300232	fix_post	2		12	6.0	2.5	blank	1.0	98.44255304336548	0.10030102729797363
9	77.94947695732117	fix_pre	0		120	7.0	2.5	/experiments/AOT/AOT_stimuli/rescaled_final/1158_fw.mp4	0.0	98.54285407066345	1.0000998973846436
9	78.94957685470581	movie	1		244	7.0	2.5	/experiments/AOT/AOT_stimuli/rescaled_final/1158_fw.mp4	0.0	99.5429539680481	2.4999051094055176
9	79.33245182037354	pulse	1	t		7.0	2.5	/experiments/AOT/AOT_stimuli/rescaled_final/1158_fw.mp4	0.0	99.92582893371582	
9	80.93312001228333	pulse	1	t		7.0	2.5	/experiments/AOT/AOT_stimuli/rescaled_final/1158_fw.mp4	0.0	101.52649712562561	
9	81.44948196411133	fix_post	2		12	7.0	2.5	/experiments/AOT/AOT_stimuli/rescaled_final/1158_fw.mp4	0.0	102.04285907745361	0.10003089904785156
10	81.54951286315918	fix_pre	0		119	8.0	2.5	/experiments/AOT/AOT_stimuli/rescaled_final/1381_fw.mp4	0.0	102.14288997650146	0.99173903465271
10	82.53311085700989	pulse	0	t		8.0	2.5	/experiments/AOT/AOT_stimuli/rescaled_final/1381_fw.mp4	0.0	103.12648797035217	
10	82.54125189781189	movie	1		248	8.0	2.5	/experiments/AOT/AOT_stimuli/rescaled_final/1381_fw.mp4	0.0	103.13462901115417	2.5078749656677246
10	84.13294696807861	pulse	1	t		8.0	2.5	/experiments/AOT/AOT_stimuli/rescaled_final/1381_fw.mp4	0.0	104.7263240814209	
10	85.04912686347961	fix_post	2		12	8.0	2.5	/experiments/AOT/AOT_stimuli/rescaled_final/1381_fw.mp4	0.0	105.6425039768219	0.10044097900390625
11	85.14956784248352	fix_pre	0		120	9.0	2.5	/experiments/AOT/AOT_stimuli/rescaled_final/2112_fw.mp4	0.0	105.7429449558258	0.9999160766601562
11	85.73307180404663	pulse	0	t		9.0	2.5	/experiments/AOT/AOT_stimuli/rescaled_final/2112_fw.mp4	0.0	106.32644891738892	
11	86.14948391914368	movie	1		246	9.0	2.5	/experiments/AOT/AOT_stimuli/rescaled_final/2112_fw.mp4	0.0	106.74286103248596	2.5000150203704834
11	87.33308386802673	pulse	1	t		9.0	2.5	/experiments/AOT/AOT_stimuli/rescaled_final/2112_fw.mp4	0.0	107.92646098136902	
11	88.64949893951416	fix_post	2		12	9.0	2.5	/experiments/AOT/AOT_stimuli/rescaled_final/2112_fw.mp4	0.0	109.24287605285645	0.10000085830688477
12	88.74949979782104	fix_pre	0		120	10.0	2.5	/experiments/AOT/AOT_stimuli/rescaled_final/0118_rv.mp4	0.0	109.34287691116333	1.0000171661376953
12	88.93302989006042	pulse	0	t		10.0	2.5	/experiments/AOT/AOT_stimuli/rescaled_final/0118_rv.mp4	0.0	109.52640700340271	
12	89.74951696395874	movie	1		243	10.0	2.5	/experiments/AOT/AOT_stimuli/rescaled_final/0118_rv.mp4	0.0	110.34289407730103	2.499941825866699
12	90.53300094604492	pulse	1	t		10.0	2.5	/experiments/AOT/AOT_stimuli/rescaled_final/0118_rv.mp4	0.0	111.1263780593872	
12	92.1314148902893	pulse	1	t		10.0	2.5	/experiments/AOT/AOT_stimuli/rescaled_final/0118_rv.mp4	0.0	112.72479200363159	
12	92.24945878982544	fix_post	2		12	10.0	2.5	/experiments/AOT/AOT_stimuli/rescaled_final/0118_rv.mp4	0.0	112.84283590316772	0.10010600090026855
13	92.34956479072571	fix_pre	0		120	11.0	2.5	/experiments/AOT/AOT_stimuli/rescaled_final/1273_fw.mp4	0.0	112.942941904068	0.9995241165161133
13	93.34908890724182	movie	1		244	11.0	2.5	/experiments/AOT/AOT_stimuli/rescaled_final/1273_fw.mp4	0.0	113.9424660205841	2.5004420280456543
13	93.73265600204468	pulse	1	t		11.0	2.5	/experiments/AOT/AOT_stimuli/rescaled_final/1273_fw.mp4	0.0	114.32603311538696	
13	95.33304786682129	pulse	1	t		11.0	2.5	/experiments/AOT/AOT_stimuli/rescaled_final/1273_fw.mp4	0.0	115.92642498016357	
13	95.84953093528748	fix_post	2		12	11.0	2.5	/experiments/AOT/AOT_stimuli/rescaled_final/1273_fw.mp4	0.0	116.44290804862976	0.09990692138671875
14	95.9494378566742	fix_pre	0		119	12.0	2.5	/experiments/AOT/AOT_stimuli/rescaled_final/2035_rv.mp4	0.0	116.54281497001648	0.9917881488800049
14	96.93304085731506	pulse	0	t		12.0	2.5	/experiments/AOT/AOT_stimuli/rescaled_final/2035_rv.mp4	0.0	117.52641797065735	
14	96.9412260055542	movie	1		244	12.0	2.5	/experiments/AOT/AOT_stimuli/rescaled_final/2035_rv.mp4	0.0	117.53460311889648	2.5078468322753906
14	98.53409886360168	pulse	1	t		12.0	2.5	/experiments/AOT/AOT_stimuli/rescaled_final/2035_rv.mp4	0.0	119.12747597694397	
14	99.44907283782959	fix_post	2		12	12.0	2.5	/experiments/AOT/AOT_stimuli/rescaled_final/2035_rv.mp4	0.0	120.04244995117188	0.10035300254821777
15	99.54942584037781	fix_pre	0		120	13.0	2.5	/experiments/AOT/AOT_stimuli/rescaled_final/2132_rv.mp4	0.0	120.14280295372009	1.0000200271606445
15	100.13294196128845	pulse	0	t		13.0	2.5	/experiments/AOT/AOT_stimuli/rescaled_final/2132_rv.mp4	0.0	120.72631907463074	
15	100.54944586753845	movie	1		244	13.0	2.5	/experiments/AOT/AOT_stimuli/rescaled_final/2132_rv.mp4	0.0	121.14282298088074	2.5000741481781006
15	101.73255181312561	pulse	1	t		13.0	2.5	/experiments/AOT/AOT_stimuli/rescaled_final/2132_rv.mp4	0.0	122.3259289264679	
15	103.04952001571655	fix_post	2		12	13.0	2.5	/experiments/AOT/AOT_stimuli/rescaled_final/2132_rv.mp4	0.0	123.64289712905884	0.09961390495300293
16	103.14913392066956	fix_pre	0		120	14.0	2.5	blank	1.0	123.74251103401184	1.000196933746338
16	103.33264589309692	pulse	0	t		14.0	2.5	blank	1.0	123.92602300643921	
16	104.1493308544159	movie	1		300	14.0	2.5	blank	1.0	124.74270796775818	2.500141143798828
16	104.93288993835449	pulse	1	t		14.0	2.5	blank	1.0	125.52626705169678	
16	106.53297400474548	pulse	1	t		14.0	2.5	blank	1.0	127.12635111808777	
16	106.64947199821472	fix_post	2		12	14.0	2.5	blank	1.0	127.242849111557	0.10011601448059082
17	106.74958801269531	fix_pre	0		120	15.0	2.5	/experiments/AOT/AOT_stimuli/rescaled_final/2034_rv.mp4	0.0	127.3429651260376	0.9999048709869385
17	107.74949288368225	movie	1		246	15.0	2.5	/experiments/AOT/AOT_stimuli/rescaled_final/2034_rv.mp4	0.0	128.34286999702454	2.499464988708496
17	108.13252186775208	pulse	1	t		15.0	2.5	/experiments/AOT/AOT_stimuli/rescaled_final/2034_rv.mp4	0.0	128.72589898109436	
17	109.73279285430908	pulse	1	t		15.0	2.5	/experiments/AOT/AOT_stimuli/rescaled_final/2034_rv.mp4	0.0	130.32616996765137	
17	110.24895787239075	fix_post	2		12	15.0	2.5	/experiments/AOT/AOT_stimuli/rescaled_final/2034_rv.mp4	0.0	130.84233498573303	0.10044193267822266
18	110.34939980506897	fix_pre	0		119	16.0	2.5	/experiments/AOT/AOT_stimuli/rescaled_final/2106_rv.mp4	0.0	130.94277691841125	0.9916350841522217
18	111.33284878730774	pulse	0	t		16.0	2.5	/experiments/AOT/AOT_stimuli/rescaled_final/2106_rv.mp4	0.0	131.92622590065002	
18	111.34103488922119	movie	1		247	16.0	2.5	/experiments/AOT/AOT_stimuli/rescaled_final/2106_rv.mp4	0.0	131.93441200256348	2.5083250999450684
18	112.93206691741943	pulse	1	t		16.0	2.5	/experiments/AOT/AOT_stimuli/rescaled_final/2106_rv.mp4	0.0	133.52544403076172	
18	113.84935998916626	fix_post	2		12	16.0	2.5	/experiments/AOT/AOT_stimuli/rescaled_final/2106_rv.mp4	0.0	134.44273710250854	0.09994792938232422
19	113.94930791854858	fix_pre	0		120	17.0	2.5	/experiments/AOT/AOT_stimuli/rescaled_final/0999_fw.mp4	0.0	134.54268503189087	1.0001389980316162
19	114.5328848361969	pulse	0	t		17.0	2.5	/experiments/AOT/AOT_stimuli/rescaled_final/0999_fw.mp4	0.0	135.12626194953918	
19	114.9494469165802	movie	1		246	17.0	2.5	/experiments/AOT/AOT_stimuli/rescaled_final/0999_fw.mp4	0.0	135.54282402992249	2.499940872192383
19	116.1329448223114	pulse	1	t		17.0	2.5	/experiments/AOT/AOT_stimuli/rescaled_final/0999_fw.mp4	0.0	136.7263219356537	
19	117.44938778877258	fix_post	2		12	17.0	2.5	/experiments/AOT/AOT_stimuli/rescaled_final/0999_fw.mp4	0.0	138.04276490211487	0.09960222244262695
20	117.54899001121521	fix_pre	0		120	18.0	2.5	/experiments/AOT/AOT_stimuli/rescaled_final/0138_rv.mp4	0.0	138.1423671245575	0.99993896484375
20	117.73290085792542	pulse	0	t		18.0	2.5	/experiments/AOT/AOT_stimuli/rescaled_final/0138_rv.mp4	0.0	138.3262779712677	
20	118.54892897605896	movie	1		244	18.0	2.5	/experiments/AOT/AOT_stimuli/rescaled_final/0138_rv.mp4	0.0	139.14230608940125	2.500680923461914
20	119.3327989578247	pulse	1	t		18.0	2.5	/experiments/AOT/AOT_stimuli/rescaled_final/0138_rv.mp4	0.0	139.926176071167	
20	120.93127083778381	pulse	1	t		18.0	2.5	/experiments/AOT/AOT_stimuli/rescaled_final/0138_rv.mp4	0.0	141.5246479511261	
20	121.04960989952087	fix_post	2		12	18.0	2.5	/experiments/AOT/AOT_stimuli/rescaled_final/0138_rv.mp4	0.0	141.64298701286316	0.09974789619445801
21	121.14935779571533	fix_pre	0		120	19.0	2.5	/experiments/AOT/AOT_stimuli/rescaled_final/0149_rv.mp4	0.0	141.74273490905762	1.0000381469726562
21	122.14939594268799	movie	1		244	19.0	2.5	/experiments/AOT/AOT_stimuli/rescaled_final/0149_rv.mp4	0.0	142.74277305603027	2.499971866607666
21	122.53281092643738	pulse	1	t		19.0	2.5	/experiments/AOT/AOT_stimuli/rescaled_final/0149_rv.mp4	0.0	143.12618803977966	
21	124.13281583786011	pulse	1	t		19.0	2.5	/experiments/AOT/AOT_stimuli/rescaled_final/0149_rv.mp4	0.0	144.7261929512024	
21	124.64936780929565	fix_post	2		12	19.0	2.5	/experiments/AOT/AOT_stimuli/rescaled_final/0149_rv.mp4	0.0	145.24274492263794	0.09997010231018066
22	124.74933791160583	fix_pre	0		119	20.0	2.5	/experiments/AOT/AOT_stimuli/rescaled_final/1371_rv.mp4	0.0	145.34271502494812	0.9916200637817383
22	125.73285484313965	pulse	0	t		20.0	2.5	/experiments/AOT/AOT_stimuli/rescaled_final/1371_rv.mp4	0.0	146.32623195648193	
22	125.74095797538757	movie	1		244	20.0	2.5	/experiments/AOT/AOT_stimuli/rescaled_final/1371_rv.mp4	0.0	146.33433508872986	2.508309841156006
22	127.33390283584595	pulse	1	t		20.0	2.5	/experiments/AOT/AOT_stimuli/rescaled_final/1371_rv.mp4	0.0	147.92727994918823	
22	128.24926781654358	fix_post	2		12	20.0	2.5	/experiments/AOT/AOT_stimuli/rescaled_final/1371_rv.mp4	0.0	148.84264492988586	0.10002017021179199
23	128.34928798675537	fix_pre	0		120	21.0	2.5	blank	1.0	148.94266510009766	0.999600887298584
23	128.93279695510864	pulse	0	t		21.0	2.5	blank	1.0	149.52617406845093	
23	129.34888887405396	movie	1		300	21.0	2.5	blank	1.0	149.94226598739624	2.5004029273986816
23	130.53282499313354	pulse	1	t		21.0	2.5	blank	1.0	151.12620210647583	
23	131.84929180145264	fix_post	2		12	21.0	2.5	blank	1.0	152.44266891479492	0.09998011589050293
24	131.94927191734314	fix_pre	0		120	22.0	2.5	/experiments/AOT/AOT_stimuli/rescaled_final/0049_fw.mp4	0.0	152.54264903068542	0.9996929168701172
24	132.13276386260986	pulse	0	t		22.0	2.5	/experiments/AOT/AOT_stimuli/rescaled_final/0049_fw.mp4	0.0	152.72614097595215	
24	132.94896483421326	movie	1		245	22.0	2.5	/experiments/AOT/AOT_stimuli/rescaled_final/0049_fw.mp4	0.0	153.54234194755554	2.5002779960632324
24	133.73283696174622	pulse	1	t		22.0	2.5	/experiments/AOT/AOT_stimuli/rescaled_final/0049_fw.mp4	0.0	154.3262140750885	
24	135.3314709663391	pulse	1	t		22.0	2.5	/experiments/AOT/AOT_stimuli/rescaled_final/0049_fw.mp4	0.0	155.9248480796814	
24	135.4492428302765	fix_post	2		12	22.0	2.5	/experiments/AOT/AOT_stimuli/rescaled_final/0049_fw.mp4	0.0	156.04261994361877	0.10013413429260254
25	135.5493769645691	fix_pre	0		120	23.0	2.5	/experiments/AOT/AOT_stimuli/rescaled_final/0872_fw.mp4	0.0	156.14275407791138	0.9998879432678223
25	136.5492649078369	movie	1		245	23.0	2.5	/experiments/AOT/AOT_stimuli/rescaled_final/0872_fw.mp4	0.0	157.1426420211792	2.500149965286255
25	136.93246293067932	pulse	1	t		23.0	2.5	/experiments/AOT/AOT_stimuli/rescaled_final/0872_fw.mp4	0.0	157.5258400440216	
25	138.53283190727234	pulse	1	t		23.0	2.5	/experiments/AOT/AOT_stimuli/rescaled_final/0872_fw.mp4	0.0	159.12620902061462	
25	139.04941487312317	fix_post	2		12	23.0	2.5	/experiments/AOT/AOT_stimuli/rescaled_final/0872_fw.mp4	0.0	159.64279198646545	0.09983301162719727
26	139.14924788475037	fix_pre	0		119	24.0	2.5	/experiments/AOT/AOT_stimuli/rescaled_final/1238_fw.mp4	0.0	159.74262499809265	0.9917011260986328
26	140.1327829360962	pulse	0	t		24.0	2.5	/experiments/AOT/AOT_stimuli/rescaled_final/1238_fw.mp4	0.0	160.72616004943848	
26	140.140949010849	movie	1		244	24.0	2.5	/experiments/AOT/AOT_stimuli/rescaled_final/1238_fw.mp4	0.0	160.73432612419128	2.508408784866333
26	141.73238801956177	pulse	1	t		24.0	2.5	/experiments/AOT/AOT_stimuli/rescaled_final/1238_fw.mp4	0.0	162.32576513290405	
26	142.64935779571533	fix_post	2		12	24.0	2.5	/experiments/AOT/AOT_stimuli/rescaled_final/1238_fw.mp4	0.0	163.24273490905762	0.09948420524597168
27	142.7488420009613	fix_pre	0		120	25.0	2.5	/experiments/AOT/AOT_stimuli/rescaled_final/0138_fw.mp4	0.0	163.3422191143036	1.000436782836914
27	143.3327808380127	pulse	0	t		25.0	2.5	/experiments/AOT/AOT_stimuli/rescaled_final/0138_fw.mp4	0.0	163.92615795135498	
27	143.74927878379822	movie	1		243	25.0	2.5	/experiments/AOT/AOT_stimuli/rescaled_final/0138_fw.mp4	0.0	164.3426558971405	2.499934196472168
27	144.93280601501465	pulse	1	t		25.0	2.5	/experiments/AOT/AOT_stimuli/rescaled_final/0138_fw.mp4	0.0	165.52618312835693	
27	146.24921298027039	fix_post	2		12	25.0	2.5	/experiments/AOT/AOT_stimuli/rescaled_final/0138_fw.mp4	0.0	166.84259009361267	0.10000395774841309
28	146.3492169380188	fix_pre	0		120	26.0	2.5	/experiments/AOT/AOT_stimuli/rescaled_final/1393_fw.mp4	0.0	166.94259405136108	1.000040054321289
28	146.53266596794128	pulse	0	t		26.0	2.5	/experiments/AOT/AOT_stimuli/rescaled_final/1393_fw.mp4	0.0	167.12604308128357	
28	147.3492569923401	movie	1		244	26.0	2.5	/experiments/AOT/AOT_stimuli/rescaled_final/1393_fw.mp4	0.0	167.94263410568237	2.4999899864196777
28	148.1326789855957	pulse	1	t		26.0	2.5	/experiments/AOT/AOT_stimuli/rescaled_final/1393_fw.mp4	0.0	168.726056098938	
28	149.73126983642578	pulse	1	t		26.0	2.5	/experiments/AOT/AOT_stimuli/rescaled_final/1393_fw.mp4	0.0	170.32464694976807	
28	149.84924697875977	fix_post	2		12	26.0	2.5	/experiments/AOT/AOT_stimuli/rescaled_final/1393_fw.mp4	0.0	170.44262409210205	0.10002899169921875
29	149.94927597045898	fix_pre	0		120	27.0	2.5	/experiments/AOT/AOT_stimuli/rescaled_final/1056_rv.mp4	0.0	170.54265308380127	1.0000598430633545
29	150.94933581352234	movie	1		242	27.0	2.5	/experiments/AOT/AOT_stimuli/rescaled_final/1056_rv.mp4	0.0	171.54271292686462	2.4994142055511475
29	151.33208799362183	pulse	1	t		27.0	2.5	/experiments/AOT/AOT_stimuli/rescaled_final/1056_rv.mp4	0.0	171.9254651069641	
29	152.9326708316803	pulse	1	t		27.0	2.5	/experiments/AOT/AOT_stimuli/rescaled_final/1056_rv.mp4	0.0	173.52604794502258	
29	153.4487500190735	fix_post	2		12	27.0	2.5	/experiments/AOT/AOT_stimuli/rescaled_final/1056_rv.mp4	0.0	174.04212713241577	0.10053682327270508
30	153.5492868423462	fix_pre	0		119	28.0	2.5	blank	1.0	174.14266395568848	0.9916520118713379
30	154.53280186653137	pulse	0	t		28.0	2.5	blank	1.0	175.12617897987366	
30	154.54093885421753	movie	1		301	28.0	2.5	blank	1.0	175.13431596755981	2.5083389282226562
30	156.1327269077301	pulse	1	t		28.0	2.5	blank	1.0	176.7261040210724	
30	157.04927778244019	fix_post	2		12	28.0	2.5	blank	1.0	177.64265489578247	0.09989023208618164
31	157.14916801452637	fix_pre	0		120	29.0	2.5	/experiments/AOT/AOT_stimuli/rescaled_final/0197_fw.mp4	0.0	177.74254512786865	0.9995617866516113
31	157.73271298408508	pulse	0	t		29.0	2.5	/experiments/AOT/AOT_stimuli/rescaled_final/0197_fw.mp4	0.0	178.32609009742737	
31	158.14872980117798	movie	1		245	29.0	2.5	/experiments/AOT/AOT_stimuli/rescaled_final/0197_fw.mp4	0.0	178.74210691452026	2.500361204147339
31	159.33285284042358	pulse	1	t		29.0	2.5	/experiments/AOT/AOT_stimuli/rescaled_final/0197_fw.mp4	0.0	179.92622995376587	
31	160.64909100532532	fix_post	2		12	29.0	2.5	/experiments/AOT/AOT_stimuli/rescaled_final/0197_fw.mp4	0.0	181.2424681186676	0.10042285919189453
32	160.7495138645172	fix_pre	0		120	30.0	2.5	/experiments/AOT/AOT_stimuli/rescaled_final/1237_rv.mp4	0.0	181.3428909778595	0.9996421337127686
32	160.93270993232727	pulse	0	t		30.0	2.5	/experiments/AOT/AOT_stimuli/rescaled_final/1237_rv.mp4	0.0	181.52608704566956	
32	161.74915599822998	movie	1		246	30.0	2.5	/experiments/AOT/AOT_stimuli/rescaled_final/1237_rv.mp4	0.0	182.34253311157227	2.499588966369629
32	162.5326268672943	pulse	1	t		30.0	2.5	/experiments/AOT/AOT_stimuli/rescaled_final/1237_rv.mp4	0.0	183.1260039806366	
32	164.13123488426208	pulse	1	t		30.0	2.5	/experiments/AOT/AOT_stimuli/rescaled_final/1237_rv.mp4	0.0	184.72461199760437	
32	164.2487449645996	fix_post	2		12	30.0	2.5	/experiments/AOT/AOT_stimuli/rescaled_final/1237_rv.mp4	0.0	184.8421220779419	0.10043883323669434
33	164.3491837978363	fix_pre	0		120	31.0	2.5	/experiments/AOT/AOT_stimuli/rescaled_final/0536_rv.mp4	0.0	184.9425609111786	0.9999840259552002
33	165.3491678237915	movie	1		244	31.0	2.5	/experiments/AOT/AOT_stimuli/rescaled_final/0536_rv.mp4	0.0	185.9425449371338	2.500030040740967
33	165.73224592208862	pulse	1	t		31.0	2.5	/experiments/AOT/AOT_stimuli/rescaled_final/0536_rv.mp4	0.0	186.3256230354309	
33	167.3326017856598	pulse	1	t		31.0	2.5	/experiments/AOT/AOT_stimuli/rescaled_final/0536_rv.mp4	0.0	187.92597889900208	
33	167.84919786453247	fix_post	2		12	31.0	2.5	/experiments/AOT/AOT_stimuli/rescaled_final/0536_rv.mp4	0.0	188.44257497787476	0.09988093376159668
34	167.94907879829407	fix_pre	0		119	32.0	2.5	/experiments/AOT/AOT_stimuli/rescaled_final/0908_fw.mp4	0.0	188.54245591163635	0.9917030334472656
34	168.9326319694519	pulse	0	t		32.0	2.5	/experiments/AOT/AOT_stimuli/rescaled_final/0908_fw.mp4	0.0	189.5260090827942	
34	168.94078183174133	movie	1		245	32.0	2.5	/experiments/AOT/AOT_stimuli/rescaled_final/0908_fw.mp4	0.0	189.53415894508362	2.507888078689575
34	170.5323989391327	pulse	1	t		32.0	2.5	/experiments/AOT/AOT_stimuli/rescaled_final/0908_fw.mp4	0.0	191.12577605247498	
34	171.4486699104309	fix_post	2		12	32.0	2.5	/experiments/AOT/AOT_stimuli/rescaled_final/0908_fw.mp4	0.0	192.0420470237732	0.10044288635253906
35	171.54911279678345	fix_pre	0		120	33.0	2.5	/experiments/AOT/AOT_stimuli/rescaled_final/2093_rv.mp4	0.0	192.14248991012573	0.9999780654907227
35	172.13259887695312	pulse	0	t		33.0	2.5	/experiments/AOT/AOT_stimuli/rescaled_final/2093_rv.mp4	0.0	192.7259759902954	
35	172.54909086227417	movie	1		243	33.0	2.5	/experiments/AOT/AOT_stimuli/rescaled_final/2093_rv.mp4	0.0	193.14246797561646	2.500028133392334
35	173.73263788223267	pulse	1	t		33.0	2.5	/experiments/AOT/AOT_stimuli/rescaled_final/2093_rv.mp4	0.0	194.32601499557495	
35	175.0491189956665	fix_post	2		12	33.0	2.5	/experiments/AOT/AOT_stimuli/rescaled_final/2093_rv.mp4	0.0	195.6424961090088	0.09992384910583496
36	175.14904284477234	fix_pre	0		120	34.0	2.5	blank	1.0	195.74241995811462	0.9996850490570068
36	175.3326017856598	pulse	0	t		34.0	2.5	blank	1.0	195.92597889900208	
36	176.14872789382935	movie	1		300	34.0	2.5	blank	1.0	196.74210500717163	2.5003700256347656
36	176.93260097503662	pulse	1	t		34.0	2.5	blank	1.0	197.5259780883789	
36	178.5326018333435	pulse	1	t		34.0	2.5	blank	1.0	199.1259789466858	
36	178.6490979194641	fix_post	2		12	34.0	2.5	blank	1.0	199.2424750328064	0.0999460220336914
37	178.7490439414978	fix_pre	0		120	35.0	2.5	/experiments/AOT/AOT_stimuli/rescaled_final/1244_rv.mp4	0.0	199.3424210548401	0.999690055847168
37	179.74873399734497	movie	1		245	35.0	2.5	/experiments/AOT/AOT_stimuli/rescaled_final/1244_rv.mp4	0.0	200.34211111068726	2.500293016433716
37	180.13209795951843	pulse	1	t		35.0	2.5	/experiments/AOT/AOT_stimuli/rescaled_final/1244_rv.mp4	0.0	200.72547507286072	
37	181.7325599193573	pulse	1	t		35.0	2.5	/experiments/AOT/AOT_stimuli/rescaled_final/1244_rv.mp4	0.0	202.32593703269958	
37	182.2490270137787	fix_post	2		12	35.0	2.5	/experiments/AOT/AOT_stimuli/rescaled_final/1244_rv.mp4	0.0	202.84240412712097	0.1000678539276123
38	182.3490948677063	fix_pre	0		119	36.0	2.5	/experiments/AOT/AOT_stimuli/rescaled_final/0769_fw.mp4	0.0	202.94247198104858	0.9915850162506104
38	183.33251690864563	pulse	0	t		36.0	2.5	/experiments/AOT/AOT_stimuli/rescaled_final/0769_fw.mp4	0.0	203.92589402198792	
38	183.3406798839569	movie	1		246	36.0	2.5	/experiments/AOT/AOT_stimuli/rescaled_final/0769_fw.mp4	0.0	203.9340569972992	2.508323907852173
38	184.93217492103577	pulse	1	t		36.0	2.5	/experiments/AOT/AOT_stimuli/rescaled_final/0769_fw.mp4	0.0	205.52555203437805	
38	185.84900379180908	fix_post	2		12	36.0	2.5	/experiments/AOT/AOT_stimuli/rescaled_final/0769_fw.mp4	0.0	206.44238090515137	0.10004210472106934
39	185.94904589653015	fix_pre	0		120	37.0	2.5	/experiments/AOT/AOT_stimuli/rescaled_final/1804_fw.mp4	0.0	206.54242300987244	0.9999840259552002
39	186.53257298469543	pulse	0	t		37.0	2.5	/experiments/AOT/AOT_stimuli/rescaled_final/1804_fw.mp4	0.0	207.12595009803772	
39	186.94902992248535	movie	1		246	37.0	2.5	/experiments/AOT/AOT_stimuli/rescaled_final/1804_fw.mp4	0.0	207.54240703582764	2.5000998973846436
39	188.13261580467224	pulse	1	t		37.0	2.5	/experiments/AOT/AOT_stimuli/rescaled_final/1804_fw.mp4	0.0	208.72599291801453	
39	189.44912981987	fix_post	2		12	37.0	2.5	/experiments/AOT/AOT_stimuli/rescaled_final/1804_fw.mp4	0.0	210.04250693321228	0.0999600887298584
40	189.54908990859985	fix_pre	0		120	38.0	2.5	/experiments/AOT/AOT_stimuli/rescaled_final/0511_fw.mp4	0.0	210.14246702194214	0.9999780654907227
40	189.73251390457153	pulse	0	t		38.0	2.5	/experiments/AOT/AOT_stimuli/rescaled_final/0511_fw.mp4	0.0	210.32589101791382	
40	190.54906797409058	movie	1		245	38.0	2.5	/experiments/AOT/AOT_stimuli/rescaled_final/0511_fw.mp4	0.0	211.14244508743286	2.499505043029785
40	191.33242678642273	pulse	1	t		38.0	2.5	/experiments/AOT/AOT_stimuli/rescaled_final/0511_fw.mp4	0.0	211.92580389976501	
40	192.92861485481262	pulse	1	t		38.0	2.5	/experiments/AOT/AOT_stimuli/rescaled_final/0511_fw.mp4	0.0	213.5219919681549	
40	193.04857301712036	fix_post	2		12	38.0	2.5	/experiments/AOT/AOT_stimuli/rescaled_final/0511_fw.mp4	0.0	213.64195013046265	0.10044479370117188
41	193.14901781082153	fix_pre	0		120	39.0	2.5	/experiments/AOT/AOT_stimuli/rescaled_final/1086_fw.mp4	0.0	213.74239492416382	0.999932050704956
41	194.1489498615265	movie	1		244	39.0	2.5	/experiments/AOT/AOT_stimuli/rescaled_final/1086_fw.mp4	0.0	214.74232697486877	2.4995920658111572
41	194.53212094306946	pulse	1	t		39.0	2.5	/experiments/AOT/AOT_stimuli/rescaled_final/1086_fw.mp4	0.0	215.12549805641174	
41	196.13251280784607	pulse	1	t		39.0	2.5	/experiments/AOT/AOT_stimuli/rescaled_final/1086_fw.mp4	0.0	216.72588992118835	
41	196.64854192733765	fix_post	2		12	39.0	2.5	/experiments/AOT/AOT_stimuli/rescaled_final/1086_fw.mp4	0.0	217.24191904067993	0.10042691230773926
42	196.74896883964539	fix_pre	0		119	40.0	2.5	blank	1.0	217.34234595298767	0.9917371273040771
42	197.73256397247314	pulse	0	t		40.0	2.5	blank	1.0	218.32594108581543	
42	197.74070596694946	movie	1		301	40.0	2.5	blank	1.0	218.33408308029175	2.5082428455352783
42	199.33249688148499	pulse	1	t		40.0	2.5	blank	1.0	219.92587399482727	
42	200.24894881248474	fix_post	2		12	40.0	2.5	blank	1.0	220.84232592582703	0.09999608993530273
43	200.34894490242004	fix_pre	0		120	41.0	2.5	/experiments/AOT/AOT_stimuli/rescaled_final/0795_fw.mp4	0.0	220.94232201576233	0.9999868869781494
43	200.93249487876892	pulse	0	t		41.0	2.5	/experiments/AOT/AOT_stimuli/rescaled_final/0795_fw.mp4	0.0	221.5258719921112	
43	201.3489317893982	movie	1		245	41.0	2.5	/experiments/AOT/AOT_stimuli/rescaled_final/0795_fw.mp4	0.0	221.94230890274048	2.500007152557373
43	202.5325779914856	pulse	1	t		41.0	2.5	/experiments/AOT/AOT_stimuli/rescaled_final/0795_fw.mp4	0.0	223.12595510482788	
43	203.84893894195557	fix_post	2		12	41.0	2.5	/experiments/AOT/AOT_stimuli/rescaled_final/0795_fw.mp4	0.0	224.44231605529785	0.10004401206970215
44	203.94898295402527	fix_pre	0		120	42.0	2.5	/experiments/AOT/AOT_stimuli/rescaled_final/1108_rv.mp4	0.0	224.54236006736755	0.9999759197235107
44	204.132474899292	pulse	0	t		42.0	2.5	/experiments/AOT/AOT_stimuli/rescaled_final/1108_rv.mp4	0.0	224.72585201263428	
44	204.94895887374878	movie	1		244	42.0	2.5	/experiments/AOT/AOT_stimuli/rescaled_final/1108_rv.mp4	0.0	225.54233598709106	2.499894142150879
44	205.7324697971344	pulse	1	t		42.0	2.5	/experiments/AOT/AOT_stimuli/rescaled_final/1108_rv.mp4	0.0	226.32584691047668	
44	207.33079290390015	pulse	1	t		42.0	2.5	/experiments/AOT/AOT_stimuli/rescaled_final/1108_rv.mp4	0.0	227.92417001724243	
44	207.44885301589966	fix_post	2		12	42.0	2.5	/experiments/AOT/AOT_stimuli/rescaled_final/1108_rv.mp4	0.0	228.04223012924194	0.10017085075378418
45	207.54902386665344	fix_pre	0		120	43.0	2.5	/experiments/AOT/AOT_stimuli/rescaled_final/1374_rv.mp4	0.0	228.14240097999573	0.9995551109313965
45	208.54857897758484	movie	1		243	43.0	2.5	/experiments/AOT/AOT_stimuli/rescaled_final/1374_rv.mp4	0.0	229.14195609092712	2.4999358654022217
45	208.9322748184204	pulse	1	t		43.0	2.5	/experiments/AOT/AOT_stimuli/rescaled_final/1374_rv.mp4	0.0	229.5256519317627	
45	210.53247594833374	pulse	1	t		43.0	2.5	/experiments/AOT/AOT_stimuli/rescaled_final/1374_rv.mp4	0.0	231.12585306167603	
45	211.04851484298706	fix_post	2		12	43.0	2.5	/experiments/AOT/AOT_stimuli/rescaled_final/1374_rv.mp4	0.0	231.64189195632935	0.10041213035583496
46	211.1489269733429	fix_pre	0		119	44.0	2.5	/experiments/AOT/AOT_stimuli/rescaled_final/0049_rv.mp4	0.0	231.74230408668518	0.9917008876800537
46	212.132572889328	pulse	0	t		44.0	2.5	/experiments/AOT/AOT_stimuli/rescaled_final/0049_rv.mp4	0.0	232.7259500026703	
46	212.14062786102295	movie	1		245	44.0	2.5	/experiments/AOT/AOT_stimuli/rescaled_final/0049_rv.mp4	0.0	232.73400497436523	2.5079610347747803
46	213.73328399658203	pulse	1	t		44.0	2.5	/experiments/AOT/AOT_stimuli/rescaled_final/0049_rv.mp4	0.0	234.32666110992432	
46	214.64858889579773	fix_post	2		12	44.0	2.5	/experiments/AOT/AOT_stimuli/rescaled_final/0049_rv.mp4	0.0	235.24196600914001	0.09998393058776855
47	214.7485728263855	fix_pre	0		120	45.0	2.5	/experiments/AOT/AOT_stimuli/rescaled_final/1627_fw.mp4	0.0	235.34194993972778	1.0005910396575928
47	215.33216285705566	pulse	0	t		45.0	2.5	/experiments/AOT/AOT_stimuli/rescaled_final/1627_fw.mp4	0.0	235.92553997039795	
47	215.7491638660431	movie	1		244	45.0	2.5	/experiments/AOT/AOT_stimuli/rescaled_final/1627_fw.mp4	0.0	236.34254097938538	2.4993109703063965
47	216.93244791030884	pulse	1	t		45.0	2.5	/experiments/AOT/AOT_stimuli/rescaled_final/1627_fw.mp4	0.0	237.52582502365112	
47	218.2484748363495	fix_post	2		12	45.0	2.5	/experiments/AOT/AOT_stimuli/rescaled_final/1627_fw.mp4	0.0	238.84185194969177	0.10002303123474121
48	218.34849786758423	fix_pre	0		120	46.0	2.5	/experiments/AOT/AOT_stimuli/rescaled_final/0127_rv.mp4	0.0	238.9418749809265	1.0005509853363037
48	218.53239583969116	pulse	0	t		46.0	2.5	/experiments/AOT/AOT_stimuli/rescaled_final/0127_rv.mp4	0.0	239.12577295303345	
48	219.34904885292053	movie	1		243	46.0	2.5	/experiments/AOT/AOT_stimuli/rescaled_final/0127_rv.mp4	0.0	239.94242596626282	2.4997780323028564
48	220.13234496116638	pulse	1	t		46.0	2.5	/experiments/AOT/AOT_stimuli/rescaled_final/0127_rv.mp4	0.0	240.72572207450867	
48	221.7308588027954	pulse	1	t		46.0	2.5	/experiments/AOT/AOT_stimuli/rescaled_final/0127_rv.mp4	0.0	242.3242359161377	
48	221.8488268852234	fix_post	2		12	46.0	2.5	/experiments/AOT/AOT_stimuli/rescaled_final/0127_rv.mp4	0.0	242.44220399856567	0.10003304481506348
49	221.94885993003845	fix_pre	0		120	47.0	2.5	blank	1.0	242.54223704338074	0.9999680519104004
49	222.94882798194885	movie	1		300	47.0	2.5	blank	1.0	243.54220509529114	2.4999918937683105
49	223.3323528766632	pulse	1	t		47.0	2.5	blank	1.0	243.9257299900055	
49	224.932363986969	pulse	1	t		47.0	2.5	blank	1.0	245.52574110031128	
49	225.44881987571716	fix_post	2		12	47.0	2.5	blank	1.0	246.04219698905945	0.10001802444458008
50	225.54883790016174	fix_pre	0		119	48.0	2.5	/experiments/AOT/AOT_stimuli/rescaled_final/1669_rv.mp4	0.0	246.14221501350403	0.9917480945587158
50	226.5323269367218	pulse	0	t		48.0	2.5	/experiments/AOT/AOT_stimuli/rescaled_final/1669_rv.mp4	0.0	247.1257040500641	
50	226.54058599472046	movie	1		246	48.0	2.5	/experiments/AOT/AOT_stimuli/rescaled_final/1669_rv.mp4	0.0	247.13396310806274	2.5082738399505615
50	228.13181281089783	pulse	1	t		48.0	2.5	/experiments/AOT/AOT_stimuli/rescaled_final/1669_rv.mp4	0.0	248.7251899242401	
50	229.04885983467102	fix_post	2		12	48.0	2.5	/experiments/AOT/AOT_stimuli/rescaled_final/1669_rv.mp4	0.0	249.6422369480133	0.09996795654296875
51	229.148827791214	fix_pre	0		120	49.0	2.5	/experiments/AOT/AOT_stimuli/rescaled_final/1473_fw.mp4	0.0	249.74220490455627	1.000002145767212
51	229.73220896720886	pulse	0	t		49.0	2.5	/experiments/AOT/AOT_stimuli/rescaled_final/1473_fw.mp4	0.0	250.32558608055115	
51	230.1488299369812	movie	1		246	49.0	2.5	/experiments/AOT/AOT_stimuli/rescaled_final/1473_fw.mp4	0.0	250.7422070503235	2.499652862548828
51	231.33236479759216	pulse	1	t		49.0	2.5	/experiments/AOT/AOT_stimuli/rescaled_final/1473_fw.mp4	0.0	251.92574191093445	
51	232.64848279953003	fix_post	2		12	49.0	2.5	/experiments/AOT/AOT_stimuli/rescaled_final/1473_fw.mp4	0.0	253.24185991287231	0.10033512115478516
52	232.74881792068481	fix_pre	0		120	50.0	2.5	/experiments/AOT/AOT_stimuli/rescaled_final/2132_fw.mp4	0.0	253.3421950340271	0.999953031539917
52	232.93232893943787	pulse	0	t		50.0	2.5	/experiments/AOT/AOT_stimuli/rescaled_final/2132_fw.mp4	0.0	253.52570605278015	
52	233.74877095222473	movie	1		243	50.0	2.5	/experiments/AOT/AOT_stimuli/rescaled_final/2132_fw.mp4	0.0	254.34214806556702	2.499997854232788
52	234.53233885765076	pulse	1	t		50.0	2.5	/experiments/AOT/AOT_stimuli/rescaled_final/2132_fw.mp4	0.0	255.12571597099304	
52	236.13078689575195	pulse	1	t		50.0	2.5	/experiments/AOT/AOT_stimuli/rescaled_final/2132_fw.mp4	0.0	256.72416400909424	
52	236.24876880645752	fix_post	2		12	50.0	2.5	/experiments/AOT/AOT_stimuli/rescaled_final/2132_fw.mp4	0.0	256.8421459197998	0.09998798370361328
53	236.34875679016113	fix_pre	0		120	51.0	2.5	/experiments/AOT/AOT_stimuli/rescaled_final/0127_rv.mp4	0.0	256.9421339035034	1.000007152557373
53	237.3487639427185	movie	1		243	51.0	2.5	/experiments/AOT/AOT_stimuli/rescaled_final/0127_rv.mp4	0.0	257.9421410560608	2.500005006790161
53	237.731871843338	pulse	1	t		51.0	2.5	/experiments/AOT/AOT_stimuli/rescaled_final/0127_rv.mp4	0.0	258.3252489566803	
53	239.3323118686676	pulse	1	t		51.0	2.5	/experiments/AOT/AOT_stimuli/rescaled_final/0127_rv.mp4	0.0	259.9256889820099	
53	239.84876894950867	fix_post	2		12	51.0	2.5	/experiments/AOT/AOT_stimuli/rescaled_final/0127_rv.mp4	0.0	260.44214606285095	0.10001087188720703
54	239.94877982139587	fix_pre	0		119	52.0	2.5	/experiments/AOT/AOT_stimuli/rescaled_final/0133_fw.mp4	0.0	260.54215693473816	0.9916520118713379
54	240.93226194381714	pulse	0	t		52.0	2.5	/experiments/AOT/AOT_stimuli/rescaled_final/0133_fw.mp4	0.0	261.5256390571594	
54	240.9404318332672	movie	1		244	52.0	2.5	/experiments/AOT/AOT_stimuli/rescaled_final/0133_fw.mp4	0.0	261.5338089466095	2.508331060409546
54	242.5322048664093	pulse	1	t		52.0	2.5	/experiments/AOT/AOT_stimuli/rescaled_final/0133_fw.mp4	0.0	263.1255819797516	
54	243.44876289367676	fix_post	2		12	52.0	2.5	/experiments/AOT/AOT_stimuli/rescaled_final/0133_fw.mp4	0.0	264.04214000701904	0.10001301765441895
55	243.54877591133118	fix_pre	0		120	53.0	2.5	/experiments/AOT/AOT_stimuli/rescaled_final/1596_rv.mp4	0.0	264.14215302467346	0.9999799728393555
55	244.13218998908997	pulse	0	t		53.0	2.5	/experiments/AOT/AOT_stimuli/rescaled_final/1596_rv.mp4	0.0	264.72556710243225	
55	244.54875588417053	movie	1		244	53.0	2.5	/experiments/AOT/AOT_stimuli/rescaled_final/1596_rv.mp4	0.0	265.1421329975128	2.4999749660491943
55	245.7322919368744	pulse	1	t		53.0	2.5	/experiments/AOT/AOT_stimuli/rescaled_final/1596_rv.mp4	0.0	266.3256690502167	
55	247.04873085021973	fix_post	2		12	53.0	2.5	/experiments/AOT/AOT_stimuli/rescaled_final/1596_rv.mp4	0.0	267.642107963562	0.10000109672546387
56	247.1487319469452	fix_pre	0		120	54.0	2.5	/experiments/AOT/AOT_stimuli/rescaled_final/0468_fw.mp4	0.0	267.7421090602875	0.9999690055847168
56	247.33223390579224	pulse	0	t		54.0	2.5	/experiments/AOT/AOT_stimuli/rescaled_final/0468_fw.mp4	0.0	267.9256110191345	
56	248.1487009525299	movie	1		245	54.0	2.5	/experiments/AOT/AOT_stimuli/rescaled_final/0468_fw.mp4	0.0	268.7420780658722	2.499755859375
56	248.9322168827057	pulse	1	t		54.0	2.5	/experiments/AOT/AOT_stimuli/rescaled_final/0468_fw.mp4	0.0	269.525593996048	
56	250.53083395957947	pulse	1	t		54.0	2.5	/experiments/AOT/AOT_stimuli/rescaled_final/0468_fw.mp4	0.0	271.12421107292175	
56	250.6484568119049	fix_post	2		12	54.0	2.5	/experiments/AOT/AOT_stimuli/rescaled_final/0468_fw.mp4	0.0	271.2418339252472	0.10034418106079102
57	250.7488009929657	fix_pre	0		120	55.0	2.5	/experiments/AOT/AOT_stimuli/rescaled_final/1102_rv.mp4	0.0	271.342178106308	0.9999279975891113
57	251.7487289905548	movie	1		245	55.0	2.5	/experiments/AOT/AOT_stimuli/rescaled_final/1102_rv.mp4	0.0	272.3421061038971	2.4997758865356445
57	252.13329887390137	pulse	1	t		55.0	2.5	/experiments/AOT/AOT_stimuli/rescaled_final/1102_rv.mp4	0.0	272.72667598724365	
57	253.73225593566895	pulse	1	t		55.0	2.5	/experiments/AOT/AOT_stimuli/rescaled_final/1102_rv.mp4	0.0	274.32563304901123	
57	254.24850487709045	fix_post	2		12	55.0	2.5	/experiments/AOT/AOT_stimuli/rescaled_final/1102_rv.mp4	0.0	274.84188199043274	0.10028910636901855
58	254.34879398345947	fix_pre	0		119	56.0	2.5	blank	1.0	274.94217109680176	0.991567850112915
58	255.33225178718567	pulse	0	t		56.0	2.5	blank	1.0	275.92562890052795	
58	255.3403618335724	movie	1		301	56.0	2.5	blank	1.0	275.9337389469147	2.508368968963623
58	256.9321959018707	pulse	1	t		56.0	2.5	blank	1.0	277.525573015213	
58	257.848730802536	fix_post	2		12	56.0	2.5	blank	1.0	278.4421079158783	0.10001301765441895
59	257.94874382019043	fix_pre	0		120	57.0	2.5	/experiments/AOT/AOT_stimuli/rescaled_final/0254_rv.mp4	0.0	278.5421209335327	0.9995059967041016
59	258.5321488380432	pulse	0	t		57.0	2.5	/experiments/AOT/AOT_stimuli/rescaled_final/0254_rv.mp4	0.0	279.1255259513855	
59	258.94824981689453	movie	1		244	57.0	2.5	/experiments/AOT/AOT_stimuli/rescaled_final/0254_rv.mp4	0.0	279.5416269302368	2.500108003616333
59	260.1321699619293	pulse	1	t		57.0	2.5	/experiments/AOT/AOT_stimuli/rescaled_final/0254_rv.mp4	0.0	280.7255470752716	
59	261.44835782051086	fix_post	2		12	57.0	2.5	/experiments/AOT/AOT_stimuli/rescaled_final/0254_rv.mp4	0.0	282.04173493385315	0.10038518905639648
60	261.54874300956726	fix_pre	0		120	58.0	2.5	/experiments/AOT/AOT_stimuli/rescaled_final/1978_fw.mp4	0.0	282.14212012290955	0.9999909400939941
60	261.7321798801422	pulse	0	t		58.0	2.5	/experiments/AOT/AOT_stimuli/rescaled_final/1978_fw.mp4	0.0	282.3255569934845	
60	262.54873394966125	movie	1		243	58.0	2.5	/experiments/AOT/AOT_stimuli/rescaled_final/1978_fw.mp4	0.0	283.14211106300354	2.4998629093170166
60	263.33215379714966	pulse	1	t		58.0	2.5	/experiments/AOT/AOT_stimuli/rescaled_final/1978_fw.mp4	0.0	283.92553091049194	
60	264.93052101135254	pulse	1	t		58.0	2.5	/experiments/AOT/AOT_stimuli/rescaled_final/1978_fw.mp4	0.0	285.5238981246948	
60	265.04859685897827	fix_post	2		12	58.0	2.5	/experiments/AOT/AOT_stimuli/rescaled_final/1978_fw.mp4	0.0	285.64197397232056	0.10002994537353516
61	265.1486268043518	fix_pre	0		120	59.0	2.5	/experiments/AOT/AOT_stimuli/rescaled_final/1310_fw.mp4	0.0	285.7420039176941	1.0000441074371338
61	266.14867091178894	movie	1		244	59.0	2.5	/experiments/AOT/AOT_stimuli/rescaled_final/1310_fw.mp4	0.0	286.7420480251312	2.49950909614563
61	266.53201389312744	pulse	1	t		59.0	2.5	/experiments/AOT/AOT_stimuli/rescaled_final/1310_fw.mp4	0.0	287.1253910064697	
61	268.1321339607239	pulse	1	t		59.0	2.5	/experiments/AOT/AOT_stimuli/rescaled_final/1310_fw.mp4	0.0	288.72551107406616	
61	268.64818000793457	fix_post	2		12	59.0	2.5	/experiments/AOT/AOT_stimuli/rescaled_final/1310_fw.mp4	0.0	289.24155712127686	0.10046982765197754
62	268.74864983558655	fix_pre	0		119	60.0	2.5	/experiments/AOT/AOT_stimuli/rescaled_final/0795_fw.mp4	0.0	289.34202694892883	0.9912171363830566
62	269.7316789627075	pulse	0	t		60.0	2.5	/experiments/AOT/AOT_stimuli/rescaled_final/0795_fw.mp4	0.0	290.3250560760498	
62	269.7398669719696	movie	1		246	60.0	2.5	/experiments/AOT/AOT_stimuli/rescaled_final/0795_fw.mp4	0.0	290.3332440853119	2.508661985397339
62	271.3320360183716	pulse	1	t		60.0	2.5	/experiments/AOT/AOT_stimuli/rescaled_final/0795_fw.mp4	0.0	291.92541313171387	
62	272.24852895736694	fix_post	2		12	60.0	2.5	/experiments/AOT/AOT_stimuli/rescaled_final/0795_fw.mp4	0.0	292.84190607070923	0.10041189193725586
63	272.3489408493042	fix_pre	0		120	61.0	2.5	/experiments/AOT/AOT_stimuli/rescaled_final/1192_fw.mp4	0.0	292.9423179626465	0.9992871284484863
63	272.9321348667145	pulse	0	t		61.0	2.5	/experiments/AOT/AOT_stimuli/rescaled_final/1192_fw.mp4	0.0	293.52551198005676	
63	273.3482279777527	movie	1		245	61.0	2.5	/experiments/AOT/AOT_stimuli/rescaled_final/1192_fw.mp4	0.0	293.94160509109497	2.5003809928894043
63	274.5321009159088	pulse	1	t		61.0	2.5	/experiments/AOT/AOT_stimuli/rescaled_final/1192_fw.mp4	0.0	295.1254780292511	
63	275.8486089706421	fix_post	2		12	61.0	2.5	/experiments/AOT/AOT_stimuli/rescaled_final/1192_fw.mp4	0.0	296.4419860839844	0.1000068187713623
64	275.94861578941345	fix_pre	0		120	62.0	2.5	/experiments/AOT/AOT_stimuli/rescaled_final/1820_rv.mp4	0.0	296.54199290275574	0.9995682239532471
64	276.1321258544922	pulse	0	t		62.0	2.5	/experiments/AOT/AOT_stimuli/rescaled_final/1820_rv.mp4	0.0	296.7255029678345	
64	276.9481840133667	movie	1		246	62.0	2.5	/experiments/AOT/AOT_stimuli/rescaled_final/1820_rv.mp4	0.0	297.541561126709	2.500405788421631
64	277.7319769859314	pulse	1	t		62.0	2.5	/experiments/AOT/AOT_stimuli/rescaled_final/1820_rv.mp4	0.0	298.3253540992737	
64	279.3304958343506	pulse	1	t		62.0	2.5	/experiments/AOT/AOT_stimuli/rescaled_final/1820_rv.mp4	0.0	299.92387294769287	
64	279.44858980178833	fix_post	2		12	62.0	2.5	/experiments/AOT/AOT_stimuli/rescaled_final/1820_rv.mp4	0.0	300.0419669151306	0.09958219528198242
65	279.5481719970703	fix_pre	0		120	63.0	2.5	blank	1.0	300.1415491104126	1.000011920928955
65	280.54818391799927	movie	1		300	63.0	2.5	blank	1.0	301.14156103134155	2.50039005279541
65	280.9320650100708	pulse	1	t		63.0	2.5	blank	1.0	301.5254421234131	
65	282.53199195861816	pulse	1	t		63.0	2.5	blank	1.0	303.12536907196045	
65	283.0485739707947	fix_post	2		12	63.0	2.5	blank	1.0	303.64195108413696	0.10003089904785156
66	283.14860486984253	fix_pre	0		119	64.0	2.5	/experiments/AOT/AOT_stimuli/rescaled_final/0647_fw.mp4	0.0	303.7419819831848	0.9915771484375
66	284.13204193115234	pulse	0	t		64.0	2.5	/experiments/AOT/AOT_stimuli/rescaled_final/0647_fw.mp4	0.0	304.72541904449463	
66	284.14018201828003	movie	1		246	64.0	2.5	/experiments/AOT/AOT_stimuli/rescaled_final/0647_fw.mp4	0.0	304.7335591316223	2.5083937644958496
66	285.7315459251404	pulse	1	t		64.0	2.5	/experiments/AOT/AOT_stimuli/rescaled_final/0647_fw.mp4	0.0	306.32492303848267	
66	286.6485757827759	fix_post	2		12	64.0	2.5	/experiments/AOT/AOT_stimuli/rescaled_final/0647_fw.mp4	0.0	307.24195289611816	0.09995007514953613
67	286.7485258579254	fix_pre	0		120	65.0	2.5	/experiments/AOT/AOT_stimuli/rescaled_final/0612_rv.mp4	0.0	307.3419029712677	0.999985933303833
67	287.3320598602295	pulse	0	t		65.0	2.5	/experiments/AOT/AOT_stimuli/rescaled_final/0612_rv.mp4	0.0	307.9254369735718	
67	287.74851179122925	movie	1		244	65.0	2.5	/experiments/AOT/AOT_stimuli/rescaled_final/0612_rv.mp4	0.0	308.34188890457153	2.4996089935302734
67	288.9321668148041	pulse	1	t		65.0	2.5	/experiments/AOT/AOT_stimuli/rescaled_final/0612_rv.mp4	0.0	309.52554392814636	
67	290.2481207847595	fix_post	2		12	65.0	2.5	/experiments/AOT/AOT_stimuli/rescaled_final/0612_rv.mp4	0.0	310.8414978981018	0.10050606727600098
68	290.3486268520355	fix_pre	0		120	66.0	2.5	/experiments/AOT/AOT_stimuli/rescaled_final/0536_fw.mp4	0.0	310.9420039653778	0.9998841285705566
68	290.5320689678192	pulse	0	t		66.0	2.5	/experiments/AOT/AOT_stimuli/rescaled_final/0536_fw.mp4	0.0	311.1254460811615	
68	291.3485109806061	movie	1		246	66.0	2.5	/experiments/AOT/AOT_stimuli/rescaled_final/0536_fw.mp4	0.0	311.94188809394836	2.499562978744507
68	292.13203597068787	pulse	1	t		66.0	2.5	/experiments/AOT/AOT_stimuli/rescaled_final/0536_fw.mp4	0.0	312.72541308403015	
68	293.7306139469147	pulse	1	t		66.0	2.5	/experiments/AOT/AOT_stimuli/rescaled_final/0536_fw.mp4	0.0	314.32399106025696	
68	293.8480739593506	fix_post	2		12	66.0	2.5	/experiments/AOT/AOT_stimuli/rescaled_final/0536_fw.mp4	0.0	314.44145107269287	0.10000085830688477
69	293.94807481765747	fix_pre	0		120	67.0	2.5	/experiments/AOT/AOT_stimuli/rescaled_final/1914_fw.mp4	0.0	314.54145193099976	1.000420093536377
69	294.94849491119385	movie	1		248	67.0	2.5	/experiments/AOT/AOT_stimuli/rescaled_final/1914_fw.mp4	0.0	315.54187202453613	2.4995899200439453
69	295.331524848938	pulse	1	t		67.0	2.5	/experiments/AOT/AOT_stimuli/rescaled_final/1914_fw.mp4	0.0	315.9249019622803	
69	296.93187189102173	pulse	1	t		67.0	2.5	/experiments/AOT/AOT_stimuli/rescaled_final/1914_fw.mp4	0.0	317.525249004364	
69	297.4480848312378	fix_post	2		12	67.0	2.5	/experiments/AOT/AOT_stimuli/rescaled_final/1914_fw.mp4	0.0	318.0414619445801	0.10033512115478516
70	297.5484199523926	fix_pre	0		119	68.0	2.5	/experiments/AOT/AOT_stimuli/rescaled_final/1552_rv.mp4	0.0	318.14179706573486	0.9917349815368652
70	298.5320358276367	pulse	0	t		68.0	2.5	/experiments/AOT/AOT_stimuli/rescaled_final/1552_rv.mp4	0.0	319.125412940979	
70	298.54015493392944	movie	1		247	68.0	2.5	/experiments/AOT/AOT_stimuli/rescaled_final/1552_rv.mp4	0.0	319.13353204727173	2.507894992828369
70	300.13143587112427	pulse	1	t		68.0	2.5	/experiments/AOT/AOT_stimuli/rescaled_final/1552_rv.mp4	0.0	320.72481298446655	
70	301.0480499267578	fix_post	2		12	68.0	2.5	/experiments/AOT/AOT_stimuli/rescaled_final/1552_rv.mp4	0.0	321.6414270401001	0.10036206245422363
71	301.14841198921204	fix_pre	0		120	69.0	2.5	/experiments/AOT/AOT_stimuli/rescaled_final/2068_fw.mp4	0.0	321.7417891025543	1.0001368522644043
71	301.7320628166199	pulse	0	t		69.0	2.5	/experiments/AOT/AOT_stimuli/rescaled_final/2068_fw.mp4	0.0	322.32543992996216	
71	302.14854884147644	movie	1		245	69.0	2.5	/experiments/AOT/AOT_stimuli/rescaled_final/2068_fw.mp4	0.0	322.7419259548187	2.500002145767212
71	303.3320457935333	pulse	1	t		69.0	2.5	/experiments/AOT/AOT_stimuli/rescaled_final/2068_fw.mp4	0.0	323.9254229068756	
71	304.64855098724365	fix_post	2		12	69.0	2.5	/experiments/AOT/AOT_stimuli/rescaled_final/2068_fw.mp4	0.0	325.24192810058594	0.09990882873535156
72	304.748459815979	fix_pre	0		120	70.0	2.5	blank	1.0	325.3418369293213	0.9995601177215576
72	304.9319648742676	pulse	0	t		70.0	2.5	blank	1.0	325.52534198760986	
72	305.74801993370056	movie	1		300	70.0	2.5	blank	1.0	326.34139704704285	2.5003819465637207
72	306.5319068431854	pulse	1	t		70.0	2.5	blank	1.0	327.1252839565277	
72	308.1318769454956	pulse	1	t		70.0	2.5	blank	1.0	328.7252540588379	
72	308.2484018802643	fix_post	2		12	70.0	2.5	blank	1.0	328.84177899360657	0.10002994537353516
73	308.3484318256378	fix_pre	0		120	71.0	2.5	/experiments/AOT/AOT_stimuli/rescaled_final/0675_fw.mp4	0.0	328.9418089389801	0.999549150466919
73	309.34798097610474	movie	1		243	71.0	2.5	/experiments/AOT/AOT_stimuli/rescaled_final/0675_fw.mp4	0.0	329.941358089447	2.500391960144043
73	309.7316060066223	pulse	1	t		71.0	2.5	/experiments/AOT/AOT_stimuli/rescaled_final/0675_fw.mp4	0.0	330.3249831199646	
73	311.33191299438477	pulse	1	t		71.0	2.5	/experiments/AOT/AOT_stimuli/rescaled_final/0675_fw.mp4	0.0	331.92529010772705	
73	311.8483729362488	fix_post	2		12	71.0	2.5	/experiments/AOT/AOT_stimuli/rescaled_final/0675_fw.mp4	0.0	332.44175004959106	0.10005402565002441
74	311.9484269618988	fix_pre	0		119	72.0	2.5	/experiments/AOT/AOT_stimuli/rescaled_final/0872_rv.mp4	0.0	332.5418040752411	0.9916319847106934
74	312.93193793296814	pulse	0	t		72.0	2.5	/experiments/AOT/AOT_stimuli/rescaled_final/0872_rv.mp4	0.0	333.5253150463104	
74	312.9400589466095	movie	1		246	72.0	2.5	/experiments/AOT/AOT_stimuli/rescaled_final/0872_rv.mp4	0.0	333.5334360599518	2.50791597366333
74	314.5316288471222	pulse	1	t		72.0	2.5	/experiments/AOT/AOT_stimuli/rescaled_final/0872_rv.mp4	0.0	335.1250059604645	
74	315.4479749202728	fix_post	2		12	72.0	2.5	/experiments/AOT/AOT_stimuli/rescaled_final/0872_rv.mp4	0.0	336.0413520336151	0.10040092468261719
75	315.54837584495544	fix_pre	0		120	73.0	2.5	/experiments/AOT/AOT_stimuli/rescaled_final/1086_rv.mp4	0.0	336.14175295829773	1.0000391006469727
75	316.13192987442017	pulse	0	t		73.0	2.5	/experiments/AOT/AOT_stimuli/rescaled_final/1086_rv.mp4	0.0	336.72530698776245	
75	316.5484149456024	movie	1		245	73.0	2.5	/experiments/AOT/AOT_stimuli/rescaled_final/1086_rv.mp4	0.0	337.1417920589447	2.499974012374878
75	317.73199796676636	pulse	1	t		73.0	2.5	/experiments/AOT/AOT_stimuli/rescaled_final/1086_rv.mp4	0.0	338.32537508010864	
75	319.0483889579773	fix_post	2		12	73.0	2.5	/experiments/AOT/AOT_stimuli/rescaled_final/1086_rv.mp4	0.0	339.6417660713196	0.10002493858337402
76	319.14841389656067	fix_pre	0		120	74.0	2.5	/experiments/AOT/AOT_stimuli/rescaled_final/1235_rv.mp4	0.0	339.74179100990295	0.9999039173126221
76	319.331995010376	pulse	0	t		74.0	2.5	/experiments/AOT/AOT_stimuli/rescaled_final/1235_rv.mp4	0.0	339.92537212371826	
76	320.1483178138733	movie	1		244	74.0	2.5	/experiments/AOT/AOT_stimuli/rescaled_final/1235_rv.mp4	0.0	340.7416949272156	2.500054121017456
76	320.931902885437	pulse	1	t		74.0	2.5	/experiments/AOT/AOT_stimuli/rescaled_final/1235_rv.mp4	0.0	341.5252799987793	
76	322.5303509235382	pulse	1	t		74.0	2.5	/experiments/AOT/AOT_stimuli/rescaled_final/1235_rv.mp4	0.0	343.1237280368805	
76	322.64837193489075	fix_post	2		12	74.0	2.5	/experiments/AOT/AOT_stimuli/rescaled_final/1235_rv.mp4	0.0	343.24174904823303	0.10003304481506348
77	322.7484049797058	fix_pre	0		120	75.0	2.5	/experiments/AOT/AOT_stimuli/rescaled_final/2108_fw.mp4	0.0	343.3417820930481	1.0000038146972656
77	323.7484087944031	movie	1		247	75.0	2.5	/experiments/AOT/AOT_stimuli/rescaled_final/2108_fw.mp4	0.0	344.34178590774536	2.499572992324829
77	324.13168501853943	pulse	1	t		75.0	2.5	/experiments/AOT/AOT_stimuli/rescaled_final/2108_fw.mp4	0.0	344.7250621318817	
77	325.7314670085907	pulse	1	t		75.0	2.5	/experiments/AOT/AOT_stimuli/rescaled_final/2108_fw.mp4	0.0	346.324844121933	
77	326.2479817867279	fix_post	2		12	75.0	2.5	/experiments/AOT/AOT_stimuli/rescaled_final/2108_fw.mp4	0.0	346.8413589000702	0.10006904602050781
78	326.3480508327484	fix_pre	0		119	76.0	2.5	/experiments/AOT/AOT_stimuli/rescaled_final/0761_rv.mp4	0.0	346.9414279460907	0.992211103439331
78	327.33208894729614	pulse	0	t		76.0	2.5	/experiments/AOT/AOT_stimuli/rescaled_final/0761_rv.mp4	0.0	347.9254660606384	
78	327.34026193618774	movie	1		246	76.0	2.5	/experiments/AOT/AOT_stimuli/rescaled_final/0761_rv.mp4	0.0	347.93363904953003	2.508096933364868
78	328.9321370124817	pulse	1	t		76.0	2.5	/experiments/AOT/AOT_stimuli/rescaled_final/0761_rv.mp4	0.0	349.525514125824	
78	329.8483588695526	fix_post	2		12	76.0	2.5	/experiments/AOT/AOT_stimuli/rescaled_final/0761_rv.mp4	0.0	350.4417359828949	0.09997391700744629
79	329.94833278656006	fix_pre	0		120	77.0	2.5	blank	1.0	350.54170989990234	1.0000381469726562
79	330.5318639278412	pulse	0	t		77.0	2.5	blank	1.0	351.1252410411835	
79	330.9483709335327	movie	1		300	77.0	2.5	blank	1.0	351.541748046875	2.4999070167541504
79	332.131826877594	pulse	1	t		77.0	2.5	blank	1.0	352.7252039909363	
79	333.44827795028687	fix_post	2		12	77.0	2.5	blank	1.0	354.04165506362915	0.09997391700744629
80	333.5482518672943	fix_pre	0		120	78.0	2.5	/experiments/AOT/AOT_stimuli/rescaled_final/0476_fw.mp4	0.0	354.1416289806366	1.000006914138794
80	333.7317168712616	pulse	0	t		78.0	2.5	/experiments/AOT/AOT_stimuli/rescaled_final/0476_fw.mp4	0.0	354.3250939846039	
80	334.5482587814331	movie	1		247	78.0	2.5	/experiments/AOT/AOT_stimuli/rescaled_final/0476_fw.mp4	0.0	355.1416358947754	2.4995830059051514
80	335.3317267894745	pulse	1	t		78.0	2.5	/experiments/AOT/AOT_stimuli/rescaled_final/0476_fw.mp4	0.0	355.9251039028168	
80	336.9277708530426	pulse	1	t		78.0	2.5	/experiments/AOT/AOT_stimuli/rescaled_final/0476_fw.mp4	0.0	357.5211479663849	
80	337.04784178733826	fix_post	2		12	78.0	2.5	/experiments/AOT/AOT_stimuli/rescaled_final/0476_fw.mp4	0.0	357.64121890068054	0.1004340648651123
81	337.14827585220337	fix_pre	0		120	79.0	2.5	/experiments/AOT/AOT_stimuli/rescaled_final/0953_rv.mp4	0.0	357.74165296554565	0.9999411106109619
81	338.14821696281433	movie	1		244	79.0	2.5	/experiments/AOT/AOT_stimuli/rescaled_final/0953_rv.mp4	0.0	358.7415940761566	2.49965500831604
81	338.53313398361206	pulse	1	t		79.0	2.5	/experiments/AOT/AOT_stimuli/rescaled_final/0953_rv.mp4	0.0	359.12651109695435	
81	340.13168001174927	pulse	1	t		79.0	2.5	/experiments/AOT/AOT_stimuli/rescaled_final/0953_rv.mp4	0.0	360.72505712509155	
81	340.64787197113037	fix_post	2		12	79.0	2.5	/experiments/AOT/AOT_stimuli/rescaled_final/0953_rv.mp4	0.0	361.24124908447266	0.10037803649902344
82	340.7482500076294	fix_pre	0		119	80.0	2.5	/experiments/AOT/AOT_stimuli/rescaled_final/0541_rv.mp4	0.0	361.3416271209717	0.9917337894439697
82	341.7317008972168	pulse	0	t		80.0	2.5	/experiments/AOT/AOT_stimuli/rescaled_final/0541_rv.mp4	0.0	362.3250780105591	
82	341.73998379707336	movie	1		247	80.0	2.5	/experiments/AOT/AOT_stimuli/rescaled_final/0541_rv.mp4	0.0	362.33336091041565	2.508244037628174
82	343.3328289985657	pulse	1	t		80.0	2.5	/experiments/AOT/AOT_stimuli/rescaled_final/0541_rv.mp4	0.0	363.92620611190796	
82	344.24822783470154	fix_post	2		12	80.0	2.5	/experiments/AOT/AOT_stimuli/rescaled_final/0541_rv.mp4	0.0	364.8416049480438	0.10002803802490234
83	344.34825587272644	fix_pre	0		120	81.0	2.5	/experiments/AOT/AOT_stimuli/rescaled_final/0511_fw.mp4	0.0	364.9416329860687	1.0000059604644775
83	344.93173694610596	pulse	0	t		81.0	2.5	/experiments/AOT/AOT_stimuli/rescaled_final/0511_fw.mp4	0.0	365.52511405944824	
83	345.3482618331909	movie	1		247	81.0	2.5	/experiments/AOT/AOT_stimuli/rescaled_final/0511_fw.mp4	0.0	365.9416389465332	2.4999771118164062
83	346.53176379203796	pulse	1	t		81.0	2.5	/experiments/AOT/AOT_stimuli/rescaled_final/0511_fw.mp4	0.0	367.12514090538025	
83	347.8482389450073	fix_post	2		12	81.0	2.5	/experiments/AOT/AOT_stimuli/rescaled_final/0511_fw.mp4	0.0	368.4416160583496	0.09993100166320801
84	347.94816994667053	fix_pre	0		120	82.0	2.5	blank	1.0	368.5415470600128	0.9996280670166016
84	348.131609916687	pulse	0	t		82.0	2.5	blank	1.0	368.7249870300293	
84	348.94779801368713	movie	1		300	82.0	2.5	blank	1.0	369.5411751270294	2.500382900238037
84	349.7316219806671	pulse	1	t		82.0	2.5	blank	1.0	370.3249990940094	
84	351.33172583580017	pulse	1	t		82.0	2.5	blank	1.0	371.92510294914246	
84	351.44818091392517	fix_post	2		12	82.0	2.5	blank	1.0	372.04155802726746	0.1004490852355957
85	351.54862999916077	fix_pre	0		120	83.0	2.5	/experiments/AOT/AOT_stimuli/rescaled_final/0450_rv.mp4	0.0	372.14200711250305	0.9995830059051514
85	352.5482130050659	movie	1		245	83.0	2.5	/experiments/AOT/AOT_stimuli/rescaled_final/0450_rv.mp4	0.0	373.1415901184082	2.499955892562866
85	352.93165278434753	pulse	1	t		83.0	2.5	/experiments/AOT/AOT_stimuli/rescaled_final/0450_rv.mp4	0.0	373.5250298976898	
85	354.5317327976227	pulse	1	t		83.0	2.5	/experiments/AOT/AOT_stimuli/rescaled_final/0450_rv.mp4	0.0	375.12510991096497	
85	355.0481688976288	fix_post	2		12	83.0	2.5	/experiments/AOT/AOT_stimuli/rescaled_final/0450_rv.mp4	0.0	375.64154601097107	0.10000801086425781
87	355.14817690849304	stim	0		1716					375.7415540218353	14.299906969070435
87	356.1317479610443	pulse	0	t						376.7251250743866	
87	357.7317159175873	pulse	0	t						378.32509303092957	
87	359.33166694641113	pulse	0	t						379.9250440597534	
87	360.93171787261963	pulse	0	t						381.5250949859619	
87	362.5316388607025	pulse	0	t						383.1250159740448	
87	364.1316339969635	pulse	0	t						384.7250111103058	
87	365.7316689491272	pulse	0	t						386.3250460624695	
87	367.331622838974	pulse	0	t						387.9249999523163	
87	368.9316189289093	pulse	0	t						389.5249960422516	
