trial_nr	onset	event_type	phase	response	nr_frames	movie_index	movie_duration	movie_file	blank	onset_abs	duration
0	0.15823888778686523	stim	0		114					21.527520895004272	0.9500679969787598
0	1.1001338958740234	response	0	space						22.46941590309143	
1	1.108306884765625	stim	0		13115					22.477588891983032	109.29104804992676
1	110.39257597923279	pulse	0	t						131.7618579864502	
1	110.39935493469238	stim	1		1717					131.7686369419098	14.308382034301758
1	111.99115204811096	pulse	1	t						133.36043405532837	
1	113.59113788604736	pulse	1	t						134.96041989326477	
1	115.19107294082642	pulse	1	t						136.56035494804382	
1	116.79116106033325	pulse	1	t						138.16044306755066	
1	118.39112901687622	pulse	1	t						139.76041102409363	
1	119.99109101295471	pulse	1	t						141.36037302017212	
1	121.59110689163208	pulse	1	t						142.9603888988495	
1	123.1910970211029	pulse	1	t						144.5603790283203	
2	124.70773696899414	fix_pre	0		11	0.0	2.5	/experiments/AOT/AOT_stimuli/rescaled_final/0652_rv.mp4	0.0	146.07701897621155	0.09158205986022949
2	124.79117798805237	pulse	0	t		0.0	2.5	/experiments/AOT/AOT_stimuli/rescaled_final/0652_rv.mp4	0.0	146.16045999526978	
2	124.79931902885437	movie	1		242	0.0	2.5	/experiments/AOT/AOT_stimuli/rescaled_final/0652_rv.mp4	0.0	146.16860103607178	2.5082638263702393
2	126.39104104042053	pulse	1	t		0.0	2.5	/experiments/AOT/AOT_stimuli/rescaled_final/0652_rv.mp4	0.0	147.76032304763794	
2	127.30758285522461	fix_post	2		12	0.0	2.5	/experiments/AOT/AOT_stimuli/rescaled_final/0652_rv.mp4	0.0	148.67686486244202	0.09993505477905273
3	127.40751791000366	fix_pre	0		120	1.0	2.5	/experiments/AOT/AOT_stimuli/rescaled_final/2119_rv.mp4	0.0	148.77679991722107	0.9998760223388672
3	127.99111890792847	pulse	0	t		1.0	2.5	/experiments/AOT/AOT_stimuli/rescaled_final/2119_rv.mp4	0.0	149.36040091514587	
3	128.40739393234253	movie	1		249	1.0	2.5	/experiments/AOT/AOT_stimuli/rescaled_final/2119_rv.mp4	0.0	149.77667593955994	2.5001060962677
3	129.59121894836426	pulse	1	t		1.0	2.5	/experiments/AOT/AOT_stimuli/rescaled_final/2119_rv.mp4	0.0	150.96050095558167	
3	130.90750002861023	fix_post	2		12	1.0	2.5	/experiments/AOT/AOT_stimuli/rescaled_final/2119_rv.mp4	0.0	152.27678203582764	0.1000359058380127
4	131.00753593444824	fix_pre	0		120	2.0	2.5	/experiments/AOT/AOT_stimuli/rescaled_final/1602_fw.mp4	0.0	152.37681794166565	0.9999821186065674
4	131.19106006622314	pulse	0	t		2.0	2.5	/experiments/AOT/AOT_stimuli/rescaled_final/1602_fw.mp4	0.0	152.56034207344055	
4	132.0075180530548	movie	1		243	2.0	2.5	/experiments/AOT/AOT_stimuli/rescaled_final/1602_fw.mp4	0.0	153.37680006027222	2.500092029571533
4	132.79112100601196	pulse	1	t		2.0	2.5	/experiments/AOT/AOT_stimuli/rescaled_final/1602_fw.mp4	0.0	154.16040301322937	
4	134.38970303535461	pulse	1	t		2.0	2.5	/experiments/AOT/AOT_stimuli/rescaled_final/1602_fw.mp4	0.0	155.75898504257202	
4	134.50761008262634	fix_post	2		12	2.0	2.5	/experiments/AOT/AOT_stimuli/rescaled_final/1602_fw.mp4	0.0	155.87689208984375	0.09996795654296875
5	134.6075780391693	fix_pre	0		120	3.0	2.5	/experiments/AOT/AOT_stimuli/rescaled_final/1807_rv.mp4	0.0	155.97686004638672	1.0000219345092773
5	135.6075999736786	movie	1		245	3.0	2.5	/experiments/AOT/AOT_stimuli/rescaled_final/1807_rv.mp4	0.0	156.976881980896	2.4999918937683105
5	135.9905059337616	pulse	1	t		3.0	2.5	/experiments/AOT/AOT_stimuli/rescaled_final/1807_rv.mp4	0.0	157.359787940979	
5	137.59102988243103	pulse	1	t		3.0	2.5	/experiments/AOT/AOT_stimuli/rescaled_final/1807_rv.mp4	0.0	158.96031188964844	
5	138.1075918674469	fix_post	2		12	3.0	2.5	/experiments/AOT/AOT_stimuli/rescaled_final/1807_rv.mp4	0.0	159.4768738746643	0.10001707077026367
6	138.20760893821716	fix_pre	0		119	4.0	2.5	/experiments/AOT/AOT_stimuli/rescaled_final/1502_rv.mp4	0.0	159.57689094543457	0.9916090965270996
6	139.19100689888	pulse	0	t		4.0	2.5	/experiments/AOT/AOT_stimuli/rescaled_final/1502_rv.mp4	0.0	160.5602889060974	
6	139.19921803474426	movie	1		247	4.0	2.5	/experiments/AOT/AOT_stimuli/rescaled_final/1502_rv.mp4	0.0	160.56850004196167	2.5082859992980957
6	140.7909450531006	pulse	1	t		4.0	2.5	/experiments/AOT/AOT_stimuli/rescaled_final/1502_rv.mp4	0.0	162.160227060318	
6	141.70750403404236	fix_post	2		12	4.0	2.5	/experiments/AOT/AOT_stimuli/rescaled_final/1502_rv.mp4	0.0	163.07678604125977	0.10001397132873535
7	141.8075180053711	fix_pre	0		120	5.0	2.5	/experiments/AOT/AOT_stimuli/rescaled_final/0266_fw.mp4	0.0	163.1768000125885	1.0000100135803223
7	142.39102792739868	pulse	0	t		5.0	2.5	/experiments/AOT/AOT_stimuli/rescaled_final/0266_fw.mp4	0.0	163.7603099346161	
7	142.80752801895142	movie	1		246	5.0	2.5	/experiments/AOT/AOT_stimuli/rescaled_final/0266_fw.mp4	0.0	164.17681002616882	2.4999759197235107
7	143.99110984802246	pulse	1	t		5.0	2.5	/experiments/AOT/AOT_stimuli/rescaled_final/0266_fw.mp4	0.0	165.36039185523987	
7	145.30750393867493	fix_post	2		12	5.0	2.5	/experiments/AOT/AOT_stimuli/rescaled_final/0266_fw.mp4	0.0	166.67678594589233	0.10008907318115234
8	145.40759301185608	fix_pre	0		120	6.0	2.5	/experiments/AOT/AOT_stimuli/rescaled_final/1496_fw.mp4	0.0	166.7768750190735	0.99993896484375
8	145.5910758972168	pulse	0	t		6.0	2.5	/experiments/AOT/AOT_stimuli/rescaled_final/1496_fw.mp4	0.0	166.9603579044342	
8	146.40753197669983	movie	1		247	6.0	2.5	/experiments/AOT/AOT_stimuli/rescaled_final/1496_fw.mp4	0.0	167.77681398391724	2.4999990463256836
8	147.1910378932953	pulse	1	t		6.0	2.5	/experiments/AOT/AOT_stimuli/rescaled_final/1496_fw.mp4	0.0	168.5603199005127	
8	148.79050302505493	pulse	1	t		6.0	2.5	/experiments/AOT/AOT_stimuli/rescaled_final/1496_fw.mp4	0.0	170.15978503227234	
8	148.9075310230255	fix_post	2		12	6.0	2.5	/experiments/AOT/AOT_stimuli/rescaled_final/1496_fw.mp4	0.0	170.27681303024292	0.09994888305664062
9	149.00747990608215	fix_pre	0		120	7.0	2.5	blank	1.0	170.37676191329956	0.9995870590209961
9	150.00706696510315	movie	1		300	7.0	2.5	blank	1.0	171.37634897232056	2.5004351139068604
9	150.39096188545227	pulse	1	t		7.0	2.5	blank	1.0	171.76024389266968	
9	151.99097895622253	pulse	1	t		7.0	2.5	blank	1.0	173.36026096343994	
9	152.50750207901	fix_post	2		12	7.0	2.5	blank	1.0	173.87678408622742	0.10001087188720703
10	152.60751295089722	fix_pre	0		119	8.0	2.5	/experiments/AOT/AOT_stimuli/rescaled_final/0052_fw.mp4	0.0	173.97679495811462	0.9915509223937988
10	153.5910038948059	pulse	0	t		8.0	2.5	/experiments/AOT/AOT_stimuli/rescaled_final/0052_fw.mp4	0.0	174.96028590202332	
10	153.59906387329102	movie	1		245	8.0	2.5	/experiments/AOT/AOT_stimuli/rescaled_final/0052_fw.mp4	0.0	174.96834588050842	2.508347988128662
10	155.1909019947052	pulse	1	t		8.0	2.5	/experiments/AOT/AOT_stimuli/rescaled_final/0052_fw.mp4	0.0	176.5601840019226	
10	156.10741186141968	fix_post	2		12	8.0	2.5	/experiments/AOT/AOT_stimuli/rescaled_final/0052_fw.mp4	0.0	177.47669386863708	0.10007214546203613
11	156.2074840068817	fix_pre	0		120	9.0	2.5	/experiments/AOT/AOT_stimuli/rescaled_final/1042_rv.mp4	0.0	177.57676601409912	1.0000839233398438
11	156.79097199440002	pulse	0	t		9.0	2.5	/experiments/AOT/AOT_stimuli/rescaled_final/1042_rv.mp4	0.0	178.16025400161743	
11	157.20756793022156	movie	1		246	9.0	2.5	/experiments/AOT/AOT_stimuli/rescaled_final/1042_rv.mp4	0.0	178.57684993743896	2.499908924102783
11	158.39096093177795	pulse	1	t		9.0	2.5	/experiments/AOT/AOT_stimuli/rescaled_final/1042_rv.mp4	0.0	179.76024293899536	
11	159.70747685432434	fix_post	2		12	9.0	2.5	/experiments/AOT/AOT_stimuli/rescaled_final/1042_rv.mp4	0.0	181.07675886154175	0.09999608993530273
12	159.80747294425964	fix_pre	0		120	10.0	2.5	/experiments/AOT/AOT_stimuli/rescaled_final/1032_rv.mp4	0.0	181.17675495147705	0.9997780323028564
12	159.99102306365967	pulse	0	t		10.0	2.5	/experiments/AOT/AOT_stimuli/rescaled_final/1032_rv.mp4	0.0	181.36030507087708	
12	160.8072509765625	movie	1		243	10.0	2.5	/experiments/AOT/AOT_stimuli/rescaled_final/1032_rv.mp4	0.0	182.1765329837799	2.5012760162353516
12	161.59077095985413	pulse	1	t		10.0	2.5	/experiments/AOT/AOT_stimuli/rescaled_final/1032_rv.mp4	0.0	182.96005296707153	
12	163.19032406806946	pulse	1	t		10.0	2.5	/experiments/AOT/AOT_stimuli/rescaled_final/1032_rv.mp4	0.0	184.55960607528687	
12	163.30852699279785	fix_post	2		12	10.0	2.5	/experiments/AOT/AOT_stimuli/rescaled_final/1032_rv.mp4	0.0	184.67780900001526	0.09889793395996094
13	163.4074249267578	fix_pre	0		120	11.0	2.5	/experiments/AOT/AOT_stimuli/rescaled_final/1549_rv.mp4	0.0	184.77670693397522	1.000082015991211
13	164.40750694274902	movie	1		247	11.0	2.5	/experiments/AOT/AOT_stimuli/rescaled_final/1549_rv.mp4	0.0	185.77678894996643	2.4999520778656006
13	164.79058194160461	pulse	1	t		11.0	2.5	/experiments/AOT/AOT_stimuli/rescaled_final/1549_rv.mp4	0.0	186.15986394882202	
13	166.39076805114746	pulse	1	t		11.0	2.5	/experiments/AOT/AOT_stimuli/rescaled_final/1549_rv.mp4	0.0	187.76005005836487	
13	166.90745902061462	fix_post	2		12	11.0	2.5	/experiments/AOT/AOT_stimuli/rescaled_final/1549_rv.mp4	0.0	188.27674102783203	0.10002899169921875
14	167.00748801231384	fix_pre	0		119	12.0	2.5	/experiments/AOT/AOT_stimuli/rescaled_final/1005_rv.mp4	0.0	188.37677001953125	0.9914999008178711
14	167.9908230304718	pulse	0	t		12.0	2.5	/experiments/AOT/AOT_stimuli/rescaled_final/1005_rv.mp4	0.0	189.3601050376892	
14	167.9989879131317	movie	1		246	12.0	2.5	/experiments/AOT/AOT_stimuli/rescaled_final/1005_rv.mp4	0.0	189.36826992034912	2.5084309577941895
14	169.5904459953308	pulse	1	t		12.0	2.5	/experiments/AOT/AOT_stimuli/rescaled_final/1005_rv.mp4	0.0	190.95972800254822	
14	170.5074188709259	fix_post	2		12	12.0	2.5	/experiments/AOT/AOT_stimuli/rescaled_final/1005_rv.mp4	0.0	191.8767008781433	0.09998703002929688
15	170.6074059009552	fix_pre	0		120	13.0	2.5	blank	1.0	191.9766879081726	0.9999239444732666
15	171.1908609867096	pulse	0	t		13.0	2.5	blank	1.0	192.560142993927	
15	171.60732984542847	movie	1		300	13.0	2.5	blank	1.0	192.97661185264587	2.500026226043701
15	172.7908890247345	pulse	1	t		13.0	2.5	blank	1.0	194.1601710319519	
15	174.10735607147217	fix_post	2		12	13.0	2.5	blank	1.0	195.47663807868958	0.09995698928833008
16	174.2073130607605	fix_pre	0		120	14.0	2.5	/experiments/AOT/AOT_stimuli/rescaled_final/0059_fw.mp4	0.0	195.5765950679779	1.0000028610229492
16	174.39079189300537	pulse	0	t		14.0	2.5	/experiments/AOT/AOT_stimuli/rescaled_final/0059_fw.mp4	0.0	195.76007390022278	
16	175.20731592178345	movie	1		242	14.0	2.5	/experiments/AOT/AOT_stimuli/rescaled_final/0059_fw.mp4	0.0	196.57659792900085	2.5000040531158447
16	175.99091792106628	pulse	1	t		14.0	2.5	/experiments/AOT/AOT_stimuli/rescaled_final/0059_fw.mp4	0.0	197.3601999282837	
16	177.58918404579163	pulse	1	t		14.0	2.5	/experiments/AOT/AOT_stimuli/rescaled_final/0059_fw.mp4	0.0	198.95846605300903	
16	177.7073199748993	fix_post	2		12	14.0	2.5	/experiments/AOT/AOT_stimuli/rescaled_final/0059_fw.mp4	0.0	199.0766019821167	0.1000669002532959
17	177.8073868751526	fix_pre	0		120	15.0	2.5	/experiments/AOT/AOT_stimuli/rescaled_final/0347_fw.mp4	0.0	199.17666888237	0.9999740123748779
17	178.80736088752747	movie	1		245	15.0	2.5	/experiments/AOT/AOT_stimuli/rescaled_final/0347_fw.mp4	0.0	200.17664289474487	2.5000391006469727
17	179.1917700767517	pulse	1	t		15.0	2.5	/experiments/AOT/AOT_stimuli/rescaled_final/0347_fw.mp4	0.0	200.56105208396912	
17	180.7908148765564	pulse	1	t		15.0	2.5	/experiments/AOT/AOT_stimuli/rescaled_final/0347_fw.mp4	0.0	202.1600968837738	
17	181.30739998817444	fix_post	2		12	15.0	2.5	/experiments/AOT/AOT_stimuli/rescaled_final/0347_fw.mp4	0.0	202.67668199539185	0.09993386268615723
18	181.4073338508606	fix_pre	0		119	16.0	2.5	/experiments/AOT/AOT_stimuli/rescaled_final/0941_fw.mp4	0.0	202.776615858078	0.9916481971740723
18	182.3908829689026	pulse	0	t		16.0	2.5	/experiments/AOT/AOT_stimuli/rescaled_final/0941_fw.mp4	0.0	203.76016497612	
18	182.39898204803467	movie	1		247	16.0	2.5	/experiments/AOT/AOT_stimuli/rescaled_final/0941_fw.mp4	0.0	203.76826405525208	2.508328914642334
18	183.99087285995483	pulse	1	t		16.0	2.5	/experiments/AOT/AOT_stimuli/rescaled_final/0941_fw.mp4	0.0	205.36015486717224	
18	184.907310962677	fix_post	2		12	16.0	2.5	/experiments/AOT/AOT_stimuli/rescaled_final/0941_fw.mp4	0.0	206.2765929698944	0.09998202323913574
19	185.00729298591614	fix_pre	0		120	17.0	2.5	/experiments/AOT/AOT_stimuli/rescaled_final/0548_fw.mp4	0.0	206.37657499313354	1.0000989437103271
19	185.59072589874268	pulse	0	t		17.0	2.5	/experiments/AOT/AOT_stimuli/rescaled_final/0548_fw.mp4	0.0	206.96000790596008	
19	186.00739192962646	movie	1		247	17.0	2.5	/experiments/AOT/AOT_stimuli/rescaled_final/0548_fw.mp4	0.0	207.37667393684387	2.499804973602295
19	187.19100999832153	pulse	1	t		17.0	2.5	/experiments/AOT/AOT_stimuli/rescaled_final/0548_fw.mp4	0.0	208.56029200553894	
19	188.50719690322876	fix_post	2		12	17.0	2.5	/experiments/AOT/AOT_stimuli/rescaled_final/0548_fw.mp4	0.0	209.87647891044617	0.10010504722595215
20	188.6073019504547	fix_pre	0		120	18.0	2.5	/experiments/AOT/AOT_stimuli/rescaled_final/1558_fw.mp4	0.0	209.97658395767212	1.000011920928955
20	188.79084992408752	pulse	0	t		18.0	2.5	/experiments/AOT/AOT_stimuli/rescaled_final/1558_fw.mp4	0.0	210.16013193130493	
20	189.60731387138367	movie	1		245	18.0	2.5	/experiments/AOT/AOT_stimuli/rescaled_final/1558_fw.mp4	0.0	210.97659587860107	2.499955177307129
20	190.39092803001404	pulse	1	t		18.0	2.5	/experiments/AOT/AOT_stimuli/rescaled_final/1558_fw.mp4	0.0	211.76021003723145	
20	191.98937702178955	pulse	1	t		18.0	2.5	/experiments/AOT/AOT_stimuli/rescaled_final/1558_fw.mp4	0.0	213.35865902900696	
20	192.1072690486908	fix_post	2		12	18.0	2.5	/experiments/AOT/AOT_stimuli/rescaled_final/1558_fw.mp4	0.0	213.4765510559082	0.09999585151672363
21	192.20726490020752	fix_pre	0		120	19.0	2.5	blank	1.0	213.57654690742493	0.9995710849761963
21	193.20683598518372	movie	1		300	19.0	2.5	blank	1.0	214.57611799240112	2.5003910064697266
21	193.59078788757324	pulse	1	t		19.0	2.5	blank	1.0	214.96006989479065	
21	195.19071793556213	pulse	1	t		19.0	2.5	blank	1.0	216.55999994277954	
21	195.70722699165344	fix_post	2		12	19.0	2.5	blank	1.0	217.07650899887085	0.10003399848937988
22	195.80726099014282	fix_pre	0		119	20.0	2.5	/experiments/AOT/AOT_stimuli/rescaled_final/0462_fw.mp4	0.0	217.17654299736023	0.9916689395904541
22	196.79078602790833	pulse	0	t		20.0	2.5	/experiments/AOT/AOT_stimuli/rescaled_final/0462_fw.mp4	0.0	218.16006803512573	
22	196.79892992973328	movie	1		245	20.0	2.5	/experiments/AOT/AOT_stimuli/rescaled_final/0462_fw.mp4	0.0	218.16821193695068	2.508302927017212
22	198.39036989212036	pulse	1	t		20.0	2.5	/experiments/AOT/AOT_stimuli/rescaled_final/0462_fw.mp4	0.0	219.75965189933777	
22	199.3072328567505	fix_post	2		12	20.0	2.5	/experiments/AOT/AOT_stimuli/rescaled_final/0462_fw.mp4	0.0	220.6765148639679	0.09998607635498047
23	199.40721893310547	fix_pre	0		120	21.0	2.5	/experiments/AOT/AOT_stimuli/rescaled_final/1710_fw.mp4	0.0	220.77650094032288	1.000054121017456
23	199.99073696136475	pulse	0	t		21.0	2.5	/experiments/AOT/AOT_stimuli/rescaled_final/1710_fw.mp4	0.0	221.36001896858215	
23	200.40727305412292	movie	1		247	21.0	2.5	/experiments/AOT/AOT_stimuli/rescaled_final/1710_fw.mp4	0.0	221.77655506134033	2.5000698566436768
23	201.59085202217102	pulse	1	t		21.0	2.5	/experiments/AOT/AOT_stimuli/rescaled_final/1710_fw.mp4	0.0	222.96013402938843	
23	202.9073429107666	fix_post	2		12	21.0	2.5	/experiments/AOT/AOT_stimuli/rescaled_final/1710_fw.mp4	0.0	224.276624917984	0.09988903999328613
24	203.0072319507599	fix_pre	0		120	22.0	2.5	/experiments/AOT/AOT_stimuli/rescaled_final/1206_fw.mp4	0.0	224.3765139579773	1.0000090599060059
24	203.1907548904419	pulse	0	t		22.0	2.5	/experiments/AOT/AOT_stimuli/rescaled_final/1206_fw.mp4	0.0	224.5600368976593	
24	204.0072410106659	movie	1		244	22.0	2.5	/experiments/AOT/AOT_stimuli/rescaled_final/1206_fw.mp4	0.0	225.3765230178833	2.499901056289673
24	204.79072904586792	pulse	1	t		22.0	2.5	/experiments/AOT/AOT_stimuli/rescaled_final/1206_fw.mp4	0.0	226.16001105308533	
24	206.38932490348816	pulse	1	t		22.0	2.5	/experiments/AOT/AOT_stimuli/rescaled_final/1206_fw.mp4	0.0	227.75860691070557	
24	206.50714206695557	fix_post	2		12	22.0	2.5	/experiments/AOT/AOT_stimuli/rescaled_final/1206_fw.mp4	0.0	227.87642407417297	0.10002994537353516
25	206.6071720123291	fix_pre	0		120	23.0	2.5	/experiments/AOT/AOT_stimuli/rescaled_final/1663_rv.mp4	0.0	227.9764540195465	0.9999768733978271
25	207.60714888572693	movie	1		244	23.0	2.5	/experiments/AOT/AOT_stimuli/rescaled_final/1663_rv.mp4	0.0	228.97643089294434	2.500049114227295
25	207.99035787582397	pulse	1	t		23.0	2.5	/experiments/AOT/AOT_stimuli/rescaled_final/1663_rv.mp4	0.0	229.35963988304138	
25	209.59060287475586	pulse	1	t		23.0	2.5	/experiments/AOT/AOT_stimuli/rescaled_final/1663_rv.mp4	0.0	230.95988488197327	
25	210.10719799995422	fix_post	2		12	23.0	2.5	/experiments/AOT/AOT_stimuli/rescaled_final/1663_rv.mp4	0.0	231.47648000717163	0.09992694854736328
26	210.2071249485016	fix_pre	0		119	24.0	2.5	/experiments/AOT/AOT_stimuli/rescaled_final/0624_rv.mp4	0.0	231.576406955719	0.9917130470275879
26	211.19074606895447	pulse	0	t		24.0	2.5	/experiments/AOT/AOT_stimuli/rescaled_final/0624_rv.mp4	0.0	232.56002807617188	
26	211.19883799552917	movie	1		245	24.0	2.5	/experiments/AOT/AOT_stimuli/rescaled_final/0624_rv.mp4	0.0	232.56812000274658	2.5078930854797363
26	212.7901589870453	pulse	1	t		24.0	2.5	/experiments/AOT/AOT_stimuli/rescaled_final/0624_rv.mp4	0.0	234.1594409942627	
26	213.7067310810089	fix_post	2		12	24.0	2.5	/experiments/AOT/AOT_stimuli/rescaled_final/0624_rv.mp4	0.0	235.07601308822632	0.10053277015686035
27	213.80726385116577	fix_pre	0		120	25.0	2.5	/experiments/AOT/AOT_stimuli/rescaled_final/1548_fw.mp4	0.0	235.17654585838318	0.9999082088470459
27	214.39028191566467	pulse	0	t		25.0	2.5	/experiments/AOT/AOT_stimuli/rescaled_final/1548_fw.mp4	0.0	235.75956392288208	
27	214.80717206001282	movie	1		245	25.0	2.5	/experiments/AOT/AOT_stimuli/rescaled_final/1548_fw.mp4	0.0	236.17645406723022	2.49995493888855
27	215.99031591415405	pulse	1	t		25.0	2.5	/experiments/AOT/AOT_stimuli/rescaled_final/1548_fw.mp4	0.0	237.35959792137146	
27	217.30712699890137	fix_post	2		12	25.0	2.5	/experiments/AOT/AOT_stimuli/rescaled_final/1548_fw.mp4	0.0	238.67640900611877	0.10040092468261719
28	217.40752792358398	fix_pre	0		120	26.0	2.5	/experiments/AOT/AOT_stimuli/rescaled_final/0076_rv.mp4	0.0	238.7768099308014	0.9996769428253174
28	217.59060287475586	pulse	0	t		26.0	2.5	/experiments/AOT/AOT_stimuli/rescaled_final/0076_rv.mp4	0.0	238.95988488197327	
28	218.4072048664093	movie	1		243	26.0	2.5	/experiments/AOT/AOT_stimuli/rescaled_final/0076_rv.mp4	0.0	239.7764868736267	2.499904155731201
28	219.19066405296326	pulse	1	t		26.0	2.5	/experiments/AOT/AOT_stimuli/rescaled_final/0076_rv.mp4	0.0	240.55994606018066	
28	220.78932285308838	pulse	1	t		26.0	2.5	/experiments/AOT/AOT_stimuli/rescaled_final/0076_rv.mp4	0.0	242.1586048603058	
28	220.9071090221405	fix_post	2		12	26.0	2.5	/experiments/AOT/AOT_stimuli/rescaled_final/0076_rv.mp4	0.0	242.2763910293579	0.10007905960083008
29	221.00718808174133	fix_pre	0		120	27.0	2.5	blank	1.0	242.37647008895874	0.9999289512634277
29	222.00711703300476	movie	1		300	27.0	2.5	blank	1.0	243.37639904022217	2.4999539852142334
29	222.39062094688416	pulse	1	t		27.0	2.5	blank	1.0	243.75990295410156	
29	223.9905960559845	pulse	1	t		27.0	2.5	blank	1.0	245.3598780632019	
29	224.507071018219	fix_post	2		12	27.0	2.5	blank	1.0	245.8763530254364	0.10004186630249023
30	224.60711288452148	fix_pre	0		119	28.0	2.5	/experiments/AOT/AOT_stimuli/rescaled_final/0073_fw.mp4	0.0	245.9763948917389	0.9916441440582275
30	225.5905659198761	pulse	0	t		28.0	2.5	/experiments/AOT/AOT_stimuli/rescaled_final/0073_fw.mp4	0.0	246.9598479270935	
30	225.5987570285797	movie	1		247	28.0	2.5	/experiments/AOT/AOT_stimuli/rescaled_final/0073_fw.mp4	0.0	246.96803903579712	2.5079400539398193
30	227.19036388397217	pulse	1	t		28.0	2.5	/experiments/AOT/AOT_stimuli/rescaled_final/0073_fw.mp4	0.0	248.55964589118958	
30	228.10669708251953	fix_post	2		12	28.0	2.5	/experiments/AOT/AOT_stimuli/rescaled_final/0073_fw.mp4	0.0	249.47597908973694	0.1004178524017334
31	228.20711493492126	fix_pre	0		120	29.0	2.5	/experiments/AOT/AOT_stimuli/rescaled_final/1206_rv.mp4	0.0	249.57639694213867	0.9999840259552002
31	228.79063987731934	pulse	0	t		29.0	2.5	/experiments/AOT/AOT_stimuli/rescaled_final/1206_rv.mp4	0.0	250.15992188453674	
31	229.20709896087646	movie	1		246	29.0	2.5	/experiments/AOT/AOT_stimuli/rescaled_final/1206_rv.mp4	0.0	250.57638096809387	2.49992299079895
31	230.3906409740448	pulse	1	t		29.0	2.5	/experiments/AOT/AOT_stimuli/rescaled_final/1206_rv.mp4	0.0	251.7599229812622	
31	231.70702195167542	fix_post	2		12	29.0	2.5	/experiments/AOT/AOT_stimuli/rescaled_final/1206_rv.mp4	0.0	253.07630395889282	0.10005497932434082
32	231.80707693099976	fix_pre	0		120	30.0	2.5	/experiments/AOT/AOT_stimuli/rescaled_final/2089_rv.mp4	0.0	253.17635893821716	0.999932050704956
32	231.99060988426208	pulse	0	t		30.0	2.5	/experiments/AOT/AOT_stimuli/rescaled_final/2089_rv.mp4	0.0	253.3598918914795	
32	232.8070089817047	movie	1		244	30.0	2.5	/experiments/AOT/AOT_stimuli/rescaled_final/2089_rv.mp4	0.0	254.17629098892212	2.50007700920105
32	233.59073305130005	pulse	1	t		30.0	2.5	/experiments/AOT/AOT_stimuli/rescaled_final/2089_rv.mp4	0.0	254.96001505851746	
32	235.18905806541443	pulse	1	t		30.0	2.5	/experiments/AOT/AOT_stimuli/rescaled_final/2089_rv.mp4	0.0	256.55834007263184	
32	235.30708599090576	fix_post	2		12	30.0	2.5	/experiments/AOT/AOT_stimuli/rescaled_final/2089_rv.mp4	0.0	256.67636799812317	0.1000070571899414
33	235.4070930480957	fix_pre	0		120	31.0	2.5	/experiments/AOT/AOT_stimuli/rescaled_final/1008_fw.mp4	0.0	256.7763750553131	0.9999039173126221
33	236.40699696540833	movie	1		246	31.0	2.5	/experiments/AOT/AOT_stimuli/rescaled_final/1008_fw.mp4	0.0	257.77627897262573	2.4996109008789062
33	236.7901520729065	pulse	1	t		31.0	2.5	/experiments/AOT/AOT_stimuli/rescaled_final/1008_fw.mp4	0.0	258.1594340801239	
33	238.39057087898254	pulse	1	t		31.0	2.5	/experiments/AOT/AOT_stimuli/rescaled_final/1008_fw.mp4	0.0	259.75985288619995	
33	238.90660786628723	fix_post	2		12	31.0	2.5	/experiments/AOT/AOT_stimuli/rescaled_final/1008_fw.mp4	0.0	260.27588987350464	0.10038614273071289
34	239.00699400901794	fix_pre	0		119	32.0	2.5	/experiments/AOT/AOT_stimuli/rescaled_final/2089_rv.mp4	0.0	260.37627601623535	0.9917230606079102
34	239.99055194854736	pulse	0	t		32.0	2.5	/experiments/AOT/AOT_stimuli/rescaled_final/2089_rv.mp4	0.0	261.35983395576477	
34	239.99871706962585	movie	1		244	32.0	2.5	/experiments/AOT/AOT_stimuli/rescaled_final/2089_rv.mp4	0.0	261.36799907684326	2.5082948207855225
34	241.59016489982605	pulse	1	t		32.0	2.5	/experiments/AOT/AOT_stimuli/rescaled_final/2089_rv.mp4	0.0	262.95944690704346	
34	242.50701189041138	fix_post	2		12	32.0	2.5	/experiments/AOT/AOT_stimuli/rescaled_final/2089_rv.mp4	0.0	263.8762938976288	0.09996700286865234
35	242.60697889328003	fix_pre	0		120	33.0	2.5	blank	1.0	263.97626090049744	1.0000090599060059
35	243.19053196907043	pulse	0	t		33.0	2.5	blank	1.0	264.55981397628784	
35	243.60698795318604	movie	1		300	33.0	2.5	blank	1.0	264.97626996040344	2.5000479221343994
35	244.79059600830078	pulse	1	t		33.0	2.5	blank	1.0	266.1598780155182	
35	246.10703587532043	fix_post	2		12	33.0	2.5	blank	1.0	267.47631788253784	0.09989714622497559
36	246.2069330215454	fix_pre	0		120	34.0	2.5	/experiments/AOT/AOT_stimuli/rescaled_final/1366_rv.mp4	0.0	267.5762150287628	1.0000388622283936
36	246.39053392410278	pulse	0	t		34.0	2.5	/experiments/AOT/AOT_stimuli/rescaled_final/1366_rv.mp4	0.0	267.7598159313202	
36	247.2069718837738	movie	1		247	34.0	2.5	/experiments/AOT/AOT_stimuli/rescaled_final/1366_rv.mp4	0.0	268.5762538909912	2.500094175338745
36	247.99056696891785	pulse	1	t		34.0	2.5	/experiments/AOT/AOT_stimuli/rescaled_final/1366_rv.mp4	0.0	269.35984897613525	
36	249.5905659198761	pulse	1	t		34.0	2.5	/experiments/AOT/AOT_stimuli/rescaled_final/1366_rv.mp4	0.0	270.9598479270935	
36	249.70706605911255	fix_post	2		12	34.0	2.5	/experiments/AOT/AOT_stimuli/rescaled_final/1366_rv.mp4	0.0	271.07634806632996	0.09998393058776855
37	249.80704998970032	fix_pre	0		120	35.0	2.5	/experiments/AOT/AOT_stimuli/rescaled_final/1432_fw.mp4	0.0	271.1763319969177	0.9999749660491943
37	250.8070249557495	movie	1		246	35.0	2.5	/experiments/AOT/AOT_stimuli/rescaled_final/1432_fw.mp4	0.0	272.1763069629669	2.4999749660491943
37	251.1899609565735	pulse	1	t		35.0	2.5	/experiments/AOT/AOT_stimuli/rescaled_final/1432_fw.mp4	0.0	272.5592429637909	
37	252.79052591323853	pulse	1	t		35.0	2.5	/experiments/AOT/AOT_stimuli/rescaled_final/1432_fw.mp4	0.0	274.15980792045593	
37	253.3069999217987	fix_post	2		12	35.0	2.5	/experiments/AOT/AOT_stimuli/rescaled_final/1432_fw.mp4	0.0	274.6762819290161	0.0999910831451416
38	253.40699100494385	fix_pre	0		119	36.0	2.5	/experiments/AOT/AOT_stimuli/rescaled_final/0907_fw.mp4	0.0	274.77627301216125	0.99167799949646
38	254.39051795005798	pulse	0	t		36.0	2.5	/experiments/AOT/AOT_stimuli/rescaled_final/0907_fw.mp4	0.0	275.7597999572754	
38	254.3986690044403	movie	1		246	36.0	2.5	/experiments/AOT/AOT_stimuli/rescaled_final/0907_fw.mp4	0.0	275.7679510116577	2.5083229541778564
38	255.99047589302063	pulse	1	t		36.0	2.5	/experiments/AOT/AOT_stimuli/rescaled_final/0907_fw.mp4	0.0	277.35975790023804	
38	256.90699195861816	fix_post	2		12	36.0	2.5	/experiments/AOT/AOT_stimuli/rescaled_final/0907_fw.mp4	0.0	278.27627396583557	0.09997701644897461
39	257.00696897506714	fix_pre	0		120	37.0	2.5	/experiments/AOT/AOT_stimuli/rescaled_final/1322_fw.mp4	0.0	278.37625098228455	1.0000290870666504
39	257.59179306030273	pulse	0	t		37.0	2.5	/experiments/AOT/AOT_stimuli/rescaled_final/1322_fw.mp4	0.0	278.96107506752014	
39	258.0069980621338	movie	1		245	37.0	2.5	/experiments/AOT/AOT_stimuli/rescaled_final/1322_fw.mp4	0.0	279.3762800693512	2.500027894973755
39	259.19068002700806	pulse	1	t		37.0	2.5	/experiments/AOT/AOT_stimuli/rescaled_final/1322_fw.mp4	0.0	280.55996203422546	
39	260.50702595710754	fix_post	2		12	37.0	2.5	/experiments/AOT/AOT_stimuli/rescaled_final/1322_fw.mp4	0.0	281.87630796432495	0.09992003440856934
40	260.6069459915161	fix_pre	0		120	38.0	2.5	/experiments/AOT/AOT_stimuli/rescaled_final/1396_fw.mp4	0.0	281.9762279987335	1.0000190734863281
40	260.79047298431396	pulse	0	t		38.0	2.5	/experiments/AOT/AOT_stimuli/rescaled_final/1396_fw.mp4	0.0	282.1597549915314	
40	261.60696506500244	movie	1		244	38.0	2.5	/experiments/AOT/AOT_stimuli/rescaled_final/1396_fw.mp4	0.0	282.97624707221985	2.500093936920166
40	262.3904068470001	pulse	1	t		38.0	2.5	/experiments/AOT/AOT_stimuli/rescaled_final/1396_fw.mp4	0.0	283.75968885421753	
40	263.9889018535614	pulse	1	t		38.0	2.5	/experiments/AOT/AOT_stimuli/rescaled_final/1396_fw.mp4	0.0	285.3581838607788	
40	264.1070590019226	fix_post	2		12	38.0	2.5	/experiments/AOT/AOT_stimuli/rescaled_final/1396_fw.mp4	0.0	285.47634100914	0.09993100166320801
41	264.2069900035858	fix_pre	0		120	39.0	2.5	/experiments/AOT/AOT_stimuli/rescaled_final/1446_rv.mp4	0.0	285.5762720108032	0.9999759197235107
41	265.2069659233093	movie	1		244	39.0	2.5	/experiments/AOT/AOT_stimuli/rescaled_final/1446_rv.mp4	0.0	286.57624793052673	2.5000100135803223
41	265.5914468765259	pulse	1	t		39.0	2.5	/experiments/AOT/AOT_stimuli/rescaled_final/1446_rv.mp4	0.0	286.9607288837433	
41	267.19045305252075	pulse	1	t		39.0	2.5	/experiments/AOT/AOT_stimuli/rescaled_final/1446_rv.mp4	0.0	288.55973505973816	
41	267.70697593688965	fix_post	2		12	39.0	2.5	/experiments/AOT/AOT_stimuli/rescaled_final/1446_rv.mp4	0.0	289.07625794410706	0.10002613067626953
42	267.8070020675659	fix_pre	0		119	40.0	2.5	/experiments/AOT/AOT_stimuli/rescaled_final/0070_fw.mp4	0.0	289.1762840747833	0.9916129112243652
42	268.79039788246155	pulse	0	t		40.0	2.5	/experiments/AOT/AOT_stimuli/rescaled_final/0070_fw.mp4	0.0	290.15967988967896	
42	268.7986149787903	movie	1		248	40.0	2.5	/experiments/AOT/AOT_stimuli/rescaled_final/0070_fw.mp4	0.0	290.1678969860077	2.5079879760742188
42	270.38965702056885	pulse	1	t		40.0	2.5	/experiments/AOT/AOT_stimuli/rescaled_final/0070_fw.mp4	0.0	291.75893902778625	
42	271.3066029548645	fix_post	2		12	40.0	2.5	/experiments/AOT/AOT_stimuli/rescaled_final/0070_fw.mp4	0.0	292.6758849620819	0.09998297691345215
43	271.40658593177795	fix_pre	0		120	41.0	2.5	/experiments/AOT/AOT_stimuli/rescaled_final/1502_fw.mp4	0.0	292.77586793899536	1.000594139099121
43	271.9913880825043	pulse	0	t		41.0	2.5	/experiments/AOT/AOT_stimuli/rescaled_final/1502_fw.mp4	0.0	293.3606700897217	
43	272.4071800708771	movie	1		248	41.0	2.5	/experiments/AOT/AOT_stimuli/rescaled_final/1502_fw.mp4	0.0	293.7764620780945	2.499715805053711
43	273.5907859802246	pulse	1	t		41.0	2.5	/experiments/AOT/AOT_stimuli/rescaled_final/1502_fw.mp4	0.0	294.960067987442	
43	274.9068958759308	fix_post	2		12	41.0	2.5	/experiments/AOT/AOT_stimuli/rescaled_final/1502_fw.mp4	0.0	296.2761778831482	0.10005807876586914
44	275.00695395469666	fix_pre	0		120	42.0	2.5	blank	1.0	296.37623596191406	1.0000219345092773
44	275.19041299819946	pulse	0	t		42.0	2.5	blank	1.0	296.55969500541687	
44	276.00697588920593	movie	1		300	42.0	2.5	blank	1.0	297.37625789642334	2.499948024749756
44	276.79034304618835	pulse	1	t		42.0	2.5	blank	1.0	298.15962505340576	
44	278.390380859375	pulse	1	t		42.0	2.5	blank	1.0	299.7596628665924	
44	278.5069239139557	fix_post	2		12	42.0	2.5	blank	1.0	299.8762059211731	0.09998202323913574
45	278.6069059371948	fix_pre	0		120	43.0	2.5	/experiments/AOT/AOT_stimuli/rescaled_final/1317_rv.mp4	0.0	299.97618794441223	0.9999301433563232
45	279.60683608055115	movie	1		246	43.0	2.5	/experiments/AOT/AOT_stimuli/rescaled_final/1317_rv.mp4	0.0	300.97611808776855	2.500041961669922
45	279.9908308982849	pulse	1	t		43.0	2.5	/experiments/AOT/AOT_stimuli/rescaled_final/1317_rv.mp4	0.0	301.3601129055023	
45	281.590313911438	pulse	1	t		43.0	2.5	/experiments/AOT/AOT_stimuli/rescaled_final/1317_rv.mp4	0.0	302.9595959186554	
45	282.10687804222107	fix_post	2		12	43.0	2.5	/experiments/AOT/AOT_stimuli/rescaled_final/1317_rv.mp4	0.0	303.4761600494385	0.0999758243560791
46	282.20685386657715	fix_pre	0		119	44.0	2.5	/experiments/AOT/AOT_stimuli/rescaled_final/2009_rv.mp4	0.0	303.57613587379456	0.9916491508483887
46	283.19030499458313	pulse	0	t		44.0	2.5	/experiments/AOT/AOT_stimuli/rescaled_final/2009_rv.mp4	0.0	304.55958700180054	
46	283.19850301742554	movie	1		247	44.0	2.5	/experiments/AOT/AOT_stimuli/rescaled_final/2009_rv.mp4	0.0	304.56778502464294	2.508307933807373
46	284.7900948524475	pulse	1	t		44.0	2.5	/experiments/AOT/AOT_stimuli/rescaled_final/2009_rv.mp4	0.0	306.1593768596649	
46	285.7068109512329	fix_post	2		12	44.0	2.5	/experiments/AOT/AOT_stimuli/rescaled_final/2009_rv.mp4	0.0	307.0760929584503	0.10001707077026367
47	285.8068280220032	fix_pre	0		120	45.0	2.5	/experiments/AOT/AOT_stimuli/rescaled_final/0382_rv.mp4	0.0	307.1761100292206	1.0000228881835938
47	286.39030599594116	pulse	0	t		45.0	2.5	/experiments/AOT/AOT_stimuli/rescaled_final/0382_rv.mp4	0.0	307.75958800315857	
47	286.80685091018677	movie	1		244	45.0	2.5	/experiments/AOT/AOT_stimuli/rescaled_final/0382_rv.mp4	0.0	308.1761329174042	2.4999871253967285
47	287.99045586586	pulse	1	t		45.0	2.5	/experiments/AOT/AOT_stimuli/rescaled_final/0382_rv.mp4	0.0	309.3597378730774	
47	289.3068380355835	fix_post	2		12	45.0	2.5	/experiments/AOT/AOT_stimuli/rescaled_final/0382_rv.mp4	0.0	310.6761200428009	0.0999908447265625
48	289.40682888031006	fix_pre	0		120	46.0	2.5	/experiments/AOT/AOT_stimuli/rescaled_final/1891_rv.mp4	0.0	310.77611088752747	1.0000221729278564
48	289.5902500152588	pulse	0	t		46.0	2.5	/experiments/AOT/AOT_stimuli/rescaled_final/1891_rv.mp4	0.0	310.9595320224762	
48	290.4068510532379	movie	1		244	46.0	2.5	/experiments/AOT/AOT_stimuli/rescaled_final/1891_rv.mp4	0.0	311.7761330604553	2.4999430179595947
48	291.1902930736542	pulse	1	t		46.0	2.5	/experiments/AOT/AOT_stimuli/rescaled_final/1891_rv.mp4	0.0	312.5595750808716	
48	292.78876185417175	pulse	1	t		46.0	2.5	/experiments/AOT/AOT_stimuli/rescaled_final/1891_rv.mp4	0.0	314.15804386138916	
48	292.9067940711975	fix_post	2		12	46.0	2.5	/experiments/AOT/AOT_stimuli/rescaled_final/1891_rv.mp4	0.0	314.2760760784149	0.09999799728393555
49	293.00679206848145	fix_pre	0		120	47.0	2.5	/experiments/AOT/AOT_stimuli/rescaled_final/0070_rv.mp4	0.0	314.37607407569885	1.000058889389038
49	294.0068509578705	movie	1		247	47.0	2.5	/experiments/AOT/AOT_stimuli/rescaled_final/0070_rv.mp4	0.0	315.3761329650879	2.499872922897339
49	294.3899760246277	pulse	1	t		47.0	2.5	/experiments/AOT/AOT_stimuli/rescaled_final/0070_rv.mp4	0.0	315.7592580318451	
49	295.9902448654175	pulse	1	t		47.0	2.5	/experiments/AOT/AOT_stimuli/rescaled_final/0070_rv.mp4	0.0	317.3595268726349	
49	296.5067238807678	fix_post	2		12	47.0	2.5	/experiments/AOT/AOT_stimuli/rescaled_final/0070_rv.mp4	0.0	317.87600588798523	0.09999513626098633
50	296.6067190170288	fix_pre	0		119	48.0	2.5	/experiments/AOT/AOT_stimuli/rescaled_final/1860_fw.mp4	0.0	317.9760010242462	0.9916388988494873
50	297.59022092819214	pulse	0	t		48.0	2.5	/experiments/AOT/AOT_stimuli/rescaled_final/1860_fw.mp4	0.0	318.95950293540955	
50	297.5983579158783	movie	1		246	48.0	2.5	/experiments/AOT/AOT_stimuli/rescaled_final/1860_fw.mp4	0.0	318.9676399230957	2.5084099769592285
50	299.19000697135925	pulse	1	t		48.0	2.5	/experiments/AOT/AOT_stimuli/rescaled_final/1860_fw.mp4	0.0	320.55928897857666	
50	300.1067678928375	fix_post	2		12	48.0	2.5	/experiments/AOT/AOT_stimuli/rescaled_final/1860_fw.mp4	0.0	321.47604990005493	0.09998917579650879
51	300.20675706863403	fix_pre	0		120	49.0	2.5	blank	1.0	321.57603907585144	1.0000438690185547
51	300.7901349067688	pulse	0	t		49.0	2.5	blank	1.0	322.1594169139862	
51	301.2068009376526	movie	1		300	49.0	2.5	blank	1.0	322.57608294487	2.499908924102783
51	302.3902418613434	pulse	1	t		49.0	2.5	blank	1.0	323.7595238685608	
51	303.70670986175537	fix_post	2		12	49.0	2.5	blank	1.0	325.0759918689728	0.1000070571899414
52	303.8067169189453	fix_pre	0		120	50.0	2.5	/experiments/AOT/AOT_stimuli/rescaled_final/0059_rv.mp4	0.0	325.1759989261627	0.9999830722808838
52	303.99022793769836	pulse	0	t		50.0	2.5	/experiments/AOT/AOT_stimuli/rescaled_final/0059_rv.mp4	0.0	325.35950994491577	
52	304.8066999912262	movie	1		243	50.0	2.5	/experiments/AOT/AOT_stimuli/rescaled_final/0059_rv.mp4	0.0	326.1759819984436	2.500066041946411
52	305.5902490615845	pulse	1	t		50.0	2.5	/experiments/AOT/AOT_stimuli/rescaled_final/0059_rv.mp4	0.0	326.9595310688019	
52	307.18866991996765	pulse	1	t		50.0	2.5	/experiments/AOT/AOT_stimuli/rescaled_final/0059_rv.mp4	0.0	328.55795192718506	
52	307.3067660331726	fix_post	2		12	50.0	2.5	/experiments/AOT/AOT_stimuli/rescaled_final/0059_rv.mp4	0.0	328.67604804039	0.09985804557800293
53	307.4066240787506	fix_pre	0		120	51.0	2.5	/experiments/AOT/AOT_stimuli/rescaled_final/1494_rv.mp4	0.0	328.775906085968	1.0001029968261719
53	308.4067270755768	movie	1		244	51.0	2.5	/experiments/AOT/AOT_stimuli/rescaled_final/1494_rv.mp4	0.0	329.7760090827942	2.4999499320983887
53	308.78973388671875	pulse	1	t		51.0	2.5	/experiments/AOT/AOT_stimuli/rescaled_final/1494_rv.mp4	0.0	330.15901589393616	
53	310.390163898468	pulse	1	t		51.0	2.5	/experiments/AOT/AOT_stimuli/rescaled_final/1494_rv.mp4	0.0	331.7594459056854	
53	310.90667700767517	fix_post	2		12	51.0	2.5	/experiments/AOT/AOT_stimuli/rescaled_final/1494_rv.mp4	0.0	332.2759590148926	0.09997391700744629
54	311.0066509246826	fix_pre	0		119	52.0	2.5	/experiments/AOT/AOT_stimuli/rescaled_final/0547_rv.mp4	0.0	332.3759329319	0.9916701316833496
54	311.9901728630066	pulse	0	t		52.0	2.5	/experiments/AOT/AOT_stimuli/rescaled_final/0547_rv.mp4	0.0	333.359454870224	
54	311.99832105636597	movie	1		245	52.0	2.5	/experiments/AOT/AOT_stimuli/rescaled_final/0547_rv.mp4	0.0	333.3676030635834	2.5084497928619385
54	313.58976888656616	pulse	1	t		52.0	2.5	/experiments/AOT/AOT_stimuli/rescaled_final/0547_rv.mp4	0.0	334.95905089378357	
54	314.5067708492279	fix_post	2		12	52.0	2.5	/experiments/AOT/AOT_stimuli/rescaled_final/0547_rv.mp4	0.0	335.8760528564453	0.09997320175170898
55	314.6067440509796	fix_pre	0		120	53.0	2.5	/experiments/AOT/AOT_stimuli/rescaled_final/0376_rv.mp4	0.0	335.976026058197	0.9998838901519775
55	315.19013595581055	pulse	0	t		53.0	2.5	/experiments/AOT/AOT_stimuli/rescaled_final/0376_rv.mp4	0.0	336.55941796302795	
55	315.6066279411316	movie	1		244	53.0	2.5	/experiments/AOT/AOT_stimuli/rescaled_final/0376_rv.mp4	0.0	336.975909948349	2.5000200271606445
55	316.7902739048004	pulse	1	t		53.0	2.5	/experiments/AOT/AOT_stimuli/rescaled_final/0376_rv.mp4	0.0	338.1595559120178	
55	318.10664796829224	fix_post	2		12	53.0	2.5	/experiments/AOT/AOT_stimuli/rescaled_final/0376_rv.mp4	0.0	339.47592997550964	0.10008692741394043
56	318.2067348957062	fix_pre	0		120	54.0	2.5	/experiments/AOT/AOT_stimuli/rescaled_final/0273_fw.mp4	0.0	339.5760169029236	1.0000059604644775
56	318.39024591445923	pulse	0	t		54.0	2.5	/experiments/AOT/AOT_stimuli/rescaled_final/0273_fw.mp4	0.0	339.75952792167664	
56	319.20674085617065	movie	1		243	54.0	2.5	/experiments/AOT/AOT_stimuli/rescaled_final/0273_fw.mp4	0.0	340.57602286338806	2.4999101161956787
56	319.99021196365356	pulse	1	t		54.0	2.5	/experiments/AOT/AOT_stimuli/rescaled_final/0273_fw.mp4	0.0	341.359493970871	
56	321.58862686157227	pulse	1	t		54.0	2.5	/experiments/AOT/AOT_stimuli/rescaled_final/0273_fw.mp4	0.0	342.9579088687897	
56	321.70665097236633	fix_post	2		12	54.0	2.5	/experiments/AOT/AOT_stimuli/rescaled_final/0273_fw.mp4	0.0	343.07593297958374	0.09966301918029785
57	321.80631399154663	fix_pre	0		120	55.0	2.5	blank	1.0	343.17559599876404	1.0003418922424316
57	322.80665588378906	movie	1		300	55.0	2.5	blank	1.0	344.17593789100647	2.499974012374878
57	323.1901319026947	pulse	1	t		55.0	2.5	blank	1.0	344.5594139099121	
57	324.7900869846344	pulse	1	t		55.0	2.5	blank	1.0	346.1593689918518	
57	325.30662989616394	fix_post	2		12	55.0	2.5	blank	1.0	346.67591190338135	0.10001802444458008
58	325.4066479206085	fix_pre	0		119	56.0	2.5	/experiments/AOT/AOT_stimuli/rescaled_final/1502_fw.mp4	0.0	346.7759299278259	0.9912779331207275
58	326.39030504226685	pulse	0	t		56.0	2.5	/experiments/AOT/AOT_stimuli/rescaled_final/1502_fw.mp4	0.0	347.75958704948425	
58	326.39792585372925	movie	1		246	56.0	2.5	/experiments/AOT/AOT_stimuli/rescaled_final/1502_fw.mp4	0.0	347.76720786094666	2.5084991455078125
58	327.9897789955139	pulse	1	t		56.0	2.5	/experiments/AOT/AOT_stimuli/rescaled_final/1502_fw.mp4	0.0	349.3590610027313	
58	328.90642499923706	fix_post	2		12	56.0	2.5	/experiments/AOT/AOT_stimuli/rescaled_final/1502_fw.mp4	0.0	350.27570700645447	0.10004806518554688
59	329.0064730644226	fix_pre	0		120	57.0	2.5	/experiments/AOT/AOT_stimuli/rescaled_final/0076_fw.mp4	0.0	350.37575507164	1.0001919269561768
59	329.5913920402527	pulse	0	t		57.0	2.5	/experiments/AOT/AOT_stimuli/rescaled_final/0076_fw.mp4	0.0	350.9606740474701	
59	330.0066649913788	movie	1		245	57.0	2.5	/experiments/AOT/AOT_stimuli/rescaled_final/0076_fw.mp4	0.0	351.3759469985962	2.500011920928955
59	331.1900808811188	pulse	1	t		57.0	2.5	/experiments/AOT/AOT_stimuli/rescaled_final/0076_fw.mp4	0.0	352.5593628883362	
59	332.50667691230774	fix_post	2		12	57.0	2.5	/experiments/AOT/AOT_stimuli/rescaled_final/0076_fw.mp4	0.0	353.87595891952515	0.09992599487304688
60	332.6066029071808	fix_pre	0		120	58.0	2.5	/experiments/AOT/AOT_stimuli/rescaled_final/0743_rv.mp4	0.0	353.9758849143982	1.000028133392334
60	332.7900559902191	pulse	0	t		58.0	2.5	/experiments/AOT/AOT_stimuli/rescaled_final/0743_rv.mp4	0.0	354.1593379974365	
60	333.6066310405731	movie	1		244	58.0	2.5	/experiments/AOT/AOT_stimuli/rescaled_final/0743_rv.mp4	0.0	354.9759130477905	2.499497890472412
60	334.38999104499817	pulse	1	t		58.0	2.5	/experiments/AOT/AOT_stimuli/rescaled_final/0743_rv.mp4	0.0	355.7592730522156	
60	335.9884660243988	pulse	1	t		58.0	2.5	/experiments/AOT/AOT_stimuli/rescaled_final/0743_rv.mp4	0.0	357.3577480316162	
60	336.10612893104553	fix_post	2		12	58.0	2.5	/experiments/AOT/AOT_stimuli/rescaled_final/0743_rv.mp4	0.0	357.47541093826294	0.09998893737792969
61	336.20611786842346	fix_pre	0		120	59.0	2.5	/experiments/AOT/AOT_stimuli/rescaled_final/1192_rv.mp4	0.0	357.57539987564087	1.000434160232544
61	337.206552028656	movie	1		245	59.0	2.5	/experiments/AOT/AOT_stimuli/rescaled_final/1192_rv.mp4	0.0	358.5758340358734	2.499985933303833
61	337.59005093574524	pulse	1	t		59.0	2.5	/experiments/AOT/AOT_stimuli/rescaled_final/1192_rv.mp4	0.0	358.95933294296265	
61	339.19000697135925	pulse	1	t		59.0	2.5	/experiments/AOT/AOT_stimuli/rescaled_final/1192_rv.mp4	0.0	360.55928897857666	
61	339.70653796195984	fix_post	2		12	59.0	2.5	/experiments/AOT/AOT_stimuli/rescaled_final/1192_rv.mp4	0.0	361.07581996917725	0.09998703002929688
62	339.80652499198914	fix_pre	0		119	60.0	2.5	/experiments/AOT/AOT_stimuli/rescaled_final/1891_rv.mp4	0.0	361.17580699920654	0.991703987121582
62	340.7900068759918	pulse	0	t		60.0	2.5	/experiments/AOT/AOT_stimuli/rescaled_final/1891_rv.mp4	0.0	362.15928888320923	
62	340.7982289791107	movie	1		247	60.0	2.5	/experiments/AOT/AOT_stimuli/rescaled_final/1891_rv.mp4	0.0	362.1675109863281	2.508262872695923
62	342.3894190788269	pulse	1	t		60.0	2.5	/experiments/AOT/AOT_stimuli/rescaled_final/1891_rv.mp4	0.0	363.7587010860443	
62	343.30649185180664	fix_post	2		12	60.0	2.5	/experiments/AOT/AOT_stimuli/rescaled_final/1891_rv.mp4	0.0	364.67577385902405	0.10001516342163086
63	343.40650701522827	fix_pre	0		120	61.0	2.5	blank	1.0	364.7757890224457	1.0000128746032715
63	343.9900438785553	pulse	0	t		61.0	2.5	blank	1.0	365.3593258857727	
63	344.40651988983154	movie	1		300	61.0	2.5	blank	1.0	365.77580189704895	2.500054121017456
63	345.5900139808655	pulse	1	t		61.0	2.5	blank	1.0	366.9592959880829	
63	346.906574010849	fix_post	2		12	61.0	2.5	blank	1.0	368.2758560180664	0.09987401962280273
64	347.0064480304718	fix_pre	0		120	62.0	2.5	/experiments/AOT/AOT_stimuli/rescaled_final/0837_fw.mp4	0.0	368.3757300376892	1.0000619888305664
64	347.1900100708008	pulse	0	t		62.0	2.5	/experiments/AOT/AOT_stimuli/rescaled_final/0837_fw.mp4	0.0	368.5592920780182	
64	348.00651001930237	movie	1		243	62.0	2.5	/experiments/AOT/AOT_stimuli/rescaled_final/0837_fw.mp4	0.0	369.3757920265198	2.4999630451202393
64	348.7899730205536	pulse	1	t		62.0	2.5	/experiments/AOT/AOT_stimuli/rescaled_final/0837_fw.mp4	0.0	370.159255027771	
64	350.38845586776733	pulse	1	t		62.0	2.5	/experiments/AOT/AOT_stimuli/rescaled_final/0837_fw.mp4	0.0	371.75773787498474	
64	350.5064730644226	fix_post	2		12	62.0	2.5	/experiments/AOT/AOT_stimuli/rescaled_final/0837_fw.mp4	0.0	371.87575507164	0.10000896453857422
65	350.6064820289612	fix_pre	0		120	63.0	2.5	/experiments/AOT/AOT_stimuli/rescaled_final/0347_rv.mp4	0.0	371.9757640361786	0.9999399185180664
65	351.60642194747925	movie	1		243	63.0	2.5	/experiments/AOT/AOT_stimuli/rescaled_final/0347_rv.mp4	0.0	372.97570395469666	2.5000510215759277
65	351.99012899398804	pulse	1	t		63.0	2.5	/experiments/AOT/AOT_stimuli/rescaled_final/0347_rv.mp4	0.0	373.35941100120544	
65	353.58999705314636	pulse	1	t		63.0	2.5	/experiments/AOT/AOT_stimuli/rescaled_final/0347_rv.mp4	0.0	374.95927906036377	
65	354.1064729690552	fix_post	2		12	63.0	2.5	/experiments/AOT/AOT_stimuli/rescaled_final/0347_rv.mp4	0.0	375.4757549762726	0.09995198249816895
66	354.20642495155334	fix_pre	0		119	64.0	2.5	/experiments/AOT/AOT_stimuli/rescaled_final/0810_rv.mp4	0.0	375.57570695877075	0.9916949272155762
66	355.1899960041046	pulse	0	t		64.0	2.5	/experiments/AOT/AOT_stimuli/rescaled_final/0810_rv.mp4	0.0	376.559278011322	
66	355.1981198787689	movie	1		245	64.0	2.5	/experiments/AOT/AOT_stimuli/rescaled_final/0810_rv.mp4	0.0	376.5674018859863	2.508435010910034
66	356.7896568775177	pulse	1	t		64.0	2.5	/experiments/AOT/AOT_stimuli/rescaled_final/0810_rv.mp4	0.0	378.1589388847351	
66	357.70655488967896	fix_post	2		12	64.0	2.5	/experiments/AOT/AOT_stimuli/rescaled_final/0810_rv.mp4	0.0	379.07583689689636	0.09987497329711914
67	357.8064298629761	fix_pre	0		120	65.0	2.5	/experiments/AOT/AOT_stimuli/rescaled_final/1166_fw.mp4	0.0	379.1757118701935	1.0001740455627441
67	358.38994789123535	pulse	0	t		65.0	2.5	/experiments/AOT/AOT_stimuli/rescaled_final/1166_fw.mp4	0.0	379.75922989845276	
67	358.8066039085388	movie	1		246	65.0	2.5	/experiments/AOT/AOT_stimuli/rescaled_final/1166_fw.mp4	0.0	380.1758859157562	2.4998340606689453
67	359.99008798599243	pulse	1	t		65.0	2.5	/experiments/AOT/AOT_stimuli/rescaled_final/1166_fw.mp4	0.0	381.35936999320984	
67	361.30643796920776	fix_post	2		12	65.0	2.5	/experiments/AOT/AOT_stimuli/rescaled_final/1166_fw.mp4	0.0	382.67571997642517	0.10002303123474121
68	361.4064610004425	fix_pre	0		120	66.0	2.5	/experiments/AOT/AOT_stimuli/rescaled_final/1192_fw.mp4	0.0	382.7757430076599	0.9999978542327881
68	361.58998107910156	pulse	0	t		66.0	2.5	/experiments/AOT/AOT_stimuli/rescaled_final/1192_fw.mp4	0.0	382.95926308631897	
68	362.4064588546753	movie	1		245	66.0	2.5	/experiments/AOT/AOT_stimuli/rescaled_final/1192_fw.mp4	0.0	383.7757408618927	2.4999330043792725
68	363.1899719238281	pulse	1	t		66.0	2.5	/experiments/AOT/AOT_stimuli/rescaled_final/1192_fw.mp4	0.0	384.55925393104553	
68	364.78821992874146	pulse	1	t		66.0	2.5	/experiments/AOT/AOT_stimuli/rescaled_final/1192_fw.mp4	0.0	386.15750193595886	
68	364.90639185905457	fix_post	2		12	66.0	2.5	/experiments/AOT/AOT_stimuli/rescaled_final/1192_fw.mp4	0.0	386.275673866272	0.0999610424041748
69	365.00635290145874	fix_pre	0		120	67.0	2.5	/experiments/AOT/AOT_stimuli/rescaled_final/1054_rv.mp4	0.0	386.37563490867615	1.0000710487365723
69	366.0064239501953	movie	1		244	67.0	2.5	/experiments/AOT/AOT_stimuli/rescaled_final/1054_rv.mp4	0.0	387.3757059574127	2.500143051147461
69	366.3900640010834	pulse	1	t		67.0	2.5	/experiments/AOT/AOT_stimuli/rescaled_final/1054_rv.mp4	0.0	387.7593460083008	
69	367.98991799354553	pulse	1	t		67.0	2.5	/experiments/AOT/AOT_stimuli/rescaled_final/1054_rv.mp4	0.0	389.35920000076294	
69	368.5065670013428	fix_post	2		12	67.0	2.5	/experiments/AOT/AOT_stimuli/rescaled_final/1054_rv.mp4	0.0	389.8758490085602	0.09991097450256348
70	368.60647797584534	fix_pre	0		119	68.0	2.5	/experiments/AOT/AOT_stimuli/rescaled_final/1005_fw.mp4	0.0	389.97575998306274	0.9916238784790039
70	369.5899040699005	pulse	0	t		68.0	2.5	/experiments/AOT/AOT_stimuli/rescaled_final/1005_fw.mp4	0.0	390.9591860771179	
70	369.59810185432434	movie	1		247	68.0	2.5	/experiments/AOT/AOT_stimuli/rescaled_final/1005_fw.mp4	0.0	390.96738386154175	2.5083210468292236
70	371.18939995765686	pulse	1	t		68.0	2.5	/experiments/AOT/AOT_stimuli/rescaled_final/1005_fw.mp4	0.0	392.55868196487427	
70	372.10642290115356	fix_post	2		12	68.0	2.5	/experiments/AOT/AOT_stimuli/rescaled_final/1005_fw.mp4	0.0	393.475704908371	0.0999901294708252
71	372.2064130306244	fix_pre	0		120	69.0	2.5	blank	1.0	393.5756950378418	0.9995448589324951
71	372.7899148464203	pulse	0	t		69.0	2.5	blank	1.0	394.1591968536377	
71	373.2059578895569	movie	1		300	69.0	2.5	blank	1.0	394.5752398967743	2.5004210472106934
71	374.3898479938507	pulse	1	t		69.0	2.5	blank	1.0	395.7591300010681	
71	375.7063789367676	fix_post	2		12	69.0	2.5	blank	1.0	397.075660943985	0.1002199649810791
72	375.80659890174866	fix_pre	0		120	70.0	2.5	/experiments/AOT/AOT_stimuli/rescaled_final/2090_fw.mp4	0.0	397.17588090896606	0.9998641014099121
72	375.9899208545685	pulse	0	t		70.0	2.5	/experiments/AOT/AOT_stimuli/rescaled_final/2090_fw.mp4	0.0	397.3592028617859	
72	376.80646300315857	movie	1		245	70.0	2.5	/experiments/AOT/AOT_stimuli/rescaled_final/2090_fw.mp4	0.0	398.175745010376	2.4998838901519775
72	377.58993887901306	pulse	1	t		70.0	2.5	/experiments/AOT/AOT_stimuli/rescaled_final/2090_fw.mp4	0.0	398.95922088623047	
72	379.18987107276917	pulse	1	t		70.0	2.5	/experiments/AOT/AOT_stimuli/rescaled_final/2090_fw.mp4	0.0	400.5591530799866	
72	379.30634689331055	fix_post	2		12	70.0	2.5	/experiments/AOT/AOT_stimuli/rescaled_final/2090_fw.mp4	0.0	400.67562890052795	0.10006904602050781
73	379.40641593933105	fix_pre	0		120	71.0	2.5	/experiments/AOT/AOT_stimuli/rescaled_final/0005_rv.mp4	0.0	400.77569794654846	1.0000801086425781
73	380.40649604797363	movie	1		246	71.0	2.5	/experiments/AOT/AOT_stimuli/rescaled_final/0005_rv.mp4	0.0	401.77577805519104	2.4994678497314453
73	380.78989601135254	pulse	1	t		71.0	2.5	/experiments/AOT/AOT_stimuli/rescaled_final/0005_rv.mp4	0.0	402.15917801856995	
73	382.3893780708313	pulse	1	t		71.0	2.5	/experiments/AOT/AOT_stimuli/rescaled_final/0005_rv.mp4	0.0	403.7586600780487	
73	382.9059638977051	fix_post	2		12	71.0	2.5	/experiments/AOT/AOT_stimuli/rescaled_final/0005_rv.mp4	0.0	404.2752459049225	0.10042715072631836
74	383.0063910484314	fix_pre	0		119	72.0	2.5	/experiments/AOT/AOT_stimuli/rescaled_final/0316_fw.mp4	0.0	404.3756730556488	0.9913539886474609
74	383.9895529747009	pulse	0	t		72.0	2.5	/experiments/AOT/AOT_stimuli/rescaled_final/0316_fw.mp4	0.0	405.35883498191833	
74	383.99774503707886	movie	1		249	72.0	2.5	/experiments/AOT/AOT_stimuli/rescaled_final/0316_fw.mp4	0.0	405.36702704429626	2.5085959434509277
74	385.58982586860657	pulse	1	t		72.0	2.5	/experiments/AOT/AOT_stimuli/rescaled_final/0316_fw.mp4	0.0	406.959107875824	
74	386.5063409805298	fix_post	2		12	72.0	2.5	/experiments/AOT/AOT_stimuli/rescaled_final/0316_fw.mp4	0.0	407.8756229877472	0.09996199607849121
75	386.6063029766083	fix_pre	0		120	73.0	2.5	/experiments/AOT/AOT_stimuli/rescaled_final/1664_fw.mp4	0.0	407.9755849838257	1.0000429153442383
75	387.19118905067444	pulse	0	t		73.0	2.5	/experiments/AOT/AOT_stimuli/rescaled_final/1664_fw.mp4	0.0	408.56047105789185	
75	387.6063458919525	movie	1		246	73.0	2.5	/experiments/AOT/AOT_stimuli/rescaled_final/1664_fw.mp4	0.0	408.9756278991699	2.499917984008789
75	388.7898578643799	pulse	1	t		73.0	2.5	/experiments/AOT/AOT_stimuli/rescaled_final/1664_fw.mp4	0.0	410.1591398715973	
75	390.1062638759613	fix_post	2		12	73.0	2.5	/experiments/AOT/AOT_stimuli/rescaled_final/1664_fw.mp4	0.0	411.4755458831787	0.09967803955078125
76	390.2059419155121	fix_pre	0		120	74.0	2.5	/experiments/AOT/AOT_stimuli/rescaled_final/1366_fw.mp4	0.0	411.5752239227295	1.0004079341888428
76	390.38986897468567	pulse	0	t		74.0	2.5	/experiments/AOT/AOT_stimuli/rescaled_final/1366_fw.mp4	0.0	411.7591509819031	
76	391.2063498497009	movie	1		246	74.0	2.5	/experiments/AOT/AOT_stimuli/rescaled_final/1366_fw.mp4	0.0	412.57563185691833	2.499601125717163
76	391.9897229671478	pulse	1	t		74.0	2.5	/experiments/AOT/AOT_stimuli/rescaled_final/1366_fw.mp4	0.0	413.35900497436523	
76	393.58950996398926	pulse	1	t		74.0	2.5	/experiments/AOT/AOT_stimuli/rescaled_final/1366_fw.mp4	0.0	414.95879197120667	
76	393.7059509754181	fix_post	2		12	74.0	2.5	/experiments/AOT/AOT_stimuli/rescaled_final/1366_fw.mp4	0.0	415.0752329826355	0.1003730297088623
77	393.80632400512695	fix_pre	0		120	75.0	2.5	blank	1.0	415.17560601234436	0.9999668598175049
77	394.80629086494446	movie	1		300	75.0	2.5	blank	1.0	416.17557287216187	2.499962091445923
77	395.1897568702698	pulse	1	t		75.0	2.5	blank	1.0	416.5590388774872	
77	396.7897319793701	pulse	1	t		75.0	2.5	blank	1.0	418.1590139865875	
77	397.3062529563904	fix_post	2		12	75.0	2.5	blank	1.0	418.6755349636078	0.10003304481506348
78	397.40628600120544	fix_pre	0		119	76.0	2.5	/experiments/AOT/AOT_stimuli/rescaled_final/1659_fw.mp4	0.0	418.77556800842285	0.9916250705718994
78	398.3898010253906	pulse	0	t		76.0	2.5	/experiments/AOT/AOT_stimuli/rescaled_final/1659_fw.mp4	0.0	419.75908303260803	
78	398.39791107177734	movie	1		247	76.0	2.5	/experiments/AOT/AOT_stimuli/rescaled_final/1659_fw.mp4	0.0	419.76719307899475	2.508401870727539
78	399.9892818927765	pulse	1	t		76.0	2.5	/experiments/AOT/AOT_stimuli/rescaled_final/1659_fw.mp4	0.0	421.3585638999939	
78	400.9063129425049	fix_post	2		12	76.0	2.5	/experiments/AOT/AOT_stimuli/rescaled_final/1659_fw.mp4	0.0	422.2755949497223	0.09955811500549316
79	401.0058710575104	fix_pre	0		120	77.0	2.5	/experiments/AOT/AOT_stimuli/rescaled_final/1820_fw.mp4	0.0	422.3751530647278	1.0003738403320312
79	401.5909469127655	pulse	0	t		77.0	2.5	/experiments/AOT/AOT_stimuli/rescaled_final/1820_fw.mp4	0.0	422.9602289199829	
79	402.0062448978424	movie	1		244	77.0	2.5	/experiments/AOT/AOT_stimuli/rescaled_final/1820_fw.mp4	0.0	423.3755269050598	2.500012159347534
79	403.1897859573364	pulse	1	t		77.0	2.5	/experiments/AOT/AOT_stimuli/rescaled_final/1820_fw.mp4	0.0	424.55906796455383	
79	404.50625705718994	fix_post	2		12	77.0	2.5	/experiments/AOT/AOT_stimuli/rescaled_final/1820_fw.mp4	0.0	425.87553906440735	0.10006284713745117
80	404.6063199043274	fix_pre	0		120	78.0	2.5	/experiments/AOT/AOT_stimuli/rescaled_final/1197_rv.mp4	0.0	425.9756019115448	0.9998950958251953
80	404.7897439002991	pulse	0	t		78.0	2.5	/experiments/AOT/AOT_stimuli/rescaled_final/1197_rv.mp4	0.0	426.1590259075165	
80	405.6062150001526	movie	1		244	78.0	2.5	/experiments/AOT/AOT_stimuli/rescaled_final/1197_rv.mp4	0.0	426.97549700737	2.499950885772705
80	406.3897330760956	pulse	1	t		78.0	2.5	/experiments/AOT/AOT_stimuli/rescaled_final/1197_rv.mp4	0.0	427.759015083313	
80	407.9881069660187	pulse	1	t		78.0	2.5	/experiments/AOT/AOT_stimuli/rescaled_final/1197_rv.mp4	0.0	429.3573889732361	
80	408.1061658859253	fix_post	2		12	78.0	2.5	/experiments/AOT/AOT_stimuli/rescaled_final/1197_rv.mp4	0.0	429.4754478931427	0.10002398490905762
81	408.20618987083435	fix_pre	0		120	79.0	2.5	/experiments/AOT/AOT_stimuli/rescaled_final/1366_rv.mp4	0.0	429.57547187805176	1.0000131130218506
81	409.2062029838562	movie	1		245	79.0	2.5	/experiments/AOT/AOT_stimuli/rescaled_final/1366_rv.mp4	0.0	430.5754849910736	2.4999289512634277
81	409.5894899368286	pulse	1	t		79.0	2.5	/experiments/AOT/AOT_stimuli/rescaled_final/1366_rv.mp4	0.0	430.958771944046	
81	411.18970704078674	pulse	1	t		79.0	2.5	/experiments/AOT/AOT_stimuli/rescaled_final/1366_rv.mp4	0.0	432.55898904800415	
81	411.70613193511963	fix_post	2		12	79.0	2.5	/experiments/AOT/AOT_stimuli/rescaled_final/1366_rv.mp4	0.0	433.07541394233704	0.10000109672546387
82	411.8061330318451	fix_pre	0		119	80.0	2.5	/experiments/AOT/AOT_stimuli/rescaled_final/0985_rv.mp4	0.0	433.1754150390625	0.9916739463806152
82	412.7897160053253	pulse	0	t		80.0	2.5	/experiments/AOT/AOT_stimuli/rescaled_final/0985_rv.mp4	0.0	434.1589980125427	
82	412.7978069782257	movie	1		246	80.0	2.5	/experiments/AOT/AOT_stimuli/rescaled_final/0985_rv.mp4	0.0	434.1670889854431	2.5083930492401123
82	414.38942694664	pulse	1	t		80.0	2.5	/experiments/AOT/AOT_stimuli/rescaled_final/0985_rv.mp4	0.0	435.7587089538574	
82	415.3062000274658	fix_post	2		12	80.0	2.5	/experiments/AOT/AOT_stimuli/rescaled_final/0985_rv.mp4	0.0	436.6754820346832	0.09994888305664062
83	415.40614891052246	fix_pre	0		120	81.0	2.5	/experiments/AOT/AOT_stimuli/rescaled_final/0742_fw.mp4	0.0	436.77543091773987	1.0000510215759277
83	415.98967695236206	pulse	0	t		81.0	2.5	/experiments/AOT/AOT_stimuli/rescaled_final/0742_fw.mp4	0.0	437.35895895957947	
83	416.4061999320984	movie	1		243	81.0	2.5	/experiments/AOT/AOT_stimuli/rescaled_final/0742_fw.mp4	0.0	437.7754819393158	2.4999289512634277
83	417.5896780490875	pulse	1	t		81.0	2.5	/experiments/AOT/AOT_stimuli/rescaled_final/0742_fw.mp4	0.0	438.95896005630493	
83	418.9061288833618	fix_post	2		12	81.0	2.5	/experiments/AOT/AOT_stimuli/rescaled_final/0742_fw.mp4	0.0	440.2754108905792	0.09997105598449707
84	419.0060999393463	fix_pre	0		120	82.0	2.5	blank	1.0	440.3753819465637	1.0001940727233887
84	419.1896629333496	pulse	0	t		82.0	2.5	blank	1.0	440.558944940567	
84	420.0062940120697	movie	1		300	82.0	2.5	blank	1.0	441.3755760192871	2.4997708797454834
84	420.7896089553833	pulse	1	t		82.0	2.5	blank	1.0	442.1588909626007	
84	422.3896849155426	pulse	1	t		82.0	2.5	blank	1.0	443.75896692276	
84	422.5060648918152	fix_post	2		12	82.0	2.5	blank	1.0	443.8753468990326	0.10011100769042969
85	422.6061758995056	fix_pre	0		120	83.0	2.5	/experiments/AOT/AOT_stimuli/rescaled_final/1188_rv.mp4	0.0	443.975457906723	0.9999661445617676
85	423.6061420440674	movie	1		245	83.0	2.5	/experiments/AOT/AOT_stimuli/rescaled_final/1188_rv.mp4	0.0	444.9754240512848	2.4995498657226562
85	423.9896590709686	pulse	1	t		83.0	2.5	/experiments/AOT/AOT_stimuli/rescaled_final/1188_rv.mp4	0.0	445.35894107818604	
85	425.5896809101105	pulse	1	t		83.0	2.5	/experiments/AOT/AOT_stimuli/rescaled_final/1188_rv.mp4	0.0	446.9589629173279	
85	426.10569190979004	fix_post	2		12	83.0	2.5	/experiments/AOT/AOT_stimuli/rescaled_final/1188_rv.mp4	0.0	447.47497391700745	0.10035514831542969
87	426.20604705810547	stim	0		1716					447.5753290653229	14.30036187171936
87	427.1897130012512	pulse	0	t						448.5589950084686	
87	428.7896480560303	pulse	0	t						450.1589300632477	
87	430.3895239830017	pulse	0	t						451.7588059902191	
87	431.98969292640686	pulse	0	t						453.35897493362427	
87	433.58964705467224	pulse	0	t						454.95892906188965	
87	435.1895818710327	pulse	0	t						456.5588638782501	
87	436.7895929813385	pulse	0	t						458.1588749885559	
87	438.3891849517822	pulse	0	t						459.75846695899963	
87	439.9897129535675	pulse	0	t						461.3589949607849	
