trial_nr	onset	event_type	phase	response	nr_frames	movie_index	movie_duration	movie_file	blank	onset_abs	duration
0	0.1664741039276123	stim	0		77					18.10482120513916	0.6416404247283936
0	0.8000454902648926	response	0	space						18.73839259147644	
1	0.8081145286560059	stim	0		4639					18.746461629867554	38.676371574401855
1	39.46989679336548	pulse	0	t						57.408243894577026	
1	39.48448610305786	stim	1		1714					57.42283320426941	14.298295259475708
1	41.06459665298462	pulse	1	t						59.00294375419617	
1	42.664724349975586	pulse	1	t						60.603071451187134	
1	44.26486802101135	pulse	1	t						62.2032151222229	
1	45.86512470245361	pulse	1	t						63.80347180366516	
1	47.46552324295044	pulse	1	t						65.40387034416199	
1	49.06560301780701	pulse	1	t						67.00395011901855	
1	50.66589617729187	pulse	1	t						68.60424327850342	
1	52.26608443260193	pulse	1	t						70.20443153381348	
2	53.78278136253357	fix_pre	0		11	0.0	2.5	/experiments/Knapen_AOT/AOT_stimuli/rescaled_final/1735_rv.mp4	0.0	71.72112846374512	0.10849976539611816
2	53.86644721031189	pulse	0	t		0.0	2.5	/experiments/Knapen_AOT/AOT_stimuli/rescaled_final/1735_rv.mp4	0.0	71.80479431152344	
2	53.89128112792969	movie	1		284	0.0	2.5	/experiments/Knapen_AOT/AOT_stimuli/rescaled_final/1735_rv.mp4	0.0	71.82962822914124	2.491870880126953
2	55.46488690376282	pulse	1	t		0.0	2.5	/experiments/Knapen_AOT/AOT_stimuli/rescaled_final/1735_rv.mp4	0.0	73.40323400497437	
2	56.38315200805664	fix_post	2		12	0.0	2.5	/experiments/Knapen_AOT/AOT_stimuli/rescaled_final/1735_rv.mp4	0.0	74.32149910926819	0.10004663467407227
3	56.48319864273071	fix_pre	0		120	1.0	2.5	/experiments/Knapen_AOT/AOT_stimuli/rescaled_final/1983_rv.mp4	0.0	74.42154574394226	1.0084741115570068
3	57.05889678001404	pulse	0	t		1.0	2.5	/experiments/Knapen_AOT/AOT_stimuli/rescaled_final/1983_rv.mp4	0.0	74.99724388122559	
3	57.49167275428772	movie	1		286	1.0	2.5	/experiments/Knapen_AOT/AOT_stimuli/rescaled_final/1983_rv.mp4	0.0	75.43001985549927	2.492021322250366
3	58.659000396728516	pulse	1	t		1.0	2.5	/experiments/Knapen_AOT/AOT_stimuli/rescaled_final/1983_rv.mp4	0.0	76.59734749794006	
3	59.983694076538086	fix_post	2		12	1.0	2.5	/experiments/Knapen_AOT/AOT_stimuli/rescaled_final/1983_rv.mp4	0.0	77.92204117774963	0.10001587867736816
4	60.083709955215454	fix_pre	0		120	2.0	2.5	/experiments/Knapen_AOT/AOT_stimuli/rescaled_final/1089_fw.mp4	0.0	78.022057056427	1.0085091590881348
4	60.25900840759277	pulse	0	t		2.0	2.5	/experiments/Knapen_AOT/AOT_stimuli/rescaled_final/1089_fw.mp4	0.0	78.19735550880432	
4	61.09221911430359	movie	1		276	2.0	2.5	/experiments/Knapen_AOT/AOT_stimuli/rescaled_final/1089_fw.mp4	0.0	79.03056621551514	2.492001533508301
4	61.85948872566223	pulse	1	t		2.0	2.5	/experiments/Knapen_AOT/AOT_stimuli/rescaled_final/1089_fw.mp4	0.0	79.79783582687378	
4	63.45942950248718	pulse	1	t		2.0	2.5	/experiments/Knapen_AOT/AOT_stimuli/rescaled_final/1089_fw.mp4	0.0	81.39777660369873	
4	63.58422064781189	fix_post	2		12	2.0	2.5	/experiments/Knapen_AOT/AOT_stimuli/rescaled_final/1089_fw.mp4	0.0	81.52256774902344	0.10002374649047852
5	63.68424439430237	fix_pre	0		120	3.0	2.5	/experiments/Knapen_AOT/AOT_stimuli/rescaled_final/0582_rv.mp4	0.0	81.62259149551392	1.0085914134979248
5	64.6928358078003	movie	1		280	3.0	2.5	/experiments/Knapen_AOT/AOT_stimuli/rescaled_final/0582_rv.mp4	0.0	82.63118290901184	2.4919989109039307
5	65.05970907211304	pulse	1	t		3.0	2.5	/experiments/Knapen_AOT/AOT_stimuli/rescaled_final/0582_rv.mp4	0.0	82.99805617332458	
5	66.65992212295532	pulse	1	t		3.0	2.5	/experiments/Knapen_AOT/AOT_stimuli/rescaled_final/0582_rv.mp4	0.0	84.59826922416687	
5	67.18483471870422	fix_post	2		12	3.0	2.5	/experiments/Knapen_AOT/AOT_stimuli/rescaled_final/0582_rv.mp4	0.0	85.12318181991577	0.09996771812438965
6	67.28480243682861	fix_pre	0		118	4.0	2.5	/experiments/Knapen_AOT/AOT_stimuli/rescaled_final/0902_rv.mp4	0.0	85.22314953804016	0.9918320178985596
6	68.26017951965332	pulse	0	t		4.0	2.5	/experiments/Knapen_AOT/AOT_stimuli/rescaled_final/0902_rv.mp4	0.0	86.19852662086487	
6	68.27663445472717	movie	1		287	4.0	2.5	/experiments/Knapen_AOT/AOT_stimuli/rescaled_final/0902_rv.mp4	0.0	86.21498155593872	2.500411033630371
6	69.85926675796509	pulse	1	t		4.0	2.5	/experiments/Knapen_AOT/AOT_stimuli/rescaled_final/0902_rv.mp4	0.0	87.79761385917664	
6	70.77704548835754	fix_post	2		12	4.0	2.5	/experiments/Knapen_AOT/AOT_stimuli/rescaled_final/0902_rv.mp4	0.0	88.71539258956909	0.1000359058380127
7	70.87708139419556	fix_pre	0		120	5.0	2.5	blank	1.0	88.8154284954071	1.0002057552337646
7	71.46067905426025	pulse	0	t		5.0	2.5	blank	1.0	89.3990261554718	
7	71.87728714942932	movie	1		300	5.0	2.5	blank	1.0	89.81563425064087	2.5002479553222656
7	73.06089758872986	pulse	1	t		5.0	2.5	blank	1.0	90.9992446899414	
7	74.37753510475159	fix_post	2		12	5.0	2.5	blank	1.0	92.31588220596313	0.10001945495605469
8	74.47755455970764	fix_pre	0		120	6.0	2.5	/experiments/Knapen_AOT/AOT_stimuli/rescaled_final/1991_rv.mp4	0.0	92.41590166091919	1.0085318088531494
8	74.66124129295349	pulse	0	t		6.0	2.5	/experiments/Knapen_AOT/AOT_stimuli/rescaled_final/1991_rv.mp4	0.0	92.59958839416504	
8	75.48608636856079	movie	1		276	6.0	2.5	/experiments/Knapen_AOT/AOT_stimuli/rescaled_final/1991_rv.mp4	0.0	93.42443346977234	2.492004871368408
8	76.25940442085266	pulse	1	t		6.0	2.5	/experiments/Knapen_AOT/AOT_stimuli/rescaled_final/1991_rv.mp4	0.0	94.19775152206421	
8	77.85957336425781	pulse	1	t		6.0	2.5	/experiments/Knapen_AOT/AOT_stimuli/rescaled_final/1991_rv.mp4	0.0	95.79792046546936	
8	77.9780912399292	fix_post	2		12	6.0	2.5	/experiments/Knapen_AOT/AOT_stimuli/rescaled_final/1991_rv.mp4	0.0	95.91643834114075	0.1001136302947998
9	78.078204870224	fix_pre	0		120	7.0	2.5	/experiments/Knapen_AOT/AOT_stimuli/rescaled_final/0969_rv.mp4	0.0	96.01655197143555	1.0083825588226318
9	79.08658742904663	movie	1		286	7.0	2.5	/experiments/Knapen_AOT/AOT_stimuli/rescaled_final/0969_rv.mp4	0.0	97.02493453025818	2.4920318126678467
9	79.46073269844055	pulse	1	t		7.0	2.5	/experiments/Knapen_AOT/AOT_stimuli/rescaled_final/0969_rv.mp4	0.0	97.3990797996521	
9	81.0600414276123	pulse	1	t		7.0	2.5	/experiments/Knapen_AOT/AOT_stimuli/rescaled_final/0969_rv.mp4	0.0	98.99838852882385	
9	81.57861924171448	fix_post	2		12	7.0	2.5	/experiments/Knapen_AOT/AOT_stimuli/rescaled_final/0969_rv.mp4	0.0	99.51696634292603	0.10000801086425781
10	81.67862725257874	fix_pre	0		119	8.0	2.5	/experiments/Knapen_AOT/AOT_stimuli/rescaled_final/1179_rv.mp4	0.0	99.61697435379028	1.000267505645752
10	82.66250991821289	pulse	0	t		8.0	2.5	/experiments/Knapen_AOT/AOT_stimuli/rescaled_final/1179_rv.mp4	0.0	100.60085701942444	
10	82.67889475822449	movie	1		287	8.0	2.5	/experiments/Knapen_AOT/AOT_stimuli/rescaled_final/1179_rv.mp4	0.0	100.61724185943604	2.500324010848999
10	84.26077437400818	pulse	1	t		8.0	2.5	/experiments/Knapen_AOT/AOT_stimuli/rescaled_final/1179_rv.mp4	0.0	102.19912147521973	
10	85.17921876907349	fix_post	2		12	8.0	2.5	/experiments/Knapen_AOT/AOT_stimuli/rescaled_final/1179_rv.mp4	0.0	103.11756587028503	0.10013461112976074
11	85.27935338020325	fix_pre	0		120	9.0	2.5	/experiments/Knapen_AOT/AOT_stimuli/rescaled_final/0580_rv.mp4	0.0	103.2177004814148	1.0083050727844238
11	85.86283016204834	pulse	0	t		9.0	2.5	/experiments/Knapen_AOT/AOT_stimuli/rescaled_final/0580_rv.mp4	0.0	103.80117726325989	
11	86.28765845298767	movie	1		285	9.0	2.5	/experiments/Knapen_AOT/AOT_stimuli/rescaled_final/0580_rv.mp4	0.0	104.22600555419922	2.492055892944336
11	87.46106028556824	pulse	1	t		9.0	2.5	/experiments/Knapen_AOT/AOT_stimuli/rescaled_final/0580_rv.mp4	0.0	105.39940738677979	
11	88.779714345932	fix_post	2		12	9.0	2.5	/experiments/Knapen_AOT/AOT_stimuli/rescaled_final/0580_rv.mp4	0.0	106.71806144714355	0.10010194778442383
12	88.87981629371643	fix_pre	0		120	10.0	2.5	/experiments/Knapen_AOT/AOT_stimuli/rescaled_final/0455_rv.mp4	0.0	106.81816339492798	1.0084092617034912
12	89.06336808204651	pulse	0	t		10.0	2.5	/experiments/Knapen_AOT/AOT_stimuli/rescaled_final/0455_rv.mp4	0.0	107.00171518325806	
12	89.88822555541992	movie	1		283	10.0	2.5	/experiments/Knapen_AOT/AOT_stimuli/rescaled_final/0455_rv.mp4	0.0	107.82657265663147	2.4920406341552734
12	90.66151881217957	pulse	1	t		10.0	2.5	/experiments/Knapen_AOT/AOT_stimuli/rescaled_final/0455_rv.mp4	0.0	108.59986591339111	
12	92.26166272163391	pulse	1	t		10.0	2.5	/experiments/Knapen_AOT/AOT_stimuli/rescaled_final/0455_rv.mp4	0.0	110.20000982284546	
12	92.3802661895752	fix_post	2		12	10.0	2.5	/experiments/Knapen_AOT/AOT_stimuli/rescaled_final/0455_rv.mp4	0.0	110.31861329078674	0.10000205039978027
13	92.48026823997498	fix_pre	0		120	11.0	2.5	/experiments/Knapen_AOT/AOT_stimuli/rescaled_final/0215_fw.mp4	0.0	110.41861534118652	1.008474349975586
13	93.48874258995056	movie	1		283	11.0	2.5	/experiments/Knapen_AOT/AOT_stimuli/rescaled_final/0215_fw.mp4	0.0	111.42708969116211	2.492046594619751
13	93.86264896392822	pulse	1	t		11.0	2.5	/experiments/Knapen_AOT/AOT_stimuli/rescaled_final/0215_fw.mp4	0.0	111.80099606513977	
13	95.46437692642212	pulse	1	t		11.0	2.5	/experiments/Knapen_AOT/AOT_stimuli/rescaled_final/0215_fw.mp4	0.0	113.40272402763367	
13	95.98078918457031	fix_post	2		12	11.0	2.5	/experiments/Knapen_AOT/AOT_stimuli/rescaled_final/0215_fw.mp4	0.0	113.91913628578186	0.1000051498413086
14	96.08079433441162	fix_pre	0		119	12.0	2.5	blank	1.0	114.01914143562317	0.9918038845062256
14	97.06447672843933	pulse	0	t		12.0	2.5	blank	1.0	115.00282382965088	
14	97.07259821891785	movie	1		301	12.0	2.5	blank	1.0	115.0109453201294	2.5087296962738037
14	98.66469049453735	pulse	1	t		12.0	2.5	blank	1.0	116.6030375957489	
14	99.58132791519165	fix_post	2		12	12.0	2.5	blank	1.0	117.5196750164032	0.10005903244018555
15	99.68138694763184	fix_pre	0		120	13.0	2.5	/experiments/Knapen_AOT/AOT_stimuli/rescaled_final/1731_fw.mp4	0.0	117.61973404884338	1.0084681510925293
15	100.26496195793152	pulse	0	t		13.0	2.5	/experiments/Knapen_AOT/AOT_stimuli/rescaled_final/1731_fw.mp4	0.0	118.20330905914307	
15	100.68985509872437	movie	1		278	13.0	2.5	/experiments/Knapen_AOT/AOT_stimuli/rescaled_final/1731_fw.mp4	0.0	118.62820219993591	2.49220871925354
15	101.8632709980011	pulse	1	t		13.0	2.5	/experiments/Knapen_AOT/AOT_stimuli/rescaled_final/1731_fw.mp4	0.0	119.80161809921265	
15	103.1820638179779	fix_post	2		12	13.0	2.5	/experiments/Knapen_AOT/AOT_stimuli/rescaled_final/1731_fw.mp4	0.0	121.12041091918945	0.09981322288513184
16	103.28187704086304	fix_pre	0		120	14.0	2.5	/experiments/Knapen_AOT/AOT_stimuli/rescaled_final/0122_fw.mp4	0.0	121.22022414207458	1.0085513591766357
16	103.46558451652527	pulse	0	t		14.0	2.5	/experiments/Knapen_AOT/AOT_stimuli/rescaled_final/0122_fw.mp4	0.0	121.40393161773682	
16	104.29042840003967	movie	1		287	14.0	2.5	/experiments/Knapen_AOT/AOT_stimuli/rescaled_final/0122_fw.mp4	0.0	122.22877550125122	2.491992235183716
16	105.06379842758179	pulse	1	t		14.0	2.5	/experiments/Knapen_AOT/AOT_stimuli/rescaled_final/0122_fw.mp4	0.0	123.00214552879333	
16	106.66377329826355	pulse	1	t		14.0	2.5	/experiments/Knapen_AOT/AOT_stimuli/rescaled_final/0122_fw.mp4	0.0	124.6021203994751	
16	106.78242063522339	fix_post	2		12	14.0	2.5	/experiments/Knapen_AOT/AOT_stimuli/rescaled_final/0122_fw.mp4	0.0	124.72076773643494	0.10005354881286621
17	106.88247418403625	fix_pre	0		120	15.0	2.5	/experiments/Knapen_AOT/AOT_stimuli/rescaled_final/0858_rv.mp4	0.0	124.8208212852478	1.0084550380706787
17	107.89092922210693	movie	1		268	15.0	2.5	/experiments/Knapen_AOT/AOT_stimuli/rescaled_final/0858_rv.mp4	0.0	125.82927632331848	2.50059175491333
17	108.2646996974945	pulse	1	t		15.0	2.5	/experiments/Knapen_AOT/AOT_stimuli/rescaled_final/0858_rv.mp4	0.0	126.20304679870605	
17	109.86468935012817	pulse	1	t		15.0	2.5	/experiments/Knapen_AOT/AOT_stimuli/rescaled_final/0858_rv.mp4	0.0	127.80303645133972	
17	110.39152097702026	fix_post	2		11	15.0	2.5	/experiments/Knapen_AOT/AOT_stimuli/rescaled_final/0858_rv.mp4	0.0	128.3298680782318	0.09145259857177734
18	110.48297357559204	fix_pre	0		119	16.0	2.5	/experiments/Knapen_AOT/AOT_stimuli/rescaled_final/0988_fw.mp4	0.0	128.4213206768036	1.0001723766326904
18	111.45912480354309	pulse	0	t		16.0	2.5	/experiments/Knapen_AOT/AOT_stimuli/rescaled_final/0988_fw.mp4	0.0	129.39747190475464	
18	111.48314595222473	movie	1		283	16.0	2.5	/experiments/Knapen_AOT/AOT_stimuli/rescaled_final/0988_fw.mp4	0.0	129.42149305343628	2.500338077545166
18	113.06547451019287	pulse	1	t		16.0	2.5	/experiments/Knapen_AOT/AOT_stimuli/rescaled_final/0988_fw.mp4	0.0	131.00382161140442	
18	113.9834840297699	fix_post	2		12	16.0	2.5	/experiments/Knapen_AOT/AOT_stimuli/rescaled_final/0988_fw.mp4	0.0	131.92183113098145	0.10003471374511719
19	114.08351874351501	fix_pre	0		120	17.0	2.5	/experiments/Knapen_AOT/AOT_stimuli/rescaled_final/2167_rv.mp4	0.0	132.02186584472656	1.0085203647613525
19	114.65949273109436	pulse	0	t		17.0	2.5	/experiments/Knapen_AOT/AOT_stimuli/rescaled_final/2167_rv.mp4	0.0	132.5978398323059	
19	115.09203910827637	movie	1		289	17.0	2.5	/experiments/Knapen_AOT/AOT_stimuli/rescaled_final/2167_rv.mp4	0.0	133.03038620948792	2.4919850826263428
19	116.25934910774231	pulse	1	t		17.0	2.5	/experiments/Knapen_AOT/AOT_stimuli/rescaled_final/2167_rv.mp4	0.0	134.19769620895386	
19	117.58402419090271	fix_post	2		12	17.0	2.5	/experiments/Knapen_AOT/AOT_stimuli/rescaled_final/2167_rv.mp4	0.0	135.52237129211426	0.10002660751342773
20	117.68405079841614	fix_pre	0		120	18.0	2.5	/experiments/Knapen_AOT/AOT_stimuli/rescaled_final/1573_fw.mp4	0.0	135.62239789962769	1.0084929466247559
20	117.85935521125793	pulse	0	t		18.0	2.5	/experiments/Knapen_AOT/AOT_stimuli/rescaled_final/1573_fw.mp4	0.0	135.79770231246948	
20	118.6925437450409	movie	1		285	18.0	2.5	/experiments/Knapen_AOT/AOT_stimuli/rescaled_final/1573_fw.mp4	0.0	136.63089084625244	2.4920263290405273
20	119.45973873138428	pulse	1	t		18.0	2.5	/experiments/Knapen_AOT/AOT_stimuli/rescaled_final/1573_fw.mp4	0.0	137.39808583259583	
20	121.05992770195007	pulse	1	t		18.0	2.5	/experiments/Knapen_AOT/AOT_stimuli/rescaled_final/1573_fw.mp4	0.0	138.99827480316162	
20	121.18457007408142	fix_post	2		12	18.0	2.5	/experiments/Knapen_AOT/AOT_stimuli/rescaled_final/1573_fw.mp4	0.0	139.12291717529297	0.10001087188720703
21	121.28458094596863	fix_pre	0		120	19.0	2.5	/experiments/Knapen_AOT/AOT_stimuli/rescaled_final/2173_rv.mp4	0.0	139.22292804718018	1.0086536407470703
21	122.2932345867157	movie	1		261	19.0	2.5	/experiments/Knapen_AOT/AOT_stimuli/rescaled_final/2173_rv.mp4	0.0	140.23158168792725	2.4918978214263916
21	122.6599862575531	pulse	1	t		19.0	2.5	/experiments/Knapen_AOT/AOT_stimuli/rescaled_final/2173_rv.mp4	0.0	140.59833335876465	
21	124.26012325286865	pulse	1	t		19.0	2.5	/experiments/Knapen_AOT/AOT_stimuli/rescaled_final/2173_rv.mp4	0.0	142.1984703540802	
21	124.78513240814209	fix_post	2		12	19.0	2.5	/experiments/Knapen_AOT/AOT_stimuli/rescaled_final/2173_rv.mp4	0.0	142.72347950935364	0.1000063419342041
22	124.8851387500763	fix_pre	0		118	20.0	2.5	blank	1.0	142.82348585128784	0.9834535121917725
22	125.86059665679932	pulse	0	t		20.0	2.5	blank	1.0	143.79894375801086	
22	125.86859226226807	movie	1		301	20.0	2.5	blank	1.0	143.80693936347961	2.5087804794311523
22	127.46076107025146	pulse	1	t		20.0	2.5	blank	1.0	145.399108171463	
22	128.37737274169922	fix_post	2		12	20.0	2.5	blank	1.0	146.31571984291077	0.09997272491455078
23	128.47734546661377	fix_pre	0		120	21.0	2.5	/experiments/Knapen_AOT/AOT_stimuli/rescaled_final/1573_fw.mp4	0.0	146.41569256782532	1.008476972579956
23	129.06098437309265	pulse	0	t		21.0	2.5	/experiments/Knapen_AOT/AOT_stimuli/rescaled_final/1573_fw.mp4	0.0	146.9993314743042	
23	129.48582243919373	movie	1		279	21.0	2.5	/experiments/Knapen_AOT/AOT_stimuli/rescaled_final/1573_fw.mp4	0.0	147.42416954040527	2.492081880569458
23	130.65940523147583	pulse	1	t		21.0	2.5	/experiments/Knapen_AOT/AOT_stimuli/rescaled_final/1573_fw.mp4	0.0	148.59775233268738	
23	131.97790431976318	fix_post	2		12	21.0	2.5	/experiments/Knapen_AOT/AOT_stimuli/rescaled_final/1573_fw.mp4	0.0	149.91625142097473	0.09996819496154785
24	132.07787251472473	fix_pre	0		120	22.0	2.5	/experiments/Knapen_AOT/AOT_stimuli/rescaled_final/1995_rv.mp4	0.0	150.01621961593628	1.0085256099700928
24	132.26144194602966	pulse	0	t		22.0	2.5	/experiments/Knapen_AOT/AOT_stimuli/rescaled_final/1995_rv.mp4	0.0	150.1997890472412	
24	133.08639812469482	movie	1		280	22.0	2.5	/experiments/Knapen_AOT/AOT_stimuli/rescaled_final/1995_rv.mp4	0.0	151.02474522590637	2.4919803142547607
24	133.85963487625122	pulse	1	t		22.0	2.5	/experiments/Knapen_AOT/AOT_stimuli/rescaled_final/1995_rv.mp4	0.0	151.79798197746277	
24	135.4601058959961	pulse	1	t		22.0	2.5	/experiments/Knapen_AOT/AOT_stimuli/rescaled_final/1995_rv.mp4	0.0	153.39845299720764	
24	135.57837843894958	fix_post	2		12	22.0	2.5	/experiments/Knapen_AOT/AOT_stimuli/rescaled_final/1995_rv.mp4	0.0	153.51672554016113	0.10004639625549316
25	135.67842483520508	fix_pre	0		120	23.0	2.5	/experiments/Knapen_AOT/AOT_stimuli/rescaled_final/0177_fw.mp4	0.0	153.61677193641663	1.008646011352539
25	136.68707084655762	movie	1		284	23.0	2.5	/experiments/Knapen_AOT/AOT_stimuli/rescaled_final/0177_fw.mp4	0.0	154.62541794776917	2.4918675422668457
25	137.06042218208313	pulse	1	t		23.0	2.5	/experiments/Knapen_AOT/AOT_stimuli/rescaled_final/0177_fw.mp4	0.0	154.99876928329468	
25	138.66019415855408	pulse	1	t		23.0	2.5	/experiments/Knapen_AOT/AOT_stimuli/rescaled_final/0177_fw.mp4	0.0	156.59854125976562	
25	139.17893838882446	fix_post	2		12	23.0	2.5	/experiments/Knapen_AOT/AOT_stimuli/rescaled_final/0177_fw.mp4	0.0	157.117285490036	0.1000361442565918
26	139.27897453308105	fix_pre	0		119	24.0	2.5	/experiments/Knapen_AOT/AOT_stimuli/rescaled_final/1337_rv.mp4	0.0	157.2173216342926	1.0001697540283203
26	140.26267957687378	pulse	0	t		24.0	2.5	/experiments/Knapen_AOT/AOT_stimuli/rescaled_final/1337_rv.mp4	0.0	158.20102667808533	
26	140.27914428710938	movie	1		293	24.0	2.5	/experiments/Knapen_AOT/AOT_stimuli/rescaled_final/1337_rv.mp4	0.0	158.21749138832092	2.5003585815429688
26	141.86163425445557	pulse	1	t		24.0	2.5	/experiments/Knapen_AOT/AOT_stimuli/rescaled_final/1337_rv.mp4	0.0	159.79998135566711	
26	142.77950286865234	fix_post	2		12	24.0	2.5	/experiments/Knapen_AOT/AOT_stimuli/rescaled_final/1337_rv.mp4	0.0	160.7178499698639	0.09999656677246094
27	142.8794994354248	fix_pre	0		120	25.0	2.5	/experiments/Knapen_AOT/AOT_stimuli/rescaled_final/0492_fw.mp4	0.0	160.81784653663635	1.0085062980651855
27	143.46312880516052	pulse	0	t		25.0	2.5	/experiments/Knapen_AOT/AOT_stimuli/rescaled_final/0492_fw.mp4	0.0	161.40147590637207	
27	143.88800573349	movie	1		290	25.0	2.5	/experiments/Knapen_AOT/AOT_stimuli/rescaled_final/0492_fw.mp4	0.0	161.82635283470154	2.492004871368408
27	145.0613570213318	pulse	1	t		25.0	2.5	/experiments/Knapen_AOT/AOT_stimuli/rescaled_final/0492_fw.mp4	0.0	162.99970412254333	
27	146.3800106048584	fix_post	2		12	25.0	2.5	/experiments/Knapen_AOT/AOT_stimuli/rescaled_final/0492_fw.mp4	0.0	164.31835770606995	0.1001434326171875
28	146.4801540374756	fix_pre	0		120	26.0	2.5	/experiments/Knapen_AOT/AOT_stimuli/rescaled_final/0580_fw.mp4	0.0	164.41850113868713	1.0083370208740234
28	146.6635160446167	pulse	0	t		26.0	2.5	/experiments/Knapen_AOT/AOT_stimuli/rescaled_final/0580_fw.mp4	0.0	164.60186314582825	
28	147.4884910583496	movie	1		296	26.0	2.5	/experiments/Knapen_AOT/AOT_stimuli/rescaled_final/0580_fw.mp4	0.0	165.42683815956116	2.4920454025268555
28	148.25956964492798	pulse	1	t		26.0	2.5	/experiments/Knapen_AOT/AOT_stimuli/rescaled_final/0580_fw.mp4	0.0	166.19791674613953	
28	149.86171317100525	pulse	1	t		26.0	2.5	/experiments/Knapen_AOT/AOT_stimuli/rescaled_final/0580_fw.mp4	0.0	167.8000602722168	
28	149.98053646087646	fix_post	2		12	26.0	2.5	/experiments/Knapen_AOT/AOT_stimuli/rescaled_final/0580_fw.mp4	0.0	167.918883562088	0.10002422332763672
29	150.0805606842041	fix_pre	0		120	27.0	2.5	blank	1.0	168.01890778541565	1.000201940536499
29	151.0807626247406	movie	1		300	27.0	2.5	blank	1.0	169.01910972595215	2.500342607498169
29	151.4642972946167	pulse	1	t		27.0	2.5	blank	1.0	169.40264439582825	
29	153.06462121009827	pulse	1	t		27.0	2.5	blank	1.0	171.00296831130981	
29	153.58110523223877	fix_post	2		12	27.0	2.5	blank	1.0	171.51945233345032	0.10000944137573242
30	153.6811146736145	fix_pre	0		119	28.0	2.5	/experiments/Knapen_AOT/AOT_stimuli/rescaled_final/1121_fw.mp4	0.0	171.61946177482605	1.0001766681671143
30	154.6647982597351	pulse	0	t		28.0	2.5	/experiments/Knapen_AOT/AOT_stimuli/rescaled_final/1121_fw.mp4	0.0	172.60314536094666	
30	154.68129134178162	movie	1		287	28.0	2.5	/experiments/Knapen_AOT/AOT_stimuli/rescaled_final/1121_fw.mp4	0.0	172.61963844299316	2.5003533363342285
30	156.26367282867432	pulse	1	t		28.0	2.5	/experiments/Knapen_AOT/AOT_stimuli/rescaled_final/1121_fw.mp4	0.0	174.20201992988586	
30	157.18164467811584	fix_post	2		12	28.0	2.5	/experiments/Knapen_AOT/AOT_stimuli/rescaled_final/1121_fw.mp4	0.0	175.1199917793274	0.10002923011779785
31	157.28167390823364	fix_pre	0		120	29.0	2.5	/experiments/Knapen_AOT/AOT_stimuli/rescaled_final/1470_fw.mp4	0.0	175.2200210094452	1.0085043907165527
31	157.8652527332306	pulse	0	t		29.0	2.5	/experiments/Knapen_AOT/AOT_stimuli/rescaled_final/1470_fw.mp4	0.0	175.80359983444214	
31	158.2901782989502	movie	1		288	29.0	2.5	/experiments/Knapen_AOT/AOT_stimuli/rescaled_final/1470_fw.mp4	0.0	176.22852540016174	2.4920237064361572
31	159.4636721611023	pulse	1	t		29.0	2.5	/experiments/Knapen_AOT/AOT_stimuli/rescaled_final/1470_fw.mp4	0.0	177.40201926231384	
31	160.78220200538635	fix_post	2		12	29.0	2.5	/experiments/Knapen_AOT/AOT_stimuli/rescaled_final/1470_fw.mp4	0.0	178.7205491065979	0.10002565383911133
32	160.88222765922546	fix_pre	0		120	30.0	2.5	/experiments/Knapen_AOT/AOT_stimuli/rescaled_final/1923_fw.mp4	0.0	178.820574760437	1.0085299015045166
32	161.0658323764801	pulse	0	t		30.0	2.5	/experiments/Knapen_AOT/AOT_stimuli/rescaled_final/1923_fw.mp4	0.0	179.00417947769165	
32	161.89075756072998	movie	1		287	30.0	2.5	/experiments/Knapen_AOT/AOT_stimuli/rescaled_final/1923_fw.mp4	0.0	179.82910466194153	2.4919795989990234
32	162.66398191452026	pulse	1	t		30.0	2.5	/experiments/Knapen_AOT/AOT_stimuli/rescaled_final/1923_fw.mp4	0.0	180.6023290157318	
32	164.26404237747192	pulse	1	t		30.0	2.5	/experiments/Knapen_AOT/AOT_stimuli/rescaled_final/1923_fw.mp4	0.0	182.20238947868347	
32	164.382737159729	fix_post	2		12	30.0	2.5	/experiments/Knapen_AOT/AOT_stimuli/rescaled_final/1923_fw.mp4	0.0	182.32108426094055	0.10003852844238281
33	164.4827756881714	fix_pre	0		120	31.0	2.5	/experiments/Knapen_AOT/AOT_stimuli/rescaled_final/1991_fw.mp4	0.0	182.42112278938293	1.0084905624389648
33	165.49126625061035	movie	1		283	31.0	2.5	/experiments/Knapen_AOT/AOT_stimuli/rescaled_final/1991_fw.mp4	0.0	183.4296133518219	2.492007255554199
33	165.86556577682495	pulse	1	t		31.0	2.5	/experiments/Knapen_AOT/AOT_stimuli/rescaled_final/1991_fw.mp4	0.0	183.8039128780365	
33	167.46716022491455	pulse	1	t		31.0	2.5	/experiments/Knapen_AOT/AOT_stimuli/rescaled_final/1991_fw.mp4	0.0	185.4055073261261	
33	167.98327350616455	fix_post	2		12	31.0	2.5	/experiments/Knapen_AOT/AOT_stimuli/rescaled_final/1991_fw.mp4	0.0	185.9216206073761	0.10001301765441895
34	168.08328652381897	fix_pre	0		118	32.0	2.5	/experiments/Knapen_AOT/AOT_stimuli/rescaled_final/2118_rv.mp4	0.0	186.02163362503052	0.9918498992919922
34	169.0590696334839	pulse	0	t		32.0	2.5	/experiments/Knapen_AOT/AOT_stimuli/rescaled_final/2118_rv.mp4	0.0	186.99741673469543	
34	169.07513642311096	movie	1		285	32.0	2.5	/experiments/Knapen_AOT/AOT_stimuli/rescaled_final/2118_rv.mp4	0.0	187.0134835243225	2.5003530979156494
34	170.65879893302917	pulse	1	t		32.0	2.5	/experiments/Knapen_AOT/AOT_stimuli/rescaled_final/2118_rv.mp4	0.0	188.59714603424072	
34	171.5754895210266	fix_post	2		12	32.0	2.5	/experiments/Knapen_AOT/AOT_stimuli/rescaled_final/2118_rv.mp4	0.0	189.51383662223816	0.10003542900085449
35	171.67552495002747	fix_pre	0		120	33.0	2.5	/experiments/Knapen_AOT/AOT_stimuli/rescaled_final/2003_rv.mp4	0.0	189.613872051239	1.0084753036499023
35	172.2592339515686	pulse	0	t		33.0	2.5	/experiments/Knapen_AOT/AOT_stimuli/rescaled_final/2003_rv.mp4	0.0	190.19758105278015	
35	172.68400025367737	movie	1		283	33.0	2.5	/experiments/Knapen_AOT/AOT_stimuli/rescaled_final/2003_rv.mp4	0.0	190.62234735488892	2.4921114444732666
35	173.85985445976257	pulse	1	t		33.0	2.5	/experiments/Knapen_AOT/AOT_stimuli/rescaled_final/2003_rv.mp4	0.0	191.79820156097412	
35	175.17611169815063	fix_post	2		12	33.0	2.5	/experiments/Knapen_AOT/AOT_stimuli/rescaled_final/2003_rv.mp4	0.0	193.11445879936218	0.0999443531036377
36	175.27605605125427	fix_pre	0		120	34.0	2.5	blank	1.0	193.21440315246582	1.0001187324523926
36	175.45970344543457	pulse	0	t		34.0	2.5	blank	1.0	193.39805054664612	
36	176.27617478370667	movie	1		300	34.0	2.5	blank	1.0	194.2145218849182	2.500375509262085
36	177.0598406791687	pulse	1	t		34.0	2.5	blank	1.0	194.99818778038025	
36	178.66018772125244	pulse	1	t		34.0	2.5	blank	1.0	196.598534822464	
36	178.77655029296875	fix_post	2		12	34.0	2.5	blank	1.0	196.7148973941803	0.09998202323913574
37	178.87653231620789	fix_pre	0		120	35.0	2.5	/experiments/Knapen_AOT/AOT_stimuli/rescaled_final/1843_fw.mp4	0.0	196.81487941741943	1.0085365772247314
37	179.88506889343262	movie	1		279	35.0	2.5	/experiments/Knapen_AOT/AOT_stimuli/rescaled_final/1843_fw.mp4	0.0	197.82341599464417	2.4920403957366943
37	180.25904750823975	pulse	1	t		35.0	2.5	/experiments/Knapen_AOT/AOT_stimuli/rescaled_final/1843_fw.mp4	0.0	198.1973946094513	
37	181.85874485969543	pulse	1	t		35.0	2.5	/experiments/Knapen_AOT/AOT_stimuli/rescaled_final/1843_fw.mp4	0.0	199.79709196090698	
37	182.3771092891693	fix_post	2		12	35.0	2.5	/experiments/Knapen_AOT/AOT_stimuli/rescaled_final/1843_fw.mp4	0.0	200.31545639038086	0.10008597373962402
38	182.47719526290894	fix_pre	0		119	36.0	2.5	/experiments/Knapen_AOT/AOT_stimuli/rescaled_final/0668_rv.mp4	0.0	200.41554236412048	1.0002081394195557
38	183.46082520484924	pulse	0	t		36.0	2.5	/experiments/Knapen_AOT/AOT_stimuli/rescaled_final/0668_rv.mp4	0.0	201.3991723060608	
38	183.4774034023285	movie	1		284	36.0	2.5	/experiments/Knapen_AOT/AOT_stimuli/rescaled_final/0668_rv.mp4	0.0	201.41575050354004	2.500244379043579
38	185.05975675582886	pulse	1	t		36.0	2.5	/experiments/Knapen_AOT/AOT_stimuli/rescaled_final/0668_rv.mp4	0.0	202.9981038570404	
38	185.97764778137207	fix_post	2		12	36.0	2.5	/experiments/Knapen_AOT/AOT_stimuli/rescaled_final/0668_rv.mp4	0.0	203.91599488258362	0.10001015663146973
39	186.07765793800354	fix_pre	0		120	37.0	2.5	/experiments/Knapen_AOT/AOT_stimuli/rescaled_final/0690_rv.mp4	0.0	204.0160050392151	1.0085198879241943
39	186.66129517555237	pulse	0	t		37.0	2.5	/experiments/Knapen_AOT/AOT_stimuli/rescaled_final/0690_rv.mp4	0.0	204.59964227676392	
39	187.08617782592773	movie	1		273	37.0	2.5	/experiments/Knapen_AOT/AOT_stimuli/rescaled_final/0690_rv.mp4	0.0	205.02452492713928	2.4920053482055664
39	188.25986766815186	pulse	1	t		37.0	2.5	/experiments/Knapen_AOT/AOT_stimuli/rescaled_final/0690_rv.mp4	0.0	206.1982147693634	
39	189.5781831741333	fix_post	2		12	37.0	2.5	/experiments/Knapen_AOT/AOT_stimuli/rescaled_final/0690_rv.mp4	0.0	207.51653027534485	0.10002517700195312
40	189.67820835113525	fix_pre	0		120	38.0	2.5	/experiments/Knapen_AOT/AOT_stimuli/rescaled_final/2005_rv.mp4	0.0	207.6165554523468	1.0085434913635254
40	189.86189556121826	pulse	0	t		38.0	2.5	/experiments/Knapen_AOT/AOT_stimuli/rescaled_final/2005_rv.mp4	0.0	207.8002426624298	
40	190.68675184249878	movie	1		286	38.0	2.5	/experiments/Knapen_AOT/AOT_stimuli/rescaled_final/2005_rv.mp4	0.0	208.62509894371033	2.491964101791382
40	191.46047520637512	pulse	1	t		38.0	2.5	/experiments/Knapen_AOT/AOT_stimuli/rescaled_final/2005_rv.mp4	0.0	209.39882230758667	
40	193.06009531021118	pulse	1	t		38.0	2.5	/experiments/Knapen_AOT/AOT_stimuli/rescaled_final/2005_rv.mp4	0.0	210.99844241142273	
40	193.17871594429016	fix_post	2		12	38.0	2.5	/experiments/Knapen_AOT/AOT_stimuli/rescaled_final/2005_rv.mp4	0.0	211.1170630455017	0.10002279281616211
41	193.27873873710632	fix_pre	0		120	39.0	2.5	/experiments/Knapen_AOT/AOT_stimuli/rescaled_final/1136_rv.mp4	0.0	211.21708583831787	1.008518934249878
41	194.2872576713562	movie	1		273	39.0	2.5	/experiments/Knapen_AOT/AOT_stimuli/rescaled_final/1136_rv.mp4	0.0	212.22560477256775	2.4920027256011963
41	194.66262769699097	pulse	1	t		39.0	2.5	/experiments/Knapen_AOT/AOT_stimuli/rescaled_final/1136_rv.mp4	0.0	212.60097479820251	
41	196.26068139076233	pulse	1	t		39.0	2.5	/experiments/Knapen_AOT/AOT_stimuli/rescaled_final/1136_rv.mp4	0.0	214.19902849197388	
41	196.7792603969574	fix_post	2		12	39.0	2.5	/experiments/Knapen_AOT/AOT_stimuli/rescaled_final/1136_rv.mp4	0.0	214.71760749816895	0.10007309913635254
42	196.87933349609375	fix_pre	0		119	40.0	2.5	blank	1.0	214.8176805973053	0.9918155670166016
42	197.8629424571991	pulse	0	t		40.0	2.5	blank	1.0	215.80128955841064	
42	197.87114906311035	movie	1		301	40.0	2.5	blank	1.0	215.8094961643219	2.5086567401885986
42	199.4634554386139	pulse	1	t		40.0	2.5	blank	1.0	217.40180253982544	
42	200.37980580329895	fix_post	2		12	40.0	2.5	blank	1.0	218.3181529045105	0.10006260871887207
43	200.47986841201782	fix_pre	0		120	41.0	2.5	/experiments/Knapen_AOT/AOT_stimuli/rescaled_final/0339_rv.mp4	0.0	218.41821551322937	1.0084571838378906
43	201.06347942352295	pulse	0	t		41.0	2.5	/experiments/Knapen_AOT/AOT_stimuli/rescaled_final/0339_rv.mp4	0.0	219.0018265247345	
43	201.4883255958557	movie	1		291	41.0	2.5	/experiments/Knapen_AOT/AOT_stimuli/rescaled_final/0339_rv.mp4	0.0	219.42667269706726	2.492030143737793
43	202.66185522079468	pulse	1	t		41.0	2.5	/experiments/Knapen_AOT/AOT_stimuli/rescaled_final/0339_rv.mp4	0.0	220.60020232200623	
43	203.9803557395935	fix_post	2		12	41.0	2.5	/experiments/Knapen_AOT/AOT_stimuli/rescaled_final/0339_rv.mp4	0.0	221.91870284080505	0.10002541542053223
44	204.08038115501404	fix_pre	0		120	42.0	2.5	/experiments/Knapen_AOT/AOT_stimuli/rescaled_final/1308_rv.mp4	0.0	222.0187282562256	1.0084939002990723
44	204.2639925479889	pulse	0	t		42.0	2.5	/experiments/Knapen_AOT/AOT_stimuli/rescaled_final/1308_rv.mp4	0.0	222.20233964920044	
44	205.0888750553131	movie	1		269	42.0	2.5	/experiments/Knapen_AOT/AOT_stimuli/rescaled_final/1308_rv.mp4	0.0	223.02722215652466	2.4920058250427246
44	205.86237263679504	pulse	1	t		42.0	2.5	/experiments/Knapen_AOT/AOT_stimuli/rescaled_final/1308_rv.mp4	0.0	223.8007197380066	
44	207.46254205703735	pulse	1	t		42.0	2.5	/experiments/Knapen_AOT/AOT_stimuli/rescaled_final/1308_rv.mp4	0.0	225.4008891582489	
44	207.58088088035583	fix_post	2		12	42.0	2.5	/experiments/Knapen_AOT/AOT_stimuli/rescaled_final/1308_rv.mp4	0.0	225.51922798156738	0.10003662109375
45	207.68091750144958	fix_pre	0		120	43.0	2.5	/experiments/Knapen_AOT/AOT_stimuli/rescaled_final/0269_rv.mp4	0.0	225.61926460266113	1.008486270904541
45	208.68940377235413	movie	1		282	43.0	2.5	/experiments/Knapen_AOT/AOT_stimuli/rescaled_final/0269_rv.mp4	0.0	226.62775087356567	2.4920248985290527
45	209.06336188316345	pulse	1	t		43.0	2.5	/experiments/Knapen_AOT/AOT_stimuli/rescaled_final/0269_rv.mp4	0.0	227.001708984375	
45	210.66269087791443	pulse	1	t		43.0	2.5	/experiments/Knapen_AOT/AOT_stimuli/rescaled_final/0269_rv.mp4	0.0	228.60103797912598	
45	211.18142867088318	fix_post	2		12	43.0	2.5	/experiments/Knapen_AOT/AOT_stimuli/rescaled_final/0269_rv.mp4	0.0	229.11977577209473	0.10006880760192871
46	211.2814974784851	fix_pre	0		119	44.0	2.5	/experiments/Knapen_AOT/AOT_stimuli/rescaled_final/1348_rv.mp4	0.0	229.21984457969666	1.0001258850097656
46	212.26517486572266	pulse	0	t		44.0	2.5	/experiments/Knapen_AOT/AOT_stimuli/rescaled_final/1348_rv.mp4	0.0	230.2035219669342	
46	212.28162336349487	movie	1		279	44.0	2.5	/experiments/Knapen_AOT/AOT_stimuli/rescaled_final/1348_rv.mp4	0.0	230.21997046470642	2.5003600120544434
46	213.86357069015503	pulse	1	t		44.0	2.5	/experiments/Knapen_AOT/AOT_stimuli/rescaled_final/1348_rv.mp4	0.0	231.80191779136658	
46	214.78198337554932	fix_post	2		12	44.0	2.5	/experiments/Knapen_AOT/AOT_stimuli/rescaled_final/1348_rv.mp4	0.0	232.72033047676086	0.10002923011779785
47	214.88201260566711	fix_pre	0		120	45.0	2.5	/experiments/Knapen_AOT/AOT_stimuli/rescaled_final/0639_fw.mp4	0.0	232.82035970687866	1.0084867477416992
47	215.4657142162323	pulse	0	t		45.0	2.5	/experiments/Knapen_AOT/AOT_stimuli/rescaled_final/0639_fw.mp4	0.0	233.40406131744385	
47	215.8904993534088	movie	1		270	45.0	2.5	/experiments/Knapen_AOT/AOT_stimuli/rescaled_final/0639_fw.mp4	0.0	233.82884645462036	2.492025852203369
47	217.06447005271912	pulse	1	t		45.0	2.5	/experiments/Knapen_AOT/AOT_stimuli/rescaled_final/0639_fw.mp4	0.0	235.00281715393066	
47	218.38252520561218	fix_post	2		12	45.0	2.5	/experiments/Knapen_AOT/AOT_stimuli/rescaled_final/0639_fw.mp4	0.0	236.32087230682373	0.10001254081726074
48	218.48253774642944	fix_pre	0		120	46.0	2.5	/experiments/Knapen_AOT/AOT_stimuli/rescaled_final/1121_rv.mp4	0.0	236.420884847641	1.0085439682006836
48	218.66672682762146	pulse	0	t		46.0	2.5	/experiments/Knapen_AOT/AOT_stimuli/rescaled_final/1121_rv.mp4	0.0	236.605073928833	
48	219.49108171463013	movie	1		271	46.0	2.5	/experiments/Knapen_AOT/AOT_stimuli/rescaled_final/1121_rv.mp4	0.0	237.42942881584167	2.491997718811035
48	220.26443934440613	pulse	1	t		46.0	2.5	/experiments/Knapen_AOT/AOT_stimuli/rescaled_final/1121_rv.mp4	0.0	238.20278644561768	
48	221.86452889442444	pulse	1	t		46.0	2.5	/experiments/Knapen_AOT/AOT_stimuli/rescaled_final/1121_rv.mp4	0.0	239.802875995636	
48	221.98307943344116	fix_post	2		12	46.0	2.5	/experiments/Knapen_AOT/AOT_stimuli/rescaled_final/1121_rv.mp4	0.0	239.9214265346527	0.10001087188720703
49	222.08309030532837	fix_pre	0		120	47.0	2.5	/experiments/Knapen_AOT/AOT_stimuli/rescaled_final/1691_fw.mp4	0.0	240.02143740653992	1.008528232574463
49	223.09161853790283	movie	1		278	47.0	2.5	/experiments/Knapen_AOT/AOT_stimuli/rescaled_final/1691_fw.mp4	0.0	241.02996563911438	2.4920172691345215
49	223.46566462516785	pulse	1	t		47.0	2.5	/experiments/Knapen_AOT/AOT_stimuli/rescaled_final/1691_fw.mp4	0.0	241.4040117263794	
49	225.06551909446716	pulse	1	t		47.0	2.5	/experiments/Knapen_AOT/AOT_stimuli/rescaled_final/1691_fw.mp4	0.0	243.0038661956787	
49	225.58363580703735	fix_post	2		12	47.0	2.5	/experiments/Knapen_AOT/AOT_stimuli/rescaled_final/1691_fw.mp4	0.0	243.5219829082489	0.09999632835388184
50	225.68363213539124	fix_pre	0		118	48.0	2.5	blank	1.0	243.62197923660278	0.983464241027832
50	226.6591067314148	pulse	0	t		48.0	2.5	blank	1.0	244.59745383262634	
50	226.66709637641907	movie	1		301	48.0	2.5	blank	1.0	244.60544347763062	2.508709669113159
50	228.2593162059784	pulse	1	t		48.0	2.5	blank	1.0	246.19766330718994	
50	229.17580604553223	fix_post	2		12	48.0	2.5	blank	1.0	247.11415314674377	0.10001635551452637
51	229.27582240104675	fix_pre	0		120	49.0	2.5	/experiments/Knapen_AOT/AOT_stimuli/rescaled_final/1800_rv.mp4	0.0	247.2141695022583	1.0084850788116455
51	229.8594946861267	pulse	0	t		49.0	2.5	/experiments/Knapen_AOT/AOT_stimuli/rescaled_final/1800_rv.mp4	0.0	247.79784178733826	
51	230.2843074798584	movie	1		289	49.0	2.5	/experiments/Knapen_AOT/AOT_stimuli/rescaled_final/1800_rv.mp4	0.0	248.22265458106995	2.4921624660491943
51	231.45967864990234	pulse	1	t		49.0	2.5	/experiments/Knapen_AOT/AOT_stimuli/rescaled_final/1800_rv.mp4	0.0	249.3980257511139	
51	232.7764699459076	fix_post	2		12	49.0	2.5	/experiments/Knapen_AOT/AOT_stimuli/rescaled_final/1800_rv.mp4	0.0	250.71481704711914	0.09988903999328613
52	232.87635898590088	fix_pre	0		120	50.0	2.5	/experiments/Knapen_AOT/AOT_stimuli/rescaled_final/0186_rv.mp4	0.0	250.81470608711243	1.0085015296936035
52	233.0600974559784	pulse	0	t		50.0	2.5	/experiments/Knapen_AOT/AOT_stimuli/rescaled_final/0186_rv.mp4	0.0	250.99844455718994	
52	233.88486051559448	movie	1		276	50.0	2.5	/experiments/Knapen_AOT/AOT_stimuli/rescaled_final/0186_rv.mp4	0.0	251.82320761680603	2.492032766342163
52	234.66018795967102	pulse	1	t		50.0	2.5	/experiments/Knapen_AOT/AOT_stimuli/rescaled_final/0186_rv.mp4	0.0	252.59853506088257	
52	236.2604079246521	pulse	1	t		50.0	2.5	/experiments/Knapen_AOT/AOT_stimuli/rescaled_final/0186_rv.mp4	0.0	254.19875502586365	
52	236.37689328193665	fix_post	2		12	50.0	2.5	/experiments/Knapen_AOT/AOT_stimuli/rescaled_final/0186_rv.mp4	0.0	254.3152403831482	0.10014033317565918
53	236.4770336151123	fix_pre	0		120	51.0	2.5	/experiments/Knapen_AOT/AOT_stimuli/rescaled_final/1997_fw.mp4	0.0	254.41538071632385	1.008359432220459
53	237.48539304733276	movie	1		279	51.0	2.5	/experiments/Knapen_AOT/AOT_stimuli/rescaled_final/1997_fw.mp4	0.0	255.4237401485443	2.4920732975006104
53	237.85939764976501	pulse	1	t		51.0	2.5	/experiments/Knapen_AOT/AOT_stimuli/rescaled_final/1997_fw.mp4	0.0	255.79774475097656	
53	239.45939350128174	pulse	1	t		51.0	2.5	/experiments/Knapen_AOT/AOT_stimuli/rescaled_final/1997_fw.mp4	0.0	257.3977406024933	
53	239.97746634483337	fix_post	2		12	51.0	2.5	/experiments/Knapen_AOT/AOT_stimuli/rescaled_final/1997_fw.mp4	0.0	257.9158134460449	0.09997344017028809
54	240.07743978500366	fix_pre	0		119	52.0	2.5	/experiments/Knapen_AOT/AOT_stimuli/rescaled_final/0420_rv.mp4	0.0	258.0157868862152	1.000162124633789
54	241.06116461753845	pulse	0	t		52.0	2.5	/experiments/Knapen_AOT/AOT_stimuli/rescaled_final/0420_rv.mp4	0.0	258.99951171875	
54	241.07760190963745	movie	1		280	52.0	2.5	/experiments/Knapen_AOT/AOT_stimuli/rescaled_final/0420_rv.mp4	0.0	259.015949010849	2.5003750324249268
54	242.66052722930908	pulse	1	t		52.0	2.5	/experiments/Knapen_AOT/AOT_stimuli/rescaled_final/0420_rv.mp4	0.0	260.59887433052063	
54	243.57797694206238	fix_post	2		12	52.0	2.5	/experiments/Knapen_AOT/AOT_stimuli/rescaled_final/0420_rv.mp4	0.0	261.5163240432739	0.10007262229919434
55	243.67804956436157	fix_pre	0		120	53.0	2.5	/experiments/Knapen_AOT/AOT_stimuli/rescaled_final/2023_rv.mp4	0.0	261.6163966655731	1.0084049701690674
55	244.26161408424377	pulse	0	t		53.0	2.5	/experiments/Knapen_AOT/AOT_stimuli/rescaled_final/2023_rv.mp4	0.0	262.1999611854553	
55	244.68645453453064	movie	1		269	53.0	2.5	/experiments/Knapen_AOT/AOT_stimuli/rescaled_final/2023_rv.mp4	0.0	262.6248016357422	2.492058277130127
55	245.86027002334595	pulse	1	t		53.0	2.5	/experiments/Knapen_AOT/AOT_stimuli/rescaled_final/2023_rv.mp4	0.0	263.7986171245575	
55	247.17851281166077	fix_post	2		12	53.0	2.5	/experiments/Knapen_AOT/AOT_stimuli/rescaled_final/2023_rv.mp4	0.0	265.1168599128723	0.10001373291015625
56	247.27852654457092	fix_pre	0		120	54.0	2.5	/experiments/Knapen_AOT/AOT_stimuli/rescaled_final/0153_fw.mp4	0.0	265.21687364578247	1.0085527896881104
56	247.46216678619385	pulse	0	t		54.0	2.5	/experiments/Knapen_AOT/AOT_stimuli/rescaled_final/0153_fw.mp4	0.0	265.4005138874054	
56	248.28707933425903	movie	1		277	54.0	2.5	/experiments/Knapen_AOT/AOT_stimuli/rescaled_final/0153_fw.mp4	0.0	266.2254264354706	2.4920711517333984
56	249.06235218048096	pulse	1	t		54.0	2.5	/experiments/Knapen_AOT/AOT_stimuli/rescaled_final/0153_fw.mp4	0.0	267.0006992816925	
56	250.66081142425537	pulse	1	t		54.0	2.5	/experiments/Knapen_AOT/AOT_stimuli/rescaled_final/0153_fw.mp4	0.0	268.5991585254669	
56	250.77915048599243	fix_post	2		12	54.0	2.5	/experiments/Knapen_AOT/AOT_stimuli/rescaled_final/0153_fw.mp4	0.0	268.717497587204	0.09993743896484375
57	250.87908792495728	fix_pre	0		120	55.0	2.5	blank	1.0	268.8174350261688	1.000129222869873
57	251.87921714782715	movie	1		299	55.0	2.5	blank	1.0	269.8175642490387	2.500368595123291
57	252.263121843338	pulse	1	t		55.0	2.5	blank	1.0	270.20146894454956	
57	253.8632411956787	pulse	1	t		55.0	2.5	blank	1.0	271.80158829689026	
57	254.37958574295044	fix_post	2		12	55.0	2.5	blank	1.0	272.317932844162	0.10000777244567871
58	254.47959351539612	fix_pre	0		119	56.0	2.5	/experiments/Knapen_AOT/AOT_stimuli/rescaled_final/0177_rv.mp4	0.0	272.41794061660767	1.0003201961517334
58	255.46335172653198	pulse	0	t		56.0	2.5	/experiments/Knapen_AOT/AOT_stimuli/rescaled_final/0177_rv.mp4	0.0	273.40169882774353	
58	255.47991371154785	movie	1		280	56.0	2.5	/experiments/Knapen_AOT/AOT_stimuli/rescaled_final/0177_rv.mp4	0.0	273.4182608127594	2.500248432159424
58	257.06378293037415	pulse	1	t		56.0	2.5	/experiments/Knapen_AOT/AOT_stimuli/rescaled_final/0177_rv.mp4	0.0	275.0021300315857	
58	257.9801621437073	fix_post	2		12	56.0	2.5	/experiments/Knapen_AOT/AOT_stimuli/rescaled_final/0177_rv.mp4	0.0	275.9185092449188	0.09999465942382812
59	258.0801568031311	fix_pre	0		120	57.0	2.5	/experiments/Knapen_AOT/AOT_stimuli/rescaled_final/1242_rv.mp4	0.0	276.01850390434265	1.008481502532959
59	258.6642076969147	pulse	0	t		57.0	2.5	/experiments/Knapen_AOT/AOT_stimuli/rescaled_final/1242_rv.mp4	0.0	276.6025547981262	
59	259.08863830566406	movie	1		272	57.0	2.5	/experiments/Knapen_AOT/AOT_stimuli/rescaled_final/1242_rv.mp4	0.0	277.0269854068756	2.4920544624328613
59	260.2621817588806	pulse	1	t		57.0	2.5	/experiments/Knapen_AOT/AOT_stimuli/rescaled_final/1242_rv.mp4	0.0	278.20052886009216	
59	261.5806927680969	fix_post	2		12	57.0	2.5	/experiments/Knapen_AOT/AOT_stimuli/rescaled_final/1242_rv.mp4	0.0	279.5190398693085	0.1000051498413086
60	261.68069791793823	fix_pre	0		120	58.0	2.5	/experiments/Knapen_AOT/AOT_stimuli/rescaled_final/0130_fw.mp4	0.0	279.6190450191498	1.0084810256958008
60	261.86429047584534	pulse	0	t		58.0	2.5	/experiments/Knapen_AOT/AOT_stimuli/rescaled_final/0130_fw.mp4	0.0	279.8026375770569	
60	262.68917894363403	movie	1		272	58.0	2.5	/experiments/Knapen_AOT/AOT_stimuli/rescaled_final/0130_fw.mp4	0.0	280.6275260448456	2.4920413494110107
60	263.46231865882874	pulse	1	t		58.0	2.5	/experiments/Knapen_AOT/AOT_stimuli/rescaled_final/0130_fw.mp4	0.0	281.4006657600403	
60	265.06291127204895	pulse	1	t		58.0	2.5	/experiments/Knapen_AOT/AOT_stimuli/rescaled_final/0130_fw.mp4	0.0	283.0012583732605	
60	265.18122029304504	fix_post	2		12	58.0	2.5	/experiments/Knapen_AOT/AOT_stimuli/rescaled_final/0130_fw.mp4	0.0	283.1195673942566	0.1000204086303711
61	265.2812407016754	fix_pre	0		120	59.0	2.5	/experiments/Knapen_AOT/AOT_stimuli/rescaled_final/1137_fw.mp4	0.0	283.21958780288696	1.0085182189941406
61	266.28975892066956	movie	1		282	59.0	2.5	/experiments/Knapen_AOT/AOT_stimuli/rescaled_final/1137_fw.mp4	0.0	284.2281060218811	2.4920055866241455
61	266.6637351512909	pulse	1	t		59.0	2.5	/experiments/Knapen_AOT/AOT_stimuli/rescaled_final/1137_fw.mp4	0.0	284.60208225250244	
61	268.26328706741333	pulse	1	t		59.0	2.5	/experiments/Knapen_AOT/AOT_stimuli/rescaled_final/1137_fw.mp4	0.0	286.2016341686249	
61	268.7817645072937	fix_post	2		12	59.0	2.5	/experiments/Knapen_AOT/AOT_stimuli/rescaled_final/1137_fw.mp4	0.0	286.72011160850525	0.10001516342163086
62	268.88177967071533	fix_pre	0		119	60.0	2.5	/experiments/Knapen_AOT/AOT_stimuli/rescaled_final/2118_fw.mp4	0.0	286.8201267719269	1.0085158348083496
62	269.865597486496	pulse	0	t		60.0	2.5	/experiments/Knapen_AOT/AOT_stimuli/rescaled_final/2118_fw.mp4	0.0	287.8039445877075	
62	269.8902955055237	movie	1		267	60.0	2.5	/experiments/Knapen_AOT/AOT_stimuli/rescaled_final/2118_fw.mp4	0.0	287.82864260673523	2.492004871368408
62	271.4641387462616	pulse	1	t		60.0	2.5	/experiments/Knapen_AOT/AOT_stimuli/rescaled_final/2118_fw.mp4	0.0	289.40248584747314	
62	272.3823003768921	fix_post	2		12	60.0	2.5	/experiments/Knapen_AOT/AOT_stimuli/rescaled_final/2118_fw.mp4	0.0	290.32064747810364	0.10008025169372559
63	272.4823806285858	fix_pre	0		120	61.0	2.5	blank	1.0	290.42072772979736	1.0001084804534912
63	273.0660457611084	pulse	0	t		61.0	2.5	blank	1.0	291.00439286231995	
63	273.4824891090393	movie	1		300	61.0	2.5	blank	1.0	291.42083621025085	2.500343084335327
63	274.6662404537201	pulse	1	t		61.0	2.5	blank	1.0	292.60458755493164	
63	275.98283219337463	fix_post	2		12	61.0	2.5	blank	1.0	293.9211792945862	0.10009098052978516
64	276.0829231739044	fix_pre	0		120	62.0	2.5	/experiments/Knapen_AOT/AOT_stimuli/rescaled_final/1439_rv.mp4	0.0	294.02127027511597	1.0085220336914062
64	276.2664325237274	pulse	0	t		62.0	2.5	/experiments/Knapen_AOT/AOT_stimuli/rescaled_final/1439_rv.mp4	0.0	294.20477962493896	
64	277.0914452075958	movie	1		275	62.0	2.5	/experiments/Knapen_AOT/AOT_stimuli/rescaled_final/1439_rv.mp4	0.0	295.0297923088074	2.4919281005859375
64	277.8647677898407	pulse	1	t		62.0	2.5	/experiments/Knapen_AOT/AOT_stimuli/rescaled_final/1439_rv.mp4	0.0	295.80311489105225	
64	279.46521830558777	pulse	1	t		62.0	2.5	/experiments/Knapen_AOT/AOT_stimuli/rescaled_final/1439_rv.mp4	0.0	297.4035654067993	
64	279.58337330818176	fix_post	2		12	62.0	2.5	/experiments/Knapen_AOT/AOT_stimuli/rescaled_final/1439_rv.mp4	0.0	297.5217204093933	0.10002946853637695
65	279.68340277671814	fix_pre	0		120	63.0	2.5	/experiments/Knapen_AOT/AOT_stimuli/rescaled_final/0668_fw.mp4	0.0	297.6217498779297	1.0084857940673828
65	280.6918885707855	movie	1		267	63.0	2.5	/experiments/Knapen_AOT/AOT_stimuli/rescaled_final/0668_fw.mp4	0.0	298.63023567199707	2.4920287132263184
65	281.0657181739807	pulse	1	t		63.0	2.5	/experiments/Knapen_AOT/AOT_stimuli/rescaled_final/0668_fw.mp4	0.0	299.00406527519226	
65	282.6656472682953	pulse	1	t		63.0	2.5	/experiments/Knapen_AOT/AOT_stimuli/rescaled_final/0668_fw.mp4	0.0	300.60399436950684	
65	283.18391728401184	fix_post	2		12	63.0	2.5	/experiments/Knapen_AOT/AOT_stimuli/rescaled_final/0668_fw.mp4	0.0	301.1222643852234	0.10005998611450195
66	283.28397727012634	fix_pre	0		118	64.0	2.5	/experiments/Knapen_AOT/AOT_stimuli/rescaled_final/0593_fw.mp4	0.0	301.2223243713379	1.0002140998840332
66	284.25974464416504	pulse	0	t		64.0	2.5	/experiments/Knapen_AOT/AOT_stimuli/rescaled_final/0593_fw.mp4	0.0	302.1980917453766	
66	284.2841913700104	movie	1		276	64.0	2.5	/experiments/Knapen_AOT/AOT_stimuli/rescaled_final/0593_fw.mp4	0.0	302.2225384712219	2.492018461227417
66	285.85973596572876	pulse	1	t		64.0	2.5	/experiments/Knapen_AOT/AOT_stimuli/rescaled_final/0593_fw.mp4	0.0	303.7980830669403	
66	286.7762098312378	fix_post	2		12	64.0	2.5	/experiments/Knapen_AOT/AOT_stimuli/rescaled_final/0593_fw.mp4	0.0	304.71455693244934	0.09996652603149414
67	286.8761763572693	fix_pre	0		120	65.0	2.5	/experiments/Knapen_AOT/AOT_stimuli/rescaled_final/1995_rv.mp4	0.0	304.81452345848083	1.008584976196289
67	287.4598534107208	pulse	0	t		65.0	2.5	/experiments/Knapen_AOT/AOT_stimuli/rescaled_final/1995_rv.mp4	0.0	305.3982005119324	
67	287.8847613334656	movie	1		269	65.0	2.5	/experiments/Knapen_AOT/AOT_stimuli/rescaled_final/1995_rv.mp4	0.0	305.8231084346771	2.4919040203094482
67	289.06012058258057	pulse	1	t		65.0	2.5	/experiments/Knapen_AOT/AOT_stimuli/rescaled_final/1995_rv.mp4	0.0	306.9984676837921	
67	290.376665353775	fix_post	2		12	65.0	2.5	/experiments/Knapen_AOT/AOT_stimuli/rescaled_final/1995_rv.mp4	0.0	308.3150124549866	0.10004401206970215
68	290.4767093658447	fix_pre	0		120	66.0	2.5	/experiments/Knapen_AOT/AOT_stimuli/rescaled_final/2118_rv.mp4	0.0	308.4150564670563	1.008509635925293
68	290.66054129600525	pulse	0	t		66.0	2.5	/experiments/Knapen_AOT/AOT_stimuli/rescaled_final/2118_rv.mp4	0.0	308.5988883972168	
68	291.48521900177	movie	1		273	66.0	2.5	/experiments/Knapen_AOT/AOT_stimuli/rescaled_final/2118_rv.mp4	0.0	309.42356610298157	2.492037296295166
68	292.2606358528137	pulse	1	t		66.0	2.5	/experiments/Knapen_AOT/AOT_stimuli/rescaled_final/2118_rv.mp4	0.0	310.19898295402527	
68	293.86073112487793	pulse	1	t		66.0	2.5	/experiments/Knapen_AOT/AOT_stimuli/rescaled_final/2118_rv.mp4	0.0	311.7990782260895	
68	293.9772562980652	fix_post	2		12	66.0	2.5	/experiments/Knapen_AOT/AOT_stimuli/rescaled_final/2118_rv.mp4	0.0	311.91560339927673	0.10000181198120117
69	294.0772581100464	fix_pre	0		120	67.0	2.5	/experiments/Knapen_AOT/AOT_stimuli/rescaled_final/0452_fw.mp4	0.0	312.01560521125793	1.0084714889526367
69	295.085729598999	movie	1		273	67.0	2.5	/experiments/Knapen_AOT/AOT_stimuli/rescaled_final/0452_fw.mp4	0.0	313.02407670021057	2.4920225143432617
69	295.4597783088684	pulse	1	t		67.0	2.5	/experiments/Knapen_AOT/AOT_stimuli/rescaled_final/0452_fw.mp4	0.0	313.39812541007996	
69	297.0594778060913	pulse	1	t		67.0	2.5	/experiments/Knapen_AOT/AOT_stimuli/rescaled_final/0452_fw.mp4	0.0	314.99782490730286	
69	297.5777521133423	fix_post	2		12	67.0	2.5	/experiments/Knapen_AOT/AOT_stimuli/rescaled_final/0452_fw.mp4	0.0	315.51609921455383	0.10002422332763672
70	297.6777763366699	fix_pre	0		119	68.0	2.5	/experiments/Knapen_AOT/AOT_stimuli/rescaled_final/1906_fw.mp4	0.0	315.61612343788147	1.0001485347747803
70	298.6616997718811	pulse	0	t		68.0	2.5	/experiments/Knapen_AOT/AOT_stimuli/rescaled_final/1906_fw.mp4	0.0	316.60004687309265	
70	298.6779248714447	movie	1		272	68.0	2.5	/experiments/Knapen_AOT/AOT_stimuli/rescaled_final/1906_fw.mp4	0.0	316.61627197265625	2.500404119491577
70	300.2601728439331	pulse	1	t		68.0	2.5	/experiments/Knapen_AOT/AOT_stimuli/rescaled_final/1906_fw.mp4	0.0	318.19851994514465	
70	301.1783289909363	fix_post	2		12	68.0	2.5	/experiments/Knapen_AOT/AOT_stimuli/rescaled_final/1906_fw.mp4	0.0	319.1166760921478	0.09999966621398926
71	301.27832865715027	fix_pre	0		120	69.0	2.5	/experiments/Knapen_AOT/AOT_stimuli/rescaled_final/0965_fw.mp4	0.0	319.2166757583618	1.0086042881011963
71	301.8619718551636	pulse	0	t		69.0	2.5	/experiments/Knapen_AOT/AOT_stimuli/rescaled_final/0965_fw.mp4	0.0	319.8003189563751	
71	302.28693294525146	movie	1		288	69.0	2.5	/experiments/Knapen_AOT/AOT_stimuli/rescaled_final/0965_fw.mp4	0.0	320.225280046463	2.491915464401245
71	303.4604489803314	pulse	1	t		69.0	2.5	/experiments/Knapen_AOT/AOT_stimuli/rescaled_final/0965_fw.mp4	0.0	321.39879608154297	
71	304.7788484096527	fix_post	2		12	69.0	2.5	/experiments/Knapen_AOT/AOT_stimuli/rescaled_final/0965_fw.mp4	0.0	322.71719551086426	0.10001516342163086
72	304.87886357307434	fix_pre	0		120	70.0	2.5	blank	1.0	322.8172106742859	1.0001604557037354
72	305.0624339580536	pulse	0	t		70.0	2.5	blank	1.0	323.00078105926514	
72	305.8790240287781	movie	1		300	70.0	2.5	blank	1.0	323.8173711299896	2.500314950942993
72	306.66288805007935	pulse	1	t		70.0	2.5	blank	1.0	324.6012351512909	
72	308.26306223869324	pulse	1	t		70.0	2.5	blank	1.0	326.2014093399048	
72	308.37933897972107	fix_post	2		12	70.0	2.5	blank	1.0	326.3176860809326	0.10006260871887207
73	308.47940158843994	fix_pre	0		120	71.0	2.5	/experiments/Knapen_AOT/AOT_stimuli/rescaled_final/1943_rv.mp4	0.0	326.4177486896515	1.008626937866211
73	309.48802852630615	movie	1		271	71.0	2.5	/experiments/Knapen_AOT/AOT_stimuli/rescaled_final/1943_rv.mp4	0.0	327.4263756275177	2.4919450283050537
73	309.86167550086975	pulse	1	t		71.0	2.5	/experiments/Knapen_AOT/AOT_stimuli/rescaled_final/1943_rv.mp4	0.0	327.8000226020813	
73	311.4614734649658	pulse	1	t		71.0	2.5	/experiments/Knapen_AOT/AOT_stimuli/rescaled_final/1943_rv.mp4	0.0	329.39982056617737	
73	311.9799735546112	fix_post	2		12	71.0	2.5	/experiments/Knapen_AOT/AOT_stimuli/rescaled_final/1943_rv.mp4	0.0	329.91832065582275	0.09996819496154785
74	312.07994174957275	fix_pre	0		119	72.0	2.5	/experiments/Knapen_AOT/AOT_stimuli/rescaled_final/0308_fw.mp4	0.0	330.0182888507843	1.000281810760498
74	313.06373023986816	pulse	0	t		72.0	2.5	/experiments/Knapen_AOT/AOT_stimuli/rescaled_final/0308_fw.mp4	0.0	331.0020773410797	
74	313.08022356033325	movie	1		266	72.0	2.5	/experiments/Knapen_AOT/AOT_stimuli/rescaled_final/0308_fw.mp4	0.0	331.0185706615448	2.5002825260162354
74	314.66361236572266	pulse	1	t		72.0	2.5	/experiments/Knapen_AOT/AOT_stimuli/rescaled_final/0308_fw.mp4	0.0	332.6019594669342	
74	315.5805060863495	fix_post	2		12	72.0	2.5	/experiments/Knapen_AOT/AOT_stimuli/rescaled_final/0308_fw.mp4	0.0	333.51885318756104	0.09998869895935059
75	315.68049478530884	fix_pre	0		120	73.0	2.5	/experiments/Knapen_AOT/AOT_stimuli/rescaled_final/2162_rv.mp4	0.0	333.6188418865204	1.0084760189056396
75	316.26412177085876	pulse	0	t		73.0	2.5	/experiments/Knapen_AOT/AOT_stimuli/rescaled_final/2162_rv.mp4	0.0	334.2024688720703	
75	316.6889708042145	movie	1		285	73.0	2.5	/experiments/Knapen_AOT/AOT_stimuli/rescaled_final/2162_rv.mp4	0.0	334.627317905426	2.492035388946533
75	317.86224842071533	pulse	1	t		73.0	2.5	/experiments/Knapen_AOT/AOT_stimuli/rescaled_final/2162_rv.mp4	0.0	335.8005955219269	
75	319.181006193161	fix_post	2		12	73.0	2.5	/experiments/Knapen_AOT/AOT_stimuli/rescaled_final/2162_rv.mp4	0.0	337.11935329437256	0.1001887321472168
76	319.2811949253082	fix_pre	0		120	74.0	2.5	/experiments/Knapen_AOT/AOT_stimuli/rescaled_final/0945_rv.mp4	0.0	337.2195420265198	1.0082967281341553
76	319.46456837654114	pulse	0	t		74.0	2.5	/experiments/Knapen_AOT/AOT_stimuli/rescaled_final/0945_rv.mp4	0.0	337.4029154777527	
76	320.2894916534424	movie	1		276	74.0	2.5	/experiments/Knapen_AOT/AOT_stimuli/rescaled_final/0945_rv.mp4	0.0	338.22783875465393	2.4921164512634277
76	321.06282138824463	pulse	1	t		74.0	2.5	/experiments/Knapen_AOT/AOT_stimuli/rescaled_final/0945_rv.mp4	0.0	339.0011684894562	
76	322.6634385585785	pulse	1	t		74.0	2.5	/experiments/Knapen_AOT/AOT_stimuli/rescaled_final/0945_rv.mp4	0.0	340.60178565979004	
76	322.7816081047058	fix_post	2		12	74.0	2.5	/experiments/Knapen_AOT/AOT_stimuli/rescaled_final/0945_rv.mp4	0.0	340.71995520591736	0.1000065803527832
77	322.8816146850586	fix_pre	0		120	75.0	2.5	blank	1.0	340.81996178627014	1.000103235244751
77	323.88171792030334	movie	1		300	75.0	2.5	blank	1.0	341.8200650215149	2.50039005279541
77	324.26551508903503	pulse	1	t		75.0	2.5	blank	1.0	342.2038621902466	
77	325.8656873703003	pulse	1	t		75.0	2.5	blank	1.0	343.80403447151184	
77	326.38210797309875	fix_post	2		12	75.0	2.5	blank	1.0	344.3204550743103	0.10001754760742188
78	326.4821255207062	fix_pre	0		119	76.0	2.5	/experiments/Knapen_AOT/AOT_stimuli/rescaled_final/0069_fw.mp4	0.0	344.4204726219177	1.0085620880126953
78	327.4659502506256	pulse	0	t		76.0	2.5	/experiments/Knapen_AOT/AOT_stimuli/rescaled_final/0069_fw.mp4	0.0	345.40429735183716	
78	327.4906876087189	movie	1		282	76.0	2.5	/experiments/Knapen_AOT/AOT_stimuli/rescaled_final/0069_fw.mp4	0.0	345.4290347099304	2.491938352584839
78	329.0648331642151	pulse	1	t		76.0	2.5	/experiments/Knapen_AOT/AOT_stimuli/rescaled_final/0069_fw.mp4	0.0	347.00318026542664	
78	329.9826259613037	fix_post	2		12	76.0	2.5	/experiments/Knapen_AOT/AOT_stimuli/rescaled_final/0069_fw.mp4	0.0	347.92097306251526	0.10001325607299805
79	330.0826392173767	fix_pre	0		120	77.0	2.5	/experiments/Knapen_AOT/AOT_stimuli/rescaled_final/1045_fw.mp4	0.0	348.02098631858826	1.0085020065307617
79	330.6662917137146	pulse	0	t		77.0	2.5	/experiments/Knapen_AOT/AOT_stimuli/rescaled_final/1045_fw.mp4	0.0	348.60463881492615	
79	331.09114122390747	movie	1		273	77.0	2.5	/experiments/Knapen_AOT/AOT_stimuli/rescaled_final/1045_fw.mp4	0.0	349.029488325119	2.4920876026153564
79	332.2648410797119	pulse	1	t		77.0	2.5	/experiments/Knapen_AOT/AOT_stimuli/rescaled_final/1045_fw.mp4	0.0	350.20318818092346	
79	333.5832288265228	fix_post	2		12	77.0	2.5	/experiments/Knapen_AOT/AOT_stimuli/rescaled_final/1045_fw.mp4	0.0	351.5215759277344	0.09997344017028809
80	333.6832022666931	fix_pre	0		120	78.0	2.5	/experiments/Knapen_AOT/AOT_stimuli/rescaled_final/0974_fw.mp4	0.0	351.62154936790466	1.008526086807251
80	333.85905861854553	pulse	0	t		78.0	2.5	/experiments/Knapen_AOT/AOT_stimuli/rescaled_final/0974_fw.mp4	0.0	351.7974057197571	
80	334.69172835350037	movie	1		267	78.0	2.5	/experiments/Knapen_AOT/AOT_stimuli/rescaled_final/0974_fw.mp4	0.0	352.6300754547119	2.492016315460205
80	335.45946979522705	pulse	1	t		78.0	2.5	/experiments/Knapen_AOT/AOT_stimuli/rescaled_final/0974_fw.mp4	0.0	353.3978168964386	
80	337.0588984489441	pulse	1	t		78.0	2.5	/experiments/Knapen_AOT/AOT_stimuli/rescaled_final/0974_fw.mp4	0.0	354.99724555015564	
80	337.18374466896057	fix_post	2		12	78.0	2.5	/experiments/Knapen_AOT/AOT_stimuli/rescaled_final/0974_fw.mp4	0.0	355.1220917701721	0.09997868537902832
81	337.2837233543396	fix_pre	0		120	79.0	2.5	/experiments/Knapen_AOT/AOT_stimuli/rescaled_final/0758_fw.mp4	0.0	355.22207045555115	1.00846266746521
81	338.2921860218048	movie	1		262	79.0	2.5	/experiments/Knapen_AOT/AOT_stimuli/rescaled_final/0758_fw.mp4	0.0	356.23053312301636	2.492055892944336
81	338.6592626571655	pulse	1	t		79.0	2.5	/experiments/Knapen_AOT/AOT_stimuli/rescaled_final/0758_fw.mp4	0.0	356.5976097583771	
81	340.25932359695435	pulse	1	t		79.0	2.5	/experiments/Knapen_AOT/AOT_stimuli/rescaled_final/0758_fw.mp4	0.0	358.1976706981659	
81	340.78424191474915	fix_post	2		12	79.0	2.5	/experiments/Knapen_AOT/AOT_stimuli/rescaled_final/0758_fw.mp4	0.0	358.7225890159607	0.10007405281066895
82	340.8843159675598	fix_pre	0		118	80.0	2.5	/experiments/Knapen_AOT/AOT_stimuli/rescaled_final/1050_rv.mp4	0.0	358.82266306877136	1.000220537185669
82	341.8597357273102	pulse	0	t		80.0	2.5	/experiments/Knapen_AOT/AOT_stimuli/rescaled_final/1050_rv.mp4	0.0	359.79808282852173	
82	341.8845365047455	movie	1		274	80.0	2.5	/experiments/Knapen_AOT/AOT_stimuli/rescaled_final/1050_rv.mp4	0.0	359.82288360595703	2.491931676864624
82	343.46013927459717	pulse	1	t		80.0	2.5	/experiments/Knapen_AOT/AOT_stimuli/rescaled_final/1050_rv.mp4	0.0	361.3984863758087	
82	344.3764681816101	fix_post	2		12	80.0	2.5	/experiments/Knapen_AOT/AOT_stimuli/rescaled_final/1050_rv.mp4	0.0	362.31481528282166	0.10001158714294434
83	344.47647976875305	fix_pre	0		120	81.0	2.5	/experiments/Knapen_AOT/AOT_stimuli/rescaled_final/0499_fw.mp4	0.0	362.4148268699646	1.0084922313690186
83	345.0601501464844	pulse	0	t		81.0	2.5	/experiments/Knapen_AOT/AOT_stimuli/rescaled_final/0499_fw.mp4	0.0	362.9984972476959	
83	345.48497200012207	movie	1		272	81.0	2.5	/experiments/Knapen_AOT/AOT_stimuli/rescaled_final/0499_fw.mp4	0.0	363.4233191013336	2.4920742511749268
83	346.6589078903198	pulse	1	t		81.0	2.5	/experiments/Knapen_AOT/AOT_stimuli/rescaled_final/0499_fw.mp4	0.0	364.5972549915314	
83	347.977046251297	fix_post	2		12	81.0	2.5	/experiments/Knapen_AOT/AOT_stimuli/rescaled_final/0499_fw.mp4	0.0	365.91539335250854	0.1000220775604248
84	348.0770683288574	fix_pre	0		120	82.0	2.5	/experiments/Knapen_AOT/AOT_stimuli/rescaled_final/1458_rv.mp4	0.0	366.01541543006897	1.0084569454193115
84	348.26064801216125	pulse	0	t		82.0	2.5	/experiments/Knapen_AOT/AOT_stimuli/rescaled_final/1458_rv.mp4	0.0	366.1989951133728	
84	349.08552527427673	movie	1		287	82.0	2.5	/experiments/Knapen_AOT/AOT_stimuli/rescaled_final/1458_rv.mp4	0.0	367.0238723754883	2.49200177192688
84	349.8589217662811	pulse	1	t		82.0	2.5	/experiments/Knapen_AOT/AOT_stimuli/rescaled_final/1458_rv.mp4	0.0	367.7972688674927	
84	351.459153175354	pulse	1	t		82.0	2.5	/experiments/Knapen_AOT/AOT_stimuli/rescaled_final/1458_rv.mp4	0.0	369.39750027656555	
84	351.5775270462036	fix_post	2		12	82.0	2.5	/experiments/Knapen_AOT/AOT_stimuli/rescaled_final/1458_rv.mp4	0.0	369.51587414741516	0.1000208854675293
85	351.67754793167114	fix_pre	0		120	83.0	2.5	blank	1.0	369.6158950328827	1.0001542568206787
85	352.6777021884918	movie	1		300	83.0	2.5	blank	1.0	370.61604928970337	2.5004045963287354
85	353.06122159957886	pulse	1	t		83.0	2.5	blank	1.0	370.9995687007904	
85	354.66159653663635	pulse	1	t		83.0	2.5	blank	1.0	372.5999436378479	
85	355.17810678482056	fix_post	2		12	83.0	2.5	blank	1.0	373.1164538860321	0.09997677803039551
87	355.27808356285095	stim	0		1716					373.2164306640625	14.302150964736938
87	356.26178216934204	pulse	0	t						374.2001292705536	
87	357.86235523223877	pulse	0	t						375.8007023334503	
87	359.4625904560089	pulse	0	t						377.40093755722046	
87	361.06284284591675	pulse	0	t						379.0011899471283	
87	362.662926197052	pulse	0	t						380.60127329826355	
87	364.26318311691284	pulse	0	t						382.2015302181244	
87	365.8634719848633	pulse	0	t						383.80181908607483	
87	367.4638409614563	pulse	0	t						385.40218806266785	
87	369.06390261650085	pulse	0	t						387.0022497177124	
