trial_nr	onset	event_type	phase	response	nr_frames	movie_index	movie_duration	movie_file	blank	onset_abs	duration
0	0.20833396911621094	stim	0		45					41.73757815361023	0.3749990463256836
0	0.5753979682922363	response	0	space						42.104642152786255	
1	0.5833330154418945	stim	0		5177					42.11257719993591	43.15686583518982
1	43.73019003868103	pulse	0	t						85.25943422317505	
1	43.740198850631714	stim	1		1716					85.26944303512573	14.301732063293457
1	45.32352900505066	pulse	1	t						86.85277318954468	
1	46.92389392852783	pulse	1	t						88.45313811302185	
1	48.52402400970459	pulse	1	t						90.05326819419861	
1	50.12424397468567	pulse	1	t						91.65348815917969	
1	51.72449994087219	pulse	1	t						93.25374412536621	
1	53.32477402687073	pulse	1	t						94.85401821136475	
1	54.924986839294434	pulse	1	t						96.45423102378845	
1	56.52516293525696	pulse	1	t						98.05440711975098	
2	58.04193091392517	fix_pre	0		11	0.0	2.5	/experiments/knapen_AOT/AOT_stimuli/rescaled_final/0876_fw.mp4	0.0	99.57117509841919	0.09167599678039551
2	58.125502824783325	pulse	0	t		0.0	2.5	/experiments/knapen_AOT/AOT_stimuli/rescaled_final/0876_fw.mp4	0.0	99.65474700927734	
2	58.133606910705566	movie	1		242	0.0	2.5	/experiments/knapen_AOT/AOT_stimuli/rescaled_final/0876_fw.mp4	0.0	99.66285109519958	2.5087430477142334
2	59.72683095932007	pulse	1	t		0.0	2.5	/experiments/knapen_AOT/AOT_stimuli/rescaled_final/0876_fw.mp4	0.0	101.25607514381409	
2	60.6423499584198	fix_post	2		12	0.0	2.5	/experiments/knapen_AOT/AOT_stimuli/rescaled_final/0876_fw.mp4	0.0	102.17159414291382	0.09998488426208496
3	60.742334842681885	fix_pre	0		120	1.0	2.5	/experiments/knapen_AOT/AOT_stimuli/rescaled_final/2025_rv.mp4	0.0	102.2715790271759	1.0001170635223389
3	61.32592296600342	pulse	0	t		1.0	2.5	/experiments/knapen_AOT/AOT_stimuli/rescaled_final/2025_rv.mp4	0.0	102.85516715049744	
3	61.742451906204224	movie	1		243	1.0	2.5	/experiments/knapen_AOT/AOT_stimuli/rescaled_final/2025_rv.mp4	0.0	103.27169609069824	2.500648021697998
3	62.92620086669922	pulse	1	t		1.0	2.5	/experiments/knapen_AOT/AOT_stimuli/rescaled_final/2025_rv.mp4	0.0	104.45544505119324	
3	64.24309992790222	fix_post	2		12	1.0	2.5	/experiments/knapen_AOT/AOT_stimuli/rescaled_final/2025_rv.mp4	0.0	105.77234411239624	0.09978604316711426
4	64.34288597106934	fix_pre	0		120	2.0	2.5	/experiments/knapen_AOT/AOT_stimuli/rescaled_final/1965_rv.mp4	0.0	105.87213015556335	1.0001280307769775
4	64.52640295028687	pulse	0	t		2.0	2.5	/experiments/knapen_AOT/AOT_stimuli/rescaled_final/1965_rv.mp4	0.0	106.05564713478088	
4	65.34301400184631	movie	1		243	2.0	2.5	/experiments/knapen_AOT/AOT_stimuli/rescaled_final/1965_rv.mp4	0.0	106.87225818634033	2.500437021255493
4	66.1269018650055	pulse	1	t		2.0	2.5	/experiments/knapen_AOT/AOT_stimuli/rescaled_final/1965_rv.mp4	0.0	107.65614604949951	
4	67.72674489021301	pulse	1	t		2.0	2.5	/experiments/knapen_AOT/AOT_stimuli/rescaled_final/1965_rv.mp4	0.0	109.25598907470703	
4	67.8434510231018	fix_post	2		12	2.0	2.5	/experiments/knapen_AOT/AOT_stimuli/rescaled_final/1965_rv.mp4	0.0	109.37269520759583	0.09992289543151855
5	67.94337391853333	fix_pre	0		120	3.0	2.5	/experiments/knapen_AOT/AOT_stimuli/rescaled_final/0487_fw.mp4	0.0	109.47261810302734	1.000169038772583
5	68.94354295730591	movie	1		243	3.0	2.5	/experiments/knapen_AOT/AOT_stimuli/rescaled_final/0487_fw.mp4	0.0	110.47278714179993	2.4920740127563477
5	69.32786798477173	pulse	1	t		3.0	2.5	/experiments/knapen_AOT/AOT_stimuli/rescaled_final/0487_fw.mp4	0.0	110.85711216926575	
5	70.92012000083923	pulse	1	t		3.0	2.5	/experiments/knapen_AOT/AOT_stimuli/rescaled_final/0487_fw.mp4	0.0	112.44936418533325	
5	71.43561697006226	fix_post	2		12	3.0	2.5	/experiments/knapen_AOT/AOT_stimuli/rescaled_final/0487_fw.mp4	0.0	112.96486115455627	0.09995698928833008
6	71.53557395935059	fix_pre	0		120	4.0	2.5	/experiments/knapen_AOT/AOT_stimuli/rescaled_final/2079_fw.mp4	0.0	113.0648181438446	1.000166893005371
6	72.52765583992004	pulse	0	t		4.0	2.5	/experiments/knapen_AOT/AOT_stimuli/rescaled_final/2079_fw.mp4	0.0	114.05690002441406	
6	72.53574085235596	movie	1		244	4.0	2.5	/experiments/knapen_AOT/AOT_stimuli/rescaled_final/2079_fw.mp4	0.0	114.06498503684998	2.5088300704956055
6	74.12847089767456	pulse	1	t		4.0	2.5	/experiments/knapen_AOT/AOT_stimuli/rescaled_final/2079_fw.mp4	0.0	115.65771508216858	
6	75.04457092285156	fix_post	2		12	4.0	2.5	/experiments/knapen_AOT/AOT_stimuli/rescaled_final/2079_fw.mp4	0.0	116.57381510734558	0.09989404678344727
7	75.14446496963501	fix_pre	0		120	5.0	2.5	/experiments/knapen_AOT/AOT_stimuli/rescaled_final/1426_fw.mp4	0.0	116.67370915412903	1.0001530647277832
7	75.72062397003174	pulse	0	t		5.0	2.5	/experiments/knapen_AOT/AOT_stimuli/rescaled_final/1426_fw.mp4	0.0	117.24986815452576	
7	76.1446180343628	movie	1		246	5.0	2.5	/experiments/knapen_AOT/AOT_stimuli/rescaled_final/1426_fw.mp4	0.0	117.67386221885681	2.5003609657287598
7	77.32372784614563	pulse	1	t		5.0	2.5	/experiments/knapen_AOT/AOT_stimuli/rescaled_final/1426_fw.mp4	0.0	118.85297203063965	
7	78.64497900009155	fix_post	2		12	5.0	2.5	/experiments/knapen_AOT/AOT_stimuli/rescaled_final/1426_fw.mp4	0.0	120.17422318458557	0.10006189346313477
8	78.74504089355469	fix_pre	0		120	6.0	2.5	/experiments/knapen_AOT/AOT_stimuli/rescaled_final/0623_rv.mp4	0.0	120.2742850780487	1.0000879764556885
8	78.92031002044678	pulse	0	t		6.0	2.5	/experiments/knapen_AOT/AOT_stimuli/rescaled_final/0623_rv.mp4	0.0	120.4495542049408	
8	79.74512887001038	movie	1		242	6.0	2.5	/experiments/knapen_AOT/AOT_stimuli/rescaled_final/0623_rv.mp4	0.0	121.2743730545044	2.5006320476531982
8	80.52039694786072	pulse	1	t		6.0	2.5	/experiments/knapen_AOT/AOT_stimuli/rescaled_final/0623_rv.mp4	0.0	122.04964113235474	
8	82.12067103385925	pulse	1	t		6.0	2.5	/experiments/knapen_AOT/AOT_stimuli/rescaled_final/0623_rv.mp4	0.0	123.64991521835327	
8	82.24576091766357	fix_post	2		12	6.0	2.5	/experiments/knapen_AOT/AOT_stimuli/rescaled_final/0623_rv.mp4	0.0	123.77500510215759	0.09981012344360352
9	82.34557104110718	fix_pre	0		120	7.0	2.5	blank	1.0	123.8748152256012	1.0001018047332764
9	83.34567284584045	movie	1		299	7.0	2.5	blank	1.0	124.87491703033447	2.49202299118042
9	83.72097897529602	pulse	1	t		7.0	2.5	blank	1.0	125.25022315979004	
9	85.32126593589783	pulse	1	t		7.0	2.5	blank	1.0	126.85051012039185	
9	85.83769583702087	fix_post	2		12	7.0	2.5	blank	1.0	127.36694002151489	0.10010504722595215
10	85.93780088424683	fix_pre	0		119	8.0	2.5	/experiments/knapen_AOT/AOT_stimuli/rescaled_final/1607_fw.mp4	0.0	127.46704506874084	0.9917969703674316
10	86.92140698432922	pulse	0	t		8.0	2.5	/experiments/knapen_AOT/AOT_stimuli/rescaled_final/1607_fw.mp4	0.0	128.45065116882324	
10	86.92959785461426	movie	1		244	8.0	2.5	/experiments/knapen_AOT/AOT_stimuli/rescaled_final/1607_fw.mp4	0.0	128.45884203910828	2.5086491107940674
10	88.52231097221375	pulse	1	t		8.0	2.5	/experiments/knapen_AOT/AOT_stimuli/rescaled_final/1607_fw.mp4	0.0	130.05155515670776	
10	89.43824696540833	fix_post	2		12	8.0	2.5	/experiments/knapen_AOT/AOT_stimuli/rescaled_final/1607_fw.mp4	0.0	130.96749114990234	0.10004496574401855
11	89.53829193115234	fix_pre	0		117	9.0	2.5	/experiments/knapen_AOT/AOT_stimuli/rescaled_final/0403_fw.mp4	0.0	131.06753611564636	1.0001239776611328
11	90.12186789512634	pulse	0	t		9.0	2.5	/experiments/knapen_AOT/AOT_stimuli/rescaled_final/0403_fw.mp4	0.0	131.65111207962036	
11	90.53841590881348	movie	1		243	9.0	2.5	/experiments/knapen_AOT/AOT_stimuli/rescaled_final/0403_fw.mp4	0.0	132.0676600933075	2.5003650188446045
11	91.72221398353577	pulse	1	t		9.0	2.5	/experiments/knapen_AOT/AOT_stimuli/rescaled_final/0403_fw.mp4	0.0	133.25145816802979	
11	93.03878092765808	fix_post	2		12	9.0	2.5	/experiments/knapen_AOT/AOT_stimuli/rescaled_final/0403_fw.mp4	0.0	134.5680251121521	0.10008502006530762
12	93.13886594772339	fix_pre	0		120	10.0	2.5	/experiments/knapen_AOT/AOT_stimuli/rescaled_final/0092_fw.mp4	0.0	134.6681101322174	1.0001819133758545
12	93.32236194610596	pulse	0	t		10.0	2.5	/experiments/knapen_AOT/AOT_stimuli/rescaled_final/0092_fw.mp4	0.0	134.85160613059998	
12	94.13904786109924	movie	1		242	10.0	2.5	/experiments/knapen_AOT/AOT_stimuli/rescaled_final/0092_fw.mp4	0.0	135.66829204559326	2.5003890991210938
12	94.92266488075256	pulse	1	t		10.0	2.5	/experiments/knapen_AOT/AOT_stimuli/rescaled_final/0092_fw.mp4	0.0	136.45190906524658	
12	96.52331304550171	pulse	1	t		10.0	2.5	/experiments/knapen_AOT/AOT_stimuli/rescaled_final/0092_fw.mp4	0.0	138.05255722999573	
12	96.63943696022034	fix_post	2		12	10.0	2.5	/experiments/knapen_AOT/AOT_stimuli/rescaled_final/0092_fw.mp4	0.0	138.16868114471436	0.09989404678344727
13	96.73933100700378	fix_pre	0		119	11.0	2.5	/experiments/knapen_AOT/AOT_stimuli/rescaled_final/0230_fw.mp4	0.0	138.2685751914978	0.9918498992919922
13	97.73118090629578	movie	1		242	11.0	2.5	/experiments/knapen_AOT/AOT_stimuli/rescaled_final/0230_fw.mp4	0.0	139.2604250907898	2.500502109527588
13	98.1231460571289	pulse	1	t		11.0	2.5	/experiments/knapen_AOT/AOT_stimuli/rescaled_final/0230_fw.mp4	0.0	139.65239024162292	
13	99.7233018875122	pulse	1	t		11.0	2.5	/experiments/knapen_AOT/AOT_stimuli/rescaled_final/0230_fw.mp4	0.0	141.25254607200623	
13	100.23168301582336	fix_post	2		12	11.0	2.5	/experiments/knapen_AOT/AOT_stimuli/rescaled_final/0230_fw.mp4	0.0	141.76092720031738	0.09993886947631836
14	100.33162188529968	fix_pre	0		120	12.0	2.5	/experiments/knapen_AOT/AOT_stimuli/rescaled_final/2083_fw.mp4	0.0	141.8608660697937	1.0001420974731445
14	101.3235559463501	pulse	0	t		12.0	2.5	/experiments/knapen_AOT/AOT_stimuli/rescaled_final/2083_fw.mp4	0.0	142.85280013084412	
14	101.33176398277283	movie	1		243	12.0	2.5	/experiments/knapen_AOT/AOT_stimuli/rescaled_final/2083_fw.mp4	0.0	142.86100816726685	2.508697032928467
14	102.92516994476318	pulse	1	t		12.0	2.5	/experiments/knapen_AOT/AOT_stimuli/rescaled_final/2083_fw.mp4	0.0	144.4544141292572	
14	103.8404610157013	fix_post	2		12	12.0	2.5	/experiments/knapen_AOT/AOT_stimuli/rescaled_final/2083_fw.mp4	0.0	145.3697052001953	0.09993791580200195
15	103.9403989315033	fix_pre	0		120	13.0	2.5	blank	1.0	145.46964311599731	1.0002329349517822
15	104.52413201332092	pulse	0	t		13.0	2.5	blank	1.0	146.05337619781494	
15	104.94063186645508	movie	1		300	13.0	2.5	blank	1.0	146.4698760509491	2.5004069805145264
15	106.12437891960144	pulse	1	t		13.0	2.5	blank	1.0	147.65362310409546	
15	107.4410388469696	fix_post	2		12	13.0	2.5	blank	1.0	148.97028303146362	0.09990119934082031
16	107.54094004631042	fix_pre	0		120	14.0	2.5	/experiments/knapen_AOT/AOT_stimuli/rescaled_final/0137_fw.mp4	0.0	149.07018423080444	1.0001568794250488
16	107.72457385063171	pulse	0	t		14.0	2.5	/experiments/knapen_AOT/AOT_stimuli/rescaled_final/0137_fw.mp4	0.0	149.25381803512573	
16	108.54109692573547	movie	1		242	14.0	2.5	/experiments/knapen_AOT/AOT_stimuli/rescaled_final/0137_fw.mp4	0.0	150.0703411102295	2.500581979751587
16	109.32479500770569	pulse	1	t		14.0	2.5	/experiments/knapen_AOT/AOT_stimuli/rescaled_final/0137_fw.mp4	0.0	150.8540391921997	
16	110.92625689506531	pulse	1	t		14.0	2.5	/experiments/knapen_AOT/AOT_stimuli/rescaled_final/0137_fw.mp4	0.0	152.45550107955933	
16	111.04167890548706	fix_post	2		12	14.0	2.5	/experiments/knapen_AOT/AOT_stimuli/rescaled_final/0137_fw.mp4	0.0	152.57092308998108	0.09982800483703613
17	111.1415069103241	fix_pre	0		119	15.0	2.5	/experiments/knapen_AOT/AOT_stimuli/rescaled_final/2000_fw.mp4	0.0	152.67075109481812	0.9918010234832764
17	112.13330793380737	movie	1		242	15.0	2.5	/experiments/knapen_AOT/AOT_stimuli/rescaled_final/2000_fw.mp4	0.0	153.6625521183014	2.500549077987671
17	112.52544498443604	pulse	1	t		15.0	2.5	/experiments/knapen_AOT/AOT_stimuli/rescaled_final/2000_fw.mp4	0.0	154.05468916893005	
17	114.12541198730469	pulse	1	t		15.0	2.5	/experiments/knapen_AOT/AOT_stimuli/rescaled_final/2000_fw.mp4	0.0	155.6546561717987	
17	114.63385701179504	fix_post	2		12	15.0	2.5	/experiments/knapen_AOT/AOT_stimuli/rescaled_final/2000_fw.mp4	0.0	156.16310119628906	0.09982800483703613
18	114.73368501663208	fix_pre	0		120	16.0	2.5	/experiments/knapen_AOT/AOT_stimuli/rescaled_final/0006_rv.mp4	0.0	156.2629292011261	1.000173807144165
18	115.7257649898529	pulse	0	t		16.0	2.5	/experiments/knapen_AOT/AOT_stimuli/rescaled_final/0006_rv.mp4	0.0	157.25500917434692	
18	115.73385882377625	movie	1		243	16.0	2.5	/experiments/knapen_AOT/AOT_stimuli/rescaled_final/0006_rv.mp4	0.0	157.26310300827026	2.5087320804595947
18	117.32681083679199	pulse	1	t		16.0	2.5	/experiments/knapen_AOT/AOT_stimuli/rescaled_final/0006_rv.mp4	0.0	158.856055021286	
18	118.24259090423584	fix_post	2		12	16.0	2.5	/experiments/knapen_AOT/AOT_stimuli/rescaled_final/0006_rv.mp4	0.0	159.77183508872986	0.09999203681945801
19	118.3425829410553	fix_pre	0		120	17.0	2.5	/experiments/knapen_AOT/AOT_stimuli/rescaled_final/0669_rv.mp4	0.0	159.87182712554932	1.0001769065856934
19	118.92630505561829	pulse	0	t		17.0	2.5	/experiments/knapen_AOT/AOT_stimuli/rescaled_final/0669_rv.mp4	0.0	160.4555492401123	
19	119.34275984764099	movie	1		243	17.0	2.5	/experiments/knapen_AOT/AOT_stimuli/rescaled_final/0669_rv.mp4	0.0	160.872004032135	2.5005671977996826
19	120.52649688720703	pulse	1	t		17.0	2.5	/experiments/knapen_AOT/AOT_stimuli/rescaled_final/0669_rv.mp4	0.0	162.05574107170105	
19	121.84332704544067	fix_post	2		12	17.0	2.5	/experiments/knapen_AOT/AOT_stimuli/rescaled_final/0669_rv.mp4	0.0	163.3725712299347	0.09981679916381836
20	121.94314384460449	fix_pre	0		120	18.0	2.5	/experiments/knapen_AOT/AOT_stimuli/rescaled_final/2150_rv.mp4	0.0	163.4723880290985	1.0001070499420166
20	122.12673592567444	pulse	0	t		18.0	2.5	/experiments/knapen_AOT/AOT_stimuli/rescaled_final/2150_rv.mp4	0.0	163.65598011016846	
20	122.94325089454651	movie	1		242	18.0	2.5	/experiments/knapen_AOT/AOT_stimuli/rescaled_final/2150_rv.mp4	0.0	164.47249507904053	2.500606060028076
20	123.72689604759216	pulse	1	t		18.0	2.5	/experiments/knapen_AOT/AOT_stimuli/rescaled_final/2150_rv.mp4	0.0	165.25614023208618	
20	125.32805800437927	pulse	1	t		18.0	2.5	/experiments/knapen_AOT/AOT_stimuli/rescaled_final/2150_rv.mp4	0.0	166.8573021888733	
20	125.44385695457458	fix_post	2		12	18.0	2.5	/experiments/knapen_AOT/AOT_stimuli/rescaled_final/2150_rv.mp4	0.0	166.9731011390686	0.09977889060974121
21	125.54363584518433	fix_pre	0		120	19.0	2.5	/experiments/knapen_AOT/AOT_stimuli/rescaled_final/2079_rv.mp4	0.0	167.07288002967834	1.0001552104949951
21	126.54379105567932	movie	1		242	19.0	2.5	/experiments/knapen_AOT/AOT_stimuli/rescaled_final/2079_rv.mp4	0.0	168.07303524017334	2.4922268390655518
21	126.92906284332275	pulse	1	t		19.0	2.5	/experiments/knapen_AOT/AOT_stimuli/rescaled_final/2079_rv.mp4	0.0	168.45830702781677	
21	128.52027583122253	pulse	1	t		19.0	2.5	/experiments/knapen_AOT/AOT_stimuli/rescaled_final/2079_rv.mp4	0.0	170.04952001571655	
21	129.03601789474487	fix_post	2		12	19.0	2.5	/experiments/knapen_AOT/AOT_stimuli/rescaled_final/2079_rv.mp4	0.0	170.5652620792389	0.09987902641296387
22	129.13589692115784	fix_pre	0		120	20.0	2.5	blank	1.0	170.66514110565186	1.0000901222229004
22	130.12027192115784	pulse	0	t		20.0	2.5	blank	1.0	171.64951610565186	
22	130.13598704338074	movie	1		301	20.0	2.5	blank	1.0	171.66523122787476	2.5087459087371826
22	131.7199158668518	pulse	1	t		20.0	2.5	blank	1.0	173.24916005134583	
22	132.64473295211792	fix_post	2		12	20.0	2.5	blank	1.0	174.17397713661194	0.09996700286865234
23	132.74469995498657	fix_pre	0		120	21.0	2.5	/experiments/knapen_AOT/AOT_stimuli/rescaled_final/0732_rv.mp4	0.0	174.2739441394806	1.0001630783081055
23	133.3199279308319	pulse	0	t		21.0	2.5	/experiments/knapen_AOT/AOT_stimuli/rescaled_final/0732_rv.mp4	0.0	174.84917211532593	
23	133.74486303329468	movie	1		244	21.0	2.5	/experiments/knapen_AOT/AOT_stimuli/rescaled_final/0732_rv.mp4	0.0	175.2741072177887	2.500403881072998
23	134.9208550453186	pulse	1	t		21.0	2.5	/experiments/knapen_AOT/AOT_stimuli/rescaled_final/0732_rv.mp4	0.0	176.45009922981262	
23	136.24526691436768	fix_post	2		12	21.0	2.5	/experiments/knapen_AOT/AOT_stimuli/rescaled_final/0732_rv.mp4	0.0	177.7745110988617	0.09997892379760742
24	136.34524583816528	fix_pre	0		120	22.0	2.5	/experiments/knapen_AOT/AOT_stimuli/rescaled_final/1210_fw.mp4	0.0	177.8744900226593	1.0001440048217773
24	136.5204198360443	pulse	0	t		22.0	2.5	/experiments/knapen_AOT/AOT_stimuli/rescaled_final/1210_fw.mp4	0.0	178.04966402053833	
24	137.34538984298706	movie	1		242	22.0	2.5	/experiments/knapen_AOT/AOT_stimuli/rescaled_final/1210_fw.mp4	0.0	178.87463402748108	2.5005900859832764
24	138.1208529472351	pulse	1	t		22.0	2.5	/experiments/knapen_AOT/AOT_stimuli/rescaled_final/1210_fw.mp4	0.0	179.65009713172913	
24	139.72101497650146	pulse	1	t		22.0	2.5	/experiments/knapen_AOT/AOT_stimuli/rescaled_final/1210_fw.mp4	0.0	181.25025916099548	
24	139.84597992897034	fix_post	2		12	22.0	2.5	/experiments/knapen_AOT/AOT_stimuli/rescaled_final/1210_fw.mp4	0.0	181.37522411346436	0.09985899925231934
25	139.94583892822266	fix_pre	0		120	23.0	2.5	/experiments/knapen_AOT/AOT_stimuli/rescaled_final/0362_rv.mp4	0.0	181.47508311271667	1.000162124633789
25	140.94600105285645	movie	1		242	23.0	2.5	/experiments/knapen_AOT/AOT_stimuli/rescaled_final/0362_rv.mp4	0.0	182.47524523735046	2.492008924484253
25	141.32117700576782	pulse	1	t		23.0	2.5	/experiments/knapen_AOT/AOT_stimuli/rescaled_final/0362_rv.mp4	0.0	182.85042119026184	
25	142.92149996757507	pulse	1	t		23.0	2.5	/experiments/knapen_AOT/AOT_stimuli/rescaled_final/0362_rv.mp4	0.0	184.4507441520691	
25	143.4380099773407	fix_post	2		12	23.0	2.5	/experiments/knapen_AOT/AOT_stimuli/rescaled_final/0362_rv.mp4	0.0	184.96725416183472	0.10001492500305176
26	143.53802490234375	fix_pre	0		119	24.0	2.5	/experiments/knapen_AOT/AOT_stimuli/rescaled_final/1719_rv.mp4	0.0	185.06726908683777	0.9917891025543213
26	144.52179098129272	pulse	0	t		24.0	2.5	/experiments/knapen_AOT/AOT_stimuli/rescaled_final/1719_rv.mp4	0.0	186.05103516578674	
26	144.52981400489807	movie	1		244	24.0	2.5	/experiments/knapen_AOT/AOT_stimuli/rescaled_final/1719_rv.mp4	0.0	186.0590581893921	2.5087268352508545
26	146.1224069595337	pulse	1	t		24.0	2.5	/experiments/knapen_AOT/AOT_stimuli/rescaled_final/1719_rv.mp4	0.0	187.6516511440277	
26	147.03854084014893	fix_post	2		12	24.0	2.5	/experiments/knapen_AOT/AOT_stimuli/rescaled_final/1719_rv.mp4	0.0	188.56778502464294	0.10003900527954102
27	147.13857984542847	fix_pre	0		120	25.0	2.5	/experiments/knapen_AOT/AOT_stimuli/rescaled_final/2025_rv.mp4	0.0	188.66782402992249	1.0000920295715332
27	147.72214794158936	pulse	0	t		25.0	2.5	/experiments/knapen_AOT/AOT_stimuli/rescaled_final/2025_rv.mp4	0.0	189.25139212608337	
27	148.138671875	movie	1		243	25.0	2.5	/experiments/knapen_AOT/AOT_stimuli/rescaled_final/2025_rv.mp4	0.0	189.66791605949402	2.5004160404205322
27	149.3224470615387	pulse	1	t		25.0	2.5	/experiments/knapen_AOT/AOT_stimuli/rescaled_final/2025_rv.mp4	0.0	190.85169124603271	
27	150.63908791542053	fix_post	2		12	25.0	2.5	/experiments/knapen_AOT/AOT_stimuli/rescaled_final/2025_rv.mp4	0.0	192.16833209991455	0.09998393058776855
28	150.7390718460083	fix_pre	0		120	26.0	2.5	/experiments/knapen_AOT/AOT_stimuli/rescaled_final/1828_fw.mp4	0.0	192.26831603050232	1.0001330375671387
28	150.92270398139954	pulse	0	t		26.0	2.5	/experiments/knapen_AOT/AOT_stimuli/rescaled_final/1828_fw.mp4	0.0	192.45194816589355	
28	151.73920488357544	movie	1		243	26.0	2.5	/experiments/knapen_AOT/AOT_stimuli/rescaled_final/1828_fw.mp4	0.0	193.26844906806946	2.5006000995635986
28	152.52295804023743	pulse	1	t		26.0	2.5	/experiments/knapen_AOT/AOT_stimuli/rescaled_final/1828_fw.mp4	0.0	194.05220222473145	
28	154.12332105636597	pulse	1	t		26.0	2.5	/experiments/knapen_AOT/AOT_stimuli/rescaled_final/1828_fw.mp4	0.0	195.65256524085999	
28	154.23980498313904	fix_post	2		12	26.0	2.5	/experiments/knapen_AOT/AOT_stimuli/rescaled_final/1828_fw.mp4	0.0	195.76904916763306	0.09983587265014648
29	154.33964085578918	fix_pre	0		120	27.0	2.5	/experiments/knapen_AOT/AOT_stimuli/rescaled_final/1187_rv.mp4	0.0	195.8688850402832	1.0001170635223389
29	155.33975791931152	movie	1		241	27.0	2.5	/experiments/knapen_AOT/AOT_stimuli/rescaled_final/1187_rv.mp4	0.0	196.86900210380554	2.492126941680908
29	155.72473788261414	pulse	1	t		27.0	2.5	/experiments/knapen_AOT/AOT_stimuli/rescaled_final/1187_rv.mp4	0.0	197.25398206710815	
29	157.3235628604889	pulse	1	t		27.0	2.5	/experiments/knapen_AOT/AOT_stimuli/rescaled_final/1187_rv.mp4	0.0	198.8528070449829	
29	157.83188486099243	fix_post	2		12	27.0	2.5	/experiments/knapen_AOT/AOT_stimuli/rescaled_final/1187_rv.mp4	0.0	199.36112904548645	0.09997701644897461
30	157.9318618774414	fix_pre	0		120	28.0	2.5	blank	1.0	199.46110606193542	1.0001511573791504
30	158.9239058494568	pulse	0	t		28.0	2.5	blank	1.0	200.4531500339508	
30	158.93201303482056	movie	1		296	28.0	2.5	blank	1.0	200.46125721931458	2.5087099075317383
30	160.52417087554932	pulse	1	t		28.0	2.5	blank	1.0	202.05341506004333	
30	161.4407229423523	fix_post	2		12	28.0	2.5	blank	1.0	202.9699671268463	0.0999300479888916
31	161.5406529903412	fix_pre	0		120	29.0	2.5	/experiments/knapen_AOT/AOT_stimuli/rescaled_final/0549_fw.mp4	0.0	203.0698971748352	1.0001599788665771
31	162.12432599067688	pulse	0	t		29.0	2.5	/experiments/knapen_AOT/AOT_stimuli/rescaled_final/0549_fw.mp4	0.0	203.6535701751709	
31	162.54081296920776	movie	1		242	29.0	2.5	/experiments/knapen_AOT/AOT_stimuli/rescaled_final/0549_fw.mp4	0.0	204.07005715370178	2.5005459785461426
31	163.72051095962524	pulse	1	t		29.0	2.5	/experiments/knapen_AOT/AOT_stimuli/rescaled_final/0549_fw.mp4	0.0	205.24975514411926	
31	165.0413589477539	fix_post	2		12	29.0	2.5	/experiments/knapen_AOT/AOT_stimuli/rescaled_final/0549_fw.mp4	0.0	206.57060313224792	0.09987401962280273
32	165.1412329673767	fix_pre	0		120	30.0	2.5	/experiments/knapen_AOT/AOT_stimuli/rescaled_final/1963_rv.mp4	0.0	206.67047715187073	1.000236988067627
32	165.32488989830017	pulse	0	t		30.0	2.5	/experiments/knapen_AOT/AOT_stimuli/rescaled_final/1963_rv.mp4	0.0	206.8541340827942	
32	166.14146995544434	movie	1		243	30.0	2.5	/experiments/knapen_AOT/AOT_stimuli/rescaled_final/1963_rv.mp4	0.0	207.67071413993835	2.500286102294922
32	166.92512798309326	pulse	1	t		30.0	2.5	/experiments/knapen_AOT/AOT_stimuli/rescaled_final/1963_rv.mp4	0.0	208.45437216758728	
32	168.5252070426941	pulse	1	t		30.0	2.5	/experiments/knapen_AOT/AOT_stimuli/rescaled_final/1963_rv.mp4	0.0	210.0544512271881	
32	168.64175605773926	fix_post	2		12	30.0	2.5	/experiments/knapen_AOT/AOT_stimuli/rescaled_final/1963_rv.mp4	0.0	210.17100024223328	0.09999489784240723
33	168.74175095558167	fix_pre	0		120	31.0	2.5	/experiments/knapen_AOT/AOT_stimuli/rescaled_final/0052_fw.mp4	0.0	210.27099514007568	1.0002288818359375
33	169.7419798374176	movie	1		243	31.0	2.5	/experiments/knapen_AOT/AOT_stimuli/rescaled_final/0052_fw.mp4	0.0	211.27122402191162	2.4920120239257812
33	170.1266369819641	pulse	1	t		31.0	2.5	/experiments/knapen_AOT/AOT_stimuli/rescaled_final/0052_fw.mp4	0.0	211.65588116645813	
33	171.72584199905396	pulse	1	t		31.0	2.5	/experiments/knapen_AOT/AOT_stimuli/rescaled_final/0052_fw.mp4	0.0	213.25508618354797	
33	172.23399186134338	fix_post	2		12	31.0	2.5	/experiments/knapen_AOT/AOT_stimuli/rescaled_final/0052_fw.mp4	0.0	213.7632360458374	0.09998917579650879
34	172.3339810371399	fix_pre	0		120	32.0	2.5	/experiments/knapen_AOT/AOT_stimuli/rescaled_final/2000_rv.mp4	0.0	213.8632252216339	1.000194787979126
34	173.32608604431152	pulse	0	t		32.0	2.5	/experiments/knapen_AOT/AOT_stimuli/rescaled_final/2000_rv.mp4	0.0	214.85533022880554	
34	173.33417582511902	movie	1		243	32.0	2.5	/experiments/knapen_AOT/AOT_stimuli/rescaled_final/2000_rv.mp4	0.0	214.86342000961304	2.5086710453033447
34	174.92667698860168	pulse	1	t		32.0	2.5	/experiments/knapen_AOT/AOT_stimuli/rescaled_final/2000_rv.mp4	0.0	216.4559211730957	
34	175.84284687042236	fix_post	2		12	32.0	2.5	/experiments/knapen_AOT/AOT_stimuli/rescaled_final/2000_rv.mp4	0.0	217.37209105491638	0.10001802444458008
35	175.94286489486694	fix_pre	0		120	33.0	2.5	/experiments/knapen_AOT/AOT_stimuli/rescaled_final/1657_fw.mp4	0.0	217.47210907936096	1.000136137008667
35	176.5264618396759	pulse	0	t		33.0	2.5	/experiments/knapen_AOT/AOT_stimuli/rescaled_final/1657_fw.mp4	0.0	218.05570602416992	
35	176.9430010318756	movie	1		242	33.0	2.5	/experiments/knapen_AOT/AOT_stimuli/rescaled_final/1657_fw.mp4	0.0	218.47224521636963	2.500511884689331
35	178.12681198120117	pulse	1	t		33.0	2.5	/experiments/knapen_AOT/AOT_stimuli/rescaled_final/1657_fw.mp4	0.0	219.6560561656952	
35	179.44351291656494	fix_post	2		12	33.0	2.5	/experiments/knapen_AOT/AOT_stimuli/rescaled_final/1657_fw.mp4	0.0	220.97275710105896	0.09990406036376953
36	179.5434169769287	fix_pre	0		120	34.0	2.5	blank	1.0	221.07266116142273	1.0001709461212158
36	179.7270529270172	pulse	0	t		34.0	2.5	blank	1.0	221.25629711151123	
36	180.54358792304993	movie	1		300	34.0	2.5	blank	1.0	222.07283210754395	2.5003349781036377
36	181.32723593711853	pulse	1	t		34.0	2.5	blank	1.0	222.85648012161255	
36	182.92731404304504	pulse	1	t		34.0	2.5	blank	1.0	224.45655822753906	
36	183.04392290115356	fix_post	2		12	34.0	2.5	blank	1.0	224.57316708564758	0.09999895095825195
37	183.14392185211182	fix_pre	0		120	35.0	2.5	/experiments/knapen_AOT/AOT_stimuli/rescaled_final/1872_rv.mp4	0.0	224.67316603660583	1.0001850128173828
37	184.1441068649292	movie	1		241	35.0	2.5	/experiments/knapen_AOT/AOT_stimuli/rescaled_final/1872_rv.mp4	0.0	225.67335104942322	2.4921090602874756
37	184.5321090221405	pulse	1	t		35.0	2.5	/experiments/knapen_AOT/AOT_stimuli/rescaled_final/1872_rv.mp4	0.0	226.06135320663452	
37	186.12059092521667	pulse	1	t		35.0	2.5	/experiments/knapen_AOT/AOT_stimuli/rescaled_final/1872_rv.mp4	0.0	227.6498351097107	
37	186.63621592521667	fix_post	2		12	35.0	2.5	/experiments/knapen_AOT/AOT_stimuli/rescaled_final/1872_rv.mp4	0.0	228.1654601097107	0.09989094734191895
38	186.7361068725586	fix_pre	0		120	36.0	2.5	/experiments/knapen_AOT/AOT_stimuli/rescaled_final/0403_fw.mp4	0.0	228.2653510570526	1.0001499652862549
38	187.72068905830383	pulse	0	t		36.0	2.5	/experiments/knapen_AOT/AOT_stimuli/rescaled_final/0403_fw.mp4	0.0	229.24993324279785	
38	187.73625683784485	movie	1		243	36.0	2.5	/experiments/knapen_AOT/AOT_stimuli/rescaled_final/0403_fw.mp4	0.0	229.26550102233887	2.5087389945983887
38	189.32908296585083	pulse	1	t		36.0	2.5	/experiments/knapen_AOT/AOT_stimuli/rescaled_final/0403_fw.mp4	0.0	230.85832715034485	
38	190.24499583244324	fix_post	2		12	36.0	2.5	/experiments/knapen_AOT/AOT_stimuli/rescaled_final/0403_fw.mp4	0.0	231.77424001693726	0.09998822212219238
39	190.34498405456543	fix_pre	0		120	37.0	2.5	/experiments/knapen_AOT/AOT_stimuli/rescaled_final/1971_rv.mp4	0.0	231.87422823905945	1.0001609325408936
39	190.921217918396	pulse	0	t		37.0	2.5	/experiments/knapen_AOT/AOT_stimuli/rescaled_final/1971_rv.mp4	0.0	232.45046210289001	
39	191.34514498710632	movie	1		243	37.0	2.5	/experiments/knapen_AOT/AOT_stimuli/rescaled_final/1971_rv.mp4	0.0	232.87438917160034	2.500499963760376
39	192.5210030078888	pulse	1	t		37.0	2.5	/experiments/knapen_AOT/AOT_stimuli/rescaled_final/1971_rv.mp4	0.0	234.0502471923828	
39	193.8456449508667	fix_post	2		12	37.0	2.5	/experiments/knapen_AOT/AOT_stimuli/rescaled_final/1971_rv.mp4	0.0	235.37488913536072	0.09990096092224121
40	193.94554591178894	fix_pre	0		120	38.0	2.5	/experiments/knapen_AOT/AOT_stimuli/rescaled_final/1572_fw.mp4	0.0	235.47479009628296	1.00022292137146
40	194.12066292762756	pulse	0	t		38.0	2.5	/experiments/knapen_AOT/AOT_stimuli/rescaled_final/1572_fw.mp4	0.0	235.64990711212158	
40	194.9457688331604	movie	1		243	38.0	2.5	/experiments/knapen_AOT/AOT_stimuli/rescaled_final/1572_fw.mp4	0.0	236.47501301765442	2.500533103942871
40	195.7210259437561	pulse	1	t		38.0	2.5	/experiments/knapen_AOT/AOT_stimuli/rescaled_final/1572_fw.mp4	0.0	237.25027012825012	
40	197.32127785682678	pulse	1	t		38.0	2.5	/experiments/knapen_AOT/AOT_stimuli/rescaled_final/1572_fw.mp4	0.0	238.8505220413208	
40	197.44630193710327	fix_post	2		12	38.0	2.5	/experiments/knapen_AOT/AOT_stimuli/rescaled_final/1572_fw.mp4	0.0	238.9755461215973	0.09981608390808105
41	197.54611802101135	fix_pre	0		119	39.0	2.5	/experiments/knapen_AOT/AOT_stimuli/rescaled_final/1408_rv.mp4	0.0	239.07536220550537	0.9917309284210205
41	198.53784894943237	movie	1		242	39.0	2.5	/experiments/knapen_AOT/AOT_stimuli/rescaled_final/1408_rv.mp4	0.0	240.0670931339264	2.5005130767822266
41	198.92208886146545	pulse	1	t		39.0	2.5	/experiments/knapen_AOT/AOT_stimuli/rescaled_final/1408_rv.mp4	0.0	240.45133304595947	
41	200.52171993255615	pulse	1	t		39.0	2.5	/experiments/knapen_AOT/AOT_stimuli/rescaled_final/1408_rv.mp4	0.0	242.05096411705017	
41	201.0383620262146	fix_post	2		12	39.0	2.5	/experiments/knapen_AOT/AOT_stimuli/rescaled_final/1408_rv.mp4	0.0	242.56760621070862	0.09992098808288574
42	201.13828301429749	fix_pre	0		119	40.0	2.5	/experiments/knapen_AOT/AOT_stimuli/rescaled_final/0325_rv.mp4	0.0	242.6675271987915	0.9918019771575928
42	202.1219608783722	pulse	0	t		40.0	2.5	/experiments/knapen_AOT/AOT_stimuli/rescaled_final/0325_rv.mp4	0.0	243.6512050628662	
42	202.13008499145508	movie	1		243	40.0	2.5	/experiments/knapen_AOT/AOT_stimuli/rescaled_final/0325_rv.mp4	0.0	243.6593291759491	2.5087778568267822
42	203.72312903404236	pulse	1	t		40.0	2.5	/experiments/knapen_AOT/AOT_stimuli/rescaled_final/0325_rv.mp4	0.0	245.25237321853638	
42	204.63886284828186	fix_post	2		12	40.0	2.5	/experiments/knapen_AOT/AOT_stimuli/rescaled_final/0325_rv.mp4	0.0	246.16810703277588	0.09993219375610352
43	204.73879504203796	fix_pre	0		120	41.0	2.5	/experiments/knapen_AOT/AOT_stimuli/rescaled_final/1681_fw.mp4	0.0	246.26803922653198	1.0001649856567383
43	205.3223729133606	pulse	0	t		41.0	2.5	/experiments/knapen_AOT/AOT_stimuli/rescaled_final/1681_fw.mp4	0.0	246.85161709785461	
43	205.7389600276947	movie	1		242	41.0	2.5	/experiments/knapen_AOT/AOT_stimuli/rescaled_final/1681_fw.mp4	0.0	247.26820421218872	2.50050687789917
43	206.92276692390442	pulse	1	t		41.0	2.5	/experiments/knapen_AOT/AOT_stimuli/rescaled_final/1681_fw.mp4	0.0	248.45201110839844	
43	208.23946690559387	fix_post	2		12	41.0	2.5	/experiments/knapen_AOT/AOT_stimuli/rescaled_final/1681_fw.mp4	0.0	249.7687110900879	0.09990096092224121
44	208.3393678665161	fix_pre	0		120	42.0	2.5	blank	1.0	249.86861205101013	1.0001850128173828
44	208.52302885055542	pulse	0	t		42.0	2.5	blank	1.0	250.05227303504944	
44	209.3395528793335	movie	1		300	42.0	2.5	blank	1.0	250.86879706382751	2.5004031658172607
44	210.1231460571289	pulse	1	t		42.0	2.5	blank	1.0	251.65239024162292	
44	211.7233920097351	pulse	1	t		42.0	2.5	blank	1.0	253.25263619422913	
44	211.83995604515076	fix_post	2		12	42.0	2.5	blank	1.0	253.36920022964478	0.09993886947631836
45	211.93989491462708	fix_pre	0		120	43.0	2.5	/experiments/knapen_AOT/AOT_stimuli/rescaled_final/0773_fw.mp4	0.0	253.4691390991211	1.0001139640808105
45	212.94000887870789	movie	1		242	43.0	2.5	/experiments/knapen_AOT/AOT_stimuli/rescaled_final/0773_fw.mp4	0.0	254.4692530632019	2.4922571182250977
45	213.32426500320435	pulse	1	t		43.0	2.5	/experiments/knapen_AOT/AOT_stimuli/rescaled_final/0773_fw.mp4	0.0	254.85350918769836	
45	214.9238829612732	pulse	1	t		43.0	2.5	/experiments/knapen_AOT/AOT_stimuli/rescaled_final/0773_fw.mp4	0.0	256.4531271457672	
45	215.43226599693298	fix_post	2		12	43.0	2.5	/experiments/knapen_AOT/AOT_stimuli/rescaled_final/0773_fw.mp4	0.0	256.961510181427	0.0998079776763916
46	215.53207397460938	fix_pre	0		120	44.0	2.5	/experiments/knapen_AOT/AOT_stimuli/rescaled_final/2050_rv.mp4	0.0	257.0613181591034	1.000154972076416
46	216.5241448879242	pulse	0	t		44.0	2.5	/experiments/knapen_AOT/AOT_stimuli/rescaled_final/2050_rv.mp4	0.0	258.0533890724182	
46	216.5322289466858	movie	1		243	44.0	2.5	/experiments/knapen_AOT/AOT_stimuli/rescaled_final/2050_rv.mp4	0.0	258.0614731311798	2.5088279247283936
46	218.12501883506775	pulse	1	t		44.0	2.5	/experiments/knapen_AOT/AOT_stimuli/rescaled_final/2050_rv.mp4	0.0	259.65426301956177	
46	219.04105687141418	fix_post	2		12	44.0	2.5	/experiments/knapen_AOT/AOT_stimuli/rescaled_final/2050_rv.mp4	0.0	260.5703010559082	0.09989309310913086
47	219.14094996452332	fix_pre	0		120	45.0	2.5	/experiments/knapen_AOT/AOT_stimuli/rescaled_final/0570_fw.mp4	0.0	260.67019414901733	1.0001840591430664
47	219.72456884384155	pulse	0	t		45.0	2.5	/experiments/knapen_AOT/AOT_stimuli/rescaled_final/0570_fw.mp4	0.0	261.25381302833557	
47	220.14113402366638	movie	1		244	45.0	2.5	/experiments/knapen_AOT/AOT_stimuli/rescaled_final/0570_fw.mp4	0.0	261.6703782081604	2.5004420280456543
47	221.32486295700073	pulse	1	t		45.0	2.5	/experiments/knapen_AOT/AOT_stimuli/rescaled_final/0570_fw.mp4	0.0	262.85410714149475	
47	222.64157605171204	fix_post	2		12	45.0	2.5	/experiments/knapen_AOT/AOT_stimuli/rescaled_final/0570_fw.mp4	0.0	264.17082023620605	0.09997391700744629
48	222.74154996871948	fix_pre	0		120	46.0	2.5	/experiments/knapen_AOT/AOT_stimuli/rescaled_final/0230_fw.mp4	0.0	264.2707941532135	1.0001029968261719
48	222.92505383491516	pulse	0	t		46.0	2.5	/experiments/knapen_AOT/AOT_stimuli/rescaled_final/0230_fw.mp4	0.0	264.4542980194092	
48	223.74165296554565	movie	1		242	46.0	2.5	/experiments/knapen_AOT/AOT_stimuli/rescaled_final/0230_fw.mp4	0.0	265.2708971500397	2.500438928604126
48	224.5253870487213	pulse	1	t		46.0	2.5	/experiments/knapen_AOT/AOT_stimuli/rescaled_final/0230_fw.mp4	0.0	266.05463123321533	
48	226.12621998786926	pulse	1	t		46.0	2.5	/experiments/knapen_AOT/AOT_stimuli/rescaled_final/0230_fw.mp4	0.0	267.6554641723633	
48	226.24209189414978	fix_post	2		12	46.0	2.5	/experiments/knapen_AOT/AOT_stimuli/rescaled_final/0230_fw.mp4	0.0	267.7713360786438	0.09996294975280762
49	226.3420548439026	fix_pre	0		120	47.0	2.5	/experiments/knapen_AOT/AOT_stimuli/rescaled_final/0744_fw.mp4	0.0	267.8712990283966	1.0001120567321777
49	227.34216690063477	movie	1		236	47.0	2.5	/experiments/knapen_AOT/AOT_stimuli/rescaled_final/0744_fw.mp4	0.0	268.8714110851288	2.492126941680908
49	227.7263469696045	pulse	1	t		47.0	2.5	/experiments/knapen_AOT/AOT_stimuli/rescaled_final/0744_fw.mp4	0.0	269.2555911540985	
49	229.32602500915527	pulse	1	t		47.0	2.5	/experiments/knapen_AOT/AOT_stimuli/rescaled_final/0744_fw.mp4	0.0	270.8552691936493	
49	229.83429384231567	fix_post	2		12	47.0	2.5	/experiments/knapen_AOT/AOT_stimuli/rescaled_final/0744_fw.mp4	0.0	271.3635380268097	0.09991598129272461
50	229.9342098236084	fix_pre	0		120	48.0	2.5	/experiments/knapen_AOT/AOT_stimuli/rescaled_final/0331_rv.mp4	0.0	271.4634540081024	1.0001561641693115
50	230.92627596855164	pulse	0	t		48.0	2.5	/experiments/knapen_AOT/AOT_stimuli/rescaled_final/0331_rv.mp4	0.0	272.45552015304565	
50	230.9343659877777	movie	1		243	48.0	2.5	/experiments/knapen_AOT/AOT_stimuli/rescaled_final/0331_rv.mp4	0.0	272.46361017227173	2.5087718963623047
50	232.52699089050293	pulse	1	t		48.0	2.5	/experiments/knapen_AOT/AOT_stimuli/rescaled_final/0331_rv.mp4	0.0	274.05623507499695	
50	233.44313788414001	fix_post	2		12	48.0	2.5	/experiments/knapen_AOT/AOT_stimuli/rescaled_final/0331_rv.mp4	0.0	274.97238206863403	0.10000896453857422
51	233.5431468486786	fix_pre	0		120	49.0	2.5	blank	1.0	275.0723910331726	1.0000760555267334
51	234.12685084342957	pulse	0	t		49.0	2.5	blank	1.0	275.6560950279236	
51	234.54322290420532	movie	1		300	49.0	2.5	blank	1.0	276.07246708869934	2.5004420280456543
51	235.72702193260193	pulse	1	t		49.0	2.5	blank	1.0	277.25626611709595	
51	237.04366493225098	fix_post	2		12	49.0	2.5	blank	1.0	278.572909116745	0.09994792938232422
52	237.1436128616333	fix_pre	0		120	50.0	2.5	/experiments/knapen_AOT/AOT_stimuli/rescaled_final/2135_rv.mp4	0.0	278.6728570461273	1.0001640319824219
52	237.32722687721252	pulse	0	t		50.0	2.5	/experiments/knapen_AOT/AOT_stimuli/rescaled_final/2135_rv.mp4	0.0	278.85647106170654	
52	238.14377689361572	movie	1		244	50.0	2.5	/experiments/knapen_AOT/AOT_stimuli/rescaled_final/2135_rv.mp4	0.0	279.67302107810974	2.5003550052642822
52	238.92003083229065	pulse	1	t		50.0	2.5	/experiments/knapen_AOT/AOT_stimuli/rescaled_final/2135_rv.mp4	0.0	280.44927501678467	
52	240.5291349887848	pulse	1	t		50.0	2.5	/experiments/knapen_AOT/AOT_stimuli/rescaled_final/2135_rv.mp4	0.0	282.0583791732788	
52	240.64413189888	fix_post	2		12	50.0	2.5	/experiments/knapen_AOT/AOT_stimuli/rescaled_final/2135_rv.mp4	0.0	282.173376083374	0.10008406639099121
53	240.744215965271	fix_pre	0		120	51.0	2.5	/experiments/knapen_AOT/AOT_stimuli/rescaled_final/2156_fw.mp4	0.0	282.273460149765	1.0001249313354492
53	241.74434089660645	movie	1		243	51.0	2.5	/experiments/knapen_AOT/AOT_stimuli/rescaled_final/2156_fw.mp4	0.0	283.27358508110046	2.4920430183410645
53	242.12838888168335	pulse	1	t		51.0	2.5	/experiments/knapen_AOT/AOT_stimuli/rescaled_final/2156_fw.mp4	0.0	283.65763306617737	
53	243.72093105316162	pulse	1	t		51.0	2.5	/experiments/knapen_AOT/AOT_stimuli/rescaled_final/2156_fw.mp4	0.0	285.25017523765564	
53	244.2363839149475	fix_post	2		12	51.0	2.5	/experiments/knapen_AOT/AOT_stimuli/rescaled_final/2156_fw.mp4	0.0	285.7656280994415	0.1000070571899414
54	244.33639097213745	fix_pre	0		120	52.0	2.5	/experiments/knapen_AOT/AOT_stimuli/rescaled_final/1426_rv.mp4	0.0	285.86563515663147	1.0001590251922607
54	245.32099890708923	pulse	0	t		52.0	2.5	/experiments/knapen_AOT/AOT_stimuli/rescaled_final/1426_rv.mp4	0.0	286.85024309158325	
54	245.3365499973297	movie	1		247	52.0	2.5	/experiments/knapen_AOT/AOT_stimuli/rescaled_final/1426_rv.mp4	0.0	286.86579418182373	2.5087108612060547
54	246.9203610420227	pulse	1	t		52.0	2.5	/experiments/knapen_AOT/AOT_stimuli/rescaled_final/1426_rv.mp4	0.0	288.4496052265167	
54	247.84526085853577	fix_post	2		12	52.0	2.5	/experiments/knapen_AOT/AOT_stimuli/rescaled_final/1426_rv.mp4	0.0	289.3745050430298	0.09997797012329102
55	247.94523882865906	fix_pre	0		120	53.0	2.5	/experiments/knapen_AOT/AOT_stimuli/rescaled_final/2037_rv.mp4	0.0	289.4744830131531	1.0002222061157227
55	248.52047395706177	pulse	0	t		53.0	2.5	/experiments/knapen_AOT/AOT_stimuli/rescaled_final/2037_rv.mp4	0.0	290.0497181415558	
55	248.94546103477478	movie	1		243	53.0	2.5	/experiments/knapen_AOT/AOT_stimuli/rescaled_final/2037_rv.mp4	0.0	290.4747052192688	2.5003387928009033
55	250.12535500526428	pulse	1	t		53.0	2.5	/experiments/knapen_AOT/AOT_stimuli/rescaled_final/2037_rv.mp4	0.0	291.6545991897583	
55	251.44579982757568	fix_post	2		12	53.0	2.5	/experiments/knapen_AOT/AOT_stimuli/rescaled_final/2037_rv.mp4	0.0	292.9750440120697	0.09999704360961914
56	251.5457968711853	fix_pre	0		120	54.0	2.5	/experiments/knapen_AOT/AOT_stimuli/rescaled_final/0328_fw.mp4	0.0	293.0750410556793	1.0001599788665771
56	251.72113299369812	pulse	0	t		54.0	2.5	/experiments/knapen_AOT/AOT_stimuli/rescaled_final/0328_fw.mp4	0.0	293.25037717819214	
56	252.54595685005188	movie	1		243	54.0	2.5	/experiments/knapen_AOT/AOT_stimuli/rescaled_final/0328_fw.mp4	0.0	294.0752010345459	2.500392198562622
56	253.3212878704071	pulse	1	t		54.0	2.5	/experiments/knapen_AOT/AOT_stimuli/rescaled_final/0328_fw.mp4	0.0	294.8505320549011	
56	254.92151284217834	pulse	1	t		54.0	2.5	/experiments/knapen_AOT/AOT_stimuli/rescaled_final/0328_fw.mp4	0.0	296.45075702667236	
56	255.0463490486145	fix_post	2		12	54.0	2.5	/experiments/knapen_AOT/AOT_stimuli/rescaled_final/0328_fw.mp4	0.0	296.5755932331085	0.10003900527954102
57	255.14638805389404	fix_pre	0		120	55.0	2.5	/experiments/knapen_AOT/AOT_stimuli/rescaled_final/0341_fw.mp4	0.0	296.67563223838806	1.000121831893921
57	256.14650988578796	movie	1		243	55.0	2.5	/experiments/knapen_AOT/AOT_stimuli/rescaled_final/0341_fw.mp4	0.0	297.675754070282	2.4919841289520264
57	256.5216829776764	pulse	1	t		55.0	2.5	/experiments/knapen_AOT/AOT_stimuli/rescaled_final/0341_fw.mp4	0.0	298.0509271621704	
57	258.12203192710876	pulse	1	t		55.0	2.5	/experiments/knapen_AOT/AOT_stimuli/rescaled_final/0341_fw.mp4	0.0	299.6512761116028	
57	258.63849401474	fix_post	2		12	55.0	2.5	/experiments/knapen_AOT/AOT_stimuli/rescaled_final/0341_fw.mp4	0.0	300.167738199234	0.10005688667297363
58	258.73855090141296	fix_pre	0		119	56.0	2.5	blank	1.0	300.267795085907	0.9917950630187988
58	259.7222719192505	pulse	0	t		56.0	2.5	blank	1.0	301.2515161037445	
58	259.73034596443176	movie	1		301	56.0	2.5	blank	1.0	301.2595901489258	2.508718967437744
58	261.32240986824036	pulse	1	t		56.0	2.5	blank	1.0	302.8516540527344	
58	262.2390649318695	fix_post	2		12	56.0	2.5	blank	1.0	303.7683091163635	0.10002398490905762
59	262.33908891677856	fix_pre	0		120	57.0	2.5	/experiments/knapen_AOT/AOT_stimuli/rescaled_final/2110_rv.mp4	0.0	303.8683331012726	1.0001239776611328
59	262.92275190353394	pulse	0	t		57.0	2.5	/experiments/knapen_AOT/AOT_stimuli/rescaled_final/2110_rv.mp4	0.0	304.45199608802795	
59	263.3392128944397	movie	1		244	57.0	2.5	/experiments/knapen_AOT/AOT_stimuli/rescaled_final/2110_rv.mp4	0.0	304.8684570789337	2.5004119873046875
59	264.5229549407959	pulse	1	t		57.0	2.5	/experiments/knapen_AOT/AOT_stimuli/rescaled_final/2110_rv.mp4	0.0	306.0521991252899	
59	265.8396248817444	fix_post	2		12	57.0	2.5	/experiments/knapen_AOT/AOT_stimuli/rescaled_final/2110_rv.mp4	0.0	307.3688690662384	0.10000395774841309
60	265.9396288394928	fix_pre	0		120	58.0	2.5	/experiments/knapen_AOT/AOT_stimuli/rescaled_final/1440_fw.mp4	0.0	307.4688730239868	1.000157117843628
60	266.1231288909912	pulse	0	t		58.0	2.5	/experiments/knapen_AOT/AOT_stimuli/rescaled_final/1440_fw.mp4	0.0	307.65237307548523	
60	266.9397859573364	movie	1		243	58.0	2.5	/experiments/knapen_AOT/AOT_stimuli/rescaled_final/1440_fw.mp4	0.0	308.46903014183044	2.5003268718719482
60	267.72335290908813	pulse	1	t		58.0	2.5	/experiments/knapen_AOT/AOT_stimuli/rescaled_final/1440_fw.mp4	0.0	309.25259709358215	
60	269.32366585731506	pulse	1	t		58.0	2.5	/experiments/knapen_AOT/AOT_stimuli/rescaled_final/1440_fw.mp4	0.0	310.8529100418091	
60	269.4401128292084	fix_post	2		12	58.0	2.5	/experiments/knapen_AOT/AOT_stimuli/rescaled_final/1440_fw.mp4	0.0	310.9693570137024	0.1000070571899414
61	269.5401198863983	fix_pre	0		120	59.0	2.5	/experiments/knapen_AOT/AOT_stimuli/rescaled_final/2050_rv.mp4	0.0	311.06936407089233	1.0001540184020996
61	270.5402739048004	movie	1		241	59.0	2.5	/experiments/knapen_AOT/AOT_stimuli/rescaled_final/2050_rv.mp4	0.0	312.06951808929443	2.4920549392700195
61	270.9283859729767	pulse	1	t		59.0	2.5	/experiments/knapen_AOT/AOT_stimuli/rescaled_final/2050_rv.mp4	0.0	312.4576301574707	
61	272.52422189712524	pulse	1	t		59.0	2.5	/experiments/knapen_AOT/AOT_stimuli/rescaled_final/2050_rv.mp4	0.0	314.05346608161926	
61	273.03232884407043	fix_post	2		12	59.0	2.5	/experiments/knapen_AOT/AOT_stimuli/rescaled_final/2050_rv.mp4	0.0	314.56157302856445	0.10002398490905762
62	273.1323528289795	fix_pre	0		120	60.0	2.5	/experiments/knapen_AOT/AOT_stimuli/rescaled_final/0718_rv.mp4	0.0	314.6615970134735	1.000150203704834
62	274.1242868900299	pulse	0	t		60.0	2.5	/experiments/knapen_AOT/AOT_stimuli/rescaled_final/0718_rv.mp4	0.0	315.6535310745239	
62	274.1325030326843	movie	1		244	60.0	2.5	/experiments/knapen_AOT/AOT_stimuli/rescaled_final/0718_rv.mp4	0.0	315.66174721717834	2.508786916732788
62	275.72510504722595	pulse	1	t		60.0	2.5	/experiments/knapen_AOT/AOT_stimuli/rescaled_final/0718_rv.mp4	0.0	317.25434923171997	
62	276.6412899494171	fix_post	2		12	60.0	2.5	/experiments/knapen_AOT/AOT_stimuli/rescaled_final/0718_rv.mp4	0.0	318.17053413391113	0.09990096092224121
63	276.74119091033936	fix_pre	0		120	61.0	2.5	blank	1.0	318.2704350948334	1.0001540184020996
63	277.3249478340149	pulse	0	t		61.0	2.5	blank	1.0	318.8541920185089	
63	277.74134492874146	movie	1		300	61.0	2.5	blank	1.0	319.2705891132355	2.5004570484161377
63	278.9251070022583	pulse	1	t		61.0	2.5	blank	1.0	320.4543511867523	
63	280.2418019771576	fix_post	2		12	61.0	2.5	blank	1.0	321.7710461616516	0.0999898910522461
64	280.34179186820984	fix_pre	0		120	62.0	2.5	/experiments/knapen_AOT/AOT_stimuli/rescaled_final/0899_rv.mp4	0.0	321.87103605270386	1.0001120567321777
64	280.52523589134216	pulse	0	t		62.0	2.5	/experiments/knapen_AOT/AOT_stimuli/rescaled_final/0899_rv.mp4	0.0	322.0544800758362	
64	281.341903924942	movie	1		242	62.0	2.5	/experiments/knapen_AOT/AOT_stimuli/rescaled_final/0899_rv.mp4	0.0	322.87114810943604	2.5004830360412598
64	282.12556195259094	pulse	1	t		62.0	2.5	/experiments/knapen_AOT/AOT_stimuli/rescaled_final/0899_rv.mp4	0.0	323.65480613708496	
64	283.72571992874146	pulse	1	t		62.0	2.5	/experiments/knapen_AOT/AOT_stimuli/rescaled_final/0899_rv.mp4	0.0	325.2549641132355	
64	283.8423869609833	fix_post	2		12	62.0	2.5	/experiments/knapen_AOT/AOT_stimuli/rescaled_final/0899_rv.mp4	0.0	325.3716311454773	0.09988594055175781
65	283.94227290153503	fix_pre	0		120	63.0	2.5	/experiments/knapen_AOT/AOT_stimuli/rescaled_final/1574_fw.mp4	0.0	325.47151708602905	1.000157117843628
65	284.94243001937866	movie	1		242	63.0	2.5	/experiments/knapen_AOT/AOT_stimuli/rescaled_final/1574_fw.mp4	0.0	326.4716742038727	2.492197036743164
65	285.3304920196533	pulse	1	t		63.0	2.5	/experiments/knapen_AOT/AOT_stimuli/rescaled_final/1574_fw.mp4	0.0	326.85973620414734	
65	286.92631101608276	pulse	1	t		63.0	2.5	/experiments/knapen_AOT/AOT_stimuli/rescaled_final/1574_fw.mp4	0.0	328.4555552005768	
65	287.4346270561218	fix_post	2		12	63.0	2.5	/experiments/knapen_AOT/AOT_stimuli/rescaled_final/1574_fw.mp4	0.0	328.96387124061584	0.09988689422607422
66	287.5345139503479	fix_pre	0		120	64.0	2.5	/experiments/knapen_AOT/AOT_stimuli/rescaled_final/1520_fw.mp4	0.0	329.0637581348419	1.000166893005371
66	288.5264389514923	pulse	0	t		64.0	2.5	/experiments/knapen_AOT/AOT_stimuli/rescaled_final/1520_fw.mp4	0.0	330.0556831359863	
66	288.53468084335327	movie	1		244	64.0	2.5	/experiments/knapen_AOT/AOT_stimuli/rescaled_final/1520_fw.mp4	0.0	330.0639250278473	2.5087430477142334
66	290.13138604164124	pulse	1	t		64.0	2.5	/experiments/knapen_AOT/AOT_stimuli/rescaled_final/1520_fw.mp4	0.0	331.66063022613525	
66	291.0434238910675	fix_post	2		12	64.0	2.5	/experiments/knapen_AOT/AOT_stimuli/rescaled_final/1520_fw.mp4	0.0	332.5726680755615	0.09994816780090332
67	291.1433720588684	fix_pre	0		120	65.0	2.5	/experiments/knapen_AOT/AOT_stimuli/rescaled_final/1963_fw.mp4	0.0	332.6726162433624	1.0001888275146484
67	291.72701597213745	pulse	0	t		65.0	2.5	/experiments/knapen_AOT/AOT_stimuli/rescaled_final/1963_fw.mp4	0.0	333.25626015663147	
67	292.14356088638306	movie	1		243	65.0	2.5	/experiments/knapen_AOT/AOT_stimuli/rescaled_final/1963_fw.mp4	0.0	333.6728050708771	2.5003340244293213
67	293.32730293273926	pulse	1	t		65.0	2.5	/experiments/knapen_AOT/AOT_stimuli/rescaled_final/1963_fw.mp4	0.0	334.8565471172333	
67	294.6438949108124	fix_post	2		8	65.0	2.5	/experiments/knapen_AOT/AOT_stimuli/rescaled_final/1963_fw.mp4	0.0	336.1731390953064	0.10005497932434082
68	294.7439498901367	fix_pre	0		120	66.0	2.5	/experiments/knapen_AOT/AOT_stimuli/rescaled_final/0487_rv.mp4	0.0	336.27319407463074	1.0000970363616943
68	294.9274070262909	pulse	0	t		66.0	2.5	/experiments/knapen_AOT/AOT_stimuli/rescaled_final/0487_rv.mp4	0.0	336.4566512107849	
68	295.7440469264984	movie	1		244	66.0	2.5	/experiments/knapen_AOT/AOT_stimuli/rescaled_final/0487_rv.mp4	0.0	337.27329111099243	2.500420093536377
68	296.527734041214	pulse	1	t		66.0	2.5	/experiments/knapen_AOT/AOT_stimuli/rescaled_final/0487_rv.mp4	0.0	338.056978225708	
68	298.12565183639526	pulse	1	t		66.0	2.5	/experiments/knapen_AOT/AOT_stimuli/rescaled_final/0487_rv.mp4	0.0	339.6548960208893	
68	298.2444670200348	fix_post	2		12	66.0	2.5	/experiments/knapen_AOT/AOT_stimuli/rescaled_final/0487_rv.mp4	0.0	339.7737112045288	0.10004091262817383
69	298.34450793266296	fix_pre	0		120	67.0	2.5	/experiments/knapen_AOT/AOT_stimuli/rescaled_final/1132_rv.mp4	0.0	339.873752117157	1.0000591278076172
69	299.3445670604706	movie	1		243	67.0	2.5	/experiments/knapen_AOT/AOT_stimuli/rescaled_final/1132_rv.mp4	0.0	340.8738112449646	2.4920458793640137
69	299.72886204719543	pulse	1	t		67.0	2.5	/experiments/knapen_AOT/AOT_stimuli/rescaled_final/1132_rv.mp4	0.0	341.25810623168945	
69	301.3210699558258	pulse	1	t		67.0	2.5	/experiments/knapen_AOT/AOT_stimuli/rescaled_final/1132_rv.mp4	0.0	342.8503141403198	
69	301.8366129398346	fix_post	2		12	67.0	2.5	/experiments/knapen_AOT/AOT_stimuli/rescaled_final/1132_rv.mp4	0.0	343.3658571243286	0.10001301765441895
70	301.936625957489	fix_pre	0		120	68.0	2.5	/experiments/knapen_AOT/AOT_stimuli/rescaled_final/0070_rv.mp4	0.0	343.46587014198303	1.000154972076416
70	302.9211308956146	pulse	0	t		68.0	2.5	/experiments/knapen_AOT/AOT_stimuli/rescaled_final/0070_rv.mp4	0.0	344.45037508010864	
70	302.93678092956543	movie	1		245	68.0	2.5	/experiments/knapen_AOT/AOT_stimuli/rescaled_final/0070_rv.mp4	0.0	344.46602511405945	2.508683919906616
70	304.5205159187317	pulse	1	t		68.0	2.5	/experiments/knapen_AOT/AOT_stimuli/rescaled_final/0070_rv.mp4	0.0	346.0497601032257	
70	305.44546484947205	fix_post	2		12	68.0	2.5	/experiments/knapen_AOT/AOT_stimuli/rescaled_final/0070_rv.mp4	0.0	346.97470903396606	0.09999299049377441
71	305.5454578399658	fix_pre	0		120	69.0	2.5	/experiments/knapen_AOT/AOT_stimuli/rescaled_final/0611_rv.mp4	0.0	347.07470202445984	1.000195026397705
71	306.1217269897461	pulse	0	t		69.0	2.5	/experiments/knapen_AOT/AOT_stimuli/rescaled_final/0611_rv.mp4	0.0	347.6509711742401	
71	306.5456528663635	movie	1		243	69.0	2.5	/experiments/knapen_AOT/AOT_stimuli/rescaled_final/0611_rv.mp4	0.0	348.07489705085754	2.500432014465332
71	307.72192001342773	pulse	1	t		69.0	2.5	/experiments/knapen_AOT/AOT_stimuli/rescaled_final/0611_rv.mp4	0.0	349.25116419792175	
71	309.04608488082886	fix_post	2		12	69.0	2.5	/experiments/knapen_AOT/AOT_stimuli/rescaled_final/0611_rv.mp4	0.0	350.5753290653229	0.10000014305114746
72	309.14608502388	fix_pre	0		120	70.0	2.5	blank	1.0	350.675329208374	1.0001208782196045
72	309.32124495506287	pulse	0	t		70.0	2.5	blank	1.0	350.8504891395569	
72	310.1462059020996	movie	1		300	70.0	2.5	blank	1.0	351.6754500865936	2.500383138656616
72	310.9214940071106	pulse	1	t		70.0	2.5	blank	1.0	352.4507381916046	
72	312.5218298435211	pulse	1	t		70.0	2.5	blank	1.0	354.05107402801514	
72	312.6465890407562	fix_post	2		12	70.0	2.5	blank	1.0	354.17583322525024	0.10000300407409668
73	312.7465920448303	fix_pre	0		120	71.0	2.5	/experiments/knapen_AOT/AOT_stimuli/rescaled_final/1003_rv.mp4	0.0	354.27583622932434	1.0001227855682373
73	313.74671483039856	movie	1		242	71.0	2.5	/experiments/knapen_AOT/AOT_stimuli/rescaled_final/1003_rv.mp4	0.0	355.2759590148926	2.492227077484131
73	314.12195205688477	pulse	1	t		71.0	2.5	/experiments/knapen_AOT/AOT_stimuli/rescaled_final/1003_rv.mp4	0.0	355.6511962413788	
73	315.7222578525543	pulse	1	t		71.0	2.5	/experiments/knapen_AOT/AOT_stimuli/rescaled_final/1003_rv.mp4	0.0	357.25150203704834	
73	316.2389419078827	fix_post	2		12	71.0	2.5	/experiments/knapen_AOT/AOT_stimuli/rescaled_final/1003_rv.mp4	0.0	357.7681860923767	0.09990501403808594
74	316.3388469219208	fix_pre	0		119	72.0	2.5	/experiments/knapen_AOT/AOT_stimuli/rescaled_final/2015_rv.mp4	0.0	357.8680911064148	0.9917941093444824
74	317.32240891456604	pulse	0	t		72.0	2.5	/experiments/knapen_AOT/AOT_stimuli/rescaled_final/2015_rv.mp4	0.0	358.85165309906006	
74	317.33064103126526	movie	1		243	72.0	2.5	/experiments/knapen_AOT/AOT_stimuli/rescaled_final/2015_rv.mp4	0.0	358.8598852157593	2.508725881576538
74	318.9232668876648	pulse	1	t		72.0	2.5	/experiments/knapen_AOT/AOT_stimuli/rescaled_final/2015_rv.mp4	0.0	360.4525110721588	
74	319.8393669128418	fix_post	2		12	72.0	2.5	/experiments/knapen_AOT/AOT_stimuli/rescaled_final/2015_rv.mp4	0.0	361.3686110973358	0.09994792938232422
75	319.9393148422241	fix_pre	0		120	73.0	2.5	/experiments/knapen_AOT/AOT_stimuli/rescaled_final/0368_fw.mp4	0.0	361.46855902671814	1.000209093093872
75	320.52299189567566	pulse	0	t		73.0	2.5	/experiments/knapen_AOT/AOT_stimuli/rescaled_final/0368_fw.mp4	0.0	362.0522360801697	
75	320.939523935318	movie	1		243	73.0	2.5	/experiments/knapen_AOT/AOT_stimuli/rescaled_final/0368_fw.mp4	0.0	362.468768119812	2.500304937362671
75	322.12325501441956	pulse	1	t		73.0	2.5	/experiments/knapen_AOT/AOT_stimuli/rescaled_final/0368_fw.mp4	0.0	363.6524991989136	
75	323.43982887268066	fix_post	2		12	73.0	2.5	/experiments/knapen_AOT/AOT_stimuli/rescaled_final/0368_fw.mp4	0.0	364.9690730571747	0.10003495216369629
76	323.53986382484436	fix_pre	0		120	74.0	2.5	/experiments/knapen_AOT/AOT_stimuli/rescaled_final/1367_rv.mp4	0.0	365.0691080093384	1.0001780986785889
76	323.723356962204	pulse	0	t		74.0	2.5	/experiments/knapen_AOT/AOT_stimuli/rescaled_final/1367_rv.mp4	0.0	365.252601146698	
76	324.54004192352295	movie	1		242	74.0	2.5	/experiments/knapen_AOT/AOT_stimuli/rescaled_final/1367_rv.mp4	0.0	366.06928610801697	2.5004589557647705
76	325.3237428665161	pulse	1	t		74.0	2.5	/experiments/knapen_AOT/AOT_stimuli/rescaled_final/1367_rv.mp4	0.0	366.85298705101013	
76	326.9238488674164	pulse	1	t		74.0	2.5	/experiments/knapen_AOT/AOT_stimuli/rescaled_final/1367_rv.mp4	0.0	368.4530930519104	
76	327.0405008792877	fix_post	2		12	74.0	2.5	/experiments/knapen_AOT/AOT_stimuli/rescaled_final/1367_rv.mp4	0.0	368.56974506378174	0.0998680591583252
77	327.14036893844604	fix_pre	0		120	75.0	2.5	/experiments/knapen_AOT/AOT_stimuli/rescaled_final/0696_rv.mp4	0.0	368.66961312294006	1.0001790523529053
77	328.14054799079895	movie	1		241	75.0	2.5	/experiments/knapen_AOT/AOT_stimuli/rescaled_final/0696_rv.mp4	0.0	369.66979217529297	2.4921019077301025
77	328.5248489379883	pulse	1	t		75.0	2.5	/experiments/knapen_AOT/AOT_stimuli/rescaled_final/0696_rv.mp4	0.0	370.0540931224823	
77	330.1244099140167	pulse	1	t		75.0	2.5	/experiments/knapen_AOT/AOT_stimuli/rescaled_final/0696_rv.mp4	0.0	371.65365409851074	
77	330.63264989852905	fix_post	2		12	75.0	2.5	/experiments/knapen_AOT/AOT_stimuli/rescaled_final/0696_rv.mp4	0.0	372.16189408302307	0.09997916221618652
78	330.73262906074524	fix_pre	0		120	76.0	2.5	blank	1.0	372.26187324523926	1.0001277923583984
78	331.72467589378357	pulse	0	t		76.0	2.5	blank	1.0	373.2539200782776	
78	331.73275685310364	movie	1		301	76.0	2.5	blank	1.0	373.26200103759766	2.508742094039917
78	333.3249468803406	pulse	1	t		76.0	2.5	blank	1.0	374.8541910648346	
78	334.24149894714355	fix_post	2		12	76.0	2.5	blank	1.0	375.7707431316376	0.09998488426208496
79	334.34148383140564	fix_pre	0		120	77.0	2.5	/experiments/knapen_AOT/AOT_stimuli/rescaled_final/1935_rv.mp4	0.0	375.87072801589966	1.0001451969146729
79	334.92513489723206	pulse	0	t		77.0	2.5	/experiments/knapen_AOT/AOT_stimuli/rescaled_final/1935_rv.mp4	0.0	376.4543790817261	
79	335.3416290283203	movie	1		243	77.0	2.5	/experiments/knapen_AOT/AOT_stimuli/rescaled_final/1935_rv.mp4	0.0	376.87087321281433	2.500560998916626
79	336.52537989616394	pulse	1	t		77.0	2.5	/experiments/knapen_AOT/AOT_stimuli/rescaled_final/1935_rv.mp4	0.0	378.05462408065796	
79	337.84219002723694	fix_post	2		12	77.0	2.5	/experiments/knapen_AOT/AOT_stimuli/rescaled_final/1935_rv.mp4	0.0	379.37143421173096	0.09984588623046875
80	337.9420359134674	fix_pre	0		120	78.0	2.5	/experiments/knapen_AOT/AOT_stimuli/rescaled_final/1661_rv.mp4	0.0	379.4712800979614	1.0001349449157715
80	338.12554597854614	pulse	0	t		78.0	2.5	/experiments/knapen_AOT/AOT_stimuli/rescaled_final/1661_rv.mp4	0.0	379.65479016304016	
80	338.9421708583832	movie	1		243	78.0	2.5	/experiments/knapen_AOT/AOT_stimuli/rescaled_final/1661_rv.mp4	0.0	380.4714150428772	2.5003480911254883
80	339.72592306137085	pulse	1	t		78.0	2.5	/experiments/knapen_AOT/AOT_stimuli/rescaled_final/1661_rv.mp4	0.0	381.25516724586487	
80	341.32578802108765	pulse	1	t		78.0	2.5	/experiments/knapen_AOT/AOT_stimuli/rescaled_final/1661_rv.mp4	0.0	382.85503220558167	
80	341.44251894950867	fix_post	2		12	78.0	2.5	/experiments/knapen_AOT/AOT_stimuli/rescaled_final/1661_rv.mp4	0.0	382.9717631340027	0.1000669002532959
81	341.54258584976196	fix_pre	0		120	79.0	2.5	/experiments/knapen_AOT/AOT_stimuli/rescaled_final/1596_fw.mp4	0.0	383.071830034256	1.0000860691070557
81	342.542671918869	movie	1		242	79.0	2.5	/experiments/knapen_AOT/AOT_stimuli/rescaled_final/1596_fw.mp4	0.0	384.07191610336304	2.4923081398010254
81	342.92694902420044	pulse	1	t		79.0	2.5	/experiments/knapen_AOT/AOT_stimuli/rescaled_final/1596_fw.mp4	0.0	384.45619320869446	
81	344.52649998664856	pulse	1	t		79.0	2.5	/experiments/knapen_AOT/AOT_stimuli/rescaled_final/1596_fw.mp4	0.0	386.0557441711426	
81	345.03498005867004	fix_post	2		12	79.0	2.5	/experiments/knapen_AOT/AOT_stimuli/rescaled_final/1596_fw.mp4	0.0	386.56422424316406	0.09978389739990234
82	345.13476395606995	fix_pre	0		120	80.0	2.5	/experiments/knapen_AOT/AOT_stimuli/rescaled_final/0954_rv.mp4	0.0	386.66400814056396	1.000140905380249
82	346.1268210411072	pulse	0	t		80.0	2.5	/experiments/knapen_AOT/AOT_stimuli/rescaled_final/0954_rv.mp4	0.0	387.6560652256012	
82	346.1349048614502	movie	1		245	80.0	2.5	/experiments/knapen_AOT/AOT_stimuli/rescaled_final/0954_rv.mp4	0.0	387.6641490459442	2.5087151527404785
82	347.7275369167328	pulse	1	t		80.0	2.5	/experiments/knapen_AOT/AOT_stimuli/rescaled_final/0954_rv.mp4	0.0	389.2567811012268	
82	348.6436200141907	fix_post	2		12	80.0	2.5	/experiments/knapen_AOT/AOT_stimuli/rescaled_final/0954_rv.mp4	0.0	390.1728641986847	0.10004281997680664
83	348.7436628341675	fix_pre	0		120	81.0	2.5	/experiments/knapen_AOT/AOT_stimuli/rescaled_final/0409_fw.mp4	0.0	390.2729070186615	1.0001170635223389
83	349.3272819519043	pulse	0	t		81.0	2.5	/experiments/knapen_AOT/AOT_stimuli/rescaled_final/0409_fw.mp4	0.0	390.8565261363983	
83	349.7437798976898	movie	1		243	81.0	2.5	/experiments/knapen_AOT/AOT_stimuli/rescaled_final/0409_fw.mp4	0.0	391.27302408218384	2.500498056411743
83	350.9275379180908	pulse	1	t		81.0	2.5	/experiments/knapen_AOT/AOT_stimuli/rescaled_final/0409_fw.mp4	0.0	392.45678210258484	
83	352.24427795410156	fix_post	2		12	81.0	2.5	/experiments/knapen_AOT/AOT_stimuli/rescaled_final/0409_fw.mp4	0.0	393.7735221385956	0.09988999366760254
84	352.34416794776917	fix_pre	0		120	82.0	2.5	/experiments/knapen_AOT/AOT_stimuli/rescaled_final/1858_rv.mp4	0.0	393.8734121322632	1.000135898590088
84	352.5277090072632	pulse	0	t		82.0	2.5	/experiments/knapen_AOT/AOT_stimuli/rescaled_final/1858_rv.mp4	0.0	394.0569531917572	
84	353.34430384635925	movie	1		242	82.0	2.5	/experiments/knapen_AOT/AOT_stimuli/rescaled_final/1858_rv.mp4	0.0	394.87354803085327	2.5005290508270264
84	354.1204948425293	pulse	1	t		82.0	2.5	/experiments/knapen_AOT/AOT_stimuli/rescaled_final/1858_rv.mp4	0.0	395.6497390270233	
84	355.72818398475647	pulse	1	t		82.0	2.5	/experiments/knapen_AOT/AOT_stimuli/rescaled_final/1858_rv.mp4	0.0	397.2574281692505	
84	355.8448328971863	fix_post	2		12	82.0	2.5	/experiments/knapen_AOT/AOT_stimuli/rescaled_final/1858_rv.mp4	0.0	397.3740770816803	0.09987998008728027
85	355.94471287727356	fix_pre	0		120	83.0	2.5	blank	1.0	397.4739570617676	1.0001320838928223
85	356.9448449611664	movie	1		299	83.0	2.5	blank	1.0	398.4740891456604	2.492111921310425
85	357.32096004486084	pulse	1	t		83.0	2.5	blank	1.0	398.85020422935486	
85	358.921110868454	pulse	1	t		83.0	2.5	blank	1.0	400.450355052948	
85	359.4369568824768	fix_post	2		12	83.0	2.5	blank	1.0	400.9662010669708	0.09993815422058105
87	359.5368950366974	stim	0		1716					401.0661392211914	14.302212953567505
87	360.5207178592682	pulse	0	t						402.0499620437622	
87	362.12082290649414	pulse	0	t						403.65006709098816	
87	363.7210078239441	pulse	0	t						405.2502520084381	
87	365.3212900161743	pulse	0	t						406.85053420066833	
87	366.92144083976746	pulse	0	t						408.4506850242615	
87	368.5217878818512	pulse	0	t						410.0510320663452	
87	370.1219308376312	pulse	0	t						411.65117502212524	
87	371.72226190567017	pulse	0	t						413.2515060901642	
87	373.32241106033325	pulse	0	t						414.85165524482727	
