trial_nr	onset	event_type	phase	response	nr_frames	movie_index	movie_duration	movie_file	blank	onset_abs	duration
0	0.15812087059020996	stim	0		9					17.235793828964233	0.07496976852416992
0	0.22501277923583984	response	0	space						17.302685737609863	
1	0.23309063911437988	stim	0		4686					17.310763597488403	39.05753469467163
1	39.28112077713013	pulse	0	t						56.35879373550415	
1	39.29062533378601	stim	1		1714					56.368298292160034	14.300560474395752
1	40.88126587867737	pulse	1	t						57.95893883705139	
1	42.48137307167053	pulse	1	t						59.559046030044556	
1	44.08160877227783	pulse	1	t						61.159281730651855	
1	45.68179106712341	pulse	1	t						62.75946402549744	
1	47.28206181526184	pulse	1	t						64.35973477363586	
1	48.8824348449707	pulse	1	t						65.96010780334473	
1	50.48268246650696	pulse	1	t						67.56035542488098	
1	52.082879304885864	pulse	1	t						69.16055226325989	
2	53.59118580818176	fix_pre	0		12	0.0	2.5	/experiments/Knapen_AOT/AOT_stimuli/rescaled_final/0196_rv.mp4	0.0	70.66885876655579	0.12514400482177734
2	53.683008909225464	pulse	0	t		0.0	2.5	/experiments/Knapen_AOT/AOT_stimuli/rescaled_final/0196_rv.mp4	0.0	70.76068186759949	
2	53.71632981300354	movie	1		288	0.0	2.5	/experiments/Knapen_AOT/AOT_stimuli/rescaled_final/0196_rv.mp4	0.0	70.79400277137756	2.483549118041992
2	55.28159713745117	pulse	1	t		0.0	2.5	/experiments/Knapen_AOT/AOT_stimuli/rescaled_final/0196_rv.mp4	0.0	72.3592700958252	
2	56.19987893104553	fix_post	2		12	0.0	2.5	/experiments/Knapen_AOT/AOT_stimuli/rescaled_final/0196_rv.mp4	0.0	73.27755188941956	0.10009169578552246
3	56.299970626831055	fix_pre	0		120	1.0	2.5	/experiments/Knapen_AOT/AOT_stimuli/rescaled_final/0474_fw.mp4	0.0	73.37764358520508	1.0084195137023926
3	56.88349938392639	pulse	0	t		1.0	2.5	/experiments/Knapen_AOT/AOT_stimuli/rescaled_final/0474_fw.mp4	0.0	73.96117234230042	
3	57.30839014053345	movie	1		282	1.0	2.5	/experiments/Knapen_AOT/AOT_stimuli/rescaled_final/0474_fw.mp4	0.0	74.38606309890747	2.4920222759246826
3	58.48199653625488	pulse	1	t		1.0	2.5	/experiments/Knapen_AOT/AOT_stimuli/rescaled_final/0474_fw.mp4	0.0	75.5596694946289	
3	59.80041241645813	fix_post	2		12	1.0	2.5	/experiments/Knapen_AOT/AOT_stimuli/rescaled_final/0474_fw.mp4	0.0	76.87808537483215	0.1000213623046875
4	59.90043377876282	fix_pre	0		120	2.0	2.5	/experiments/Knapen_AOT/AOT_stimuli/rescaled_final/2087_fw.mp4	0.0	76.97810673713684	1.0085299015045166
4	60.08416438102722	pulse	0	t		2.0	2.5	/experiments/Knapen_AOT/AOT_stimuli/rescaled_final/2087_fw.mp4	0.0	77.16183733940125	
4	60.908963680267334	movie	1		275	2.0	2.5	/experiments/Knapen_AOT/AOT_stimuli/rescaled_final/2087_fw.mp4	0.0	77.98663663864136	2.49198579788208
4	61.682213306427	pulse	1	t		2.0	2.5	/experiments/Knapen_AOT/AOT_stimuli/rescaled_final/2087_fw.mp4	0.0	78.75988626480103	
4	63.282339572906494	pulse	1	t		2.0	2.5	/experiments/Knapen_AOT/AOT_stimuli/rescaled_final/2087_fw.mp4	0.0	80.36001253128052	
4	63.400949478149414	fix_post	2		12	2.0	2.5	/experiments/Knapen_AOT/AOT_stimuli/rescaled_final/2087_fw.mp4	0.0	80.47862243652344	0.10012602806091309
5	63.50107550621033	fix_pre	0		120	3.0	2.5	/experiments/Knapen_AOT/AOT_stimuli/rescaled_final/0933_fw.mp4	0.0	80.57874846458435	1.0083789825439453
5	64.50945448875427	movie	1		287	3.0	2.5	/experiments/Knapen_AOT/AOT_stimuli/rescaled_final/0933_fw.mp4	0.0	81.5871274471283	2.492036819458008
5	64.88309955596924	pulse	1	t		3.0	2.5	/experiments/Knapen_AOT/AOT_stimuli/rescaled_final/0933_fw.mp4	0.0	81.96077251434326	
5	66.48289203643799	pulse	1	t		3.0	2.5	/experiments/Knapen_AOT/AOT_stimuli/rescaled_final/0933_fw.mp4	0.0	83.56056499481201	
5	67.00149130821228	fix_post	2		12	3.0	2.5	/experiments/Knapen_AOT/AOT_stimuli/rescaled_final/0933_fw.mp4	0.0	84.0791642665863	0.10002470016479492
6	67.10151600837708	fix_pre	0		119	4.0	2.5	/experiments/Knapen_AOT/AOT_stimuli/rescaled_final/1806_fw.mp4	0.0	84.1791889667511	1.0001904964447021
6	68.08521270751953	pulse	0	t		4.0	2.5	/experiments/Knapen_AOT/AOT_stimuli/rescaled_final/1806_fw.mp4	0.0	85.16288566589355	
6	68.10170650482178	movie	1		268	4.0	2.5	/experiments/Knapen_AOT/AOT_stimuli/rescaled_final/1806_fw.mp4	0.0	85.1793794631958	2.5003395080566406
6	69.68492555618286	pulse	1	t		4.0	2.5	/experiments/Knapen_AOT/AOT_stimuli/rescaled_final/1806_fw.mp4	0.0	86.76259851455688	
6	70.60204601287842	fix_post	2		12	4.0	2.5	/experiments/Knapen_AOT/AOT_stimuli/rescaled_final/1806_fw.mp4	0.0	87.67971897125244	0.10003519058227539
7	70.7020812034607	fix_pre	0		120	5.0	2.5	/experiments/Knapen_AOT/AOT_stimuli/rescaled_final/0264_rv.mp4	0.0	87.77975416183472	1.0085031986236572
7	71.28573393821716	pulse	0	t		5.0	2.5	/experiments/Knapen_AOT/AOT_stimuli/rescaled_final/0264_rv.mp4	0.0	88.36340689659119	
7	71.71058440208435	movie	1		283	5.0	2.5	/experiments/Knapen_AOT/AOT_stimuli/rescaled_final/0264_rv.mp4	0.0	88.78825736045837	2.4921650886535645
7	72.88384127616882	pulse	1	t		5.0	2.5	/experiments/Knapen_AOT/AOT_stimuli/rescaled_final/0264_rv.mp4	0.0	89.96151423454285	
7	74.20274949073792	fix_post	2		12	5.0	2.5	/experiments/Knapen_AOT/AOT_stimuli/rescaled_final/0264_rv.mp4	0.0	91.28042244911194	0.09987020492553711
8	74.30261969566345	fix_pre	0		120	6.0	2.5	blank	1.0	91.38029265403748	1.0001261234283447
8	74.48616218566895	pulse	0	t		6.0	2.5	blank	1.0	91.56383514404297	
8	75.3027458190918	movie	1		300	6.0	2.5	blank	1.0	92.38041877746582	2.500426769256592
8	76.08645153045654	pulse	1	t		6.0	2.5	blank	1.0	93.16412448883057	
8	77.68676161766052	pulse	1	t		6.0	2.5	blank	1.0	94.76443457603455	
8	77.80317258834839	fix_post	2		12	6.0	2.5	blank	1.0	94.88084554672241	0.09997320175170898
9	77.9031457901001	fix_pre	0		120	7.0	2.5	/experiments/Knapen_AOT/AOT_stimuli/rescaled_final/1882_fw.mp4	0.0	94.98081874847412	1.008577823638916
9	78.91172361373901	movie	1		280	7.0	2.5	/experiments/Knapen_AOT/AOT_stimuli/rescaled_final/1882_fw.mp4	0.0	95.98939657211304	2.4919443130493164
9	79.28709125518799	pulse	1	t		7.0	2.5	/experiments/Knapen_AOT/AOT_stimuli/rescaled_final/1882_fw.mp4	0.0	96.36476421356201	
9	80.8790533542633	pulse	1	t		7.0	2.5	/experiments/Knapen_AOT/AOT_stimuli/rescaled_final/1882_fw.mp4	0.0	97.95672631263733	
9	81.40366792678833	fix_post	2		12	7.0	2.5	/experiments/Knapen_AOT/AOT_stimuli/rescaled_final/1882_fw.mp4	0.0	98.48134088516235	0.10002732276916504
10	81.5036952495575	fix_pre	0		118	8.0	2.5	/experiments/Knapen_AOT/AOT_stimuli/rescaled_final/0554_rv.mp4	0.0	98.58136820793152	0.9918155670166016
10	82.47912120819092	pulse	0	t		8.0	2.5	/experiments/Knapen_AOT/AOT_stimuli/rescaled_final/0554_rv.mp4	0.0	99.55679416656494	
10	82.4955108165741	movie	1		280	8.0	2.5	/experiments/Knapen_AOT/AOT_stimuli/rescaled_final/0554_rv.mp4	0.0	99.57318377494812	2.500361919403076
10	84.0794095993042	pulse	1	t		8.0	2.5	/experiments/Knapen_AOT/AOT_stimuli/rescaled_final/0554_rv.mp4	0.0	101.15708255767822	
10	84.99587273597717	fix_post	2		12	8.0	2.5	/experiments/Knapen_AOT/AOT_stimuli/rescaled_final/0554_rv.mp4	0.0	102.0735456943512	0.10001277923583984
11	85.09588551521301	fix_pre	0		120	9.0	2.5	/experiments/Knapen_AOT/AOT_stimuli/rescaled_final/1746_rv.mp4	0.0	102.17355847358704	1.0085291862487793
11	85.6795449256897	pulse	0	t		9.0	2.5	/experiments/Knapen_AOT/AOT_stimuli/rescaled_final/1746_rv.mp4	0.0	102.75721788406372	
11	86.10441470146179	movie	1		275	9.0	2.5	/experiments/Knapen_AOT/AOT_stimuli/rescaled_final/1746_rv.mp4	0.0	103.18208765983582	2.492029905319214
11	87.28003287315369	pulse	1	t		9.0	2.5	/experiments/Knapen_AOT/AOT_stimuli/rescaled_final/1746_rv.mp4	0.0	104.35770583152771	
11	88.596444606781	fix_post	2		12	9.0	2.5	/experiments/Knapen_AOT/AOT_stimuli/rescaled_final/1746_rv.mp4	0.0	105.67411756515503	0.09999203681945801
12	88.69643664360046	fix_pre	0		120	10.0	2.5	/experiments/Knapen_AOT/AOT_stimuli/rescaled_final/1153_fw.mp4	0.0	105.77410960197449	1.0084803104400635
12	88.88013291358948	pulse	0	t		10.0	2.5	/experiments/Knapen_AOT/AOT_stimuli/rescaled_final/1153_fw.mp4	0.0	105.9578058719635	
12	89.70491695404053	movie	1		275	10.0	2.5	/experiments/Knapen_AOT/AOT_stimuli/rescaled_final/1153_fw.mp4	0.0	106.78258991241455	2.492034912109375
12	90.48027157783508	pulse	1	t		10.0	2.5	/experiments/Knapen_AOT/AOT_stimuli/rescaled_final/1153_fw.mp4	0.0	107.5579445362091	
12	92.08050179481506	pulse	1	t		10.0	2.5	/experiments/Knapen_AOT/AOT_stimuli/rescaled_final/1153_fw.mp4	0.0	109.15817475318909	
12	92.1969518661499	fix_post	2		12	10.0	2.5	/experiments/Knapen_AOT/AOT_stimuli/rescaled_final/1153_fw.mp4	0.0	109.27462482452393	0.10002398490905762
13	92.29697585105896	fix_pre	0		120	11.0	2.5	/experiments/Knapen_AOT/AOT_stimuli/rescaled_final/0850_fw.mp4	0.0	109.37464880943298	1.0085036754608154
13	93.30547952651978	movie	1		279	11.0	2.5	/experiments/Knapen_AOT/AOT_stimuli/rescaled_final/0850_fw.mp4	0.0	110.3831524848938	2.492051124572754
13	93.67902827262878	pulse	1	t		11.0	2.5	/experiments/Knapen_AOT/AOT_stimuli/rescaled_final/0850_fw.mp4	0.0	110.75670123100281	
13	95.27959108352661	pulse	1	t		11.0	2.5	/experiments/Knapen_AOT/AOT_stimuli/rescaled_final/0850_fw.mp4	0.0	112.35726404190063	
13	95.79753065109253	fix_post	2		12	11.0	2.5	/experiments/Knapen_AOT/AOT_stimuli/rescaled_final/0850_fw.mp4	0.0	112.87520360946655	0.10003423690795898
14	95.89756488800049	fix_pre	0		119	12.0	2.5	blank	1.0	112.97523784637451	0.9917933940887451
14	96.88128924369812	pulse	0	t		12.0	2.5	blank	1.0	113.95896220207214	
14	96.88935828208923	movie	1		301	12.0	2.5	blank	1.0	113.96703124046326	2.508685350418091
14	98.48141121864319	pulse	1	t		12.0	2.5	blank	1.0	115.55908417701721	
14	99.39804363250732	fix_post	2		12	12.0	2.5	blank	1.0	116.47571659088135	0.1000220775604248
15	99.49806571006775	fix_pre	0		120	13.0	2.5	/experiments/Knapen_AOT/AOT_stimuli/rescaled_final/0755_rv.mp4	0.0	116.57573866844177	1.0084865093231201
15	100.08173680305481	pulse	0	t		13.0	2.5	/experiments/Knapen_AOT/AOT_stimuli/rescaled_final/0755_rv.mp4	0.0	117.15940976142883	
15	100.50655221939087	movie	1		279	13.0	2.5	/experiments/Knapen_AOT/AOT_stimuli/rescaled_final/0755_rv.mp4	0.0	117.58422517776489	2.49210262298584
15	101.6802670955658	pulse	1	t		13.0	2.5	/experiments/Knapen_AOT/AOT_stimuli/rescaled_final/0755_rv.mp4	0.0	118.75794005393982	
15	102.99865484237671	fix_post	2		12	13.0	2.5	/experiments/Knapen_AOT/AOT_stimuli/rescaled_final/0755_rv.mp4	0.0	120.07632780075073	0.10001468658447266
16	103.09866952896118	fix_pre	0		120	14.0	2.5	/experiments/Knapen_AOT/AOT_stimuli/rescaled_final/0346_rv.mp4	0.0	120.1763424873352	1.0084576606750488
16	103.28224730491638	pulse	0	t		14.0	2.5	/experiments/Knapen_AOT/AOT_stimuli/rescaled_final/0346_rv.mp4	0.0	120.3599202632904	
16	104.10712718963623	movie	1		288	14.0	2.5	/experiments/Knapen_AOT/AOT_stimuli/rescaled_final/0346_rv.mp4	0.0	121.18480014801025	2.491999626159668
16	104.88046097755432	pulse	1	t		14.0	2.5	/experiments/Knapen_AOT/AOT_stimuli/rescaled_final/0346_rv.mp4	0.0	121.95813393592834	
16	106.48071908950806	pulse	1	t		14.0	2.5	/experiments/Knapen_AOT/AOT_stimuli/rescaled_final/0346_rv.mp4	0.0	123.55839204788208	
16	106.5991268157959	fix_post	2		12	14.0	2.5	/experiments/Knapen_AOT/AOT_stimuli/rescaled_final/0346_rv.mp4	0.0	123.67679977416992	0.10009503364562988
17	106.69922184944153	fix_pre	0		120	15.0	2.5	/experiments/Knapen_AOT/AOT_stimuli/rescaled_final/0801_rv.mp4	0.0	123.77689480781555	1.0084741115570068
17	107.70769596099854	movie	1		288	15.0	2.5	/experiments/Knapen_AOT/AOT_stimuli/rescaled_final/0801_rv.mp4	0.0	124.78536891937256	2.4919865131378174
17	108.08158087730408	pulse	1	t		15.0	2.5	/experiments/Knapen_AOT/AOT_stimuli/rescaled_final/0801_rv.mp4	0.0	125.1592538356781	
17	109.68088746070862	pulse	1	t		15.0	2.5	/experiments/Knapen_AOT/AOT_stimuli/rescaled_final/0801_rv.mp4	0.0	126.75856041908264	
17	110.19968247413635	fix_post	2		12	15.0	2.5	/experiments/Knapen_AOT/AOT_stimuli/rescaled_final/0801_rv.mp4	0.0	127.27735543251038	0.09999847412109375
18	110.29968094825745	fix_pre	0		119	16.0	2.5	/experiments/Knapen_AOT/AOT_stimuli/rescaled_final/0825_rv.mp4	0.0	127.37735390663147	1.0002593994140625
18	111.28350067138672	pulse	0	t		16.0	2.5	/experiments/Knapen_AOT/AOT_stimuli/rescaled_final/0825_rv.mp4	0.0	128.36117362976074	
18	111.29994034767151	movie	1		281	16.0	2.5	/experiments/Knapen_AOT/AOT_stimuli/rescaled_final/0825_rv.mp4	0.0	128.37761330604553	2.500263214111328
18	112.88259077072144	pulse	1	t		16.0	2.5	/experiments/Knapen_AOT/AOT_stimuli/rescaled_final/0825_rv.mp4	0.0	129.96026372909546	
18	113.80020356178284	fix_post	2		12	16.0	2.5	/experiments/Knapen_AOT/AOT_stimuli/rescaled_final/0825_rv.mp4	0.0	130.87787652015686	0.10002851486206055
19	113.9002320766449	fix_pre	0		120	17.0	2.5	/experiments/Knapen_AOT/AOT_stimuli/rescaled_final/0102_fw.mp4	0.0	130.97790503501892	1.0085158348083496
19	114.48393964767456	pulse	0	t		17.0	2.5	/experiments/Knapen_AOT/AOT_stimuli/rescaled_final/0102_fw.mp4	0.0	131.56161260604858	
19	114.90874791145325	movie	1		286	17.0	2.5	/experiments/Knapen_AOT/AOT_stimuli/rescaled_final/0102_fw.mp4	0.0	131.98642086982727	2.492011308670044
19	116.08222675323486	pulse	1	t		17.0	2.5	/experiments/Knapen_AOT/AOT_stimuli/rescaled_final/0102_fw.mp4	0.0	133.1598997116089	
19	117.40075922012329	fix_post	2		12	17.0	2.5	/experiments/Knapen_AOT/AOT_stimuli/rescaled_final/0102_fw.mp4	0.0	134.47843217849731	0.10007715225219727
20	117.50083637237549	fix_pre	0		120	18.0	2.5	/experiments/Knapen_AOT/AOT_stimuli/rescaled_final/0353_fw.mp4	0.0	134.5785093307495	1.008446216583252
20	117.68442487716675	pulse	0	t		18.0	2.5	/experiments/Knapen_AOT/AOT_stimuli/rescaled_final/0353_fw.mp4	0.0	134.76209783554077	
20	118.50928258895874	movie	1		288	18.0	2.5	/experiments/Knapen_AOT/AOT_stimuli/rescaled_final/0353_fw.mp4	0.0	135.58695554733276	2.492006778717041
20	119.282461643219	pulse	1	t		18.0	2.5	/experiments/Knapen_AOT/AOT_stimuli/rescaled_final/0353_fw.mp4	0.0	136.36013460159302	
20	120.88301682472229	pulse	1	t		18.0	2.5	/experiments/Knapen_AOT/AOT_stimuli/rescaled_final/0353_fw.mp4	0.0	137.9606897830963	
20	121.00128936767578	fix_post	2		12	18.0	2.5	/experiments/Knapen_AOT/AOT_stimuli/rescaled_final/0353_fw.mp4	0.0	138.0789623260498	0.10002565383911133
21	121.10131502151489	fix_pre	0		120	19.0	2.5	blank	1.0	138.17898797988892	1.0001413822174072
21	122.1014564037323	movie	1		300	19.0	2.5	blank	1.0	139.17912936210632	2.5004680156707764
21	122.48510503768921	pulse	1	t		19.0	2.5	blank	1.0	139.56277799606323	
21	124.08533263206482	pulse	1	t		19.0	2.5	blank	1.0	141.16300559043884	
21	124.60192441940308	fix_post	2		12	19.0	2.5	blank	1.0	141.6795973777771	0.10001373291015625
22	124.70193815231323	fix_pre	0		119	20.0	2.5	/experiments/Knapen_AOT/AOT_stimuli/rescaled_final/0223_fw.mp4	0.0	141.77961111068726	1.0000755786895752
22	125.68557047843933	pulse	0	t		20.0	2.5	/experiments/Knapen_AOT/AOT_stimuli/rescaled_final/0223_fw.mp4	0.0	142.76324343681335	
22	125.70201373100281	movie	1		281	20.0	2.5	/experiments/Knapen_AOT/AOT_stimuli/rescaled_final/0223_fw.mp4	0.0	142.77968668937683	2.500375747680664
22	127.28509449958801	pulse	1	t		20.0	2.5	/experiments/Knapen_AOT/AOT_stimuli/rescaled_final/0223_fw.mp4	0.0	144.36276745796204	
22	128.20238947868347	fix_post	2		12	20.0	2.5	/experiments/Knapen_AOT/AOT_stimuli/rescaled_final/0223_fw.mp4	0.0	145.2800624370575	0.10000801086425781
23	128.30239748954773	fix_pre	0		120	21.0	2.5	/experiments/Knapen_AOT/AOT_stimuli/rescaled_final/1244_fw.mp4	0.0	145.38007044792175	1.0085301399230957
23	128.88601326942444	pulse	0	t		21.0	2.5	/experiments/Knapen_AOT/AOT_stimuli/rescaled_final/1244_fw.mp4	0.0	145.96368622779846	
23	129.31092762947083	movie	1		287	21.0	2.5	/experiments/Knapen_AOT/AOT_stimuli/rescaled_final/1244_fw.mp4	0.0	146.38860058784485	2.492053747177124
23	130.48465871810913	pulse	1	t		21.0	2.5	/experiments/Knapen_AOT/AOT_stimuli/rescaled_final/1244_fw.mp4	0.0	147.56233167648315	
23	131.80298137664795	fix_post	2		12	21.0	2.5	/experiments/Knapen_AOT/AOT_stimuli/rescaled_final/1244_fw.mp4	0.0	148.88065433502197	0.09997987747192383
24	131.90296125411987	fix_pre	0		120	22.0	2.5	/experiments/Knapen_AOT/AOT_stimuli/rescaled_final/0422_fw.mp4	0.0	148.9806342124939	1.008490800857544
24	132.08690667152405	pulse	0	t		22.0	2.5	/experiments/Knapen_AOT/AOT_stimuli/rescaled_final/0422_fw.mp4	0.0	149.16457962989807	
24	132.91145205497742	movie	1		282	22.0	2.5	/experiments/Knapen_AOT/AOT_stimuli/rescaled_final/0422_fw.mp4	0.0	149.98912501335144	2.4920084476470947
24	133.68448042869568	pulse	1	t		22.0	2.5	/experiments/Knapen_AOT/AOT_stimuli/rescaled_final/0422_fw.mp4	0.0	150.7621533870697	
24	135.2786569595337	pulse	1	t		22.0	2.5	/experiments/Knapen_AOT/AOT_stimuli/rescaled_final/0422_fw.mp4	0.0	152.35632991790771	
24	135.4034605026245	fix_post	2		12	22.0	2.5	/experiments/Knapen_AOT/AOT_stimuli/rescaled_final/0422_fw.mp4	0.0	152.48113346099854	0.10001516342163086
25	135.50347566604614	fix_pre	0		120	23.0	2.5	/experiments/Knapen_AOT/AOT_stimuli/rescaled_final/1079_rv.mp4	0.0	152.58114862442017	1.0085270404815674
25	136.5120027065277	movie	1		271	23.0	2.5	/experiments/Knapen_AOT/AOT_stimuli/rescaled_final/1079_rv.mp4	0.0	153.58967566490173	2.4920265674591064
25	136.87903666496277	pulse	1	t		23.0	2.5	/experiments/Knapen_AOT/AOT_stimuli/rescaled_final/1079_rv.mp4	0.0	153.9567096233368	
25	138.47912406921387	pulse	1	t		23.0	2.5	/experiments/Knapen_AOT/AOT_stimuli/rescaled_final/1079_rv.mp4	0.0	155.5567970275879	
25	139.00402927398682	fix_post	2		12	23.0	2.5	/experiments/Knapen_AOT/AOT_stimuli/rescaled_final/1079_rv.mp4	0.0	156.08170223236084	0.10002470016479492
26	139.1040539741516	fix_pre	0		118	24.0	2.5	/experiments/Knapen_AOT/AOT_stimuli/rescaled_final/0463_rv.mp4	0.0	156.18172693252563	0.9918179512023926
26	140.0797255039215	pulse	0	t		24.0	2.5	/experiments/Knapen_AOT/AOT_stimuli/rescaled_final/0463_rv.mp4	0.0	157.15739846229553	
26	140.095871925354	movie	1		281	24.0	2.5	/experiments/Knapen_AOT/AOT_stimuli/rescaled_final/0463_rv.mp4	0.0	157.17354488372803	2.500530242919922
26	141.67972230911255	pulse	1	t		24.0	2.5	/experiments/Knapen_AOT/AOT_stimuli/rescaled_final/0463_rv.mp4	0.0	158.75739526748657	
26	142.59640216827393	fix_post	2		12	24.0	2.5	/experiments/Knapen_AOT/AOT_stimuli/rescaled_final/0463_rv.mp4	0.0	159.67407512664795	0.0998382568359375
27	142.69624042510986	fix_pre	0		120	25.0	2.5	/experiments/Knapen_AOT/AOT_stimuli/rescaled_final/1851_fw.mp4	0.0	159.7739133834839	1.0086195468902588
27	143.279949426651	pulse	0	t		25.0	2.5	/experiments/Knapen_AOT/AOT_stimuli/rescaled_final/1851_fw.mp4	0.0	160.35762238502502	
27	143.70485997200012	movie	1		286	25.0	2.5	/experiments/Knapen_AOT/AOT_stimuli/rescaled_final/1851_fw.mp4	0.0	160.78253293037415	2.4918832778930664
27	144.88014221191406	pulse	1	t		25.0	2.5	/experiments/Knapen_AOT/AOT_stimuli/rescaled_final/1851_fw.mp4	0.0	161.9578151702881	
27	146.1967432498932	fix_post	2		12	25.0	2.5	/experiments/Knapen_AOT/AOT_stimuli/rescaled_final/1851_fw.mp4	0.0	163.2744162082672	0.10004997253417969
28	146.29679322242737	fix_pre	0		120	26.0	2.5	/experiments/Knapen_AOT/AOT_stimuli/rescaled_final/0958_rv.mp4	0.0	163.3744661808014	1.008554220199585
28	146.48043775558472	pulse	0	t		26.0	2.5	/experiments/Knapen_AOT/AOT_stimuli/rescaled_final/0958_rv.mp4	0.0	163.55811071395874	
28	147.30534744262695	movie	1		280	26.0	2.5	/experiments/Knapen_AOT/AOT_stimuli/rescaled_final/0958_rv.mp4	0.0	164.38302040100098	2.492032289505005
28	148.0785562992096	pulse	1	t		26.0	2.5	/experiments/Knapen_AOT/AOT_stimuli/rescaled_final/0958_rv.mp4	0.0	165.15622925758362	
28	149.68094873428345	pulse	1	t		26.0	2.5	/experiments/Knapen_AOT/AOT_stimuli/rescaled_final/0958_rv.mp4	0.0	166.75862169265747	
28	149.79737973213196	fix_post	2		12	26.0	2.5	/experiments/Knapen_AOT/AOT_stimuli/rescaled_final/0958_rv.mp4	0.0	166.87505269050598	0.09996390342712402
29	149.89734363555908	fix_pre	0		120	27.0	2.5	blank	1.0	166.9750165939331	1.0002586841583252
29	150.8976023197174	movie	1		300	27.0	2.5	blank	1.0	167.97527527809143	2.5002455711364746
29	151.28122782707214	pulse	1	t		27.0	2.5	blank	1.0	168.35890078544617	
29	152.88150763511658	pulse	1	t		27.0	2.5	blank	1.0	169.9591805934906	
29	153.39784789085388	fix_post	2		12	27.0	2.5	blank	1.0	170.4755208492279	0.10002017021179199
30	153.49786806106567	fix_pre	0		119	28.0	2.5	/experiments/Knapen_AOT/AOT_stimuli/rescaled_final/0138_rv.mp4	0.0	170.5755410194397	1.0001375675201416
30	154.48158288002014	pulse	0	t		28.0	2.5	/experiments/Knapen_AOT/AOT_stimuli/rescaled_final/0138_rv.mp4	0.0	171.55925583839417	
30	154.49800562858582	movie	1		284	28.0	2.5	/experiments/Knapen_AOT/AOT_stimuli/rescaled_final/0138_rv.mp4	0.0	171.57567858695984	2.5004725456237793
30	156.08033800125122	pulse	1	t		28.0	2.5	/experiments/Knapen_AOT/AOT_stimuli/rescaled_final/0138_rv.mp4	0.0	173.15801095962524	
30	156.9984781742096	fix_post	2		12	28.0	2.5	/experiments/Knapen_AOT/AOT_stimuli/rescaled_final/0138_rv.mp4	0.0	174.07615113258362	0.09999942779541016
31	157.098477602005	fix_pre	0		120	29.0	2.5	/experiments/Knapen_AOT/AOT_stimuli/rescaled_final/2060_rv.mp4	0.0	174.17615056037903	1.008411169052124
31	157.68220710754395	pulse	0	t		29.0	2.5	/experiments/Knapen_AOT/AOT_stimuli/rescaled_final/2060_rv.mp4	0.0	174.75988006591797	
31	158.10688877105713	movie	1		283	29.0	2.5	/experiments/Knapen_AOT/AOT_stimuli/rescaled_final/2060_rv.mp4	0.0	175.18456172943115	2.4920432567596436
31	159.2803852558136	pulse	1	t		29.0	2.5	/experiments/Knapen_AOT/AOT_stimuli/rescaled_final/2060_rv.mp4	0.0	176.35805821418762	
31	160.59893202781677	fix_post	2		12	29.0	2.5	/experiments/Knapen_AOT/AOT_stimuli/rescaled_final/2060_rv.mp4	0.0	177.6766049861908	0.10004353523254395
32	160.69897556304932	fix_pre	0		120	30.0	2.5	/experiments/Knapen_AOT/AOT_stimuli/rescaled_final/0031_fw.mp4	0.0	177.77664852142334	1.0085439682006836
32	160.8828501701355	pulse	0	t		30.0	2.5	/experiments/Knapen_AOT/AOT_stimuli/rescaled_final/0031_fw.mp4	0.0	177.96052312850952	
32	161.70751953125	movie	1		287	30.0	2.5	/experiments/Knapen_AOT/AOT_stimuli/rescaled_final/0031_fw.mp4	0.0	178.78519248962402	2.4919817447662354
32	162.48067545890808	pulse	1	t		30.0	2.5	/experiments/Knapen_AOT/AOT_stimuli/rescaled_final/0031_fw.mp4	0.0	179.5583484172821	
32	164.08269476890564	pulse	1	t		30.0	2.5	/experiments/Knapen_AOT/AOT_stimuli/rescaled_final/0031_fw.mp4	0.0	181.16036772727966	
32	164.19950127601624	fix_post	2		12	30.0	2.5	/experiments/Knapen_AOT/AOT_stimuli/rescaled_final/0031_fw.mp4	0.0	181.27717423439026	0.10001778602600098
33	164.29951906204224	fix_pre	0		120	31.0	2.5	/experiments/Knapen_AOT/AOT_stimuli/rescaled_final/0221_rv.mp4	0.0	181.37719202041626	1.0084967613220215
33	165.30801582336426	movie	1		284	31.0	2.5	/experiments/Knapen_AOT/AOT_stimuli/rescaled_final/0221_rv.mp4	0.0	182.38568878173828	2.492021083831787
33	165.68331027030945	pulse	1	t		31.0	2.5	/experiments/Knapen_AOT/AOT_stimuli/rescaled_final/0221_rv.mp4	0.0	182.76098322868347	
33	167.28161525726318	pulse	1	t		31.0	2.5	/experiments/Knapen_AOT/AOT_stimuli/rescaled_final/0221_rv.mp4	0.0	184.3592882156372	
33	167.80003690719604	fix_post	2		12	31.0	2.5	/experiments/Knapen_AOT/AOT_stimuli/rescaled_final/0221_rv.mp4	0.0	184.87770986557007	0.10002970695495605
34	167.900066614151	fix_pre	0		119	32.0	2.5	/experiments/Knapen_AOT/AOT_stimuli/rescaled_final/0817_fw.mp4	0.0	184.97773957252502	1.0001158714294434
34	168.88379335403442	pulse	0	t		32.0	2.5	/experiments/Knapen_AOT/AOT_stimuli/rescaled_final/0817_fw.mp4	0.0	185.96146631240845	
34	168.90018248558044	movie	1		284	32.0	2.5	/experiments/Knapen_AOT/AOT_stimuli/rescaled_final/0817_fw.mp4	0.0	185.97785544395447	2.5004501342773438
34	170.48229503631592	pulse	1	t		32.0	2.5	/experiments/Knapen_AOT/AOT_stimuli/rescaled_final/0817_fw.mp4	0.0	187.55996799468994	
34	171.4006326198578	fix_post	2		12	32.0	2.5	/experiments/Knapen_AOT/AOT_stimuli/rescaled_final/0817_fw.mp4	0.0	188.4783055782318	0.09999561309814453
35	171.50062823295593	fix_pre	0		120	33.0	2.5	/experiments/Knapen_AOT/AOT_stimuli/rescaled_final/1493_rv.mp4	0.0	188.57830119132996	1.008439064025879
35	172.08420038223267	pulse	0	t		33.0	2.5	/experiments/Knapen_AOT/AOT_stimuli/rescaled_final/1493_rv.mp4	0.0	189.1618733406067	
35	172.5090672969818	movie	1		286	33.0	2.5	/experiments/Knapen_AOT/AOT_stimuli/rescaled_final/1493_rv.mp4	0.0	189.58674025535583	2.4921083450317383
35	173.68262338638306	pulse	1	t		33.0	2.5	/experiments/Knapen_AOT/AOT_stimuli/rescaled_final/1493_rv.mp4	0.0	190.76029634475708	
35	175.00117564201355	fix_post	2		12	33.0	2.5	/experiments/Knapen_AOT/AOT_stimuli/rescaled_final/1493_rv.mp4	0.0	192.07884860038757	0.09994125366210938
36	175.10111689567566	fix_pre	0		120	34.0	2.5	blank	1.0	192.17878985404968	1.000152587890625
36	175.2849202156067	pulse	0	t		34.0	2.5	blank	1.0	192.3625931739807	
36	176.10126948356628	movie	1		300	34.0	2.5	blank	1.0	193.1789424419403	2.5004162788391113
36	176.8849220275879	pulse	1	t		34.0	2.5	blank	1.0	193.9625949859619	
36	178.4852249622345	pulse	1	t		34.0	2.5	blank	1.0	195.56289792060852	
36	178.6016857624054	fix_post	2		12	34.0	2.5	blank	1.0	195.67935872077942	0.09992861747741699
37	178.7016143798828	fix_pre	0		120	35.0	2.5	/experiments/Knapen_AOT/AOT_stimuli/rescaled_final/0801_fw.mp4	0.0	195.77928733825684	1.0084941387176514
37	179.71010851860046	movie	1		283	35.0	2.5	/experiments/Knapen_AOT/AOT_stimuli/rescaled_final/0801_fw.mp4	0.0	196.7877814769745	2.4920690059661865
37	180.08388376235962	pulse	1	t		35.0	2.5	/experiments/Knapen_AOT/AOT_stimuli/rescaled_final/0801_fw.mp4	0.0	197.16155672073364	
37	181.68367266654968	pulse	1	t		35.0	2.5	/experiments/Knapen_AOT/AOT_stimuli/rescaled_final/0801_fw.mp4	0.0	198.7613456249237	
37	182.20217752456665	fix_post	2		12	35.0	2.5	/experiments/Knapen_AOT/AOT_stimuli/rescaled_final/0801_fw.mp4	0.0	199.27985048294067	0.10001850128173828
38	182.3021960258484	fix_pre	0		119	36.0	2.5	/experiments/Knapen_AOT/AOT_stimuli/rescaled_final/0353_fw.mp4	0.0	199.3798689842224	1.008512020111084
38	183.28607082366943	pulse	0	t		36.0	2.5	/experiments/Knapen_AOT/AOT_stimuli/rescaled_final/0353_fw.mp4	0.0	200.36374378204346	
38	183.31070804595947	movie	1		287	36.0	2.5	/experiments/Knapen_AOT/AOT_stimuli/rescaled_final/0353_fw.mp4	0.0	200.3883810043335	2.492068290710449
38	184.88487100601196	pulse	1	t		36.0	2.5	/experiments/Knapen_AOT/AOT_stimuli/rescaled_final/0353_fw.mp4	0.0	201.962543964386	
38	185.80277633666992	fix_post	2		12	36.0	2.5	/experiments/Knapen_AOT/AOT_stimuli/rescaled_final/0353_fw.mp4	0.0	202.88044929504395	0.10001611709594727
39	185.90279245376587	fix_pre	0		120	37.0	2.5	/experiments/Knapen_AOT/AOT_stimuli/rescaled_final/0816_fw.mp4	0.0	202.9804654121399	1.008479118347168
39	186.48655080795288	pulse	0	t		37.0	2.5	/experiments/Knapen_AOT/AOT_stimuli/rescaled_final/0816_fw.mp4	0.0	203.5642237663269	
39	186.91127157211304	movie	1		288	37.0	2.5	/experiments/Knapen_AOT/AOT_stimuli/rescaled_final/0816_fw.mp4	0.0	203.98894453048706	2.4920260906219482
39	188.08536791801453	pulse	1	t		37.0	2.5	/experiments/Knapen_AOT/AOT_stimuli/rescaled_final/0816_fw.mp4	0.0	205.16304087638855	
39	189.40329766273499	fix_post	2		12	37.0	2.5	/experiments/Knapen_AOT/AOT_stimuli/rescaled_final/0816_fw.mp4	0.0	206.480970621109	0.10004639625549316
40	189.50334405899048	fix_pre	0		120	38.0	2.5	/experiments/Knapen_AOT/AOT_stimuli/rescaled_final/0850_rv.mp4	0.0	206.5810170173645	1.008518934249878
40	189.67889642715454	pulse	0	t		38.0	2.5	/experiments/Knapen_AOT/AOT_stimuli/rescaled_final/0850_rv.mp4	0.0	206.75656938552856	
40	190.51186299324036	movie	1		267	38.0	2.5	/experiments/Knapen_AOT/AOT_stimuli/rescaled_final/0850_rv.mp4	0.0	207.58953595161438	2.492051124572754
40	191.27884793281555	pulse	1	t		38.0	2.5	/experiments/Knapen_AOT/AOT_stimuli/rescaled_final/0850_rv.mp4	0.0	208.35652089118958	
40	192.87921047210693	pulse	1	t		38.0	2.5	/experiments/Knapen_AOT/AOT_stimuli/rescaled_final/0850_rv.mp4	0.0	209.95688343048096	
40	193.0039141178131	fix_post	2		12	38.0	2.5	/experiments/Knapen_AOT/AOT_stimuli/rescaled_final/0850_rv.mp4	0.0	210.08158707618713	0.09994745254516602
41	193.10386157035828	fix_pre	0		120	39.0	2.5	/experiments/Knapen_AOT/AOT_stimuli/rescaled_final/1261_fw.mp4	0.0	210.1815345287323	1.0084800720214844
41	194.11234164237976	movie	1		270	39.0	2.5	/experiments/Knapen_AOT/AOT_stimuli/rescaled_final/1261_fw.mp4	0.0	211.19001460075378	2.4920151233673096
41	194.47929191589355	pulse	1	t		39.0	2.5	/experiments/Knapen_AOT/AOT_stimuli/rescaled_final/1261_fw.mp4	0.0	211.55696487426758	
41	196.07948088645935	pulse	1	t		39.0	2.5	/experiments/Knapen_AOT/AOT_stimuli/rescaled_final/1261_fw.mp4	0.0	213.15715384483337	
41	196.60435676574707	fix_post	2		12	39.0	2.5	/experiments/Knapen_AOT/AOT_stimuli/rescaled_final/1261_fw.mp4	0.0	213.6820297241211	0.10004210472106934
42	196.70439887046814	fix_pre	0		118	40.0	2.5	blank	1.0	213.78207182884216	0.9834804534912109
42	197.6797652244568	pulse	0	t		40.0	2.5	blank	1.0	214.7574381828308	
42	197.68787932395935	movie	1		301	40.0	2.5	blank	1.0	214.76555228233337	2.508741617202759
42	199.28012084960938	pulse	1	t		40.0	2.5	blank	1.0	216.3577938079834	
42	200.1966209411621	fix_post	2		12	40.0	2.5	blank	1.0	217.27429389953613	0.09998059272766113
43	200.29660153388977	fix_pre	0		120	41.0	2.5	/experiments/Knapen_AOT/AOT_stimuli/rescaled_final/0755_fw.mp4	0.0	217.3742744922638	1.0084648132324219
43	200.8802571296692	pulse	0	t		41.0	2.5	/experiments/Knapen_AOT/AOT_stimuli/rescaled_final/0755_fw.mp4	0.0	217.9579300880432	
43	201.3050663471222	movie	1		291	41.0	2.5	/experiments/Knapen_AOT/AOT_stimuli/rescaled_final/0755_fw.mp4	0.0	218.38273930549622	2.4920339584350586
43	202.4805941581726	pulse	1	t		41.0	2.5	/experiments/Knapen_AOT/AOT_stimuli/rescaled_final/0755_fw.mp4	0.0	219.55826711654663	
43	203.79710030555725	fix_post	2		12	41.0	2.5	/experiments/Knapen_AOT/AOT_stimuli/rescaled_final/0755_fw.mp4	0.0	220.87477326393127	0.10001182556152344
44	203.89711213111877	fix_pre	0		120	42.0	2.5	/experiments/Knapen_AOT/AOT_stimuli/rescaled_final/0933_fw.mp4	0.0	220.9747850894928	1.0085361003875732
44	204.0806806087494	pulse	0	t		42.0	2.5	/experiments/Knapen_AOT/AOT_stimuli/rescaled_final/0933_fw.mp4	0.0	221.1583535671234	
44	204.90564823150635	movie	1		275	42.0	2.5	/experiments/Knapen_AOT/AOT_stimuli/rescaled_final/0933_fw.mp4	0.0	221.98332118988037	2.4920077323913574
44	205.67910814285278	pulse	1	t		42.0	2.5	/experiments/Knapen_AOT/AOT_stimuli/rescaled_final/0933_fw.mp4	0.0	222.7567811012268	
44	207.27917003631592	pulse	1	t		42.0	2.5	/experiments/Knapen_AOT/AOT_stimuli/rescaled_final/0933_fw.mp4	0.0	224.35684299468994	
44	207.3976559638977	fix_post	2		12	42.0	2.5	/experiments/Knapen_AOT/AOT_stimuli/rescaled_final/0933_fw.mp4	0.0	224.47532892227173	0.1000661849975586
45	207.49772214889526	fix_pre	0		120	43.0	2.5	/experiments/Knapen_AOT/AOT_stimuli/rescaled_final/0164_rv.mp4	0.0	224.5753951072693	1.0084350109100342
45	208.5061571598053	movie	1		286	43.0	2.5	/experiments/Knapen_AOT/AOT_stimuli/rescaled_final/0164_rv.mp4	0.0	225.58383011817932	2.492030382156372
45	208.87971448898315	pulse	1	t		43.0	2.5	/experiments/Knapen_AOT/AOT_stimuli/rescaled_final/0164_rv.mp4	0.0	225.95738744735718	
45	210.48010206222534	pulse	1	t		43.0	2.5	/experiments/Knapen_AOT/AOT_stimuli/rescaled_final/0164_rv.mp4	0.0	227.55777502059937	
45	210.99818754196167	fix_post	2		12	43.0	2.5	/experiments/Knapen_AOT/AOT_stimuli/rescaled_final/0164_rv.mp4	0.0	228.0758605003357	0.10001349449157715
46	211.09820103645325	fix_pre	0		119	44.0	2.5	/experiments/Knapen_AOT/AOT_stimuli/rescaled_final/0355_fw.mp4	0.0	228.17587399482727	1.0001921653747559
46	212.08188939094543	pulse	0	t		44.0	2.5	/experiments/Knapen_AOT/AOT_stimuli/rescaled_final/0355_fw.mp4	0.0	229.15956234931946	
46	212.098393201828	movie	1		288	44.0	2.5	/experiments/Knapen_AOT/AOT_stimuli/rescaled_final/0355_fw.mp4	0.0	229.17606616020203	2.5003418922424316
46	213.68250346183777	pulse	1	t		44.0	2.5	/experiments/Knapen_AOT/AOT_stimuli/rescaled_final/0355_fw.mp4	0.0	230.7601764202118	
46	214.59873509407043	fix_post	2		12	44.0	2.5	/experiments/Knapen_AOT/AOT_stimuli/rescaled_final/0355_fw.mp4	0.0	231.67640805244446	0.10007572174072266
47	214.69881081581116	fix_pre	0		120	45.0	2.5	/experiments/Knapen_AOT/AOT_stimuli/rescaled_final/1159_fw.mp4	0.0	231.77648377418518	1.0084147453308105
47	215.28245329856873	pulse	0	t		45.0	2.5	/experiments/Knapen_AOT/AOT_stimuli/rescaled_final/1159_fw.mp4	0.0	232.36012625694275	
47	215.70722556114197	movie	1		277	45.0	2.5	/experiments/Knapen_AOT/AOT_stimuli/rescaled_final/1159_fw.mp4	0.0	232.784898519516	2.492055654525757
47	216.8807966709137	pulse	1	t		45.0	2.5	/experiments/Knapen_AOT/AOT_stimuli/rescaled_final/1159_fw.mp4	0.0	233.95846962928772	
47	218.19928121566772	fix_post	2		12	45.0	2.5	/experiments/Knapen_AOT/AOT_stimuli/rescaled_final/1159_fw.mp4	0.0	235.27695417404175	0.10005331039428711
48	218.299334526062	fix_pre	0		103	46.0	2.5	/experiments/Knapen_AOT/AOT_stimuli/rescaled_final/1720_fw.mp4	0.0	235.37700748443604	1.0084660053253174
48	218.5616648197174	pulse	0	t		46.0	2.5	/experiments/Knapen_AOT/AOT_stimuli/rescaled_final/1720_fw.mp4	0.0	235.63933777809143	
48	219.30780053138733	movie	1		278	46.0	2.5	/experiments/Knapen_AOT/AOT_stimuli/rescaled_final/1720_fw.mp4	0.0	236.38547348976135	2.4920690059661865
48	220.08086943626404	pulse	1	t		46.0	2.5	/experiments/Knapen_AOT/AOT_stimuli/rescaled_final/1720_fw.mp4	0.0	237.15854239463806	
48	221.68168425559998	pulse	1	t		46.0	2.5	/experiments/Knapen_AOT/AOT_stimuli/rescaled_final/1720_fw.mp4	0.0	238.759357213974	
48	221.79986953735352	fix_post	2		12	46.0	2.5	/experiments/Knapen_AOT/AOT_stimuli/rescaled_final/1720_fw.mp4	0.0	238.87754249572754	0.09996151924133301
49	221.89983105659485	fix_pre	0		120	47.0	2.5	/experiments/Knapen_AOT/AOT_stimuli/rescaled_final/1079_fw.mp4	0.0	238.97750401496887	1.0085258483886719
49	222.90835690498352	movie	1		284	47.0	2.5	/experiments/Knapen_AOT/AOT_stimuli/rescaled_final/1079_fw.mp4	0.0	239.98602986335754	2.4920241832733154
49	223.28182911872864	pulse	1	t		47.0	2.5	/experiments/Knapen_AOT/AOT_stimuli/rescaled_final/1079_fw.mp4	0.0	240.35950207710266	
49	224.8822808265686	pulse	1	t		47.0	2.5	/experiments/Knapen_AOT/AOT_stimuli/rescaled_final/1079_fw.mp4	0.0	241.95995378494263	
49	225.40038108825684	fix_post	2		12	47.0	2.5	/experiments/Knapen_AOT/AOT_stimuli/rescaled_final/1079_fw.mp4	0.0	242.47805404663086	0.09998226165771484
50	225.50036334991455	fix_pre	0		119	48.0	2.5	blank	1.0	242.57803630828857	0.9918129444122314
50	226.4841034412384	pulse	0	t		48.0	2.5	blank	1.0	243.56177639961243	
50	226.49217629432678	movie	1		301	48.0	2.5	blank	1.0	243.5698492527008	2.508725881576538
50	228.08429884910583	pulse	1	t		48.0	2.5	blank	1.0	245.16197180747986	
50	229.00090217590332	fix_post	2		12	48.0	2.5	blank	1.0	246.07857513427734	0.10001754760742188
51	229.10091972351074	fix_pre	0		120	49.0	2.5	/experiments/Knapen_AOT/AOT_stimuli/rescaled_final/0570_fw.mp4	0.0	246.17859268188477	1.0084812641143799
51	229.68471765518188	pulse	0	t		49.0	2.5	/experiments/Knapen_AOT/AOT_stimuli/rescaled_final/0570_fw.mp4	0.0	246.7623906135559	
51	230.10940098762512	movie	1		266	49.0	2.5	/experiments/Knapen_AOT/AOT_stimuli/rescaled_final/0570_fw.mp4	0.0	247.18707394599915	2.492046356201172
51	231.28295278549194	pulse	1	t		49.0	2.5	/experiments/Knapen_AOT/AOT_stimuli/rescaled_final/0570_fw.mp4	0.0	248.36062574386597	
51	232.6014473438263	fix_post	2		12	49.0	2.5	/experiments/Knapen_AOT/AOT_stimuli/rescaled_final/0570_fw.mp4	0.0	249.67912030220032	0.10004138946533203
52	232.70148873329163	fix_pre	0		120	50.0	2.5	/experiments/Knapen_AOT/AOT_stimuli/rescaled_final/0474_rv.mp4	0.0	249.77916169166565	1.0084567070007324
52	232.88503193855286	pulse	0	t		50.0	2.5	/experiments/Knapen_AOT/AOT_stimuli/rescaled_final/0474_rv.mp4	0.0	249.96270489692688	
52	233.70994544029236	movie	1		263	50.0	2.5	/experiments/Knapen_AOT/AOT_stimuli/rescaled_final/0474_rv.mp4	0.0	250.78761839866638	2.492091417312622
52	234.48493099212646	pulse	1	t		50.0	2.5	/experiments/Knapen_AOT/AOT_stimuli/rescaled_final/0474_rv.mp4	0.0	251.5626039505005	
52	236.0835464000702	pulse	1	t		50.0	2.5	/experiments/Knapen_AOT/AOT_stimuli/rescaled_final/0474_rv.mp4	0.0	253.1612193584442	
52	236.20203685760498	fix_post	2		12	50.0	2.5	/experiments/Knapen_AOT/AOT_stimuli/rescaled_final/0474_rv.mp4	0.0	253.279709815979	0.10007858276367188
53	236.30211544036865	fix_pre	0		120	51.0	2.5	/experiments/Knapen_AOT/AOT_stimuli/rescaled_final/1761_fw.mp4	0.0	253.37978839874268	1.0083894729614258
53	237.31050491333008	movie	1		286	51.0	2.5	/experiments/Knapen_AOT/AOT_stimuli/rescaled_final/1761_fw.mp4	0.0	254.3881778717041	2.492060422897339
53	237.68406295776367	pulse	1	t		51.0	2.5	/experiments/Knapen_AOT/AOT_stimuli/rescaled_final/1761_fw.mp4	0.0	254.7617359161377	
53	239.28458762168884	pulse	1	t		51.0	2.5	/experiments/Knapen_AOT/AOT_stimuli/rescaled_final/1761_fw.mp4	0.0	256.36226058006287	
53	239.80256533622742	fix_post	2		12	51.0	2.5	/experiments/Knapen_AOT/AOT_stimuli/rescaled_final/1761_fw.mp4	0.0	256.88023829460144	0.09997701644897461
54	239.9025423526764	fix_pre	0		119	52.0	2.5	/experiments/Knapen_AOT/AOT_stimuli/rescaled_final/1657_fw.mp4	0.0	256.9802153110504	1.00018310546875
54	240.886403799057	pulse	0	t		52.0	2.5	/experiments/Knapen_AOT/AOT_stimuli/rescaled_final/1657_fw.mp4	0.0	257.96407675743103	
54	240.90272545814514	movie	1		277	52.0	2.5	/experiments/Knapen_AOT/AOT_stimuli/rescaled_final/1657_fw.mp4	0.0	257.98039841651917	2.5003325939178467
54	242.4849648475647	pulse	1	t		52.0	2.5	/experiments/Knapen_AOT/AOT_stimuli/rescaled_final/1657_fw.mp4	0.0	259.5626378059387	
54	243.403058052063	fix_post	2		12	52.0	2.5	/experiments/Knapen_AOT/AOT_stimuli/rescaled_final/1657_fw.mp4	0.0	260.480731010437	0.10002303123474121
55	243.50308108329773	fix_pre	0		120	53.0	2.5	/experiments/Knapen_AOT/AOT_stimuli/rescaled_final/1877_fw.mp4	0.0	260.58075404167175	1.00850510597229
55	244.08687663078308	pulse	0	t		53.0	2.5	/experiments/Knapen_AOT/AOT_stimuli/rescaled_final/1877_fw.mp4	0.0	261.1645495891571	
55	244.51158618927002	movie	1		279	53.0	2.5	/experiments/Knapen_AOT/AOT_stimuli/rescaled_final/1877_fw.mp4	0.0	261.58925914764404	2.492079734802246
55	245.6852388381958	pulse	1	t		53.0	2.5	/experiments/Knapen_AOT/AOT_stimuli/rescaled_final/1877_fw.mp4	0.0	262.7629117965698	
55	247.00366592407227	fix_post	2		12	53.0	2.5	/experiments/Knapen_AOT/AOT_stimuli/rescaled_final/1877_fw.mp4	0.0	264.0813388824463	0.09998559951782227
56	247.1036515235901	fix_pre	0		120	54.0	2.5	blank	1.0	264.1813244819641	1.000121831893921
56	247.279363155365	pulse	0	t		54.0	2.5	blank	1.0	264.357036113739	
56	248.103773355484	movie	1		300	54.0	2.5	blank	1.0	265.18144631385803	2.50040864944458
56	248.8793957233429	pulse	1	t		54.0	2.5	blank	1.0	265.9570686817169	
56	250.47965240478516	pulse	1	t		54.0	2.5	blank	1.0	267.5573253631592	
56	250.6041820049286	fix_post	2		12	54.0	2.5	blank	1.0	267.6818549633026	0.09999203681945801
57	250.70417404174805	fix_pre	0		120	55.0	2.5	/experiments/Knapen_AOT/AOT_stimuli/rescaled_final/1761_rv.mp4	0.0	267.78184700012207	1.008570909500122
57	251.71274495124817	movie	1		277	55.0	2.5	/experiments/Knapen_AOT/AOT_stimuli/rescaled_final/1761_rv.mp4	0.0	268.7904179096222	2.4919466972351074
57	252.07968401908875	pulse	1	t		55.0	2.5	/experiments/Knapen_AOT/AOT_stimuli/rescaled_final/1761_rv.mp4	0.0	269.15735697746277	
57	253.67981839179993	pulse	1	t		55.0	2.5	/experiments/Knapen_AOT/AOT_stimuli/rescaled_final/1761_rv.mp4	0.0	270.75749135017395	
57	254.20469164848328	fix_post	2		12	55.0	2.5	/experiments/Knapen_AOT/AOT_stimuli/rescaled_final/1761_rv.mp4	0.0	271.2823646068573	0.10001778602600098
58	254.30470943450928	fix_pre	0		118	56.0	2.5	/experiments/Knapen_AOT/AOT_stimuli/rescaled_final/0797_rv.mp4	0.0	271.3823823928833	0.9918303489685059
58	255.28030967712402	pulse	0	t		56.0	2.5	/experiments/Knapen_AOT/AOT_stimuli/rescaled_final/0797_rv.mp4	0.0	272.35798263549805	
58	255.29653978347778	movie	1		287	56.0	2.5	/experiments/Knapen_AOT/AOT_stimuli/rescaled_final/0797_rv.mp4	0.0	272.3742127418518	2.500361919403076
58	256.8803539276123	pulse	1	t		56.0	2.5	/experiments/Knapen_AOT/AOT_stimuli/rescaled_final/0797_rv.mp4	0.0	273.9580268859863	
58	257.79690170288086	fix_post	2		12	56.0	2.5	/experiments/Knapen_AOT/AOT_stimuli/rescaled_final/0797_rv.mp4	0.0	274.8745746612549	0.10001564025878906
59	257.89691734313965	fix_pre	0		120	57.0	2.5	/experiments/Knapen_AOT/AOT_stimuli/rescaled_final/1499_rv.mp4	0.0	274.9745903015137	1.0084993839263916
59	258.48061537742615	pulse	0	t		57.0	2.5	/experiments/Knapen_AOT/AOT_stimuli/rescaled_final/1499_rv.mp4	0.0	275.55828833580017	
59	258.90541672706604	movie	1		290	57.0	2.5	/experiments/Knapen_AOT/AOT_stimuli/rescaled_final/1499_rv.mp4	0.0	275.98308968544006	2.4920196533203125
59	260.08086585998535	pulse	1	t		57.0	2.5	/experiments/Knapen_AOT/AOT_stimuli/rescaled_final/1499_rv.mp4	0.0	277.1585388183594	
59	261.39743638038635	fix_post	2		12	57.0	2.5	/experiments/Knapen_AOT/AOT_stimuli/rescaled_final/1499_rv.mp4	0.0	278.4751093387604	0.10001611709594727
60	261.4974524974823	fix_pre	0		120	58.0	2.5	/experiments/Knapen_AOT/AOT_stimuli/rescaled_final/0031_rv.mp4	0.0	278.5751254558563	1.008615255355835
60	261.6809961795807	pulse	0	t		58.0	2.5	/experiments/Knapen_AOT/AOT_stimuli/rescaled_final/0031_rv.mp4	0.0	278.7586691379547	
60	262.50606775283813	movie	1		294	58.0	2.5	/experiments/Knapen_AOT/AOT_stimuli/rescaled_final/0031_rv.mp4	0.0	279.58374071121216	2.491877555847168
60	263.28115677833557	pulse	1	t		58.0	2.5	/experiments/Knapen_AOT/AOT_stimuli/rescaled_final/0031_rv.mp4	0.0	280.3588297367096	
60	264.88138723373413	pulse	1	t		58.0	2.5	/experiments/Knapen_AOT/AOT_stimuli/rescaled_final/0031_rv.mp4	0.0	281.95906019210815	
60	264.9979453086853	fix_post	2		12	58.0	2.5	/experiments/Knapen_AOT/AOT_stimuli/rescaled_final/0031_rv.mp4	0.0	282.0756182670593	0.10004258155822754
61	265.09798789024353	fix_pre	0		120	59.0	2.5	/experiments/Knapen_AOT/AOT_stimuli/rescaled_final/2140_fw.mp4	0.0	282.17566084861755	1.0084879398345947
61	266.1064758300781	movie	1		290	59.0	2.5	/experiments/Knapen_AOT/AOT_stimuli/rescaled_final/2140_fw.mp4	0.0	283.18414878845215	2.4920289516448975
61	266.4796450138092	pulse	1	t		59.0	2.5	/experiments/Knapen_AOT/AOT_stimuli/rescaled_final/2140_fw.mp4	0.0	283.5573179721832	
61	268.07989835739136	pulse	1	t		59.0	2.5	/experiments/Knapen_AOT/AOT_stimuli/rescaled_final/2140_fw.mp4	0.0	285.1575713157654	
61	268.598504781723	fix_post	2		12	59.0	2.5	/experiments/Knapen_AOT/AOT_stimuli/rescaled_final/2140_fw.mp4	0.0	285.67617774009705	0.09998607635498047
62	268.698490858078	fix_pre	0		119	60.0	2.5	/experiments/Knapen_AOT/AOT_stimuli/rescaled_final/0629_rv.mp4	0.0	285.776163816452	1.0003244876861572
62	269.68220686912537	pulse	0	t		60.0	2.5	/experiments/Knapen_AOT/AOT_stimuli/rescaled_final/0629_rv.mp4	0.0	286.7598798274994	
62	269.69881534576416	movie	1		294	60.0	2.5	/experiments/Knapen_AOT/AOT_stimuli/rescaled_final/0629_rv.mp4	0.0	286.7764883041382	2.5002360343933105
62	271.28289818763733	pulse	1	t		60.0	2.5	/experiments/Knapen_AOT/AOT_stimuli/rescaled_final/0629_rv.mp4	0.0	288.36057114601135	
62	272.19905138015747	fix_post	2		12	60.0	2.5	/experiments/Knapen_AOT/AOT_stimuli/rescaled_final/0629_rv.mp4	0.0	289.2767243385315	0.10001945495605469
63	272.2990708351135	fix_pre	0		120	61.0	2.5	blank	1.0	289.37674379348755	1.0001425743103027
63	272.8825979232788	pulse	0	t		61.0	2.5	blank	1.0	289.96027088165283	
63	273.2992134094238	movie	1		300	61.0	2.5	blank	1.0	290.37688636779785	2.5004024505615234
63	274.48306798934937	pulse	1	t		61.0	2.5	blank	1.0	291.5607409477234	
63	275.79961585998535	fix_post	2		12	61.0	2.5	blank	1.0	292.8772888183594	0.1000053882598877
64	275.89962124824524	fix_pre	0		120	62.0	2.5	/experiments/Knapen_AOT/AOT_stimuli/rescaled_final/0647_fw.mp4	0.0	292.97729420661926	1.008514404296875
64	276.0834164619446	pulse	0	t		62.0	2.5	/experiments/Knapen_AOT/AOT_stimuli/rescaled_final/0647_fw.mp4	0.0	293.1610894203186	
64	276.9081356525421	movie	1		281	62.0	2.5	/experiments/Knapen_AOT/AOT_stimuli/rescaled_final/0647_fw.mp4	0.0	293.98580861091614	2.4921255111694336
64	277.6816155910492	pulse	1	t		62.0	2.5	/experiments/Knapen_AOT/AOT_stimuli/rescaled_final/0647_fw.mp4	0.0	294.7592885494232	
64	279.2818329334259	pulse	1	t		62.0	2.5	/experiments/Knapen_AOT/AOT_stimuli/rescaled_final/0647_fw.mp4	0.0	296.3595058917999	
64	279.40026116371155	fix_post	2		12	62.0	2.5	/experiments/Knapen_AOT/AOT_stimuli/rescaled_final/0647_fw.mp4	0.0	296.47793412208557	0.09991025924682617
65	279.5001714229584	fix_pre	0		120	63.0	2.5	/experiments/Knapen_AOT/AOT_stimuli/rescaled_final/0696_rv.mp4	0.0	296.5778443813324	1.008523941040039
65	280.5086953639984	movie	1		277	63.0	2.5	/experiments/Knapen_AOT/AOT_stimuli/rescaled_final/0696_rv.mp4	0.0	297.58636832237244	2.4836714267730713
65	280.88369154930115	pulse	1	t		63.0	2.5	/experiments/Knapen_AOT/AOT_stimuli/rescaled_final/0696_rv.mp4	0.0	297.96136450767517	
65	282.4831259250641	pulse	1	t		63.0	2.5	/experiments/Knapen_AOT/AOT_stimuli/rescaled_final/0696_rv.mp4	0.0	299.5607988834381	
65	282.9923667907715	fix_post	2		12	63.0	2.5	/experiments/Knapen_AOT/AOT_stimuli/rescaled_final/0696_rv.mp4	0.0	300.0700397491455	0.09997963905334473
66	283.09234642982483	fix_pre	0		120	64.0	2.5	/experiments/Knapen_AOT/AOT_stimuli/rescaled_final/0696_fw.mp4	0.0	300.17001938819885	1.0085797309875488
66	284.08451414108276	pulse	0	t		64.0	2.5	/experiments/Knapen_AOT/AOT_stimuli/rescaled_final/0696_fw.mp4	0.0	301.1621870994568	
66	284.1009261608124	movie	1		283	64.0	2.5	/experiments/Knapen_AOT/AOT_stimuli/rescaled_final/0696_fw.mp4	0.0	301.1785991191864	2.5003132820129395
66	285.68314003944397	pulse	1	t		64.0	2.5	/experiments/Knapen_AOT/AOT_stimuli/rescaled_final/0696_fw.mp4	0.0	302.760812997818	
66	286.6012394428253	fix_post	2		12	64.0	2.5	/experiments/Knapen_AOT/AOT_stimuli/rescaled_final/0696_fw.mp4	0.0	303.67891240119934	0.10000872611999512
67	286.7012481689453	fix_pre	0		120	65.0	2.5	/experiments/Knapen_AOT/AOT_stimuli/rescaled_final/0680_fw.mp4	0.0	303.77892112731934	1.008537769317627
67	287.2850193977356	pulse	0	t		65.0	2.5	/experiments/Knapen_AOT/AOT_stimuli/rescaled_final/0680_fw.mp4	0.0	304.3626923561096	
67	287.70978593826294	movie	1		273	65.0	2.5	/experiments/Knapen_AOT/AOT_stimuli/rescaled_final/0680_fw.mp4	0.0	304.78745889663696	2.492091417312622
67	288.88307189941406	pulse	1	t		65.0	2.5	/experiments/Knapen_AOT/AOT_stimuli/rescaled_final/0680_fw.mp4	0.0	305.9607448577881	
67	290.20187735557556	fix_post	2		12	65.0	2.5	/experiments/Knapen_AOT/AOT_stimuli/rescaled_final/0680_fw.mp4	0.0	307.2795503139496	0.09994673728942871
68	290.301824092865	fix_pre	0		120	66.0	2.5	/experiments/Knapen_AOT/AOT_stimuli/rescaled_final/1587_fw.mp4	0.0	307.379497051239	1.0085663795471191
68	290.48536443710327	pulse	0	t		66.0	2.5	/experiments/Knapen_AOT/AOT_stimuli/rescaled_final/1587_fw.mp4	0.0	307.5630373954773	
68	291.3103904724121	movie	1		278	66.0	2.5	/experiments/Knapen_AOT/AOT_stimuli/rescaled_final/1587_fw.mp4	0.0	308.38806343078613	2.491938591003418
68	292.0853044986725	pulse	1	t		66.0	2.5	/experiments/Knapen_AOT/AOT_stimuli/rescaled_final/1587_fw.mp4	0.0	309.1629774570465	
68	293.6847915649414	pulse	1	t		66.0	2.5	/experiments/Knapen_AOT/AOT_stimuli/rescaled_final/1587_fw.mp4	0.0	310.76246452331543	
68	293.8023290634155	fix_post	2		12	66.0	2.5	/experiments/Knapen_AOT/AOT_stimuli/rescaled_final/1587_fw.mp4	0.0	310.88000202178955	0.10010075569152832
69	293.90242981910706	fix_pre	0		120	67.0	2.5	/experiments/Knapen_AOT/AOT_stimuli/rescaled_final/0620_rv.mp4	0.0	310.9801027774811	1.0084359645843506
69	294.9108657836914	movie	1		287	67.0	2.5	/experiments/Knapen_AOT/AOT_stimuli/rescaled_final/0620_rv.mp4	0.0	311.98853874206543	2.4920101165771484
69	295.2848515510559	pulse	1	t		67.0	2.5	/experiments/Knapen_AOT/AOT_stimuli/rescaled_final/0620_rv.mp4	0.0	312.36252450942993	
69	296.88458943367004	pulse	1	t		67.0	2.5	/experiments/Knapen_AOT/AOT_stimuli/rescaled_final/0620_rv.mp4	0.0	313.96226239204407	
69	297.40287590026855	fix_post	2		12	67.0	2.5	/experiments/Knapen_AOT/AOT_stimuli/rescaled_final/0620_rv.mp4	0.0	314.4805488586426	0.09999918937683105
70	297.5028750896454	fix_pre	0		119	68.0	2.5	/experiments/Knapen_AOT/AOT_stimuli/rescaled_final/1436_rv.mp4	0.0	314.5805480480194	1.0086307525634766
70	298.4868016242981	pulse	0	t		68.0	2.5	/experiments/Knapen_AOT/AOT_stimuli/rescaled_final/1436_rv.mp4	0.0	315.5644745826721	
70	298.51150584220886	movie	1		281	68.0	2.5	/experiments/Knapen_AOT/AOT_stimuli/rescaled_final/1436_rv.mp4	0.0	315.5891788005829	2.4919090270996094
70	300.07874846458435	pulse	1	t		68.0	2.5	/experiments/Knapen_AOT/AOT_stimuli/rescaled_final/1436_rv.mp4	0.0	317.1564214229584	
70	301.0034148693085	fix_post	2		12	68.0	2.5	/experiments/Knapen_AOT/AOT_stimuli/rescaled_final/1436_rv.mp4	0.0	318.0810878276825	0.10000753402709961
71	301.10342240333557	fix_pre	0		120	69.0	2.5	/experiments/Knapen_AOT/AOT_stimuli/rescaled_final/0271_rv.mp4	0.0	318.1810953617096	1.0085241794586182
71	301.6875183582306	pulse	0	t		69.0	2.5	/experiments/Knapen_AOT/AOT_stimuli/rescaled_final/0271_rv.mp4	0.0	318.7651913166046	
71	302.1119465827942	movie	1		277	69.0	2.5	/experiments/Knapen_AOT/AOT_stimuli/rescaled_final/0271_rv.mp4	0.0	319.1896195411682	2.4920051097869873
71	303.28758549690247	pulse	1	t		69.0	2.5	/experiments/Knapen_AOT/AOT_stimuli/rescaled_final/0271_rv.mp4	0.0	320.3652584552765	
71	304.6039516925812	fix_post	2		12	69.0	2.5	/experiments/Knapen_AOT/AOT_stimuli/rescaled_final/0271_rv.mp4	0.0	321.6816246509552	0.1000204086303711
72	304.70397210121155	fix_pre	0		120	70.0	2.5	blank	1.0	321.78164505958557	1.000138521194458
72	304.8807199001312	pulse	0	t		70.0	2.5	blank	1.0	321.95839285850525	
72	305.704110622406	movie	1		300	70.0	2.5	blank	1.0	322.78178358078003	2.500377893447876
72	306.47958064079285	pulse	1	t		70.0	2.5	blank	1.0	323.55725359916687	
72	308.079717874527	pulse	1	t		70.0	2.5	blank	1.0	325.157390832901	
72	308.2044885158539	fix_post	2		12	70.0	2.5	blank	1.0	325.2821614742279	0.10005545616149902
73	308.3045439720154	fix_pre	0		120	71.0	2.5	/experiments/Knapen_AOT/AOT_stimuli/rescaled_final/1447_fw.mp4	0.0	325.3822169303894	1.0084543228149414
73	309.3129982948303	movie	1		285	71.0	2.5	/experiments/Knapen_AOT/AOT_stimuli/rescaled_final/1447_fw.mp4	0.0	326.39067125320435	2.4920406341552734
73	309.6789610385895	pulse	1	t		71.0	2.5	/experiments/Knapen_AOT/AOT_stimuli/rescaled_final/1447_fw.mp4	0.0	326.7566339969635	
73	311.28025364875793	pulse	1	t		71.0	2.5	/experiments/Knapen_AOT/AOT_stimuli/rescaled_final/1447_fw.mp4	0.0	328.35792660713196	
73	311.8050389289856	fix_post	2		12	71.0	2.5	/experiments/Knapen_AOT/AOT_stimuli/rescaled_final/1447_fw.mp4	0.0	328.8827118873596	0.10001063346862793
74	311.9050495624542	fix_pre	0		118	72.0	2.5	/experiments/Knapen_AOT/AOT_stimuli/rescaled_final/0817_fw.mp4	0.0	328.98272252082825	0.9918129444122314
74	312.88069319725037	pulse	0	t		72.0	2.5	/experiments/Knapen_AOT/AOT_stimuli/rescaled_final/0817_fw.mp4	0.0	329.9583661556244	
74	312.89686250686646	movie	1		274	72.0	2.5	/experiments/Knapen_AOT/AOT_stimuli/rescaled_final/0817_fw.mp4	0.0	329.9745354652405	2.500387668609619
74	314.4801506996155	pulse	1	t		72.0	2.5	/experiments/Knapen_AOT/AOT_stimuli/rescaled_final/0817_fw.mp4	0.0	331.5578236579895	
74	315.3972501754761	fix_post	2		12	72.0	2.5	/experiments/Knapen_AOT/AOT_stimuli/rescaled_final/0817_fw.mp4	0.0	332.4749231338501	0.1000051498413086
75	315.4972553253174	fix_pre	0		120	73.0	2.5	/experiments/Knapen_AOT/AOT_stimuli/rescaled_final/0272_fw.mp4	0.0	332.5749282836914	1.0085391998291016
75	316.08087396621704	pulse	0	t		73.0	2.5	/experiments/Knapen_AOT/AOT_stimuli/rescaled_final/0272_fw.mp4	0.0	333.15854692459106	
75	316.5057945251465	movie	1		275	73.0	2.5	/experiments/Knapen_AOT/AOT_stimuli/rescaled_final/0272_fw.mp4	0.0	333.5834674835205	2.4919567108154297
75	317.67908000946045	pulse	1	t		73.0	2.5	/experiments/Knapen_AOT/AOT_stimuli/rescaled_final/0272_fw.mp4	0.0	334.7567529678345	
75	318.9977512359619	fix_post	2		12	73.0	2.5	/experiments/Knapen_AOT/AOT_stimuli/rescaled_final/0272_fw.mp4	0.0	336.07542419433594	0.10004758834838867
76	319.0977988243103	fix_pre	0		120	74.0	2.5	/experiments/Knapen_AOT/AOT_stimuli/rescaled_final/1720_rv.mp4	0.0	336.1754717826843	1.0084795951843262
76	319.2814242839813	pulse	0	t		74.0	2.5	/experiments/Knapen_AOT/AOT_stimuli/rescaled_final/1720_rv.mp4	0.0	336.35909724235535	
76	320.10627841949463	movie	1		270	74.0	2.5	/experiments/Knapen_AOT/AOT_stimuli/rescaled_final/1720_rv.mp4	0.0	337.18395137786865	2.4920496940612793
76	320.88033747673035	pulse	1	t		74.0	2.5	/experiments/Knapen_AOT/AOT_stimuli/rescaled_final/1720_rv.mp4	0.0	337.95801043510437	
76	322.48295521736145	pulse	1	t		74.0	2.5	/experiments/Knapen_AOT/AOT_stimuli/rescaled_final/1720_rv.mp4	0.0	339.5606281757355	
76	322.5983281135559	fix_post	2		12	74.0	2.5	/experiments/Knapen_AOT/AOT_stimuli/rescaled_final/1720_rv.mp4	0.0	339.67600107192993	0.09999752044677734
77	322.6983256340027	fix_pre	0		120	75.0	2.5	blank	1.0	339.7759985923767	1.000152587890625
77	323.6984782218933	movie	1		300	75.0	2.5	blank	1.0	340.77615118026733	2.5003998279571533
77	324.0821952819824	pulse	1	t		75.0	2.5	blank	1.0	341.15986824035645	
77	325.68233036994934	pulse	1	t		75.0	2.5	blank	1.0	342.76000332832336	
77	326.19887804985046	fix_post	2		11	75.0	2.5	blank	1.0	343.2765510082245	0.1000063419342041
78	326.29888439178467	fix_pre	0		119	76.0	2.5	/experiments/Knapen_AOT/AOT_stimuli/rescaled_final/0514_fw.mp4	0.0	343.3765573501587	1.0086297988891602
78	327.282591342926	pulse	0	t		76.0	2.5	/experiments/Knapen_AOT/AOT_stimuli/rescaled_final/0514_fw.mp4	0.0	344.36026430130005	
78	327.3075141906738	movie	1		273	76.0	2.5	/experiments/Knapen_AOT/AOT_stimuli/rescaled_final/0514_fw.mp4	0.0	344.38518714904785	2.4918973445892334
78	328.88120579719543	pulse	1	t		76.0	2.5	/experiments/Knapen_AOT/AOT_stimuli/rescaled_final/0514_fw.mp4	0.0	345.95887875556946	
78	329.79941153526306	fix_post	2		12	76.0	2.5	/experiments/Knapen_AOT/AOT_stimuli/rescaled_final/0514_fw.mp4	0.0	346.8770844936371	0.10001540184020996
79	329.89942693710327	fix_pre	0		120	77.0	2.5	/experiments/Knapen_AOT/AOT_stimuli/rescaled_final/0638_fw.mp4	0.0	346.9770998954773	1.0085136890411377
79	330.48306035995483	pulse	0	t		77.0	2.5	/experiments/Knapen_AOT/AOT_stimuli/rescaled_final/0638_fw.mp4	0.0	347.56073331832886	
79	330.9079406261444	movie	1		280	77.0	2.5	/experiments/Knapen_AOT/AOT_stimuli/rescaled_final/0638_fw.mp4	0.0	347.98561358451843	2.492013454437256
79	332.08357548713684	pulse	1	t		77.0	2.5	/experiments/Knapen_AOT/AOT_stimuli/rescaled_final/0638_fw.mp4	0.0	349.16124844551086	
79	333.39995408058167	fix_post	2		12	77.0	2.5	/experiments/Knapen_AOT/AOT_stimuli/rescaled_final/0638_fw.mp4	0.0	350.4776270389557	0.10001111030578613
80	333.49996519088745	fix_pre	0		120	78.0	2.5	/experiments/Knapen_AOT/AOT_stimuli/rescaled_final/1859_rv.mp4	0.0	350.5776381492615	1.0085136890411377
80	333.68379044532776	pulse	0	t		78.0	2.5	/experiments/Knapen_AOT/AOT_stimuli/rescaled_final/1859_rv.mp4	0.0	350.7614634037018	
80	334.5084788799286	movie	1		276	78.0	2.5	/experiments/Knapen_AOT/AOT_stimuli/rescaled_final/1859_rv.mp4	0.0	351.5861518383026	2.4920060634613037
80	335.28192687034607	pulse	1	t		78.0	2.5	/experiments/Knapen_AOT/AOT_stimuli/rescaled_final/1859_rv.mp4	0.0	352.3595998287201	
80	336.8821601867676	pulse	1	t		78.0	2.5	/experiments/Knapen_AOT/AOT_stimuli/rescaled_final/1859_rv.mp4	0.0	353.9598331451416	
80	337.0004849433899	fix_post	2		12	78.0	2.5	/experiments/Knapen_AOT/AOT_stimuli/rescaled_final/1859_rv.mp4	0.0	354.0781579017639	0.10009479522705078
81	337.10057973861694	fix_pre	0		120	79.0	2.5	/experiments/Knapen_AOT/AOT_stimuli/rescaled_final/1549_rv.mp4	0.0	354.17825269699097	1.0084168910980225
81	338.10899662971497	movie	1		273	79.0	2.5	/experiments/Knapen_AOT/AOT_stimuli/rescaled_final/1549_rv.mp4	0.0	355.186669588089	2.492023229598999
81	338.4830846786499	pulse	1	t		79.0	2.5	/experiments/Knapen_AOT/AOT_stimuli/rescaled_final/1549_rv.mp4	0.0	355.5607576370239	
81	340.0841019153595	pulse	1	t		79.0	2.5	/experiments/Knapen_AOT/AOT_stimuli/rescaled_final/1549_rv.mp4	0.0	357.1617748737335	
81	340.60101985931396	fix_post	2		12	79.0	2.5	/experiments/Knapen_AOT/AOT_stimuli/rescaled_final/1549_rv.mp4	0.0	357.678692817688	0.10003161430358887
82	340.70105147361755	fix_pre	0		119	80.0	2.5	/experiments/Knapen_AOT/AOT_stimuli/rescaled_final/1552_fw.mp4	0.0	357.7787244319916	1.0001413822174072
82	341.68482875823975	pulse	0	t		80.0	2.5	/experiments/Knapen_AOT/AOT_stimuli/rescaled_final/1552_fw.mp4	0.0	358.76250171661377	
82	341.70119285583496	movie	1		260	80.0	2.5	/experiments/Knapen_AOT/AOT_stimuli/rescaled_final/1552_fw.mp4	0.0	358.778865814209	2.500389575958252
82	343.285160779953	pulse	1	t		80.0	2.5	/experiments/Knapen_AOT/AOT_stimuli/rescaled_final/1552_fw.mp4	0.0	360.362833738327	
82	344.2015824317932	fix_post	2		12	80.0	2.5	/experiments/Knapen_AOT/AOT_stimuli/rescaled_final/1552_fw.mp4	0.0	361.27925539016724	0.10002851486206055
83	344.3016109466553	fix_pre	0		120	81.0	2.5	/experiments/Knapen_AOT/AOT_stimuli/rescaled_final/0570_rv.mp4	0.0	361.3792839050293	1.0084712505340576
83	344.88526821136475	pulse	0	t		81.0	2.5	/experiments/Knapen_AOT/AOT_stimuli/rescaled_final/0570_rv.mp4	0.0	361.96294116973877	
83	345.31008219718933	movie	1		256	81.0	2.5	/experiments/Knapen_AOT/AOT_stimuli/rescaled_final/0570_rv.mp4	0.0	362.38775515556335	2.492037773132324
83	346.4840805530548	pulse	1	t		81.0	2.5	/experiments/Knapen_AOT/AOT_stimuli/rescaled_final/0570_rv.mp4	0.0	363.56175351142883	
83	347.80211997032166	fix_post	2		12	81.0	2.5	/experiments/Knapen_AOT/AOT_stimuli/rescaled_final/0570_rv.mp4	0.0	364.8797929286957	0.10004353523254395
84	347.9021635055542	fix_pre	0		120	82.0	2.5	/experiments/Knapen_AOT/AOT_stimuli/rescaled_final/1180_rv.mp4	0.0	364.9798364639282	1.0084738731384277
84	348.0856864452362	pulse	0	t		82.0	2.5	/experiments/Knapen_AOT/AOT_stimuli/rescaled_final/1180_rv.mp4	0.0	365.16335940361023	
84	348.9106373786926	movie	1		269	82.0	2.5	/experiments/Knapen_AOT/AOT_stimuli/rescaled_final/1180_rv.mp4	0.0	365.98831033706665	2.492074966430664
84	349.6838126182556	pulse	1	t		82.0	2.5	/experiments/Knapen_AOT/AOT_stimuli/rescaled_final/1180_rv.mp4	0.0	366.76148557662964	
84	351.28659677505493	pulse	1	t		82.0	2.5	/experiments/Knapen_AOT/AOT_stimuli/rescaled_final/1180_rv.mp4	0.0	368.36426973342896	
84	351.4027123451233	fix_post	2		12	82.0	2.5	/experiments/Knapen_AOT/AOT_stimuli/rescaled_final/1180_rv.mp4	0.0	368.4803853034973	0.10015630722045898
85	351.50286865234375	fix_pre	0		120	83.0	2.5	blank	1.0	368.5805416107178	0.999962568283081
85	352.50283122062683	movie	1		300	83.0	2.5	blank	1.0	369.58050417900085	2.5003678798675537
85	352.87942600250244	pulse	1	t		83.0	2.5	blank	1.0	369.95709896087646	
85	354.48679780960083	pulse	1	t		83.0	2.5	blank	1.0	371.56447076797485	
85	355.0031991004944	fix_post	2		11	83.0	2.5	blank	1.0	372.0808720588684	0.10001587867736816
87	355.10321497917175	stim	0		1715					372.1808879375458	14.293796062469482
87	356.0797483921051	pulse	0	t						373.1574213504791	
87	357.6790933609009	pulse	0	t						374.7567663192749	
87	359.2791061401367	pulse	0	t						376.35677909851074	
87	360.879282951355	pulse	0	t						377.956955909729	
87	362.4796977043152	pulse	0	t						379.5573706626892	
87	364.07982206344604	pulse	0	t						381.15749502182007	
87	365.68023586273193	pulse	0	t						382.75790882110596	
87	367.28022623062134	pulse	0	t						384.35789918899536	
87	368.88091707229614	pulse	0	t						385.95859003067017	
