trial_nr	onset	event_type	phase	response	nr_frames	movie_index	movie_duration	movie_file	blank	onset_abs	duration
0	0.18313097953796387	stim	0		44					22.101058959960938	0.3666810989379883
0	0.5417680740356445	response	0	space						22.459696054458618	
1	0.5498120784759521	stim	0		4672					22.467740058898926	38.948466062545776
1	39.488325119018555	pulse	0	t						61.40625309944153	
1	39.49827814102173	stim	1		1716					61.4162061214447	14.301230907440186
1	41.08111119270325	pulse	1	t						62.99903917312622	
1	42.68135213851929	pulse	1	t						64.59928011894226	
1	44.28153705596924	pulse	1	t						66.19946503639221	
1	45.88183116912842	pulse	1	t						67.79975914955139	
1	47.48205804824829	pulse	1	t						69.39998602867126	
1	49.082184076309204	pulse	1	t						71.00011205673218	
1	50.68248915672302	pulse	1	t						72.600417137146	
1	52.28275799751282	pulse	1	t						74.20068597793579	
2	53.799509048461914	fix_pre	0		11	0.0	2.5	/experiments/knapen_AOT/AOT_stimuli/rescaled_final/1222_rv.mp4	0.0	75.71743702888489	0.09158110618591309
2	53.88300108909607	pulse	0	t		0.0	2.5	/experiments/knapen_AOT/AOT_stimuli/rescaled_final/1222_rv.mp4	0.0	75.80092906951904	
2	53.89109015464783	movie	1		243	0.0	2.5	/experiments/knapen_AOT/AOT_stimuli/rescaled_final/1222_rv.mp4	0.0	75.8090181350708	2.5087380409240723
2	55.48364210128784	pulse	1	t		0.0	2.5	/experiments/knapen_AOT/AOT_stimuli/rescaled_final/1222_rv.mp4	0.0	77.40157008171082	
2	56.3998281955719	fix_post	2		12	0.0	2.5	/experiments/knapen_AOT/AOT_stimuli/rescaled_final/1222_rv.mp4	0.0	78.31775617599487	0.10005593299865723
3	56.49988412857056	fix_pre	0		120	1.0	2.5	/experiments/knapen_AOT/AOT_stimuli/rescaled_final/0428_rv.mp4	0.0	78.41781210899353	1.0000948905944824
3	57.08343315124512	pulse	0	t		1.0	2.5	/experiments/knapen_AOT/AOT_stimuli/rescaled_final/0428_rv.mp4	0.0	79.00136113166809	
3	57.49997901916504	movie	1		245	1.0	2.5	/experiments/knapen_AOT/AOT_stimuli/rescaled_final/0428_rv.mp4	0.0	79.41790699958801	2.5003581047058105
3	58.68381404876709	pulse	1	t		1.0	2.5	/experiments/knapen_AOT/AOT_stimuli/rescaled_final/0428_rv.mp4	0.0	80.60174202919006	
3	60.00033712387085	fix_post	2		12	1.0	2.5	/experiments/knapen_AOT/AOT_stimuli/rescaled_final/0428_rv.mp4	0.0	81.91826510429382	0.10003089904785156
4	60.1003680229187	fix_pre	0		120	2.0	2.5	/experiments/knapen_AOT/AOT_stimuli/rescaled_final/0960_fw.mp4	0.0	82.01829600334167	1.0001261234283447
4	60.283995151519775	pulse	0	t		2.0	2.5	/experiments/knapen_AOT/AOT_stimuli/rescaled_final/0960_fw.mp4	0.0	82.20192313194275	
4	61.100494146347046	movie	1		243	2.0	2.5	/experiments/knapen_AOT/AOT_stimuli/rescaled_final/0960_fw.mp4	0.0	83.01842212677002	2.5003879070281982
4	61.884188175201416	pulse	1	t		2.0	2.5	/experiments/knapen_AOT/AOT_stimuli/rescaled_final/0960_fw.mp4	0.0	83.80211615562439	
4	63.48430109024048	pulse	1	t		2.0	2.5	/experiments/knapen_AOT/AOT_stimuli/rescaled_final/0960_fw.mp4	0.0	85.40222907066345	
4	63.600882053375244	fix_post	2		12	2.0	2.5	/experiments/knapen_AOT/AOT_stimuli/rescaled_final/0960_fw.mp4	0.0	85.51881003379822	0.10002708435058594
5	63.70090913772583	fix_pre	0		120	3.0	2.5	/experiments/knapen_AOT/AOT_stimuli/rescaled_final/1198_fw.mp4	0.0	85.6188371181488	1.0001518726348877
5	64.70106101036072	movie	1		242	3.0	2.5	/experiments/knapen_AOT/AOT_stimuli/rescaled_final/1198_fw.mp4	0.0	86.61898899078369	2.4920260906219482
5	65.0851571559906	pulse	1	t		3.0	2.5	/experiments/knapen_AOT/AOT_stimuli/rescaled_final/1198_fw.mp4	0.0	87.00308513641357	
5	66.67753314971924	pulse	1	t		3.0	2.5	/experiments/knapen_AOT/AOT_stimuli/rescaled_final/1198_fw.mp4	0.0	88.59546113014221	
5	67.19308710098267	fix_post	2		12	3.0	2.5	/experiments/knapen_AOT/AOT_stimuli/rescaled_final/1198_fw.mp4	0.0	89.11101508140564	0.10003995895385742
6	67.29312705993652	fix_pre	0		120	4.0	2.5	/experiments/knapen_AOT/AOT_stimuli/rescaled_final/0270_rv.mp4	0.0	89.2110550403595	1.0001399517059326
6	68.27767419815063	pulse	0	t		4.0	2.5	/experiments/knapen_AOT/AOT_stimuli/rescaled_final/0270_rv.mp4	0.0	90.19560217857361	
6	68.29326701164246	movie	1		244	4.0	2.5	/experiments/knapen_AOT/AOT_stimuli/rescaled_final/0270_rv.mp4	0.0	90.21119499206543	2.508690118789673
6	69.8771071434021	pulse	1	t		4.0	2.5	/experiments/knapen_AOT/AOT_stimuli/rescaled_final/0270_rv.mp4	0.0	91.79503512382507	
6	70.80195713043213	fix_post	2		12	4.0	2.5	/experiments/knapen_AOT/AOT_stimuli/rescaled_final/0270_rv.mp4	0.0	92.7198851108551	0.10004997253417969
7	70.90200710296631	fix_pre	0		120	5.0	2.5	/experiments/knapen_AOT/AOT_stimuli/rescaled_final/0118_fw.mp4	0.0	92.81993508338928	1.000140905380249
7	71.47729516029358	pulse	0	t		5.0	2.5	/experiments/knapen_AOT/AOT_stimuli/rescaled_final/0118_fw.mp4	0.0	93.39522314071655	
7	71.90214800834656	movie	1		243	5.0	2.5	/experiments/knapen_AOT/AOT_stimuli/rescaled_final/0118_fw.mp4	0.0	93.82007598876953	2.5003809928894043
7	73.07907915115356	pulse	1	t		5.0	2.5	/experiments/knapen_AOT/AOT_stimuli/rescaled_final/0118_fw.mp4	0.0	94.99700713157654	
7	74.40252900123596	fix_post	2		12	5.0	2.5	/experiments/knapen_AOT/AOT_stimuli/rescaled_final/0118_fw.mp4	0.0	96.32045698165894	0.10003900527954102
8	74.5025680065155	fix_pre	0		120	6.0	2.5	/experiments/knapen_AOT/AOT_stimuli/rescaled_final/1617_fw.mp4	0.0	96.42049598693848	1.0001111030578613
8	74.67782020568848	pulse	0	t		6.0	2.5	/experiments/knapen_AOT/AOT_stimuli/rescaled_final/1617_fw.mp4	0.0	96.59574818611145	
8	75.50267910957336	movie	1		243	6.0	2.5	/experiments/knapen_AOT/AOT_stimuli/rescaled_final/1617_fw.mp4	0.0	97.42060708999634	2.5003550052642822
8	76.27802801132202	pulse	1	t		6.0	2.5	/experiments/knapen_AOT/AOT_stimuli/rescaled_final/1617_fw.mp4	0.0	98.195955991745	
8	77.87821817398071	pulse	1	t		6.0	2.5	/experiments/knapen_AOT/AOT_stimuli/rescaled_final/1617_fw.mp4	0.0	99.79614615440369	
8	78.00303411483765	fix_post	2		12	6.0	2.5	/experiments/knapen_AOT/AOT_stimuli/rescaled_final/1617_fw.mp4	0.0	99.92096209526062	0.10003900527954102
9	78.10307312011719	fix_pre	0		119	7.0	2.5	blank	1.0	100.02100110054016	0.9917879104614258
9	79.09486103057861	movie	1		300	7.0	2.5	blank	1.0	101.01278901100159	2.5003721714019775
9	79.47853398323059	pulse	1	t		7.0	2.5	blank	1.0	101.39646196365356	
9	81.07865118980408	pulse	1	t		7.0	2.5	blank	1.0	102.99657917022705	
9	81.59523320198059	fix_post	2		12	7.0	2.5	blank	1.0	103.51316118240356	0.10006189346313477
10	81.69529509544373	fix_pre	0		119	8.0	2.5	/experiments/knapen_AOT/AOT_stimuli/rescaled_final/0511_fw.mp4	0.0	103.6132230758667	0.9917700290679932
10	82.67904114723206	pulse	0	t		8.0	2.5	/experiments/knapen_AOT/AOT_stimuli/rescaled_final/0511_fw.mp4	0.0	104.59696912765503	
10	82.68706512451172	movie	1		246	8.0	2.5	/experiments/knapen_AOT/AOT_stimuli/rescaled_final/0511_fw.mp4	0.0	104.60499310493469	2.5087130069732666
10	84.28340911865234	pulse	1	t		8.0	2.5	/experiments/knapen_AOT/AOT_stimuli/rescaled_final/0511_fw.mp4	0.0	106.20133709907532	
10	85.19577813148499	fix_post	2		12	8.0	2.5	/experiments/knapen_AOT/AOT_stimuli/rescaled_final/0511_fw.mp4	0.0	107.11370611190796	0.10005497932434082
11	85.29583311080933	fix_pre	0		120	9.0	2.5	/experiments/knapen_AOT/AOT_stimuli/rescaled_final/0590_fw.mp4	0.0	107.2137610912323	1.0001060962677002
11	85.87946200370789	pulse	0	t		9.0	2.5	/experiments/knapen_AOT/AOT_stimuli/rescaled_final/0590_fw.mp4	0.0	107.79738998413086	
11	86.29593920707703	movie	1		244	9.0	2.5	/experiments/knapen_AOT/AOT_stimuli/rescaled_final/0590_fw.mp4	0.0	108.2138671875	2.5004069805145264
11	87.47970414161682	pulse	1	t		9.0	2.5	/experiments/knapen_AOT/AOT_stimuli/rescaled_final/0590_fw.mp4	0.0	109.3976321220398	
11	88.79634618759155	fix_post	2		12	9.0	2.5	/experiments/knapen_AOT/AOT_stimuli/rescaled_final/0590_fw.mp4	0.0	110.71427416801453	0.10001993179321289
12	88.89636611938477	fix_pre	0		120	10.0	2.5	/experiments/knapen_AOT/AOT_stimuli/rescaled_final/1053_fw.mp4	0.0	110.81429409980774	1.0001389980316162
12	89.07987713813782	pulse	0	t		10.0	2.5	/experiments/knapen_AOT/AOT_stimuli/rescaled_final/1053_fw.mp4	0.0	110.99780511856079	
12	89.89650511741638	movie	1		243	10.0	2.5	/experiments/knapen_AOT/AOT_stimuli/rescaled_final/1053_fw.mp4	0.0	111.81443309783936	2.500370979309082
12	90.68011403083801	pulse	1	t		10.0	2.5	/experiments/knapen_AOT/AOT_stimuli/rescaled_final/1053_fw.mp4	0.0	112.59804201126099	
12	92.28048515319824	pulse	1	t		10.0	2.5	/experiments/knapen_AOT/AOT_stimuli/rescaled_final/1053_fw.mp4	0.0	114.19841313362122	
12	92.39687609672546	fix_post	2		12	10.0	2.5	/experiments/knapen_AOT/AOT_stimuli/rescaled_final/1053_fw.mp4	0.0	114.31480407714844	0.09998106956481934
13	92.49685716629028	fix_pre	0		120	11.0	2.5	/experiments/knapen_AOT/AOT_stimuli/rescaled_final/0084_fw.mp4	0.0	114.41478514671326	1.0001590251922607
13	93.49701619148254	movie	1		242	11.0	2.5	/experiments/knapen_AOT/AOT_stimuli/rescaled_final/0084_fw.mp4	0.0	115.41494417190552	2.4920568466186523
13	93.88117098808289	pulse	1	t		11.0	2.5	/experiments/knapen_AOT/AOT_stimuli/rescaled_final/0084_fw.mp4	0.0	115.79909896850586	
13	95.48084306716919	pulse	1	t		11.0	2.5	/experiments/knapen_AOT/AOT_stimuli/rescaled_final/0084_fw.mp4	0.0	117.39877104759216	
13	95.9890730381012	fix_post	2		12	11.0	2.5	/experiments/knapen_AOT/AOT_stimuli/rescaled_final/0084_fw.mp4	0.0	117.90700101852417	0.10001397132873535
14	96.08908700942993	fix_pre	0		120	12.0	2.5	/experiments/knapen_AOT/AOT_stimuli/rescaled_final/1953_rv.mp4	0.0	118.0070149898529	1.0002241134643555
14	97.08114218711853	pulse	0	t		12.0	2.5	/experiments/knapen_AOT/AOT_stimuli/rescaled_final/1953_rv.mp4	0.0	118.9990701675415	
14	97.08931112289429	movie	1		244	12.0	2.5	/experiments/knapen_AOT/AOT_stimuli/rescaled_final/1953_rv.mp4	0.0	119.00723910331726	2.508599042892456
14	98.68229818344116	pulse	1	t		12.0	2.5	/experiments/knapen_AOT/AOT_stimuli/rescaled_final/1953_rv.mp4	0.0	120.60022616386414	
14	99.59791016578674	fix_post	2		12	12.0	2.5	/experiments/knapen_AOT/AOT_stimuli/rescaled_final/1953_rv.mp4	0.0	121.51583814620972	0.10003805160522461
15	99.69794821739197	fix_pre	0		117	13.0	2.5	blank	1.0	121.61587619781494	1.0002028942108154
15	100.28165411949158	pulse	0	t		13.0	2.5	blank	1.0	122.19958209991455	
15	100.69815111160278	movie	1		300	13.0	2.5	blank	1.0	122.61607909202576	2.5003159046173096
15	101.88173913955688	pulse	1	t		13.0	2.5	blank	1.0	123.79966711997986	
15	103.19846701622009	fix_post	2		12	13.0	2.5	blank	1.0	125.11639499664307	0.10004711151123047
16	103.29851412773132	fix_pre	0		120	14.0	2.5	/experiments/knapen_AOT/AOT_stimuli/rescaled_final/1424_fw.mp4	0.0	125.2164421081543	1.0001270771026611
16	103.48195719718933	pulse	0	t		14.0	2.5	/experiments/knapen_AOT/AOT_stimuli/rescaled_final/1424_fw.mp4	0.0	125.3998851776123	
16	104.29864120483398	movie	1		243	14.0	2.5	/experiments/knapen_AOT/AOT_stimuli/rescaled_final/1424_fw.mp4	0.0	126.21656918525696	2.500351905822754
16	105.08229899406433	pulse	1	t		14.0	2.5	/experiments/knapen_AOT/AOT_stimuli/rescaled_final/1424_fw.mp4	0.0	127.0002269744873	
16	106.68237113952637	pulse	1	t		14.0	2.5	/experiments/knapen_AOT/AOT_stimuli/rescaled_final/1424_fw.mp4	0.0	128.60029911994934	
16	106.79899311065674	fix_post	2		12	14.0	2.5	/experiments/knapen_AOT/AOT_stimuli/rescaled_final/1424_fw.mp4	0.0	128.7169210910797	0.10003209114074707
17	106.89902520179749	fix_pre	0		120	15.0	2.5	/experiments/knapen_AOT/AOT_stimuli/rescaled_final/0733_fw.mp4	0.0	128.81695318222046	1.00016188621521
17	107.8991870880127	movie	1		244	15.0	2.5	/experiments/knapen_AOT/AOT_stimuli/rescaled_final/0733_fw.mp4	0.0	129.81711506843567	2.4920239448547363
17	108.28321313858032	pulse	1	t		15.0	2.5	/experiments/knapen_AOT/AOT_stimuli/rescaled_final/0733_fw.mp4	0.0	130.2011411190033	
17	109.88295698165894	pulse	1	t		15.0	2.5	/experiments/knapen_AOT/AOT_stimuli/rescaled_final/0733_fw.mp4	0.0	131.8008849620819	
17	110.39121103286743	fix_post	2		12	15.0	2.5	/experiments/knapen_AOT/AOT_stimuli/rescaled_final/0733_fw.mp4	0.0	132.3091390132904	0.10003399848937988
18	110.49124503135681	fix_pre	0		120	16.0	2.5	/experiments/knapen_AOT/AOT_stimuli/rescaled_final/1797_rv.mp4	0.0	132.40917301177979	1.0001540184020996
18	111.483234167099	pulse	0	t		16.0	2.5	/experiments/knapen_AOT/AOT_stimuli/rescaled_final/1797_rv.mp4	0.0	133.40116214752197	
18	111.49139904975891	movie	1		245	16.0	2.5	/experiments/knapen_AOT/AOT_stimuli/rescaled_final/1797_rv.mp4	0.0	133.40932703018188	2.508687973022461
18	113.08410406112671	pulse	1	t		16.0	2.5	/experiments/knapen_AOT/AOT_stimuli/rescaled_final/1797_rv.mp4	0.0	135.00203204154968	
18	114.00008702278137	fix_post	2		12	16.0	2.5	/experiments/knapen_AOT/AOT_stimuli/rescaled_final/1797_rv.mp4	0.0	135.91801500320435	0.09999203681945801
19	114.10007905960083	fix_pre	0		120	17.0	2.5	/experiments/knapen_AOT/AOT_stimuli/rescaled_final/0814_rv.mp4	0.0	136.0180070400238	1.000218152999878
19	114.68373799324036	pulse	0	t		17.0	2.5	/experiments/knapen_AOT/AOT_stimuli/rescaled_final/0814_rv.mp4	0.0	136.60166597366333	
19	115.10029721260071	movie	1		245	17.0	2.5	/experiments/knapen_AOT/AOT_stimuli/rescaled_final/0814_rv.mp4	0.0	137.01822519302368	2.500337839126587
19	116.28404998779297	pulse	1	t		17.0	2.5	/experiments/knapen_AOT/AOT_stimuli/rescaled_final/0814_rv.mp4	0.0	138.20197796821594	
19	117.6006350517273	fix_post	2		12	17.0	2.5	/experiments/knapen_AOT/AOT_stimuli/rescaled_final/0814_rv.mp4	0.0	139.51856303215027	0.1000211238861084
20	117.7006561756134	fix_pre	0		120	18.0	2.5	/experiments/knapen_AOT/AOT_stimuli/rescaled_final/0375_rv.mp4	0.0	139.61858415603638	1.0001540184020996
20	117.88417911529541	pulse	0	t		18.0	2.5	/experiments/knapen_AOT/AOT_stimuli/rescaled_final/0375_rv.mp4	0.0	139.80210709571838	
20	118.7008101940155	movie	1		244	18.0	2.5	/experiments/knapen_AOT/AOT_stimuli/rescaled_final/0375_rv.mp4	0.0	140.61873817443848	2.500358819961548
20	119.48455214500427	pulse	1	t		18.0	2.5	/experiments/knapen_AOT/AOT_stimuli/rescaled_final/0375_rv.mp4	0.0	141.40248012542725	
20	121.08456611633301	pulse	1	t		18.0	2.5	/experiments/knapen_AOT/AOT_stimuli/rescaled_final/0375_rv.mp4	0.0	143.00249409675598	
20	121.20116901397705	fix_post	2		12	18.0	2.5	/experiments/knapen_AOT/AOT_stimuli/rescaled_final/0375_rv.mp4	0.0	143.11909699440002	0.10005307197570801
21	121.30122208595276	fix_pre	0		120	19.0	2.5	/experiments/knapen_AOT/AOT_stimuli/rescaled_final/1217_fw.mp4	0.0	143.21915006637573	1.000096082687378
21	122.30131816864014	movie	1		243	19.0	2.5	/experiments/knapen_AOT/AOT_stimuli/rescaled_final/1217_fw.mp4	0.0	144.2192461490631	2.492041826248169
21	122.68563914299011	pulse	1	t		19.0	2.5	/experiments/knapen_AOT/AOT_stimuli/rescaled_final/1217_fw.mp4	0.0	144.6035671234131	
21	124.27803111076355	pulse	1	t		19.0	2.5	/experiments/knapen_AOT/AOT_stimuli/rescaled_final/1217_fw.mp4	0.0	146.19595909118652	
21	124.7933599948883	fix_post	2		12	19.0	2.5	/experiments/knapen_AOT/AOT_stimuli/rescaled_final/1217_fw.mp4	0.0	146.71128797531128	0.10003399848937988
22	124.89339399337769	fix_pre	0		120	20.0	2.5	blank	1.0	146.81132197380066	1.0001580715179443
22	125.87788200378418	pulse	0	t		20.0	2.5	blank	1.0	147.79580998420715	
22	125.89355206489563	movie	1		301	20.0	2.5	blank	1.0	147.8114800453186	2.508707046508789
22	127.47813606262207	pulse	1	t		20.0	2.5	blank	1.0	149.39606404304504	
22	128.40225911140442	fix_post	2		12	20.0	2.5	blank	1.0	150.3201870918274	0.09999394416809082
23	128.5022530555725	fix_pre	0		120	21.0	2.5	/experiments/knapen_AOT/AOT_stimuli/rescaled_final/0962_fw.mp4	0.0	150.42018103599548	1.000175952911377
23	129.07839608192444	pulse	0	t		21.0	2.5	/experiments/knapen_AOT/AOT_stimuli/rescaled_final/0962_fw.mp4	0.0	150.9963240623474	
23	129.5024290084839	movie	1		246	21.0	2.5	/experiments/knapen_AOT/AOT_stimuli/rescaled_final/0962_fw.mp4	0.0	151.42035698890686	2.5003600120544434
23	130.6789162158966	pulse	1	t		21.0	2.5	/experiments/knapen_AOT/AOT_stimuli/rescaled_final/0962_fw.mp4	0.0	152.59684419631958	
23	132.00278902053833	fix_post	2		12	21.0	2.5	/experiments/knapen_AOT/AOT_stimuli/rescaled_final/0962_fw.mp4	0.0	153.9207170009613	0.1000211238861084
24	132.10281014442444	fix_pre	0		120	22.0	2.5	/experiments/knapen_AOT/AOT_stimuli/rescaled_final/0247_fw.mp4	0.0	154.0207381248474	1.0001220703125
24	132.27798700332642	pulse	0	t		22.0	2.5	/experiments/knapen_AOT/AOT_stimuli/rescaled_final/0247_fw.mp4	0.0	154.1959149837494	
24	133.10293221473694	movie	1		244	22.0	2.5	/experiments/knapen_AOT/AOT_stimuli/rescaled_final/0247_fw.mp4	0.0	155.0208601951599	2.500375986099243
24	133.8781840801239	pulse	1	t		22.0	2.5	/experiments/knapen_AOT/AOT_stimuli/rescaled_final/0247_fw.mp4	0.0	155.79611206054688	
24	135.47848105430603	pulse	1	t		22.0	2.5	/experiments/knapen_AOT/AOT_stimuli/rescaled_final/0247_fw.mp4	0.0	157.396409034729	
24	135.60330820083618	fix_post	2		12	22.0	2.5	/experiments/knapen_AOT/AOT_stimuli/rescaled_final/0247_fw.mp4	0.0	157.52123618125916	0.10005688667297363
25	135.70336508750916	fix_pre	0		120	23.0	2.5	/experiments/knapen_AOT/AOT_stimuli/rescaled_final/1978_rv.mp4	0.0	157.62129306793213	1.0001270771026611
25	136.70349216461182	movie	1		242	23.0	2.5	/experiments/knapen_AOT/AOT_stimuli/rescaled_final/1978_rv.mp4	0.0	158.6214201450348	2.4920599460601807
25	137.07884407043457	pulse	1	t		23.0	2.5	/experiments/knapen_AOT/AOT_stimuli/rescaled_final/1978_rv.mp4	0.0	158.99677205085754	
25	138.6790931224823	pulse	1	t		23.0	2.5	/experiments/knapen_AOT/AOT_stimuli/rescaled_final/1978_rv.mp4	0.0	160.59702110290527	
25	139.195552110672	fix_post	2		12	23.0	2.5	/experiments/knapen_AOT/AOT_stimuli/rescaled_final/1978_rv.mp4	0.0	161.11348009109497	0.10005497932434082
26	139.29560708999634	fix_pre	0		119	24.0	2.5	/experiments/knapen_AOT/AOT_stimuli/rescaled_final/2160_fw.mp4	0.0	161.2135350704193	0.9918079376220703
26	140.2791941165924	pulse	0	t		24.0	2.5	/experiments/knapen_AOT/AOT_stimuli/rescaled_final/2160_fw.mp4	0.0	162.19712209701538	
26	140.2874150276184	movie	1		245	24.0	2.5	/experiments/knapen_AOT/AOT_stimuli/rescaled_final/2160_fw.mp4	0.0	162.20534300804138	2.508613109588623
26	141.88001799583435	pulse	1	t		24.0	2.5	/experiments/knapen_AOT/AOT_stimuli/rescaled_final/2160_fw.mp4	0.0	163.79794597625732	
26	142.79602813720703	fix_post	2		12	24.0	2.5	/experiments/knapen_AOT/AOT_stimuli/rescaled_final/2160_fw.mp4	0.0	164.71395611763	0.10004496574401855
27	142.89607310295105	fix_pre	0		120	25.0	2.5	/experiments/knapen_AOT/AOT_stimuli/rescaled_final/1064_rv.mp4	0.0	164.81400108337402	1.000180959701538
27	143.47971415519714	pulse	0	t		25.0	2.5	/experiments/knapen_AOT/AOT_stimuli/rescaled_final/1064_rv.mp4	0.0	165.39764213562012	
27	143.8962540626526	movie	1		245	25.0	2.5	/experiments/knapen_AOT/AOT_stimuli/rescaled_final/1064_rv.mp4	0.0	165.81418204307556	2.500361919403076
27	145.08007907867432	pulse	1	t		25.0	2.5	/experiments/knapen_AOT/AOT_stimuli/rescaled_final/1064_rv.mp4	0.0	166.9980070590973	
27	146.39661598205566	fix_post	2		12	25.0	2.5	/experiments/knapen_AOT/AOT_stimuli/rescaled_final/1064_rv.mp4	0.0	168.31454396247864	0.10005617141723633
28	146.4966721534729	fix_pre	0		120	26.0	2.5	/experiments/knapen_AOT/AOT_stimuli/rescaled_final/0775_fw.mp4	0.0	168.41460013389587	1.0001130104064941
28	146.68015813827515	pulse	0	t		26.0	2.5	/experiments/knapen_AOT/AOT_stimuli/rescaled_final/0775_fw.mp4	0.0	168.59808611869812	
28	147.4967851638794	movie	1		245	26.0	2.5	/experiments/knapen_AOT/AOT_stimuli/rescaled_final/0775_fw.mp4	0.0	169.41471314430237	2.5003349781036377
28	148.28039002418518	pulse	1	t		26.0	2.5	/experiments/knapen_AOT/AOT_stimuli/rescaled_final/0775_fw.mp4	0.0	170.19831800460815	
28	149.87829899787903	pulse	1	t		26.0	2.5	/experiments/knapen_AOT/AOT_stimuli/rescaled_final/0775_fw.mp4	0.0	171.796226978302	
28	149.99712014198303	fix_post	2		12	26.0	2.5	/experiments/knapen_AOT/AOT_stimuli/rescaled_final/0775_fw.mp4	0.0	171.915048122406	0.09999990463256836
29	150.0971200466156	fix_pre	0		120	27.0	2.5	blank	1.0	172.01504802703857	1.000190019607544
29	151.09731006622314	movie	1		299	27.0	2.5	blank	1.0	173.01523804664612	2.4920430183410645
29	151.48101615905762	pulse	1	t		27.0	2.5	blank	1.0	173.3989441394806	
29	153.08109402656555	pulse	1	t		27.0	2.5	blank	1.0	174.99902200698853	
29	153.5893530845642	fix_post	2		12	27.0	2.5	blank	1.0	175.50728106498718	0.09996509552001953
30	153.68931818008423	fix_pre	0		120	28.0	2.5	/experiments/knapen_AOT/AOT_stimuli/rescaled_final/1502_rv.mp4	0.0	175.6072461605072	1.0002479553222656
30	154.68131804466248	pulse	0	t		28.0	2.5	/experiments/knapen_AOT/AOT_stimuli/rescaled_final/1502_rv.mp4	0.0	176.59924602508545	
30	154.6895661354065	movie	1		247	28.0	2.5	/experiments/knapen_AOT/AOT_stimuli/rescaled_final/1502_rv.mp4	0.0	176.60749411582947	2.5086169242858887
30	156.2826271057129	pulse	1	t		28.0	2.5	/experiments/knapen_AOT/AOT_stimuli/rescaled_final/1502_rv.mp4	0.0	178.20055508613586	
30	157.19818305969238	fix_post	2		12	28.0	2.5	/experiments/knapen_AOT/AOT_stimuli/rescaled_final/1502_rv.mp4	0.0	179.11611104011536	0.10009098052978516
31	157.29827404022217	fix_pre	0		120	29.0	2.5	/experiments/knapen_AOT/AOT_stimuli/rescaled_final/0537_fw.mp4	0.0	179.21620202064514	1.0000941753387451
31	157.8819441795349	pulse	0	t		29.0	2.5	/experiments/knapen_AOT/AOT_stimuli/rescaled_final/0537_fw.mp4	0.0	179.79987215995789	
31	158.2983682155609	movie	1		242	29.0	2.5	/experiments/knapen_AOT/AOT_stimuli/rescaled_final/0537_fw.mp4	0.0	180.2162961959839	2.5004138946533203
31	159.48220920562744	pulse	1	t		29.0	2.5	/experiments/knapen_AOT/AOT_stimuli/rescaled_final/0537_fw.mp4	0.0	181.40013718605042	
31	160.79878211021423	fix_post	2		12	29.0	2.5	/experiments/knapen_AOT/AOT_stimuli/rescaled_final/0537_fw.mp4	0.0	182.7167100906372	0.10001897811889648
32	160.89880108833313	fix_pre	0		120	30.0	2.5	/experiments/knapen_AOT/AOT_stimuli/rescaled_final/0451_rv.mp4	0.0	182.8167290687561	1.0001111030578613
32	161.08231210708618	pulse	0	t		30.0	2.5	/experiments/knapen_AOT/AOT_stimuli/rescaled_final/0451_rv.mp4	0.0	183.00024008750916	
32	161.898912191391	movie	1		243	30.0	2.5	/experiments/knapen_AOT/AOT_stimuli/rescaled_final/0451_rv.mp4	0.0	183.81684017181396	2.50034499168396
32	162.68262600898743	pulse	1	t		30.0	2.5	/experiments/knapen_AOT/AOT_stimuli/rescaled_final/0451_rv.mp4	0.0	184.6005539894104	
32	164.282860994339	pulse	1	t		30.0	2.5	/experiments/knapen_AOT/AOT_stimuli/rescaled_final/0451_rv.mp4	0.0	186.20078897476196	
32	164.39925718307495	fix_post	2		12	30.0	2.5	/experiments/knapen_AOT/AOT_stimuli/rescaled_final/0451_rv.mp4	0.0	186.31718516349792	0.10002493858337402
33	164.49928212165833	fix_pre	0		119	31.0	2.5	/experiments/knapen_AOT/AOT_stimuli/rescaled_final/1755_rv.mp4	0.0	186.4172101020813	0.9918339252471924
33	165.49111604690552	movie	1		243	31.0	2.5	/experiments/knapen_AOT/AOT_stimuli/rescaled_final/1755_rv.mp4	0.0	187.4090440273285	2.5003440380096436
33	165.8831491470337	pulse	1	t		31.0	2.5	/experiments/knapen_AOT/AOT_stimuli/rescaled_final/1755_rv.mp4	0.0	187.80107712745667	
33	167.48330307006836	pulse	1	t		31.0	2.5	/experiments/knapen_AOT/AOT_stimuli/rescaled_final/1755_rv.mp4	0.0	189.40123105049133	
33	167.99146008491516	fix_post	2		12	31.0	2.5	/experiments/knapen_AOT/AOT_stimuli/rescaled_final/1755_rv.mp4	0.0	189.90938806533813	0.10004496574401855
34	168.09150505065918	fix_pre	0		120	32.0	2.5	/experiments/knapen_AOT/AOT_stimuli/rescaled_final/1899_fw.mp4	0.0	190.00943303108215	1.0001659393310547
34	169.08353400230408	pulse	0	t		32.0	2.5	/experiments/knapen_AOT/AOT_stimuli/rescaled_final/1899_fw.mp4	0.0	191.00146198272705	
34	169.09167098999023	movie	1		245	32.0	2.5	/experiments/knapen_AOT/AOT_stimuli/rescaled_final/1899_fw.mp4	0.0	191.0095989704132	2.5086710453033447
34	170.68446516990662	pulse	1	t		32.0	2.5	/experiments/knapen_AOT/AOT_stimuli/rescaled_final/1899_fw.mp4	0.0	192.6023931503296	
34	171.60034203529358	fix_post	2		12	32.0	2.5	/experiments/knapen_AOT/AOT_stimuli/rescaled_final/1899_fw.mp4	0.0	193.51827001571655	0.10001897811889648
35	171.70036101341248	fix_pre	0		120	33.0	2.5	/experiments/knapen_AOT/AOT_stimuli/rescaled_final/0344_rv.mp4	0.0	193.61828899383545	1.000154972076416
35	172.2839879989624	pulse	0	t		33.0	2.5	/experiments/knapen_AOT/AOT_stimuli/rescaled_final/0344_rv.mp4	0.0	194.20191597938538	
35	172.7005159854889	movie	1		244	33.0	2.5	/experiments/knapen_AOT/AOT_stimuli/rescaled_final/0344_rv.mp4	0.0	194.61844396591187	2.5003621578216553
35	173.87729716300964	pulse	1	t		33.0	2.5	/experiments/knapen_AOT/AOT_stimuli/rescaled_final/0344_rv.mp4	0.0	195.79522514343262	
35	175.20087814331055	fix_post	2		12	33.0	2.5	/experiments/knapen_AOT/AOT_stimuli/rescaled_final/0344_rv.mp4	0.0	197.11880612373352	0.1000070571899414
36	175.3008852005005	fix_pre	0		120	34.0	2.5	blank	1.0	197.21881318092346	1.000175952911377
36	175.4845471382141	pulse	0	t		34.0	2.5	blank	1.0	197.40247511863708	
36	176.30106115341187	movie	1		300	34.0	2.5	blank	1.0	198.21898913383484	2.50036883354187
36	177.08466815948486	pulse	1	t		34.0	2.5	blank	1.0	199.00259613990784	
36	178.6773600578308	pulse	1	t		34.0	2.5	blank	1.0	200.59528803825378	
36	178.80142998695374	fix_post	2		12	34.0	2.5	blank	1.0	200.7193579673767	0.10001111030578613
37	178.90144109725952	fix_pre	0		120	35.0	2.5	/experiments/knapen_AOT/AOT_stimuli/rescaled_final/0225_fw.mp4	0.0	200.8193690776825	1.0002360343933105
37	179.90167713165283	movie	1		242	35.0	2.5	/experiments/knapen_AOT/AOT_stimuli/rescaled_final/0225_fw.mp4	0.0	201.8196051120758	2.4919629096984863
37	180.28566908836365	pulse	1	t		35.0	2.5	/experiments/knapen_AOT/AOT_stimuli/rescaled_final/0225_fw.mp4	0.0	202.20359706878662	
37	181.87810015678406	pulse	1	t		35.0	2.5	/experiments/knapen_AOT/AOT_stimuli/rescaled_final/0225_fw.mp4	0.0	203.79602813720703	
37	182.39364004135132	fix_post	2		12	35.0	2.5	/experiments/knapen_AOT/AOT_stimuli/rescaled_final/0225_fw.mp4	0.0	204.3115680217743	0.10002613067626953
38	182.4936661720276	fix_pre	0		120	36.0	2.5	/experiments/knapen_AOT/AOT_stimuli/rescaled_final/1196_fw.mp4	0.0	204.41159415245056	1.0001649856567383
38	183.4780251979828	pulse	0	t		36.0	2.5	/experiments/knapen_AOT/AOT_stimuli/rescaled_final/1196_fw.mp4	0.0	205.39595317840576	
38	183.49383115768433	movie	1		246	36.0	2.5	/experiments/knapen_AOT/AOT_stimuli/rescaled_final/1196_fw.mp4	0.0	205.4117591381073	2.508704900741577
38	185.07749319076538	pulse	1	t		36.0	2.5	/experiments/knapen_AOT/AOT_stimuli/rescaled_final/1196_fw.mp4	0.0	206.99542117118835	
38	186.0025360584259	fix_post	2		12	36.0	2.5	/experiments/knapen_AOT/AOT_stimuli/rescaled_final/1196_fw.mp4	0.0	207.92046403884888	0.09996700286865234
39	186.10250306129456	fix_pre	0		120	37.0	2.5	/experiments/knapen_AOT/AOT_stimuli/rescaled_final/0188_fw.mp4	0.0	208.02043104171753	1.0002140998840332
39	186.67777919769287	pulse	0	t		37.0	2.5	/experiments/knapen_AOT/AOT_stimuli/rescaled_final/0188_fw.mp4	0.0	208.59570717811584	
39	187.1027171611786	movie	1		245	37.0	2.5	/experiments/knapen_AOT/AOT_stimuli/rescaled_final/0188_fw.mp4	0.0	209.02064514160156	2.500316858291626
39	188.27864408493042	pulse	1	t		37.0	2.5	/experiments/knapen_AOT/AOT_stimuli/rescaled_final/0188_fw.mp4	0.0	210.1965720653534	
39	189.60303401947021	fix_post	2		12	37.0	2.5	/experiments/knapen_AOT/AOT_stimuli/rescaled_final/0188_fw.mp4	0.0	211.5209619998932	0.10002398490905762
40	189.70305800437927	fix_pre	0		120	38.0	2.5	/experiments/knapen_AOT/AOT_stimuli/rescaled_final/0746_rv.mp4	0.0	211.62098598480225	1.0001370906829834
40	189.87831616401672	pulse	0	t		38.0	2.5	/experiments/knapen_AOT/AOT_stimuli/rescaled_final/0746_rv.mp4	0.0	211.7962441444397	
40	190.70319509506226	movie	1		245	38.0	2.5	/experiments/knapen_AOT/AOT_stimuli/rescaled_final/0746_rv.mp4	0.0	212.62112307548523	2.5003879070281982
40	191.4786341190338	pulse	1	t		38.0	2.5	/experiments/knapen_AOT/AOT_stimuli/rescaled_final/0746_rv.mp4	0.0	213.3965620994568	
40	193.0788061618805	pulse	1	t		38.0	2.5	/experiments/knapen_AOT/AOT_stimuli/rescaled_final/0746_rv.mp4	0.0	214.99673414230347	
40	193.20358300209045	fix_post	2		12	38.0	2.5	/experiments/knapen_AOT/AOT_stimuli/rescaled_final/0746_rv.mp4	0.0	215.12151098251343	0.10001802444458008
41	193.30360102653503	fix_pre	0		119	39.0	2.5	/experiments/knapen_AOT/AOT_stimuli/rescaled_final/0950_rv.mp4	0.0	215.221529006958	0.9918529987335205
41	194.29545402526855	movie	1		244	39.0	2.5	/experiments/knapen_AOT/AOT_stimuli/rescaled_final/0950_rv.mp4	0.0	216.21338200569153	2.5004050731658936
41	194.6795961856842	pulse	1	t		39.0	2.5	/experiments/knapen_AOT/AOT_stimuli/rescaled_final/0950_rv.mp4	0.0	216.59752416610718	
41	196.27923321723938	pulse	1	t		39.0	2.5	/experiments/knapen_AOT/AOT_stimuli/rescaled_final/0950_rv.mp4	0.0	218.19716119766235	
41	196.79585909843445	fix_post	2		12	39.0	2.5	/experiments/knapen_AOT/AOT_stimuli/rescaled_final/0950_rv.mp4	0.0	218.71378707885742	0.10001897811889648
42	196.89587807655334	fix_pre	0		119	40.0	2.5	/experiments/knapen_AOT/AOT_stimuli/rescaled_final/1576_rv.mp4	0.0	218.81380605697632	0.9917869567871094
42	197.8796100616455	pulse	0	t		40.0	2.5	/experiments/knapen_AOT/AOT_stimuli/rescaled_final/1576_rv.mp4	0.0	219.79753804206848	
42	197.88766503334045	movie	1		246	40.0	2.5	/experiments/knapen_AOT/AOT_stimuli/rescaled_final/1576_rv.mp4	0.0	219.80559301376343	2.508711099624634
42	199.4802281856537	pulse	1	t		40.0	2.5	/experiments/knapen_AOT/AOT_stimuli/rescaled_final/1576_rv.mp4	0.0	221.39815616607666	
42	200.3963761329651	fix_post	2		12	40.0	2.5	/experiments/knapen_AOT/AOT_stimuli/rescaled_final/1576_rv.mp4	0.0	222.31430411338806	0.09997987747192383
43	200.496356010437	fix_pre	0		120	41.0	2.5	blank	1.0	222.41428399085999	1.0001320838928223
43	201.07995915412903	pulse	0	t		41.0	2.5	blank	1.0	222.997887134552	
43	201.49648809432983	movie	1		300	41.0	2.5	blank	1.0	223.4144160747528	2.500380039215088
43	202.6801040172577	pulse	1	t		41.0	2.5	blank	1.0	224.59803199768066	
43	203.99686813354492	fix_post	2		12	41.0	2.5	blank	1.0	225.9147961139679	0.10000300407409668
44	204.09687113761902	fix_pre	0		120	42.0	2.5	/experiments/knapen_AOT/AOT_stimuli/rescaled_final/0767_rv.mp4	0.0	226.014799118042	1.0001220703125
44	204.28054308891296	pulse	0	t		42.0	2.5	/experiments/knapen_AOT/AOT_stimuli/rescaled_final/0767_rv.mp4	0.0	226.19847106933594	
44	205.09699320793152	movie	1		245	42.0	2.5	/experiments/knapen_AOT/AOT_stimuli/rescaled_final/0767_rv.mp4	0.0	227.0149211883545	2.5004048347473145
44	205.88078904151917	pulse	1	t		42.0	2.5	/experiments/knapen_AOT/AOT_stimuli/rescaled_final/0767_rv.mp4	0.0	227.79871702194214	
44	207.4785590171814	pulse	1	t		42.0	2.5	/experiments/knapen_AOT/AOT_stimuli/rescaled_final/0767_rv.mp4	0.0	229.39648699760437	
44	207.59739804267883	fix_post	2		12	42.0	2.5	/experiments/knapen_AOT/AOT_stimuli/rescaled_final/0767_rv.mp4	0.0	229.5153260231018	0.0999901294708252
45	207.69738817214966	fix_pre	0		120	43.0	2.5	/experiments/knapen_AOT/AOT_stimuli/rescaled_final/1552_rv.mp4	0.0	229.61531615257263	1.0001609325408936
45	208.69754910469055	movie	1		243	43.0	2.5	/experiments/knapen_AOT/AOT_stimuli/rescaled_final/1552_rv.mp4	0.0	230.61547708511353	2.4920780658721924
45	209.08175206184387	pulse	1	t		43.0	2.5	/experiments/knapen_AOT/AOT_stimuli/rescaled_final/1552_rv.mp4	0.0	230.99968004226685	
45	210.681499004364	pulse	1	t		43.0	2.5	/experiments/knapen_AOT/AOT_stimuli/rescaled_final/1552_rv.mp4	0.0	232.599426984787	
45	211.18962717056274	fix_post	2		12	43.0	2.5	/experiments/knapen_AOT/AOT_stimuli/rescaled_final/1552_rv.mp4	0.0	233.10755515098572	0.10004091262817383
46	211.28966808319092	fix_pre	0		120	44.0	2.5	/experiments/knapen_AOT/AOT_stimuli/rescaled_final/0927_rv.mp4	0.0	233.2075960636139	1.0001120567321777
46	212.2817301750183	pulse	0	t		44.0	2.5	/experiments/knapen_AOT/AOT_stimuli/rescaled_final/0927_rv.mp4	0.0	234.19965815544128	
46	212.2897801399231	movie	1		244	44.0	2.5	/experiments/knapen_AOT/AOT_stimuli/rescaled_final/0927_rv.mp4	0.0	234.20770812034607	2.5087270736694336
46	213.88263607025146	pulse	1	t		44.0	2.5	/experiments/knapen_AOT/AOT_stimuli/rescaled_final/0927_rv.mp4	0.0	235.80056405067444	
46	214.79850721359253	fix_post	2		12	44.0	2.5	/experiments/knapen_AOT/AOT_stimuli/rescaled_final/0927_rv.mp4	0.0	236.7164351940155	0.09996581077575684
47	214.8984730243683	fix_pre	0		120	45.0	2.5	/experiments/knapen_AOT/AOT_stimuli/rescaled_final/2029_fw.mp4	0.0	236.81640100479126	1.0001859664916992
47	215.48206210136414	pulse	0	t		45.0	2.5	/experiments/knapen_AOT/AOT_stimuli/rescaled_final/2029_fw.mp4	0.0	237.3999900817871	
47	215.89865899085999	movie	1		244	45.0	2.5	/experiments/knapen_AOT/AOT_stimuli/rescaled_final/2029_fw.mp4	0.0	237.81658697128296	2.500343084335327
47	217.0824911594391	pulse	1	t		45.0	2.5	/experiments/knapen_AOT/AOT_stimuli/rescaled_final/2029_fw.mp4	0.0	239.00041913986206	
47	218.3990020751953	fix_post	2		12	45.0	2.5	/experiments/knapen_AOT/AOT_stimuli/rescaled_final/2029_fw.mp4	0.0	240.3169300556183	0.10003900527954102
48	218.49904108047485	fix_pre	0		118	46.0	2.5	/experiments/knapen_AOT/AOT_stimuli/rescaled_final/0646_fw.mp4	0.0	240.41696906089783	1.0001380443572998
48	218.6826732158661	pulse	0	t		46.0	2.5	/experiments/knapen_AOT/AOT_stimuli/rescaled_final/0646_fw.mp4	0.0	240.60060119628906	
48	219.49917912483215	movie	1		245	46.0	2.5	/experiments/knapen_AOT/AOT_stimuli/rescaled_final/0646_fw.mp4	0.0	241.41710710525513	2.5003509521484375
48	220.28291416168213	pulse	1	t		46.0	2.5	/experiments/knapen_AOT/AOT_stimuli/rescaled_final/0646_fw.mp4	0.0	242.2008421421051	
48	221.88310408592224	pulse	1	t		46.0	2.5	/experiments/knapen_AOT/AOT_stimuli/rescaled_final/0646_fw.mp4	0.0	243.80103206634521	
48	221.9995300769806	fix_post	2		12	46.0	2.5	/experiments/knapen_AOT/AOT_stimuli/rescaled_final/0646_fw.mp4	0.0	243.91745805740356	0.10000205039978027
49	222.09953212738037	fix_pre	0		120	47.0	2.5	/experiments/knapen_AOT/AOT_stimuli/rescaled_final/0875_fw.mp4	0.0	244.01746010780334	1.000216007232666
49	223.09974813461304	movie	1		242	47.0	2.5	/experiments/knapen_AOT/AOT_stimuli/rescaled_final/0875_fw.mp4	0.0	245.017676115036	2.4920759201049805
49	223.483980178833	pulse	1	t		47.0	2.5	/experiments/knapen_AOT/AOT_stimuli/rescaled_final/0875_fw.mp4	0.0	245.40190815925598	
49	225.0836579799652	pulse	1	t		47.0	2.5	/experiments/knapen_AOT/AOT_stimuli/rescaled_final/0875_fw.mp4	0.0	247.00158596038818	
49	225.59182405471802	fix_post	2		12	47.0	2.5	/experiments/knapen_AOT/AOT_stimuli/rescaled_final/0875_fw.mp4	0.0	247.509752035141	0.09995293617248535
50	225.6917769908905	fix_pre	0		120	48.0	2.5	/experiments/knapen_AOT/AOT_stimuli/rescaled_final/0277_fw.mp4	0.0	247.60970497131348	1.000129222869873
50	226.68391108512878	pulse	0	t		48.0	2.5	/experiments/knapen_AOT/AOT_stimuli/rescaled_final/0277_fw.mp4	0.0	248.60183906555176	
50	226.69190621376038	movie	1		245	48.0	2.5	/experiments/knapen_AOT/AOT_stimuli/rescaled_final/0277_fw.mp4	0.0	248.60983419418335	2.5087249279022217
50	228.28481912612915	pulse	1	t		48.0	2.5	/experiments/knapen_AOT/AOT_stimuli/rescaled_final/0277_fw.mp4	0.0	250.20274710655212	
50	229.2006311416626	fix_post	2		12	48.0	2.5	/experiments/knapen_AOT/AOT_stimuli/rescaled_final/0277_fw.mp4	0.0	251.11855912208557	0.10002398490905762
51	229.30065512657166	fix_pre	0		120	49.0	2.5	blank	1.0	251.21858310699463	1.0001940727233887
51	229.88422203063965	pulse	0	t		49.0	2.5	blank	1.0	251.80215001106262	
51	230.30084919929504	movie	1		300	49.0	2.5	blank	1.0	252.21877717971802	2.5004358291625977
51	231.48470211029053	pulse	1	t		49.0	2.5	blank	1.0	253.4026300907135	
51	232.80128502845764	fix_post	2		12	49.0	2.5	blank	1.0	254.71921300888062	0.09995508193969727
52	232.90124011039734	fix_pre	0		120	50.0	2.5	/experiments/knapen_AOT/AOT_stimuli/rescaled_final/1198_rv.mp4	0.0	254.8191680908203	1.0000650882720947
52	233.08480215072632	pulse	0	t		50.0	2.5	/experiments/knapen_AOT/AOT_stimuli/rescaled_final/1198_rv.mp4	0.0	255.0027301311493	
52	233.90130519866943	movie	1		243	50.0	2.5	/experiments/knapen_AOT/AOT_stimuli/rescaled_final/1198_rv.mp4	0.0	255.8192331790924	2.5003879070281982
52	234.68498921394348	pulse	1	t		50.0	2.5	/experiments/knapen_AOT/AOT_stimuli/rescaled_final/1198_rv.mp4	0.0	256.60291719436646	
52	236.28502011299133	pulse	1	t		50.0	2.5	/experiments/knapen_AOT/AOT_stimuli/rescaled_final/1198_rv.mp4	0.0	258.2029480934143	
52	236.40169310569763	fix_post	2		12	50.0	2.5	/experiments/knapen_AOT/AOT_stimuli/rescaled_final/1198_rv.mp4	0.0	258.3196210861206	0.10006189346313477
53	236.50175499916077	fix_pre	0		120	51.0	2.5	/experiments/knapen_AOT/AOT_stimuli/rescaled_final/0536_rv.mp4	0.0	258.41968297958374	1.000115156173706
53	237.50187015533447	movie	1		243	51.0	2.5	/experiments/knapen_AOT/AOT_stimuli/rescaled_final/0536_rv.mp4	0.0	259.41979813575745	2.492015838623047
53	237.8772201538086	pulse	1	t		51.0	2.5	/experiments/knapen_AOT/AOT_stimuli/rescaled_final/0536_rv.mp4	0.0	259.79514813423157	
53	239.4773030281067	pulse	1	t		51.0	2.5	/experiments/knapen_AOT/AOT_stimuli/rescaled_final/0536_rv.mp4	0.0	261.39523100852966	
53	239.99388599395752	fix_post	2		12	51.0	2.5	/experiments/knapen_AOT/AOT_stimuli/rescaled_final/0536_rv.mp4	0.0	261.9118139743805	0.10004711151123047
54	240.09393310546875	fix_pre	0		119	52.0	2.5	/experiments/knapen_AOT/AOT_stimuli/rescaled_final/1968_rv.mp4	0.0	262.0118610858917	0.9918539524078369
54	241.07757806777954	pulse	0	t		52.0	2.5	/experiments/knapen_AOT/AOT_stimuli/rescaled_final/1968_rv.mp4	0.0	262.9955060482025	
54	241.0857870578766	movie	1		245	52.0	2.5	/experiments/knapen_AOT/AOT_stimuli/rescaled_final/1968_rv.mp4	0.0	263.00371503829956	2.508636951446533
54	242.67895817756653	pulse	1	t		52.0	2.5	/experiments/knapen_AOT/AOT_stimuli/rescaled_final/1968_rv.mp4	0.0	264.5968861579895	
54	243.59442400932312	fix_post	2		12	52.0	2.5	/experiments/knapen_AOT/AOT_stimuli/rescaled_final/1968_rv.mp4	0.0	265.5123519897461	0.10001802444458008
55	243.6944420337677	fix_pre	0		120	53.0	2.5	/experiments/knapen_AOT/AOT_stimuli/rescaled_final/1262_fw.mp4	0.0	265.6123700141907	1.000157117843628
55	244.27807903289795	pulse	0	t		53.0	2.5	/experiments/knapen_AOT/AOT_stimuli/rescaled_final/1262_fw.mp4	0.0	266.1960070133209	
55	244.69459915161133	movie	1		245	53.0	2.5	/experiments/knapen_AOT/AOT_stimuli/rescaled_final/1262_fw.mp4	0.0	266.6125271320343	2.500351905822754
55	245.8783631324768	pulse	1	t		53.0	2.5	/experiments/knapen_AOT/AOT_stimuli/rescaled_final/1262_fw.mp4	0.0	267.7962911128998	
55	247.19495105743408	fix_post	2		12	53.0	2.5	/experiments/knapen_AOT/AOT_stimuli/rescaled_final/1262_fw.mp4	0.0	269.11287903785706	0.10007405281066895
56	247.29502511024475	fix_pre	0		120	54.0	2.5	/experiments/knapen_AOT/AOT_stimuli/rescaled_final/1391_rv.mp4	0.0	269.2129530906677	1.0001220703125
56	247.47850918769836	pulse	0	t		54.0	2.5	/experiments/knapen_AOT/AOT_stimuli/rescaled_final/1391_rv.mp4	0.0	269.39643716812134	
56	248.29514718055725	movie	1		243	54.0	2.5	/experiments/knapen_AOT/AOT_stimuli/rescaled_final/1391_rv.mp4	0.0	270.2130751609802	2.5003418922424316
56	249.07876920700073	pulse	1	t		54.0	2.5	/experiments/knapen_AOT/AOT_stimuli/rescaled_final/1391_rv.mp4	0.0	270.9966971874237	
56	250.67914199829102	pulse	1	t		54.0	2.5	/experiments/knapen_AOT/AOT_stimuli/rescaled_final/1391_rv.mp4	0.0	272.597069978714	
56	250.79548907279968	fix_post	2		12	54.0	2.5	/experiments/knapen_AOT/AOT_stimuli/rescaled_final/1391_rv.mp4	0.0	272.71341705322266	0.10007596015930176
57	250.89556503295898	fix_pre	0		120	55.0	2.5	/experiments/knapen_AOT/AOT_stimuli/rescaled_final/0416_rv.mp4	0.0	272.81349301338196	1.0001139640808105
57	251.8956789970398	movie	1		243	55.0	2.5	/experiments/knapen_AOT/AOT_stimuli/rescaled_final/0416_rv.mp4	0.0	273.81360697746277	2.492016077041626
57	252.2799642086029	pulse	1	t		55.0	2.5	/experiments/knapen_AOT/AOT_stimuli/rescaled_final/0416_rv.mp4	0.0	274.1978921890259	
57	253.87958121299744	pulse	1	t		55.0	2.5	/experiments/knapen_AOT/AOT_stimuli/rescaled_final/0416_rv.mp4	0.0	275.7975091934204	
57	254.38769507408142	fix_post	2		12	55.0	2.5	/experiments/knapen_AOT/AOT_stimuli/rescaled_final/0416_rv.mp4	0.0	276.3056230545044	0.1000370979309082
58	254.48773217201233	fix_pre	0		120	56.0	2.5	blank	1.0	276.4056601524353	1.000154972076416
58	255.47972321510315	pulse	0	t		56.0	2.5	blank	1.0	277.3976511955261	
58	255.48788714408875	movie	1		301	56.0	2.5	blank	1.0	277.4058151245117	2.5086989402770996
58	257.08004212379456	pulse	1	t		56.0	2.5	blank	1.0	278.99797010421753	
58	257.99658608436584	fix_post	2		12	56.0	2.5	blank	1.0	279.9145140647888	0.10006499290466309
59	258.0966510772705	fix_pre	0		120	57.0	2.5	/experiments/knapen_AOT/AOT_stimuli/rescaled_final/1778_rv.mp4	0.0	280.0145790576935	1.0000801086425781
59	258.68019104003906	pulse	0	t		57.0	2.5	/experiments/knapen_AOT/AOT_stimuli/rescaled_final/1778_rv.mp4	0.0	280.59811902046204	
59	259.0967311859131	movie	1		244	57.0	2.5	/experiments/knapen_AOT/AOT_stimuli/rescaled_final/1778_rv.mp4	0.0	281.01465916633606	2.500377893447876
59	260.2805550098419	pulse	1	t		57.0	2.5	/experiments/knapen_AOT/AOT_stimuli/rescaled_final/1778_rv.mp4	0.0	282.1984829902649	
59	261.59710907936096	fix_post	2		12	57.0	2.5	/experiments/knapen_AOT/AOT_stimuli/rescaled_final/1778_rv.mp4	0.0	283.51503705978394	0.10000395774841309
60	261.6971130371094	fix_pre	0		120	58.0	2.5	/experiments/knapen_AOT/AOT_stimuli/rescaled_final/0324_rv.mp4	0.0	283.61504101753235	1.000154972076416
60	261.88064408302307	pulse	0	t		58.0	2.5	/experiments/knapen_AOT/AOT_stimuli/rescaled_final/0324_rv.mp4	0.0	283.79857206344604	
60	262.6972680091858	movie	1		244	58.0	2.5	/experiments/knapen_AOT/AOT_stimuli/rescaled_final/0324_rv.mp4	0.0	284.61519598960876	2.5004091262817383
60	263.48093914985657	pulse	1	t		58.0	2.5	/experiments/knapen_AOT/AOT_stimuli/rescaled_final/0324_rv.mp4	0.0	285.39886713027954	
60	265.08132004737854	pulse	1	t		58.0	2.5	/experiments/knapen_AOT/AOT_stimuli/rescaled_final/0324_rv.mp4	0.0	286.9992480278015	
60	265.19767713546753	fix_post	2		12	58.0	2.5	/experiments/knapen_AOT/AOT_stimuli/rescaled_final/0324_rv.mp4	0.0	287.1156051158905	0.10005903244018555
61	265.2977361679077	fix_pre	0		120	59.0	2.5	/experiments/knapen_AOT/AOT_stimuli/rescaled_final/2116_rv.mp4	0.0	287.2156641483307	1.0001158714294434
61	266.29785203933716	movie	1		243	59.0	2.5	/experiments/knapen_AOT/AOT_stimuli/rescaled_final/2116_rv.mp4	0.0	288.21578001976013	2.491986036300659
61	266.6820561885834	pulse	1	t		59.0	2.5	/experiments/knapen_AOT/AOT_stimuli/rescaled_final/2116_rv.mp4	0.0	288.59998416900635	
61	268.28172421455383	pulse	1	t		59.0	2.5	/experiments/knapen_AOT/AOT_stimuli/rescaled_final/2116_rv.mp4	0.0	290.1996521949768	
61	268.7898380756378	fix_post	2		12	59.0	2.5	/experiments/knapen_AOT/AOT_stimuli/rescaled_final/2116_rv.mp4	0.0	290.7077660560608	0.10003495216369629
62	268.8898730278015	fix_pre	0		120	60.0	2.5	/experiments/knapen_AOT/AOT_stimuli/rescaled_final/2113_rv.mp4	0.0	290.8078010082245	1.0001270771026611
62	269.8818871974945	pulse	0	t		60.0	2.5	/experiments/knapen_AOT/AOT_stimuli/rescaled_final/2113_rv.mp4	0.0	291.7998151779175	
62	269.8900001049042	movie	1		246	60.0	2.5	/experiments/knapen_AOT/AOT_stimuli/rescaled_final/2113_rv.mp4	0.0	291.80792808532715	2.5087649822235107
62	271.4834871292114	pulse	1	t		60.0	2.5	/experiments/knapen_AOT/AOT_stimuli/rescaled_final/2113_rv.mp4	0.0	293.4014151096344	
62	272.3987650871277	fix_post	2		12	60.0	2.5	/experiments/knapen_AOT/AOT_stimuli/rescaled_final/2113_rv.mp4	0.0	294.31669306755066	0.10003495216369629
63	272.4988000392914	fix_pre	0		120	61.0	2.5	/experiments/knapen_AOT/AOT_stimuli/rescaled_final/0282_fw.mp4	0.0	294.41672801971436	1.0001280307769775
63	273.08244800567627	pulse	0	t		61.0	2.5	/experiments/knapen_AOT/AOT_stimuli/rescaled_final/0282_fw.mp4	0.0	295.00037598609924	
63	273.49892807006836	movie	1		244	61.0	2.5	/experiments/knapen_AOT/AOT_stimuli/rescaled_final/0282_fw.mp4	0.0	295.41685605049133	2.5003421306610107
63	274.68275117874146	pulse	1	t		61.0	2.5	/experiments/knapen_AOT/AOT_stimuli/rescaled_final/0282_fw.mp4	0.0	296.60067915916443	
63	275.99927020072937	fix_post	2		12	61.0	2.5	/experiments/knapen_AOT/AOT_stimuli/rescaled_final/0282_fw.mp4	0.0	297.91719818115234	0.1000528335571289
64	276.0993230342865	fix_pre	0		120	62.0	2.5	blank	1.0	298.0172510147095	1.0001130104064941
64	276.2828571796417	pulse	0	t		62.0	2.5	blank	1.0	298.2007851600647	
64	277.099436044693	movie	1		300	62.0	2.5	blank	1.0	299.01736402511597	2.5004000663757324
64	277.88308000564575	pulse	1	t		62.0	2.5	blank	1.0	299.8010079860687	
64	279.48326110839844	pulse	1	t		62.0	2.5	blank	1.0	301.4011890888214	
64	279.5998361110687	fix_post	2		9	62.0	2.5	blank	1.0	301.5177640914917	0.10000109672546387
65	279.6998372077942	fix_pre	0		120	63.0	2.5	/experiments/knapen_AOT/AOT_stimuli/rescaled_final/2116_fw.mp4	0.0	301.61776518821716	1.0001599788665771
65	280.69999718666077	movie	1		243	63.0	2.5	/experiments/knapen_AOT/AOT_stimuli/rescaled_final/2116_fw.mp4	0.0	302.61792516708374	2.4919939041137695
65	281.085077047348	pulse	1	t		63.0	2.5	/experiments/knapen_AOT/AOT_stimuli/rescaled_final/2116_fw.mp4	0.0	303.003005027771	
65	282.6838631629944	pulse	1	t		63.0	2.5	/experiments/knapen_AOT/AOT_stimuli/rescaled_final/2116_fw.mp4	0.0	304.60179114341736	
65	283.19199109077454	fix_post	2		12	63.0	2.5	/experiments/knapen_AOT/AOT_stimuli/rescaled_final/2116_fw.mp4	0.0	305.1099190711975	0.10002708435058594
66	283.2920181751251	fix_pre	0		120	64.0	2.5	/experiments/knapen_AOT/AOT_stimuli/rescaled_final/2072_fw.mp4	0.0	305.2099461555481	1.0002379417419434
66	284.28403306007385	pulse	0	t		64.0	2.5	/experiments/knapen_AOT/AOT_stimuli/rescaled_final/2072_fw.mp4	0.0	306.2019610404968	
66	284.29225611686707	movie	1		246	64.0	2.5	/experiments/knapen_AOT/AOT_stimuli/rescaled_final/2072_fw.mp4	0.0	306.21018409729004	2.5086119174957275
66	285.88607001304626	pulse	1	t		64.0	2.5	/experiments/knapen_AOT/AOT_stimuli/rescaled_final/2072_fw.mp4	0.0	307.80399799346924	
66	286.8008680343628	fix_post	2		12	64.0	2.5	/experiments/knapen_AOT/AOT_stimuli/rescaled_final/2072_fw.mp4	0.0	308.71879601478577	0.10002517700195312
67	286.90089321136475	fix_pre	0		120	65.0	2.5	/experiments/knapen_AOT/AOT_stimuli/rescaled_final/0031_rv.mp4	0.0	308.8188211917877	1.0001578330993652
67	287.4846251010895	pulse	0	t		65.0	2.5	/experiments/knapen_AOT/AOT_stimuli/rescaled_final/0031_rv.mp4	0.0	309.40255308151245	
67	287.9010510444641	movie	1		244	65.0	2.5	/experiments/knapen_AOT/AOT_stimuli/rescaled_final/0031_rv.mp4	0.0	309.8189790248871	2.500357151031494
67	289.08073902130127	pulse	1	t		65.0	2.5	/experiments/knapen_AOT/AOT_stimuli/rescaled_final/0031_rv.mp4	0.0	310.99866700172424	
67	290.4014081954956	fix_post	2		12	65.0	2.5	/experiments/knapen_AOT/AOT_stimuli/rescaled_final/0031_rv.mp4	0.0	312.3193361759186	0.10003185272216797
68	290.5014400482178	fix_pre	0		120	66.0	2.5	/experiments/knapen_AOT/AOT_stimuli/rescaled_final/1235_fw.mp4	0.0	312.41936802864075	1.000180959701538
68	290.6776010990143	pulse	0	t		66.0	2.5	/experiments/knapen_AOT/AOT_stimuli/rescaled_final/1235_fw.mp4	0.0	312.59552907943726	
68	291.5016210079193	movie	1		244	66.0	2.5	/experiments/knapen_AOT/AOT_stimuli/rescaled_final/1235_fw.mp4	0.0	313.4195489883423	2.5003371238708496
68	292.27795004844666	pulse	1	t		66.0	2.5	/experiments/knapen_AOT/AOT_stimuli/rescaled_final/1235_fw.mp4	0.0	314.19587802886963	
68	293.88525104522705	pulse	1	t		66.0	2.5	/experiments/knapen_AOT/AOT_stimuli/rescaled_final/1235_fw.mp4	0.0	315.80317902565	
68	294.00195813179016	fix_post	2		12	66.0	2.5	/experiments/knapen_AOT/AOT_stimuli/rescaled_final/1235_fw.mp4	0.0	315.91988611221313	0.1000208854675293
69	294.1019790172577	fix_pre	0		119	67.0	2.5	/experiments/knapen_AOT/AOT_stimuli/rescaled_final/1393_fw.mp4	0.0	316.01990699768066	0.9918160438537598
69	295.09379506111145	movie	1		245	67.0	2.5	/experiments/knapen_AOT/AOT_stimuli/rescaled_final/1393_fw.mp4	0.0	317.0117230415344	2.500359058380127
69	295.47789907455444	pulse	1	t		67.0	2.5	/experiments/knapen_AOT/AOT_stimuli/rescaled_final/1393_fw.mp4	0.0	317.3958270549774	
69	297.07861518859863	pulse	1	t		67.0	2.5	/experiments/knapen_AOT/AOT_stimuli/rescaled_final/1393_fw.mp4	0.0	318.9965431690216	
69	297.5941541194916	fix_post	2		12	67.0	2.5	/experiments/knapen_AOT/AOT_stimuli/rescaled_final/1393_fw.mp4	0.0	319.51208209991455	0.10005903244018555
70	297.69421315193176	fix_pre	0		119	68.0	2.5	/experiments/knapen_AOT/AOT_stimuli/rescaled_final/0621_rv.mp4	0.0	319.61214113235474	0.991786003112793
70	298.6779479980469	pulse	0	t		68.0	2.5	/experiments/knapen_AOT/AOT_stimuli/rescaled_final/0621_rv.mp4	0.0	320.59587597846985	
70	298.68599915504456	movie	1		245	68.0	2.5	/experiments/knapen_AOT/AOT_stimuli/rescaled_final/0621_rv.mp4	0.0	320.60392713546753	2.5086829662323
70	300.2788381576538	pulse	1	t		68.0	2.5	/experiments/knapen_AOT/AOT_stimuli/rescaled_final/0621_rv.mp4	0.0	322.1967661380768	
70	301.19468212127686	fix_post	2		12	68.0	2.5	/experiments/knapen_AOT/AOT_stimuli/rescaled_final/0621_rv.mp4	0.0	323.11261010169983	0.10004901885986328
71	301.2947311401367	fix_pre	0		120	69.0	2.5	blank	1.0	323.2126591205597	1.0001368522644043
71	301.87828302383423	pulse	0	t		69.0	2.5	blank	1.0	323.7962110042572	
71	302.2948679924011	movie	1		300	69.0	2.5	blank	1.0	324.2127959728241	2.5003762245178223
71	303.47866702079773	pulse	1	t		69.0	2.5	blank	1.0	325.3965950012207	
71	304.79524421691895	fix_post	2		12	69.0	2.5	blank	1.0	326.7131721973419	0.1000068187713623
72	304.8952510356903	fix_pre	0		120	70.0	2.5	/experiments/knapen_AOT/AOT_stimuli/rescaled_final/1379_fw.mp4	0.0	326.8131790161133	1.0001420974731445
72	305.0789330005646	pulse	0	t		70.0	2.5	/experiments/knapen_AOT/AOT_stimuli/rescaled_final/1379_fw.mp4	0.0	326.99686098098755	
72	305.89539313316345	movie	1		245	70.0	2.5	/experiments/knapen_AOT/AOT_stimuli/rescaled_final/1379_fw.mp4	0.0	327.8133211135864	2.5003528594970703
72	306.67904710769653	pulse	1	t		70.0	2.5	/experiments/knapen_AOT/AOT_stimuli/rescaled_final/1379_fw.mp4	0.0	328.5969750881195	
72	308.27932810783386	pulse	1	t		70.0	2.5	/experiments/knapen_AOT/AOT_stimuli/rescaled_final/1379_fw.mp4	0.0	330.19725608825684	
72	308.3957459926605	fix_post	2		12	70.0	2.5	/experiments/knapen_AOT/AOT_stimuli/rescaled_final/1379_fw.mp4	0.0	330.3136739730835	0.1000971794128418
73	308.49584317207336	fix_pre	0		120	71.0	2.5	/experiments/knapen_AOT/AOT_stimuli/rescaled_final/0767_fw.mp4	0.0	330.41377115249634	1.0000989437103271
73	309.4959421157837	movie	1		244	71.0	2.5	/experiments/knapen_AOT/AOT_stimuli/rescaled_final/0767_fw.mp4	0.0	331.41387009620667	2.49200701713562
73	309.8798282146454	pulse	1	t		71.0	2.5	/experiments/knapen_AOT/AOT_stimuli/rescaled_final/0767_fw.mp4	0.0	331.79775619506836	
73	311.4799020290375	pulse	1	t		71.0	2.5	/experiments/knapen_AOT/AOT_stimuli/rescaled_final/0767_fw.mp4	0.0	333.39783000946045	
73	311.9879491329193	fix_post	2		12	71.0	2.5	/experiments/knapen_AOT/AOT_stimuli/rescaled_final/0767_fw.mp4	0.0	333.9058771133423	0.10004806518554688
74	312.08799719810486	fix_pre	0		120	72.0	2.5	/experiments/knapen_AOT/AOT_stimuli/rescaled_final/0434_fw.mp4	0.0	334.00592517852783	1.000173807144165
74	313.0800540447235	pulse	0	t		72.0	2.5	/experiments/knapen_AOT/AOT_stimuli/rescaled_final/0434_fw.mp4	0.0	334.9979820251465	
74	313.088171005249	movie	1		244	72.0	2.5	/experiments/knapen_AOT/AOT_stimuli/rescaled_final/0434_fw.mp4	0.0	335.006098985672	2.5086581707000732
74	314.6809730529785	pulse	1	t		72.0	2.5	/experiments/knapen_AOT/AOT_stimuli/rescaled_final/0434_fw.mp4	0.0	336.5989010334015	
74	315.5968291759491	fix_post	2		12	72.0	2.5	/experiments/knapen_AOT/AOT_stimuli/rescaled_final/0434_fw.mp4	0.0	337.51475715637207	0.10006093978881836
75	315.6968901157379	fix_pre	0		120	73.0	2.5	/experiments/knapen_AOT/AOT_stimuli/rescaled_final/0880_fw.mp4	0.0	337.6148180961609	1.0001130104064941
75	316.2806022167206	pulse	0	t		73.0	2.5	/experiments/knapen_AOT/AOT_stimuli/rescaled_final/0880_fw.mp4	0.0	338.19853019714355	
75	316.6970031261444	movie	1		244	73.0	2.5	/experiments/knapen_AOT/AOT_stimuli/rescaled_final/0880_fw.mp4	0.0	338.6149311065674	2.500369071960449
75	317.88092708587646	pulse	1	t		73.0	2.5	/experiments/knapen_AOT/AOT_stimuli/rescaled_final/0880_fw.mp4	0.0	339.79885506629944	
75	319.19737219810486	fix_post	2		12	73.0	2.5	/experiments/knapen_AOT/AOT_stimuli/rescaled_final/0880_fw.mp4	0.0	341.11530017852783	0.1000518798828125
76	319.29742407798767	fix_pre	0		120	74.0	2.5	/experiments/knapen_AOT/AOT_stimuli/rescaled_final/1576_fw.mp4	0.0	341.21535205841064	1.0001261234283447
76	319.4810130596161	pulse	0	t		74.0	2.5	/experiments/knapen_AOT/AOT_stimuli/rescaled_final/1576_fw.mp4	0.0	341.39894104003906	
76	320.297550201416	movie	1		244	74.0	2.5	/experiments/knapen_AOT/AOT_stimuli/rescaled_final/1576_fw.mp4	0.0	342.215478181839	2.500356912612915
76	321.08116602897644	pulse	1	t		74.0	2.5	/experiments/knapen_AOT/AOT_stimuli/rescaled_final/1576_fw.mp4	0.0	342.9990940093994	
76	322.68148398399353	pulse	1	t		74.0	2.5	/experiments/knapen_AOT/AOT_stimuli/rescaled_final/1576_fw.mp4	0.0	344.5994119644165	
76	322.79790711402893	fix_post	2		12	74.0	2.5	/experiments/knapen_AOT/AOT_stimuli/rescaled_final/1576_fw.mp4	0.0	344.7158350944519	0.10003900527954102
77	322.8979461193085	fix_pre	0		120	75.0	2.5	/experiments/knapen_AOT/AOT_stimuli/rescaled_final/0270_fw.mp4	0.0	344.81587409973145	1.0001659393310547
77	323.8981120586395	movie	1		243	75.0	2.5	/experiments/knapen_AOT/AOT_stimuli/rescaled_final/0270_fw.mp4	0.0	345.8160400390625	2.4919991493225098
77	324.28214621543884	pulse	1	t		75.0	2.5	/experiments/knapen_AOT/AOT_stimuli/rescaled_final/0270_fw.mp4	0.0	346.2000741958618	
77	325.8820331096649	pulse	1	t		75.0	2.5	/experiments/knapen_AOT/AOT_stimuli/rescaled_final/0270_fw.mp4	0.0	347.7999610900879	
77	326.39011120796204	fix_post	2		12	75.0	2.5	/experiments/knapen_AOT/AOT_stimuli/rescaled_final/0270_fw.mp4	0.0	348.308039188385	0.10000491142272949
78	326.49011611938477	fix_pre	0		120	76.0	2.5	blank	1.0	348.40804409980774	1.0002639293670654
78	327.4821569919586	pulse	0	t		76.0	2.5	blank	1.0	349.4000849723816	
78	327.49038004875183	movie	1		301	76.0	2.5	blank	1.0	349.4083080291748	2.5086870193481445
78	329.0824511051178	pulse	1	t		76.0	2.5	blank	1.0	351.00037908554077	
78	329.9990670681	fix_post	2		12	76.0	2.5	blank	1.0	351.91699504852295	0.09993791580200195
79	330.099004983902	fix_pre	0		120	77.0	2.5	/experiments/knapen_AOT/AOT_stimuli/rescaled_final/0324_fw.mp4	0.0	352.01693296432495	1.0001630783081055
79	330.682736158371	pulse	0	t		77.0	2.5	/experiments/knapen_AOT/AOT_stimuli/rescaled_final/0324_fw.mp4	0.0	352.60066413879395	
79	331.0991680622101	movie	1		243	77.0	2.5	/experiments/knapen_AOT/AOT_stimuli/rescaled_final/0324_fw.mp4	0.0	353.01709604263306	2.5003769397735596
79	332.2830300331116	pulse	1	t		77.0	2.5	/experiments/knapen_AOT/AOT_stimuli/rescaled_final/0324_fw.mp4	0.0	354.20095801353455	
79	333.59954500198364	fix_post	2		12	77.0	2.5	/experiments/knapen_AOT/AOT_stimuli/rescaled_final/0324_fw.mp4	0.0	355.5174729824066	0.10001897811889648
80	333.69956398010254	fix_pre	0		120	78.0	2.5	/experiments/knapen_AOT/AOT_stimuli/rescaled_final/1317_fw.mp4	0.0	355.6174919605255	1.0001962184906006
80	333.88308119773865	pulse	0	t		78.0	2.5	/experiments/knapen_AOT/AOT_stimuli/rescaled_final/1317_fw.mp4	0.0	355.8010091781616	
80	334.69976019859314	movie	1		244	78.0	2.5	/experiments/knapen_AOT/AOT_stimuli/rescaled_final/1317_fw.mp4	0.0	356.6176881790161	2.5003278255462646
80	335.48332118988037	pulse	1	t		78.0	2.5	/experiments/knapen_AOT/AOT_stimuli/rescaled_final/1317_fw.mp4	0.0	357.40124917030334	
80	337.081228017807	pulse	1	t		78.0	2.5	/experiments/knapen_AOT/AOT_stimuli/rescaled_final/1317_fw.mp4	0.0	358.99915599823	
80	337.2000880241394	fix_post	2		12	78.0	2.5	/experiments/knapen_AOT/AOT_stimuli/rescaled_final/1317_fw.mp4	0.0	359.1180160045624	0.10002303123474121
81	337.30011105537415	fix_pre	0		115	79.0	2.5	/experiments/knapen_AOT/AOT_stimuli/rescaled_final/0247_rv.mp4	0.0	359.2180390357971	0.9918129444122314
81	338.2919239997864	movie	1		244	79.0	2.5	/experiments/knapen_AOT/AOT_stimuli/rescaled_final/0247_rv.mp4	0.0	360.20985198020935	2.500349998474121
81	338.6840260028839	pulse	1	t		79.0	2.5	/experiments/knapen_AOT/AOT_stimuli/rescaled_final/0247_rv.mp4	0.0	360.6019539833069	
81	340.28406405448914	pulse	1	t		79.0	2.5	/experiments/knapen_AOT/AOT_stimuli/rescaled_final/0247_rv.mp4	0.0	362.2019920349121	
81	340.7922739982605	fix_post	2		12	79.0	2.5	/experiments/knapen_AOT/AOT_stimuli/rescaled_final/0247_rv.mp4	0.0	362.7102019786835	0.10005402565002441
82	340.8923280239105	fix_pre	0		120	80.0	2.5	/experiments/knapen_AOT/AOT_stimuli/rescaled_final/0428_rv.mp4	0.0	362.8102560043335	1.0001821517944336
82	341.8843719959259	pulse	0	t		80.0	2.5	/experiments/knapen_AOT/AOT_stimuli/rescaled_final/0428_rv.mp4	0.0	363.8022999763489	
82	341.89251017570496	movie	1		246	80.0	2.5	/experiments/knapen_AOT/AOT_stimuli/rescaled_final/0428_rv.mp4	0.0	363.81043815612793	2.508625030517578
82	343.48524498939514	pulse	1	t		80.0	2.5	/experiments/knapen_AOT/AOT_stimuli/rescaled_final/0428_rv.mp4	0.0	365.4031729698181	
82	344.40113520622253	fix_post	2		12	80.0	2.5	/experiments/knapen_AOT/AOT_stimuli/rescaled_final/0428_rv.mp4	0.0	366.3190631866455	0.1001439094543457
83	344.5012791156769	fix_pre	0		120	81.0	2.5	/experiments/knapen_AOT/AOT_stimuli/rescaled_final/0519_fw.mp4	0.0	366.41920709609985	1.000025987625122
83	345.0773181915283	pulse	0	t		81.0	2.5	/experiments/knapen_AOT/AOT_stimuli/rescaled_final/0519_fw.mp4	0.0	366.9952461719513	
83	345.501305103302	movie	1		244	81.0	2.5	/experiments/knapen_AOT/AOT_stimuli/rescaled_final/0519_fw.mp4	0.0	367.419233083725	2.5003840923309326
83	346.68149304389954	pulse	1	t		81.0	2.5	/experiments/knapen_AOT/AOT_stimuli/rescaled_final/0519_fw.mp4	0.0	368.5994210243225	
83	348.00168919563293	fix_post	2		12	81.0	2.5	/experiments/knapen_AOT/AOT_stimuli/rescaled_final/0519_fw.mp4	0.0	369.9196171760559	0.10007095336914062
84	348.1017601490021	fix_pre	0		120	82.0	2.5	blank	1.0	370.01968812942505	1.0000739097595215
84	348.27790212631226	pulse	0	t		82.0	2.5	blank	1.0	370.19583010673523	
84	349.1018340587616	movie	1		300	82.0	2.5	blank	1.0	371.01976203918457	2.5004401206970215
84	349.8778831958771	pulse	1	t		82.0	2.5	blank	1.0	371.79581117630005	
84	351.47747802734375	pulse	1	t		82.0	2.5	blank	1.0	373.3954060077667	
84	351.6022741794586	fix_post	2		12	82.0	2.5	blank	1.0	373.5202021598816	0.09999585151672363
85	351.70227003097534	fix_pre	0		120	83.0	2.5	/experiments/knapen_AOT/AOT_stimuli/rescaled_final/0182_fw.mp4	0.0	373.6201980113983	1.0000901222229004
85	352.70236015319824	movie	1		242	83.0	2.5	/experiments/knapen_AOT/AOT_stimuli/rescaled_final/0182_fw.mp4	0.0	374.6202881336212	2.492055892944336
85	353.07759404182434	pulse	1	t		83.0	2.5	/experiments/knapen_AOT/AOT_stimuli/rescaled_final/0182_fw.mp4	0.0	374.9955220222473	
85	354.67793107032776	pulse	1	t		83.0	2.5	/experiments/knapen_AOT/AOT_stimuli/rescaled_final/0182_fw.mp4	0.0	376.59585905075073	
85	355.1944160461426	fix_post	2		12	83.0	2.5	/experiments/knapen_AOT/AOT_stimuli/rescaled_final/0182_fw.mp4	0.0	377.11234402656555	0.10002613067626953
87	355.29444217681885	stim	0		1716					377.2123701572418	14.302218914031982
87	356.2781322002411	pulse	0	t						378.19606018066406	
87	357.87841606140137	pulse	0	t						379.79634404182434	
87	359.47859811782837	pulse	0	t						381.39652609825134	
87	361.07882499694824	pulse	0	t						382.9967529773712	
87	362.6790180206299	pulse	0	t						384.59694600105286	
87	364.2793381214142	pulse	0	t						386.19726610183716	
87	365.87958216667175	pulse	0	t						387.7975101470947	
87	367.47974920272827	pulse	0	t						389.39767718315125	
87	369.0800290107727	pulse	0	t						390.9979569911957	
