trial_nr	onset	event_type	phase	response	nr_frames	movie_index	movie_duration	movie_file	blank	onset_abs	duration
0	0.10828495025634766	stim	0		40					42.58012294769287	0.33335208892822266
0	0.4336669445037842	response	0	space						42.90550494194031	
1	0.4416370391845703	stim	0		4720					42.913475036621094	39.332881927490234
1	39.77023196220398	pulse	0	t						82.2420699596405	
1	39.774518966674805	stim	1		1717					82.24635696411133	14.308333158493042
1	41.36649012565613	pulse	1	t						83.83832812309265	
1	42.96629500389099	pulse	1	t						85.43813300132751	
1	44.56630897521973	pulse	1	t						87.03814697265625	
1	46.16633701324463	pulse	1	t						88.63817501068115	
1	47.766273975372314	pulse	1	t						90.23811197280884	
1	49.36628198623657	pulse	1	t						91.8381199836731	
1	50.966331005096436	pulse	1	t						93.43816900253296	
1	52.56632900238037	pulse	1	t						95.0381669998169	
2	54.08285212516785	fix_pre	0		11	0.0	2.5	/experiments/AOT/AOT_stimuli/rescaled_final/2052_rv.mp4	0.0	96.55469012260437	0.0912468433380127
2	54.16635704040527	pulse	0	t		0.0	2.5	/experiments/AOT/AOT_stimuli/rescaled_final/2052_rv.mp4	0.0	96.6381950378418	
2	54.17409896850586	movie	1		244	0.0	2.5	/experiments/AOT/AOT_stimuli/rescaled_final/2052_rv.mp4	0.0	96.64593696594238	2.508574962615967
2	55.76564002037048	pulse	1	t		0.0	2.5	/experiments/AOT/AOT_stimuli/rescaled_final/2052_rv.mp4	0.0	98.237478017807	
2	56.682673931121826	fix_post	2		12	0.0	2.5	/experiments/AOT/AOT_stimuli/rescaled_final/2052_rv.mp4	0.0	99.15451192855835	0.10044217109680176
3	56.78311610221863	fix_pre	0		120	1.0	2.5	/experiments/AOT/AOT_stimuli/rescaled_final/0228_rv.mp4	0.0	99.25495409965515	0.999687910079956
3	57.36635708808899	pulse	0	t		1.0	2.5	/experiments/AOT/AOT_stimuli/rescaled_final/0228_rv.mp4	0.0	99.83819508552551	
3	57.782804012298584	movie	1		245	1.0	2.5	/experiments/AOT/AOT_stimuli/rescaled_final/0228_rv.mp4	0.0	100.25464200973511	2.4999749660491943
3	58.96637010574341	pulse	1	t		1.0	2.5	/experiments/AOT/AOT_stimuli/rescaled_final/0228_rv.mp4	0.0	101.43820810317993	
3	60.28277897834778	fix_post	2		12	1.0	2.5	/experiments/AOT/AOT_stimuli/rescaled_final/0228_rv.mp4	0.0	102.7546169757843	0.09999513626098633
4	60.382774114608765	fix_pre	0		120	2.0	2.5	/experiments/AOT/AOT_stimuli/rescaled_final/0741_fw.mp4	0.0	102.85461211204529	1.0000028610229492
4	60.56627893447876	pulse	0	t		2.0	2.5	/experiments/AOT/AOT_stimuli/rescaled_final/0741_fw.mp4	0.0	103.03811693191528	
4	61.382776975631714	movie	1		245	2.0	2.5	/experiments/AOT/AOT_stimuli/rescaled_final/0741_fw.mp4	0.0	103.85461497306824	2.499906063079834
4	62.166183948516846	pulse	1	t		2.0	2.5	/experiments/AOT/AOT_stimuli/rescaled_final/0741_fw.mp4	0.0	104.63802194595337	
4	63.76477813720703	pulse	1	t		2.0	2.5	/experiments/AOT/AOT_stimuli/rescaled_final/0741_fw.mp4	0.0	106.23661613464355	
4	63.88268303871155	fix_post	2		12	2.0	2.5	/experiments/AOT/AOT_stimuli/rescaled_final/0741_fw.mp4	0.0	106.35452103614807	0.1000070571899414
5	63.98269009590149	fix_pre	0		120	3.0	2.5	/experiments/AOT/AOT_stimuli/rescaled_final/0265_rv.mp4	0.0	106.45452809333801	0.999608039855957
5	64.98229813575745	movie	1		245	3.0	2.5	/experiments/AOT/AOT_stimuli/rescaled_final/0265_rv.mp4	0.0	107.45413613319397	2.500316858291626
5	65.36585807800293	pulse	1	t		3.0	2.5	/experiments/AOT/AOT_stimuli/rescaled_final/0265_rv.mp4	0.0	107.83769607543945	
5	66.96617197990417	pulse	1	t		3.0	2.5	/experiments/AOT/AOT_stimuli/rescaled_final/0265_rv.mp4	0.0	109.4380099773407	
5	67.48261499404907	fix_post	2		12	3.0	2.5	/experiments/AOT/AOT_stimuli/rescaled_final/0265_rv.mp4	0.0	109.9544529914856	0.10007309913635254
6	67.58268809318542	fix_pre	0		119	4.0	2.5	/experiments/AOT/AOT_stimuli/rescaled_final/1589_rv.mp4	0.0	110.05452609062195	0.9917619228363037
6	68.56623101234436	pulse	0	t		4.0	2.5	/experiments/AOT/AOT_stimuli/rescaled_final/1589_rv.mp4	0.0	111.03806900978088	
6	68.57445001602173	movie	1		245	4.0	2.5	/experiments/AOT/AOT_stimuli/rescaled_final/1589_rv.mp4	0.0	111.04628801345825	2.5082199573516846
6	70.16616106033325	pulse	1	t		4.0	2.5	/experiments/AOT/AOT_stimuli/rescaled_final/1589_rv.mp4	0.0	112.63799905776978	
6	71.08266997337341	fix_post	2		12	4.0	2.5	/experiments/AOT/AOT_stimuli/rescaled_final/1589_rv.mp4	0.0	113.55450797080994	0.09995794296264648
7	71.18262791633606	fix_pre	0		120	5.0	2.5	/experiments/AOT/AOT_stimuli/rescaled_final/0888_fw.mp4	0.0	113.65446591377258	1.0000381469726562
7	71.76625895500183	pulse	0	t		5.0	2.5	/experiments/AOT/AOT_stimuli/rescaled_final/0888_fw.mp4	0.0	114.23809695243835	
7	72.18266606330872	movie	1		243	5.0	2.5	/experiments/AOT/AOT_stimuli/rescaled_final/0888_fw.mp4	0.0	114.65450406074524	2.499582052230835
7	73.36624097824097	pulse	1	t		5.0	2.5	/experiments/AOT/AOT_stimuli/rescaled_final/0888_fw.mp4	0.0	115.83807897567749	
7	74.68224811553955	fix_post	2		12	5.0	2.5	/experiments/AOT/AOT_stimuli/rescaled_final/0888_fw.mp4	0.0	117.15408611297607	0.10041594505310059
8	74.78266406059265	fix_pre	0		120	6.0	2.5	blank	1.0	117.25450205802917	0.9999699592590332
8	74.96619892120361	pulse	0	t		6.0	2.5	blank	1.0	117.43803691864014	
8	75.78263401985168	movie	1		300	6.0	2.5	blank	1.0	118.25447201728821	2.499988079071045
8	76.56622695922852	pulse	1	t		6.0	2.5	blank	1.0	119.03806495666504	
8	78.16612410545349	pulse	1	t		6.0	2.5	blank	1.0	120.63796210289001	
8	78.28262209892273	fix_post	2		12	6.0	2.5	blank	1.0	120.75446009635925	0.10000395774841309
9	78.38262605667114	fix_pre	0		120	7.0	2.5	/experiments/AOT/AOT_stimuli/rescaled_final/1763_fw.mp4	0.0	120.85446405410767	0.9996089935302734
9	79.38223505020142	movie	1		244	7.0	2.5	/experiments/AOT/AOT_stimuli/rescaled_final/1763_fw.mp4	0.0	121.85407304763794	2.500494956970215
9	79.76581406593323	pulse	1	t		7.0	2.5	/experiments/AOT/AOT_stimuli/rescaled_final/1763_fw.mp4	0.0	122.23765206336975	
9	81.3662040233612	pulse	1	t		7.0	2.5	/experiments/AOT/AOT_stimuli/rescaled_final/1763_fw.mp4	0.0	123.83804202079773	
9	81.88273000717163	fix_post	2		12	7.0	2.5	/experiments/AOT/AOT_stimuli/rescaled_final/1763_fw.mp4	0.0	124.35456800460815	0.09986495971679688
10	81.98259496688843	fix_pre	0		119	8.0	2.5	/experiments/AOT/AOT_stimuli/rescaled_final/0551_fw.mp4	0.0	124.45443296432495	0.9917800426483154
10	82.96615791320801	pulse	0	t		8.0	2.5	/experiments/AOT/AOT_stimuli/rescaled_final/0551_fw.mp4	0.0	125.43799591064453	
10	82.97437500953674	movie	1		243	8.0	2.5	/experiments/AOT/AOT_stimuli/rescaled_final/0551_fw.mp4	0.0	125.44621300697327	2.5081889629364014
10	84.56663608551025	pulse	1	t		8.0	2.5	/experiments/AOT/AOT_stimuli/rescaled_final/0551_fw.mp4	0.0	127.03847408294678	
10	85.48256397247314	fix_post	2		12	8.0	2.5	/experiments/AOT/AOT_stimuli/rescaled_final/0551_fw.mp4	0.0	127.95440196990967	0.10006308555603027
11	85.58262705802917	fix_pre	0		120	9.0	2.5	/experiments/AOT/AOT_stimuli/rescaled_final/0595_fw.mp4	0.0	128.0544650554657	0.9999539852142334
11	86.1661970615387	pulse	0	t		9.0	2.5	/experiments/AOT/AOT_stimuli/rescaled_final/0595_fw.mp4	0.0	128.63803505897522	
11	86.58258104324341	movie	1		244	9.0	2.5	/experiments/AOT/AOT_stimuli/rescaled_final/0595_fw.mp4	0.0	129.05441904067993	2.499971866607666
11	87.76622009277344	pulse	1	t		9.0	2.5	/experiments/AOT/AOT_stimuli/rescaled_final/0595_fw.mp4	0.0	130.23805809020996	
11	89.08255290985107	fix_post	2		12	9.0	2.5	/experiments/AOT/AOT_stimuli/rescaled_final/0595_fw.mp4	0.0	131.5543909072876	0.1000361442565918
12	89.18258905410767	fix_pre	0		120	10.0	2.5	/experiments/AOT/AOT_stimuli/rescaled_final/0713_fw.mp4	0.0	131.6544270515442	1.0000028610229492
12	89.36609506607056	pulse	0	t		10.0	2.5	/experiments/AOT/AOT_stimuli/rescaled_final/0713_fw.mp4	0.0	131.83793306350708	
12	90.18259191513062	movie	1		245	10.0	2.5	/experiments/AOT/AOT_stimuli/rescaled_final/0713_fw.mp4	0.0	132.65442991256714	2.4995181560516357
12	90.9661591053009	pulse	1	t		10.0	2.5	/experiments/AOT/AOT_stimuli/rescaled_final/0713_fw.mp4	0.0	133.43799710273743	
12	92.56212902069092	pulse	1	t		10.0	2.5	/experiments/AOT/AOT_stimuli/rescaled_final/0713_fw.mp4	0.0	135.03396701812744	
12	92.68211007118225	fix_post	2		12	10.0	2.5	/experiments/AOT/AOT_stimuli/rescaled_final/0713_fw.mp4	0.0	135.15394806861877	0.10047388076782227
13	92.78258395195007	fix_pre	0		120	11.0	2.5	/experiments/AOT/AOT_stimuli/rescaled_final/0337_rv.mp4	0.0	135.2544219493866	0.9999639987945557
13	93.78254795074463	movie	1		243	11.0	2.5	/experiments/AOT/AOT_stimuli/rescaled_final/0337_rv.mp4	0.0	136.25438594818115	2.500041961669922
13	94.16567802429199	pulse	1	t		11.0	2.5	/experiments/AOT/AOT_stimuli/rescaled_final/0337_rv.mp4	0.0	136.63751602172852	
13	95.76606297492981	pulse	1	t		11.0	2.5	/experiments/AOT/AOT_stimuli/rescaled_final/0337_rv.mp4	0.0	138.23790097236633	
13	96.28258991241455	fix_post	2		12	11.0	2.5	/experiments/AOT/AOT_stimuli/rescaled_final/0337_rv.mp4	0.0	138.75442790985107	0.09956121444702148
14	96.38215112686157	fix_pre	0		119	12.0	2.5	/experiments/AOT/AOT_stimuli/rescaled_final/1532_rv.mp4	0.0	138.8539891242981	0.9921038150787354
14	97.36598992347717	pulse	0	t		12.0	2.5	/experiments/AOT/AOT_stimuli/rescaled_final/1532_rv.mp4	0.0	139.8378279209137	
14	97.37425494194031	movie	1		244	12.0	2.5	/experiments/AOT/AOT_stimuli/rescaled_final/1532_rv.mp4	0.0	139.84609293937683	2.508362054824829
14	98.96557092666626	pulse	1	t		12.0	2.5	/experiments/AOT/AOT_stimuli/rescaled_final/1532_rv.mp4	0.0	141.43740892410278	
14	99.88261699676514	fix_post	2		12	12.0	2.5	/experiments/AOT/AOT_stimuli/rescaled_final/1532_rv.mp4	0.0	142.35445499420166	0.09998703002929688
15	99.98260402679443	fix_pre	0		120	13.0	2.5	blank	1.0	142.45444202423096	0.9999380111694336
15	100.56612300872803	pulse	0	t		13.0	2.5	blank	1.0	143.03796100616455	
15	100.98254203796387	movie	1		300	13.0	2.5	blank	1.0	143.4543800354004	2.5000128746032715
15	102.16626310348511	pulse	1	t		13.0	2.5	blank	1.0	144.63810110092163	
15	103.48255491256714	fix_post	2		12	13.0	2.5	blank	1.0	145.95439291000366	0.10000109672546387
16	103.5825560092926	fix_pre	0		120	14.0	2.5	/experiments/AOT/AOT_stimuli/rescaled_final/0037_fw.mp4	0.0	146.05439400672913	0.9999980926513672
16	103.76605296134949	pulse	0	t		14.0	2.5	/experiments/AOT/AOT_stimuli/rescaled_final/0037_fw.mp4	0.0	146.237890958786	
16	104.58255410194397	movie	1		246	14.0	2.5	/experiments/AOT/AOT_stimuli/rescaled_final/0037_fw.mp4	0.0	147.0543920993805	2.4999618530273438
16	105.36615490913391	pulse	1	t		14.0	2.5	/experiments/AOT/AOT_stimuli/rescaled_final/0037_fw.mp4	0.0	147.83799290657043	
16	106.96594190597534	pulse	1	t		14.0	2.5	/experiments/AOT/AOT_stimuli/rescaled_final/0037_fw.mp4	0.0	149.43777990341187	
16	107.08251595497131	fix_post	2		12	14.0	2.5	/experiments/AOT/AOT_stimuli/rescaled_final/0037_fw.mp4	0.0	149.55435395240784	0.09999895095825195
17	107.18251490592957	fix_pre	0		120	15.0	2.5	/experiments/AOT/AOT_stimuli/rescaled_final/0458_rv.mp4	0.0	149.6543529033661	1.0000560283660889
17	108.18257093429565	movie	1		245	15.0	2.5	/experiments/AOT/AOT_stimuli/rescaled_final/0458_rv.mp4	0.0	150.65440893173218	2.499587059020996
17	108.56543707847595	pulse	1	t		15.0	2.5	/experiments/AOT/AOT_stimuli/rescaled_final/0458_rv.mp4	0.0	151.03727507591248	
17	110.16589903831482	pulse	1	t		15.0	2.5	/experiments/AOT/AOT_stimuli/rescaled_final/0458_rv.mp4	0.0	152.63773703575134	
17	110.68215799331665	fix_post	2		12	15.0	2.5	/experiments/AOT/AOT_stimuli/rescaled_final/0458_rv.mp4	0.0	153.15399599075317	0.10039901733398438
18	110.78255701065063	fix_pre	0		119	16.0	2.5	/experiments/AOT/AOT_stimuli/rescaled_final/0449_fw.mp4	0.0	153.25439500808716	0.9914181232452393
18	111.76577591896057	pulse	0	t		16.0	2.5	/experiments/AOT/AOT_stimuli/rescaled_final/0449_fw.mp4	0.0	154.2376139163971	
18	111.77397513389587	movie	1		246	16.0	2.5	/experiments/AOT/AOT_stimuli/rescaled_final/0449_fw.mp4	0.0	154.2458131313324	2.5085608959198
18	113.36544108390808	pulse	1	t		16.0	2.5	/experiments/AOT/AOT_stimuli/rescaled_final/0449_fw.mp4	0.0	155.8372790813446	
18	114.28253602981567	fix_post	2		12	16.0	2.5	/experiments/AOT/AOT_stimuli/rescaled_final/0449_fw.mp4	0.0	156.7543740272522	0.09993696212768555
19	114.38247299194336	fix_pre	0		120	17.0	2.5	/experiments/AOT/AOT_stimuli/rescaled_final/0326_rv.mp4	0.0	156.85431098937988	1.0000650882720947
19	114.96607398986816	pulse	0	t		17.0	2.5	/experiments/AOT/AOT_stimuli/rescaled_final/0326_rv.mp4	0.0	157.4379119873047	
19	115.38253808021545	movie	1		246	17.0	2.5	/experiments/AOT/AOT_stimuli/rescaled_final/0326_rv.mp4	0.0	157.85437607765198	2.4998910427093506
19	116.56604409217834	pulse	1	t		17.0	2.5	/experiments/AOT/AOT_stimuli/rescaled_final/0326_rv.mp4	0.0	159.03788208961487	
19	117.8824291229248	fix_post	2		12	17.0	2.5	/experiments/AOT/AOT_stimuli/rescaled_final/0326_rv.mp4	0.0	160.35426712036133	0.09960794448852539
20	117.98203706741333	fix_pre	0		120	18.0	2.5	/experiments/AOT/AOT_stimuli/rescaled_final/0793_rv.mp4	0.0	160.45387506484985	1.0004000663757324
20	118.1658980846405	pulse	0	t		18.0	2.5	/experiments/AOT/AOT_stimuli/rescaled_final/0793_rv.mp4	0.0	160.63773608207703	
20	118.98243713378906	movie	1		243	18.0	2.5	/experiments/AOT/AOT_stimuli/rescaled_final/0793_rv.mp4	0.0	161.4542751312256	2.49955677986145
20	119.76593708992004	pulse	1	t		18.0	2.5	/experiments/AOT/AOT_stimuli/rescaled_final/0793_rv.mp4	0.0	162.23777508735657	
20	121.36444902420044	pulse	1	t		18.0	2.5	/experiments/AOT/AOT_stimuli/rescaled_final/0793_rv.mp4	0.0	163.83628702163696	
20	121.48199391365051	fix_post	2		12	18.0	2.5	/experiments/AOT/AOT_stimuli/rescaled_final/0793_rv.mp4	0.0	163.95383191108704	0.10045099258422852
21	121.58244490623474	fix_pre	0		120	19.0	2.5	/experiments/AOT/AOT_stimuli/rescaled_final/1746_fw.mp4	0.0	164.05428290367126	0.9999690055847168
21	122.58241391181946	movie	1		243	19.0	2.5	/experiments/AOT/AOT_stimuli/rescaled_final/1746_fw.mp4	0.0	165.05425190925598	2.4995980262756348
21	122.96587896347046	pulse	1	t		19.0	2.5	/experiments/AOT/AOT_stimuli/rescaled_final/1746_fw.mp4	0.0	165.43771696090698	
21	124.56583595275879	pulse	1	t		19.0	2.5	/experiments/AOT/AOT_stimuli/rescaled_final/1746_fw.mp4	0.0	167.0376739501953	
21	125.08201193809509	fix_post	2		12	19.0	2.5	/experiments/AOT/AOT_stimuli/rescaled_final/1746_fw.mp4	0.0	167.55384993553162	0.10038399696350098
22	125.1823959350586	fix_pre	0		119	20.0	2.5	blank	1.0	167.65423393249512	0.9916231632232666
22	126.1658980846405	pulse	0	t		20.0	2.5	blank	1.0	168.63773608207703	
22	126.17401909828186	movie	1		301	20.0	2.5	blank	1.0	168.64585709571838	2.5084128379821777
22	127.765939950943	pulse	1	t		20.0	2.5	blank	1.0	170.23777794837952	
22	128.68243193626404	fix_post	2		12	20.0	2.5	blank	1.0	171.15426993370056	0.09995317459106445
23	128.7823851108551	fix_pre	0		120	21.0	2.5	/experiments/AOT/AOT_stimuli/rescaled_final/2086_fw.mp4	0.0	171.25422310829163	1.0000360012054443
23	129.36581993103027	pulse	0	t		21.0	2.5	/experiments/AOT/AOT_stimuli/rescaled_final/2086_fw.mp4	0.0	171.8376579284668	
23	129.78242111206055	movie	1		246	21.0	2.5	/experiments/AOT/AOT_stimuli/rescaled_final/2086_fw.mp4	0.0	172.25425910949707	2.499584913253784
23	130.96592712402344	pulse	1	t		21.0	2.5	/experiments/AOT/AOT_stimuli/rescaled_final/2086_fw.mp4	0.0	173.43776512145996	
23	132.28200602531433	fix_post	2		12	21.0	2.5	/experiments/AOT/AOT_stimuli/rescaled_final/2086_fw.mp4	0.0	174.75384402275085	0.09994196891784668
24	132.38194799423218	fix_pre	0		120	22.0	2.5	/experiments/AOT/AOT_stimuli/rescaled_final/0570_rv.mp4	0.0	174.8537859916687	1.0004611015319824
24	132.56590008735657	pulse	0	t		22.0	2.5	/experiments/AOT/AOT_stimuli/rescaled_final/0570_rv.mp4	0.0	175.0377380847931	
24	133.38240909576416	movie	1		243	22.0	2.5	/experiments/AOT/AOT_stimuli/rescaled_final/0570_rv.mp4	0.0	175.85424709320068	2.5000338554382324
24	134.16592597961426	pulse	1	t		22.0	2.5	/experiments/AOT/AOT_stimuli/rescaled_final/0570_rv.mp4	0.0	176.63776397705078	
24	135.76207208633423	pulse	1	t		22.0	2.5	/experiments/AOT/AOT_stimuli/rescaled_final/0570_rv.mp4	0.0	178.23391008377075	
24	135.8824429512024	fix_post	2		12	22.0	2.5	/experiments/AOT/AOT_stimuli/rescaled_final/0570_rv.mp4	0.0	178.35428094863892	0.09989809989929199
25	135.98234105110168	fix_pre	0		120	23.0	2.5	/experiments/AOT/AOT_stimuli/rescaled_final/1523_rv.mp4	0.0	178.4541790485382	0.9999830722808838
25	136.98232412338257	movie	1		243	23.0	2.5	/experiments/AOT/AOT_stimuli/rescaled_final/1523_rv.mp4	0.0	179.4541621208191	2.4995858669281006
25	137.36550092697144	pulse	1	t		23.0	2.5	/experiments/AOT/AOT_stimuli/rescaled_final/1523_rv.mp4	0.0	179.83733892440796	
25	138.96582007408142	pulse	1	t		23.0	2.5	/experiments/AOT/AOT_stimuli/rescaled_final/1523_rv.mp4	0.0	181.43765807151794	
25	139.48190999031067	fix_post	2		12	23.0	2.5	/experiments/AOT/AOT_stimuli/rescaled_final/1523_rv.mp4	0.0	181.9537479877472	0.10046696662902832
26	139.5823769569397	fix_pre	0		119	24.0	2.5	/experiments/AOT/AOT_stimuli/rescaled_final/0481_rv.mp4	0.0	182.05421495437622	0.9916551113128662
26	140.5659430027008	pulse	0	t		24.0	2.5	/experiments/AOT/AOT_stimuli/rescaled_final/0481_rv.mp4	0.0	183.03778100013733	
26	140.57403206825256	movie	1		244	24.0	2.5	/experiments/AOT/AOT_stimuli/rescaled_final/0481_rv.mp4	0.0	183.0458700656891	2.5083608627319336
26	142.16542100906372	pulse	1	t		24.0	2.5	/experiments/AOT/AOT_stimuli/rescaled_final/0481_rv.mp4	0.0	184.63725900650024	
26	143.0823929309845	fix_post	2		12	24.0	2.5	/experiments/AOT/AOT_stimuli/rescaled_final/0481_rv.mp4	0.0	185.55423092842102	0.0999760627746582
27	143.18236899375916	fix_pre	0		120	25.0	2.5	/experiments/AOT/AOT_stimuli/rescaled_final/0265_rv.mp4	0.0	185.65420699119568	0.9999990463256836
27	143.7658760547638	pulse	0	t		25.0	2.5	/experiments/AOT/AOT_stimuli/rescaled_final/0265_rv.mp4	0.0	186.23771405220032	
27	144.18236804008484	movie	1		244	25.0	2.5	/experiments/AOT/AOT_stimuli/rescaled_final/0265_rv.mp4	0.0	186.65420603752136	2.4998738765716553
27	145.3661470413208	pulse	1	t		25.0	2.5	/experiments/AOT/AOT_stimuli/rescaled_final/0265_rv.mp4	0.0	187.83798503875732	
27	146.6822419166565	fix_post	2		12	25.0	2.5	/experiments/AOT/AOT_stimuli/rescaled_final/0265_rv.mp4	0.0	189.15407991409302	0.10013508796691895
28	146.7823770046234	fix_pre	0		120	26.0	2.5	/experiments/AOT/AOT_stimuli/rescaled_final/0162_fw.mp4	0.0	189.25421500205994	0.9999349117279053
28	146.9658079147339	pulse	0	t		26.0	2.5	/experiments/AOT/AOT_stimuli/rescaled_final/0162_fw.mp4	0.0	189.4376459121704	
28	147.78231191635132	movie	1		247	26.0	2.5	/experiments/AOT/AOT_stimuli/rescaled_final/0162_fw.mp4	0.0	190.25414991378784	2.4999492168426514
28	148.56583213806152	pulse	1	t		26.0	2.5	/experiments/AOT/AOT_stimuli/rescaled_final/0162_fw.mp4	0.0	191.03767013549805	
28	150.16416096687317	pulse	1	t		26.0	2.5	/experiments/AOT/AOT_stimuli/rescaled_final/0162_fw.mp4	0.0	192.6359989643097	
28	150.28226113319397	fix_post	2		12	26.0	2.5	/experiments/AOT/AOT_stimuli/rescaled_final/0162_fw.mp4	0.0	192.7540991306305	0.10004281997680664
29	150.38230395317078	fix_pre	0		120	27.0	2.5	/experiments/AOT/AOT_stimuli/rescaled_final/0565_rv.mp4	0.0	192.8541419506073	0.9999711513519287
29	151.3822751045227	movie	1		245	27.0	2.5	/experiments/AOT/AOT_stimuli/rescaled_final/0565_rv.mp4	0.0	193.85411310195923	2.4999828338623047
29	151.76579809188843	pulse	1	t		27.0	2.5	/experiments/AOT/AOT_stimuli/rescaled_final/0565_rv.mp4	0.0	194.23763608932495	
29	153.3657569885254	pulse	1	t		27.0	2.5	/experiments/AOT/AOT_stimuli/rescaled_final/0565_rv.mp4	0.0	195.8375949859619	
29	153.882257938385	fix_post	2		12	27.0	2.5	/experiments/AOT/AOT_stimuli/rescaled_final/0565_rv.mp4	0.0	196.35409593582153	0.09975600242614746
30	153.98201394081116	fix_pre	0		119	28.0	2.5	blank	1.0	196.45385193824768	0.9919610023498535
30	154.96581602096558	pulse	0	t		28.0	2.5	blank	1.0	197.4376540184021	
30	154.973974943161	movie	1		301	28.0	2.5	blank	1.0	197.44581294059753	2.5083680152893066
30	156.56581211090088	pulse	1	t		28.0	2.5	blank	1.0	199.0376501083374	
30	157.48234295845032	fix_post	2		12	28.0	2.5	blank	1.0	199.95418095588684	0.09960198402404785
31	157.58194494247437	fix_pre	0		120	29.0	2.5	/experiments/AOT/AOT_stimuli/rescaled_final/0965_rv.mp4	0.0	200.0537829399109	1.0003759860992432
31	158.1657431125641	pulse	0	t		29.0	2.5	/experiments/AOT/AOT_stimuli/rescaled_final/0965_rv.mp4	0.0	200.6375811100006	
31	158.5823209285736	movie	1		244	29.0	2.5	/experiments/AOT/AOT_stimuli/rescaled_final/0965_rv.mp4	0.0	201.05415892601013	2.4999401569366455
31	159.76580691337585	pulse	1	t		29.0	2.5	/experiments/AOT/AOT_stimuli/rescaled_final/0965_rv.mp4	0.0	202.23764491081238	
31	161.08226108551025	fix_post	2		12	29.0	2.5	/experiments/AOT/AOT_stimuli/rescaled_final/0965_rv.mp4	0.0	203.55409908294678	0.10001397132873535
32	161.182275056839	fix_pre	0		120	30.0	2.5	/experiments/AOT/AOT_stimuli/rescaled_final/0604_fw.mp4	0.0	203.6541130542755	0.999582052230835
32	161.36577892303467	pulse	0	t		30.0	2.5	/experiments/AOT/AOT_stimuli/rescaled_final/0604_fw.mp4	0.0	203.8376169204712	
32	162.18185710906982	movie	1		243	30.0	2.5	/experiments/AOT/AOT_stimuli/rescaled_final/0604_fw.mp4	0.0	204.65369510650635	2.50044584274292
32	162.96575498580933	pulse	1	t		30.0	2.5	/experiments/AOT/AOT_stimuli/rescaled_final/0604_fw.mp4	0.0	205.43759298324585	
32	164.5659110546112	pulse	1	t		30.0	2.5	/experiments/AOT/AOT_stimuli/rescaled_final/0604_fw.mp4	0.0	207.03774905204773	
32	164.68230295181274	fix_post	2		12	30.0	2.5	/experiments/AOT/AOT_stimuli/rescaled_final/0604_fw.mp4	0.0	207.15414094924927	0.09988999366760254
33	164.78219294548035	fix_pre	0		120	31.0	2.5	/experiments/AOT/AOT_stimuli/rescaled_final/0978_fw.mp4	0.0	207.25403094291687	0.9997119903564453
33	165.7819049358368	movie	1		243	31.0	2.5	/experiments/AOT/AOT_stimuli/rescaled_final/0978_fw.mp4	0.0	208.25374293327332	2.5001981258392334
33	166.16479110717773	pulse	1	t		31.0	2.5	/experiments/AOT/AOT_stimuli/rescaled_final/0978_fw.mp4	0.0	208.63662910461426	
33	167.765939950943	pulse	1	t		31.0	2.5	/experiments/AOT/AOT_stimuli/rescaled_final/0978_fw.mp4	0.0	210.23777794837952	
33	168.28210306167603	fix_post	2		12	31.0	2.5	/experiments/AOT/AOT_stimuli/rescaled_final/0978_fw.mp4	0.0	210.75394105911255	0.10044503211975098
34	168.38254809379578	fix_pre	0		119	32.0	2.5	/experiments/AOT/AOT_stimuli/rescaled_final/1242_fw.mp4	0.0	210.8543860912323	0.9914159774780273
34	169.36571598052979	pulse	0	t		32.0	2.5	/experiments/AOT/AOT_stimuli/rescaled_final/1242_fw.mp4	0.0	211.8375539779663	
34	169.3739640712738	movie	1		246	32.0	2.5	/experiments/AOT/AOT_stimuli/rescaled_final/1242_fw.mp4	0.0	211.84580206871033	2.50819993019104
34	170.9667899608612	pulse	1	t		32.0	2.5	/experiments/AOT/AOT_stimuli/rescaled_final/1242_fw.mp4	0.0	213.43862795829773	
34	171.88216400146484	fix_post	2		12	32.0	2.5	/experiments/AOT/AOT_stimuli/rescaled_final/1242_fw.mp4	0.0	214.35400199890137	0.10001802444458008
35	171.98218202590942	fix_pre	0		120	33.0	2.5	blank	1.0	214.45402002334595	1.000035047531128
35	172.56578302383423	pulse	0	t		33.0	2.5	blank	1.0	215.03762102127075	
35	172.98221707344055	movie	1		300	33.0	2.5	blank	1.0	215.45405507087708	2.499889850616455
35	174.16560196876526	pulse	1	t		33.0	2.5	blank	1.0	216.63743996620178	
35	175.482106924057	fix_post	2		12	33.0	2.5	blank	1.0	217.95394492149353	0.10000801086425781
36	175.58211493492126	fix_pre	0		120	34.0	2.5	/experiments/AOT/AOT_stimuli/rescaled_final/1837_rv.mp4	0.0	218.0539529323578	0.9999890327453613
36	175.76572704315186	pulse	0	t		34.0	2.5	/experiments/AOT/AOT_stimuli/rescaled_final/1837_rv.mp4	0.0	218.23756504058838	
36	176.58210396766663	movie	1		243	34.0	2.5	/experiments/AOT/AOT_stimuli/rescaled_final/1837_rv.mp4	0.0	219.05394196510315	2.499627113342285
36	177.36557912826538	pulse	1	t		34.0	2.5	/experiments/AOT/AOT_stimuli/rescaled_final/1837_rv.mp4	0.0	219.8374171257019	
36	178.96396803855896	pulse	1	t		34.0	2.5	/experiments/AOT/AOT_stimuli/rescaled_final/1837_rv.mp4	0.0	221.43580603599548	
36	179.0817310810089	fix_post	2		12	34.0	2.5	/experiments/AOT/AOT_stimuli/rescaled_final/1837_rv.mp4	0.0	221.55356907844543	0.10039901733398438
37	179.1821300983429	fix_pre	0		120	35.0	2.5	/experiments/AOT/AOT_stimuli/rescaled_final/1410_fw.mp4	0.0	221.65396809577942	1.000119924545288
37	180.18225002288818	movie	1		244	35.0	2.5	/experiments/AOT/AOT_stimuli/rescaled_final/1410_fw.mp4	0.0	222.6540880203247	2.4995100498199463
37	180.56525707244873	pulse	1	t		35.0	2.5	/experiments/AOT/AOT_stimuli/rescaled_final/1410_fw.mp4	0.0	223.03709506988525	
37	182.16562509536743	pulse	1	t		35.0	2.5	/experiments/AOT/AOT_stimuli/rescaled_final/1410_fw.mp4	0.0	224.63746309280396	
37	182.68176007270813	fix_post	2		12	35.0	2.5	/experiments/AOT/AOT_stimuli/rescaled_final/1410_fw.mp4	0.0	225.15359807014465	0.10039687156677246
38	182.7821569442749	fix_pre	0		119	36.0	2.5	/experiments/AOT/AOT_stimuli/rescaled_final/1292_fw.mp4	0.0	225.25399494171143	0.9916610717773438
38	183.76568603515625	pulse	0	t		36.0	2.5	/experiments/AOT/AOT_stimuli/rescaled_final/1292_fw.mp4	0.0	226.23752403259277	
38	183.77381801605225	movie	1		245	36.0	2.5	/experiments/AOT/AOT_stimuli/rescaled_final/1292_fw.mp4	0.0	226.24565601348877	2.508342981338501
38	185.36509203910828	pulse	1	t		36.0	2.5	/experiments/AOT/AOT_stimuli/rescaled_final/1292_fw.mp4	0.0	227.8369300365448	
38	186.28216099739075	fix_post	2		12	36.0	2.5	/experiments/AOT/AOT_stimuli/rescaled_final/1292_fw.mp4	0.0	228.75399899482727	0.09949493408203125
39	186.38165593147278	fix_pre	0		120	37.0	2.5	/experiments/AOT/AOT_stimuli/rescaled_final/0827_fw.mp4	0.0	228.8534939289093	1.0005099773406982
39	186.9656069278717	pulse	0	t		37.0	2.5	/experiments/AOT/AOT_stimuli/rescaled_final/0827_fw.mp4	0.0	229.43744492530823	
39	187.38216590881348	movie	1		245	37.0	2.5	/experiments/AOT/AOT_stimuli/rescaled_final/0827_fw.mp4	0.0	229.85400390625	2.4999701976776123
39	188.56567406654358	pulse	1	t		37.0	2.5	/experiments/AOT/AOT_stimuli/rescaled_final/0827_fw.mp4	0.0	231.0375120639801	
39	189.8821361064911	fix_post	2		12	37.0	2.5	/experiments/AOT/AOT_stimuli/rescaled_final/0827_fw.mp4	0.0	232.3539741039276	0.09997797012329102
40	189.98211407661438	fix_pre	0		120	38.0	2.5	/experiments/AOT/AOT_stimuli/rescaled_final/1380_rv.mp4	0.0	232.4539520740509	0.9995789527893066
40	190.16561603546143	pulse	0	t		38.0	2.5	/experiments/AOT/AOT_stimuli/rescaled_final/1380_rv.mp4	0.0	232.63745403289795	
40	190.9816930294037	movie	1		243	38.0	2.5	/experiments/AOT/AOT_stimuli/rescaled_final/1380_rv.mp4	0.0	233.4535310268402	2.5003910064697266
40	191.76557803153992	pulse	1	t		38.0	2.5	/experiments/AOT/AOT_stimuli/rescaled_final/1380_rv.mp4	0.0	234.23741602897644	
40	193.3644359111786	pulse	1	t		38.0	2.5	/experiments/AOT/AOT_stimuli/rescaled_final/1380_rv.mp4	0.0	235.8362739086151	
40	193.4820840358734	fix_post	2		12	38.0	2.5	/experiments/AOT/AOT_stimuli/rescaled_final/1380_rv.mp4	0.0	235.95392203330994	0.09960794448852539
41	193.58169198036194	fix_pre	0		120	39.0	2.5	/experiments/AOT/AOT_stimuli/rescaled_final/1558_fw.mp4	0.0	236.05352997779846	0.9999959468841553
41	194.5816879272461	movie	1		246	39.0	2.5	/experiments/AOT/AOT_stimuli/rescaled_final/1558_fw.mp4	0.0	237.05352592468262	2.499937057495117
41	194.96529698371887	pulse	1	t		39.0	2.5	/experiments/AOT/AOT_stimuli/rescaled_final/1558_fw.mp4	0.0	237.4371349811554	
41	196.56557512283325	pulse	1	t		39.0	2.5	/experiments/AOT/AOT_stimuli/rescaled_final/1558_fw.mp4	0.0	239.03741312026978	
41	197.0816249847412	fix_post	2		12	39.0	2.5	/experiments/AOT/AOT_stimuli/rescaled_final/1558_fw.mp4	0.0	239.55346298217773	0.10044407844543457
42	197.18206906318665	fix_pre	0		119	40.0	2.5	/experiments/AOT/AOT_stimuli/rescaled_final/1292_rv.mp4	0.0	239.65390706062317	0.9916908740997314
42	198.16559410095215	pulse	0	t		40.0	2.5	/experiments/AOT/AOT_stimuli/rescaled_final/1292_rv.mp4	0.0	240.63743209838867	
42	198.17375993728638	movie	1		247	40.0	2.5	/experiments/AOT/AOT_stimuli/rescaled_final/1292_rv.mp4	0.0	240.6455979347229	2.507822036743164
42	199.76501893997192	pulse	1	t		40.0	2.5	/experiments/AOT/AOT_stimuli/rescaled_final/1292_rv.mp4	0.0	242.23685693740845	
42	200.68158197402954	fix_post	2		12	40.0	2.5	/experiments/AOT/AOT_stimuli/rescaled_final/1292_rv.mp4	0.0	243.15341997146606	0.10050106048583984
43	200.78208303451538	fix_pre	0		120	41.0	2.5	/experiments/AOT/AOT_stimuli/rescaled_final/0909_rv.mp4	0.0	243.2539210319519	0.9999120235443115
43	201.36555409431458	pulse	0	t		41.0	2.5	/experiments/AOT/AOT_stimuli/rescaled_final/0909_rv.mp4	0.0	243.8373920917511	
43	201.7819950580597	movie	1		245	41.0	2.5	/experiments/AOT/AOT_stimuli/rescaled_final/0909_rv.mp4	0.0	244.25383305549622	2.4996299743652344
43	202.9656629562378	pulse	1	t		41.0	2.5	/experiments/AOT/AOT_stimuli/rescaled_final/0909_rv.mp4	0.0	245.43750095367432	
43	204.28162503242493	fix_post	2		12	41.0	2.5	/experiments/AOT/AOT_stimuli/rescaled_final/0909_rv.mp4	0.0	246.75346302986145	0.10029888153076172
44	204.3819239139557	fix_pre	0		120	42.0	2.5	blank	1.0	246.8537619113922	0.9996700286865234
44	204.56551504135132	pulse	0	t		42.0	2.5	blank	1.0	247.03735303878784	
44	205.3815939426422	movie	1		300	42.0	2.5	blank	1.0	247.85343194007874	2.5003671646118164
44	206.16556096076965	pulse	1	t		42.0	2.5	blank	1.0	248.63739895820618	
44	207.76553201675415	pulse	1	t		42.0	2.5	blank	1.0	250.23737001419067	
44	207.88196110725403	fix_post	2		12	42.0	2.5	blank	1.0	250.35379910469055	0.10001301765441895
45	207.98197412490845	fix_pre	0		120	43.0	2.5	/experiments/AOT/AOT_stimuli/rescaled_final/0881_fw.mp4	0.0	250.45381212234497	0.99997878074646
45	208.9819529056549	movie	1		245	43.0	2.5	/experiments/AOT/AOT_stimuli/rescaled_final/0881_fw.mp4	0.0	251.45379090309143	2.500019073486328
45	209.36521697044373	pulse	1	t		43.0	2.5	/experiments/AOT/AOT_stimuli/rescaled_final/0881_fw.mp4	0.0	251.83705496788025	
45	210.9654951095581	pulse	1	t		43.0	2.5	/experiments/AOT/AOT_stimuli/rescaled_final/0881_fw.mp4	0.0	253.43733310699463	
45	211.48197197914124	fix_post	2		12	43.0	2.5	/experiments/AOT/AOT_stimuli/rescaled_final/0881_fw.mp4	0.0	253.95380997657776	0.1000680923461914
46	211.58204007148743	fix_pre	0		119	44.0	2.5	/experiments/AOT/AOT_stimuli/rescaled_final/1763_rv.mp4	0.0	254.05387806892395	0.9916019439697266
46	212.56549096107483	pulse	0	t		44.0	2.5	/experiments/AOT/AOT_stimuli/rescaled_final/1763_rv.mp4	0.0	255.03732895851135	
46	212.57364201545715	movie	1		244	44.0	2.5	/experiments/AOT/AOT_stimuli/rescaled_final/1763_rv.mp4	0.0	255.04548001289368	2.5082969665527344
46	214.16548800468445	pulse	1	t		44.0	2.5	/experiments/AOT/AOT_stimuli/rescaled_final/1763_rv.mp4	0.0	256.637326002121	
46	215.0819389820099	fix_post	2		12	44.0	2.5	/experiments/AOT/AOT_stimuli/rescaled_final/1763_rv.mp4	0.0	257.5537769794464	0.1000051498413086
47	215.1819441318512	fix_pre	0		120	45.0	2.5	/experiments/AOT/AOT_stimuli/rescaled_final/1562_rv.mp4	0.0	257.6537821292877	1.0000858306884766
47	215.76550793647766	pulse	0	t		45.0	2.5	/experiments/AOT/AOT_stimuli/rescaled_final/1562_rv.mp4	0.0	258.2373459339142	
47	216.18202996253967	movie	1		244	45.0	2.5	/experiments/AOT/AOT_stimuli/rescaled_final/1562_rv.mp4	0.0	258.6538679599762	2.4994990825653076
47	217.3655149936676	pulse	1	t		45.0	2.5	/experiments/AOT/AOT_stimuli/rescaled_final/1562_rv.mp4	0.0	259.8373529911041	
47	218.68152904510498	fix_post	2		12	45.0	2.5	/experiments/AOT/AOT_stimuli/rescaled_final/1562_rv.mp4	0.0	261.1533670425415	0.10054492950439453
48	218.78207397460938	fix_pre	0		120	46.0	2.5	/experiments/AOT/AOT_stimuli/rescaled_final/1118_fw.mp4	0.0	261.2539119720459	0.9998960494995117
48	218.96549701690674	pulse	0	t		46.0	2.5	/experiments/AOT/AOT_stimuli/rescaled_final/1118_fw.mp4	0.0	261.43733501434326	
48	219.7819700241089	movie	1		243	46.0	2.5	/experiments/AOT/AOT_stimuli/rescaled_final/1118_fw.mp4	0.0	262.2538080215454	2.4996590614318848
48	220.56491708755493	pulse	1	t		46.0	2.5	/experiments/AOT/AOT_stimuli/rescaled_final/1118_fw.mp4	0.0	263.03675508499146	
48	222.16380906105042	pulse	1	t		46.0	2.5	/experiments/AOT/AOT_stimuli/rescaled_final/1118_fw.mp4	0.0	264.63564705848694	
48	222.28162908554077	fix_post	2		12	46.0	2.5	/experiments/AOT/AOT_stimuli/rescaled_final/1118_fw.mp4	0.0	264.7534670829773	0.10001301765441895
49	222.3816421031952	fix_pre	0		120	47.0	2.5	blank	1.0	264.8534801006317	1.0001389980316162
49	223.3817811012268	movie	1		300	47.0	2.5	blank	1.0	265.85361909866333	2.500185012817383
49	223.76528310775757	pulse	1	t		47.0	2.5	blank	1.0	266.2371211051941	
49	225.36544013023376	pulse	1	t		47.0	2.5	blank	1.0	267.8372781276703	
49	225.8819661140442	fix_post	2		12	47.0	2.5	blank	1.0	268.3538041114807	0.10001683235168457
50	225.98198294639587	fix_pre	0		119	48.0	2.5	/experiments/AOT/AOT_stimuli/rescaled_final/1562_fw.mp4	0.0	268.4538209438324	0.9916291236877441
50	226.96543312072754	pulse	0	t		48.0	2.5	/experiments/AOT/AOT_stimuli/rescaled_final/1562_fw.mp4	0.0	269.43727111816406	
50	226.97361207008362	movie	1		245	48.0	2.5	/experiments/AOT/AOT_stimuli/rescaled_final/1562_fw.mp4	0.0	269.44545006752014	2.5083439350128174
50	228.56496906280518	pulse	1	t		48.0	2.5	/experiments/AOT/AOT_stimuli/rescaled_final/1562_fw.mp4	0.0	271.0368070602417	
50	229.48195600509644	fix_post	2		12	48.0	2.5	/experiments/AOT/AOT_stimuli/rescaled_final/1562_fw.mp4	0.0	271.95379400253296	0.09996199607849121
51	229.58191800117493	fix_pre	0		120	49.0	2.5	/experiments/AOT/AOT_stimuli/rescaled_final/0997_rv.mp4	0.0	272.05375599861145	0.9995119571685791
51	230.1653609275818	pulse	0	t		49.0	2.5	/experiments/AOT/AOT_stimuli/rescaled_final/0997_rv.mp4	0.0	272.6371989250183	
51	230.5814299583435	movie	1		244	49.0	2.5	/experiments/AOT/AOT_stimuli/rescaled_final/0997_rv.mp4	0.0	273.05326795578003	2.5004329681396484
51	231.76545190811157	pulse	1	t		49.0	2.5	/experiments/AOT/AOT_stimuli/rescaled_final/0997_rv.mp4	0.0	274.2372899055481	
51	233.08186292648315	fix_post	2		12	49.0	2.5	/experiments/AOT/AOT_stimuli/rescaled_final/0997_rv.mp4	0.0	275.5537009239197	0.09999799728393555
52	233.1818609237671	fix_pre	0		120	50.0	2.5	/experiments/AOT/AOT_stimuli/rescaled_final/0015_fw.mp4	0.0	275.6536989212036	0.9999451637268066
52	233.36533403396606	pulse	0	t		50.0	2.5	/experiments/AOT/AOT_stimuli/rescaled_final/0015_fw.mp4	0.0	275.8371720314026	
52	234.1818060874939	movie	1		245	50.0	2.5	/experiments/AOT/AOT_stimuli/rescaled_final/0015_fw.mp4	0.0	276.6536440849304	2.4996209144592285
52	234.965322971344	pulse	1	t		50.0	2.5	/experiments/AOT/AOT_stimuli/rescaled_final/0015_fw.mp4	0.0	277.4371609687805	
52	236.56375408172607	pulse	1	t		50.0	2.5	/experiments/AOT/AOT_stimuli/rescaled_final/0015_fw.mp4	0.0	279.0355920791626	
52	236.68142700195312	fix_post	2		12	50.0	2.5	/experiments/AOT/AOT_stimuli/rescaled_final/0015_fw.mp4	0.0	279.15326499938965	0.10039901733398438
53	236.7818260192871	fix_pre	0		120	51.0	2.5	/experiments/AOT/AOT_stimuli/rescaled_final/1660_rv.mp4	0.0	279.25366401672363	0.9999520778656006
53	237.7817780971527	movie	1		248	51.0	2.5	/experiments/AOT/AOT_stimuli/rescaled_final/1660_rv.mp4	0.0	280.25361609458923	2.500018835067749
53	238.1652340888977	pulse	1	t		51.0	2.5	/experiments/AOT/AOT_stimuli/rescaled_final/1660_rv.mp4	0.0	280.63707208633423	
53	239.76532101631165	pulse	1	t		51.0	2.5	/experiments/AOT/AOT_stimuli/rescaled_final/1660_rv.mp4	0.0	282.23715901374817	
53	240.28179693222046	fix_post	2		12	51.0	2.5	/experiments/AOT/AOT_stimuli/rescaled_final/1660_rv.mp4	0.0	282.753634929657	0.09961605072021484
54	240.38141298294067	fix_pre	0		119	52.0	2.5	/experiments/AOT/AOT_stimuli/rescaled_final/2082_fw.mp4	0.0	282.8532509803772	0.9920821189880371
54	241.36535501480103	pulse	0	t		52.0	2.5	/experiments/AOT/AOT_stimuli/rescaled_final/2082_fw.mp4	0.0	283.83719301223755	
54	241.3734951019287	movie	1		244	52.0	2.5	/experiments/AOT/AOT_stimuli/rescaled_final/2082_fw.mp4	0.0	283.84533309936523	2.5079309940338135
54	242.96674013137817	pulse	1	t		52.0	2.5	/experiments/AOT/AOT_stimuli/rescaled_final/2082_fw.mp4	0.0	285.4385781288147	
54	243.88142609596252	fix_post	2		12	52.0	2.5	/experiments/AOT/AOT_stimuli/rescaled_final/2082_fw.mp4	0.0	286.35326409339905	0.10044288635253906
55	243.98186898231506	fix_pre	0		120	53.0	2.5	/experiments/AOT/AOT_stimuli/rescaled_final/0214_rv.mp4	0.0	286.4537069797516	0.9999339580535889
55	244.56523513793945	pulse	0	t		53.0	2.5	/experiments/AOT/AOT_stimuli/rescaled_final/0214_rv.mp4	0.0	287.037073135376	
55	244.98180294036865	movie	1		243	53.0	2.5	/experiments/AOT/AOT_stimuli/rescaled_final/0214_rv.mp4	0.0	287.4536409378052	2.499925136566162
55	246.16535592079163	pulse	1	t		53.0	2.5	/experiments/AOT/AOT_stimuli/rescaled_final/0214_rv.mp4	0.0	288.63719391822815	
55	247.48172807693481	fix_post	2		12	53.0	2.5	/experiments/AOT/AOT_stimuli/rescaled_final/0214_rv.mp4	0.0	289.95356607437134	0.10011792182922363
56	247.58184599876404	fix_pre	0		120	54.0	2.5	/experiments/AOT/AOT_stimuli/rescaled_final/0880_fw.mp4	0.0	290.05368399620056	0.9995110034942627
56	247.7653489112854	pulse	0	t		54.0	2.5	/experiments/AOT/AOT_stimuli/rescaled_final/0880_fw.mp4	0.0	290.2371869087219	
56	248.5813570022583	movie	1		245	54.0	2.5	/experiments/AOT/AOT_stimuli/rescaled_final/0880_fw.mp4	0.0	291.0531949996948	2.5004091262817383
56	249.36525702476501	pulse	1	t		54.0	2.5	/experiments/AOT/AOT_stimuli/rescaled_final/0880_fw.mp4	0.0	291.83709502220154	
56	250.96378707885742	pulse	1	t		54.0	2.5	/experiments/AOT/AOT_stimuli/rescaled_final/0880_fw.mp4	0.0	293.43562507629395	
56	251.08176612854004	fix_post	2		12	54.0	2.5	/experiments/AOT/AOT_stimuli/rescaled_final/0880_fw.mp4	0.0	293.55360412597656	0.09999585151672363
57	251.18176198005676	fix_pre	0		120	55.0	2.5	blank	1.0	293.6535999774933	1.0000009536743164
57	252.18176293373108	movie	1		300	55.0	2.5	blank	1.0	294.6536009311676	2.499953031539917
57	252.5654730796814	pulse	1	t		55.0	2.5	blank	1.0	295.0373110771179	
57	254.16525101661682	pulse	1	t		55.0	2.5	blank	1.0	296.63708901405334	
57	254.681715965271	fix_post	2		12	55.0	2.5	blank	1.0	297.1535539627075	0.10008907318115234
58	254.78180503845215	fix_pre	0		119	56.0	2.5	/experiments/AOT/AOT_stimuli/rescaled_final/1764_fw.mp4	0.0	297.2536430358887	0.9916679859161377
58	255.7652440071106	pulse	0	t		56.0	2.5	/experiments/AOT/AOT_stimuli/rescaled_final/1764_fw.mp4	0.0	298.2370820045471	
58	255.7734730243683	movie	1		247	56.0	2.5	/experiments/AOT/AOT_stimuli/rescaled_final/1764_fw.mp4	0.0	298.2453110218048	2.507905960083008
58	257.36650013923645	pulse	1	t		56.0	2.5	/experiments/AOT/AOT_stimuli/rescaled_final/1764_fw.mp4	0.0	299.838338136673	
58	258.2813789844513	fix_post	2		12	56.0	2.5	/experiments/AOT/AOT_stimuli/rescaled_final/1764_fw.mp4	0.0	300.7532169818878	0.10038995742797852
59	258.3817689418793	fix_pre	0		120	57.0	2.5	/experiments/AOT/AOT_stimuli/rescaled_final/1292_rv.mp4	0.0	300.8536069393158	0.9999899864196777
59	258.96526312828064	pulse	0	t		57.0	2.5	/experiments/AOT/AOT_stimuli/rescaled_final/1292_rv.mp4	0.0	301.43710112571716	
59	259.38175892829895	movie	1		246	57.0	2.5	/experiments/AOT/AOT_stimuli/rescaled_final/1292_rv.mp4	0.0	301.8535969257355	2.499979019165039
59	260.565505027771	pulse	1	t		57.0	2.5	/experiments/AOT/AOT_stimuli/rescaled_final/1292_rv.mp4	0.0	303.0373430252075	
59	261.881737947464	fix_post	2		12	57.0	2.5	/experiments/AOT/AOT_stimuli/rescaled_final/1292_rv.mp4	0.0	304.3535759449005	0.09994912147521973
60	261.9816870689392	fix_pre	0		120	58.0	2.5	/experiments/AOT/AOT_stimuli/rescaled_final/1872_fw.mp4	0.0	304.45352506637573	1.000032901763916
60	262.16523003578186	pulse	0	t		58.0	2.5	/experiments/AOT/AOT_stimuli/rescaled_final/1872_fw.mp4	0.0	304.6370680332184	
60	262.9817199707031	movie	1		244	58.0	2.5	/experiments/AOT/AOT_stimuli/rescaled_final/1872_fw.mp4	0.0	305.45355796813965	2.4999301433563232
60	263.7652440071106	pulse	1	t		58.0	2.5	/experiments/AOT/AOT_stimuli/rescaled_final/1872_fw.mp4	0.0	306.2370820045471	
60	265.36368203163147	pulse	1	t		58.0	2.5	/experiments/AOT/AOT_stimuli/rescaled_final/1872_fw.mp4	0.0	307.835520029068	
60	265.48165011405945	fix_post	2		12	58.0	2.5	/experiments/AOT/AOT_stimuli/rescaled_final/1872_fw.mp4	0.0	307.953488111496	0.10004496574401855
61	265.58169507980347	fix_pre	0		120	59.0	2.5	/experiments/AOT/AOT_stimuli/rescaled_final/1375_fw.mp4	0.0	308.05353307724	1.0001239776611328
61	266.5818190574646	movie	1		243	59.0	2.5	/experiments/AOT/AOT_stimuli/rescaled_final/1375_fw.mp4	0.0	309.0536570549011	2.4999160766601562
61	266.9646830558777	pulse	1	t		59.0	2.5	/experiments/AOT/AOT_stimuli/rescaled_final/1375_fw.mp4	0.0	309.4365210533142	
61	268.5651741027832	pulse	1	t		59.0	2.5	/experiments/AOT/AOT_stimuli/rescaled_final/1375_fw.mp4	0.0	311.0370121002197	
61	269.08173513412476	fix_post	2		12	59.0	2.5	/experiments/AOT/AOT_stimuli/rescaled_final/1375_fw.mp4	0.0	311.5535731315613	0.10001277923583984
62	269.1817479133606	fix_pre	0		119	60.0	2.5	/experiments/AOT/AOT_stimuli/rescaled_final/1196_fw.mp4	0.0	311.6535859107971	0.9916059970855713
62	270.1652090549469	pulse	0	t		60.0	2.5	/experiments/AOT/AOT_stimuli/rescaled_final/1196_fw.mp4	0.0	312.6370470523834	
62	270.17335391044617	movie	1		245	60.0	2.5	/experiments/AOT/AOT_stimuli/rescaled_final/1196_fw.mp4	0.0	312.6451919078827	2.508571147918701
62	271.7648570537567	pulse	1	t		60.0	2.5	/experiments/AOT/AOT_stimuli/rescaled_final/1196_fw.mp4	0.0	314.23669505119324	
62	272.68192505836487	fix_post	2		12	60.0	2.5	/experiments/AOT/AOT_stimuli/rescaled_final/1196_fw.mp4	0.0	315.1537630558014	0.09978485107421875
63	272.7817099094391	fix_pre	0		120	61.0	2.5	/experiments/AOT/AOT_stimuli/rescaled_final/1624_rv.mp4	0.0	315.2535479068756	1.000075101852417
63	273.3651809692383	pulse	0	t		61.0	2.5	/experiments/AOT/AOT_stimuli/rescaled_final/1624_rv.mp4	0.0	315.8370189666748	
63	273.7817850112915	movie	1		244	61.0	2.5	/experiments/AOT/AOT_stimuli/rescaled_final/1624_rv.mp4	0.0	316.253623008728	2.4998600482940674
63	274.9653489589691	pulse	1	t		61.0	2.5	/experiments/AOT/AOT_stimuli/rescaled_final/1624_rv.mp4	0.0	317.43718695640564	
63	276.28164505958557	fix_post	2		12	61.0	2.5	/experiments/AOT/AOT_stimuli/rescaled_final/1624_rv.mp4	0.0	318.7534830570221	0.10008001327514648
64	276.3817250728607	fix_pre	0		120	62.0	2.5	blank	1.0	318.85356307029724	0.9995129108428955
64	276.5646560192108	pulse	0	t		62.0	2.5	blank	1.0	319.03649401664734	
64	277.3812379837036	movie	1		300	62.0	2.5	blank	1.0	319.85307598114014	2.500697135925293
64	278.1647870540619	pulse	1	t		62.0	2.5	blank	1.0	320.6366250514984	
64	279.7654039859772	pulse	1	t		62.0	2.5	blank	1.0	322.2372419834137	
64	279.8819351196289	fix_post	2		12	62.0	2.5	blank	1.0	322.35377311706543	0.10006380081176758
65	279.9819989204407	fix_pre	0		120	63.0	2.5	/experiments/AOT/AOT_stimuli/rescaled_final/0914_fw.mp4	0.0	322.4538369178772	0.9997069835662842
65	280.98170590400696	movie	1		248	63.0	2.5	/experiments/AOT/AOT_stimuli/rescaled_final/0914_fw.mp4	0.0	323.4535439014435	2.499542236328125
65	281.36493396759033	pulse	1	t		63.0	2.5	/experiments/AOT/AOT_stimuli/rescaled_final/0914_fw.mp4	0.0	323.83677196502686	
65	282.96511006355286	pulse	1	t		63.0	2.5	/experiments/AOT/AOT_stimuli/rescaled_final/0914_fw.mp4	0.0	325.4369480609894	
65	283.4812481403351	fix_post	2		12	63.0	2.5	/experiments/AOT/AOT_stimuli/rescaled_final/0914_fw.mp4	0.0	325.9530861377716	0.1003267765045166
66	283.5815749168396	fix_pre	0		119	64.0	2.5	/experiments/AOT/AOT_stimuli/rescaled_final/1848_rv.mp4	0.0	326.0534129142761	0.9916911125183105
66	284.5652039051056	pulse	0	t		64.0	2.5	/experiments/AOT/AOT_stimuli/rescaled_final/1848_rv.mp4	0.0	327.0370419025421	
66	284.5732660293579	movie	1		246	64.0	2.5	/experiments/AOT/AOT_stimuli/rescaled_final/1848_rv.mp4	0.0	327.04510402679443	2.5083088874816895
66	286.1650640964508	pulse	1	t		64.0	2.5	/experiments/AOT/AOT_stimuli/rescaled_final/1848_rv.mp4	0.0	328.63690209388733	
66	287.0815749168396	fix_post	2		12	64.0	2.5	/experiments/AOT/AOT_stimuli/rescaled_final/1848_rv.mp4	0.0	329.5534129142761	0.10001516342163086
67	287.18159008026123	fix_pre	0		120	65.0	2.5	/experiments/AOT/AOT_stimuli/rescaled_final/0031_fw.mp4	0.0	329.65342807769775	0.999971866607666
67	287.7652380466461	pulse	0	t		65.0	2.5	/experiments/AOT/AOT_stimuli/rescaled_final/0031_fw.mp4	0.0	330.23707604408264	
67	288.1815619468689	movie	1		247	65.0	2.5	/experiments/AOT/AOT_stimuli/rescaled_final/0031_fw.mp4	0.0	330.6533999443054	2.500120162963867
67	289.365061044693	pulse	1	t		65.0	2.5	/experiments/AOT/AOT_stimuli/rescaled_final/0031_fw.mp4	0.0	331.8368990421295	
67	290.68168210983276	fix_post	2		12	65.0	2.5	/experiments/AOT/AOT_stimuli/rescaled_final/0031_fw.mp4	0.0	333.1535201072693	0.09993290901184082
68	290.7816150188446	fix_pre	0		120	66.0	2.5	/experiments/AOT/AOT_stimuli/rescaled_final/0793_fw.mp4	0.0	333.2534530162811	0.9999380111694336
68	290.96505308151245	pulse	0	t		66.0	2.5	/experiments/AOT/AOT_stimuli/rescaled_final/0793_fw.mp4	0.0	333.436891078949	
68	291.78155303001404	movie	1		244	66.0	2.5	/experiments/AOT/AOT_stimuli/rescaled_final/0793_fw.mp4	0.0	334.25339102745056	2.4999959468841553
68	292.56503891944885	pulse	1	t		66.0	2.5	/experiments/AOT/AOT_stimuli/rescaled_final/0793_fw.mp4	0.0	335.0368769168854	
68	294.16351199150085	pulse	1	t		66.0	2.5	/experiments/AOT/AOT_stimuli/rescaled_final/0793_fw.mp4	0.0	336.6353499889374	
68	294.2815489768982	fix_post	2		12	66.0	2.5	/experiments/AOT/AOT_stimuli/rescaled_final/0793_fw.mp4	0.0	336.7533869743347	0.09996414184570312
69	294.3815131187439	fix_pre	0		120	67.0	2.5	/experiments/AOT/AOT_stimuli/rescaled_final/1136_fw.mp4	0.0	336.8533511161804	1.000093936920166
69	295.38160705566406	movie	1		244	67.0	2.5	/experiments/AOT/AOT_stimuli/rescaled_final/1136_fw.mp4	0.0	337.8534450531006	2.4994490146636963
69	295.7648079395294	pulse	1	t		67.0	2.5	/experiments/AOT/AOT_stimuli/rescaled_final/1136_fw.mp4	0.0	338.23664593696594	
69	297.36501908302307	pulse	1	t		67.0	2.5	/experiments/AOT/AOT_stimuli/rescaled_final/1136_fw.mp4	0.0	339.8368570804596	
69	297.88105607032776	fix_post	2		12	67.0	2.5	/experiments/AOT/AOT_stimuli/rescaled_final/1136_fw.mp4	0.0	340.3528940677643	0.10049891471862793
70	297.9815549850464	fix_pre	0		119	68.0	2.5	/experiments/AOT/AOT_stimuli/rescaled_final/1049_fw.mp4	0.0	340.4533929824829	0.9917161464691162
70	298.964968919754	pulse	0	t		68.0	2.5	/experiments/AOT/AOT_stimuli/rescaled_final/1049_fw.mp4	0.0	341.43680691719055	
70	298.9732711315155	movie	1		244	68.0	2.5	/experiments/AOT/AOT_stimuli/rescaled_final/1049_fw.mp4	0.0	341.445109128952	2.5082759857177734
70	300.5645980834961	pulse	1	t		68.0	2.5	/experiments/AOT/AOT_stimuli/rescaled_final/1049_fw.mp4	0.0	343.0364360809326	
70	301.4815471172333	fix_post	2		12	68.0	2.5	/experiments/AOT/AOT_stimuli/rescaled_final/1049_fw.mp4	0.0	343.9533851146698	0.10000085830688477
71	301.58154797554016	fix_pre	0		120	69.0	2.5	/experiments/AOT/AOT_stimuli/rescaled_final/0686_rv.mp4	0.0	344.0533859729767	0.999985933303833
71	302.1650130748749	pulse	0	t		69.0	2.5	/experiments/AOT/AOT_stimuli/rescaled_final/0686_rv.mp4	0.0	344.6368510723114	
71	302.581533908844	movie	1		243	69.0	2.5	/experiments/AOT/AOT_stimuli/rescaled_final/0686_rv.mp4	0.0	345.0533719062805	2.499498128890991
71	303.76507091522217	pulse	1	t		69.0	2.5	/experiments/AOT/AOT_stimuli/rescaled_final/0686_rv.mp4	0.0	346.2369089126587	
71	305.081032037735	fix_post	2		12	69.0	2.5	/experiments/AOT/AOT_stimuli/rescaled_final/0686_rv.mp4	0.0	347.5528700351715	0.10054206848144531
72	305.18157410621643	fix_pre	0		120	70.0	2.5	blank	1.0	347.65341210365295	0.9998979568481445
72	305.36500000953674	pulse	0	t		70.0	2.5	blank	1.0	347.83683800697327	
72	306.1814720630646	movie	1		300	70.0	2.5	blank	1.0	348.6533100605011	2.500098943710327
72	306.96502709388733	pulse	1	t		70.0	2.5	blank	1.0	349.43686509132385	
72	308.5649950504303	pulse	1	t		70.0	2.5	blank	1.0	351.0368330478668	
72	308.6815710067749	fix_post	2		12	70.0	2.5	blank	1.0	351.1534090042114	0.09987211227416992
73	308.7814431190491	fix_pre	0		120	71.0	2.5	/experiments/AOT/AOT_stimuli/rescaled_final/2001_fw.mp4	0.0	351.2532811164856	0.9996387958526611
73	309.78108191490173	movie	1		244	71.0	2.5	/experiments/AOT/AOT_stimuli/rescaled_final/2001_fw.mp4	0.0	352.25291991233826	2.500108003616333
73	310.16522312164307	pulse	1	t		71.0	2.5	/experiments/AOT/AOT_stimuli/rescaled_final/2001_fw.mp4	0.0	352.6370611190796	
73	311.76500511169434	pulse	1	t		71.0	2.5	/experiments/AOT/AOT_stimuli/rescaled_final/2001_fw.mp4	0.0	354.23684310913086	
73	312.28118991851807	fix_post	2		12	71.0	2.5	/experiments/AOT/AOT_stimuli/rescaled_final/2001_fw.mp4	0.0	354.7530279159546	0.10023617744445801
74	312.3814260959625	fix_pre	0		119	72.0	2.5	/experiments/AOT/AOT_stimuli/rescaled_final/1501_rv.mp4	0.0	354.85326409339905	0.991657018661499
74	313.36496210098267	pulse	0	t		72.0	2.5	/experiments/AOT/AOT_stimuli/rescaled_final/1501_rv.mp4	0.0	355.8368000984192	
74	313.373083114624	movie	1		246	72.0	2.5	/experiments/AOT/AOT_stimuli/rescaled_final/1501_rv.mp4	0.0	355.84492111206055	2.5083329677581787
74	314.9646530151367	pulse	1	t		72.0	2.5	/experiments/AOT/AOT_stimuli/rescaled_final/1501_rv.mp4	0.0	357.43649101257324	
74	315.8814160823822	fix_post	2		12	72.0	2.5	/experiments/AOT/AOT_stimuli/rescaled_final/1501_rv.mp4	0.0	358.3532540798187	0.1000819206237793
75	315.981498003006	fix_pre	0		120	73.0	2.5	/experiments/AOT/AOT_stimuli/rescaled_final/1809_rv.mp4	0.0	358.4533360004425	1.0000269412994385
75	316.5649881362915	pulse	0	t		73.0	2.5	/experiments/AOT/AOT_stimuli/rescaled_final/1809_rv.mp4	0.0	359.036826133728	
75	316.9815249443054	movie	1		243	73.0	2.5	/experiments/AOT/AOT_stimuli/rescaled_final/1809_rv.mp4	0.0	359.45336294174194	2.499897003173828
75	318.16501903533936	pulse	1	t		73.0	2.5	/experiments/AOT/AOT_stimuli/rescaled_final/1809_rv.mp4	0.0	360.6368570327759	
75	319.48142194747925	fix_post	2		12	73.0	2.5	/experiments/AOT/AOT_stimuli/rescaled_final/1809_rv.mp4	0.0	361.95325994491577	0.10001516342163086
76	319.5814371109009	fix_pre	0		120	74.0	2.5	/experiments/AOT/AOT_stimuli/rescaled_final/1919_fw.mp4	0.0	362.0532751083374	0.9998288154602051
76	319.76494312286377	pulse	0	t		74.0	2.5	/experiments/AOT/AOT_stimuli/rescaled_final/1919_fw.mp4	0.0	362.2367811203003	
76	320.5812659263611	movie	1		244	74.0	2.5	/experiments/AOT/AOT_stimuli/rescaled_final/1919_fw.mp4	0.0	363.0531039237976	2.5001251697540283
76	321.36495900154114	pulse	1	t		74.0	2.5	/experiments/AOT/AOT_stimuli/rescaled_final/1919_fw.mp4	0.0	363.83679699897766	
76	322.9637930393219	pulse	1	t		74.0	2.5	/experiments/AOT/AOT_stimuli/rescaled_final/1919_fw.mp4	0.0	365.4356310367584	
76	323.0813910961151	fix_post	2		12	74.0	2.5	/experiments/AOT/AOT_stimuli/rescaled_final/1919_fw.mp4	0.0	365.55322909355164	0.09999585151672363
77	323.18138694763184	fix_pre	0		120	75.0	2.5	/experiments/AOT/AOT_stimuli/rescaled_final/0189_fw.mp4	0.0	365.65322494506836	0.9995701313018799
77	324.1809570789337	movie	1		243	75.0	2.5	/experiments/AOT/AOT_stimuli/rescaled_final/0189_fw.mp4	0.0	366.65279507637024	2.5000250339508057
77	324.56541895866394	pulse	1	t		75.0	2.5	/experiments/AOT/AOT_stimuli/rescaled_final/0189_fw.mp4	0.0	367.03725695610046	
77	326.16491508483887	pulse	1	t		75.0	2.5	/experiments/AOT/AOT_stimuli/rescaled_final/0189_fw.mp4	0.0	368.6367530822754	
77	326.6809821128845	fix_post	2		12	75.0	2.5	/experiments/AOT/AOT_stimuli/rescaled_final/0189_fw.mp4	0.0	369.15282011032104	0.10042381286621094
78	326.78140592575073	fix_pre	0		119	76.0	2.5	/experiments/AOT/AOT_stimuli/rescaled_final/2082_rv.mp4	0.0	369.25324392318726	0.9916360378265381
78	327.7649710178375	pulse	0	t		76.0	2.5	/experiments/AOT/AOT_stimuli/rescaled_final/2082_rv.mp4	0.0	370.23680901527405	
78	327.77304196357727	movie	1		245	76.0	2.5	/experiments/AOT/AOT_stimuli/rescaled_final/2082_rv.mp4	0.0	370.2448799610138	2.5082991123199463
78	329.364648103714	pulse	1	t		76.0	2.5	/experiments/AOT/AOT_stimuli/rescaled_final/2082_rv.mp4	0.0	371.8364861011505	
78	330.2813410758972	fix_post	2		12	76.0	2.5	/experiments/AOT/AOT_stimuli/rescaled_final/2082_rv.mp4	0.0	372.75317907333374	0.10005593299865723
79	330.3813970088959	fix_pre	0		120	77.0	2.5	blank	1.0	372.8532350063324	0.9995870590209961
79	330.96499609947205	pulse	0	t		77.0	2.5	blank	1.0	373.43683409690857	
79	331.38098406791687	movie	1		300	77.0	2.5	blank	1.0	373.8528220653534	2.499980926513672
79	332.56493401527405	pulse	1	t		77.0	2.5	blank	1.0	375.03677201271057	
79	333.88096499443054	fix_post	2		12	77.0	2.5	blank	1.0	376.35280299186707	0.10050106048583984
80	333.9814660549164	fix_pre	0		120	78.0	2.5	/experiments/AOT/AOT_stimuli/rescaled_final/1428_fw.mp4	0.0	376.4533040523529	1.000040054321289
80	334.1645429134369	pulse	0	t		78.0	2.5	/experiments/AOT/AOT_stimuli/rescaled_final/1428_fw.mp4	0.0	376.6363809108734	
80	334.98150610923767	movie	1		249	78.0	2.5	/experiments/AOT/AOT_stimuli/rescaled_final/1428_fw.mp4	0.0	377.4533441066742	2.500325918197632
80	335.76474499702454	pulse	1	t		78.0	2.5	/experiments/AOT/AOT_stimuli/rescaled_final/1428_fw.mp4	0.0	378.23658299446106	
80	337.36492109298706	pulse	1	t		78.0	2.5	/experiments/AOT/AOT_stimuli/rescaled_final/1428_fw.mp4	0.0	379.8367590904236	
80	337.4818320274353	fix_post	2		12	78.0	2.5	/experiments/AOT/AOT_stimuli/rescaled_final/1428_fw.mp4	0.0	379.9536700248718	0.09949088096618652
81	337.5813229084015	fix_pre	0		120	79.0	2.5	/experiments/AOT/AOT_stimuli/rescaled_final/0015_rv.mp4	0.0	380.053160905838	0.9995791912078857
81	338.5809020996094	movie	1		244	79.0	2.5	/experiments/AOT/AOT_stimuli/rescaled_final/0015_rv.mp4	0.0	381.0527400970459	2.500349998474121
81	338.9662699699402	pulse	1	t		79.0	2.5	/experiments/AOT/AOT_stimuli/rescaled_final/0015_rv.mp4	0.0	381.4381079673767	
81	340.5647909641266	pulse	1	t		79.0	2.5	/experiments/AOT/AOT_stimuli/rescaled_final/0015_rv.mp4	0.0	383.0366289615631	
81	341.0812520980835	fix_post	2		12	79.0	2.5	/experiments/AOT/AOT_stimuli/rescaled_final/0015_rv.mp4	0.0	383.55309009552	0.10005593299865723
82	341.18130803108215	fix_pre	0		119	80.0	2.5	/experiments/AOT/AOT_stimuli/rescaled_final/0418_rv.mp4	0.0	383.6531460285187	0.9916999340057373
82	342.16476106643677	pulse	0	t		80.0	2.5	/experiments/AOT/AOT_stimuli/rescaled_final/0418_rv.mp4	0.0	384.6365990638733	
82	342.1730079650879	movie	1		246	80.0	2.5	/experiments/AOT/AOT_stimuli/rescaled_final/0418_rv.mp4	0.0	384.6448459625244	2.507871150970459
82	343.76439690589905	pulse	1	t		80.0	2.5	/experiments/AOT/AOT_stimuli/rescaled_final/0418_rv.mp4	0.0	386.23623490333557	
82	344.68087911605835	fix_post	2		12	80.0	2.5	/experiments/AOT/AOT_stimuli/rescaled_final/0418_rv.mp4	0.0	387.1527171134949	0.10038399696350098
83	344.78126311302185	fix_pre	0		120	81.0	2.5	/experiments/AOT/AOT_stimuli/rescaled_final/0336_rv.mp4	0.0	387.2531011104584	1.0000548362731934
83	345.36487102508545	pulse	0	t		81.0	2.5	/experiments/AOT/AOT_stimuli/rescaled_final/0336_rv.mp4	0.0	387.836709022522	
83	345.78131794929504	movie	1		244	81.0	2.5	/experiments/AOT/AOT_stimuli/rescaled_final/0336_rv.mp4	0.0	388.25315594673157	2.499965190887451
83	346.96485900878906	pulse	1	t		81.0	2.5	/experiments/AOT/AOT_stimuli/rescaled_final/0336_rv.mp4	0.0	389.4366970062256	
83	348.2812831401825	fix_post	2		12	81.0	2.5	/experiments/AOT/AOT_stimuli/rescaled_final/0336_rv.mp4	0.0	390.753121137619	0.09957098960876465
84	348.38085412979126	fix_pre	0		120	82.0	2.5	/experiments/AOT/AOT_stimuli/rescaled_final/1076_fw.mp4	0.0	390.8526921272278	0.9999809265136719
84	348.56484603881836	pulse	0	t		82.0	2.5	/experiments/AOT/AOT_stimuli/rescaled_final/1076_fw.mp4	0.0	391.0366840362549	
84	349.38083505630493	movie	1		244	82.0	2.5	/experiments/AOT/AOT_stimuli/rescaled_final/1076_fw.mp4	0.0	391.85267305374146	2.5000619888305664
84	350.1647210121155	pulse	1	t		82.0	2.5	/experiments/AOT/AOT_stimuli/rescaled_final/1076_fw.mp4	0.0	392.636559009552	
84	351.76319003105164	pulse	1	t		82.0	2.5	/experiments/AOT/AOT_stimuli/rescaled_final/1076_fw.mp4	0.0	394.23502802848816	
84	351.8808970451355	fix_post	2		12	82.0	2.5	/experiments/AOT/AOT_stimuli/rescaled_final/1076_fw.mp4	0.0	394.352735042572	0.10042190551757812
85	351.9813189506531	fix_pre	0		120	83.0	2.5	blank	1.0	394.4531569480896	0.9999580383300781
85	352.98127698898315	movie	1		300	83.0	2.5	blank	1.0	395.4531149864197	2.4999470710754395
85	353.3647630214691	pulse	1	t		83.0	2.5	blank	1.0	395.83660101890564	
85	354.9647879600525	pulse	1	t		83.0	2.5	blank	1.0	397.436625957489	
85	355.4812240600586	fix_post	2		12	83.0	2.5	blank	1.0	397.9530620574951	0.10004401206970215
87	355.5812680721283	stim	0		1716					398.0531060695648	14.299947023391724
87	356.56477403640747	pulse	0	t						399.036612033844	
87	358.16472601890564	pulse	0	t						400.63656401634216	
87	359.76465797424316	pulse	0	t						402.2364959716797	
87	361.36474800109863	pulse	0	t						403.83658599853516	
87	362.96469593048096	pulse	0	t						405.4365339279175	
87	364.56470012664795	pulse	0	t						407.0365381240845	
87	366.1647069454193	pulse	0	t						408.63654494285583	
87	367.7646300792694	pulse	0	t						410.23646807670593	
87	369.3646731376648	pulse	0	t						411.8365111351013	
