trial_nr	onset	event_type	phase	response	nr_frames	movie_index	movie_duration	movie_file	blank	onset_abs	duration
0	0.21658897399902344	stim	0		107					37.776440143585205	0.8916850090026855
0	1.1002469062805176	response	0	space						38.6600980758667	
1	1.108273983001709	stim	0		5130					38.66812515258789	42.76883506774902
1	43.862046003341675	pulse	0	t						81.42189717292786	
1	43.87710905075073	stim	1		1715					81.43696022033691	14.298060894012451
1	45.45685696601868	pulse	1	t						83.01670813560486	
1	47.056994915008545	pulse	1	t						84.61684608459473	
1	48.6573429107666	pulse	1	t						86.21719408035278	
1	50.25746488571167	pulse	1	t						87.81731605529785	
1	51.85774302482605	pulse	1	t						89.41759419441223	
1	53.4579119682312	pulse	1	t						91.01776313781738	
1	55.05824589729309	pulse	1	t						92.61809706687927	
1	56.658421993255615	pulse	1	t						94.2182731628418	
2	58.175169944763184	fix_pre	0		11	0.0	2.5	/experiments/knapen_AOT/AOT_stimuli/rescaled_final/0140_rv.mp4	0.0	95.73502111434937	0.10009002685546875
2	58.25877499580383	pulse	0	t		0.0	2.5	/experiments/knapen_AOT/AOT_stimuli/rescaled_final/0140_rv.mp4	0.0	95.81862616539001	
2	58.27525997161865	movie	1		243	0.0	2.5	/experiments/knapen_AOT/AOT_stimuli/rescaled_final/0140_rv.mp4	0.0	95.83511114120483	2.5002758502960205
2	59.860435962677	pulse	1	t		0.0	2.5	/experiments/knapen_AOT/AOT_stimuli/rescaled_final/0140_rv.mp4	0.0	97.42028713226318	
2	60.77553582191467	fix_post	2		12	0.0	2.5	/experiments/knapen_AOT/AOT_stimuli/rescaled_final/0140_rv.mp4	0.0	98.33538699150085	0.09995913505554199
3	60.875494956970215	fix_pre	0		120	1.0	2.5	/experiments/knapen_AOT/AOT_stimuli/rescaled_final/1660_fw.mp4	0.0	98.4353461265564	1.0002498626708984
3	61.451727867126465	pulse	0	t		1.0	2.5	/experiments/knapen_AOT/AOT_stimuli/rescaled_final/1660_fw.mp4	0.0	99.01157903671265	
3	61.87574481964111	movie	1		245	1.0	2.5	/experiments/knapen_AOT/AOT_stimuli/rescaled_final/1660_fw.mp4	0.0	99.4355959892273	2.500333070755005
3	63.0595269203186	pulse	1	t		1.0	2.5	/experiments/knapen_AOT/AOT_stimuli/rescaled_final/1660_fw.mp4	0.0	100.61937808990479	
3	64.37607789039612	fix_post	2		12	1.0	2.5	/experiments/knapen_AOT/AOT_stimuli/rescaled_final/1660_fw.mp4	0.0	101.9359290599823	0.10001611709594727
4	64.47609400749207	fix_pre	0		120	2.0	2.5	/experiments/knapen_AOT/AOT_stimuli/rescaled_final/0387_rv.mp4	0.0	102.03594517707825	1.0001540184020996
4	64.65218901634216	pulse	0	t		2.0	2.5	/experiments/knapen_AOT/AOT_stimuli/rescaled_final/0387_rv.mp4	0.0	102.21204018592834	
4	65.47624802589417	movie	1		246	2.0	2.5	/experiments/knapen_AOT/AOT_stimuli/rescaled_final/0387_rv.mp4	0.0	103.03609919548035	2.500337839126587
4	66.2525908946991	pulse	1	t		2.0	2.5	/experiments/knapen_AOT/AOT_stimuli/rescaled_final/0387_rv.mp4	0.0	103.81244206428528	
4	67.85209083557129	pulse	1	t		2.0	2.5	/experiments/knapen_AOT/AOT_stimuli/rescaled_final/0387_rv.mp4	0.0	105.41194200515747	
4	67.97658586502075	fix_post	2		12	2.0	2.5	/experiments/knapen_AOT/AOT_stimuli/rescaled_final/0387_rv.mp4	0.0	105.53643703460693	0.1000361442565918
5	68.07662200927734	fix_pre	0		120	3.0	2.5	/experiments/knapen_AOT/AOT_stimuli/rescaled_final/2107_fw.mp4	0.0	105.63647317886353	1.0001499652862549
5	69.0767719745636	movie	1		248	3.0	2.5	/experiments/knapen_AOT/AOT_stimuli/rescaled_final/2107_fw.mp4	0.0	106.63662314414978	2.492063045501709
5	69.45193004608154	pulse	1	t		3.0	2.5	/experiments/knapen_AOT/AOT_stimuli/rescaled_final/2107_fw.mp4	0.0	107.01178121566772	
5	71.0522780418396	pulse	1	t		3.0	2.5	/experiments/knapen_AOT/AOT_stimuli/rescaled_final/2107_fw.mp4	0.0	108.61212921142578	
5	71.56883502006531	fix_post	2		12	3.0	2.5	/experiments/knapen_AOT/AOT_stimuli/rescaled_final/2107_fw.mp4	0.0	109.12868618965149	0.1000828742980957
6	71.6689178943634	fix_pre	0		119	4.0	2.5	/experiments/knapen_AOT/AOT_stimuli/rescaled_final/0068_fw.mp4	0.0	109.22876906394958	0.9917621612548828
6	72.65239691734314	pulse	0	t		4.0	2.5	/experiments/knapen_AOT/AOT_stimuli/rescaled_final/0068_fw.mp4	0.0	110.21224808692932	
6	72.66068005561829	movie	1		247	4.0	2.5	/experiments/knapen_AOT/AOT_stimuli/rescaled_final/0068_fw.mp4	0.0	110.22053122520447	2.508654832839966
6	74.25714683532715	pulse	1	t		4.0	2.5	/experiments/knapen_AOT/AOT_stimuli/rescaled_final/0068_fw.mp4	0.0	111.81699800491333	
6	75.16933488845825	fix_post	2		12	4.0	2.5	/experiments/knapen_AOT/AOT_stimuli/rescaled_final/0068_fw.mp4	0.0	112.72918605804443	0.10005903244018555
7	75.26939392089844	fix_pre	0		120	5.0	2.5	blank	1.0	112.82924509048462	1.0001580715179443
7	75.85298585891724	pulse	0	t		5.0	2.5	blank	1.0	113.41283702850342	
7	76.26955199241638	movie	1		300	5.0	2.5	blank	1.0	113.82940316200256	2.5003409385681152
7	77.45316696166992	pulse	1	t		5.0	2.5	blank	1.0	115.0130181312561	
7	78.7698929309845	fix_post	2		12	5.0	2.5	blank	1.0	116.32974410057068	0.10004091262817383
8	78.86993384361267	fix_pre	0		120	6.0	2.5	/experiments/knapen_AOT/AOT_stimuli/rescaled_final/1408_rv.mp4	0.0	116.42978501319885	1.0001170635223389
8	79.05337691307068	pulse	0	t		6.0	2.5	/experiments/knapen_AOT/AOT_stimuli/rescaled_final/1408_rv.mp4	0.0	116.61322808265686	
8	79.87005090713501	movie	1		244	6.0	2.5	/experiments/knapen_AOT/AOT_stimuli/rescaled_final/1408_rv.mp4	0.0	117.42990207672119	2.5003750324249268
8	80.65371990203857	pulse	1	t		6.0	2.5	/experiments/knapen_AOT/AOT_stimuli/rescaled_final/1408_rv.mp4	0.0	118.21357107162476	
8	82.25405287742615	pulse	1	t		6.0	2.5	/experiments/knapen_AOT/AOT_stimuli/rescaled_final/1408_rv.mp4	0.0	119.81390404701233	
8	82.37042593955994	fix_post	2		12	6.0	2.5	/experiments/knapen_AOT/AOT_stimuli/rescaled_final/1408_rv.mp4	0.0	119.93027710914612	0.10000395774841309
9	82.47042989730835	fix_pre	0		119	7.0	2.5	/experiments/knapen_AOT/AOT_stimuli/rescaled_final/1458_rv.mp4	0.0	120.03028106689453	0.9918220043182373
9	83.46225190162659	movie	1		245	7.0	2.5	/experiments/knapen_AOT/AOT_stimuli/rescaled_final/1458_rv.mp4	0.0	121.02210307121277	2.5003631114959717
9	83.85427403450012	pulse	1	t		7.0	2.5	/experiments/knapen_AOT/AOT_stimuli/rescaled_final/1458_rv.mp4	0.0	121.4141252040863	
9	85.45440793037415	pulse	1	t		7.0	2.5	/experiments/knapen_AOT/AOT_stimuli/rescaled_final/1458_rv.mp4	0.0	123.01425909996033	
9	85.96261501312256	fix_post	2		12	7.0	2.5	/experiments/knapen_AOT/AOT_stimuli/rescaled_final/1458_rv.mp4	0.0	123.52246618270874	0.10009002685546875
10	86.06270503997803	fix_pre	0		120	8.0	2.5	/experiments/knapen_AOT/AOT_stimuli/rescaled_final/1504_fw.mp4	0.0	123.62255620956421	1.000074863433838
10	87.05475282669067	pulse	0	t		8.0	2.5	/experiments/knapen_AOT/AOT_stimuli/rescaled_final/1504_fw.mp4	0.0	124.61460399627686	
10	87.06277990341187	movie	1		246	8.0	2.5	/experiments/knapen_AOT/AOT_stimuli/rescaled_final/1504_fw.mp4	0.0	124.62263107299805	2.5087101459503174
10	88.65531301498413	pulse	1	t		8.0	2.5	/experiments/knapen_AOT/AOT_stimuli/rescaled_final/1504_fw.mp4	0.0	126.21516418457031	
10	89.57149004936218	fix_post	2		12	8.0	2.5	/experiments/knapen_AOT/AOT_stimuli/rescaled_final/1504_fw.mp4	0.0	127.13134121894836	0.10003495216369629
11	89.67152500152588	fix_pre	0		120	9.0	2.5	/experiments/knapen_AOT/AOT_stimuli/rescaled_final/2152_rv.mp4	0.0	127.23137617111206	1.0001978874206543
11	90.2551589012146	pulse	0	t		9.0	2.5	/experiments/knapen_AOT/AOT_stimuli/rescaled_final/2152_rv.mp4	0.0	127.81501007080078	
11	90.67172288894653	movie	1		244	9.0	2.5	/experiments/knapen_AOT/AOT_stimuli/rescaled_final/2152_rv.mp4	0.0	128.23157405853271	2.5003111362457275
11	91.85128092765808	pulse	1	t		9.0	2.5	/experiments/knapen_AOT/AOT_stimuli/rescaled_final/2152_rv.mp4	0.0	129.41113209724426	
11	93.17203402519226	fix_post	2		12	9.0	2.5	/experiments/knapen_AOT/AOT_stimuli/rescaled_final/2152_rv.mp4	0.0	130.73188519477844	0.1000359058380127
12	93.27206993103027	fix_pre	0		120	10.0	2.5	/experiments/knapen_AOT/AOT_stimuli/rescaled_final/0089_fw.mp4	0.0	130.83192110061646	1.0001449584960938
12	93.45560503005981	pulse	0	t		10.0	2.5	/experiments/knapen_AOT/AOT_stimuli/rescaled_final/0089_fw.mp4	0.0	131.015456199646	
12	94.27221488952637	movie	1		245	10.0	2.5	/experiments/knapen_AOT/AOT_stimuli/rescaled_final/0089_fw.mp4	0.0	131.83206605911255	2.500373125076294
12	95.05600690841675	pulse	1	t		10.0	2.5	/experiments/knapen_AOT/AOT_stimuli/rescaled_final/0089_fw.mp4	0.0	132.61585807800293	
12	96.65618300437927	pulse	1	t		10.0	2.5	/experiments/knapen_AOT/AOT_stimuli/rescaled_final/0089_fw.mp4	0.0	134.21603417396545	
12	96.77258801460266	fix_post	2		12	10.0	2.5	/experiments/knapen_AOT/AOT_stimuli/rescaled_final/0089_fw.mp4	0.0	134.33243918418884	0.09998488426208496
13	96.87257289886475	fix_pre	0		117	11.0	2.5	/experiments/knapen_AOT/AOT_stimuli/rescaled_final/0733_rv.mp4	0.0	134.43242406845093	1.000373125076294
13	97.87294602394104	movie	1		245	11.0	2.5	/experiments/knapen_AOT/AOT_stimuli/rescaled_final/0733_rv.mp4	0.0	135.43279719352722	2.4918289184570312
13	98.2576949596405	pulse	1	t		11.0	2.5	/experiments/knapen_AOT/AOT_stimuli/rescaled_final/0733_rv.mp4	0.0	135.81754612922668	
13	99.85657000541687	pulse	1	t		11.0	2.5	/experiments/knapen_AOT/AOT_stimuli/rescaled_final/0733_rv.mp4	0.0	137.41642117500305	
13	100.36477494239807	fix_post	2		12	11.0	2.5	/experiments/knapen_AOT/AOT_stimuli/rescaled_final/0733_rv.mp4	0.0	137.92462611198425	0.1000208854675293
14	100.4647958278656	fix_pre	0		120	12.0	2.5	/experiments/knapen_AOT/AOT_stimuli/rescaled_final/1141_rv.mp4	0.0	138.02464699745178	1.0001521110534668
14	101.45683789253235	pulse	0	t		12.0	2.5	/experiments/knapen_AOT/AOT_stimuli/rescaled_final/1141_rv.mp4	0.0	139.01668906211853	
14	101.46494793891907	movie	1		247	12.0	2.5	/experiments/knapen_AOT/AOT_stimuli/rescaled_final/1141_rv.mp4	0.0	139.02479910850525	2.508686065673828
14	103.05751085281372	pulse	1	t		12.0	2.5	/experiments/knapen_AOT/AOT_stimuli/rescaled_final/1141_rv.mp4	0.0	140.6173620223999	
14	103.9736340045929	fix_post	2		12	12.0	2.5	/experiments/knapen_AOT/AOT_stimuli/rescaled_final/1141_rv.mp4	0.0	141.53348517417908	0.10001182556152344
15	104.07364583015442	fix_pre	0		120	13.0	2.5	/experiments/knapen_AOT/AOT_stimuli/rescaled_final/1549_rv.mp4	0.0	141.6334969997406	1.0001821517944336
15	104.65726804733276	pulse	0	t		13.0	2.5	/experiments/knapen_AOT/AOT_stimuli/rescaled_final/1549_rv.mp4	0.0	142.21711921691895	
15	105.07382798194885	movie	1		245	13.0	2.5	/experiments/knapen_AOT/AOT_stimuli/rescaled_final/1549_rv.mp4	0.0	142.63367915153503	2.5003509521484375
15	106.25756597518921	pulse	1	t		13.0	2.5	/experiments/knapen_AOT/AOT_stimuli/rescaled_final/1549_rv.mp4	0.0	143.8174171447754	
15	107.57417893409729	fix_post	2		12	13.0	2.5	/experiments/knapen_AOT/AOT_stimuli/rescaled_final/1549_rv.mp4	0.0	145.13403010368347	0.10001206398010254
16	107.67419099807739	fix_pre	0		120	14.0	2.5	blank	1.0	145.23404216766357	1.00016188621521
16	107.857745885849	pulse	0	t		14.0	2.5	blank	1.0	145.41759705543518	
16	108.6743528842926	movie	1		300	14.0	2.5	blank	1.0	146.23420405387878	2.500411033630371
16	109.45814299583435	pulse	1	t		14.0	2.5	blank	1.0	147.01799416542053	
16	111.05830097198486	pulse	1	t		14.0	2.5	blank	1.0	148.61815214157104	
16	111.17476391792297	fix_post	2		12	14.0	2.5	blank	1.0	148.73461508750916	0.09995508193969727
17	111.27471899986267	fix_pre	0		120	15.0	2.5	/experiments/knapen_AOT/AOT_stimuli/rescaled_final/0998_rv.mp4	0.0	148.83457016944885	1.0001978874206543
17	112.27491688728333	movie	1		243	15.0	2.5	/experiments/knapen_AOT/AOT_stimuli/rescaled_final/0998_rv.mp4	0.0	149.8347680568695	2.4920060634613037
17	112.65894293785095	pulse	1	t		15.0	2.5	/experiments/knapen_AOT/AOT_stimuli/rescaled_final/0998_rv.mp4	0.0	150.21879410743713	
17	114.25144791603088	pulse	1	t		15.0	2.5	/experiments/knapen_AOT/AOT_stimuli/rescaled_final/0998_rv.mp4	0.0	151.81129908561707	
17	114.76692295074463	fix_post	2		12	15.0	2.5	/experiments/knapen_AOT/AOT_stimuli/rescaled_final/0998_rv.mp4	0.0	152.3267741203308	0.10000991821289062
18	114.86693286895752	fix_pre	0		120	16.0	2.5	/experiments/knapen_AOT/AOT_stimuli/rescaled_final/0950_rv.mp4	0.0	152.4267840385437	1.000171184539795
18	115.85151886940002	pulse	0	t		16.0	2.5	/experiments/knapen_AOT/AOT_stimuli/rescaled_final/0950_rv.mp4	0.0	153.4113700389862	
18	115.86710405349731	movie	1		245	16.0	2.5	/experiments/knapen_AOT/AOT_stimuli/rescaled_final/0950_rv.mp4	0.0	153.4269552230835	2.5086669921875
18	117.45973682403564	pulse	1	t		16.0	2.5	/experiments/knapen_AOT/AOT_stimuli/rescaled_final/0950_rv.mp4	0.0	155.01958799362183	
18	118.37577104568481	fix_post	2		12	16.0	2.5	/experiments/knapen_AOT/AOT_stimuli/rescaled_final/0950_rv.mp4	0.0	155.935622215271	0.10004687309265137
19	118.47581791877747	fix_pre	0		120	17.0	2.5	/experiments/knapen_AOT/AOT_stimuli/rescaled_final/0615_rv.mp4	0.0	156.03566908836365	1.000157117843628
19	119.05197381973267	pulse	0	t		17.0	2.5	/experiments/knapen_AOT/AOT_stimuli/rescaled_final/0615_rv.mp4	0.0	156.61182498931885	
19	119.4759750366211	movie	1		243	17.0	2.5	/experiments/knapen_AOT/AOT_stimuli/rescaled_final/0615_rv.mp4	0.0	157.03582620620728	2.5003468990325928
19	120.65253400802612	pulse	1	t		17.0	2.5	/experiments/knapen_AOT/AOT_stimuli/rescaled_final/0615_rv.mp4	0.0	158.2123851776123	
19	121.97632193565369	fix_post	2		12	17.0	2.5	/experiments/knapen_AOT/AOT_stimuli/rescaled_final/0615_rv.mp4	0.0	159.53617310523987	0.10000991821289062
20	122.07633185386658	fix_pre	0		120	18.0	2.5	/experiments/knapen_AOT/AOT_stimuli/rescaled_final/1893_rv.mp4	0.0	159.63618302345276	1.000157117843628
20	122.25171089172363	pulse	0	t		18.0	2.5	/experiments/knapen_AOT/AOT_stimuli/rescaled_final/1893_rv.mp4	0.0	159.81156206130981	
20	123.0764889717102	movie	1		244	18.0	2.5	/experiments/knapen_AOT/AOT_stimuli/rescaled_final/1893_rv.mp4	0.0	160.6363401412964	2.5003788471221924
20	123.85180187225342	pulse	1	t		18.0	2.5	/experiments/knapen_AOT/AOT_stimuli/rescaled_final/1893_rv.mp4	0.0	161.4116530418396	
20	125.45197582244873	pulse	1	t		18.0	2.5	/experiments/knapen_AOT/AOT_stimuli/rescaled_final/1893_rv.mp4	0.0	163.0118269920349	
20	125.5768678188324	fix_post	2		12	18.0	2.5	/experiments/knapen_AOT/AOT_stimuli/rescaled_final/1893_rv.mp4	0.0	163.13671898841858	0.1000051498413086
21	125.6768729686737	fix_pre	0		119	19.0	2.5	blank	1.0	163.2367241382599	0.9917938709259033
21	126.66866683959961	movie	1		300	19.0	2.5	blank	1.0	164.2285180091858	2.5004091262817383
21	127.05245184898376	pulse	1	t		19.0	2.5	blank	1.0	164.61230301856995	
21	128.65247201919556	pulse	1	t		19.0	2.5	blank	1.0	166.21232318878174	
21	129.16907596588135	fix_post	2		12	19.0	2.5	blank	1.0	166.72892713546753	0.10006904602050781
22	129.26914501190186	fix_pre	0		119	20.0	2.5	/experiments/knapen_AOT/AOT_stimuli/rescaled_final/0372_fw.mp4	0.0	166.82899618148804	0.9917478561401367
22	130.25275492668152	pulse	0	t		20.0	2.5	/experiments/knapen_AOT/AOT_stimuli/rescaled_final/0372_fw.mp4	0.0	167.8126060962677	
22	130.260892868042	movie	1		246	20.0	2.5	/experiments/knapen_AOT/AOT_stimuli/rescaled_final/0372_fw.mp4	0.0	167.82074403762817	2.5087060928344727
22	131.8533890247345	pulse	1	t		20.0	2.5	/experiments/knapen_AOT/AOT_stimuli/rescaled_final/0372_fw.mp4	0.0	169.41324019432068	
22	132.76959896087646	fix_post	2		12	20.0	2.5	/experiments/knapen_AOT/AOT_stimuli/rescaled_final/0372_fw.mp4	0.0	170.32945013046265	0.10003900527954102
23	132.869637966156	fix_pre	0		120	21.0	2.5	/experiments/knapen_AOT/AOT_stimuli/rescaled_final/2151_fw.mp4	0.0	170.4294891357422	1.0001368522644043
23	133.45321393013	pulse	0	t		21.0	2.5	/experiments/knapen_AOT/AOT_stimuli/rescaled_final/2151_fw.mp4	0.0	171.0130650997162	
23	133.8697748184204	movie	1		245	21.0	2.5	/experiments/knapen_AOT/AOT_stimuli/rescaled_final/2151_fw.mp4	0.0	171.4296259880066	2.5003621578216553
23	135.05360984802246	pulse	1	t		21.0	2.5	/experiments/knapen_AOT/AOT_stimuli/rescaled_final/2151_fw.mp4	0.0	172.61346101760864	
23	136.37013697624207	fix_post	2		12	21.0	2.5	/experiments/knapen_AOT/AOT_stimuli/rescaled_final/2151_fw.mp4	0.0	173.92998814582825	0.1000208854675293
24	136.4701578617096	fix_pre	0		120	22.0	2.5	/experiments/knapen_AOT/AOT_stimuli/rescaled_final/1780_fw.mp4	0.0	174.03000903129578	1.0001561641693115
24	136.65367698669434	pulse	0	t		22.0	2.5	/experiments/knapen_AOT/AOT_stimuli/rescaled_final/1780_fw.mp4	0.0	174.21352815628052	
24	137.4703140258789	movie	1		246	22.0	2.5	/experiments/knapen_AOT/AOT_stimuli/rescaled_final/1780_fw.mp4	0.0	175.0301651954651	2.500361919403076
24	138.25396490097046	pulse	1	t		22.0	2.5	/experiments/knapen_AOT/AOT_stimuli/rescaled_final/1780_fw.mp4	0.0	175.81381607055664	
24	139.85423684120178	pulse	1	t		22.0	2.5	/experiments/knapen_AOT/AOT_stimuli/rescaled_final/1780_fw.mp4	0.0	177.41408801078796	
24	139.97067594528198	fix_post	2		12	22.0	2.5	/experiments/knapen_AOT/AOT_stimuli/rescaled_final/1780_fw.mp4	0.0	177.53052711486816	0.1000359058380127
25	140.07071185112	fix_pre	0		119	23.0	2.5	/experiments/knapen_AOT/AOT_stimuli/rescaled_final/1444_fw.mp4	0.0	177.63056302070618	0.9918520450592041
25	141.0625638961792	movie	1		246	23.0	2.5	/experiments/knapen_AOT/AOT_stimuli/rescaled_final/1444_fw.mp4	0.0	178.62241506576538	2.5003011226654053
25	141.45449304580688	pulse	1	t		23.0	2.5	/experiments/knapen_AOT/AOT_stimuli/rescaled_final/1444_fw.mp4	0.0	179.01434421539307	
25	143.0546898841858	pulse	1	t		23.0	2.5	/experiments/knapen_AOT/AOT_stimuli/rescaled_final/1444_fw.mp4	0.0	180.61454105377197	
25	143.5628650188446	fix_post	2		12	23.0	2.5	/experiments/knapen_AOT/AOT_stimuli/rescaled_final/1444_fw.mp4	0.0	181.1227161884308	0.10002493858337402
26	143.66288995742798	fix_pre	0		120	24.0	2.5	/experiments/knapen_AOT/AOT_stimuli/rescaled_final/0499_fw.mp4	0.0	181.22274112701416	1.0001389980316162
26	144.65495491027832	pulse	0	t		24.0	2.5	/experiments/knapen_AOT/AOT_stimuli/rescaled_final/0499_fw.mp4	0.0	182.2148060798645	
26	144.6630289554596	movie	1		247	24.0	2.5	/experiments/knapen_AOT/AOT_stimuli/rescaled_final/0499_fw.mp4	0.0	182.22288012504578	2.508711099624634
26	146.25592398643494	pulse	1	t		24.0	2.5	/experiments/knapen_AOT/AOT_stimuli/rescaled_final/0499_fw.mp4	0.0	183.81577515602112	
26	147.17174005508423	fix_post	2		12	24.0	2.5	/experiments/knapen_AOT/AOT_stimuli/rescaled_final/0499_fw.mp4	0.0	184.7315912246704	0.1000218391418457
27	147.27176189422607	fix_pre	0		120	25.0	2.5	/experiments/knapen_AOT/AOT_stimuli/rescaled_final/1275_fw.mp4	0.0	184.83161306381226	1.0001821517944336
27	147.8554618358612	pulse	0	t		25.0	2.5	/experiments/knapen_AOT/AOT_stimuli/rescaled_final/1275_fw.mp4	0.0	185.4153130054474	
27	148.2719440460205	movie	1		248	25.0	2.5	/experiments/knapen_AOT/AOT_stimuli/rescaled_final/1275_fw.mp4	0.0	185.8317952156067	2.5003437995910645
27	149.4556920528412	pulse	1	t		25.0	2.5	/experiments/knapen_AOT/AOT_stimuli/rescaled_final/1275_fw.mp4	0.0	187.01554322242737	
27	150.77228784561157	fix_post	2		12	25.0	2.5	/experiments/knapen_AOT/AOT_stimuli/rescaled_final/1275_fw.mp4	0.0	188.33213901519775	0.10003900527954102
28	150.8723268508911	fix_pre	0		120	26.0	2.5	/experiments/knapen_AOT/AOT_stimuli/rescaled_final/1955_fw.mp4	0.0	188.4321780204773	1.0001411437988281
28	151.05599999427795	pulse	0	t		26.0	2.5	/experiments/knapen_AOT/AOT_stimuli/rescaled_final/1955_fw.mp4	0.0	188.61585116386414	
28	151.87246799468994	movie	1		245	26.0	2.5	/experiments/knapen_AOT/AOT_stimuli/rescaled_final/1955_fw.mp4	0.0	189.43231916427612	2.5004160404205322
28	152.65612483024597	pulse	1	t		26.0	2.5	/experiments/knapen_AOT/AOT_stimuli/rescaled_final/1955_fw.mp4	0.0	190.21597599983215	
28	154.25635504722595	pulse	1	t		26.0	2.5	/experiments/knapen_AOT/AOT_stimuli/rescaled_final/1955_fw.mp4	0.0	191.81620621681213	
28	154.37288403511047	fix_post	2		12	26.0	2.5	/experiments/knapen_AOT/AOT_stimuli/rescaled_final/1955_fw.mp4	0.0	191.93273520469666	0.09996986389160156
29	154.47285389900208	fix_pre	0		120	27.0	2.5	/experiments/knapen_AOT/AOT_stimuli/rescaled_final/1139_fw.mp4	0.0	192.03270506858826	1.0001370906829834
29	155.47299098968506	movie	1		241	27.0	2.5	/experiments/knapen_AOT/AOT_stimuli/rescaled_final/1139_fw.mp4	0.0	193.03284215927124	2.4920740127563477
29	155.85785698890686	pulse	1	t		27.0	2.5	/experiments/knapen_AOT/AOT_stimuli/rescaled_final/1139_fw.mp4	0.0	193.41770815849304	
29	157.45680403709412	pulse	1	t		27.0	2.5	/experiments/knapen_AOT/AOT_stimuli/rescaled_final/1139_fw.mp4	0.0	195.0166552066803	
29	157.9650650024414	fix_post	2		12	27.0	2.5	/experiments/knapen_AOT/AOT_stimuli/rescaled_final/1139_fw.mp4	0.0	195.5249161720276	0.09998583793640137
30	158.0650508403778	fix_pre	0		120	28.0	2.5	blank	1.0	195.624902009964	1.0001800060272217
30	159.05708503723145	pulse	0	t		28.0	2.5	blank	1.0	196.61693620681763	
30	159.06523084640503	movie	1		301	28.0	2.5	blank	1.0	196.6250820159912	2.508671998977661
30	160.6572709083557	pulse	1	t		28.0	2.5	blank	1.0	198.2171220779419	
30	161.5739028453827	fix_post	2		12	28.0	2.5	blank	1.0	199.13375401496887	0.10001206398010254
31	161.6739149093628	fix_pre	0		120	29.0	2.5	/experiments/knapen_AOT/AOT_stimuli/rescaled_final/1748_fw.mp4	0.0	199.23376607894897	1.000154972076416
31	162.2575180530548	pulse	0	t		29.0	2.5	/experiments/knapen_AOT/AOT_stimuli/rescaled_final/1748_fw.mp4	0.0	199.817369222641	
31	162.6740698814392	movie	1		244	29.0	2.5	/experiments/knapen_AOT/AOT_stimuli/rescaled_final/1748_fw.mp4	0.0	200.2339210510254	2.5003881454467773
31	163.85791301727295	pulse	1	t		29.0	2.5	/experiments/knapen_AOT/AOT_stimuli/rescaled_final/1748_fw.mp4	0.0	201.41776418685913	
31	165.174458026886	fix_post	2		12	29.0	2.5	/experiments/knapen_AOT/AOT_stimuli/rescaled_final/1748_fw.mp4	0.0	202.73430919647217	0.10005688667297363
32	165.27451491355896	fix_pre	0		120	30.0	2.5	/experiments/knapen_AOT/AOT_stimuli/rescaled_final/1204_fw.mp4	0.0	202.83436608314514	1.0000851154327393
32	165.45800685882568	pulse	0	t		30.0	2.5	/experiments/knapen_AOT/AOT_stimuli/rescaled_final/1204_fw.mp4	0.0	203.01785802841187	
32	166.2746000289917	movie	1		245	30.0	2.5	/experiments/knapen_AOT/AOT_stimuli/rescaled_final/1204_fw.mp4	0.0	203.83445119857788	2.5004119873046875
32	167.05836391448975	pulse	1	t		30.0	2.5	/experiments/knapen_AOT/AOT_stimuli/rescaled_final/1204_fw.mp4	0.0	204.61821508407593	
32	168.6561930179596	pulse	1	t		30.0	2.5	/experiments/knapen_AOT/AOT_stimuli/rescaled_final/1204_fw.mp4	0.0	206.21604418754578	
32	168.7750120162964	fix_post	2		12	30.0	2.5	/experiments/knapen_AOT/AOT_stimuli/rescaled_final/1204_fw.mp4	0.0	206.33486318588257	0.0999758243560791
33	168.87498784065247	fix_pre	0		120	31.0	2.5	/experiments/knapen_AOT/AOT_stimuli/rescaled_final/0450_fw.mp4	0.0	206.43483901023865	1.0001790523529053
33	169.87516689300537	movie	1		245	31.0	2.5	/experiments/knapen_AOT/AOT_stimuli/rescaled_final/0450_fw.mp4	0.0	207.43501806259155	2.492011070251465
33	170.25940895080566	pulse	1	t		31.0	2.5	/experiments/knapen_AOT/AOT_stimuli/rescaled_final/0450_fw.mp4	0.0	207.81926012039185	
33	171.85903787612915	pulse	1	t		31.0	2.5	/experiments/knapen_AOT/AOT_stimuli/rescaled_final/0450_fw.mp4	0.0	209.41888904571533	
33	172.36717796325684	fix_post	2		12	31.0	2.5	/experiments/knapen_AOT/AOT_stimuli/rescaled_final/0450_fw.mp4	0.0	209.92702913284302	0.10004496574401855
34	172.46722292900085	fix_pre	0		120	32.0	2.5	/experiments/knapen_AOT/AOT_stimuli/rescaled_final/0887_rv.mp4	0.0	210.02707409858704	1.0001211166381836
34	173.45926189422607	pulse	0	t		32.0	2.5	/experiments/knapen_AOT/AOT_stimuli/rescaled_final/0887_rv.mp4	0.0	211.01911306381226	
34	173.46734404563904	movie	1		245	32.0	2.5	/experiments/knapen_AOT/AOT_stimuli/rescaled_final/0887_rv.mp4	0.0	211.02719521522522	2.508701801300049
34	175.0639889240265	pulse	1	t		32.0	2.5	/experiments/knapen_AOT/AOT_stimuli/rescaled_final/0887_rv.mp4	0.0	212.62384009361267	
34	175.9760458469391	fix_post	2		12	32.0	2.5	/experiments/knapen_AOT/AOT_stimuli/rescaled_final/0887_rv.mp4	0.0	213.53589701652527	0.10004806518554688
35	176.07609391212463	fix_pre	0		120	33.0	2.5	blank	1.0	213.63594508171082	1.000154972076416
35	176.6521270275116	pulse	0	t		33.0	2.5	blank	1.0	214.21197819709778	
35	177.07624888420105	movie	1		300	33.0	2.5	blank	1.0	214.63610005378723	2.500368118286133
35	178.252357006073	pulse	1	t		33.0	2.5	blank	1.0	215.81220817565918	
35	179.57661700248718	fix_post	2		12	33.0	2.5	blank	1.0	217.13646817207336	0.09999394416809082
36	179.67661094665527	fix_pre	0		120	34.0	2.5	/experiments/knapen_AOT/AOT_stimuli/rescaled_final/0206_fw.mp4	0.0	217.23646211624146	1.0001580715179443
36	179.85272002220154	pulse	0	t		34.0	2.5	/experiments/knapen_AOT/AOT_stimuli/rescaled_final/0206_fw.mp4	0.0	217.41257119178772	
36	180.67676901817322	movie	1		247	34.0	2.5	/experiments/knapen_AOT/AOT_stimuli/rescaled_final/0206_fw.mp4	0.0	218.2366201877594	2.5003550052642822
36	181.45299005508423	pulse	1	t		34.0	2.5	/experiments/knapen_AOT/AOT_stimuli/rescaled_final/0206_fw.mp4	0.0	219.0128412246704	
36	183.05242705345154	pulse	1	t		34.0	2.5	/experiments/knapen_AOT/AOT_stimuli/rescaled_final/0206_fw.mp4	0.0	220.61227822303772	
36	183.1771240234375	fix_post	2		12	34.0	2.5	/experiments/knapen_AOT/AOT_stimuli/rescaled_final/0206_fw.mp4	0.0	220.73697519302368	0.10005784034729004
37	183.2771818637848	fix_pre	0		120	35.0	2.5	/experiments/knapen_AOT/AOT_stimuli/rescaled_final/0044_rv.mp4	0.0	220.83703303337097	1.0001261234283447
37	184.27730798721313	movie	1		245	35.0	2.5	/experiments/knapen_AOT/AOT_stimuli/rescaled_final/0044_rv.mp4	0.0	221.83715915679932	2.4920408725738525
37	184.65250992774963	pulse	1	t		35.0	2.5	/experiments/knapen_AOT/AOT_stimuli/rescaled_final/0044_rv.mp4	0.0	222.21236109733582	
37	186.2528748512268	pulse	1	t		35.0	2.5	/experiments/knapen_AOT/AOT_stimuli/rescaled_final/0044_rv.mp4	0.0	223.812726020813	
37	186.769348859787	fix_post	2		12	35.0	2.5	/experiments/knapen_AOT/AOT_stimuli/rescaled_final/0044_rv.mp4	0.0	224.32920002937317	0.10001707077026367
38	186.86936593055725	fix_pre	0		119	36.0	2.5	/experiments/knapen_AOT/AOT_stimuli/rescaled_final/1594_fw.mp4	0.0	224.42921710014343	0.991847038269043
38	187.85308384895325	pulse	0	t		36.0	2.5	/experiments/knapen_AOT/AOT_stimuli/rescaled_final/1594_fw.mp4	0.0	225.41293501853943	
38	187.8612129688263	movie	1		247	36.0	2.5	/experiments/knapen_AOT/AOT_stimuli/rescaled_final/1594_fw.mp4	0.0	225.42106413841248	2.508657932281494
38	189.45397901535034	pulse	1	t		36.0	2.5	/experiments/knapen_AOT/AOT_stimuli/rescaled_final/1594_fw.mp4	0.0	227.01383018493652	
38	190.3698709011078	fix_post	2		12	36.0	2.5	/experiments/knapen_AOT/AOT_stimuli/rescaled_final/1594_fw.mp4	0.0	227.92972207069397	0.1000211238861084
39	190.4698920249939	fix_pre	0		120	37.0	2.5	/experiments/knapen_AOT/AOT_stimuli/rescaled_final/1141_fw.mp4	0.0	228.02974319458008	1.0001568794250488
39	191.0534679889679	pulse	0	t		37.0	2.5	/experiments/knapen_AOT/AOT_stimuli/rescaled_final/1141_fw.mp4	0.0	228.61331915855408	
39	191.47004890441895	movie	1		246	37.0	2.5	/experiments/knapen_AOT/AOT_stimuli/rescaled_final/1141_fw.mp4	0.0	229.02990007400513	2.5003530979156494
39	192.65382385253906	pulse	1	t		37.0	2.5	/experiments/knapen_AOT/AOT_stimuli/rescaled_final/1141_fw.mp4	0.0	230.21367502212524	
39	193.9704020023346	fix_post	2		12	37.0	2.5	/experiments/knapen_AOT/AOT_stimuli/rescaled_final/1141_fw.mp4	0.0	231.53025317192078	0.10001683235168457
40	194.07041883468628	fix_pre	0		120	38.0	2.5	/experiments/knapen_AOT/AOT_stimuli/rescaled_final/1047_fw.mp4	0.0	231.63027000427246	1.0001649856567383
40	194.2540009021759	pulse	0	t		38.0	2.5	/experiments/knapen_AOT/AOT_stimuli/rescaled_final/1047_fw.mp4	0.0	231.81385207176208	
40	195.07058382034302	movie	1		245	38.0	2.5	/experiments/knapen_AOT/AOT_stimuli/rescaled_final/1047_fw.mp4	0.0	232.6304349899292	2.5004501342773438
40	195.85438585281372	pulse	1	t		38.0	2.5	/experiments/knapen_AOT/AOT_stimuli/rescaled_final/1047_fw.mp4	0.0	233.4142370223999	
40	197.45449995994568	pulse	1	t		38.0	2.5	/experiments/knapen_AOT/AOT_stimuli/rescaled_final/1047_fw.mp4	0.0	235.01435112953186	
40	197.57103395462036	fix_post	2		12	38.0	2.5	/experiments/knapen_AOT/AOT_stimuli/rescaled_final/1047_fw.mp4	0.0	235.13088512420654	0.09992003440856934
41	197.67095398902893	fix_pre	0		120	39.0	2.5	/experiments/knapen_AOT/AOT_stimuli/rescaled_final/0751_rv.mp4	0.0	235.2308051586151	1.000190019607544
41	198.67114400863647	movie	1		247	39.0	2.5	/experiments/knapen_AOT/AOT_stimuli/rescaled_final/0751_rv.mp4	0.0	236.23099517822266	2.4920198917388916
41	199.05899596214294	pulse	1	t		39.0	2.5	/experiments/knapen_AOT/AOT_stimuli/rescaled_final/0751_rv.mp4	0.0	236.61884713172913	
41	200.65500593185425	pulse	1	t		39.0	2.5	/experiments/knapen_AOT/AOT_stimuli/rescaled_final/0751_rv.mp4	0.0	238.21485710144043	
41	201.16316390037537	fix_post	2		12	39.0	2.5	/experiments/knapen_AOT/AOT_stimuli/rescaled_final/0751_rv.mp4	0.0	238.72301506996155	0.10007095336914062
42	201.2632348537445	fix_pre	0		120	40.0	2.5	/experiments/knapen_AOT/AOT_stimuli/rescaled_final/0651_rv.mp4	0.0	238.8230860233307	1.000096082687378
42	202.25530004501343	pulse	0	t		40.0	2.5	/experiments/knapen_AOT/AOT_stimuli/rescaled_final/0651_rv.mp4	0.0	239.8151512145996	
42	202.26333093643188	movie	1		245	40.0	2.5	/experiments/knapen_AOT/AOT_stimuli/rescaled_final/0651_rv.mp4	0.0	239.82318210601807	2.5086870193481445
42	203.85618901252747	pulse	1	t		40.0	2.5	/experiments/knapen_AOT/AOT_stimuli/rescaled_final/0651_rv.mp4	0.0	241.41604018211365	
42	204.77201795578003	fix_post	2		12	40.0	2.5	/experiments/knapen_AOT/AOT_stimuli/rescaled_final/0651_rv.mp4	0.0	242.3318691253662	0.10004091262817383
43	204.8720588684082	fix_pre	0		120	41.0	2.5	/experiments/knapen_AOT/AOT_stimuli/rescaled_final/1781_rv.mp4	0.0	242.43191003799438	1.0001471042633057
43	205.45568895339966	pulse	0	t		41.0	2.5	/experiments/knapen_AOT/AOT_stimuli/rescaled_final/1781_rv.mp4	0.0	243.01554012298584	
43	205.8722059726715	movie	1		245	41.0	2.5	/experiments/knapen_AOT/AOT_stimuli/rescaled_final/1781_rv.mp4	0.0	243.4320571422577	2.5003459453582764
43	207.05603790283203	pulse	1	t		41.0	2.5	/experiments/knapen_AOT/AOT_stimuli/rescaled_final/1781_rv.mp4	0.0	244.6158890724182	
43	208.37255191802979	fix_post	2		12	41.0	2.5	/experiments/knapen_AOT/AOT_stimuli/rescaled_final/1781_rv.mp4	0.0	245.93240308761597	0.10005402565002441
44	208.4726059436798	fix_pre	0		120	42.0	2.5	blank	1.0	246.032457113266	1.0001308917999268
44	208.65628790855408	pulse	0	t		42.0	2.5	blank	1.0	246.21613907814026	
44	209.47273683547974	movie	1		300	42.0	2.5	blank	1.0	247.03258800506592	2.5003631114959717
44	210.25641894340515	pulse	1	t		42.0	2.5	blank	1.0	247.81627011299133	
44	211.85664796829224	pulse	1	t		42.0	2.5	blank	1.0	249.41649913787842	
44	211.9730999469757	fix_post	2		12	42.0	2.5	blank	1.0	249.5329511165619	0.10004806518554688
45	212.07314801216125	fix_pre	0		120	43.0	2.5	/experiments/knapen_AOT/AOT_stimuli/rescaled_final/1594_rv.mp4	0.0	249.63299918174744	1.0001249313354492
45	213.0732729434967	movie	1		244	43.0	2.5	/experiments/knapen_AOT/AOT_stimuli/rescaled_final/1594_rv.mp4	0.0	250.63312411308289	2.4920148849487305
45	213.45745587348938	pulse	1	t		43.0	2.5	/experiments/knapen_AOT/AOT_stimuli/rescaled_final/1594_rv.mp4	0.0	251.01730704307556	
45	215.0572428703308	pulse	1	t		43.0	2.5	/experiments/knapen_AOT/AOT_stimuli/rescaled_final/1594_rv.mp4	0.0	252.617094039917	
45	215.56528782844543	fix_post	2		12	43.0	2.5	/experiments/knapen_AOT/AOT_stimuli/rescaled_final/1594_rv.mp4	0.0	253.12513899803162	0.10003113746643066
46	215.66531896591187	fix_pre	0		120	44.0	2.5	/experiments/knapen_AOT/AOT_stimuli/rescaled_final/0398_fw.mp4	0.0	253.22517013549805	1.0001499652862549
46	216.6574409008026	pulse	0	t		44.0	2.5	/experiments/knapen_AOT/AOT_stimuli/rescaled_final/0398_fw.mp4	0.0	254.2172920703888	
46	216.66546893119812	movie	1		243	44.0	2.5	/experiments/knapen_AOT/AOT_stimuli/rescaled_final/0398_fw.mp4	0.0	254.2253201007843	2.5087380409240723
46	218.2620689868927	pulse	1	t		44.0	2.5	/experiments/knapen_AOT/AOT_stimuli/rescaled_final/0398_fw.mp4	0.0	255.82192015647888	
46	219.1742069721222	fix_post	2		12	44.0	2.5	/experiments/knapen_AOT/AOT_stimuli/rescaled_final/0398_fw.mp4	0.0	256.7340581417084	0.10002994537353516
47	219.27423691749573	fix_pre	0		120	45.0	2.5	/experiments/knapen_AOT/AOT_stimuli/rescaled_final/0089_rv.mp4	0.0	256.8340880870819	1.0001749992370605
47	219.85788798332214	pulse	0	t		45.0	2.5	/experiments/knapen_AOT/AOT_stimuli/rescaled_final/0089_rv.mp4	0.0	257.4177391529083	
47	220.2744119167328	movie	1		245	45.0	2.5	/experiments/knapen_AOT/AOT_stimuli/rescaled_final/0089_rv.mp4	0.0	257.83426308631897	2.5003249645233154
47	221.458233833313	pulse	1	t		45.0	2.5	/experiments/knapen_AOT/AOT_stimuli/rescaled_final/0089_rv.mp4	0.0	259.01808500289917	
47	222.7747368812561	fix_post	2		12	45.0	2.5	/experiments/knapen_AOT/AOT_stimuli/rescaled_final/0089_rv.mp4	0.0	260.3345880508423	0.09999895095825195
48	222.87473583221436	fix_pre	0		120	46.0	2.5	/experiments/knapen_AOT/AOT_stimuli/rescaled_final/1270_rv.mp4	0.0	260.43458700180054	1.0001411437988281
48	223.05840396881104	pulse	0	t		46.0	2.5	/experiments/knapen_AOT/AOT_stimuli/rescaled_final/1270_rv.mp4	0.0	260.6182551383972	
48	223.87487697601318	movie	1		244	46.0	2.5	/experiments/knapen_AOT/AOT_stimuli/rescaled_final/1270_rv.mp4	0.0	261.43472814559937	2.500422954559326
48	224.65856003761292	pulse	1	t		46.0	2.5	/experiments/knapen_AOT/AOT_stimuli/rescaled_final/1270_rv.mp4	0.0	262.2184112071991	
48	226.25651001930237	pulse	1	t		46.0	2.5	/experiments/knapen_AOT/AOT_stimuli/rescaled_final/1270_rv.mp4	0.0	263.81636118888855	
48	226.3752999305725	fix_post	2		12	46.0	2.5	/experiments/knapen_AOT/AOT_stimuli/rescaled_final/1270_rv.mp4	0.0	263.9351511001587	0.09998106956481934
49	226.47528100013733	fix_pre	0		120	47.0	2.5	/experiments/knapen_AOT/AOT_stimuli/rescaled_final/2155_fw.mp4	0.0	264.0351321697235	1.000135898590088
49	227.47541689872742	movie	1		244	47.0	2.5	/experiments/knapen_AOT/AOT_stimuli/rescaled_final/2155_fw.mp4	0.0	265.0352680683136	2.492056131362915
49	227.85956001281738	pulse	1	t		47.0	2.5	/experiments/knapen_AOT/AOT_stimuli/rescaled_final/2155_fw.mp4	0.0	265.41941118240356	
49	229.45197892189026	pulse	1	t		47.0	2.5	/experiments/knapen_AOT/AOT_stimuli/rescaled_final/2155_fw.mp4	0.0	267.01183009147644	
49	229.96747303009033	fix_post	2		12	47.0	2.5	/experiments/knapen_AOT/AOT_stimuli/rescaled_final/2155_fw.mp4	0.0	267.5273241996765	0.09999799728393555
50	230.06747102737427	fix_pre	0		120	48.0	2.5	/experiments/knapen_AOT/AOT_stimuli/rescaled_final/0382_fw.mp4	0.0	267.62732219696045	1.0001699924468994
50	231.05201888084412	pulse	0	t		48.0	2.5	/experiments/knapen_AOT/AOT_stimuli/rescaled_final/0382_fw.mp4	0.0	268.6118700504303	
50	231.06764101982117	movie	1		247	48.0	2.5	/experiments/knapen_AOT/AOT_stimuli/rescaled_final/0382_fw.mp4	0.0	268.62749218940735	2.50869083404541
50	232.66108989715576	pulse	1	t		48.0	2.5	/experiments/knapen_AOT/AOT_stimuli/rescaled_final/0382_fw.mp4	0.0	270.22094106674194	
50	233.57633185386658	fix_post	2		12	48.0	2.5	/experiments/knapen_AOT/AOT_stimuli/rescaled_final/0382_fw.mp4	0.0	271.13618302345276	0.10001611709594727
51	233.67634797096252	fix_pre	0		120	49.0	2.5	blank	1.0	271.2361991405487	1.0001890659332275
51	234.25243496894836	pulse	0	t		49.0	2.5	blank	1.0	271.81228613853455	
51	234.67653703689575	movie	1		300	49.0	2.5	blank	1.0	272.23638820648193	2.5003418922424316
51	235.85265588760376	pulse	1	t		49.0	2.5	blank	1.0	273.41250705718994	
51	237.17687892913818	fix_post	2		12	49.0	2.5	blank	1.0	274.73673009872437	0.10001993179321289
52	237.2768988609314	fix_pre	0		120	50.0	2.5	/experiments/knapen_AOT/AOT_stimuli/rescaled_final/0916_rv.mp4	0.0	274.8367500305176	1.0001170635223389
52	237.45206689834595	pulse	0	t		50.0	2.5	/experiments/knapen_AOT/AOT_stimuli/rescaled_final/0916_rv.mp4	0.0	275.01191806793213	
52	238.27701592445374	movie	1		244	50.0	2.5	/experiments/knapen_AOT/AOT_stimuli/rescaled_final/0916_rv.mp4	0.0	275.8368670940399	2.500377893447876
52	239.05231189727783	pulse	1	t		50.0	2.5	/experiments/knapen_AOT/AOT_stimuli/rescaled_final/0916_rv.mp4	0.0	276.612163066864	
52	240.65250897407532	pulse	1	t		50.0	2.5	/experiments/knapen_AOT/AOT_stimuli/rescaled_final/0916_rv.mp4	0.0	278.2123601436615	
52	240.7773938179016	fix_post	2		12	50.0	2.5	/experiments/knapen_AOT/AOT_stimuli/rescaled_final/0916_rv.mp4	0.0	278.3372449874878	0.1000211238861084
53	240.87741494178772	fix_pre	0		120	51.0	2.5	/experiments/knapen_AOT/AOT_stimuli/rescaled_final/0018_fw.mp4	0.0	278.4372661113739	1.0001680850982666
53	241.877583026886	movie	1		245	51.0	2.5	/experiments/knapen_AOT/AOT_stimuli/rescaled_final/0018_fw.mp4	0.0	279.43743419647217	2.492033004760742
53	242.25293493270874	pulse	1	t		51.0	2.5	/experiments/knapen_AOT/AOT_stimuli/rescaled_final/0018_fw.mp4	0.0	279.8127861022949	
53	243.85324501991272	pulse	1	t		51.0	2.5	/experiments/knapen_AOT/AOT_stimuli/rescaled_final/0018_fw.mp4	0.0	281.4130961894989	
53	244.36961603164673	fix_post	2		12	51.0	2.5	/experiments/knapen_AOT/AOT_stimuli/rescaled_final/0018_fw.mp4	0.0	281.9294672012329	0.10002994537353516
54	244.46964597702026	fix_pre	0		119	52.0	2.5	/experiments/knapen_AOT/AOT_stimuli/rescaled_final/0615_rv.mp4	0.0	282.02949714660645	0.991797924041748
54	245.4533338546753	pulse	0	t		52.0	2.5	/experiments/knapen_AOT/AOT_stimuli/rescaled_final/0615_rv.mp4	0.0	283.0131850242615	
54	245.461443901062	movie	1		244	52.0	2.5	/experiments/knapen_AOT/AOT_stimuli/rescaled_final/0615_rv.mp4	0.0	283.0212950706482	2.5087130069732666
54	247.05422496795654	pulse	1	t		52.0	2.5	/experiments/knapen_AOT/AOT_stimuli/rescaled_final/0615_rv.mp4	0.0	284.6140761375427	
54	247.97015690803528	fix_post	2		12	52.0	2.5	/experiments/knapen_AOT/AOT_stimuli/rescaled_final/0615_rv.mp4	0.0	285.53000807762146	0.10000109672546387
55	248.07015800476074	fix_pre	0		120	53.0	2.5	/experiments/knapen_AOT/AOT_stimuli/rescaled_final/0690_rv.mp4	0.0	285.6300091743469	1.0001559257507324
55	248.65385794639587	pulse	0	t		53.0	2.5	/experiments/knapen_AOT/AOT_stimuli/rescaled_final/0690_rv.mp4	0.0	286.21370911598206	
55	249.07031393051147	movie	1		245	53.0	2.5	/experiments/knapen_AOT/AOT_stimuli/rescaled_final/0690_rv.mp4	0.0	286.63016510009766	2.5003859996795654
55	250.25420498847961	pulse	1	t		53.0	2.5	/experiments/knapen_AOT/AOT_stimuli/rescaled_final/0690_rv.mp4	0.0	287.8140561580658	
55	251.57069993019104	fix_post	2		12	53.0	2.5	/experiments/knapen_AOT/AOT_stimuli/rescaled_final/0690_rv.mp4	0.0	289.1305510997772	0.09999489784240723
56	251.67069482803345	fix_pre	0		120	54.0	2.5	/experiments/knapen_AOT/AOT_stimuli/rescaled_final/1475_fw.mp4	0.0	289.23054599761963	1.0001420974731445
56	251.85425782203674	pulse	0	t		54.0	2.5	/experiments/knapen_AOT/AOT_stimuli/rescaled_final/1475_fw.mp4	0.0	289.4141089916229	
56	252.6708369255066	movie	1		245	54.0	2.5	/experiments/knapen_AOT/AOT_stimuli/rescaled_final/1475_fw.mp4	0.0	290.2306880950928	2.500370979309082
56	253.45447087287903	pulse	1	t		54.0	2.5	/experiments/knapen_AOT/AOT_stimuli/rescaled_final/1475_fw.mp4	0.0	291.0143220424652	
56	255.05227398872375	pulse	1	t		54.0	2.5	/experiments/knapen_AOT/AOT_stimuli/rescaled_final/1475_fw.mp4	0.0	292.61212515830994	
56	255.17120790481567	fix_post	2		12	54.0	2.5	/experiments/knapen_AOT/AOT_stimuli/rescaled_final/1475_fw.mp4	0.0	292.73105907440186	0.10004115104675293
57	255.27124905586243	fix_pre	0		120	55.0	2.5	/experiments/knapen_AOT/AOT_stimuli/rescaled_final/1779_rv.mp4	0.0	292.8311002254486	1.0001449584960938
57	256.2713940143585	movie	1		243	55.0	2.5	/experiments/knapen_AOT/AOT_stimuli/rescaled_final/1779_rv.mp4	0.0	293.8312451839447	2.492036819458008
57	256.65535402297974	pulse	1	t		55.0	2.5	/experiments/knapen_AOT/AOT_stimuli/rescaled_final/1779_rv.mp4	0.0	294.2152051925659	
57	258.2552649974823	pulse	1	t		55.0	2.5	/experiments/knapen_AOT/AOT_stimuli/rescaled_final/1779_rv.mp4	0.0	295.8151161670685	
57	258.7634308338165	fix_post	2		12	55.0	2.5	/experiments/knapen_AOT/AOT_stimuli/rescaled_final/1779_rv.mp4	0.0	296.3232820034027	0.0999910831451416
58	258.86342191696167	fix_pre	0		120	56.0	2.5	blank	1.0	296.42327308654785	1.0001671314239502
58	259.85543990135193	pulse	0	t		56.0	2.5	blank	1.0	297.4152910709381	
58	259.8635890483856	movie	1		301	56.0	2.5	blank	1.0	297.4234402179718	2.5087039470672607
58	261.4556758403778	pulse	1	t		56.0	2.5	blank	1.0	299.015527009964	
58	262.3722929954529	fix_post	2		12	56.0	2.5	blank	1.0	299.93214416503906	0.09999299049377441
59	262.47228598594666	fix_pre	0		120	57.0	2.5	/experiments/knapen_AOT/AOT_stimuli/rescaled_final/2086_fw.mp4	0.0	300.03213715553284	1.0001778602600098
59	263.05605602264404	pulse	0	t		57.0	2.5	/experiments/knapen_AOT/AOT_stimuli/rescaled_final/2086_fw.mp4	0.0	300.6159071922302	
59	263.47246384620667	movie	1		245	57.0	2.5	/experiments/knapen_AOT/AOT_stimuli/rescaled_final/2086_fw.mp4	0.0	301.03231501579285	2.500411033630371
59	264.65627694129944	pulse	1	t		57.0	2.5	/experiments/knapen_AOT/AOT_stimuli/rescaled_final/2086_fw.mp4	0.0	302.2161281108856	
59	265.97287487983704	fix_post	2		12	57.0	2.5	/experiments/knapen_AOT/AOT_stimuli/rescaled_final/2086_fw.mp4	0.0	303.5327260494232	0.09999704360961914
60	266.07287192344666	fix_pre	0		120	58.0	2.5	/experiments/knapen_AOT/AOT_stimuli/rescaled_final/0382_fw.mp4	0.0	303.63272309303284	1.0001499652862549
60	266.25638484954834	pulse	0	t		58.0	2.5	/experiments/knapen_AOT/AOT_stimuli/rescaled_final/0382_fw.mp4	0.0	303.8162360191345	
60	267.0730218887329	movie	1		253	58.0	2.5	/experiments/knapen_AOT/AOT_stimuli/rescaled_final/0382_fw.mp4	0.0	304.6328730583191	2.500347137451172
60	267.85665798187256	pulse	1	t		58.0	2.5	/experiments/knapen_AOT/AOT_stimuli/rescaled_final/0382_fw.mp4	0.0	305.41650915145874	
60	269.4570128917694	pulse	1	t		58.0	2.5	/experiments/knapen_AOT/AOT_stimuli/rescaled_final/0382_fw.mp4	0.0	307.0168640613556	
60	269.5733690261841	fix_post	2		12	58.0	2.5	/experiments/knapen_AOT/AOT_stimuli/rescaled_final/0382_fw.mp4	0.0	307.13322019577026	0.10001587867736816
61	269.67338490486145	fix_pre	0		120	59.0	2.5	/experiments/knapen_AOT/AOT_stimuli/rescaled_final/1164_rv.mp4	0.0	307.23323607444763	1.0001590251922607
61	270.6735439300537	movie	1		248	59.0	2.5	/experiments/knapen_AOT/AOT_stimuli/rescaled_final/1164_rv.mp4	0.0	308.2333950996399	2.4920270442962646
61	271.0616009235382	pulse	1	t		59.0	2.5	/experiments/knapen_AOT/AOT_stimuli/rescaled_final/1164_rv.mp4	0.0	308.6214520931244	
61	272.6573808193207	pulse	1	t		59.0	2.5	/experiments/knapen_AOT/AOT_stimuli/rescaled_final/1164_rv.mp4	0.0	310.21723198890686	
61	273.16557097435	fix_post	2		12	59.0	2.5	/experiments/knapen_AOT/AOT_stimuli/rescaled_final/1164_rv.mp4	0.0	310.72542214393616	0.1000058650970459
62	273.265576839447	fix_pre	0		120	60.0	2.5	/experiments/knapen_AOT/AOT_stimuli/rescaled_final/0080_fw.mp4	0.0	310.8254280090332	1.0001630783081055
62	274.25753903388977	pulse	0	t		60.0	2.5	/experiments/knapen_AOT/AOT_stimuli/rescaled_final/0080_fw.mp4	0.0	311.81739020347595	
62	274.2657399177551	movie	1		255	60.0	2.5	/experiments/knapen_AOT/AOT_stimuli/rescaled_final/0080_fw.mp4	0.0	311.8255910873413	2.5086920261383057
62	275.85895800590515	pulse	1	t		60.0	2.5	/experiments/knapen_AOT/AOT_stimuli/rescaled_final/0080_fw.mp4	0.0	313.41880917549133	
62	276.77443194389343	fix_post	2		12	60.0	2.5	/experiments/knapen_AOT/AOT_stimuli/rescaled_final/0080_fw.mp4	0.0	314.3342831134796	0.10002589225769043
63	276.8744578361511	fix_pre	0		120	61.0	2.5	/experiments/knapen_AOT/AOT_stimuli/rescaled_final/0926_rv.mp4	0.0	314.4343090057373	1.0001552104949951
63	277.4582169055939	pulse	0	t		61.0	2.5	/experiments/knapen_AOT/AOT_stimuli/rescaled_final/0926_rv.mp4	0.0	315.01806807518005	
63	277.8746130466461	movie	1		245	61.0	2.5	/experiments/knapen_AOT/AOT_stimuli/rescaled_final/0926_rv.mp4	0.0	315.4344642162323	2.5003697872161865
63	279.0584888458252	pulse	1	t		61.0	2.5	/experiments/knapen_AOT/AOT_stimuli/rescaled_final/0926_rv.mp4	0.0	316.6183400154114	
63	280.3749828338623	fix_post	2		12	61.0	2.5	/experiments/knapen_AOT/AOT_stimuli/rescaled_final/0926_rv.mp4	0.0	317.9348340034485	0.10004401206970215
64	280.475026845932	fix_pre	0		120	62.0	2.5	blank	1.0	318.0348780155182	1.000150203704834
64	280.6584930419922	pulse	0	t		62.0	2.5	blank	1.0	318.21834421157837	
64	281.47517704963684	movie	1		300	62.0	2.5	blank	1.0	319.035028219223	2.5003678798675537
64	282.25882387161255	pulse	1	t		62.0	2.5	blank	1.0	319.81867504119873	
64	283.85160303115845	pulse	1	t		62.0	2.5	blank	1.0	321.41145420074463	
64	283.9755449295044	fix_post	2		12	62.0	2.5	blank	1.0	321.5353960990906	0.0999751091003418
65	284.07552003860474	fix_pre	0		119	63.0	2.5	/experiments/knapen_AOT/AOT_stimuli/rescaled_final/1100_fw.mp4	0.0	321.6353712081909	0.9918289184570312
65	285.06734895706177	movie	1		244	63.0	2.5	/experiments/knapen_AOT/AOT_stimuli/rescaled_final/1100_fw.mp4	0.0	322.62720012664795	2.500372886657715
65	285.4594600200653	pulse	1	t		63.0	2.5	/experiments/knapen_AOT/AOT_stimuli/rescaled_final/1100_fw.mp4	0.0	323.0193111896515	
65	287.05219888687134	pulse	1	t		63.0	2.5	/experiments/knapen_AOT/AOT_stimuli/rescaled_final/1100_fw.mp4	0.0	324.6120500564575	
65	287.5677218437195	fix_post	2		12	63.0	2.5	/experiments/knapen_AOT/AOT_stimuli/rescaled_final/1100_fw.mp4	0.0	325.12757301330566	0.10000801086425781
66	287.66772985458374	fix_pre	0		120	64.0	2.5	/experiments/knapen_AOT/AOT_stimuli/rescaled_final/0208_fw.mp4	0.0	325.2275810241699	1.0002071857452393
66	288.65220284461975	pulse	0	t		64.0	2.5	/experiments/knapen_AOT/AOT_stimuli/rescaled_final/0208_fw.mp4	0.0	326.21205401420593	
66	288.667937040329	movie	1		246	64.0	2.5	/experiments/knapen_AOT/AOT_stimuli/rescaled_final/0208_fw.mp4	0.0	326.22778820991516	2.5086679458618164
66	290.2517650127411	pulse	1	t		64.0	2.5	/experiments/knapen_AOT/AOT_stimuli/rescaled_final/0208_fw.mp4	0.0	327.81161618232727	
66	291.1766049861908	fix_post	2		12	64.0	2.5	/experiments/knapen_AOT/AOT_stimuli/rescaled_final/0208_fw.mp4	0.0	328.736456155777	0.10000491142272949
67	291.2766098976135	fix_pre	0		120	65.0	2.5	/experiments/knapen_AOT/AOT_stimuli/rescaled_final/0059_fw.mp4	0.0	328.8364610671997	1.0001461505889893
67	291.85183596611023	pulse	0	t		65.0	2.5	/experiments/knapen_AOT/AOT_stimuli/rescaled_final/0059_fw.mp4	0.0	329.4116871356964	
67	292.2767560482025	movie	1		244	65.0	2.5	/experiments/knapen_AOT/AOT_stimuli/rescaled_final/0059_fw.mp4	0.0	329.8366072177887	2.5003838539123535
67	293.45337104797363	pulse	1	t		65.0	2.5	/experiments/knapen_AOT/AOT_stimuli/rescaled_final/0059_fw.mp4	0.0	331.0132222175598	
67	294.77713990211487	fix_post	2		12	65.0	2.5	/experiments/knapen_AOT/AOT_stimuli/rescaled_final/0059_fw.mp4	0.0	332.33699107170105	0.1000361442565918
68	294.87717604637146	fix_pre	0		120	66.0	2.5	/experiments/knapen_AOT/AOT_stimuli/rescaled_final/0656_rv.mp4	0.0	332.43702721595764	1.0001428127288818
68	295.0524079799652	pulse	0	t		66.0	2.5	/experiments/knapen_AOT/AOT_stimuli/rescaled_final/0656_rv.mp4	0.0	332.6122591495514	
68	295.87731885910034	movie	1		245	66.0	2.5	/experiments/knapen_AOT/AOT_stimuli/rescaled_final/0656_rv.mp4	0.0	333.4371700286865	2.5003230571746826
68	296.6526370048523	pulse	1	t		66.0	2.5	/experiments/knapen_AOT/AOT_stimuli/rescaled_final/0656_rv.mp4	0.0	334.2124881744385	
68	298.2529728412628	pulse	1	t		66.0	2.5	/experiments/knapen_AOT/AOT_stimuli/rescaled_final/0656_rv.mp4	0.0	335.812824010849	
68	298.377641916275	fix_post	2		12	66.0	2.5	/experiments/knapen_AOT/AOT_stimuli/rescaled_final/0656_rv.mp4	0.0	335.9374930858612	0.1000359058380127
69	298.47767782211304	fix_pre	0		119	67.0	2.5	/experiments/knapen_AOT/AOT_stimuli/rescaled_final/1139_fw.mp4	0.0	336.0375289916992	0.9918920993804932
69	299.46956992149353	movie	1		245	67.0	2.5	/experiments/knapen_AOT/AOT_stimuli/rescaled_final/1139_fw.mp4	0.0	337.0294210910797	2.5003280639648438
69	299.85352301597595	pulse	1	t		67.0	2.5	/experiments/knapen_AOT/AOT_stimuli/rescaled_final/1139_fw.mp4	0.0	337.41337418556213	
69	301.45337295532227	pulse	1	t		67.0	2.5	/experiments/knapen_AOT/AOT_stimuli/rescaled_final/1139_fw.mp4	0.0	339.01322412490845	
69	301.9698979854584	fix_post	2		12	67.0	2.5	/experiments/knapen_AOT/AOT_stimuli/rescaled_final/1139_fw.mp4	0.0	339.52974915504456	0.09999799728393555
70	302.0698959827423	fix_pre	0		119	68.0	2.5	blank	1.0	339.6297471523285	0.9918160438537598
70	303.05350399017334	pulse	0	t		68.0	2.5	blank	1.0	340.6133551597595	
70	303.06171202659607	movie	1		301	68.0	2.5	blank	1.0	340.62156319618225	2.5087900161743164
70	304.65383982658386	pulse	1	t		68.0	2.5	blank	1.0	342.21369099617004	
70	305.5705020427704	fix_post	2		12	68.0	2.5	blank	1.0	343.13035321235657	0.0998849868774414
71	305.6703870296478	fix_pre	0		120	69.0	2.5	/experiments/knapen_AOT/AOT_stimuli/rescaled_final/0646_rv.mp4	0.0	343.230238199234	1.000175952911377
71	306.25409483909607	pulse	0	t		69.0	2.5	/experiments/knapen_AOT/AOT_stimuli/rescaled_final/0646_rv.mp4	0.0	343.81394600868225	
71	306.6705629825592	movie	1		245	69.0	2.5	/experiments/knapen_AOT/AOT_stimuli/rescaled_final/0646_rv.mp4	0.0	344.2304141521454	2.5003700256347656
71	307.85438084602356	pulse	1	t		69.0	2.5	/experiments/knapen_AOT/AOT_stimuli/rescaled_final/0646_rv.mp4	0.0	345.41423201560974	
71	309.17093300819397	fix_post	2		12	69.0	2.5	/experiments/knapen_AOT/AOT_stimuli/rescaled_final/0646_rv.mp4	0.0	346.73078417778015	0.10004281997680664
72	309.2709758281708	fix_pre	0		120	70.0	2.5	/experiments/knapen_AOT/AOT_stimuli/rescaled_final/1081_rv.mp4	0.0	346.83082699775696	1.0000970363616943
72	309.4544758796692	pulse	0	t		70.0	2.5	/experiments/knapen_AOT/AOT_stimuli/rescaled_final/1081_rv.mp4	0.0	347.01432704925537	
72	310.27107286453247	movie	1		246	70.0	2.5	/experiments/knapen_AOT/AOT_stimuli/rescaled_final/1081_rv.mp4	0.0	347.83092403411865	2.500404119491577
72	311.05478596687317	pulse	1	t		70.0	2.5	/experiments/knapen_AOT/AOT_stimuli/rescaled_final/1081_rv.mp4	0.0	348.61463713645935	
72	312.6549918651581	pulse	1	t		70.0	2.5	/experiments/knapen_AOT/AOT_stimuli/rescaled_final/1081_rv.mp4	0.0	350.21484303474426	
72	312.77147698402405	fix_post	2		12	70.0	2.5	/experiments/knapen_AOT/AOT_stimuli/rescaled_final/1081_rv.mp4	0.0	350.33132815361023	0.09999895095825195
73	312.8714759349823	fix_pre	0		119	71.0	2.5	/experiments/knapen_AOT/AOT_stimuli/rescaled_final/1027_rv.mp4	0.0	350.4313271045685	0.9918270111083984
73	313.8633029460907	movie	1		246	71.0	2.5	/experiments/knapen_AOT/AOT_stimuli/rescaled_final/1027_rv.mp4	0.0	351.4231541156769	2.5003490447998047
73	314.2553369998932	pulse	1	t		71.0	2.5	/experiments/knapen_AOT/AOT_stimuli/rescaled_final/1027_rv.mp4	0.0	351.81518816947937	
73	315.85548400878906	pulse	1	t		71.0	2.5	/experiments/knapen_AOT/AOT_stimuli/rescaled_final/1027_rv.mp4	0.0	353.41533517837524	
73	316.3636519908905	fix_post	2		12	71.0	2.5	/experiments/knapen_AOT/AOT_stimuli/rescaled_final/1027_rv.mp4	0.0	353.9235031604767	0.10007286071777344
74	316.4637248516083	fix_pre	0		120	72.0	2.5	/experiments/knapen_AOT/AOT_stimuli/rescaled_final/1074_rv.mp4	0.0	354.02357602119446	1.0001411437988281
74	317.4557180404663	pulse	0	t		72.0	2.5	/experiments/knapen_AOT/AOT_stimuli/rescaled_final/1074_rv.mp4	0.0	355.0155692100525	
74	317.4638659954071	movie	1		245	72.0	2.5	/experiments/knapen_AOT/AOT_stimuli/rescaled_final/1074_rv.mp4	0.0	355.0237171649933	2.5086569786071777
74	319.05659198760986	pulse	1	t		72.0	2.5	/experiments/knapen_AOT/AOT_stimuli/rescaled_final/1074_rv.mp4	0.0	356.61644315719604	
74	319.9725229740143	fix_post	2		12	72.0	2.5	/experiments/knapen_AOT/AOT_stimuli/rescaled_final/1074_rv.mp4	0.0	357.53237414360046	0.09998798370361328
75	320.0725109577179	fix_pre	0		120	73.0	2.5	/experiments/knapen_AOT/AOT_stimuli/rescaled_final/1779_fw.mp4	0.0	357.6323621273041	1.000243902206421
75	320.65625190734863	pulse	0	t		73.0	2.5	/experiments/knapen_AOT/AOT_stimuli/rescaled_final/1779_fw.mp4	0.0	358.2161030769348	
75	321.0727548599243	movie	1		245	73.0	2.5	/experiments/knapen_AOT/AOT_stimuli/rescaled_final/1779_fw.mp4	0.0	358.6326060295105	2.500298023223877
75	322.2565829753876	pulse	1	t		73.0	2.5	/experiments/knapen_AOT/AOT_stimuli/rescaled_final/1779_fw.mp4	0.0	359.81643414497375	
75	323.5730528831482	fix_post	2		12	73.0	2.5	/experiments/knapen_AOT/AOT_stimuli/rescaled_final/1779_fw.mp4	0.0	361.1329040527344	0.10012102127075195
76	323.67317390441895	fix_pre	0		120	74.0	2.5	/experiments/knapen_AOT/AOT_stimuli/rescaled_final/1475_fw.mp4	0.0	361.2330250740051	1.0000810623168945
76	323.8566269874573	pulse	0	t		74.0	2.5	/experiments/knapen_AOT/AOT_stimuli/rescaled_final/1475_fw.mp4	0.0	361.41647815704346	
76	324.67325496673584	movie	1		245	74.0	2.5	/experiments/knapen_AOT/AOT_stimuli/rescaled_final/1475_fw.mp4	0.0	362.233106136322	2.500432014465332
76	325.4569149017334	pulse	1	t		74.0	2.5	/experiments/knapen_AOT/AOT_stimuli/rescaled_final/1475_fw.mp4	0.0	363.0167660713196	
76	327.0545928478241	pulse	1	t		74.0	2.5	/experiments/knapen_AOT/AOT_stimuli/rescaled_final/1475_fw.mp4	0.0	364.6144440174103	
76	327.1736869812012	fix_post	2		12	74.0	2.5	/experiments/knapen_AOT/AOT_stimuli/rescaled_final/1475_fw.mp4	0.0	364.73353815078735	0.10000801086425781
77	327.27369499206543	fix_pre	0		120	75.0	2.5	/experiments/knapen_AOT/AOT_stimuli/rescaled_final/1748_rv.mp4	0.0	364.8335461616516	1.000133991241455
77	328.2738289833069	movie	1		243	75.0	2.5	/experiments/knapen_AOT/AOT_stimuli/rescaled_final/1748_rv.mp4	0.0	365.83368015289307	2.491994857788086
77	328.662654876709	pulse	1	t		75.0	2.5	/experiments/knapen_AOT/AOT_stimuli/rescaled_final/1748_rv.mp4	0.0	366.22250604629517	
77	330.2576549053192	pulse	1	t		75.0	2.5	/experiments/knapen_AOT/AOT_stimuli/rescaled_final/1748_rv.mp4	0.0	367.8175060749054	
77	330.76582384109497	fix_post	2		12	75.0	2.5	/experiments/knapen_AOT/AOT_stimuli/rescaled_final/1748_rv.mp4	0.0	368.32567501068115	0.10004806518554688
78	330.8658719062805	fix_pre	0		120	76.0	2.5	blank	1.0	368.4257230758667	1.0001440048217773
78	331.8578848838806	pulse	0	t		76.0	2.5	blank	1.0	369.4177360534668	
78	331.8660159111023	movie	1		301	76.0	2.5	blank	1.0	369.4258670806885	2.5087389945983887
78	333.4580760002136	pulse	1	t		76.0	2.5	blank	1.0	371.0179271697998	
78	334.3747549057007	fix_post	2		12	76.0	2.5	blank	1.0	371.93460607528687	0.09998703002929688
79	334.47474193573	fix_pre	0		120	77.0	2.5	/experiments/knapen_AOT/AOT_stimuli/rescaled_final/1292_fw.mp4	0.0	372.03459310531616	1.000143051147461
79	335.0583610534668	pulse	0	t		77.0	2.5	/experiments/knapen_AOT/AOT_stimuli/rescaled_final/1292_fw.mp4	0.0	372.618212223053	
79	335.47488498687744	movie	1		242	77.0	2.5	/experiments/knapen_AOT/AOT_stimuli/rescaled_final/1292_fw.mp4	0.0	373.0347361564636	2.500347852706909
79	336.6586730480194	pulse	1	t		77.0	2.5	/experiments/knapen_AOT/AOT_stimuli/rescaled_final/1292_fw.mp4	0.0	374.2185242176056	
79	337.97523283958435	fix_post	2		12	77.0	2.5	/experiments/knapen_AOT/AOT_stimuli/rescaled_final/1292_fw.mp4	0.0	375.53508400917053	0.1000361442565918
80	338.07526898384094	fix_pre	0		120	78.0	2.5	/experiments/knapen_AOT/AOT_stimuli/rescaled_final/1901_rv.mp4	0.0	375.6351201534271	1.000133991241455
80	338.25892090797424	pulse	0	t		78.0	2.5	/experiments/knapen_AOT/AOT_stimuli/rescaled_final/1901_rv.mp4	0.0	375.8187720775604	
80	339.0754029750824	movie	1		246	78.0	2.5	/experiments/knapen_AOT/AOT_stimuli/rescaled_final/1901_rv.mp4	0.0	376.6352541446686	2.5003750324249268
80	339.85915088653564	pulse	1	t		78.0	2.5	/experiments/knapen_AOT/AOT_stimuli/rescaled_final/1901_rv.mp4	0.0	377.4190020561218	
80	341.45935702323914	pulse	1	t		78.0	2.5	/experiments/knapen_AOT/AOT_stimuli/rescaled_final/1901_rv.mp4	0.0	379.0192081928253	
80	341.5757780075073	fix_post	2		12	78.0	2.5	/experiments/knapen_AOT/AOT_stimuli/rescaled_final/1901_rv.mp4	0.0	379.1356291770935	0.10007190704345703
81	341.6758499145508	fix_pre	0		120	79.0	2.5	/experiments/knapen_AOT/AOT_stimuli/rescaled_final/2155_rv.mp4	0.0	379.23570108413696	1.000101089477539
81	342.6759510040283	movie	1		245	79.0	2.5	/experiments/knapen_AOT/AOT_stimuli/rescaled_final/2155_rv.mp4	0.0	380.2358021736145	2.4920079708099365
81	343.0601189136505	pulse	1	t		79.0	2.5	/experiments/knapen_AOT/AOT_stimuli/rescaled_final/2155_rv.mp4	0.0	380.6199700832367	
81	344.65250301361084	pulse	1	t		79.0	2.5	/experiments/knapen_AOT/AOT_stimuli/rescaled_final/2155_rv.mp4	0.0	382.212354183197	
81	345.16795897483826	fix_post	2		12	79.0	2.5	/experiments/knapen_AOT/AOT_stimuli/rescaled_final/2155_rv.mp4	0.0	382.72781014442444	0.10005497932434082
82	345.2680139541626	fix_pre	0		120	80.0	2.5	/experiments/knapen_AOT/AOT_stimuli/rescaled_final/0499_fw.mp4	0.0	382.8278651237488	1.0001370906829834
82	346.25246000289917	pulse	0	t		80.0	2.5	/experiments/knapen_AOT/AOT_stimuli/rescaled_final/0499_fw.mp4	0.0	383.81231117248535	
82	346.2681510448456	movie	1		247	80.0	2.5	/experiments/knapen_AOT/AOT_stimuli/rescaled_final/0499_fw.mp4	0.0	383.82800221443176	2.50874400138855
82	347.8609058856964	pulse	1	t		80.0	2.5	/experiments/knapen_AOT/AOT_stimuli/rescaled_final/0499_fw.mp4	0.0	385.4207570552826	
82	348.77689504623413	fix_post	2		12	80.0	2.5	/experiments/knapen_AOT/AOT_stimuli/rescaled_final/0499_fw.mp4	0.0	386.3367462158203	0.09997797012329102
83	348.8768730163574	fix_pre	0		120	81.0	2.5	/experiments/knapen_AOT/AOT_stimuli/rescaled_final/1779_fw.mp4	0.0	386.4367241859436	1.0001440048217773
83	349.45291900634766	pulse	0	t		81.0	2.5	/experiments/knapen_AOT/AOT_stimuli/rescaled_final/1779_fw.mp4	0.0	387.01277017593384	
83	349.8770170211792	movie	1		245	81.0	2.5	/experiments/knapen_AOT/AOT_stimuli/rescaled_final/1779_fw.mp4	0.0	387.4368681907654	2.500389814376831
83	351.05295395851135	pulse	1	t		81.0	2.5	/experiments/knapen_AOT/AOT_stimuli/rescaled_final/1779_fw.mp4	0.0	388.61280512809753	
83	352.37740683555603	fix_post	2		12	81.0	2.5	/experiments/knapen_AOT/AOT_stimuli/rescaled_final/1779_fw.mp4	0.0	389.9372580051422	0.10000205039978027
84	352.4774088859558	fix_pre	0		120	82.0	2.5	blank	1.0	390.037260055542	1.000143051147461
84	352.6525819301605	pulse	0	t		82.0	2.5	blank	1.0	390.2124330997467	
84	353.47755193710327	movie	1		300	82.0	2.5	blank	1.0	391.03740310668945	2.5003979206085205
84	354.25284004211426	pulse	1	t		82.0	2.5	blank	1.0	391.81269121170044	
84	355.853257894516	pulse	1	t		82.0	2.5	blank	1.0	393.4131090641022	
84	355.9779498577118	fix_post	2		12	82.0	2.5	blank	1.0	393.537801027298	0.09998416900634766
85	356.07793402671814	fix_pre	0		120	83.0	2.5	/experiments/knapen_AOT/AOT_stimuli/rescaled_final/1551_rv.mp4	0.0	393.6377851963043	1.000140905380249
85	357.0780749320984	movie	1		245	83.0	2.5	/experiments/knapen_AOT/AOT_stimuli/rescaled_final/1551_rv.mp4	0.0	394.63792610168457	2.4920289516448975
85	357.4533460140228	pulse	1	t		83.0	2.5	/experiments/knapen_AOT/AOT_stimuli/rescaled_final/1551_rv.mp4	0.0	395.013197183609	
85	359.05368185043335	pulse	1	t		83.0	2.5	/experiments/knapen_AOT/AOT_stimuli/rescaled_final/1551_rv.mp4	0.0	396.61353302001953	
85	359.5701038837433	fix_post	2		12	83.0	2.5	/experiments/knapen_AOT/AOT_stimuli/rescaled_final/1551_rv.mp4	0.0	397.12995505332947	0.10010695457458496
87	359.67021083831787	stim	0		1716					397.23006200790405	14.302123069763184
87	360.65384888648987	pulse	0	t						398.21370005607605	
87	362.25411200523376	pulse	0	t						399.81396317481995	
87	363.8542740345001	pulse	0	t						401.4141252040863	
87	365.4545199871063	pulse	0	t						403.0143711566925	
87	367.05483388900757	pulse	0	t						404.61468505859375	
87	368.6549708843231	pulse	0	t						406.2148220539093	
87	370.2553448677063	pulse	0	t						407.8151960372925	
87	371.85550594329834	pulse	0	t						409.4153571128845	
87	373.45579981803894	pulse	0	t						411.0156509876251	
