trial_nr	onset	event_type	phase	response	nr_frames	movie_index	movie_duration	movie_file	blank	onset_abs	duration
0	0.2083430290222168	stim	0		9					17.25261902809143	0.07506084442138672
0	0.27533793449401855	response	0	space						17.319613933563232	
1	0.2834038734436035	stim	0		4554					17.327679872512817	37.96781802177429
1	38.23630499839783	pulse	0	t						55.28058099746704	
1	38.251221895217896	stim	1		1715					55.29549789428711	14.298235177993774
1	39.831039905548096	pulse	1	t						56.87531590461731	
1	41.43134093284607	pulse	1	t						58.47561693191528	
1	43.031588077545166	pulse	1	t						60.07586407661438	
1	44.63176393508911	pulse	1	t						61.676039934158325	
1	46.2319278717041	pulse	1	t						63.276203870773315	
1	47.83222794532776	pulse	1	t						64.87650394439697	
1	49.432523012161255	pulse	1	t						66.47679901123047	
1	51.032718896865845	pulse	1	t						68.07699489593506	
2	52.54945707321167	fix_pre	0		11	0.0	2.5	/experiments/knapen_AOT/AOT_stimuli/rescaled_final/2154_fw.mp4	0.0	69.59373307228088	0.09167194366455078
2	52.63294196128845	pulse	0	t		0.0	2.5	/experiments/knapen_AOT/AOT_stimuli/rescaled_final/2154_fw.mp4	0.0	69.67721796035767	
2	52.64112901687622	movie	1		245	0.0	2.5	/experiments/knapen_AOT/AOT_stimuli/rescaled_final/2154_fw.mp4	0.0	69.68540501594543	2.5086469650268555
2	54.233803033828735	pulse	1	t		0.0	2.5	/experiments/knapen_AOT/AOT_stimuli/rescaled_final/2154_fw.mp4	0.0	71.27807903289795	
2	55.149775981903076	fix_post	2		12	0.0	2.5	/experiments/knapen_AOT/AOT_stimuli/rescaled_final/2154_fw.mp4	0.0	72.19405198097229	0.10002493858337402
3	55.24980092048645	fix_pre	0		120	1.0	2.5	/experiments/knapen_AOT/AOT_stimuli/rescaled_final/1272_fw.mp4	0.0	72.29407691955566	1.0001471042633057
3	55.8259539604187	pulse	0	t		1.0	2.5	/experiments/knapen_AOT/AOT_stimuli/rescaled_final/1272_fw.mp4	0.0	72.87022995948792	
3	56.249948024749756	movie	1		244	1.0	2.5	/experiments/knapen_AOT/AOT_stimuli/rescaled_final/1272_fw.mp4	0.0	73.29422402381897	2.5003819465637207
3	57.43375897407532	pulse	1	t		1.0	2.5	/experiments/knapen_AOT/AOT_stimuli/rescaled_final/1272_fw.mp4	0.0	74.47803497314453	
3	58.75032997131348	fix_post	2		12	1.0	2.5	/experiments/knapen_AOT/AOT_stimuli/rescaled_final/1272_fw.mp4	0.0	75.79460597038269	0.10003805160522461
4	58.8503680229187	fix_pre	0		120	2.0	2.5	/experiments/knapen_AOT/AOT_stimuli/rescaled_final/1083_rv.mp4	0.0	75.89464402198792	1.0001540184020996
4	59.02647805213928	pulse	0	t		2.0	2.5	/experiments/knapen_AOT/AOT_stimuli/rescaled_final/1083_rv.mp4	0.0	76.0707540512085	
4	59.8505220413208	movie	1		243	2.0	2.5	/experiments/knapen_AOT/AOT_stimuli/rescaled_final/1083_rv.mp4	0.0	76.89479804039001	2.500537872314453
4	60.62662887573242	pulse	1	t		2.0	2.5	/experiments/knapen_AOT/AOT_stimuli/rescaled_final/1083_rv.mp4	0.0	77.67090487480164	
4	62.22608494758606	pulse	1	t		2.0	2.5	/experiments/knapen_AOT/AOT_stimuli/rescaled_final/1083_rv.mp4	0.0	79.27036094665527	
4	62.351059913635254	fix_post	2		12	2.0	2.5	/experiments/knapen_AOT/AOT_stimuli/rescaled_final/1083_rv.mp4	0.0	79.39533591270447	0.09982705116271973
5	62.450886964797974	fix_pre	0		119	3.0	2.5	/experiments/knapen_AOT/AOT_stimuli/rescaled_final/0194_rv.mp4	0.0	79.49516296386719	0.9917960166931152
5	63.44268298149109	movie	1		246	3.0	2.5	/experiments/knapen_AOT/AOT_stimuli/rescaled_final/0194_rv.mp4	0.0	80.4869589805603	2.500382900238037
5	63.82680797576904	pulse	1	t		3.0	2.5	/experiments/knapen_AOT/AOT_stimuli/rescaled_final/0194_rv.mp4	0.0	80.87108397483826	
5	65.42650508880615	pulse	1	t		3.0	2.5	/experiments/knapen_AOT/AOT_stimuli/rescaled_final/0194_rv.mp4	0.0	82.47078108787537	
5	65.94306588172913	fix_post	2		12	3.0	2.5	/experiments/knapen_AOT/AOT_stimuli/rescaled_final/0194_rv.mp4	0.0	82.98734188079834	0.10006999969482422
6	66.04313588142395	fix_pre	0		119	4.0	2.5	/experiments/knapen_AOT/AOT_stimuli/rescaled_final/1723_fw.mp4	0.0	83.08741188049316	0.9918560981750488
6	67.02674388885498	pulse	0	t		4.0	2.5	/experiments/knapen_AOT/AOT_stimuli/rescaled_final/1723_fw.mp4	0.0	84.0710198879242	
6	67.034991979599	movie	1		243	4.0	2.5	/experiments/knapen_AOT/AOT_stimuli/rescaled_final/1723_fw.mp4	0.0	84.07926797866821	2.5085999965667725
6	68.62773990631104	pulse	1	t		4.0	2.5	/experiments/knapen_AOT/AOT_stimuli/rescaled_final/1723_fw.mp4	0.0	85.67201590538025	
6	69.54359197616577	fix_post	2		12	4.0	2.5	/experiments/knapen_AOT/AOT_stimuli/rescaled_final/1723_fw.mp4	0.0	86.58786797523499	0.10005712509155273
7	69.64364910125732	fix_pre	0		120	5.0	2.5	/experiments/knapen_AOT/AOT_stimuli/rescaled_final/1613_fw.mp4	0.0	86.68792510032654	1.000119924545288
7	70.22731494903564	pulse	0	t		5.0	2.5	/experiments/knapen_AOT/AOT_stimuli/rescaled_final/1613_fw.mp4	0.0	87.27159094810486	
7	70.64376902580261	movie	1		243	5.0	2.5	/experiments/knapen_AOT/AOT_stimuli/rescaled_final/1613_fw.mp4	0.0	87.68804502487183	2.5005099773406982
7	71.82755398750305	pulse	1	t		5.0	2.5	/experiments/knapen_AOT/AOT_stimuli/rescaled_final/1613_fw.mp4	0.0	88.87182998657227	
7	73.14427900314331	fix_post	2		12	5.0	2.5	/experiments/knapen_AOT/AOT_stimuli/rescaled_final/1613_fw.mp4	0.0	90.18855500221252	0.09986495971679688
8	73.24414396286011	fix_pre	0		120	6.0	2.5	/experiments/knapen_AOT/AOT_stimuli/rescaled_final/0048_rv.mp4	0.0	90.28841996192932	1.0001840591430664
8	73.42767310142517	pulse	0	t		6.0	2.5	/experiments/knapen_AOT/AOT_stimuli/rescaled_final/0048_rv.mp4	0.0	90.47194910049438	
8	74.24432802200317	movie	1		243	6.0	2.5	/experiments/knapen_AOT/AOT_stimuli/rescaled_final/0048_rv.mp4	0.0	91.28860402107239	2.500351905822754
8	75.02792406082153	pulse	1	t		6.0	2.5	/experiments/knapen_AOT/AOT_stimuli/rescaled_final/0048_rv.mp4	0.0	92.07220005989075	
8	76.6280779838562	pulse	1	t		6.0	2.5	/experiments/knapen_AOT/AOT_stimuli/rescaled_final/0048_rv.mp4	0.0	93.67235398292542	
8	76.74467992782593	fix_post	2		12	6.0	2.5	/experiments/knapen_AOT/AOT_stimuli/rescaled_final/0048_rv.mp4	0.0	93.78895592689514	0.10005617141723633
9	76.84473609924316	fix_pre	0		119	7.0	2.5	blank	1.0	93.88901209831238	0.9917848110198975
9	77.83652091026306	movie	1		300	7.0	2.5	blank	1.0	94.88079690933228	2.500447988510132
9	78.22854089736938	pulse	1	t		7.0	2.5	blank	1.0	95.2728168964386	
9	79.82873106002808	pulse	1	t		7.0	2.5	blank	1.0	96.87300705909729	
9	80.3369688987732	fix_post	2		12	7.0	2.5	blank	1.0	97.38124489784241	0.09998106956481934
10	80.43694996833801	fix_pre	0		120	8.0	2.5	/experiments/knapen_AOT/AOT_stimuli/rescaled_final/0488_rv.mp4	0.0	97.48122596740723	1.0001449584960938
10	81.42885708808899	pulse	0	t		8.0	2.5	/experiments/knapen_AOT/AOT_stimuli/rescaled_final/0488_rv.mp4	0.0	98.4731330871582	
10	81.4370949268341	movie	1		244	8.0	2.5	/experiments/knapen_AOT/AOT_stimuli/rescaled_final/0488_rv.mp4	0.0	98.48137092590332	2.5086560249328613
10	83.02970910072327	pulse	1	t		8.0	2.5	/experiments/knapen_AOT/AOT_stimuli/rescaled_final/0488_rv.mp4	0.0	100.07398509979248	
10	83.94575095176697	fix_post	2		12	8.0	2.5	/experiments/knapen_AOT/AOT_stimuli/rescaled_final/0488_rv.mp4	0.0	100.99002695083618	0.100006103515625
11	84.04575705528259	fix_pre	0		120	9.0	2.5	/experiments/knapen_AOT/AOT_stimuli/rescaled_final/1116_rv.mp4	0.0	101.0900330543518	1.0002169609069824
11	84.62944006919861	pulse	0	t		9.0	2.5	/experiments/knapen_AOT/AOT_stimuli/rescaled_final/1116_rv.mp4	0.0	101.67371606826782	
11	85.04597401618958	movie	1		242	9.0	2.5	/experiments/knapen_AOT/AOT_stimuli/rescaled_final/1116_rv.mp4	0.0	102.09025001525879	2.5004019737243652
11	86.22988200187683	pulse	1	t		9.0	2.5	/experiments/knapen_AOT/AOT_stimuli/rescaled_final/1116_rv.mp4	0.0	103.27415800094604	
11	87.54637598991394	fix_post	2		12	9.0	2.5	/experiments/knapen_AOT/AOT_stimuli/rescaled_final/1116_rv.mp4	0.0	104.59065198898315	0.09994006156921387
12	87.64631605148315	fix_pre	0		120	10.0	2.5	/experiments/knapen_AOT/AOT_stimuli/rescaled_final/2160_rv.mp4	0.0	104.69059205055237	1.0001599788665771
12	87.82983803749084	pulse	0	t		10.0	2.5	/experiments/knapen_AOT/AOT_stimuli/rescaled_final/2160_rv.mp4	0.0	104.87411403656006	
12	88.64647603034973	movie	1		244	10.0	2.5	/experiments/knapen_AOT/AOT_stimuli/rescaled_final/2160_rv.mp4	0.0	105.69075202941895	2.5003769397735596
12	89.43013787269592	pulse	1	t		10.0	2.5	/experiments/knapen_AOT/AOT_stimuli/rescaled_final/2160_rv.mp4	0.0	106.47441387176514	
12	91.03031206130981	pulse	1	t		10.0	2.5	/experiments/knapen_AOT/AOT_stimuli/rescaled_final/2160_rv.mp4	0.0	108.07458806037903	
12	91.14685297012329	fix_post	2		12	10.0	2.5	/experiments/knapen_AOT/AOT_stimuli/rescaled_final/2160_rv.mp4	0.0	108.1911289691925	0.0999760627746582
13	91.24682903289795	fix_pre	0		120	11.0	2.5	/experiments/knapen_AOT/AOT_stimuli/rescaled_final/1912_rv.mp4	0.0	108.29110503196716	1.0001769065856934
13	92.24700593948364	movie	1		244	11.0	2.5	/experiments/knapen_AOT/AOT_stimuli/rescaled_final/1912_rv.mp4	0.0	109.29128193855286	2.4921109676361084
13	92.63120794296265	pulse	1	t		11.0	2.5	/experiments/knapen_AOT/AOT_stimuli/rescaled_final/1912_rv.mp4	0.0	109.67548394203186	
13	94.23076796531677	pulse	1	t		11.0	2.5	/experiments/knapen_AOT/AOT_stimuli/rescaled_final/1912_rv.mp4	0.0	111.27504396438599	
13	94.73911690711975	fix_post	2		12	11.0	2.5	/experiments/knapen_AOT/AOT_stimuli/rescaled_final/1912_rv.mp4	0.0	111.78339290618896	0.0999751091003418
14	94.83909201622009	fix_pre	0		120	12.0	2.5	/experiments/knapen_AOT/AOT_stimuli/rescaled_final/2167_rv.mp4	0.0	111.8833680152893	1.0001029968261719
14	95.8310809135437	pulse	0	t		12.0	2.5	/experiments/knapen_AOT/AOT_stimuli/rescaled_final/2167_rv.mp4	0.0	112.87535691261292	
14	95.83919501304626	movie	1		243	12.0	2.5	/experiments/knapen_AOT/AOT_stimuli/rescaled_final/2167_rv.mp4	0.0	112.88347101211548	2.508781909942627
14	97.435800075531	pulse	1	t		12.0	2.5	/experiments/knapen_AOT/AOT_stimuli/rescaled_final/2167_rv.mp4	0.0	114.48007607460022	
14	98.34797692298889	fix_post	2		12	12.0	2.5	/experiments/knapen_AOT/AOT_stimuli/rescaled_final/2167_rv.mp4	0.0	115.3922529220581	0.09997415542602539
15	98.44795107841492	fix_pre	0		120	13.0	2.5	/experiments/knapen_AOT/AOT_stimuli/rescaled_final/1972_rv.mp4	0.0	115.49222707748413	1.0001778602600098
15	99.0316390991211	pulse	0	t		13.0	2.5	/experiments/knapen_AOT/AOT_stimuli/rescaled_final/1972_rv.mp4	0.0	116.07591509819031	
15	99.44812893867493	movie	1		244	13.0	2.5	/experiments/knapen_AOT/AOT_stimuli/rescaled_final/1972_rv.mp4	0.0	116.49240493774414	2.5003111362457275
15	100.63187098503113	pulse	1	t		13.0	2.5	/experiments/knapen_AOT/AOT_stimuli/rescaled_final/1972_rv.mp4	0.0	117.67614698410034	
15	101.94844007492065	fix_post	2		10	13.0	2.5	/experiments/knapen_AOT/AOT_stimuli/rescaled_final/1972_rv.mp4	0.0	118.99271607398987	0.10001587867736816
16	102.04845595359802	fix_pre	0		120	14.0	2.5	blank	1.0	119.09273195266724	1.0001521110534668
16	102.23202800750732	pulse	0	t		14.0	2.5	blank	1.0	119.27630400657654	
16	103.04860806465149	movie	1		300	14.0	2.5	blank	1.0	120.0928840637207	2.5003888607025146
16	103.83237290382385	pulse	1	t		14.0	2.5	blank	1.0	120.87664890289307	
16	105.43247890472412	pulse	1	t		14.0	2.5	blank	1.0	122.47675490379333	
16	105.548996925354	fix_post	2		12	14.0	2.5	blank	1.0	122.59327292442322	0.09996795654296875
17	105.64896488189697	fix_pre	0		120	15.0	2.5	/experiments/knapen_AOT/AOT_stimuli/rescaled_final/0284_fw.mp4	0.0	122.69324088096619	1.000209093093872
17	106.64917397499084	movie	1		241	15.0	2.5	/experiments/knapen_AOT/AOT_stimuli/rescaled_final/0284_fw.mp4	0.0	123.69344997406006	2.492060899734497
17	107.03331589698792	pulse	1	t		15.0	2.5	/experiments/knapen_AOT/AOT_stimuli/rescaled_final/0284_fw.mp4	0.0	124.07759189605713	
17	108.62568593025208	pulse	1	t		15.0	2.5	/experiments/knapen_AOT/AOT_stimuli/rescaled_final/0284_fw.mp4	0.0	125.66996192932129	
17	109.14123487472534	fix_post	2		12	15.0	2.5	/experiments/knapen_AOT/AOT_stimuli/rescaled_final/0284_fw.mp4	0.0	126.18551087379456	0.09994912147521973
18	109.24118399620056	fix_pre	0		120	16.0	2.5	/experiments/knapen_AOT/AOT_stimuli/rescaled_final/1344_rv.mp4	0.0	126.28545999526978	1.0001568794250488
18	110.2255790233612	pulse	0	t		16.0	2.5	/experiments/knapen_AOT/AOT_stimuli/rescaled_final/1344_rv.mp4	0.0	127.26985502243042	
18	110.24134087562561	movie	1		244	16.0	2.5	/experiments/knapen_AOT/AOT_stimuli/rescaled_final/1344_rv.mp4	0.0	127.28561687469482	2.5087292194366455
18	111.83791995048523	pulse	1	t		16.0	2.5	/experiments/knapen_AOT/AOT_stimuli/rescaled_final/1344_rv.mp4	0.0	128.88219594955444	
18	112.75007009506226	fix_post	2		12	16.0	2.5	/experiments/knapen_AOT/AOT_stimuli/rescaled_final/1344_rv.mp4	0.0	129.79434609413147	0.10003995895385742
19	112.85011005401611	fix_pre	0		120	17.0	2.5	/experiments/knapen_AOT/AOT_stimuli/rescaled_final/1162_fw.mp4	0.0	129.89438605308533	1.0001869201660156
19	113.42623400688171	pulse	0	t		17.0	2.5	/experiments/knapen_AOT/AOT_stimuli/rescaled_final/1162_fw.mp4	0.0	130.47051000595093	
19	113.85029697418213	movie	1		243	17.0	2.5	/experiments/knapen_AOT/AOT_stimuli/rescaled_final/1162_fw.mp4	0.0	130.89457297325134	2.5003459453582764
19	115.02626705169678	pulse	1	t		17.0	2.5	/experiments/knapen_AOT/AOT_stimuli/rescaled_final/1162_fw.mp4	0.0	132.070543050766	
19	116.3506429195404	fix_post	2		12	17.0	2.5	/experiments/knapen_AOT/AOT_stimuli/rescaled_final/1162_fw.mp4	0.0	133.39491891860962	0.09996414184570312
20	116.45060706138611	fix_pre	0		120	18.0	2.5	/experiments/knapen_AOT/AOT_stimuli/rescaled_final/0221_fw.mp4	0.0	133.49488306045532	1.000152826309204
20	116.62581706047058	pulse	0	t		18.0	2.5	/experiments/knapen_AOT/AOT_stimuli/rescaled_final/0221_fw.mp4	0.0	133.6700930595398	
20	117.45075988769531	movie	1		242	18.0	2.5	/experiments/knapen_AOT/AOT_stimuli/rescaled_final/0221_fw.mp4	0.0	134.49503588676453	2.5005571842193604
20	118.22603392601013	pulse	1	t		18.0	2.5	/experiments/knapen_AOT/AOT_stimuli/rescaled_final/0221_fw.mp4	0.0	135.27030992507935	
20	119.82634210586548	pulse	1	t		18.0	2.5	/experiments/knapen_AOT/AOT_stimuli/rescaled_final/0221_fw.mp4	0.0	136.8706181049347	
20	119.95131707191467	fix_post	2		12	18.0	2.5	/experiments/knapen_AOT/AOT_stimuli/rescaled_final/0221_fw.mp4	0.0	136.9955930709839	0.09985995292663574
21	120.05117702484131	fix_pre	0		120	19.0	2.5	blank	1.0	137.09545302391052	1.00010085105896
21	121.05127787590027	movie	1		299	19.0	2.5	blank	1.0	138.09555387496948	2.492051124572754
21	121.42659401893616	pulse	1	t		19.0	2.5	blank	1.0	138.47087001800537	
21	123.02672004699707	pulse	1	t		19.0	2.5	blank	1.0	140.07099604606628	
21	123.54332900047302	fix_post	2		12	19.0	2.5	blank	1.0	140.58760499954224	0.10013890266418457
22	123.6434679031372	fix_pre	0		119	20.0	2.5	/experiments/knapen_AOT/AOT_stimuli/rescaled_final/0745_rv.mp4	0.0	140.68774390220642	0.9918050765991211
22	124.62702798843384	pulse	0	t		20.0	2.5	/experiments/knapen_AOT/AOT_stimuli/rescaled_final/0745_rv.mp4	0.0	141.67130398750305	
22	124.63527297973633	movie	1		245	20.0	2.5	/experiments/knapen_AOT/AOT_stimuli/rescaled_final/0745_rv.mp4	0.0	141.67954897880554	2.5086069107055664
22	126.22794699668884	pulse	1	t		20.0	2.5	/experiments/knapen_AOT/AOT_stimuli/rescaled_final/0745_rv.mp4	0.0	143.27222299575806	
22	127.1438798904419	fix_post	2		12	20.0	2.5	/experiments/knapen_AOT/AOT_stimuli/rescaled_final/0745_rv.mp4	0.0	144.1881558895111	0.10000109672546387
23	127.24388098716736	fix_pre	0		120	21.0	2.5	/experiments/knapen_AOT/AOT_stimuli/rescaled_final/1602_rv.mp4	0.0	144.28815698623657	1.0001680850982666
23	127.82753109931946	pulse	0	t		21.0	2.5	/experiments/knapen_AOT/AOT_stimuli/rescaled_final/1602_rv.mp4	0.0	144.87180709838867	
23	128.24404907226562	movie	1		242	21.0	2.5	/experiments/knapen_AOT/AOT_stimuli/rescaled_final/1602_rv.mp4	0.0	145.28832507133484	2.5004918575286865
23	129.42777800559998	pulse	1	t		21.0	2.5	/experiments/knapen_AOT/AOT_stimuli/rescaled_final/1602_rv.mp4	0.0	146.4720540046692	
23	130.7445409297943	fix_post	2		12	21.0	2.5	/experiments/knapen_AOT/AOT_stimuli/rescaled_final/1602_rv.mp4	0.0	147.78881692886353	0.09992408752441406
24	130.84446501731873	fix_pre	0		120	22.0	2.5	/experiments/knapen_AOT/AOT_stimuli/rescaled_final/1966_rv.mp4	0.0	147.88874101638794	1.0000970363616943
24	131.02798199653625	pulse	0	t		22.0	2.5	/experiments/knapen_AOT/AOT_stimuli/rescaled_final/1966_rv.mp4	0.0	148.07225799560547	
24	131.84456205368042	movie	1		242	22.0	2.5	/experiments/knapen_AOT/AOT_stimuli/rescaled_final/1966_rv.mp4	0.0	148.88883805274963	2.5005059242248535
24	132.62822890281677	pulse	1	t		22.0	2.5	/experiments/knapen_AOT/AOT_stimuli/rescaled_final/1966_rv.mp4	0.0	149.672504901886	
24	134.22829389572144	pulse	1	t		22.0	2.5	/experiments/knapen_AOT/AOT_stimuli/rescaled_final/1966_rv.mp4	0.0	151.27256989479065	
24	134.34506797790527	fix_post	2		12	22.0	2.5	/experiments/knapen_AOT/AOT_stimuli/rescaled_final/1966_rv.mp4	0.0	151.3893439769745	0.09988689422607422
25	134.44495487213135	fix_pre	0		120	23.0	2.5	/experiments/knapen_AOT/AOT_stimuli/rescaled_final/2176_fw.mp4	0.0	151.48923087120056	1.000169038772583
25	135.44512391090393	movie	1		242	23.0	2.5	/experiments/knapen_AOT/AOT_stimuli/rescaled_final/2176_fw.mp4	0.0	152.48939990997314	2.4921841621398926
25	135.83313298225403	pulse	1	t		23.0	2.5	/experiments/knapen_AOT/AOT_stimuli/rescaled_final/2176_fw.mp4	0.0	152.87740898132324	
25	137.4288980960846	pulse	1	t		23.0	2.5	/experiments/knapen_AOT/AOT_stimuli/rescaled_final/2176_fw.mp4	0.0	154.4731740951538	
25	137.93730807304382	fix_post	2		12	23.0	2.5	/experiments/knapen_AOT/AOT_stimuli/rescaled_final/2176_fw.mp4	0.0	154.98158407211304	0.09986186027526855
26	138.0371699333191	fix_pre	0		120	24.0	2.5	/experiments/knapen_AOT/AOT_stimuli/rescaled_final/1094_rv.mp4	0.0	155.0814459323883	1.0001471042633057
26	139.02929091453552	pulse	0	t		24.0	2.5	/experiments/knapen_AOT/AOT_stimuli/rescaled_final/1094_rv.mp4	0.0	156.07356691360474	
26	139.0373170375824	movie	1		243	24.0	2.5	/experiments/knapen_AOT/AOT_stimuli/rescaled_final/1094_rv.mp4	0.0	156.0815930366516	2.5086829662323
26	140.62998294830322	pulse	1	t		24.0	2.5	/experiments/knapen_AOT/AOT_stimuli/rescaled_final/1094_rv.mp4	0.0	157.67425894737244	
26	141.5460000038147	fix_post	2		12	24.0	2.5	/experiments/knapen_AOT/AOT_stimuli/rescaled_final/1094_rv.mp4	0.0	158.5902760028839	0.1000208854675293
27	141.64602088928223	fix_pre	0		120	25.0	2.5	/experiments/knapen_AOT/AOT_stimuli/rescaled_final/0658_fw.mp4	0.0	158.69029688835144	1.0001649856567383
27	142.22969508171082	pulse	0	t		25.0	2.5	/experiments/knapen_AOT/AOT_stimuli/rescaled_final/0658_fw.mp4	0.0	159.27397108078003	
27	142.64618587493896	movie	1		242	25.0	2.5	/experiments/knapen_AOT/AOT_stimuli/rescaled_final/0658_fw.mp4	0.0	159.69046187400818	2.5004401206970215
27	143.82998704910278	pulse	1	t		25.0	2.5	/experiments/knapen_AOT/AOT_stimuli/rescaled_final/0658_fw.mp4	0.0	160.874263048172	
27	145.146625995636	fix_post	2		12	25.0	2.5	/experiments/knapen_AOT/AOT_stimuli/rescaled_final/0658_fw.mp4	0.0	162.1909019947052	0.10000300407409668
28	145.24662899971008	fix_pre	0		120	26.0	2.5	/experiments/knapen_AOT/AOT_stimuli/rescaled_final/1848_rv.mp4	0.0	162.2909049987793	1.0000789165496826
28	145.43024492263794	pulse	0	t		26.0	2.5	/experiments/knapen_AOT/AOT_stimuli/rescaled_final/1848_rv.mp4	0.0	162.47452092170715	
28	146.24670791625977	movie	1		242	26.0	2.5	/experiments/knapen_AOT/AOT_stimuli/rescaled_final/1848_rv.mp4	0.0	163.29098391532898	2.5004971027374268
28	147.0304479598999	pulse	1	t		26.0	2.5	/experiments/knapen_AOT/AOT_stimuli/rescaled_final/1848_rv.mp4	0.0	164.07472395896912	
28	148.63029193878174	pulse	1	t		26.0	2.5	/experiments/knapen_AOT/AOT_stimuli/rescaled_final/1848_rv.mp4	0.0	165.67456793785095	
28	148.7472050189972	fix_post	2		12	26.0	2.5	/experiments/knapen_AOT/AOT_stimuli/rescaled_final/1848_rv.mp4	0.0	165.7914810180664	0.09983706474304199
29	148.84704208374023	fix_pre	0		120	27.0	2.5	blank	1.0	165.89131808280945	1.000274896621704
29	149.84731698036194	movie	1		299	27.0	2.5	blank	1.0	166.89159297943115	2.4919838905334473
29	150.230859041214	pulse	1	t		27.0	2.5	blank	1.0	167.2751350402832	
29	151.83108592033386	pulse	1	t		27.0	2.5	blank	1.0	168.87536191940308	
29	152.33930087089539	fix_post	2		12	27.0	2.5	blank	1.0	169.3835768699646	0.10002517700195312
30	152.43932604789734	fix_pre	0		120	28.0	2.5	/experiments/knapen_AOT/AOT_stimuli/rescaled_final/0281_rv.mp4	0.0	169.48360204696655	1.000201940536499
30	153.43145608901978	pulse	0	t		28.0	2.5	/experiments/knapen_AOT/AOT_stimuli/rescaled_final/0281_rv.mp4	0.0	170.475732088089	
30	153.43952798843384	movie	1		244	28.0	2.5	/experiments/knapen_AOT/AOT_stimuli/rescaled_final/0281_rv.mp4	0.0	170.48380398750305	2.508625030517578
30	155.03204798698425	pulse	1	t		28.0	2.5	/experiments/knapen_AOT/AOT_stimuli/rescaled_final/0281_rv.mp4	0.0	172.07632398605347	
30	155.94815301895142	fix_post	2		12	28.0	2.5	/experiments/knapen_AOT/AOT_stimuli/rescaled_final/0281_rv.mp4	0.0	172.99242901802063	0.10002493858337402
31	156.0481779575348	fix_pre	0		120	29.0	2.5	/experiments/knapen_AOT/AOT_stimuli/rescaled_final/1519_fw.mp4	0.0	173.092453956604	1.0001981258392334
31	156.63184094429016	pulse	0	t		29.0	2.5	/experiments/knapen_AOT/AOT_stimuli/rescaled_final/1519_fw.mp4	0.0	173.67611694335938	
31	157.04837608337402	movie	1		242	29.0	2.5	/experiments/knapen_AOT/AOT_stimuli/rescaled_final/1519_fw.mp4	0.0	174.09265208244324	2.500347852706909
31	158.23208808898926	pulse	1	t		29.0	2.5	/experiments/knapen_AOT/AOT_stimuli/rescaled_final/1519_fw.mp4	0.0	175.27636408805847	
31	159.54872393608093	fix_post	2		12	29.0	2.5	/experiments/knapen_AOT/AOT_stimuli/rescaled_final/1519_fw.mp4	0.0	176.59299993515015	0.1000220775604248
32	159.64874601364136	fix_pre	0		120	30.0	2.5	/experiments/knapen_AOT/AOT_stimuli/rescaled_final/2148_rv.mp4	0.0	176.69302201271057	1.0001120567321777
32	159.8323369026184	pulse	0	t		30.0	2.5	/experiments/knapen_AOT/AOT_stimuli/rescaled_final/2148_rv.mp4	0.0	176.87661290168762	
32	160.64885807037354	movie	1		242	30.0	2.5	/experiments/knapen_AOT/AOT_stimuli/rescaled_final/2148_rv.mp4	0.0	177.69313406944275	2.5005338191986084
32	161.43261694908142	pulse	1	t		30.0	2.5	/experiments/knapen_AOT/AOT_stimuli/rescaled_final/2148_rv.mp4	0.0	178.47689294815063	
32	163.03325390815735	pulse	1	t		30.0	2.5	/experiments/knapen_AOT/AOT_stimuli/rescaled_final/2148_rv.mp4	0.0	180.07752990722656	
32	163.14939188957214	fix_post	2		12	30.0	2.5	/experiments/knapen_AOT/AOT_stimuli/rescaled_final/2148_rv.mp4	0.0	180.19366788864136	0.09985113143920898
33	163.24924302101135	fix_pre	0		120	31.0	2.5	/experiments/knapen_AOT/AOT_stimuli/rescaled_final/1430_rv.mp4	0.0	180.29351902008057	1.0001840591430664
33	164.24942708015442	movie	1		242	31.0	2.5	/experiments/knapen_AOT/AOT_stimuli/rescaled_final/1430_rv.mp4	0.0	181.29370307922363	2.4921188354492188
33	164.63354587554932	pulse	1	t		31.0	2.5	/experiments/knapen_AOT/AOT_stimuli/rescaled_final/1430_rv.mp4	0.0	181.67782187461853	
33	166.2333300113678	pulse	1	t		31.0	2.5	/experiments/knapen_AOT/AOT_stimuli/rescaled_final/1430_rv.mp4	0.0	183.277606010437	
33	166.74154591560364	fix_post	2		9	31.0	2.5	/experiments/knapen_AOT/AOT_stimuli/rescaled_final/1430_rv.mp4	0.0	183.78582191467285	0.09997200965881348
34	166.84151792526245	fix_pre	0		120	32.0	2.5	/experiments/knapen_AOT/AOT_stimuli/rescaled_final/1829_fw.mp4	0.0	183.88579392433167	1.0000970363616943
34	167.83357906341553	pulse	0	t		32.0	2.5	/experiments/knapen_AOT/AOT_stimuli/rescaled_final/1829_fw.mp4	0.0	184.87785506248474	
34	167.84161496162415	movie	1		245	32.0	2.5	/experiments/knapen_AOT/AOT_stimuli/rescaled_final/1829_fw.mp4	0.0	184.88589096069336	2.5087831020355225
34	169.43435192108154	pulse	1	t		32.0	2.5	/experiments/knapen_AOT/AOT_stimuli/rescaled_final/1829_fw.mp4	0.0	186.47862792015076	
34	170.35039806365967	fix_post	2		12	32.0	2.5	/experiments/knapen_AOT/AOT_stimuli/rescaled_final/1829_fw.mp4	0.0	187.39467406272888	0.09996485710144043
35	170.4503629207611	fix_pre	0		120	33.0	2.5	blank	1.0	187.49463891983032	1.0001311302185059
35	171.02647304534912	pulse	0	t		33.0	2.5	blank	1.0	188.07074904441833	
35	171.45049405097961	movie	1		300	33.0	2.5	blank	1.0	188.49477005004883	2.500347852706909
35	172.62661504745483	pulse	1	t		33.0	2.5	blank	1.0	189.67089104652405	
35	173.95084190368652	fix_post	2		12	33.0	2.5	blank	1.0	190.99511790275574	0.1000831127166748
36	174.0509250164032	fix_pre	0		120	34.0	2.5	/experiments/knapen_AOT/AOT_stimuli/rescaled_final/1773_rv.mp4	0.0	191.0952010154724	1.0001089572906494
36	174.22691988945007	pulse	0	t		34.0	2.5	/experiments/knapen_AOT/AOT_stimuli/rescaled_final/1773_rv.mp4	0.0	191.2711958885193	
36	175.05103397369385	movie	1		242	34.0	2.5	/experiments/knapen_AOT/AOT_stimuli/rescaled_final/1773_rv.mp4	0.0	192.09530997276306	2.50045108795166
36	175.82714104652405	pulse	1	t		34.0	2.5	/experiments/knapen_AOT/AOT_stimuli/rescaled_final/1773_rv.mp4	0.0	192.87141704559326	
36	177.42660403251648	pulse	1	t		34.0	2.5	/experiments/knapen_AOT/AOT_stimuli/rescaled_final/1773_rv.mp4	0.0	194.4708800315857	
36	177.5514850616455	fix_post	2		12	34.0	2.5	/experiments/knapen_AOT/AOT_stimuli/rescaled_final/1773_rv.mp4	0.0	194.59576106071472	0.09992694854736328
37	177.65141201019287	fix_pre	0		120	35.0	2.5	/experiments/knapen_AOT/AOT_stimuli/rescaled_final/1241_fw.mp4	0.0	194.69568800926208	1.0001420974731445
37	178.65155410766602	movie	1		242	35.0	2.5	/experiments/knapen_AOT/AOT_stimuli/rescaled_final/1241_fw.mp4	0.0	195.69583010673523	2.49210786819458
37	179.0267460346222	pulse	1	t		35.0	2.5	/experiments/knapen_AOT/AOT_stimuli/rescaled_final/1241_fw.mp4	0.0	196.0710220336914	
37	180.62716102600098	pulse	1	t		35.0	2.5	/experiments/knapen_AOT/AOT_stimuli/rescaled_final/1241_fw.mp4	0.0	197.6714370250702	
37	181.1436619758606	fix_post	2		12	35.0	2.5	/experiments/knapen_AOT/AOT_stimuli/rescaled_final/1241_fw.mp4	0.0	198.1879379749298	0.09993410110473633
38	181.24359607696533	fix_pre	0		119	36.0	2.5	/experiments/knapen_AOT/AOT_stimuli/rescaled_final/0826_fw.mp4	0.0	198.28787207603455	0.9918808937072754
38	182.22730708122253	pulse	0	t		36.0	2.5	/experiments/knapen_AOT/AOT_stimuli/rescaled_final/0826_fw.mp4	0.0	199.27158308029175	
38	182.2354769706726	movie	1		244	36.0	2.5	/experiments/knapen_AOT/AOT_stimuli/rescaled_final/0826_fw.mp4	0.0	199.27975296974182	2.5086491107940674
38	183.82795095443726	pulse	1	t		36.0	2.5	/experiments/knapen_AOT/AOT_stimuli/rescaled_final/0826_fw.mp4	0.0	200.87222695350647	
38	184.74412608146667	fix_post	2		12	36.0	2.5	/experiments/knapen_AOT/AOT_stimuli/rescaled_final/0826_fw.mp4	0.0	201.7884020805359	0.10000085830688477
39	184.84412693977356	fix_pre	0		120	37.0	2.5	/experiments/knapen_AOT/AOT_stimuli/rescaled_final/1111_fw.mp4	0.0	201.88840293884277	1.0001671314239502
39	185.4277310371399	pulse	0	t		37.0	2.5	/experiments/knapen_AOT/AOT_stimuli/rescaled_final/1111_fw.mp4	0.0	202.4720070362091	
39	185.8442940711975	movie	1		242	37.0	2.5	/experiments/knapen_AOT/AOT_stimuli/rescaled_final/1111_fw.mp4	0.0	202.88857007026672	2.500401020050049
39	187.02809309959412	pulse	1	t		37.0	2.5	/experiments/knapen_AOT/AOT_stimuli/rescaled_final/1111_fw.mp4	0.0	204.07236909866333	
39	188.34469509124756	fix_post	2		12	37.0	2.5	/experiments/knapen_AOT/AOT_stimuli/rescaled_final/1111_fw.mp4	0.0	205.38897109031677	0.09995889663696289
40	188.44465398788452	fix_pre	0		120	38.0	2.5	/experiments/knapen_AOT/AOT_stimuli/rescaled_final/1600_rv.mp4	0.0	205.48892998695374	1.0002520084381104
40	188.62828588485718	pulse	0	t		38.0	2.5	/experiments/knapen_AOT/AOT_stimuli/rescaled_final/1600_rv.mp4	0.0	205.6725618839264	
40	189.44490599632263	movie	1		243	38.0	2.5	/experiments/knapen_AOT/AOT_stimuli/rescaled_final/1600_rv.mp4	0.0	206.48918199539185	2.500408887863159
40	190.2284801006317	pulse	1	t		38.0	2.5	/experiments/knapen_AOT/AOT_stimuli/rescaled_final/1600_rv.mp4	0.0	207.27275609970093	
40	191.82855200767517	pulse	1	t		38.0	2.5	/experiments/knapen_AOT/AOT_stimuli/rescaled_final/1600_rv.mp4	0.0	208.87282800674438	
40	191.9453148841858	fix_post	2		12	38.0	2.5	/experiments/knapen_AOT/AOT_stimuli/rescaled_final/1600_rv.mp4	0.0	208.989590883255	0.09989500045776367
41	192.04520988464355	fix_pre	0		120	39.0	2.5	/experiments/knapen_AOT/AOT_stimuli/rescaled_final/1192_rv.mp4	0.0	209.08948588371277	1.0001180171966553
41	193.0453279018402	movie	1		241	39.0	2.5	/experiments/knapen_AOT/AOT_stimuli/rescaled_final/1192_rv.mp4	0.0	210.08960390090942	2.492187976837158
41	193.42960691452026	pulse	1	t		39.0	2.5	/experiments/knapen_AOT/AOT_stimuli/rescaled_final/1192_rv.mp4	0.0	210.47388291358948	
41	195.02927494049072	pulse	1	t		39.0	2.5	/experiments/knapen_AOT/AOT_stimuli/rescaled_final/1192_rv.mp4	0.0	212.07355093955994	
41	195.53751587867737	fix_post	2		12	39.0	2.5	/experiments/knapen_AOT/AOT_stimuli/rescaled_final/1192_rv.mp4	0.0	212.58179187774658	0.09990215301513672
42	195.6374180316925	fix_pre	0		120	40.0	2.5	/experiments/knapen_AOT/AOT_stimuli/rescaled_final/1502_fw.mp4	0.0	212.68169403076172	1.000148057937622
42	196.6294400691986	pulse	0	t		40.0	2.5	/experiments/knapen_AOT/AOT_stimuli/rescaled_final/1502_fw.mp4	0.0	213.67371606826782	
42	196.63756608963013	movie	1		245	40.0	2.5	/experiments/knapen_AOT/AOT_stimuli/rescaled_final/1502_fw.mp4	0.0	213.68184208869934	2.5086519718170166
42	198.23090887069702	pulse	1	t		40.0	2.5	/experiments/knapen_AOT/AOT_stimuli/rescaled_final/1502_fw.mp4	0.0	215.27518486976624	
42	199.14621806144714	fix_post	2		12	40.0	2.5	/experiments/knapen_AOT/AOT_stimuli/rescaled_final/1502_fw.mp4	0.0	216.19049406051636	0.1000828742980957
43	199.24630093574524	fix_pre	0		120	41.0	2.5	blank	1.0	216.29057693481445	1.0001630783081055
43	199.82988810539246	pulse	0	t		41.0	2.5	blank	1.0	216.87416410446167	
43	200.24646401405334	movie	1		300	41.0	2.5	blank	1.0	217.29074001312256	2.5003650188446045
43	201.4302270412445	pulse	1	t		41.0	2.5	blank	1.0	218.47450304031372	
43	202.74682903289795	fix_post	2		12	41.0	2.5	blank	1.0	219.79110503196716	0.09998297691345215
44	202.8468120098114	fix_pre	0		120	42.0	2.5	/experiments/knapen_AOT/AOT_stimuli/rescaled_final/0767_fw.mp4	0.0	219.89108800888062	1.000256061553955
44	203.0304479598999	pulse	0	t		42.0	2.5	/experiments/knapen_AOT/AOT_stimuli/rescaled_final/0767_fw.mp4	0.0	220.07472395896912	
44	203.84706807136536	movie	1		243	42.0	2.5	/experiments/knapen_AOT/AOT_stimuli/rescaled_final/0767_fw.mp4	0.0	220.89134407043457	2.5004069805145264
44	204.6306290626526	pulse	1	t		42.0	2.5	/experiments/knapen_AOT/AOT_stimuli/rescaled_final/0767_fw.mp4	0.0	221.6749050617218	
44	206.2310230731964	pulse	1	t		42.0	2.5	/experiments/knapen_AOT/AOT_stimuli/rescaled_final/0767_fw.mp4	0.0	223.27529907226562	
44	206.34747505187988	fix_post	2		12	42.0	2.5	/experiments/knapen_AOT/AOT_stimuli/rescaled_final/0767_fw.mp4	0.0	223.3917510509491	0.0998849868774414
45	206.44736003875732	fix_pre	0		120	43.0	2.5	/experiments/knapen_AOT/AOT_stimuli/rescaled_final/1753_rv.mp4	0.0	223.49163603782654	1.000187873840332
45	207.44754791259766	movie	1		241	43.0	2.5	/experiments/knapen_AOT/AOT_stimuli/rescaled_final/1753_rv.mp4	0.0	224.49182391166687	2.492074966430664
45	207.83250308036804	pulse	1	t		43.0	2.5	/experiments/knapen_AOT/AOT_stimuli/rescaled_final/1753_rv.mp4	0.0	224.87677907943726	
45	209.4314579963684	pulse	1	t		43.0	2.5	/experiments/knapen_AOT/AOT_stimuli/rescaled_final/1753_rv.mp4	0.0	226.47573399543762	
45	209.93962287902832	fix_post	2		12	43.0	2.5	/experiments/knapen_AOT/AOT_stimuli/rescaled_final/1753_rv.mp4	0.0	226.98389887809753	0.09995412826538086
46	210.0395770072937	fix_pre	0		120	44.0	2.5	/experiments/knapen_AOT/AOT_stimuli/rescaled_final/0065_fw.mp4	0.0	227.08385300636292	1.0001308917999268
46	211.03162503242493	pulse	0	t		44.0	2.5	/experiments/knapen_AOT/AOT_stimuli/rescaled_final/0065_fw.mp4	0.0	228.07590103149414	
46	211.03970789909363	movie	1		244	44.0	2.5	/experiments/knapen_AOT/AOT_stimuli/rescaled_final/0065_fw.mp4	0.0	228.08398389816284	2.508665084838867
46	212.63228392601013	pulse	1	t		44.0	2.5	/experiments/knapen_AOT/AOT_stimuli/rescaled_final/0065_fw.mp4	0.0	229.67655992507935	
46	213.5483729839325	fix_post	2		12	44.0	2.5	/experiments/knapen_AOT/AOT_stimuli/rescaled_final/0065_fw.mp4	0.0	230.5926489830017	0.10013508796691895
47	213.6485080718994	fix_pre	0		120	45.0	2.5	/experiments/knapen_AOT/AOT_stimuli/rescaled_final/2144_fw.mp4	0.0	230.69278407096863	1.0001168251037598
47	214.232115983963	pulse	0	t		45.0	2.5	/experiments/knapen_AOT/AOT_stimuli/rescaled_final/2144_fw.mp4	0.0	231.27639198303223	
47	214.64862489700317	movie	1		243	45.0	2.5	/experiments/knapen_AOT/AOT_stimuli/rescaled_final/2144_fw.mp4	0.0	231.6929008960724	2.500488042831421
47	215.83236694335938	pulse	1	t		45.0	2.5	/experiments/knapen_AOT/AOT_stimuli/rescaled_final/2144_fw.mp4	0.0	232.8766429424286	
47	217.1491129398346	fix_post	2		12	45.0	2.5	/experiments/knapen_AOT/AOT_stimuli/rescaled_final/2144_fw.mp4	0.0	234.1933889389038	0.09987115859985352
48	217.24898409843445	fix_pre	0		120	46.0	2.5	/experiments/knapen_AOT/AOT_stimuli/rescaled_final/1763_rv.mp4	0.0	234.29326009750366	1.0001449584960938
48	217.43257093429565	pulse	0	t		46.0	2.5	/experiments/knapen_AOT/AOT_stimuli/rescaled_final/1763_rv.mp4	0.0	234.47684693336487	
48	218.24912905693054	movie	1		242	46.0	2.5	/experiments/knapen_AOT/AOT_stimuli/rescaled_final/1763_rv.mp4	0.0	235.29340505599976	2.500502824783325
48	219.03271102905273	pulse	1	t		46.0	2.5	/experiments/knapen_AOT/AOT_stimuli/rescaled_final/1763_rv.mp4	0.0	236.07698702812195	
48	220.63365602493286	pulse	1	t		46.0	2.5	/experiments/knapen_AOT/AOT_stimuli/rescaled_final/1763_rv.mp4	0.0	237.67793202400208	
48	220.74963188171387	fix_post	2		12	46.0	2.5	/experiments/knapen_AOT/AOT_stimuli/rescaled_final/1763_rv.mp4	0.0	237.79390788078308	0.09990215301513672
49	220.849534034729	fix_pre	0		119	47.0	2.5	/experiments/knapen_AOT/AOT_stimuli/rescaled_final/0600_rv.mp4	0.0	237.89381003379822	0.9917969703674316
49	221.84133100509644	movie	1		244	47.0	2.5	/experiments/knapen_AOT/AOT_stimuli/rescaled_final/0600_rv.mp4	0.0	238.88560700416565	2.5003600120544434
49	222.23343205451965	pulse	1	t		47.0	2.5	/experiments/knapen_AOT/AOT_stimuli/rescaled_final/0600_rv.mp4	0.0	239.27770805358887	
49	223.82608294487	pulse	1	t		47.0	2.5	/experiments/knapen_AOT/AOT_stimuli/rescaled_final/0600_rv.mp4	0.0	240.8703589439392	
49	224.34169101715088	fix_post	2		12	47.0	2.5	/experiments/knapen_AOT/AOT_stimuli/rescaled_final/0600_rv.mp4	0.0	241.3859670162201	0.0999898910522461
50	224.44168090820312	fix_pre	0		117	48.0	2.5	/experiments/knapen_AOT/AOT_stimuli/rescaled_final/0969_fw.mp4	0.0	241.48595690727234	1.0001821517944336
50	225.42623496055603	pulse	0	t		48.0	2.5	/experiments/knapen_AOT/AOT_stimuli/rescaled_final/0969_fw.mp4	0.0	242.47051095962524	
50	225.44186305999756	movie	1		244	48.0	2.5	/experiments/knapen_AOT/AOT_stimuli/rescaled_final/0969_fw.mp4	0.0	242.48613905906677	2.508694887161255
50	227.03463292121887	pulse	1	t		48.0	2.5	/experiments/knapen_AOT/AOT_stimuli/rescaled_final/0969_fw.mp4	0.0	244.0789089202881	
50	227.9505579471588	fix_post	2		12	48.0	2.5	/experiments/knapen_AOT/AOT_stimuli/rescaled_final/0969_fw.mp4	0.0	244.99483394622803	0.10002803802490234
51	228.05058598518372	fix_pre	0		120	49.0	2.5	blank	1.0	245.09486198425293	1.0001959800720215
51	228.62675499916077	pulse	0	t		49.0	2.5	blank	1.0	245.67103099822998	
51	229.05078196525574	movie	1		300	49.0	2.5	blank	1.0	246.09505796432495	2.5003421306610107
51	230.22609090805054	pulse	1	t		49.0	2.5	blank	1.0	247.27036690711975	
51	231.55112409591675	fix_post	2		12	49.0	2.5	blank	1.0	248.59540009498596	0.10000991821289062
52	231.65113401412964	fix_pre	0		120	50.0	2.5	/experiments/knapen_AOT/AOT_stimuli/rescaled_final/0244_rv.mp4	0.0	248.69541001319885	1.000140905380249
52	231.82627987861633	pulse	0	t		50.0	2.5	/experiments/knapen_AOT/AOT_stimuli/rescaled_final/0244_rv.mp4	0.0	248.87055587768555	
52	232.6512749195099	movie	1		242	50.0	2.5	/experiments/knapen_AOT/AOT_stimuli/rescaled_final/0244_rv.mp4	0.0	249.6955509185791	2.492211103439331
52	233.42663407325745	pulse	1	t		50.0	2.5	/experiments/knapen_AOT/AOT_stimuli/rescaled_final/0244_rv.mp4	0.0	250.47091007232666	
52	235.02676391601562	pulse	1	t		50.0	2.5	/experiments/knapen_AOT/AOT_stimuli/rescaled_final/0244_rv.mp4	0.0	252.07103991508484	
52	235.14348602294922	fix_post	2		13	50.0	2.5	/experiments/knapen_AOT/AOT_stimuli/rescaled_final/0244_rv.mp4	0.0	252.18776202201843	0.10816001892089844
53	235.25164604187012	fix_pre	0		119	51.0	2.5	/experiments/knapen_AOT/AOT_stimuli/rescaled_final/2085_rv.mp4	0.0	252.29592204093933	0.9918148517608643
53	236.24346089363098	movie	1		243	51.0	2.5	/experiments/knapen_AOT/AOT_stimuli/rescaled_final/2085_rv.mp4	0.0	253.2877368927002	2.500552177429199
53	236.62830305099487	pulse	1	t		51.0	2.5	/experiments/knapen_AOT/AOT_stimuli/rescaled_final/2085_rv.mp4	0.0	253.6725790500641	
53	238.22733902931213	pulse	1	t		51.0	2.5	/experiments/knapen_AOT/AOT_stimuli/rescaled_final/2085_rv.mp4	0.0	255.27161502838135	
53	238.74401307106018	fix_post	2		12	51.0	2.5	/experiments/knapen_AOT/AOT_stimuli/rescaled_final/2085_rv.mp4	0.0	255.7882890701294	0.09989786148071289
54	238.8439109325409	fix_pre	0		119	52.0	2.5	/experiments/knapen_AOT/AOT_stimuli/rescaled_final/0502_fw.mp4	0.0	255.8881869316101	0.9917621612548828
54	239.82760906219482	pulse	0	t		52.0	2.5	/experiments/knapen_AOT/AOT_stimuli/rescaled_final/0502_fw.mp4	0.0	256.87188506126404	
54	239.83567309379578	movie	1		243	52.0	2.5	/experiments/knapen_AOT/AOT_stimuli/rescaled_final/0502_fw.mp4	0.0	256.879949092865	2.5086989402770996
54	241.42855405807495	pulse	1	t		52.0	2.5	/experiments/knapen_AOT/AOT_stimuli/rescaled_final/0502_fw.mp4	0.0	258.47283005714417	
54	242.34437203407288	fix_post	2		12	52.0	2.5	/experiments/knapen_AOT/AOT_stimuli/rescaled_final/0502_fw.mp4	0.0	259.3886480331421	0.10003995895385742
55	242.44441199302673	fix_pre	0		120	53.0	2.5	/experiments/knapen_AOT/AOT_stimuli/rescaled_final/0472_fw.mp4	0.0	259.48868799209595	1.000140905380249
55	243.02808499336243	pulse	0	t		53.0	2.5	/experiments/knapen_AOT/AOT_stimuli/rescaled_final/0472_fw.mp4	0.0	260.07236099243164	
55	243.44455289840698	movie	1		243	53.0	2.5	/experiments/knapen_AOT/AOT_stimuli/rescaled_final/0472_fw.mp4	0.0	260.4888288974762	2.5005149841308594
55	244.62830591201782	pulse	1	t		53.0	2.5	/experiments/knapen_AOT/AOT_stimuli/rescaled_final/0472_fw.mp4	0.0	261.67258191108704	
55	245.94506788253784	fix_post	2		12	53.0	2.5	/experiments/knapen_AOT/AOT_stimuli/rescaled_final/0472_fw.mp4	0.0	262.98934388160706	0.09987401962280273
56	246.04494190216064	fix_pre	0		120	54.0	2.5	blank	1.0	263.08921790122986	1.000143051147461
56	246.2286388874054	pulse	0	t		54.0	2.5	blank	1.0	263.2729148864746	
56	247.0450849533081	movie	1		300	54.0	2.5	blank	1.0	264.0893609523773	2.500385046005249
56	247.82877588272095	pulse	1	t		54.0	2.5	blank	1.0	264.87305188179016	
56	249.42896103858948	pulse	1	t		54.0	2.5	blank	1.0	266.4732370376587	
56	249.54546999931335	fix_post	2		12	54.0	2.5	blank	1.0	266.58974599838257	0.1000370979309082
57	249.64550709724426	fix_pre	0		120	55.0	2.5	/experiments/knapen_AOT/AOT_stimuli/rescaled_final/0258_fw.mp4	0.0	266.6897830963135	1.0001089572906494
57	250.6456160545349	movie	1		243	55.0	2.5	/experiments/knapen_AOT/AOT_stimuli/rescaled_final/0258_fw.mp4	0.0	267.6898920536041	2.492060899734497
57	251.02951192855835	pulse	1	t		55.0	2.5	/experiments/knapen_AOT/AOT_stimuli/rescaled_final/0258_fw.mp4	0.0	268.07378792762756	
57	252.62956500053406	pulse	1	t		55.0	2.5	/experiments/knapen_AOT/AOT_stimuli/rescaled_final/0258_fw.mp4	0.0	269.67384099960327	
57	253.1376769542694	fix_post	2		12	55.0	2.5	/experiments/knapen_AOT/AOT_stimuli/rescaled_final/0258_fw.mp4	0.0	270.1819529533386	0.10002398490905762
58	253.23770093917847	fix_pre	0		120	56.0	2.5	/experiments/knapen_AOT/AOT_stimuli/rescaled_final/0985_fw.mp4	0.0	270.2819769382477	1.0001590251922607
58	254.22973704338074	pulse	0	t		56.0	2.5	/experiments/knapen_AOT/AOT_stimuli/rescaled_final/0985_fw.mp4	0.0	271.27401304244995	
58	254.23785996437073	movie	1		244	56.0	2.5	/experiments/knapen_AOT/AOT_stimuli/rescaled_final/0985_fw.mp4	0.0	271.28213596343994	2.5086679458618164
58	255.83542609214783	pulse	1	t		56.0	2.5	/experiments/knapen_AOT/AOT_stimuli/rescaled_final/0985_fw.mp4	0.0	272.87970209121704	
58	256.74652791023254	fix_post	2		12	56.0	2.5	/experiments/knapen_AOT/AOT_stimuli/rescaled_final/0985_fw.mp4	0.0	273.79080390930176	0.10002303123474121
59	256.8465509414673	fix_pre	0		120	57.0	2.5	/experiments/knapen_AOT/AOT_stimuli/rescaled_final/1538_fw.mp4	0.0	273.8908269405365	1.0001490116119385
59	257.4301700592041	pulse	0	t		57.0	2.5	/experiments/knapen_AOT/AOT_stimuli/rescaled_final/1538_fw.mp4	0.0	274.4744460582733	
59	257.8466999530792	movie	1		242	57.0	2.5	/experiments/knapen_AOT/AOT_stimuli/rescaled_final/1538_fw.mp4	0.0	274.89097595214844	2.500568151473999
59	259.0265998840332	pulse	1	t		57.0	2.5	/experiments/knapen_AOT/AOT_stimuli/rescaled_final/1538_fw.mp4	0.0	276.0708758831024	
59	260.3472681045532	fix_post	2		12	57.0	2.5	/experiments/knapen_AOT/AOT_stimuli/rescaled_final/1538_fw.mp4	0.0	277.39154410362244	0.09980988502502441
60	260.44707798957825	fix_pre	0		120	58.0	2.5	/experiments/knapen_AOT/AOT_stimuli/rescaled_final/1912_rv.mp4	0.0	277.49135398864746	1.0001599788665771
60	260.63070797920227	pulse	0	t		58.0	2.5	/experiments/knapen_AOT/AOT_stimuli/rescaled_final/1912_rv.mp4	0.0	277.6749839782715	
60	261.4472379684448	movie	1		245	58.0	2.5	/experiments/knapen_AOT/AOT_stimuli/rescaled_final/1912_rv.mp4	0.0	278.49151396751404	2.5003910064697266
60	262.2308599948883	pulse	1	t		58.0	2.5	/experiments/knapen_AOT/AOT_stimuli/rescaled_final/1912_rv.mp4	0.0	279.2751359939575	
60	263.83119893074036	pulse	1	t		58.0	2.5	/experiments/knapen_AOT/AOT_stimuli/rescaled_final/1912_rv.mp4	0.0	280.87547492980957	
60	263.94762897491455	fix_post	2		12	58.0	2.5	/experiments/knapen_AOT/AOT_stimuli/rescaled_final/1912_rv.mp4	0.0	280.99190497398376	0.1000220775604248
61	264.047651052475	fix_pre	0		120	59.0	2.5	/experiments/knapen_AOT/AOT_stimuli/rescaled_final/0903_rv.mp4	0.0	281.0919270515442	1.00016188621521
61	265.0478129386902	movie	1		243	59.0	2.5	/experiments/knapen_AOT/AOT_stimuli/rescaled_final/0903_rv.mp4	0.0	282.0920889377594	2.492016077041626
61	265.43197894096375	pulse	1	t		59.0	2.5	/experiments/knapen_AOT/AOT_stimuli/rescaled_final/0903_rv.mp4	0.0	282.47625494003296	
61	267.0317130088806	pulse	1	t		59.0	2.5	/experiments/knapen_AOT/AOT_stimuli/rescaled_final/0903_rv.mp4	0.0	284.07598900794983	
61	267.5398290157318	fix_post	2		12	59.0	2.5	/experiments/knapen_AOT/AOT_stimuli/rescaled_final/0903_rv.mp4	0.0	284.584105014801	0.10004091262817383
62	267.63986992836	fix_pre	0		120	60.0	2.5	/experiments/knapen_AOT/AOT_stimuli/rescaled_final/1236_rv.mp4	0.0	284.6841459274292	1.000143051147461
62	268.63175892829895	pulse	0	t		60.0	2.5	/experiments/knapen_AOT/AOT_stimuli/rescaled_final/1236_rv.mp4	0.0	285.67603492736816	
62	268.64001297950745	movie	1		243	60.0	2.5	/experiments/knapen_AOT/AOT_stimuli/rescaled_final/1236_rv.mp4	0.0	285.68428897857666	2.508650064468384
62	270.232460975647	pulse	1	t		60.0	2.5	/experiments/knapen_AOT/AOT_stimuli/rescaled_final/1236_rv.mp4	0.0	287.2767369747162	
62	271.14866304397583	fix_post	2		12	60.0	2.5	/experiments/knapen_AOT/AOT_stimuli/rescaled_final/1236_rv.mp4	0.0	288.19293904304504	0.1000518798828125
63	271.24871492385864	fix_pre	0		120	61.0	2.5	/experiments/knapen_AOT/AOT_stimuli/rescaled_final/1226_rv.mp4	0.0	288.29299092292786	1.0001239776611328
63	271.83229088783264	pulse	0	t		61.0	2.5	/experiments/knapen_AOT/AOT_stimuli/rescaled_final/1226_rv.mp4	0.0	288.87656688690186	
63	272.2488389015198	movie	1		243	61.0	2.5	/experiments/knapen_AOT/AOT_stimuli/rescaled_final/1226_rv.mp4	0.0	289.293114900589	2.5004851818084717
63	273.4326159954071	pulse	1	t		61.0	2.5	/experiments/knapen_AOT/AOT_stimuli/rescaled_final/1226_rv.mp4	0.0	290.4768919944763	
63	274.74932408332825	fix_post	2		12	61.0	2.5	/experiments/knapen_AOT/AOT_stimuli/rescaled_final/1226_rv.mp4	0.0	291.79360008239746	0.09990692138671875
64	274.84923100471497	fix_pre	0		120	62.0	2.5	blank	1.0	291.8935070037842	1.0001449584960938
64	275.0328040122986	pulse	0	t		62.0	2.5	blank	1.0	292.0770800113678	
64	275.84937596321106	movie	1		300	62.0	2.5	blank	1.0	292.8936519622803	2.50039005279541
64	276.6331219673157	pulse	1	t		62.0	2.5	blank	1.0	293.6773979663849	
64	278.2332808971405	pulse	1	t		62.0	2.5	blank	1.0	295.2775568962097	
64	278.34976601600647	fix_post	2		12	62.0	2.5	blank	1.0	295.3940420150757	0.10002803802490234
65	278.4497940540314	fix_pre	0		120	63.0	2.5	/experiments/knapen_AOT/AOT_stimuli/rescaled_final/0435_rv.mp4	0.0	295.4940700531006	1.0001368522644043
65	279.4499309062958	movie	1		242	63.0	2.5	/experiments/knapen_AOT/AOT_stimuli/rescaled_final/0435_rv.mp4	0.0	296.494206905365	2.492223024368286
65	279.8349070549011	pulse	1	t		63.0	2.5	/experiments/knapen_AOT/AOT_stimuli/rescaled_final/0435_rv.mp4	0.0	296.87918305397034	
65	281.433767080307	pulse	1	t		63.0	2.5	/experiments/knapen_AOT/AOT_stimuli/rescaled_final/0435_rv.mp4	0.0	298.4780430793762	
65	281.94215393066406	fix_post	2		12	63.0	2.5	/experiments/knapen_AOT/AOT_stimuli/rescaled_final/0435_rv.mp4	0.0	298.9864299297333	0.09983015060424805
66	282.0419840812683	fix_pre	0		119	64.0	2.5	/experiments/knapen_AOT/AOT_stimuli/rescaled_final/0821_rv.mp4	0.0	299.0862600803375	0.9918010234832764
66	283.02579402923584	pulse	0	t		64.0	2.5	/experiments/knapen_AOT/AOT_stimuli/rescaled_final/0821_rv.mp4	0.0	300.07007002830505	
66	283.0337851047516	movie	1		244	64.0	2.5	/experiments/knapen_AOT/AOT_stimuli/rescaled_final/0821_rv.mp4	0.0	300.0780611038208	2.5087499618530273
66	284.6343729496002	pulse	1	t		64.0	2.5	/experiments/knapen_AOT/AOT_stimuli/rescaled_final/0821_rv.mp4	0.0	301.67864894866943	
66	285.5425350666046	fix_post	2		12	64.0	2.5	/experiments/knapen_AOT/AOT_stimuli/rescaled_final/0821_rv.mp4	0.0	302.5868110656738	0.0999758243560791
67	285.6425108909607	fix_pre	0		120	65.0	2.5	/experiments/knapen_AOT/AOT_stimuli/rescaled_final/0717_rv.mp4	0.0	302.6867868900299	1.0001370906829834
67	286.2261109352112	pulse	0	t		65.0	2.5	/experiments/knapen_AOT/AOT_stimuli/rescaled_final/0717_rv.mp4	0.0	303.2703869342804	
67	286.6426479816437	movie	1		241	65.0	2.5	/experiments/knapen_AOT/AOT_stimuli/rescaled_final/0717_rv.mp4	0.0	303.6869239807129	2.500386953353882
67	287.82650089263916	pulse	1	t		65.0	2.5	/experiments/knapen_AOT/AOT_stimuli/rescaled_final/0717_rv.mp4	0.0	304.8707768917084	
67	289.14303493499756	fix_post	2		12	65.0	2.5	/experiments/knapen_AOT/AOT_stimuli/rescaled_final/0717_rv.mp4	0.0	306.1873109340668	0.10002708435058594
68	289.24306201934814	fix_pre	0		120	66.0	2.5	/experiments/knapen_AOT/AOT_stimuli/rescaled_final/0234_fw.mp4	0.0	306.28733801841736	1.0001418590545654
68	289.4265990257263	pulse	0	t		66.0	2.5	/experiments/knapen_AOT/AOT_stimuli/rescaled_final/0234_fw.mp4	0.0	306.47087502479553	
68	290.2432038784027	movie	1		243	66.0	2.5	/experiments/knapen_AOT/AOT_stimuli/rescaled_final/0234_fw.mp4	0.0	307.2874798774719	2.5003931522369385
68	291.0268039703369	pulse	1	t		66.0	2.5	/experiments/knapen_AOT/AOT_stimuli/rescaled_final/0234_fw.mp4	0.0	308.0710799694061	
68	292.6269118785858	pulse	1	t		66.0	2.5	/experiments/knapen_AOT/AOT_stimuli/rescaled_final/0234_fw.mp4	0.0	309.67118787765503	
68	292.74359703063965	fix_post	2		12	66.0	2.5	/experiments/knapen_AOT/AOT_stimuli/rescaled_final/0234_fw.mp4	0.0	309.78787302970886	0.09999895095825195
69	292.8435959815979	fix_pre	0		120	67.0	2.5	/experiments/knapen_AOT/AOT_stimuli/rescaled_final/1701_fw.mp4	0.0	309.8878719806671	1.0001659393310547
69	293.84376192092896	movie	1		242	67.0	2.5	/experiments/knapen_AOT/AOT_stimuli/rescaled_final/1701_fw.mp4	0.0	310.88803791999817	2.4920740127563477
69	294.22870898246765	pulse	1	t		67.0	2.5	/experiments/knapen_AOT/AOT_stimuli/rescaled_final/1701_fw.mp4	0.0	311.27298498153687	
69	295.8275320529938	pulse	1	t		67.0	2.5	/experiments/knapen_AOT/AOT_stimuli/rescaled_final/1701_fw.mp4	0.0	312.871808052063	
69	296.3358359336853	fix_post	2		12	67.0	2.5	/experiments/knapen_AOT/AOT_stimuli/rescaled_final/1701_fw.mp4	0.0	313.3801119327545	0.0999600887298584
70	296.43579602241516	fix_pre	0		120	68.0	2.5	blank	1.0	313.4800720214844	1.0002260208129883
70	297.42783403396606	pulse	0	t		68.0	2.5	blank	1.0	314.4721100330353	
70	297.43602204322815	movie	1		301	68.0	2.5	blank	1.0	314.48029804229736	2.5086288452148438
70	299.0281300544739	pulse	1	t		68.0	2.5	blank	1.0	316.0724060535431	
70	299.944650888443	fix_post	2		12	68.0	2.5	blank	1.0	316.9889268875122	0.10000801086425781
71	300.04465889930725	fix_pre	0		120	69.0	2.5	/experiments/knapen_AOT/AOT_stimuli/rescaled_final/1142_rv.mp4	0.0	317.08893489837646	1.0001580715179443
71	300.628231048584	pulse	0	t		69.0	2.5	/experiments/knapen_AOT/AOT_stimuli/rescaled_final/1142_rv.mp4	0.0	317.6725070476532	
71	301.0448169708252	movie	1		243	69.0	2.5	/experiments/knapen_AOT/AOT_stimuli/rescaled_final/1142_rv.mp4	0.0	318.0890929698944	2.5005240440368652
71	302.2285370826721	pulse	1	t		69.0	2.5	/experiments/knapen_AOT/AOT_stimuli/rescaled_final/1142_rv.mp4	0.0	319.27281308174133	
71	303.54534101486206	fix_post	2		12	69.0	2.5	/experiments/knapen_AOT/AOT_stimuli/rescaled_final/1142_rv.mp4	0.0	320.5896170139313	0.09985804557800293
72	303.64519906044006	fix_pre	0		120	70.0	2.5	/experiments/knapen_AOT/AOT_stimuli/rescaled_final/0658_rv.mp4	0.0	320.6894750595093	1.0002670288085938
72	303.8287260532379	pulse	0	t		70.0	2.5	/experiments/knapen_AOT/AOT_stimuli/rescaled_final/0658_rv.mp4	0.0	320.87300205230713	
72	304.64546608924866	movie	1		242	70.0	2.5	/experiments/knapen_AOT/AOT_stimuli/rescaled_final/0658_rv.mp4	0.0	321.68974208831787	2.5003249645233154
72	305.4290590286255	pulse	1	t		70.0	2.5	/experiments/knapen_AOT/AOT_stimuli/rescaled_final/0658_rv.mp4	0.0	322.4733350276947	
72	307.0291509628296	pulse	1	t		70.0	2.5	/experiments/knapen_AOT/AOT_stimuli/rescaled_final/0658_rv.mp4	0.0	324.0734269618988	
72	307.145791053772	fix_post	2		12	70.0	2.5	/experiments/knapen_AOT/AOT_stimuli/rescaled_final/0658_rv.mp4	0.0	324.1900670528412	0.09995698928833008
73	307.2457480430603	fix_pre	0		119	71.0	2.5	/experiments/knapen_AOT/AOT_stimuli/rescaled_final/1944_fw.mp4	0.0	324.2900240421295	0.9917988777160645
73	308.23754692077637	movie	1		243	71.0	2.5	/experiments/knapen_AOT/AOT_stimuli/rescaled_final/1944_fw.mp4	0.0	325.2818229198456	2.5004069805145264
73	308.6295680999756	pulse	1	t		71.0	2.5	/experiments/knapen_AOT/AOT_stimuli/rescaled_final/1944_fw.mp4	0.0	325.6738440990448	
73	310.22971296310425	pulse	1	t		71.0	2.5	/experiments/knapen_AOT/AOT_stimuli/rescaled_final/1944_fw.mp4	0.0	327.27398896217346	
73	310.7379539012909	fix_post	2		12	71.0	2.5	/experiments/knapen_AOT/AOT_stimuli/rescaled_final/1944_fw.mp4	0.0	327.7822299003601	0.10001015663146973
74	310.83796405792236	fix_pre	0		120	72.0	2.5	/experiments/knapen_AOT/AOT_stimuli/rescaled_final/1020_rv.mp4	0.0	327.8822400569916	1.0002148151397705
74	311.8299219608307	pulse	0	t		72.0	2.5	/experiments/knapen_AOT/AOT_stimuli/rescaled_final/1020_rv.mp4	0.0	328.8741979598999	
74	311.83817887306213	movie	1		245	72.0	2.5	/experiments/knapen_AOT/AOT_stimuli/rescaled_final/1020_rv.mp4	0.0	328.88245487213135	2.5086071491241455
74	313.4339210987091	pulse	1	t		72.0	2.5	/experiments/knapen_AOT/AOT_stimuli/rescaled_final/1020_rv.mp4	0.0	330.4781970977783	
74	314.3467860221863	fix_post	2		12	72.0	2.5	/experiments/knapen_AOT/AOT_stimuli/rescaled_final/1020_rv.mp4	0.0	331.3910620212555	0.10013985633850098
75	314.4469258785248	fix_pre	0		120	73.0	2.5	/experiments/knapen_AOT/AOT_stimuli/rescaled_final/1595_rv.mp4	0.0	331.491201877594	1.000028133392334
75	315.03055691719055	pulse	0	t		73.0	2.5	/experiments/knapen_AOT/AOT_stimuli/rescaled_final/1595_rv.mp4	0.0	332.07483291625977	
75	315.4469540119171	movie	1		243	73.0	2.5	/experiments/knapen_AOT/AOT_stimuli/rescaled_final/1595_rv.mp4	0.0	332.4912300109863	2.5005390644073486
75	316.63085293769836	pulse	1	t		73.0	2.5	/experiments/knapen_AOT/AOT_stimuli/rescaled_final/1595_rv.mp4	0.0	333.6751289367676	
75	317.94749307632446	fix_post	2		12	73.0	2.5	/experiments/knapen_AOT/AOT_stimuli/rescaled_final/1595_rv.mp4	0.0	334.9917690753937	0.09991192817687988
76	318.04740500450134	fix_pre	0		120	74.0	2.5	/experiments/knapen_AOT/AOT_stimuli/rescaled_final/0829_fw.mp4	0.0	335.09168100357056	1.000101089477539
76	318.23086309432983	pulse	0	t		74.0	2.5	/experiments/knapen_AOT/AOT_stimuli/rescaled_final/0829_fw.mp4	0.0	335.27513909339905	
76	319.0475060939789	movie	1		242	74.0	2.5	/experiments/knapen_AOT/AOT_stimuli/rescaled_final/0829_fw.mp4	0.0	336.0917820930481	2.50042986869812
76	319.83127903938293	pulse	1	t		74.0	2.5	/experiments/knapen_AOT/AOT_stimuli/rescaled_final/0829_fw.mp4	0.0	336.87555503845215	
76	321.4319450855255	pulse	1	t		74.0	2.5	/experiments/knapen_AOT/AOT_stimuli/rescaled_final/0829_fw.mp4	0.0	338.4762210845947	
76	321.547935962677	fix_post	2		12	74.0	2.5	/experiments/knapen_AOT/AOT_stimuli/rescaled_final/0829_fw.mp4	0.0	338.5922119617462	0.0999441146850586
77	321.64788007736206	fix_pre	0		119	75.0	2.5	blank	1.0	338.6921560764313	0.9918148517608643
77	322.6396949291229	movie	1		300	75.0	2.5	blank	1.0	339.68397092819214	2.5003890991210938
77	323.03166794776917	pulse	1	t		75.0	2.5	blank	1.0	340.0759439468384	
77	324.6318290233612	pulse	1	t		75.0	2.5	blank	1.0	341.6761050224304	
77	325.140084028244	fix_post	2		12	75.0	2.5	blank	1.0	342.18436002731323	0.1000518798828125
78	325.24013590812683	fix_pre	0		120	76.0	2.5	/experiments/knapen_AOT/AOT_stimuli/rescaled_final/1519_rv.mp4	0.0	342.28441190719604	1.000148057937622
78	326.2320740222931	pulse	0	t		76.0	2.5	/experiments/knapen_AOT/AOT_stimuli/rescaled_final/1519_rv.mp4	0.0	343.2763500213623	
78	326.24028396606445	movie	1		243	76.0	2.5	/experiments/knapen_AOT/AOT_stimuli/rescaled_final/1519_rv.mp4	0.0	343.28455996513367	2.5086419582366943
78	327.8334090709686	pulse	1	t		76.0	2.5	/experiments/knapen_AOT/AOT_stimuli/rescaled_final/1519_rv.mp4	0.0	344.87768507003784	
78	328.74892592430115	fix_post	2		12	76.0	2.5	/experiments/knapen_AOT/AOT_stimuli/rescaled_final/1519_rv.mp4	0.0	345.79320192337036	0.10002517700195312
79	328.8489511013031	fix_pre	0		120	77.0	2.5	/experiments/knapen_AOT/AOT_stimuli/rescaled_final/0034_rv.mp4	0.0	345.8932271003723	1.0001718997955322
79	329.4327030181885	pulse	0	t		77.0	2.5	/experiments/knapen_AOT/AOT_stimuli/rescaled_final/0034_rv.mp4	0.0	346.4769790172577	
79	329.84912300109863	movie	1		242	77.0	2.5	/experiments/knapen_AOT/AOT_stimuli/rescaled_final/0034_rv.mp4	0.0	346.89339900016785	2.500516891479492
79	331.03289794921875	pulse	1	t		77.0	2.5	/experiments/knapen_AOT/AOT_stimuli/rescaled_final/0034_rv.mp4	0.0	348.07717394828796	
79	332.3496398925781	fix_post	2		12	77.0	2.5	/experiments/knapen_AOT/AOT_stimuli/rescaled_final/0034_rv.mp4	0.0	349.39391589164734	0.0999140739440918
80	332.4495539665222	fix_pre	0		120	78.0	2.5	/experiments/knapen_AOT/AOT_stimuli/rescaled_final/0689_fw.mp4	0.0	349.49382996559143	1.0001089572906494
80	332.63300108909607	pulse	0	t		78.0	2.5	/experiments/knapen_AOT/AOT_stimuli/rescaled_final/0689_fw.mp4	0.0	349.6772770881653	
80	333.44966292381287	movie	1		242	78.0	2.5	/experiments/knapen_AOT/AOT_stimuli/rescaled_final/0689_fw.mp4	0.0	350.4939389228821	2.500514030456543
80	334.2333528995514	pulse	1	t		78.0	2.5	/experiments/knapen_AOT/AOT_stimuli/rescaled_final/0689_fw.mp4	0.0	351.2776288986206	
80	335.8333339691162	pulse	1	t		78.0	2.5	/experiments/knapen_AOT/AOT_stimuli/rescaled_final/0689_fw.mp4	0.0	352.8776099681854	
80	335.9501769542694	fix_post	2		12	78.0	2.5	/experiments/knapen_AOT/AOT_stimuli/rescaled_final/0689_fw.mp4	0.0	352.9944529533386	0.0997929573059082
81	336.0499699115753	fix_pre	0		120	79.0	2.5	/experiments/knapen_AOT/AOT_stimuli/rescaled_final/1519_rv.mp4	0.0	353.09424591064453	1.0002071857452393
81	337.05017709732056	movie	1		241	79.0	2.5	/experiments/knapen_AOT/AOT_stimuli/rescaled_final/1519_rv.mp4	0.0	354.09445309638977	2.492151975631714
81	337.43531107902527	pulse	1	t		79.0	2.5	/experiments/knapen_AOT/AOT_stimuli/rescaled_final/1519_rv.mp4	0.0	354.4795870780945	
81	339.02681589126587	pulse	1	t		79.0	2.5	/experiments/knapen_AOT/AOT_stimuli/rescaled_final/1519_rv.mp4	0.0	356.0710918903351	
81	339.54232907295227	fix_post	2		12	79.0	2.5	/experiments/knapen_AOT/AOT_stimuli/rescaled_final/1519_rv.mp4	0.0	356.5866050720215	0.09989190101623535
82	339.6422209739685	fix_pre	0		120	80.0	2.5	/experiments/knapen_AOT/AOT_stimuli/rescaled_final/1806_rv.mp4	0.0	356.6864969730377	1.0002400875091553
82	340.6267418861389	pulse	0	t		80.0	2.5	/experiments/knapen_AOT/AOT_stimuli/rescaled_final/1806_rv.mp4	0.0	357.67101788520813	
82	340.64246106147766	movie	1		244	80.0	2.5	/experiments/knapen_AOT/AOT_stimuli/rescaled_final/1806_rv.mp4	0.0	357.6867370605469	2.5086629390716553
82	342.23502707481384	pulse	1	t		80.0	2.5	/experiments/knapen_AOT/AOT_stimuli/rescaled_final/1806_rv.mp4	0.0	359.27930307388306	
82	343.1511240005493	fix_post	2		12	80.0	2.5	/experiments/knapen_AOT/AOT_stimuli/rescaled_final/1806_rv.mp4	0.0	360.19539999961853	0.0999748706817627
83	343.2510988712311	fix_pre	0		120	81.0	2.5	/experiments/knapen_AOT/AOT_stimuli/rescaled_final/0829_rv.mp4	0.0	360.2953748703003	1.0002660751342773
83	343.8271749019623	pulse	0	t		81.0	2.5	/experiments/knapen_AOT/AOT_stimuli/rescaled_final/0829_rv.mp4	0.0	360.8714509010315	
83	344.25136494636536	movie	1		242	81.0	2.5	/experiments/knapen_AOT/AOT_stimuli/rescaled_final/0829_rv.mp4	0.0	361.29564094543457	2.5002570152282715
83	345.42729806900024	pulse	1	t		81.0	2.5	/experiments/knapen_AOT/AOT_stimuli/rescaled_final/0829_rv.mp4	0.0	362.47157406806946	
83	346.7516219615936	fix_post	2		12	81.0	2.5	/experiments/knapen_AOT/AOT_stimuli/rescaled_final/0829_rv.mp4	0.0	363.79589796066284	0.10001492500305176
84	346.8516368865967	fix_pre	0		120	82.0	2.5	/experiments/knapen_AOT/AOT_stimuli/rescaled_final/0415_rv.mp4	0.0	363.8959128856659	1.0001521110534668
84	347.0267810821533	pulse	0	t		82.0	2.5	/experiments/knapen_AOT/AOT_stimuli/rescaled_final/0415_rv.mp4	0.0	364.07105708122253	
84	347.85178899765015	movie	1		243	82.0	2.5	/experiments/knapen_AOT/AOT_stimuli/rescaled_final/0415_rv.mp4	0.0	364.89606499671936	2.500533103942871
84	348.62708806991577	pulse	1	t		82.0	2.5	/experiments/knapen_AOT/AOT_stimuli/rescaled_final/0415_rv.mp4	0.0	365.671364068985	
84	350.2273750305176	pulse	1	t		82.0	2.5	/experiments/knapen_AOT/AOT_stimuli/rescaled_final/0415_rv.mp4	0.0	367.2716510295868	
84	350.352322101593	fix_post	2		12	82.0	2.5	/experiments/knapen_AOT/AOT_stimuli/rescaled_final/0415_rv.mp4	0.0	367.39659810066223	0.0998687744140625
85	350.4521908760071	fix_pre	0		117	83.0	2.5	blank	1.0	367.4964668750763	0.9917960166931152
85	351.4439868927002	movie	1		300	83.0	2.5	blank	1.0	368.4882628917694	2.5003530979156494
85	351.8277049064636	pulse	1	t		83.0	2.5	blank	1.0	368.87198090553284	
85	353.427738904953	pulse	1	t		83.0	2.5	blank	1.0	370.4720149040222	
85	353.94433999061584	fix_post	2		12	83.0	2.5	blank	1.0	370.98861598968506	0.10010004043579102
87	354.04444003105164	stim	0		1716					371.08871603012085	14.302150964736938
87	355.02809500694275	pulse	0	t						372.07237100601196	
87	356.6283459663391	pulse	0	t						373.6726219654083	
87	358.22863698005676	pulse	0	t						375.272912979126	
87	359.82880091667175	pulse	0	t						376.87307691574097	
87	361.4290370941162	pulse	0	t						378.4733130931854	
87	363.0292749404907	pulse	0	t						380.07355093955994	
87	364.62954902648926	pulse	0	t						381.6738250255585	
87	366.2296769618988	pulse	0	t						383.273952960968	
87	367.83001804351807	pulse	0	t						384.8742940425873	
