trial_nr	onset	event_type	phase	response	nr_frames	movie_index	movie_duration	movie_file	blank	onset_abs	duration
0	0.1587529182434082	stim	0		29					19.7708899974823	0.24119901657104492
0	0.3919229507446289	response	0	space						20.00406002998352	
1	0.3999519348144531	stim	0		4680					20.012089014053345	39.008260011672974
1	39.39696192741394	pulse	0	t						59.00909900665283	
1	39.40821194648743	stim	1		1716					59.02034902572632	14.299787998199463
1	40.99243688583374	pulse	1	t						60.60457396507263	
1	42.59156394004822	pulse	1	t						62.20370101928711	
1	44.19232892990112	pulse	1	t						63.804466009140015	
1	45.79238796234131	pulse	1	t						65.4045250415802	
1	47.39247488975525	pulse	1	t						67.00461196899414	
1	48.991621017456055	pulse	1	t						68.60375809669495	
1	50.59237504005432	pulse	1	t						70.20451211929321	
1	52.19158101081848	pulse	1	t						71.80371809005737	
2	53.70799994468689	fix_pre	0		11	0.0	2.5	/experiments/AOT/AOT_stimuli/rescaled_final/1707_fw.mp4	0.0	73.32013702392578	0.09165000915527344
2	53.791600942611694	pulse	0	t		0.0	2.5	/experiments/AOT/AOT_stimuli/rescaled_final/1707_fw.mp4	0.0	73.40373802185059	
2	53.79964995384216	movie	1		243	0.0	2.5	/experiments/AOT/AOT_stimuli/rescaled_final/1707_fw.mp4	0.0	73.41178703308105	2.507965087890625
2	55.39158296585083	pulse	1	t		0.0	2.5	/experiments/AOT/AOT_stimuli/rescaled_final/1707_fw.mp4	0.0	75.00372004508972	
2	56.30761504173279	fix_post	2		12	0.0	2.5	/experiments/AOT/AOT_stimuli/rescaled_final/1707_fw.mp4	0.0	75.91975212097168	0.10045385360717773
3	56.408068895339966	fix_pre	0		120	1.0	2.5	/experiments/AOT/AOT_stimuli/rescaled_final/0884_rv.mp4	0.0	76.02020597457886	1.0000040531158447
3	56.99153685569763	pulse	0	t		1.0	2.5	/experiments/AOT/AOT_stimuli/rescaled_final/0884_rv.mp4	0.0	76.60367393493652	
3	57.40807294845581	movie	1		247	1.0	2.5	/experiments/AOT/AOT_stimuli/rescaled_final/0884_rv.mp4	0.0	77.0202100276947	2.499506950378418
3	58.591583013534546	pulse	1	t		1.0	2.5	/experiments/AOT/AOT_stimuli/rescaled_final/0884_rv.mp4	0.0	78.20372009277344	
3	59.90757989883423	fix_post	2		12	1.0	2.5	/experiments/AOT/AOT_stimuli/rescaled_final/0884_rv.mp4	0.0	79.51971697807312	0.10046505928039551
4	60.008044958114624	fix_pre	0		120	2.0	2.5	/experiments/AOT/AOT_stimuli/rescaled_final/0553_fw.mp4	0.0	79.62018203735352	1.000035047531128
4	60.192442893981934	pulse	0	t		2.0	2.5	/experiments/AOT/AOT_stimuli/rescaled_final/0553_fw.mp4	0.0	79.80457997322083	
4	61.00808000564575	movie	1		244	2.0	2.5	/experiments/AOT/AOT_stimuli/rescaled_final/0553_fw.mp4	0.0	80.62021708488464	2.4994759559631348
4	61.792505979537964	pulse	1	t		2.0	2.5	/experiments/AOT/AOT_stimuli/rescaled_final/0553_fw.mp4	0.0	81.40464305877686	
4	63.39989686012268	pulse	1	t		2.0	2.5	/experiments/AOT/AOT_stimuli/rescaled_final/0553_fw.mp4	0.0	83.01203393936157	
4	63.50755596160889	fix_post	2		12	2.0	2.5	/experiments/AOT/AOT_stimuli/rescaled_final/0553_fw.mp4	0.0	83.11969304084778	0.10009288787841797
5	63.607648849487305	fix_pre	0		120	3.0	2.5	/experiments/AOT/AOT_stimuli/rescaled_final/1195_rv.mp4	0.0	83.2197859287262	1.0003890991210938
5	64.6080379486084	movie	1		244	3.0	2.5	/experiments/AOT/AOT_stimuli/rescaled_final/1195_rv.mp4	0.0	84.22017502784729	2.4998910427093506
5	64.9998049736023	pulse	1	t		3.0	2.5	/experiments/AOT/AOT_stimuli/rescaled_final/1195_rv.mp4	0.0	84.61194205284119	
5	66.59239196777344	pulse	1	t		3.0	2.5	/experiments/AOT/AOT_stimuli/rescaled_final/1195_rv.mp4	0.0	86.20452904701233	
5	67.10792899131775	fix_post	2		12	3.0	2.5	/experiments/AOT/AOT_stimuli/rescaled_final/1195_rv.mp4	0.0	86.72006607055664	0.10000991821289062
6	67.20793890953064	fix_pre	0		120	4.0	2.5	/experiments/AOT/AOT_stimuli/rescaled_final/2063_rv.mp4	0.0	86.82007598876953	0.9999439716339111
6	68.1922619342804	pulse	0	t		4.0	2.5	/experiments/AOT/AOT_stimuli/rescaled_final/2063_rv.mp4	0.0	87.80439901351929	
6	68.20788288116455	movie	1		245	4.0	2.5	/experiments/AOT/AOT_stimuli/rescaled_final/2063_rv.mp4	0.0	87.82001996040344	2.5083820819854736
6	69.79147791862488	pulse	1	t		4.0	2.5	/experiments/AOT/AOT_stimuli/rescaled_final/2063_rv.mp4	0.0	89.40361499786377	
6	70.71626496315002	fix_post	2		12	4.0	2.5	/experiments/AOT/AOT_stimuli/rescaled_final/2063_rv.mp4	0.0	90.32840204238892	0.10011696815490723
7	70.81638193130493	fix_pre	0		120	5.0	2.5	/experiments/AOT/AOT_stimuli/rescaled_final/2159_rv.mp4	0.0	90.42851901054382	0.9998800754547119
7	71.39159393310547	pulse	0	t		5.0	2.5	/experiments/AOT/AOT_stimuli/rescaled_final/2159_rv.mp4	0.0	91.00373101234436	
7	71.81626200675964	movie	1		244	5.0	2.5	/experiments/AOT/AOT_stimuli/rescaled_final/2159_rv.mp4	0.0	91.42839908599854	2.499886989593506
7	72.99212884902954	pulse	1	t		5.0	2.5	/experiments/AOT/AOT_stimuli/rescaled_final/2159_rv.mp4	0.0	92.60426592826843	
7	74.31614899635315	fix_post	2		12	5.0	2.5	/experiments/AOT/AOT_stimuli/rescaled_final/2159_rv.mp4	0.0	93.92828607559204	0.10025501251220703
8	74.41640400886536	fix_pre	0		120	6.0	2.5	/experiments/AOT/AOT_stimuli/rescaled_final/1707_fw.mp4	0.0	94.02854108810425	1.0002079010009766
8	74.59163093566895	pulse	0	t		6.0	2.5	/experiments/AOT/AOT_stimuli/rescaled_final/1707_fw.mp4	0.0	94.20376801490784	
8	75.41661190986633	movie	1		242	6.0	2.5	/experiments/AOT/AOT_stimuli/rescaled_final/1707_fw.mp4	0.0	95.02874898910522	2.4996449947357178
8	76.19228005409241	pulse	1	t		6.0	2.5	/experiments/AOT/AOT_stimuli/rescaled_final/1707_fw.mp4	0.0	95.8044171333313	
8	77.79792785644531	pulse	1	t		6.0	2.5	/experiments/AOT/AOT_stimuli/rescaled_final/1707_fw.mp4	0.0	97.4100649356842	
8	77.91625690460205	fix_post	2		12	6.0	2.5	/experiments/AOT/AOT_stimuli/rescaled_final/1707_fw.mp4	0.0	97.52839398384094	0.10004711151123047
9	78.01630401611328	fix_pre	0		120	7.0	2.5	blank	1.0	97.62844109535217	0.9999220371246338
9	79.01622605323792	movie	1		300	7.0	2.5	blank	1.0	98.6283631324768	2.500005006790161
9	79.39227986335754	pulse	1	t		7.0	2.5	blank	1.0	99.00441694259644	
9	80.99215388298035	pulse	1	t		7.0	2.5	blank	1.0	100.60429096221924	
9	81.51623106002808	fix_post	2		12	7.0	2.5	blank	1.0	101.12836813926697	0.09998393058776855
10	81.61621499061584	fix_pre	0		119	8.0	2.5	/experiments/AOT/AOT_stimuli/rescaled_final/1136_rv.mp4	0.0	101.22835206985474	0.9916460514068604
10	82.59231996536255	pulse	0	t		8.0	2.5	/experiments/AOT/AOT_stimuli/rescaled_final/1136_rv.mp4	0.0	102.20445704460144	
10	82.6078610420227	movie	1		248	8.0	2.5	/experiments/AOT/AOT_stimuli/rescaled_final/1136_rv.mp4	0.0	102.2199981212616	2.5083439350128174
10	84.20068287849426	pulse	1	t		8.0	2.5	/experiments/AOT/AOT_stimuli/rescaled_final/1136_rv.mp4	0.0	103.81281995773315	
10	85.11620497703552	fix_post	2		12	8.0	2.5	/experiments/AOT/AOT_stimuli/rescaled_final/1136_rv.mp4	0.0	104.72834205627441	0.09996986389160156
11	85.21617484092712	fix_pre	0		120	9.0	2.5	/experiments/AOT/AOT_stimuli/rescaled_final/0583_fw.mp4	0.0	104.82831192016602	1.000087022781372
11	85.79221606254578	pulse	0	t		9.0	2.5	/experiments/AOT/AOT_stimuli/rescaled_final/0583_fw.mp4	0.0	105.40435314178467	
11	86.2162618637085	movie	1		245	9.0	2.5	/experiments/AOT/AOT_stimuli/rescaled_final/0583_fw.mp4	0.0	105.82839894294739	2.4998860359191895
11	87.39978694915771	pulse	1	t		9.0	2.5	/experiments/AOT/AOT_stimuli/rescaled_final/0583_fw.mp4	0.0	107.0119240283966	
11	88.71614789962769	fix_post	2		12	9.0	2.5	/experiments/AOT/AOT_stimuli/rescaled_final/0583_fw.mp4	0.0	108.32828497886658	0.10005593299865723
12	88.81620383262634	fix_pre	0		120	10.0	2.5	/experiments/AOT/AOT_stimuli/rescaled_final/0270_fw.mp4	0.0	108.42834091186523	0.9999511241912842
12	88.99222993850708	pulse	0	t		10.0	2.5	/experiments/AOT/AOT_stimuli/rescaled_final/0270_fw.mp4	0.0	108.60436701774597	
12	89.81615495681763	movie	1		243	10.0	2.5	/experiments/AOT/AOT_stimuli/rescaled_final/0270_fw.mp4	0.0	109.42829203605652	2.500014066696167
12	90.5913188457489	pulse	1	t		10.0	2.5	/experiments/AOT/AOT_stimuli/rescaled_final/0270_fw.mp4	0.0	110.2034559249878	
12	92.19832301139832	pulse	1	t		10.0	2.5	/experiments/AOT/AOT_stimuli/rescaled_final/0270_fw.mp4	0.0	111.8104600906372	
12	92.3161690235138	fix_post	2		12	10.0	2.5	/experiments/AOT/AOT_stimuli/rescaled_final/0270_fw.mp4	0.0	111.92830610275269	0.10002803802490234
13	92.4161970615387	fix_pre	0		120	11.0	2.5	/experiments/AOT/AOT_stimuli/rescaled_final/0377_fw.mp4	0.0	112.02833414077759	1.0000879764556885
13	93.41628503799438	movie	1		246	11.0	2.5	/experiments/AOT/AOT_stimuli/rescaled_final/0377_fw.mp4	0.0	113.02842211723328	2.4998888969421387
13	93.79947090148926	pulse	1	t		11.0	2.5	/experiments/AOT/AOT_stimuli/rescaled_final/0377_fw.mp4	0.0	113.41160798072815	
13	95.3923008441925	pulse	1	t		11.0	2.5	/experiments/AOT/AOT_stimuli/rescaled_final/0377_fw.mp4	0.0	115.0044379234314	
13	95.91617393493652	fix_post	2		12	11.0	2.5	/experiments/AOT/AOT_stimuli/rescaled_final/0377_fw.mp4	0.0	115.52831101417542	0.10004210472106934
14	96.01621603965759	fix_pre	0		119	12.0	2.5	blank	1.0	115.62835311889648	0.991614818572998
14	96.99217891693115	pulse	0	t		12.0	2.5	blank	1.0	116.60431599617004	
14	97.00783085823059	movie	1		301	12.0	2.5	blank	1.0	116.61996793746948	2.5083889961242676
14	98.59204697608948	pulse	1	t		12.0	2.5	blank	1.0	118.20418405532837	
14	99.51621985435486	fix_post	2		12	12.0	2.5	blank	1.0	119.12835693359375	0.09992814064025879
15	99.61614799499512	fix_pre	0		120	13.0	2.5	/experiments/AOT/AOT_stimuli/rescaled_final/1978_fw.mp4	0.0	119.22828507423401	0.9999969005584717
15	100.19213604927063	pulse	0	t		13.0	2.5	/experiments/AOT/AOT_stimuli/rescaled_final/1978_fw.mp4	0.0	119.80427312850952	
15	100.61614489555359	movie	1		242	13.0	2.5	/experiments/AOT/AOT_stimuli/rescaled_final/1978_fw.mp4	0.0	120.22828197479248	2.4999499320983887
15	101.79965686798096	pulse	1	t		13.0	2.5	/experiments/AOT/AOT_stimuli/rescaled_final/1978_fw.mp4	0.0	121.41179394721985	
15	103.11609482765198	fix_post	2		12	13.0	2.5	/experiments/AOT/AOT_stimuli/rescaled_final/1978_fw.mp4	0.0	122.72823190689087	0.09999918937683105
16	103.21609401702881	fix_pre	0		120	14.0	2.5	/experiments/AOT/AOT_stimuli/rescaled_final/1266_rv.mp4	0.0	122.8282310962677	0.9999639987945557
16	103.3920488357544	pulse	0	t		14.0	2.5	/experiments/AOT/AOT_stimuli/rescaled_final/1266_rv.mp4	0.0	123.00418591499329	
16	104.21605801582336	movie	1		245	14.0	2.5	/experiments/AOT/AOT_stimuli/rescaled_final/1266_rv.mp4	0.0	123.82819509506226	2.4996490478515625
16	104.992182970047	pulse	1	t		14.0	2.5	/experiments/AOT/AOT_stimuli/rescaled_final/1266_rv.mp4	0.0	124.60432004928589	
16	106.59125089645386	pulse	1	t		14.0	2.5	/experiments/AOT/AOT_stimuli/rescaled_final/1266_rv.mp4	0.0	126.20338797569275	
16	106.71570706367493	fix_post	2		12	14.0	2.5	/experiments/AOT/AOT_stimuli/rescaled_final/1266_rv.mp4	0.0	126.32784414291382	0.10037493705749512
17	106.81608200073242	fix_pre	0		120	15.0	2.5	/experiments/AOT/AOT_stimuli/rescaled_final/1214_fw.mp4	0.0	126.42821907997131	0.9996140003204346
17	107.81569600105286	movie	1		245	15.0	2.5	/experiments/AOT/AOT_stimuli/rescaled_final/1214_fw.mp4	0.0	127.42783308029175	2.4999868869781494
17	108.19948387145996	pulse	1	t		15.0	2.5	/experiments/AOT/AOT_stimuli/rescaled_final/1214_fw.mp4	0.0	127.81162095069885	
17	109.79217195510864	pulse	1	t		15.0	2.5	/experiments/AOT/AOT_stimuli/rescaled_final/1214_fw.mp4	0.0	129.40430903434753	
17	110.315682888031	fix_post	2		12	15.0	2.5	/experiments/AOT/AOT_stimuli/rescaled_final/1214_fw.mp4	0.0	129.9278199672699	0.1003880500793457
18	110.41607093811035	fix_pre	0		119	16.0	2.5	/experiments/AOT/AOT_stimuli/rescaled_final/0924_rv.mp4	0.0	130.02820801734924	0.99167799949646
18	111.39208102226257	pulse	0	t		16.0	2.5	/experiments/AOT/AOT_stimuli/rescaled_final/0924_rv.mp4	0.0	131.00421810150146	
18	111.40774893760681	movie	1		246	16.0	2.5	/experiments/AOT/AOT_stimuli/rescaled_final/0924_rv.mp4	0.0	131.0198860168457	2.5079169273376465
18	112.99914002418518	pulse	1	t		16.0	2.5	/experiments/AOT/AOT_stimuli/rescaled_final/0924_rv.mp4	0.0	132.61127710342407	
18	113.91566586494446	fix_post	2		12	16.0	2.5	/experiments/AOT/AOT_stimuli/rescaled_final/0924_rv.mp4	0.0	133.52780294418335	0.10046815872192383
19	114.01613402366638	fix_pre	0		120	17.0	2.5	/experiments/AOT/AOT_stimuli/rescaled_final/1465_rv.mp4	0.0	133.62827110290527	0.9999639987945557
19	114.59202098846436	pulse	0	t		17.0	2.5	/experiments/AOT/AOT_stimuli/rescaled_final/1465_rv.mp4	0.0	134.20415806770325	
19	115.01609802246094	movie	1		246	17.0	2.5	/experiments/AOT/AOT_stimuli/rescaled_final/1465_rv.mp4	0.0	134.62823510169983	2.499941825866699
19	116.19962501525879	pulse	1	t		17.0	2.5	/experiments/AOT/AOT_stimuli/rescaled_final/1465_rv.mp4	0.0	135.81176209449768	
19	117.51603984832764	fix_post	2		12	17.0	2.5	/experiments/AOT/AOT_stimuli/rescaled_final/1465_rv.mp4	0.0	137.12817692756653	0.10000014305114746
20	117.61603999137878	fix_pre	0		120	18.0	2.5	/experiments/AOT/AOT_stimuli/rescaled_final/0735_rv.mp4	0.0	137.22817707061768	1.0000228881835938
20	117.79201292991638	pulse	0	t		18.0	2.5	/experiments/AOT/AOT_stimuli/rescaled_final/0735_rv.mp4	0.0	137.40415000915527	
20	118.61606287956238	movie	1		247	18.0	2.5	/experiments/AOT/AOT_stimuli/rescaled_final/0735_rv.mp4	0.0	138.22819995880127	2.499951124191284
20	119.39215803146362	pulse	1	t		18.0	2.5	/experiments/AOT/AOT_stimuli/rescaled_final/0735_rv.mp4	0.0	139.00429511070251	
20	120.99547600746155	pulse	1	t		18.0	2.5	/experiments/AOT/AOT_stimuli/rescaled_final/0735_rv.mp4	0.0	140.60761308670044	
20	121.11601400375366	fix_post	2		12	18.0	2.5	/experiments/AOT/AOT_stimuli/rescaled_final/0735_rv.mp4	0.0	140.72815108299255	0.10001993179321289
21	121.21603393554688	fix_pre	0		120	19.0	2.5	/experiments/AOT/AOT_stimuli/rescaled_final/2145_fw.mp4	0.0	140.82817101478577	1.0000050067901611
21	122.21603894233704	movie	1		244	19.0	2.5	/experiments/AOT/AOT_stimuli/rescaled_final/2145_fw.mp4	0.0	141.82817602157593	2.500056028366089
21	122.5989339351654	pulse	1	t		19.0	2.5	/experiments/AOT/AOT_stimuli/rescaled_final/2145_fw.mp4	0.0	142.2110710144043	
21	124.19953489303589	pulse	1	t		19.0	2.5	/experiments/AOT/AOT_stimuli/rescaled_final/2145_fw.mp4	0.0	143.81167197227478	
21	124.71609497070312	fix_post	2		12	19.0	2.5	/experiments/AOT/AOT_stimuli/rescaled_final/2145_fw.mp4	0.0	144.32823204994202	0.10004401206970215
22	124.81613898277283	fix_pre	0		119	20.0	2.5	/experiments/AOT/AOT_stimuli/rescaled_final/1305_fw.mp4	0.0	144.42827606201172	0.9915289878845215
22	125.79944086074829	pulse	0	t		20.0	2.5	/experiments/AOT/AOT_stimuli/rescaled_final/1305_fw.mp4	0.0	145.41157793998718	
22	125.80766797065735	movie	1		244	20.0	2.5	/experiments/AOT/AOT_stimuli/rescaled_final/1305_fw.mp4	0.0	145.41980504989624	2.507938861846924
22	127.39944887161255	pulse	1	t		20.0	2.5	/experiments/AOT/AOT_stimuli/rescaled_final/1305_fw.mp4	0.0	147.01158595085144	
22	128.31560683250427	fix_post	2		12	20.0	2.5	/experiments/AOT/AOT_stimuli/rescaled_final/1305_fw.mp4	0.0	147.92774391174316	0.10001707077026367
23	128.41562390327454	fix_pre	0		120	21.0	2.5	blank	1.0	148.02776098251343	1.0004069805145264
23	128.99910283088684	pulse	0	t		21.0	2.5	blank	1.0	148.61123991012573	
23	129.41603088378906	movie	1		300	21.0	2.5	blank	1.0	149.02816796302795	2.5000240802764893
23	130.5917308330536	pulse	1	t		21.0	2.5	blank	1.0	150.20386791229248	
23	131.91605496406555	fix_post	2		12	21.0	2.5	blank	1.0	151.52819204330444	0.0999748706817627
24	132.01602983474731	fix_pre	0		120	22.0	2.5	/experiments/AOT/AOT_stimuli/rescaled_final/1512_rv.mp4	0.0	151.6281669139862	1.0000131130218506
24	132.19197583198547	pulse	0	t		22.0	2.5	/experiments/AOT/AOT_stimuli/rescaled_final/1512_rv.mp4	0.0	151.80411291122437	
24	133.01604294776917	movie	1		245	22.0	2.5	/experiments/AOT/AOT_stimuli/rescaled_final/1512_rv.mp4	0.0	152.62818002700806	2.499929904937744
24	133.79198384284973	pulse	1	t		22.0	2.5	/experiments/AOT/AOT_stimuli/rescaled_final/1512_rv.mp4	0.0	153.40412092208862	
24	135.3975658416748	pulse	1	t		22.0	2.5	/experiments/AOT/AOT_stimuli/rescaled_final/1512_rv.mp4	0.0	155.0097029209137	
24	135.5159728527069	fix_post	2		12	22.0	2.5	/experiments/AOT/AOT_stimuli/rescaled_final/1512_rv.mp4	0.0	155.1281099319458	0.10002303123474121
25	135.61599588394165	fix_pre	0		120	23.0	2.5	/experiments/AOT/AOT_stimuli/rescaled_final/0274_fw.mp4	0.0	155.22813296318054	0.9999411106109619
25	136.6159369945526	movie	1		244	23.0	2.5	/experiments/AOT/AOT_stimuli/rescaled_final/0274_fw.mp4	0.0	156.2280740737915	2.5000250339508057
25	136.9989800453186	pulse	1	t		23.0	2.5	/experiments/AOT/AOT_stimuli/rescaled_final/0274_fw.mp4	0.0	156.6111171245575	
25	138.59207487106323	pulse	1	t		23.0	2.5	/experiments/AOT/AOT_stimuli/rescaled_final/0274_fw.mp4	0.0	158.20421195030212	
25	139.11596202850342	fix_post	2		12	23.0	2.5	/experiments/AOT/AOT_stimuli/rescaled_final/0274_fw.mp4	0.0	158.7280991077423	0.09992790222167969
26	139.2158899307251	fix_pre	0		119	24.0	2.5	/experiments/AOT/AOT_stimuli/rescaled_final/0813_fw.mp4	0.0	158.828027009964	0.9917080402374268
26	140.19950985908508	pulse	0	t		24.0	2.5	/experiments/AOT/AOT_stimuli/rescaled_final/0813_fw.mp4	0.0	159.81164693832397	
26	140.20759797096252	movie	1		246	24.0	2.5	/experiments/AOT/AOT_stimuli/rescaled_final/0813_fw.mp4	0.0	159.81973505020142	2.5083279609680176
26	141.79935002326965	pulse	1	t		24.0	2.5	/experiments/AOT/AOT_stimuli/rescaled_final/0813_fw.mp4	0.0	161.41148710250854	
26	142.71592593193054	fix_post	2		12	24.0	2.5	/experiments/AOT/AOT_stimuli/rescaled_final/0813_fw.mp4	0.0	162.32806301116943	0.09999704360961914
27	142.81592297554016	fix_pre	0		120	25.0	2.5	/experiments/AOT/AOT_stimuli/rescaled_final/1072_fw.mp4	0.0	162.42806005477905	1.0
27	143.39940786361694	pulse	0	t		25.0	2.5	/experiments/AOT/AOT_stimuli/rescaled_final/1072_fw.mp4	0.0	163.01154494285583	
27	143.81592297554016	movie	1		243	25.0	2.5	/experiments/AOT/AOT_stimuli/rescaled_final/1072_fw.mp4	0.0	163.42806005477905	2.5000319480895996
27	144.99950504302979	pulse	1	t		25.0	2.5	/experiments/AOT/AOT_stimuli/rescaled_final/1072_fw.mp4	0.0	164.61164212226868	
27	146.31595492362976	fix_post	2		12	25.0	2.5	/experiments/AOT/AOT_stimuli/rescaled_final/1072_fw.mp4	0.0	165.92809200286865	0.09998393058776855
28	146.41593885421753	fix_pre	0		120	26.0	2.5	/experiments/AOT/AOT_stimuli/rescaled_final/0341_rv.mp4	0.0	166.02807593345642	0.999967098236084
28	146.59195399284363	pulse	0	t		26.0	2.5	/experiments/AOT/AOT_stimuli/rescaled_final/0341_rv.mp4	0.0	166.20409107208252	
28	147.4159059524536	movie	1		245	26.0	2.5	/experiments/AOT/AOT_stimuli/rescaled_final/0341_rv.mp4	0.0	167.0280430316925	2.4996519088745117
28	148.19191098213196	pulse	1	t		26.0	2.5	/experiments/AOT/AOT_stimuli/rescaled_final/0341_rv.mp4	0.0	167.80404806137085	
28	149.7955720424652	pulse	1	t		26.0	2.5	/experiments/AOT/AOT_stimuli/rescaled_final/0341_rv.mp4	0.0	169.4077091217041	
28	149.91555786132812	fix_post	2		12	26.0	2.5	/experiments/AOT/AOT_stimuli/rescaled_final/0341_rv.mp4	0.0	169.52769494056702	0.10035514831542969
29	150.01591300964355	fix_pre	0		120	27.0	2.5	/experiments/AOT/AOT_stimuli/rescaled_final/1134_rv.mp4	0.0	169.62805008888245	1.000032901763916
29	151.01594591140747	movie	1		245	27.0	2.5	/experiments/AOT/AOT_stimuli/rescaled_final/1134_rv.mp4	0.0	170.62808299064636	2.499920129776001
29	151.39904189109802	pulse	1	t		27.0	2.5	/experiments/AOT/AOT_stimuli/rescaled_final/1134_rv.mp4	0.0	171.0111789703369	
29	152.9919719696045	pulse	1	t		27.0	2.5	/experiments/AOT/AOT_stimuli/rescaled_final/1134_rv.mp4	0.0	172.60410904884338	
29	153.51586604118347	fix_post	2		12	27.0	2.5	/experiments/AOT/AOT_stimuli/rescaled_final/1134_rv.mp4	0.0	173.12800312042236	0.10004591941833496
30	153.6159119606018	fix_pre	0		119	28.0	2.5	blank	1.0	173.2280490398407	0.991602897644043
30	154.59184002876282	pulse	0	t		28.0	2.5	blank	1.0	174.2039771080017	
30	154.60751485824585	movie	1		301	28.0	2.5	blank	1.0	174.21965193748474	2.5083491802215576
30	156.1993169784546	pulse	1	t		28.0	2.5	blank	1.0	175.81145405769348	
30	157.1158640384674	fix_post	2		12	28.0	2.5	blank	1.0	176.7280011177063	0.10003185272216797
31	157.21589589118958	fix_pre	0		120	29.0	2.5	/experiments/AOT/AOT_stimuli/rescaled_final/1780_rv.mp4	0.0	176.82803297042847	0.9999001026153564
31	157.79934406280518	pulse	0	t		29.0	2.5	/experiments/AOT/AOT_stimuli/rescaled_final/1780_rv.mp4	0.0	177.41148114204407	
31	158.21579599380493	movie	1		247	29.0	2.5	/experiments/AOT/AOT_stimuli/rescaled_final/1780_rv.mp4	0.0	177.82793307304382	2.500092029571533
31	159.39957189559937	pulse	1	t		29.0	2.5	/experiments/AOT/AOT_stimuli/rescaled_final/1780_rv.mp4	0.0	179.01170897483826	
31	160.71588802337646	fix_post	2		12	29.0	2.5	/experiments/AOT/AOT_stimuli/rescaled_final/1780_rv.mp4	0.0	180.32802510261536	0.09989786148071289
32	160.81578588485718	fix_pre	0		120	30.0	2.5	/experiments/AOT/AOT_stimuli/rescaled_final/0255_fw.mp4	0.0	180.42792296409607	1.0000851154327393
32	160.99931502342224	pulse	0	t		30.0	2.5	/experiments/AOT/AOT_stimuli/rescaled_final/0255_fw.mp4	0.0	180.61145210266113	
32	161.81587100028992	movie	1		244	30.0	2.5	/experiments/AOT/AOT_stimuli/rescaled_final/0255_fw.mp4	0.0	181.4280080795288	2.499941825866699
32	162.59188294410706	pulse	1	t		30.0	2.5	/experiments/AOT/AOT_stimuli/rescaled_final/0255_fw.mp4	0.0	182.20402002334595	
32	164.19780588150024	pulse	1	t		30.0	2.5	/experiments/AOT/AOT_stimuli/rescaled_final/0255_fw.mp4	0.0	183.80994296073914	
32	164.31581282615662	fix_post	2		12	30.0	2.5	/experiments/AOT/AOT_stimuli/rescaled_final/0255_fw.mp4	0.0	183.9279499053955	0.10007810592651367
33	164.41589093208313	fix_pre	0		120	31.0	2.5	/experiments/AOT/AOT_stimuli/rescaled_final/1592_rv.mp4	0.0	184.02802801132202	0.9999330043792725
33	165.4158239364624	movie	1		245	31.0	2.5	/experiments/AOT/AOT_stimuli/rescaled_final/1592_rv.mp4	0.0	185.0279610157013	2.499969005584717
33	165.79935789108276	pulse	1	t		31.0	2.5	/experiments/AOT/AOT_stimuli/rescaled_final/1592_rv.mp4	0.0	185.41149497032166	
33	167.39194989204407	pulse	1	t		31.0	2.5	/experiments/AOT/AOT_stimuli/rescaled_final/1592_rv.mp4	0.0	187.00408697128296	
33	167.91579294204712	fix_post	2		12	31.0	2.5	/experiments/AOT/AOT_stimuli/rescaled_final/1592_rv.mp4	0.0	187.527930021286	0.10006594657897949
34	168.0158588886261	fix_pre	0		119	32.0	2.5	/experiments/AOT/AOT_stimuli/rescaled_final/2063_fw.mp4	0.0	187.627995967865	0.9915790557861328
34	168.99174690246582	pulse	0	t		32.0	2.5	/experiments/AOT/AOT_stimuli/rescaled_final/2063_fw.mp4	0.0	188.6038839817047	
34	169.00743794441223	movie	1		245	32.0	2.5	/experiments/AOT/AOT_stimuli/rescaled_final/2063_fw.mp4	0.0	188.61957502365112	2.508341073989868
34	170.59903597831726	pulse	1	t		32.0	2.5	/experiments/AOT/AOT_stimuli/rescaled_final/2063_fw.mp4	0.0	190.21117305755615	
34	171.5157790184021	fix_post	2		12	32.0	2.5	/experiments/AOT/AOT_stimuli/rescaled_final/2063_fw.mp4	0.0	191.127916097641	0.10007286071777344
35	171.61585187911987	fix_pre	0		120	33.0	2.5	/experiments/AOT/AOT_stimuli/rescaled_final/0614_rv.mp4	0.0	191.22798895835876	0.9997179508209229
35	172.19937586784363	pulse	0	t		33.0	2.5	/experiments/AOT/AOT_stimuli/rescaled_final/0614_rv.mp4	0.0	191.81151294708252	
35	172.6155698299408	movie	1		243	33.0	2.5	/experiments/AOT/AOT_stimuli/rescaled_final/0614_rv.mp4	0.0	192.2277069091797	2.500206232070923
35	173.79940104484558	pulse	1	t		33.0	2.5	/experiments/AOT/AOT_stimuli/rescaled_final/0614_rv.mp4	0.0	193.41153812408447	
35	175.11577606201172	fix_post	2		12	33.0	2.5	/experiments/AOT/AOT_stimuli/rescaled_final/0614_rv.mp4	0.0	194.7279131412506	0.10007977485656738
36	175.2158558368683	fix_pre	0		120	34.0	2.5	blank	1.0	194.82799291610718	0.9999561309814453
36	175.39935302734375	pulse	0	t		34.0	2.5	blank	1.0	195.01149010658264	
36	176.21581196784973	movie	1		300	34.0	2.5	blank	1.0	195.82794904708862	2.499922037124634
36	176.99926090240479	pulse	1	t		34.0	2.5	blank	1.0	196.61139798164368	
36	178.59922099113464	pulse	1	t		34.0	2.5	blank	1.0	198.21135807037354	
36	178.71573400497437	fix_post	2		12	34.0	2.5	blank	1.0	198.32787108421326	0.10001182556152344
37	178.8157458305359	fix_pre	0		120	35.0	2.5	/experiments/AOT/AOT_stimuli/rescaled_final/1118_fw.mp4	0.0	198.42788290977478	1.0001070499420166
37	179.8158528804779	movie	1		242	35.0	2.5	/experiments/AOT/AOT_stimuli/rescaled_final/1118_fw.mp4	0.0	199.4279899597168	2.4999029636383057
37	180.19881391525269	pulse	1	t		35.0	2.5	/experiments/AOT/AOT_stimuli/rescaled_final/1118_fw.mp4	0.0	199.81095099449158	
37	181.79188704490662	pulse	1	t		35.0	2.5	/experiments/AOT/AOT_stimuli/rescaled_final/1118_fw.mp4	0.0	201.4040241241455	
37	182.3157558441162	fix_post	2		12	35.0	2.5	/experiments/AOT/AOT_stimuli/rescaled_final/1118_fw.mp4	0.0	201.9278929233551	0.10002613067626953
38	182.41578197479248	fix_pre	0		119	36.0	2.5	/experiments/AOT/AOT_stimuli/rescaled_final/0216_fw.mp4	0.0	202.02791905403137	0.9916799068450928
38	183.3918309211731	pulse	0	t		36.0	2.5	/experiments/AOT/AOT_stimuli/rescaled_final/0216_fw.mp4	0.0	203.003968000412	
38	183.40746188163757	movie	1		247	36.0	2.5	/experiments/AOT/AOT_stimuli/rescaled_final/0216_fw.mp4	0.0	203.01959896087646	2.5083861351013184
38	184.99865198135376	pulse	1	t		36.0	2.5	/experiments/AOT/AOT_stimuli/rescaled_final/0216_fw.mp4	0.0	204.61078906059265	
38	185.9158480167389	fix_post	2		12	36.0	2.5	/experiments/AOT/AOT_stimuli/rescaled_final/0216_fw.mp4	0.0	205.52798509597778	0.0996248722076416
39	186.01547288894653	fix_pre	0		120	37.0	2.5	/experiments/AOT/AOT_stimuli/rescaled_final/0924_fw.mp4	0.0	205.62760996818542	1.000627040863037
39	186.59156799316406	pulse	0	t		37.0	2.5	/experiments/AOT/AOT_stimuli/rescaled_final/0924_fw.mp4	0.0	206.20370507240295	
39	187.01609992980957	movie	1		244	37.0	2.5	/experiments/AOT/AOT_stimuli/rescaled_final/0924_fw.mp4	0.0	206.62823700904846	2.499666929244995
39	188.19932293891907	pulse	1	t		37.0	2.5	/experiments/AOT/AOT_stimuli/rescaled_final/0924_fw.mp4	0.0	207.81146001815796	
39	189.51576685905457	fix_post	2		12	37.0	2.5	/experiments/AOT/AOT_stimuli/rescaled_final/0924_fw.mp4	0.0	209.12790393829346	0.10003304481506348
40	189.61579990386963	fix_pre	0		120	38.0	2.5	/experiments/AOT/AOT_stimuli/rescaled_final/1905_fw.mp4	0.0	209.22793698310852	0.9999599456787109
40	189.79923796653748	pulse	0	t		38.0	2.5	/experiments/AOT/AOT_stimuli/rescaled_final/1905_fw.mp4	0.0	209.41137504577637	
40	190.61575984954834	movie	1		243	38.0	2.5	/experiments/AOT/AOT_stimuli/rescaled_final/1905_fw.mp4	0.0	210.22789692878723	2.4999940395355225
40	191.39913892745972	pulse	1	t		38.0	2.5	/experiments/AOT/AOT_stimuli/rescaled_final/1905_fw.mp4	0.0	211.0112760066986	
40	192.9974880218506	pulse	1	t		38.0	2.5	/experiments/AOT/AOT_stimuli/rescaled_final/1905_fw.mp4	0.0	212.60962510108948	
40	193.11575388908386	fix_post	2		12	38.0	2.5	/experiments/AOT/AOT_stimuli/rescaled_final/1905_fw.mp4	0.0	212.72789096832275	0.09950709342956543
41	193.21526098251343	fix_pre	0		120	39.0	2.5	/experiments/AOT/AOT_stimuli/rescaled_final/1526_rv.mp4	0.0	212.82739806175232	1.0005059242248535
41	194.21576690673828	movie	1		244	39.0	2.5	/experiments/AOT/AOT_stimuli/rescaled_final/1526_rv.mp4	0.0	213.82790398597717	2.4994959831237793
41	194.5991039276123	pulse	1	t		39.0	2.5	/experiments/AOT/AOT_stimuli/rescaled_final/1526_rv.mp4	0.0	214.2112410068512	
41	196.19198393821716	pulse	1	t		39.0	2.5	/experiments/AOT/AOT_stimuli/rescaled_final/1526_rv.mp4	0.0	215.80412101745605	
41	196.71526288986206	fix_post	2		12	39.0	2.5	/experiments/AOT/AOT_stimuli/rescaled_final/1526_rv.mp4	0.0	216.32739996910095	0.10043716430664062
42	196.8157000541687	fix_pre	0		119	40.0	2.5	/experiments/AOT/AOT_stimuli/rescaled_final/1898_fw.mp4	0.0	216.4278371334076	0.9915759563446045
42	197.79918885231018	pulse	0	t		40.0	2.5	/experiments/AOT/AOT_stimuli/rescaled_final/1898_fw.mp4	0.0	217.41132593154907	
42	197.8072760105133	movie	1		246	40.0	2.5	/experiments/AOT/AOT_stimuli/rescaled_final/1898_fw.mp4	0.0	217.4194130897522	2.508391857147217
42	199.4004249572754	pulse	1	t		40.0	2.5	/experiments/AOT/AOT_stimuli/rescaled_final/1898_fw.mp4	0.0	219.01256203651428	
42	200.31566786766052	fix_post	2		12	40.0	2.5	/experiments/AOT/AOT_stimuli/rescaled_final/1898_fw.mp4	0.0	219.9278049468994	0.09995508193969727
43	200.41562294960022	fix_pre	0		120	41.0	2.5	blank	1.0	220.0277600288391	0.9999980926513672
43	200.991770029068	pulse	0	t		41.0	2.5	blank	1.0	220.60390710830688	
43	201.4156210422516	movie	1		300	41.0	2.5	blank	1.0	221.02775812149048	2.5000579357147217
43	202.59168004989624	pulse	1	t		41.0	2.5	blank	1.0	222.20381712913513	
43	203.9156789779663	fix_post	2		12	41.0	2.5	blank	1.0	223.5278160572052	0.09995102882385254
44	204.01563000679016	fix_pre	0		120	42.0	2.5	/experiments/AOT/AOT_stimuli/rescaled_final/1116_fw.mp4	0.0	223.62776708602905	1.0000669956207275
44	204.19918298721313	pulse	0	t		42.0	2.5	/experiments/AOT/AOT_stimuli/rescaled_final/1116_fw.mp4	0.0	223.81132006645203	
44	205.0156970024109	movie	1		243	42.0	2.5	/experiments/AOT/AOT_stimuli/rescaled_final/1116_fw.mp4	0.0	224.62783408164978	2.500009059906006
44	205.7991018295288	pulse	1	t		42.0	2.5	/experiments/AOT/AOT_stimuli/rescaled_final/1116_fw.mp4	0.0	225.4112389087677	
44	207.39761686325073	pulse	1	t		42.0	2.5	/experiments/AOT/AOT_stimuli/rescaled_final/1116_fw.mp4	0.0	227.00975394248962	
44	207.5157060623169	fix_post	2		12	42.0	2.5	/experiments/AOT/AOT_stimuli/rescaled_final/1116_fw.mp4	0.0	227.1278431415558	0.09991598129272461
45	207.61562204360962	fix_pre	0		120	43.0	2.5	/experiments/AOT/AOT_stimuli/rescaled_final/0590_rv.mp4	0.0	227.2277591228485	0.9999899864196777
45	208.6156120300293	movie	1		244	43.0	2.5	/experiments/AOT/AOT_stimuli/rescaled_final/0590_rv.mp4	0.0	228.2277491092682	2.4996109008789062
45	208.99870586395264	pulse	1	t		43.0	2.5	/experiments/AOT/AOT_stimuli/rescaled_final/0590_rv.mp4	0.0	228.61084294319153	
45	210.59907698631287	pulse	1	t		43.0	2.5	/experiments/AOT/AOT_stimuli/rescaled_final/0590_rv.mp4	0.0	230.21121406555176	
45	211.1152229309082	fix_post	2		12	43.0	2.5	/experiments/AOT/AOT_stimuli/rescaled_final/0590_rv.mp4	0.0	230.7273600101471	0.1003570556640625
46	211.21557998657227	fix_pre	0		119	44.0	2.5	/experiments/AOT/AOT_stimuli/rescaled_final/0583_fw.mp4	0.0	230.82771706581116	0.9917058944702148
46	212.1991319656372	pulse	0	t		44.0	2.5	/experiments/AOT/AOT_stimuli/rescaled_final/0583_fw.mp4	0.0	231.8112690448761	
46	212.20728588104248	movie	1		243	44.0	2.5	/experiments/AOT/AOT_stimuli/rescaled_final/0583_fw.mp4	0.0	231.81942296028137	2.5083110332489014
46	213.7991919517517	pulse	1	t		44.0	2.5	/experiments/AOT/AOT_stimuli/rescaled_final/0583_fw.mp4	0.0	233.4113290309906	
46	214.71559691429138	fix_post	2		12	44.0	2.5	/experiments/AOT/AOT_stimuli/rescaled_final/0583_fw.mp4	0.0	234.32773399353027	0.09992408752441406
47	214.8155210018158	fix_pre	0		120	45.0	2.5	/experiments/AOT/AOT_stimuli/rescaled_final/0924_fw.mp4	0.0	234.4276580810547	1.0000669956207275
47	215.39157485961914	pulse	0	t		45.0	2.5	/experiments/AOT/AOT_stimuli/rescaled_final/0924_fw.mp4	0.0	235.00371193885803	
47	215.81558799743652	movie	1		244	45.0	2.5	/experiments/AOT/AOT_stimuli/rescaled_final/0924_fw.mp4	0.0	235.42772507667542	2.5000648498535156
47	216.99913692474365	pulse	1	t		45.0	2.5	/experiments/AOT/AOT_stimuli/rescaled_final/0924_fw.mp4	0.0	236.61127400398254	
47	218.31565284729004	fix_post	2		12	45.0	2.5	/experiments/AOT/AOT_stimuli/rescaled_final/0924_fw.mp4	0.0	237.92778992652893	0.09992718696594238
48	218.41558003425598	fix_pre	0		120	46.0	2.5	/experiments/AOT/AOT_stimuli/rescaled_final/1026_fw.mp4	0.0	238.02771711349487	0.9995489120483398
48	218.59152388572693	pulse	0	t		46.0	2.5	/experiments/AOT/AOT_stimuli/rescaled_final/1026_fw.mp4	0.0	238.20366096496582	
48	219.41512894630432	movie	1		247	46.0	2.5	/experiments/AOT/AOT_stimuli/rescaled_final/1026_fw.mp4	0.0	239.0272660255432	2.500473976135254
48	220.19158387184143	pulse	1	t		46.0	2.5	/experiments/AOT/AOT_stimuli/rescaled_final/1026_fw.mp4	0.0	239.80372095108032	
48	221.79757285118103	pulse	1	t		46.0	2.5	/experiments/AOT/AOT_stimuli/rescaled_final/1026_fw.mp4	0.0	241.40970993041992	
48	221.91560292243958	fix_post	2		12	46.0	2.5	/experiments/AOT/AOT_stimuli/rescaled_final/1026_fw.mp4	0.0	241.52774000167847	0.09995007514953613
49	222.0155529975891	fix_pre	0		120	47.0	2.5	blank	1.0	241.627690076828	1.000025987625122
49	223.01557898521423	movie	1		300	47.0	2.5	blank	1.0	242.62771606445312	2.5000009536743164
49	223.39904594421387	pulse	1	t		47.0	2.5	blank	1.0	243.01118302345276	
49	224.99905586242676	pulse	1	t		47.0	2.5	blank	1.0	244.61119294166565	
49	225.51557993888855	fix_post	2		12	47.0	2.5	blank	1.0	245.12771701812744	0.09990596771240234
50	225.61548590660095	fix_pre	0		119	48.0	2.5	/experiments/AOT/AOT_stimuli/rescaled_final/0897_fw.mp4	0.0	245.22762298583984	0.9917559623718262
50	226.59906387329102	pulse	0	t		48.0	2.5	/experiments/AOT/AOT_stimuli/rescaled_final/0897_fw.mp4	0.0	246.2112009525299	
50	226.60724186897278	movie	1		247	48.0	2.5	/experiments/AOT/AOT_stimuli/rescaled_final/0897_fw.mp4	0.0	246.21937894821167	2.50783109664917
50	228.19871187210083	pulse	1	t		48.0	2.5	/experiments/AOT/AOT_stimuli/rescaled_final/0897_fw.mp4	0.0	247.81084895133972	
50	229.11507296562195	fix_post	2		12	48.0	2.5	/experiments/AOT/AOT_stimuli/rescaled_final/0897_fw.mp4	0.0	248.72721004486084	0.1004939079284668
51	229.21556687355042	fix_pre	0		120	49.0	2.5	/experiments/AOT/AOT_stimuli/rescaled_final/1622_rv.mp4	0.0	248.8277039527893	0.9999079704284668
51	229.79905486106873	pulse	0	t		49.0	2.5	/experiments/AOT/AOT_stimuli/rescaled_final/1622_rv.mp4	0.0	249.41119194030762	
51	230.21547484397888	movie	1		243	49.0	2.5	/experiments/AOT/AOT_stimuli/rescaled_final/1622_rv.mp4	0.0	249.82761192321777	2.4996511936187744
51	231.39905905723572	pulse	1	t		49.0	2.5	/experiments/AOT/AOT_stimuli/rescaled_final/1622_rv.mp4	0.0	251.0111961364746	
51	232.71512603759766	fix_post	2		12	49.0	2.5	/experiments/AOT/AOT_stimuli/rescaled_final/1622_rv.mp4	0.0	252.32726311683655	0.10039186477661133
52	232.81551790237427	fix_pre	0		120	50.0	2.5	/experiments/AOT/AOT_stimuli/rescaled_final/1484_rv.mp4	0.0	252.42765498161316	1.0000441074371338
52	232.99899101257324	pulse	0	t		50.0	2.5	/experiments/AOT/AOT_stimuli/rescaled_final/1484_rv.mp4	0.0	252.61112809181213	
52	233.8155620098114	movie	1		243	50.0	2.5	/experiments/AOT/AOT_stimuli/rescaled_final/1484_rv.mp4	0.0	253.4276990890503	2.499919891357422
52	234.5915629863739	pulse	1	t		50.0	2.5	/experiments/AOT/AOT_stimuli/rescaled_final/1484_rv.mp4	0.0	254.2037000656128	
52	236.19729804992676	pulse	1	t		50.0	2.5	/experiments/AOT/AOT_stimuli/rescaled_final/1484_rv.mp4	0.0	255.80943512916565	
52	236.31548190116882	fix_post	2		12	50.0	2.5	/experiments/AOT/AOT_stimuli/rescaled_final/1484_rv.mp4	0.0	255.92761898040771	0.09997415542602539
53	236.41545605659485	fix_pre	0		120	51.0	2.5	/experiments/AOT/AOT_stimuli/rescaled_final/1123_rv.mp4	0.0	256.02759313583374	0.9999878406524658
53	237.41544389724731	movie	1		244	51.0	2.5	/experiments/AOT/AOT_stimuli/rescaled_final/1123_rv.mp4	0.0	257.0275809764862	2.5000710487365723
53	237.79858303070068	pulse	1	t		51.0	2.5	/experiments/AOT/AOT_stimuli/rescaled_final/1123_rv.mp4	0.0	257.4107201099396	
53	239.39895391464233	pulse	1	t		51.0	2.5	/experiments/AOT/AOT_stimuli/rescaled_final/1123_rv.mp4	0.0	259.0110909938812	
53	239.9155149459839	fix_post	2		12	51.0	2.5	/experiments/AOT/AOT_stimuli/rescaled_final/1123_rv.mp4	0.0	259.5276520252228	0.09981393814086914
54	240.01532888412476	fix_pre	0		119	52.0	2.5	/experiments/AOT/AOT_stimuli/rescaled_final/0593_rv.mp4	0.0	259.62746596336365	0.9914300441741943
54	240.9986128807068	pulse	0	t		52.0	2.5	/experiments/AOT/AOT_stimuli/rescaled_final/0593_rv.mp4	0.0	260.6107499599457	
54	241.00675892829895	movie	1		246	52.0	2.5	/experiments/AOT/AOT_stimuli/rescaled_final/0593_rv.mp4	0.0	260.61889600753784	2.5086889266967773
54	242.5983748435974	pulse	1	t		52.0	2.5	/experiments/AOT/AOT_stimuli/rescaled_final/0593_rv.mp4	0.0	262.2105119228363	
54	243.51544785499573	fix_post	2		12	52.0	2.5	/experiments/AOT/AOT_stimuli/rescaled_final/0593_rv.mp4	0.0	263.1275849342346	0.09997320175170898
55	243.61542105674744	fix_pre	0		120	53.0	2.5	/experiments/AOT/AOT_stimuli/rescaled_final/0174_fw.mp4	0.0	263.2275581359863	1.000011920928955
55	244.1989710330963	pulse	0	t		53.0	2.5	/experiments/AOT/AOT_stimuli/rescaled_final/0174_fw.mp4	0.0	263.8111081123352	
55	244.6154329776764	movie	1		246	53.0	2.5	/experiments/AOT/AOT_stimuli/rescaled_final/0174_fw.mp4	0.0	264.2275700569153	2.50008487701416
55	245.79910898208618	pulse	1	t		53.0	2.5	/experiments/AOT/AOT_stimuli/rescaled_final/0174_fw.mp4	0.0	265.4112460613251	
55	247.11551785469055	fix_post	2		12	53.0	2.5	/experiments/AOT/AOT_stimuli/rescaled_final/0174_fw.mp4	0.0	266.72765493392944	0.09988999366760254
56	247.21540784835815	fix_pre	0		120	54.0	2.5	/experiments/AOT/AOT_stimuli/rescaled_final/0784_fw.mp4	0.0	266.82754492759705	1.0000991821289062
56	247.39896202087402	pulse	0	t		54.0	2.5	/experiments/AOT/AOT_stimuli/rescaled_final/0784_fw.mp4	0.0	267.0110991001129	
56	248.21550703048706	movie	1		246	54.0	2.5	/experiments/AOT/AOT_stimuli/rescaled_final/0784_fw.mp4	0.0	267.82764410972595	2.499919891357422
56	248.9989960193634	pulse	1	t		54.0	2.5	/experiments/AOT/AOT_stimuli/rescaled_final/0784_fw.mp4	0.0	268.6111330986023	
56	250.5973539352417	pulse	1	t		54.0	2.5	/experiments/AOT/AOT_stimuli/rescaled_final/0784_fw.mp4	0.0	270.2094910144806	
56	250.71542692184448	fix_post	2		12	54.0	2.5	/experiments/AOT/AOT_stimuli/rescaled_final/0784_fw.mp4	0.0	270.3275640010834	0.09999394416809082
57	250.81542086601257	fix_pre	0		120	55.0	2.5	blank	1.0	270.42755794525146	1.0000190734863281
57	251.8154399394989	movie	1		300	55.0	2.5	blank	1.0	271.4275770187378	2.499530076980591
57	252.1989119052887	pulse	1	t		55.0	2.5	blank	1.0	271.8110489845276	
57	253.79892301559448	pulse	1	t		55.0	2.5	blank	1.0	273.4110600948334	
57	254.3149700164795	fix_post	2		12	55.0	2.5	blank	1.0	273.9271070957184	0.10005784034729004
58	254.41502785682678	fix_pre	0		119	56.0	2.5	/experiments/AOT/AOT_stimuli/rescaled_final/0448_rv.mp4	0.0	274.0271649360657	0.9921350479125977
58	255.3988859653473	pulse	0	t		56.0	2.5	/experiments/AOT/AOT_stimuli/rescaled_final/0448_rv.mp4	0.0	275.0110230445862	
58	255.40716290473938	movie	1		244	56.0	2.5	/experiments/AOT/AOT_stimuli/rescaled_final/0448_rv.mp4	0.0	275.01929998397827	2.508316993713379
58	256.9986369609833	pulse	1	t		56.0	2.5	/experiments/AOT/AOT_stimuli/rescaled_final/0448_rv.mp4	0.0	276.61077404022217	
58	257.91547989845276	fix_post	2		12	56.0	2.5	/experiments/AOT/AOT_stimuli/rescaled_final/0448_rv.mp4	0.0	277.52761697769165	0.09992814064025879
59	258.015408039093	fix_pre	0		120	57.0	2.5	/experiments/AOT/AOT_stimuli/rescaled_final/0707_fw.mp4	0.0	277.6275451183319	0.9999728202819824
59	258.5988509654999	pulse	0	t		57.0	2.5	/experiments/AOT/AOT_stimuli/rescaled_final/0707_fw.mp4	0.0	278.21098804473877	
59	259.015380859375	movie	1		244	57.0	2.5	/experiments/AOT/AOT_stimuli/rescaled_final/0707_fw.mp4	0.0	278.6275179386139	2.4995851516723633
59	260.1989469528198	pulse	1	t		57.0	2.5	/experiments/AOT/AOT_stimuli/rescaled_final/0707_fw.mp4	0.0	279.8110840320587	
59	261.51496601104736	fix_post	2		12	57.0	2.5	/experiments/AOT/AOT_stimuli/rescaled_final/0707_fw.mp4	0.0	281.12710309028625	0.10043191909790039
60	261.61539793014526	fix_pre	0		120	58.0	2.5	/experiments/AOT/AOT_stimuli/rescaled_final/0021_rv.mp4	0.0	281.22753500938416	0.999985933303833
60	261.7988929748535	pulse	0	t		58.0	2.5	/experiments/AOT/AOT_stimuli/rescaled_final/0021_rv.mp4	0.0	281.4110300540924	
60	262.6153838634491	movie	1		246	58.0	2.5	/experiments/AOT/AOT_stimuli/rescaled_final/0021_rv.mp4	0.0	282.227520942688	2.4997971057891846
60	263.39878487586975	pulse	1	t		58.0	2.5	/experiments/AOT/AOT_stimuli/rescaled_final/0021_rv.mp4	0.0	283.01092195510864	
60	264.997318983078	pulse	1	t		58.0	2.5	/experiments/AOT/AOT_stimuli/rescaled_final/0021_rv.mp4	0.0	284.6094560623169	
60	265.1151809692383	fix_post	2		12	58.0	2.5	/experiments/AOT/AOT_stimuli/rescaled_final/0021_rv.mp4	0.0	284.7273180484772	0.10017895698547363
61	265.21535992622375	fix_pre	0		120	59.0	2.5	/experiments/AOT/AOT_stimuli/rescaled_final/0711_fw.mp4	0.0	284.82749700546265	0.9999699592590332
61	266.2153298854828	movie	1		247	59.0	2.5	/experiments/AOT/AOT_stimuli/rescaled_final/0711_fw.mp4	0.0	285.8274669647217	2.5000269412994385
61	266.59830498695374	pulse	1	t		59.0	2.5	/experiments/AOT/AOT_stimuli/rescaled_final/0711_fw.mp4	0.0	286.2104420661926	
61	268.19140696525574	pulse	1	t		59.0	2.5	/experiments/AOT/AOT_stimuli/rescaled_final/0711_fw.mp4	0.0	287.80354404449463	
61	268.7153568267822	fix_post	2		12	59.0	2.5	/experiments/AOT/AOT_stimuli/rescaled_final/0711_fw.mp4	0.0	288.3274939060211	0.09993815422058105
62	268.8152949810028	fix_pre	0		119	60.0	2.5	/experiments/AOT/AOT_stimuli/rescaled_final/1600_rv.mp4	0.0	288.4274320602417	0.9917099475860596
62	269.798810005188	pulse	0	t		60.0	2.5	/experiments/AOT/AOT_stimuli/rescaled_final/1600_rv.mp4	0.0	289.4109470844269	
62	269.80700492858887	movie	1		246	60.0	2.5	/experiments/AOT/AOT_stimuli/rescaled_final/1600_rv.mp4	0.0	289.41914200782776	2.5083401203155518
62	271.39860796928406	pulse	1	t		60.0	2.5	/experiments/AOT/AOT_stimuli/rescaled_final/1600_rv.mp4	0.0	291.01074504852295	
62	272.3153450489044	fix_post	2		12	60.0	2.5	/experiments/AOT/AOT_stimuli/rescaled_final/1600_rv.mp4	0.0	291.9274821281433	0.09994292259216309
63	272.4152879714966	fix_pre	0		120	61.0	2.5	/experiments/AOT/AOT_stimuli/rescaled_final/0082_rv.mp4	0.0	292.0274250507355	1.0000929832458496
63	272.9988830089569	pulse	0	t		61.0	2.5	/experiments/AOT/AOT_stimuli/rescaled_final/0082_rv.mp4	0.0	292.6110200881958	
63	273.41538095474243	movie	1		244	61.0	2.5	/experiments/AOT/AOT_stimuli/rescaled_final/0082_rv.mp4	0.0	293.0275180339813	2.499890089035034
63	274.59889698028564	pulse	1	t		61.0	2.5	/experiments/AOT/AOT_stimuli/rescaled_final/0082_rv.mp4	0.0	294.21103405952454	
63	275.91527104377747	fix_post	2		12	61.0	2.5	/experiments/AOT/AOT_stimuli/rescaled_final/0082_rv.mp4	0.0	295.52740812301636	0.10005593299865723
64	276.0153269767761	fix_pre	0		120	62.0	2.5	blank	1.0	295.627464056015	0.999561071395874
64	276.198823928833	pulse	0	t		62.0	2.5	blank	1.0	295.8109610080719	
64	277.014888048172	movie	1		300	62.0	2.5	blank	1.0	296.6270251274109	2.5005228519439697
64	277.79883885383606	pulse	1	t		62.0	2.5	blank	1.0	297.41097593307495	
64	279.39878582954407	pulse	1	t		62.0	2.5	blank	1.0	299.01092290878296	
64	279.51541090011597	fix_post	2		12	62.0	2.5	blank	1.0	299.12754797935486	0.09991097450256348
65	279.61532187461853	fix_pre	0		120	63.0	2.5	/experiments/AOT/AOT_stimuli/rescaled_final/0507_fw.mp4	0.0	299.2274589538574	1.0000360012054443
65	280.615357875824	movie	1		243	63.0	2.5	/experiments/AOT/AOT_stimuli/rescaled_final/0507_fw.mp4	0.0	300.22749495506287	2.4999570846557617
65	280.9985189437866	pulse	1	t		63.0	2.5	/experiments/AOT/AOT_stimuli/rescaled_final/0507_fw.mp4	0.0	300.6106560230255	
65	282.5987539291382	pulse	1	t		63.0	2.5	/experiments/AOT/AOT_stimuli/rescaled_final/0507_fw.mp4	0.0	302.2108910083771	
65	283.11531496047974	fix_post	2		12	63.0	2.5	/experiments/AOT/AOT_stimuli/rescaled_final/0507_fw.mp4	0.0	302.7274520397186	0.0999910831451416
66	283.2153060436249	fix_pre	0		119	64.0	2.5	/experiments/AOT/AOT_stimuli/rescaled_final/1896_fw.mp4	0.0	302.82744312286377	0.9916398525238037
66	284.19878602027893	pulse	0	t		64.0	2.5	/experiments/AOT/AOT_stimuli/rescaled_final/1896_fw.mp4	0.0	303.8109230995178	
66	284.2069458961487	movie	1		245	64.0	2.5	/experiments/AOT/AOT_stimuli/rescaled_final/1896_fw.mp4	0.0	303.8190829753876	2.5083651542663574
66	285.7990069389343	pulse	1	t		64.0	2.5	/experiments/AOT/AOT_stimuli/rescaled_final/1896_fw.mp4	0.0	305.4111440181732	
66	286.71531105041504	fix_post	2		12	64.0	2.5	/experiments/AOT/AOT_stimuli/rescaled_final/1896_fw.mp4	0.0	306.32744812965393	0.09991884231567383
67	286.8152298927307	fix_pre	0		120	65.0	2.5	/experiments/AOT/AOT_stimuli/rescaled_final/1379_rv.mp4	0.0	306.4273669719696	1.0001189708709717
67	287.3987238407135	pulse	0	t		65.0	2.5	/experiments/AOT/AOT_stimuli/rescaled_final/1379_rv.mp4	0.0	307.0108609199524	
67	287.8153488636017	movie	1		244	65.0	2.5	/experiments/AOT/AOT_stimuli/rescaled_final/1379_rv.mp4	0.0	307.4274859428406	2.499495029449463
67	288.9988160133362	pulse	1	t		65.0	2.5	/experiments/AOT/AOT_stimuli/rescaled_final/1379_rv.mp4	0.0	308.6109530925751	
67	290.31484389305115	fix_post	2		12	65.0	2.5	/experiments/AOT/AOT_stimuli/rescaled_final/1379_rv.mp4	0.0	309.92698097229004	0.10044193267822266
68	290.41528582572937	fix_pre	0		120	66.0	2.5	/experiments/AOT/AOT_stimuli/rescaled_final/0021_fw.mp4	0.0	310.02742290496826	0.9999651908874512
68	290.5987939834595	pulse	0	t		66.0	2.5	/experiments/AOT/AOT_stimuli/rescaled_final/0021_fw.mp4	0.0	310.21093106269836	
68	291.4152510166168	movie	1		244	66.0	2.5	/experiments/AOT/AOT_stimuli/rescaled_final/0021_fw.mp4	0.0	311.0273880958557	2.5000498294830322
68	292.19880199432373	pulse	1	t		66.0	2.5	/experiments/AOT/AOT_stimuli/rescaled_final/0021_fw.mp4	0.0	311.8109390735626	
68	293.79497385025024	pulse	1	t		66.0	2.5	/experiments/AOT/AOT_stimuli/rescaled_final/0021_fw.mp4	0.0	313.40711092948914	
68	293.91530084609985	fix_post	2		12	66.0	2.5	/experiments/AOT/AOT_stimuli/rescaled_final/0021_fw.mp4	0.0	313.52743792533875	0.0998690128326416
69	294.0151698589325	fix_pre	0		120	67.0	2.5	/experiments/AOT/AOT_stimuli/rescaled_final/1194_fw.mp4	0.0	313.6273069381714	1.000133991241455
69	295.01530385017395	movie	1		250	67.0	2.5	/experiments/AOT/AOT_stimuli/rescaled_final/1194_fw.mp4	0.0	314.62744092941284	2.5000531673431396
69	295.39973187446594	pulse	1	t		67.0	2.5	/experiments/AOT/AOT_stimuli/rescaled_final/1194_fw.mp4	0.0	315.01186895370483	
69	296.9982919692993	pulse	1	t		67.0	2.5	/experiments/AOT/AOT_stimuli/rescaled_final/1194_fw.mp4	0.0	316.6104290485382	
69	297.5153570175171	fix_post	2		12	67.0	2.5	/experiments/AOT/AOT_stimuli/rescaled_final/1194_fw.mp4	0.0	317.127494096756	0.10001802444458008
70	297.61537504196167	fix_pre	0		119	68.0	2.5	/experiments/AOT/AOT_stimuli/rescaled_final/0759_fw.mp4	0.0	317.22751212120056	0.991379976272583
70	298.59157705307007	pulse	0	t		68.0	2.5	/experiments/AOT/AOT_stimuli/rescaled_final/0759_fw.mp4	0.0	318.20371413230896	
70	298.60675501823425	movie	1		246	68.0	2.5	/experiments/AOT/AOT_stimuli/rescaled_final/0759_fw.mp4	0.0	318.21889209747314	2.508039951324463
70	300.1981339454651	pulse	1	t		68.0	2.5	/experiments/AOT/AOT_stimuli/rescaled_final/0759_fw.mp4	0.0	319.810271024704	
70	301.1147949695587	fix_post	2		12	68.0	2.5	/experiments/AOT/AOT_stimuli/rescaled_final/0759_fw.mp4	0.0	320.7269320487976	0.10036587715148926
71	301.2151608467102	fix_pre	0		120	69.0	2.5	blank	1.0	320.8272979259491	1.0000500679016113
71	301.79874205589294	pulse	0	t		69.0	2.5	blank	1.0	321.41087913513184	
71	302.2152109146118	movie	1		300	69.0	2.5	blank	1.0	321.8273479938507	2.4999680519104004
71	303.3986999988556	pulse	1	t		69.0	2.5	blank	1.0	323.0108370780945	
71	304.7151789665222	fix_post	2		12	69.0	2.5	blank	1.0	324.3273160457611	0.0999910831451416
72	304.81517004966736	fix_pre	0		120	70.0	2.5	/experiments/AOT/AOT_stimuli/rescaled_final/1718_rv.mp4	0.0	324.42730712890625	1.0000128746032715
72	304.99869298934937	pulse	0	t		70.0	2.5	/experiments/AOT/AOT_stimuli/rescaled_final/1718_rv.mp4	0.0	324.61083006858826	
72	305.81518292427063	movie	1		244	70.0	2.5	/experiments/AOT/AOT_stimuli/rescaled_final/1718_rv.mp4	0.0	325.4273200035095	2.4994919300079346
72	306.5986490249634	pulse	1	t		70.0	2.5	/experiments/AOT/AOT_stimuli/rescaled_final/1718_rv.mp4	0.0	326.21078610420227	
72	308.19923186302185	pulse	1	t		70.0	2.5	/experiments/AOT/AOT_stimuli/rescaled_final/1718_rv.mp4	0.0	327.81136894226074	
72	308.31467485427856	fix_post	2		12	70.0	2.5	/experiments/AOT/AOT_stimuli/rescaled_final/1718_rv.mp4	0.0	327.92681193351746	0.10048103332519531
73	308.41515588760376	fix_pre	0		120	71.0	2.5	/experiments/AOT/AOT_stimuli/rescaled_final/0033_rv.mp4	0.0	328.02729296684265	0.9995231628417969
73	309.41467905044556	movie	1		248	71.0	2.5	/experiments/AOT/AOT_stimuli/rescaled_final/0033_rv.mp4	0.0	329.02681612968445	2.5000557899475098
73	309.79808497428894	pulse	1	t		71.0	2.5	/experiments/AOT/AOT_stimuli/rescaled_final/0033_rv.mp4	0.0	329.41022205352783	
73	311.3985779285431	pulse	1	t		71.0	2.5	/experiments/AOT/AOT_stimuli/rescaled_final/0033_rv.mp4	0.0	331.010715007782	
73	311.91473484039307	fix_post	2		12	71.0	2.5	/experiments/AOT/AOT_stimuli/rescaled_final/0033_rv.mp4	0.0	331.52687191963196	0.10036516189575195
74	312.0151000022888	fix_pre	0		119	72.0	2.5	/experiments/AOT/AOT_stimuli/rescaled_final/1780_rv.mp4	0.0	331.6272370815277	0.9916770458221436
74	312.99867701530457	pulse	0	t		72.0	2.5	/experiments/AOT/AOT_stimuli/rescaled_final/1780_rv.mp4	0.0	332.61081409454346	
74	313.00677704811096	movie	1		248	72.0	2.5	/experiments/AOT/AOT_stimuli/rescaled_final/1780_rv.mp4	0.0	332.61891412734985	2.508286952972412
74	314.5983350276947	pulse	1	t		72.0	2.5	/experiments/AOT/AOT_stimuli/rescaled_final/1780_rv.mp4	0.0	334.2104721069336	
74	315.5150640010834	fix_post	2		12	72.0	2.5	/experiments/AOT/AOT_stimuli/rescaled_final/1780_rv.mp4	0.0	335.12720108032227	0.10006403923034668
75	315.6151280403137	fix_pre	0		120	73.0	2.5	/experiments/AOT/AOT_stimuli/rescaled_final/0507_rv.mp4	0.0	335.2272651195526	0.9999778270721436
75	316.1987268924713	pulse	0	t		73.0	2.5	/experiments/AOT/AOT_stimuli/rescaled_final/0507_rv.mp4	0.0	335.8108639717102	
75	316.61510586738586	movie	1		244	73.0	2.5	/experiments/AOT/AOT_stimuli/rescaled_final/0507_rv.mp4	0.0	336.22724294662476	2.4995951652526855
75	317.79868602752686	pulse	1	t		73.0	2.5	/experiments/AOT/AOT_stimuli/rescaled_final/0507_rv.mp4	0.0	337.41082310676575	
75	319.11470103263855	fix_post	2		12	73.0	2.5	/experiments/AOT/AOT_stimuli/rescaled_final/0507_rv.mp4	0.0	338.72683811187744	0.100341796875
76	319.21504282951355	fix_pre	0		120	74.0	2.5	/experiments/AOT/AOT_stimuli/rescaled_final/1447_fw.mp4	0.0	338.82717990875244	1.000082015991211
76	319.3985478878021	pulse	0	t		74.0	2.5	/experiments/AOT/AOT_stimuli/rescaled_final/1447_fw.mp4	0.0	339.010684967041	
76	320.21512484550476	movie	1		245	74.0	2.5	/experiments/AOT/AOT_stimuli/rescaled_final/1447_fw.mp4	0.0	339.82726192474365	2.4999160766601562
76	320.99857783317566	pulse	1	t		74.0	2.5	/experiments/AOT/AOT_stimuli/rescaled_final/1447_fw.mp4	0.0	340.61071491241455	
76	322.5971260070801	pulse	1	t		74.0	2.5	/experiments/AOT/AOT_stimuli/rescaled_final/1447_fw.mp4	0.0	342.20926308631897	
76	322.7150409221649	fix_post	2		12	74.0	2.5	/experiments/AOT/AOT_stimuli/rescaled_final/1447_fw.mp4	0.0	342.3271780014038	0.10003399848937988
77	322.8150749206543	fix_pre	0		120	75.0	2.5	blank	1.0	342.4272119998932	0.9999730587005615
77	323.81504797935486	movie	1		300	75.0	2.5	blank	1.0	343.42718505859375	2.5000388622283936
77	324.19853591918945	pulse	1	t		75.0	2.5	blank	1.0	343.81067299842834	
77	325.7985508441925	pulse	1	t		75.0	2.5	blank	1.0	345.4106879234314	
77	326.31508684158325	fix_post	2		12	75.0	2.5	blank	1.0	345.92722392082214	0.09993910789489746
78	326.41502594947815	fix_pre	0		119	76.0	2.5	/experiments/AOT/AOT_stimuli/rescaled_final/1794_fw.mp4	0.0	346.02716302871704	0.991671085357666
78	327.398628950119	pulse	0	t		76.0	2.5	/experiments/AOT/AOT_stimuli/rescaled_final/1794_fw.mp4	0.0	347.0107660293579	
78	327.4066970348358	movie	1		249	76.0	2.5	/experiments/AOT/AOT_stimuli/rescaled_final/1794_fw.mp4	0.0	347.0188341140747	2.5083320140838623
78	328.9981310367584	pulse	1	t		76.0	2.5	/experiments/AOT/AOT_stimuli/rescaled_final/1794_fw.mp4	0.0	348.6102681159973	
78	329.9150290489197	fix_post	2		12	76.0	2.5	/experiments/AOT/AOT_stimuli/rescaled_final/1794_fw.mp4	0.0	349.52716612815857	0.09998583793640137
79	330.0150148868561	fix_pre	0		120	77.0	2.5	/experiments/AOT/AOT_stimuli/rescaled_final/2077_rv.mp4	0.0	349.62715196609497	1.000040054321289
79	330.59977102279663	pulse	0	t		77.0	2.5	/experiments/AOT/AOT_stimuli/rescaled_final/2077_rv.mp4	0.0	350.2119081020355	
79	331.01505494117737	movie	1		245	77.0	2.5	/experiments/AOT/AOT_stimuli/rescaled_final/2077_rv.mp4	0.0	350.62719202041626	2.4996020793914795
79	332.1986470222473	pulse	1	t		77.0	2.5	/experiments/AOT/AOT_stimuli/rescaled_final/2077_rv.mp4	0.0	351.8107841014862	
79	333.51465702056885	fix_post	2		12	77.0	2.5	/experiments/AOT/AOT_stimuli/rescaled_final/2077_rv.mp4	0.0	353.12679409980774	0.10036492347717285
80	333.615021944046	fix_pre	0		120	78.0	2.5	/experiments/AOT/AOT_stimuli/rescaled_final/1072_rv.mp4	0.0	353.2271590232849	0.9999740123748779
80	333.79853200912476	pulse	0	t		78.0	2.5	/experiments/AOT/AOT_stimuli/rescaled_final/1072_rv.mp4	0.0	353.41066908836365	
80	334.6149959564209	movie	1		244	78.0	2.5	/experiments/AOT/AOT_stimuli/rescaled_final/1072_rv.mp4	0.0	354.2271330356598	2.4996728897094727
80	335.39855194091797	pulse	1	t		78.0	2.5	/experiments/AOT/AOT_stimuli/rescaled_final/1072_rv.mp4	0.0	355.01068902015686	
80	336.99686884880066	pulse	1	t		78.0	2.5	/experiments/AOT/AOT_stimuli/rescaled_final/1072_rv.mp4	0.0	356.60900592803955	
80	337.11466884613037	fix_post	2		12	78.0	2.5	/experiments/AOT/AOT_stimuli/rescaled_final/1072_rv.mp4	0.0	356.72680592536926	0.10031819343566895
81	337.21498703956604	fix_pre	0		120	79.0	2.5	/experiments/AOT/AOT_stimuli/rescaled_final/0689_fw.mp4	0.0	356.82712411880493	0.9995830059051514
81	338.2145700454712	movie	1		243	79.0	2.5	/experiments/AOT/AOT_stimuli/rescaled_final/0689_fw.mp4	0.0	357.8267071247101	2.500393867492676
81	338.5982699394226	pulse	1	t		79.0	2.5	/experiments/AOT/AOT_stimuli/rescaled_final/0689_fw.mp4	0.0	358.2104070186615	
81	340.1985149383545	pulse	1	t		79.0	2.5	/experiments/AOT/AOT_stimuli/rescaled_final/0689_fw.mp4	0.0	359.8106520175934	
81	340.71496391296387	fix_post	2		12	79.0	2.5	/experiments/AOT/AOT_stimuli/rescaled_final/0689_fw.mp4	0.0	360.32710099220276	0.10000801086425781
82	340.8149719238281	fix_pre	0		119	80.0	2.5	/experiments/AOT/AOT_stimuli/rescaled_final/1150_rv.mp4	0.0	360.427109003067	0.9916470050811768
82	341.798544883728	pulse	0	t		80.0	2.5	/experiments/AOT/AOT_stimuli/rescaled_final/1150_rv.mp4	0.0	361.4106819629669	
82	341.8066189289093	movie	1		247	80.0	2.5	/experiments/AOT/AOT_stimuli/rescaled_final/1150_rv.mp4	0.0	361.4187560081482	2.5079641342163086
82	343.3979640007019	pulse	1	t		80.0	2.5	/experiments/AOT/AOT_stimuli/rescaled_final/1150_rv.mp4	0.0	363.0101010799408	
82	344.3145830631256	fix_post	2		12	80.0	2.5	/experiments/AOT/AOT_stimuli/rescaled_final/1150_rv.mp4	0.0	363.9267201423645	0.10041594505310059
83	344.4149990081787	fix_pre	0		120	81.0	2.5	/experiments/AOT/AOT_stimuli/rescaled_final/0270_fw.mp4	0.0	364.0271360874176	0.9999978542327881
83	344.9984860420227	pulse	0	t		81.0	2.5	/experiments/AOT/AOT_stimuli/rescaled_final/0270_fw.mp4	0.0	364.6106231212616	
83	345.4149968624115	movie	1		243	81.0	2.5	/experiments/AOT/AOT_stimuli/rescaled_final/0270_fw.mp4	0.0	365.0271339416504	2.4995579719543457
83	346.5985109806061	pulse	1	t		81.0	2.5	/experiments/AOT/AOT_stimuli/rescaled_final/0270_fw.mp4	0.0	366.21064805984497	
83	347.91455483436584	fix_post	2		12	81.0	2.5	/experiments/AOT/AOT_stimuli/rescaled_final/0270_fw.mp4	0.0	367.52669191360474	0.10039615631103516
84	348.0149509906769	fix_pre	0		120	82.0	2.5	blank	1.0	367.62708806991577	0.9999849796295166
84	348.19854497909546	pulse	0	t		82.0	2.5	blank	1.0	367.81068205833435	
84	349.0149359703064	movie	1		300	82.0	2.5	blank	1.0	368.6270730495453	2.4996449947357178
84	349.7985339164734	pulse	1	t		82.0	2.5	blank	1.0	369.4106709957123	
84	351.39844703674316	pulse	1	t		82.0	2.5	blank	1.0	371.01058411598206	
84	351.5145809650421	fix_post	2		12	82.0	2.5	blank	1.0	371.126718044281	0.09997987747192383
85	351.61456084251404	fix_pre	0		120	83.0	2.5	/experiments/AOT/AOT_stimuli/rescaled_final/0423_fw.mp4	0.0	371.22669792175293	1.0007941722869873
85	352.615355014801	movie	1		246	83.0	2.5	/experiments/AOT/AOT_stimuli/rescaled_final/0423_fw.mp4	0.0	372.2274920940399	2.4994850158691406
85	352.99768590927124	pulse	1	t		83.0	2.5	/experiments/AOT/AOT_stimuli/rescaled_final/0423_fw.mp4	0.0	372.60982298851013	
85	354.59826588630676	pulse	1	t		83.0	2.5	/experiments/AOT/AOT_stimuli/rescaled_final/0423_fw.mp4	0.0	374.21040296554565	
85	355.11484003067017	fix_post	2		12	83.0	2.5	/experiments/AOT/AOT_stimuli/rescaled_final/0423_fw.mp4	0.0	374.72697710990906	0.10007691383361816
87	355.2149169445038	stim	0		1716					374.8270540237427	14.300026893615723
87	356.19846200942993	pulse	0	t						375.8105990886688	
87	357.79844403266907	pulse	0	t						377.41058111190796	
87	359.39841389656067	pulse	0	t						379.01055097579956	
87	360.9985098838806	pulse	0	t						380.6106469631195	
87	362.59833788871765	pulse	0	t						382.21047496795654	
87	364.19837403297424	pulse	0	t						383.81051111221313	
87	365.79828906059265	pulse	0	t						385.41042613983154	
87	367.3983008861542	pulse	0	t						387.01043796539307	
87	368.99847292900085	pulse	0	t						388.61061000823975	
