trial_nr	onset	event_type	phase	response	nr_frames	movie_index	movie_duration	movie_file	blank	onset_abs	duration
0	0.16687297821044922	stim	0		184					26.448837995529175	1.5497589111328125
0	1.7091670036315918	response	0	space						27.991132020950317	
1	1.7166318893432617	stim	0		72288					27.998596906661987	602.4053421020508
1	604.1187210083008	pulse	0	t						630.4006860256195	
1	604.121973991394	stim	1		1717					630.4039390087128	14.308737993240356
1	605.7144019603729	pulse	1	t						631.9963669776917	
1	607.3139278888702	pulse	1	t						633.595892906189	
1	608.9140188694	pulse	1	t						635.1959838867188	
1	610.5143539905548	pulse	1	t						636.7963190078735	
1	612.1142449378967	pulse	1	t						638.3962099552155	
1	613.7142028808594	pulse	1	t						639.9961678981781	
1	615.3142800331116	pulse	1	t						641.5962450504303	
1	616.9141569137573	pulse	1	t						643.196121931076	
2	618.4307119846344	fix_pre	0		11	0.0	2.5	/experiments/AOT/AOT_stimuli/rescaled_final/0856_fw.mp4	0.0	644.7126770019531	0.09971094131469727
2	618.5142259597778	pulse	0	t		0.0	2.5	/experiments/AOT/AOT_stimuli/rescaled_final/0856_fw.mp4	0.0	644.7961909770966	
2	618.5304229259491	movie	1		261	0.0	2.5	/experiments/AOT/AOT_stimuli/rescaled_final/0856_fw.mp4	0.0	644.8123879432678	2.5002999305725098
2	620.1134588718414	pulse	1	t		0.0	2.5	/experiments/AOT/AOT_stimuli/rescaled_final/0856_fw.mp4	0.0	646.3954238891602	
2	621.0307228565216	fix_post	2		12	0.0	2.5	/experiments/AOT/AOT_stimuli/rescaled_final/0856_fw.mp4	0.0	647.3126878738403	0.10002398490905762
3	621.1307468414307	fix_pre	0		120	1.0	2.5	/experiments/AOT/AOT_stimuli/rescaled_final/2140_rv.mp4	0.0	647.4127118587494	1.0000360012054443
3	621.7142300605774	pulse	0	t		1.0	2.5	/experiments/AOT/AOT_stimuli/rescaled_final/2140_rv.mp4	0.0	647.9961950778961	
3	622.1307828426361	movie	1		244	1.0	2.5	/experiments/AOT/AOT_stimuli/rescaled_final/2140_rv.mp4	0.0	648.4127478599548	2.50003719329834
3	623.3143138885498	pulse	1	t		1.0	2.5	/experiments/AOT/AOT_stimuli/rescaled_final/2140_rv.mp4	0.0	649.5962789058685	
3	624.6308200359344	fix_post	2		12	1.0	2.5	/experiments/AOT/AOT_stimuli/rescaled_final/2140_rv.mp4	0.0	650.9127850532532	0.09948301315307617
4	624.7303030490875	fix_pre	0		120	2.0	2.5	/experiments/AOT/AOT_stimuli/rescaled_final/0574_rv.mp4	0.0	651.0122680664062	1.0004239082336426
4	624.9142429828644	pulse	0	t		2.0	2.5	/experiments/AOT/AOT_stimuli/rescaled_final/0574_rv.mp4	0.0	651.1962080001831	
4	625.7307269573212	movie	1		243	2.0	2.5	/experiments/AOT/AOT_stimuli/rescaled_final/0574_rv.mp4	0.0	652.0126919746399	2.500035047531128
4	626.5141940116882	pulse	1	t		2.0	2.5	/experiments/AOT/AOT_stimuli/rescaled_final/0574_rv.mp4	0.0	652.796159029007	
4	628.1142270565033	pulse	1	t		2.0	2.5	/experiments/AOT/AOT_stimuli/rescaled_final/0574_rv.mp4	0.0	654.396192073822	
4	628.2307620048523	fix_post	2		12	2.0	2.5	/experiments/AOT/AOT_stimuli/rescaled_final/0574_rv.mp4	0.0	654.512727022171	0.09997200965881348
5	628.3307340145111	fix_pre	0		120	3.0	2.5	/experiments/AOT/AOT_stimuli/rescaled_final/1607_fw.mp4	0.0	654.6126990318298	0.9999649524688721
5	629.33069896698	movie	1		244	3.0	2.5	/experiments/AOT/AOT_stimuli/rescaled_final/1607_fw.mp4	0.0	655.6126639842987	2.499948024749756
5	629.7136988639832	pulse	1	t		3.0	2.5	/experiments/AOT/AOT_stimuli/rescaled_final/1607_fw.mp4	0.0	655.9956638813019	
5	631.3141570091248	pulse	1	t		3.0	2.5	/experiments/AOT/AOT_stimuli/rescaled_final/1607_fw.mp4	0.0	657.5961220264435	
5	631.8306469917297	fix_post	2		12	3.0	2.5	/experiments/AOT/AOT_stimuli/rescaled_final/1607_fw.mp4	0.0	658.1126120090485	0.10003805160522461
6	631.930685043335	fix_pre	0		119	4.0	2.5	/experiments/AOT/AOT_stimuli/rescaled_final/1955_fw.mp4	0.0	658.2126500606537	0.9916448593139648
6	632.914167881012	pulse	0	t		4.0	2.5	/experiments/AOT/AOT_stimuli/rescaled_final/1955_fw.mp4	0.0	659.1961328983307	
6	632.9223299026489	movie	1		245	4.0	2.5	/experiments/AOT/AOT_stimuli/rescaled_final/1955_fw.mp4	0.0	659.2042949199677	2.508310079574585
6	634.5136950016022	pulse	1	t		4.0	2.5	/experiments/AOT/AOT_stimuli/rescaled_final/1955_fw.mp4	0.0	660.7956600189209	
6	635.4306399822235	fix_post	2		12	4.0	2.5	/experiments/AOT/AOT_stimuli/rescaled_final/1955_fw.mp4	0.0	661.7126049995422	0.09999489784240723
7	635.5306348800659	fix_pre	0		120	5.0	2.5	/experiments/AOT/AOT_stimuli/rescaled_final/1002_rv.mp4	0.0	661.8125998973846	1.0000040531158447
7	636.1140909194946	pulse	0	t		5.0	2.5	/experiments/AOT/AOT_stimuli/rescaled_final/1002_rv.mp4	0.0	662.3960559368134	
7	636.5306389331818	movie	1		245	5.0	2.5	/experiments/AOT/AOT_stimuli/rescaled_final/1002_rv.mp4	0.0	662.8126039505005	2.5000240802764893
7	637.7142159938812	pulse	1	t		5.0	2.5	/experiments/AOT/AOT_stimuli/rescaled_final/1002_rv.mp4	0.0	663.9961810112	
7	639.0306630134583	fix_post	2		12	5.0	2.5	/experiments/AOT/AOT_stimuli/rescaled_final/1002_rv.mp4	0.0	665.312628030777	0.10001683235168457
8	639.1306798458099	fix_pre	0		120	6.0	2.5	blank	1.0	665.4126448631287	1.000007152557373
8	639.3142330646515	pulse	0	t		6.0	2.5	blank	1.0	665.5961980819702	
8	640.1306869983673	movie	1		300	6.0	2.5	blank	1.0	666.412652015686	2.500095844268799
8	640.9140808582306	pulse	1	t		6.0	2.5	blank	1.0	667.1960458755493	
8	642.5141348838806	pulse	1	t		6.0	2.5	blank	1.0	668.7960999011993	
8	642.6307828426361	fix_post	2		12	6.0	2.5	blank	1.0	668.9127478599548	0.09990906715393066
9	642.73069190979	fix_pre	0		120	7.0	2.5	/experiments/AOT/AOT_stimuli/rescaled_final/1850_fw.mp4	0.0	669.0126569271088	1.0000629425048828
9	643.7307548522949	movie	1		241	7.0	2.5	/experiments/AOT/AOT_stimuli/rescaled_final/1850_fw.mp4	0.0	670.0127198696136	2.499425172805786
9	644.1138288974762	pulse	1	t		7.0	2.5	/experiments/AOT/AOT_stimuli/rescaled_final/1850_fw.mp4	0.0	670.3957939147949	
9	645.7141020298004	pulse	1	t		7.0	2.5	/experiments/AOT/AOT_stimuli/rescaled_final/1850_fw.mp4	0.0	671.9960670471191	
9	646.2301800251007	fix_post	2		12	7.0	2.5	/experiments/AOT/AOT_stimuli/rescaled_final/1850_fw.mp4	0.0	672.5121450424194	0.1004629135131836
10	646.3306429386139	fix_pre	0		119	8.0	2.5	/experiments/AOT/AOT_stimuli/rescaled_final/1818_fw.mp4	0.0	672.6126079559326	0.99167799949646
10	647.3141598701477	pulse	0	t		8.0	2.5	/experiments/AOT/AOT_stimuli/rescaled_final/1818_fw.mp4	0.0	673.5961248874664	
10	647.3223209381104	movie	1		243	8.0	2.5	/experiments/AOT/AOT_stimuli/rescaled_final/1818_fw.mp4	0.0	673.6042859554291	2.5083470344543457
10	648.913605928421	pulse	1	t		8.0	2.5	/experiments/AOT/AOT_stimuli/rescaled_final/1818_fw.mp4	0.0	675.1955709457397	
10	649.8306679725647	fix_post	2		12	8.0	2.5	/experiments/AOT/AOT_stimuli/rescaled_final/1818_fw.mp4	0.0	676.1126329898834	0.09983396530151367
11	649.9305019378662	fix_pre	0		120	9.0	2.5	/experiments/AOT/AOT_stimuli/rescaled_final/1628_rv.mp4	0.0	676.2124669551849	1.0001659393310547
11	650.5141079425812	pulse	0	t		9.0	2.5	/experiments/AOT/AOT_stimuli/rescaled_final/1628_rv.mp4	0.0	676.7960729598999	
11	650.9306678771973	movie	1		242	9.0	2.5	/experiments/AOT/AOT_stimuli/rescaled_final/1628_rv.mp4	0.0	677.212632894516	2.5000131130218506
11	652.1140968799591	pulse	1	t		9.0	2.5	/experiments/AOT/AOT_stimuli/rescaled_final/1628_rv.mp4	0.0	678.3960618972778	
11	653.4306809902191	fix_post	2		12	9.0	2.5	/experiments/AOT/AOT_stimuli/rescaled_final/1628_rv.mp4	0.0	679.7126460075378	0.09995508193969727
12	653.5306360721588	fix_pre	0		120	10.0	2.5	/experiments/AOT/AOT_stimuli/rescaled_final/0799_fw.mp4	0.0	679.8126010894775	0.9999258518218994
12	653.7140889167786	pulse	0	t		10.0	2.5	/experiments/AOT/AOT_stimuli/rescaled_final/0799_fw.mp4	0.0	679.9960539340973	
12	654.5305619239807	movie	1		241	10.0	2.5	/experiments/AOT/AOT_stimuli/rescaled_final/0799_fw.mp4	0.0	680.8125269412994	2.500594139099121
12	655.3141250610352	pulse	1	t		10.0	2.5	/experiments/AOT/AOT_stimuli/rescaled_final/0799_fw.mp4	0.0	681.5960900783539	
12	656.9225199222565	pulse	1	t		10.0	2.5	/experiments/AOT/AOT_stimuli/rescaled_final/0799_fw.mp4	0.0	683.2044849395752	
12	657.0311560630798	fix_post	2		12	10.0	2.5	/experiments/AOT/AOT_stimuli/rescaled_final/0799_fw.mp4	0.0	683.3131210803986	0.09938597679138184
13	657.1305420398712	fix_pre	0		120	11.0	2.5	/experiments/AOT/AOT_stimuli/rescaled_final/0679_rv.mp4	0.0	683.4125070571899	1.000011920928955
13	658.1305539608002	movie	1		243	11.0	2.5	/experiments/AOT/AOT_stimuli/rescaled_final/0679_rv.mp4	0.0	684.4125189781189	2.499983072280884
13	658.513808965683	pulse	1	t		11.0	2.5	/experiments/AOT/AOT_stimuli/rescaled_final/0679_rv.mp4	0.0	684.7957739830017	
13	660.1140189170837	pulse	1	t		11.0	2.5	/experiments/AOT/AOT_stimuli/rescaled_final/0679_rv.mp4	0.0	686.3959839344025	
13	660.630537033081	fix_post	2		12	11.0	2.5	/experiments/AOT/AOT_stimuli/rescaled_final/0679_rv.mp4	0.0	686.9125020503998	0.10008502006530762
14	660.7306220531464	fix_pre	0		119	12.0	2.5	/experiments/AOT/AOT_stimuli/rescaled_final/0328_rv.mp4	0.0	687.0125870704651	0.9916470050811768
14	661.7135920524597	pulse	0	t		12.0	2.5	/experiments/AOT/AOT_stimuli/rescaled_final/0328_rv.mp4	0.0	687.9955570697784	
14	661.7222690582275	movie	1		244	12.0	2.5	/experiments/AOT/AOT_stimuli/rescaled_final/0328_rv.mp4	0.0	688.0042340755463	2.5084187984466553
14	663.3137340545654	pulse	1	t		12.0	2.5	/experiments/AOT/AOT_stimuli/rescaled_final/0328_rv.mp4	0.0	689.5956990718842	
14	664.2306878566742	fix_post	2		12	12.0	2.5	/experiments/AOT/AOT_stimuli/rescaled_final/0328_rv.mp4	0.0	690.5126528739929	0.10005307197570801
15	664.3307409286499	fix_pre	0		120	13.0	2.5	/experiments/AOT/AOT_stimuli/rescaled_final/1479_rv.mp4	0.0	690.6127059459686	1.0000910758972168
15	664.9138429164886	pulse	0	t		13.0	2.5	/experiments/AOT/AOT_stimuli/rescaled_final/1479_rv.mp4	0.0	691.1958079338074	
15	665.3308320045471	movie	1		244	13.0	2.5	/experiments/AOT/AOT_stimuli/rescaled_final/1479_rv.mp4	0.0	691.6127970218658	2.4997470378875732
15	666.5140759944916	pulse	1	t		13.0	2.5	/experiments/AOT/AOT_stimuli/rescaled_final/1479_rv.mp4	0.0	692.7960410118103	
15	667.8305790424347	fix_post	2		12	13.0	2.5	/experiments/AOT/AOT_stimuli/rescaled_final/1479_rv.mp4	0.0	694.1125440597534	0.09996199607849121
16	667.9305410385132	fix_pre	0		120	14.0	2.5	blank	1.0	694.2125060558319	1.0000050067901611
16	668.1139929294586	pulse	0	t		14.0	2.5	blank	1.0	694.3959579467773	
16	668.9305460453033	movie	1		300	14.0	2.5	blank	1.0	695.2125110626221	2.4998888969421387
16	669.7139859199524	pulse	1	t		14.0	2.5	blank	1.0	695.9959509372711	
16	671.313896894455	pulse	1	t		14.0	2.5	blank	1.0	697.5958619117737	
16	671.4304349422455	fix_post	2		12	14.0	2.5	blank	1.0	697.7123999595642	0.10002493858337402
17	671.5304598808289	fix_pre	0		120	15.0	2.5	/experiments/AOT/AOT_stimuli/rescaled_final/0871_fw.mp4	0.0	697.8124248981476	1.0000910758972168
17	672.5305509567261	movie	1		243	15.0	2.5	/experiments/AOT/AOT_stimuli/rescaled_final/0871_fw.mp4	0.0	698.8125159740448	2.49993896484375
17	672.922397851944	pulse	1	t		15.0	2.5	/experiments/AOT/AOT_stimuli/rescaled_final/0871_fw.mp4	0.0	699.2043628692627	
17	674.5139288902283	pulse	1	t		15.0	2.5	/experiments/AOT/AOT_stimuli/rescaled_final/0871_fw.mp4	0.0	700.795893907547	
17	675.0304899215698	fix_post	2		12	15.0	2.5	/experiments/AOT/AOT_stimuli/rescaled_final/0871_fw.mp4	0.0	701.3124549388885	0.09999799728393555
18	675.1304879188538	fix_pre	0		119	16.0	2.5	/experiments/AOT/AOT_stimuli/rescaled_final/0631_fw.mp4	0.0	701.4124529361725	0.991685152053833
18	676.1139509677887	pulse	0	t		16.0	2.5	/experiments/AOT/AOT_stimuli/rescaled_final/0631_fw.mp4	0.0	702.3959159851074	
18	676.1221730709076	movie	1		246	16.0	2.5	/experiments/AOT/AOT_stimuli/rescaled_final/0631_fw.mp4	0.0	702.4041380882263	2.5082409381866455
18	677.7134380340576	pulse	1	t		16.0	2.5	/experiments/AOT/AOT_stimuli/rescaled_final/0631_fw.mp4	0.0	703.9954030513763	
18	678.6304140090942	fix_post	2		12	16.0	2.5	/experiments/AOT/AOT_stimuli/rescaled_final/0631_fw.mp4	0.0	704.912379026413	0.09997391700744629
19	678.7303879261017	fix_pre	0		120	17.0	2.5	/experiments/AOT/AOT_stimuli/rescaled_final/1977_fw.mp4	0.0	705.0123529434204	1.0000600814819336
19	679.3140079975128	pulse	0	t		17.0	2.5	/experiments/AOT/AOT_stimuli/rescaled_final/1977_fw.mp4	0.0	705.5959730148315	
19	679.7304480075836	movie	1		244	17.0	2.5	/experiments/AOT/AOT_stimuli/rescaled_final/1977_fw.mp4	0.0	706.0124130249023	2.499945878982544
19	680.9140129089355	pulse	1	t		17.0	2.5	/experiments/AOT/AOT_stimuli/rescaled_final/1977_fw.mp4	0.0	707.1959779262543	
19	682.2303938865662	fix_post	2		12	17.0	2.5	/experiments/AOT/AOT_stimuli/rescaled_final/1977_fw.mp4	0.0	708.5123589038849	0.10001206398010254
20	682.3304059505463	fix_pre	0		120	18.0	2.5	/experiments/AOT/AOT_stimuli/rescaled_final/1587_rv.mp4	0.0	708.612370967865	0.9999649524688721
20	682.5139298439026	pulse	0	t		18.0	2.5	/experiments/AOT/AOT_stimuli/rescaled_final/1587_rv.mp4	0.0	708.7958948612213	
20	683.3303709030151	movie	1		245	18.0	2.5	/experiments/AOT/AOT_stimuli/rescaled_final/1587_rv.mp4	0.0	709.6123359203339	2.500169038772583
20	684.1139008998871	pulse	1	t		18.0	2.5	/experiments/AOT/AOT_stimuli/rescaled_final/1587_rv.mp4	0.0	710.3958659172058	
20	685.714350938797	pulse	1	t		18.0	2.5	/experiments/AOT/AOT_stimuli/rescaled_final/1587_rv.mp4	0.0	711.9963159561157	
20	685.8305399417877	fix_post	2		12	18.0	2.5	/experiments/AOT/AOT_stimuli/rescaled_final/1587_rv.mp4	0.0	712.1125049591064	0.09991908073425293
21	685.930459022522	fix_pre	0		120	19.0	2.5	/experiments/AOT/AOT_stimuli/rescaled_final/1239_fw.mp4	0.0	712.2124240398407	0.9999868869781494
21	686.9304459095001	movie	1		243	19.0	2.5	/experiments/AOT/AOT_stimuli/rescaled_final/1239_fw.mp4	0.0	713.2124109268188	2.5000109672546387
21	687.3223268985748	pulse	1	t		19.0	2.5	/experiments/AOT/AOT_stimuli/rescaled_final/1239_fw.mp4	0.0	713.6042919158936	
21	688.9138698577881	pulse	1	t		19.0	2.5	/experiments/AOT/AOT_stimuli/rescaled_final/1239_fw.mp4	0.0	715.1958348751068	
21	689.4304568767548	fix_post	2		12	19.0	2.5	/experiments/AOT/AOT_stimuli/rescaled_final/1239_fw.mp4	0.0	715.7124218940735	0.10001611709594727
22	689.5304729938507	fix_pre	0		119	20.0	2.5	blank	1.0	715.8124380111694	0.9916398525238037
22	690.5139439105988	pulse	0	t		20.0	2.5	blank	1.0	716.7959089279175	
22	690.5221128463745	movie	1		301	20.0	2.5	blank	1.0	716.8040778636932	2.5083529949188232
22	692.1138608455658	pulse	1	t		20.0	2.5	blank	1.0	718.3958258628845	
22	693.0304658412933	fix_post	2		12	20.0	2.5	blank	1.0	719.3124308586121	0.09995222091674805
23	693.1304180622101	fix_pre	0		120	21.0	2.5	/experiments/AOT/AOT_stimuli/rescaled_final/0613_fw.mp4	0.0	719.4123830795288	1.0000438690185547
23	693.7139389514923	pulse	0	t		21.0	2.5	/experiments/AOT/AOT_stimuli/rescaled_final/0613_fw.mp4	0.0	719.995903968811	
23	694.1304619312286	movie	1		242	21.0	2.5	/experiments/AOT/AOT_stimuli/rescaled_final/0613_fw.mp4	0.0	720.4124269485474	2.4998719692230225
23	695.3138959407806	pulse	1	t		21.0	2.5	/experiments/AOT/AOT_stimuli/rescaled_final/0613_fw.mp4	0.0	721.5958609580994	
23	696.6303339004517	fix_post	2		12	21.0	2.5	/experiments/AOT/AOT_stimuli/rescaled_final/0613_fw.mp4	0.0	722.9122989177704	0.09996914863586426
24	696.7303030490875	fix_pre	0		120	22.0	2.5	/experiments/AOT/AOT_stimuli/rescaled_final/1637_fw.mp4	0.0	723.0122680664062	1.0000269412994385
24	696.9139239788055	pulse	0	t		22.0	2.5	/experiments/AOT/AOT_stimuli/rescaled_final/1637_fw.mp4	0.0	723.1958889961243	
24	697.730329990387	movie	1		244	22.0	2.5	/experiments/AOT/AOT_stimuli/rescaled_final/1637_fw.mp4	0.0	724.0122950077057	2.500019073486328
24	698.5138819217682	pulse	1	t		22.0	2.5	/experiments/AOT/AOT_stimuli/rescaled_final/1637_fw.mp4	0.0	724.7958469390869	
24	700.1222748756409	pulse	1	t		22.0	2.5	/experiments/AOT/AOT_stimuli/rescaled_final/1637_fw.mp4	0.0	726.4042398929596	
24	700.2303490638733	fix_post	2		12	22.0	2.5	/experiments/AOT/AOT_stimuli/rescaled_final/1637_fw.mp4	0.0	726.512314081192	0.10000300407409668
25	700.3303520679474	fix_pre	0		120	23.0	2.5	/experiments/AOT/AOT_stimuli/rescaled_final/1925_rv.mp4	0.0	726.6123170852661	1.0000507831573486
25	701.3304028511047	movie	1		245	23.0	2.5	/experiments/AOT/AOT_stimuli/rescaled_final/1925_rv.mp4	0.0	727.6123678684235	2.499927043914795
25	701.7223379611969	pulse	1	t		23.0	2.5	/experiments/AOT/AOT_stimuli/rescaled_final/1925_rv.mp4	0.0	728.0043029785156	
25	703.3147778511047	pulse	1	t		23.0	2.5	/experiments/AOT/AOT_stimuli/rescaled_final/1925_rv.mp4	0.0	729.5967428684235	
25	703.8303298950195	fix_post	2		12	23.0	2.5	/experiments/AOT/AOT_stimuli/rescaled_final/1925_rv.mp4	0.0	730.1122949123383	0.09999394416809082
26	703.9303238391876	fix_pre	0		119	24.0	2.5	/experiments/AOT/AOT_stimuli/rescaled_final/0068_rv.mp4	0.0	730.2122888565063	0.9917051792144775
26	704.9138278961182	pulse	0	t		24.0	2.5	/experiments/AOT/AOT_stimuli/rescaled_final/0068_rv.mp4	0.0	731.1957929134369	
26	704.9220290184021	movie	1		245	24.0	2.5	/experiments/AOT/AOT_stimuli/rescaled_final/0068_rv.mp4	0.0	731.2039940357208	2.5082478523254395
26	706.5222060680389	pulse	1	t		24.0	2.5	/experiments/AOT/AOT_stimuli/rescaled_final/0068_rv.mp4	0.0	732.8041710853577	
26	707.4302768707275	fix_post	2		12	24.0	2.5	/experiments/AOT/AOT_stimuli/rescaled_final/0068_rv.mp4	0.0	733.7122418880463	0.1000981330871582
27	707.5303750038147	fix_pre	0		120	25.0	2.5	/experiments/AOT/AOT_stimuli/rescaled_final/1699_rv.mp4	0.0	733.8123400211334	1.0000169277191162
27	708.1138138771057	pulse	0	t		25.0	2.5	/experiments/AOT/AOT_stimuli/rescaled_final/1699_rv.mp4	0.0	734.3957788944244	
27	708.5303919315338	movie	1		245	25.0	2.5	/experiments/AOT/AOT_stimuli/rescaled_final/1699_rv.mp4	0.0	734.8123569488525	2.500023126602173
27	709.7138559818268	pulse	1	t		25.0	2.5	/experiments/AOT/AOT_stimuli/rescaled_final/1699_rv.mp4	0.0	735.9958209991455	
27	711.030415058136	fix_post	2		12	25.0	2.5	/experiments/AOT/AOT_stimuli/rescaled_final/1699_rv.mp4	0.0	737.3123800754547	0.09984493255615234
28	711.1302599906921	fix_pre	0		120	26.0	2.5	/experiments/AOT/AOT_stimuli/rescaled_final/0967_rv.mp4	0.0	737.4122250080109	1.0000760555267334
28	711.3137469291687	pulse	0	t		26.0	2.5	/experiments/AOT/AOT_stimuli/rescaled_final/0967_rv.mp4	0.0	737.5957119464874	
28	712.1303360462189	movie	1		244	26.0	2.5	/experiments/AOT/AOT_stimuli/rescaled_final/0967_rv.mp4	0.0	738.4123010635376	2.499910831451416
28	712.913733959198	pulse	1	t		26.0	2.5	/experiments/AOT/AOT_stimuli/rescaled_final/0967_rv.mp4	0.0	739.1956989765167	
28	714.5141808986664	pulse	1	t		26.0	2.5	/experiments/AOT/AOT_stimuli/rescaled_final/0967_rv.mp4	0.0	740.7961459159851	
28	714.6302468776703	fix_post	2		12	26.0	2.5	/experiments/AOT/AOT_stimuli/rescaled_final/0967_rv.mp4	0.0	740.912211894989	0.10001611709594727
29	714.7302629947662	fix_pre	0		120	27.0	2.5	blank	1.0	741.012228012085	1.0001020431518555
29	715.7303650379181	movie	1		300	27.0	2.5	blank	1.0	742.0123300552368	2.4995179176330566
29	716.1136689186096	pulse	1	t		27.0	2.5	blank	1.0	742.3956339359283	
29	717.7137248516083	pulse	1	t		27.0	2.5	blank	1.0	743.995689868927	
29	718.2298829555511	fix_post	2		12	27.0	2.5	blank	1.0	744.5118479728699	0.10000896453857422
30	718.3298919200897	fix_pre	0		119	28.0	2.5	/experiments/AOT/AOT_stimuli/rescaled_final/1063_rv.mp4	0.0	744.6118569374084	0.9917030334472656
30	719.3140749931335	pulse	0	t		28.0	2.5	/experiments/AOT/AOT_stimuli/rescaled_final/1063_rv.mp4	0.0	745.5960400104523	
30	719.321594953537	movie	1		246	28.0	2.5	/experiments/AOT/AOT_stimuli/rescaled_final/1063_rv.mp4	0.0	745.6035599708557	2.5086541175842285
30	720.9219570159912	pulse	1	t		28.0	2.5	/experiments/AOT/AOT_stimuli/rescaled_final/1063_rv.mp4	0.0	747.2039220333099	
30	721.8302490711212	fix_post	2		12	28.0	2.5	/experiments/AOT/AOT_stimuli/rescaled_final/1063_rv.mp4	0.0	748.1122140884399	0.10001397132873535
31	721.93026304245	fix_pre	0		120	29.0	2.5	/experiments/AOT/AOT_stimuli/rescaled_final/1222_fw.mp4	0.0	748.2122280597687	0.9999899864196777
31	722.5138208866119	pulse	0	t		29.0	2.5	/experiments/AOT/AOT_stimuli/rescaled_final/1222_fw.mp4	0.0	748.7957859039307	
31	722.9302530288696	movie	1		244	29.0	2.5	/experiments/AOT/AOT_stimuli/rescaled_final/1222_fw.mp4	0.0	749.2122180461884	2.4999988079071045
31	724.1137149333954	pulse	1	t		29.0	2.5	/experiments/AOT/AOT_stimuli/rescaled_final/1222_fw.mp4	0.0	750.3956799507141	
31	725.4302518367767	fix_post	2		12	29.0	2.5	/experiments/AOT/AOT_stimuli/rescaled_final/1222_fw.mp4	0.0	751.7122168540955	0.09993815422058105
32	725.5301899909973	fix_pre	0		120	30.0	2.5	/experiments/AOT/AOT_stimuli/rescaled_final/1607_rv.mp4	0.0	751.812155008316	1.0001800060272217
32	725.7136759757996	pulse	0	t		30.0	2.5	/experiments/AOT/AOT_stimuli/rescaled_final/1607_rv.mp4	0.0	751.9956409931183	
32	726.5303699970245	movie	1		245	30.0	2.5	/experiments/AOT/AOT_stimuli/rescaled_final/1607_rv.mp4	0.0	752.8123350143433	2.4997899532318115
32	727.3136868476868	pulse	1	t		30.0	2.5	/experiments/AOT/AOT_stimuli/rescaled_final/1607_rv.mp4	0.0	753.5956518650055	
32	728.9140779972076	pulse	1	t		30.0	2.5	/experiments/AOT/AOT_stimuli/rescaled_final/1607_rv.mp4	0.0	755.1960430145264	
32	729.0301599502563	fix_post	2		12	30.0	2.5	/experiments/AOT/AOT_stimuli/rescaled_final/1607_rv.mp4	0.0	755.3121249675751	0.1000978946685791
33	729.1302578449249	fix_pre	0		120	31.0	2.5	/experiments/AOT/AOT_stimuli/rescaled_final/1710_fw.mp4	0.0	755.4122228622437	0.9999651908874512
33	730.1302230358124	movie	1		245	31.0	2.5	/experiments/AOT/AOT_stimuli/rescaled_final/1710_fw.mp4	0.0	756.4121880531311	2.499966859817505
33	730.5132949352264	pulse	1	t		31.0	2.5	/experiments/AOT/AOT_stimuli/rescaled_final/1710_fw.mp4	0.0	756.7952599525452	
33	732.1145489215851	pulse	1	t		31.0	2.5	/experiments/AOT/AOT_stimuli/rescaled_final/1710_fw.mp4	0.0	758.3965139389038	
33	732.6301898956299	fix_post	2		12	31.0	2.5	/experiments/AOT/AOT_stimuli/rescaled_final/1710_fw.mp4	0.0	758.9121549129486	0.10001206398010254
34	732.73020195961	fix_pre	0		120	32.0	2.5	/experiments/AOT/AOT_stimuli/rescaled_final/2153_rv.mp4	0.0	759.0121669769287	0.999985933303833
34	733.7144539356232	pulse	0	t		32.0	2.5	/experiments/AOT/AOT_stimuli/rescaled_final/2153_rv.mp4	0.0	759.9964189529419	
34	733.7301878929138	movie	1		244	32.0	2.5	/experiments/AOT/AOT_stimuli/rescaled_final/2153_rv.mp4	0.0	760.0121529102325	2.5083060264587402
34	735.3215789794922	pulse	1	t		32.0	2.5	/experiments/AOT/AOT_stimuli/rescaled_final/2153_rv.mp4	0.0	761.6035439968109	
34	736.2384939193726	fix_post	2		12	32.0	2.5	/experiments/AOT/AOT_stimuli/rescaled_final/2153_rv.mp4	0.0	762.5204589366913	0.09998393058776855
35	736.3384778499603	fix_pre	0		120	33.0	2.5	blank	1.0	762.620442867279	0.9999899864196777
35	736.9137279987335	pulse	0	t		33.0	2.5	blank	1.0	763.1956930160522	
35	737.33846783638	movie	1		300	33.0	2.5	blank	1.0	763.6204328536987	2.500005006790161
35	738.5137119293213	pulse	1	t		33.0	2.5	blank	1.0	764.79567694664	
35	739.8384728431702	fix_post	2		12	33.0	2.5	blank	1.0	766.1204378604889	0.10008502006530762
36	739.9385578632355	fix_pre	0		120	34.0	2.5	/experiments/AOT/AOT_stimuli/rescaled_final/1239_rv.mp4	0.0	766.2205228805542	0.9998869895935059
36	740.1136639118195	pulse	0	t		34.0	2.5	/experiments/AOT/AOT_stimuli/rescaled_final/1239_rv.mp4	0.0	766.3956289291382	
36	740.938444852829	movie	1		244	34.0	2.5	/experiments/AOT/AOT_stimuli/rescaled_final/1239_rv.mp4	0.0	767.2204098701477	2.500068187713623
36	741.7136778831482	pulse	1	t		34.0	2.5	/experiments/AOT/AOT_stimuli/rescaled_final/1239_rv.mp4	0.0	767.9956429004669	
36	743.3136768341064	pulse	1	t		34.0	2.5	/experiments/AOT/AOT_stimuli/rescaled_final/1239_rv.mp4	0.0	769.5956418514252	
36	743.4385130405426	fix_post	2		12	34.0	2.5	/experiments/AOT/AOT_stimuli/rescaled_final/1239_rv.mp4	0.0	769.7204780578613	0.09992694854736328
37	743.53843998909	fix_pre	0		120	35.0	2.5	/experiments/AOT/AOT_stimuli/rescaled_final/0795_fw.mp4	0.0	769.8204050064087	1.0000319480895996
37	744.5384719371796	movie	1		244	35.0	2.5	/experiments/AOT/AOT_stimuli/rescaled_final/0795_fw.mp4	0.0	770.8204369544983	2.500092029571533
37	744.9136328697205	pulse	1	t		35.0	2.5	/experiments/AOT/AOT_stimuli/rescaled_final/0795_fw.mp4	0.0	771.1955978870392	
37	746.5136790275574	pulse	1	t		35.0	2.5	/experiments/AOT/AOT_stimuli/rescaled_final/0795_fw.mp4	0.0	772.7956440448761	
37	747.0385639667511	fix_post	2		12	35.0	2.5	/experiments/AOT/AOT_stimuli/rescaled_final/0795_fw.mp4	0.0	773.3205289840698	0.09988903999328613
38	747.1384530067444	fix_pre	0		118	36.0	2.5	/experiments/AOT/AOT_stimuli/rescaled_final/0149_fw.mp4	0.0	773.4204180240631	0.9832680225372314
38	748.1136009693146	pulse	0	t		36.0	2.5	/experiments/AOT/AOT_stimuli/rescaled_final/0149_fw.mp4	0.0	774.3955659866333	
38	748.1217210292816	movie	1		245	36.0	2.5	/experiments/AOT/AOT_stimuli/rescaled_final/0149_fw.mp4	0.0	774.4036860466003	2.508424997329712
38	749.7219698429108	pulse	1	t		36.0	2.5	/experiments/AOT/AOT_stimuli/rescaled_final/0149_fw.mp4	0.0	776.0039348602295	
38	750.6301460266113	fix_post	2		12	36.0	2.5	/experiments/AOT/AOT_stimuli/rescaled_final/0149_fw.mp4	0.0	776.91211104393	0.09997200965881348
39	750.7301180362701	fix_pre	0		120	37.0	2.5	/experiments/AOT/AOT_stimuli/rescaled_final/1293_fw.mp4	0.0	777.0120830535889	1.0000379085540771
39	751.3143470287323	pulse	0	t		37.0	2.5	/experiments/AOT/AOT_stimuli/rescaled_final/1293_fw.mp4	0.0	777.596312046051	
39	751.7301559448242	movie	1		244	37.0	2.5	/experiments/AOT/AOT_stimuli/rescaled_final/1293_fw.mp4	0.0	778.012120962143	2.4999821186065674
39	752.9136588573456	pulse	1	t		37.0	2.5	/experiments/AOT/AOT_stimuli/rescaled_final/1293_fw.mp4	0.0	779.1956238746643	
39	754.2301380634308	fix_post	2		12	37.0	2.5	/experiments/AOT/AOT_stimuli/rescaled_final/1293_fw.mp4	0.0	780.5121030807495	0.09996795654296875
40	754.3301060199738	fix_pre	0		120	38.0	2.5	/experiments/AOT/AOT_stimuli/rescaled_final/0799_fw.mp4	0.0	780.6120710372925	0.9999608993530273
40	754.5135500431061	pulse	0	t		38.0	2.5	/experiments/AOT/AOT_stimuli/rescaled_final/0799_fw.mp4	0.0	780.7955150604248	
40	755.3300669193268	movie	1		242	38.0	2.5	/experiments/AOT/AOT_stimuli/rescaled_final/0799_fw.mp4	0.0	781.6120319366455	2.5000720024108887
40	756.1135900020599	pulse	1	t		38.0	2.5	/experiments/AOT/AOT_stimuli/rescaled_final/0799_fw.mp4	0.0	782.3955550193787	
40	757.7219500541687	pulse	1	t		38.0	2.5	/experiments/AOT/AOT_stimuli/rescaled_final/0799_fw.mp4	0.0	784.0039150714874	
40	757.8301389217377	fix_post	2		12	38.0	2.5	/experiments/AOT/AOT_stimuli/rescaled_final/0799_fw.mp4	0.0	784.1121039390564	0.09988212585449219
41	757.9300210475922	fix_pre	0		120	39.0	2.5	/experiments/AOT/AOT_stimuli/rescaled_final/1632_fw.mp4	0.0	784.2119860649109	1.0000967979431152
41	758.9301178455353	movie	1		244	39.0	2.5	/experiments/AOT/AOT_stimuli/rescaled_final/1632_fw.mp4	0.0	785.212082862854	2.5000040531158447
41	759.3137919902802	pulse	1	t		39.0	2.5	/experiments/AOT/AOT_stimuli/rescaled_final/1632_fw.mp4	0.0	785.5957570075989	
41	760.9135730266571	pulse	1	t		39.0	2.5	/experiments/AOT/AOT_stimuli/rescaled_final/1632_fw.mp4	0.0	787.1955380439758	
41	761.4301218986511	fix_post	2		12	39.0	2.5	/experiments/AOT/AOT_stimuli/rescaled_final/1632_fw.mp4	0.0	787.7120869159698	0.10000205039978027
42	761.5301239490509	fix_pre	0		119	40.0	2.5	/experiments/AOT/AOT_stimuli/rescaled_final/1002_fw.mp4	0.0	787.8120889663696	0.9916079044342041
42	762.5135200023651	pulse	0	t		40.0	2.5	/experiments/AOT/AOT_stimuli/rescaled_final/1002_fw.mp4	0.0	788.7954850196838	
42	762.5217318534851	movie	1		244	40.0	2.5	/experiments/AOT/AOT_stimuli/rescaled_final/1002_fw.mp4	0.0	788.8036968708038	2.508310079574585
42	764.1135859489441	pulse	1	t		40.0	2.5	/experiments/AOT/AOT_stimuli/rescaled_final/1002_fw.mp4	0.0	790.3955509662628	
42	765.0300419330597	fix_post	2		12	40.0	2.5	/experiments/AOT/AOT_stimuli/rescaled_final/1002_fw.mp4	0.0	791.3120069503784	0.10005497932434082
43	765.130096912384	fix_pre	0		120	41.0	2.5	blank	1.0	791.4120619297028	1.0000519752502441
43	765.7143478393555	pulse	0	t		41.0	2.5	blank	1.0	791.9963128566742	
43	766.1301488876343	movie	1		300	41.0	2.5	blank	1.0	792.412113904953	2.4999489784240723
43	767.3143739700317	pulse	1	t		41.0	2.5	blank	1.0	793.5963389873505	
43	768.6300978660583	fix_post	2		12	41.0	2.5	blank	1.0	794.9120628833771	0.09998011589050293
44	768.7300779819489	fix_pre	0		120	42.0	2.5	/experiments/AOT/AOT_stimuli/rescaled_final/1628_rv.mp4	0.0	795.0120429992676	0.999506950378418
44	768.9144248962402	pulse	0	t		42.0	2.5	/experiments/AOT/AOT_stimuli/rescaled_final/1628_rv.mp4	0.0	795.196389913559	
44	769.7295849323273	movie	1		242	42.0	2.5	/experiments/AOT/AOT_stimuli/rescaled_final/1628_rv.mp4	0.0	796.011549949646	2.5004470348358154
44	770.5144639015198	pulse	1	t		42.0	2.5	/experiments/AOT/AOT_stimuli/rescaled_final/1628_rv.mp4	0.0	796.7964289188385	
44	772.1219658851624	pulse	1	t		42.0	2.5	/experiments/AOT/AOT_stimuli/rescaled_final/1628_rv.mp4	0.0	798.4039309024811	
44	772.2300319671631	fix_post	2		12	42.0	2.5	/experiments/AOT/AOT_stimuli/rescaled_final/1628_rv.mp4	0.0	798.5119969844818	0.09997797012329102
45	772.3300099372864	fix_pre	0		120	43.0	2.5	/experiments/AOT/AOT_stimuli/rescaled_final/1239_rv.mp4	0.0	798.6119749546051	1.0000181198120117
45	773.3300280570984	movie	1		246	43.0	2.5	/experiments/AOT/AOT_stimuli/rescaled_final/1239_rv.mp4	0.0	799.6119930744171	2.500081777572632
45	773.7218940258026	pulse	1	t		43.0	2.5	/experiments/AOT/AOT_stimuli/rescaled_final/1239_rv.mp4	0.0	800.0038590431213	
45	775.3134970664978	pulse	1	t		43.0	2.5	/experiments/AOT/AOT_stimuli/rescaled_final/1239_rv.mp4	0.0	801.5954620838165	
45	775.830109834671	fix_post	2		12	43.0	2.5	/experiments/AOT/AOT_stimuli/rescaled_final/1239_rv.mp4	0.0	802.1120748519897	0.09959602355957031
46	775.9297058582306	fix_pre	0		119	44.0	2.5	/experiments/AOT/AOT_stimuli/rescaled_final/0781_fw.mp4	0.0	802.2116708755493	0.9922981262207031
46	776.9136970043182	pulse	0	t		44.0	2.5	/experiments/AOT/AOT_stimuli/rescaled_final/0781_fw.mp4	0.0	803.195662021637	
46	776.9220039844513	movie	1		245	44.0	2.5	/experiments/AOT/AOT_stimuli/rescaled_final/0781_fw.mp4	0.0	803.20396900177	2.508017063140869
46	778.5144238471985	pulse	1	t		44.0	2.5	/experiments/AOT/AOT_stimuli/rescaled_final/0781_fw.mp4	0.0	804.7963888645172	
46	779.4300210475922	fix_post	2		12	44.0	2.5	/experiments/AOT/AOT_stimuli/rescaled_final/0781_fw.mp4	0.0	805.7119860649109	0.09999680519104004
47	779.5300178527832	fix_pre	0		120	45.0	2.5	/experiments/AOT/AOT_stimuli/rescaled_final/1169_rv.mp4	0.0	805.8119828701019	0.9999661445617676
47	780.1135530471802	pulse	0	t		45.0	2.5	/experiments/AOT/AOT_stimuli/rescaled_final/1169_rv.mp4	0.0	806.3955180644989	
47	780.529983997345	movie	1		245	45.0	2.5	/experiments/AOT/AOT_stimuli/rescaled_final/1169_rv.mp4	0.0	806.8119490146637	2.4999639987945557
47	781.7148959636688	pulse	1	t		45.0	2.5	/experiments/AOT/AOT_stimuli/rescaled_final/1169_rv.mp4	0.0	807.9968609809875	
47	783.0299479961395	fix_post	2		12	45.0	2.5	/experiments/AOT/AOT_stimuli/rescaled_final/1169_rv.mp4	0.0	809.3119130134583	0.09993791580200195
48	783.1298859119415	fix_pre	0		120	46.0	2.5	/experiments/AOT/AOT_stimuli/rescaled_final/1818_fw.mp4	0.0	809.4118509292603	1.0000760555267334
48	783.3141920566559	pulse	0	t		46.0	2.5	/experiments/AOT/AOT_stimuli/rescaled_final/1818_fw.mp4	0.0	809.5961570739746	
48	784.1299619674683	movie	1		243	46.0	2.5	/experiments/AOT/AOT_stimuli/rescaled_final/1818_fw.mp4	0.0	810.411926984787	2.499969005584717
48	784.9142270088196	pulse	1	t		46.0	2.5	/experiments/AOT/AOT_stimuli/rescaled_final/1818_fw.mp4	0.0	811.1961920261383	
48	786.5143048763275	pulse	1	t		46.0	2.5	/experiments/AOT/AOT_stimuli/rescaled_final/1818_fw.mp4	0.0	812.7962698936462	
48	786.629930973053	fix_post	2		12	46.0	2.5	/experiments/AOT/AOT_stimuli/rescaled_final/1818_fw.mp4	0.0	812.9118959903717	0.09995698928833008
49	786.7298879623413	fix_pre	0		120	47.0	2.5	/experiments/AOT/AOT_stimuli/rescaled_final/0571_rv.mp4	0.0	813.01185297966	1.0001158714294434
49	787.7300038337708	movie	1		243	47.0	2.5	/experiments/AOT/AOT_stimuli/rescaled_final/0571_rv.mp4	0.0	814.0119688510895	2.4994921684265137
49	788.1218328475952	pulse	1	t		47.0	2.5	/experiments/AOT/AOT_stimuli/rescaled_final/0571_rv.mp4	0.0	814.4037978649139	
49	789.7143330574036	pulse	1	t		47.0	2.5	/experiments/AOT/AOT_stimuli/rescaled_final/0571_rv.mp4	0.0	815.9962980747223	
49	790.2294960021973	fix_post	2		12	47.0	2.5	/experiments/AOT/AOT_stimuli/rescaled_final/0571_rv.mp4	0.0	816.511461019516	0.1004340648651123
50	790.3299300670624	fix_pre	0		119	48.0	2.5	blank	1.0	816.6118950843811	0.9917309284210205
50	791.3135139942169	pulse	0	t		48.0	2.5	blank	1.0	817.5954790115356	
50	791.3216609954834	movie	1		301	48.0	2.5	blank	1.0	817.6036260128021	2.508220911026001
50	792.9133939743042	pulse	1	t		48.0	2.5	blank	1.0	819.1953589916229	
50	793.8298819065094	fix_post	2		12	48.0	2.5	blank	1.0	820.1118469238281	0.10002613067626953
51	793.9299080371857	fix_pre	0		120	49.0	2.5	/experiments/AOT/AOT_stimuli/rescaled_final/1249_fw.mp4	0.0	820.2118730545044	1.0000360012054443
51	794.513365983963	pulse	0	t		49.0	2.5	/experiments/AOT/AOT_stimuli/rescaled_final/1249_fw.mp4	0.0	820.7953310012817	
51	794.9299440383911	movie	1		244	49.0	2.5	/experiments/AOT/AOT_stimuli/rescaled_final/1249_fw.mp4	0.0	821.2119090557098	2.4998857975006104
51	796.113410949707	pulse	1	t		49.0	2.5	/experiments/AOT/AOT_stimuli/rescaled_final/1249_fw.mp4	0.0	822.3953759670258	
51	797.4298298358917	fix_post	2		12	49.0	2.5	/experiments/AOT/AOT_stimuli/rescaled_final/1249_fw.mp4	0.0	823.7117948532104	0.10009622573852539
52	797.5299260616302	fix_pre	0		120	50.0	2.5	/experiments/AOT/AOT_stimuli/rescaled_final/0069_fw.mp4	0.0	823.811891078949	0.9999608993530273
52	797.7142570018768	pulse	0	t		50.0	2.5	/experiments/AOT/AOT_stimuli/rescaled_final/0069_fw.mp4	0.0	823.9962220191956	
52	798.5298869609833	movie	1		246	50.0	2.5	/experiments/AOT/AOT_stimuli/rescaled_final/0069_fw.mp4	0.0	824.811851978302	2.499945878982544
52	799.3141980171204	pulse	1	t		50.0	2.5	/experiments/AOT/AOT_stimuli/rescaled_final/0069_fw.mp4	0.0	825.5961630344391	
52	800.9184930324554	pulse	1	t		50.0	2.5	/experiments/AOT/AOT_stimuli/rescaled_final/0069_fw.mp4	0.0	827.2004580497742	
52	801.0298328399658	fix_post	2		12	50.0	2.5	/experiments/AOT/AOT_stimuli/rescaled_final/0069_fw.mp4	0.0	827.3117978572845	0.10002708435058594
53	801.1298599243164	fix_pre	0		120	51.0	2.5	/experiments/AOT/AOT_stimuli/rescaled_final/0170_rv.mp4	0.0	827.4118249416351	1.0000360012054443
53	802.1298959255219	movie	1		242	51.0	2.5	/experiments/AOT/AOT_stimuli/rescaled_final/0170_rv.mp4	0.0	828.4118609428406	2.4999470710754395
53	802.5216810703278	pulse	1	t		51.0	2.5	/experiments/AOT/AOT_stimuli/rescaled_final/0170_rv.mp4	0.0	828.8036460876465	
53	804.1141450405121	pulse	1	t		51.0	2.5	/experiments/AOT/AOT_stimuli/rescaled_final/0170_rv.mp4	0.0	830.3961100578308	
53	804.6298429965973	fix_post	2		12	51.0	2.5	/experiments/AOT/AOT_stimuli/rescaled_final/0170_rv.mp4	0.0	830.911808013916	0.09998703002929688
54	804.7298300266266	fix_pre	0		120	52.0	2.5	/experiments/AOT/AOT_stimuli/rescaled_final/1605_fw.mp4	0.0	831.0117950439453	0.9999270439147949
54	805.7140970230103	pulse	0	t		52.0	2.5	/experiments/AOT/AOT_stimuli/rescaled_final/1605_fw.mp4	0.0	831.996062040329	
54	805.7297570705414	movie	1		245	52.0	2.5	/experiments/AOT/AOT_stimuli/rescaled_final/1605_fw.mp4	0.0	832.0117220878601	2.5083718299865723
54	807.3217968940735	pulse	1	t		52.0	2.5	/experiments/AOT/AOT_stimuli/rescaled_final/1605_fw.mp4	0.0	833.6037619113922	
54	808.238128900528	fix_post	2		12	52.0	2.5	/experiments/AOT/AOT_stimuli/rescaled_final/1605_fw.mp4	0.0	834.5200939178467	0.10008597373962402
55	808.3382148742676	fix_pre	0		120	53.0	2.5	/experiments/AOT/AOT_stimuli/rescaled_final/0631_fw.mp4	0.0	834.6201798915863	0.9999511241912842
55	808.9133679866791	pulse	0	t		53.0	2.5	/experiments/AOT/AOT_stimuli/rescaled_final/0631_fw.mp4	0.0	835.1953330039978	
55	809.3381659984589	movie	1		244	53.0	2.5	/experiments/AOT/AOT_stimuli/rescaled_final/0631_fw.mp4	0.0	835.6201310157776	2.500006914138794
55	810.5217380523682	pulse	1	t		53.0	2.5	/experiments/AOT/AOT_stimuli/rescaled_final/0631_fw.mp4	0.0	836.8037030696869	
55	811.8381729125977	fix_post	2		12	53.0	2.5	/experiments/AOT/AOT_stimuli/rescaled_final/0631_fw.mp4	0.0	838.1201379299164	0.10001707077026367
56	811.9381899833679	fix_pre	0		120	54.0	2.5	/experiments/AOT/AOT_stimuli/rescaled_final/1480_fw.mp4	0.0	838.2201550006866	1.000006914138794
56	812.113312959671	pulse	0	t		54.0	2.5	/experiments/AOT/AOT_stimuli/rescaled_final/1480_fw.mp4	0.0	838.3952779769897	
56	812.9381968975067	movie	1		244	54.0	2.5	/experiments/AOT/AOT_stimuli/rescaled_final/1480_fw.mp4	0.0	839.2201619148254	2.4999570846557617
56	813.7142448425293	pulse	1	t		54.0	2.5	/experiments/AOT/AOT_stimuli/rescaled_final/1480_fw.mp4	0.0	839.996209859848	
56	815.3202159404755	pulse	1	t		54.0	2.5	/experiments/AOT/AOT_stimuli/rescaled_final/1480_fw.mp4	0.0	841.6021809577942	
56	815.4381539821625	fix_post	2		12	54.0	2.5	/experiments/AOT/AOT_stimuli/rescaled_final/1480_fw.mp4	0.0	841.7201189994812	0.09992790222167969
57	815.5380818843842	fix_pre	0		120	55.0	2.5	/experiments/AOT/AOT_stimuli/rescaled_final/0679_fw.mp4	0.0	841.8200469017029	1.000244140625
57	816.5383260250092	movie	1		243	55.0	2.5	/experiments/AOT/AOT_stimuli/rescaled_final/0679_fw.mp4	0.0	842.8202910423279	2.4997730255126953
57	816.9210789203644	pulse	1	t		55.0	2.5	/experiments/AOT/AOT_stimuli/rescaled_final/0679_fw.mp4	0.0	843.2030439376831	
57	818.5141909122467	pulse	1	t		55.0	2.5	/experiments/AOT/AOT_stimuli/rescaled_final/0679_fw.mp4	0.0	844.7961559295654	
57	819.0380990505219	fix_post	2		12	55.0	2.5	/experiments/AOT/AOT_stimuli/rescaled_final/0679_fw.mp4	0.0	845.3200640678406	0.09997987747192383
58	819.1380789279938	fix_pre	0		119	56.0	2.5	blank	1.0	845.4200439453125	0.9916610717773438
58	820.1141510009766	pulse	0	t		56.0	2.5	blank	1.0	846.3961160182953	
58	820.1297399997711	movie	1		301	56.0	2.5	blank	1.0	846.4117050170898	2.5084328651428223
58	821.7139809131622	pulse	1	t		56.0	2.5	blank	1.0	847.995945930481	
58	822.6381728649139	fix_post	2		12	56.0	2.5	blank	1.0	848.9201378822327	0.09987711906433105
59	822.7380499839783	fix_pre	0		120	57.0	2.5	/experiments/AOT/AOT_stimuli/rescaled_final/0381_fw.mp4	0.0	849.020015001297	1.0001609325408936
59	823.3140079975128	pulse	0	t		57.0	2.5	/experiments/AOT/AOT_stimuli/rescaled_final/0381_fw.mp4	0.0	849.5959730148315	
59	823.7382109165192	movie	1		244	57.0	2.5	/experiments/AOT/AOT_stimuli/rescaled_final/0381_fw.mp4	0.0	850.0201759338379	2.499882936477661
59	824.9217019081116	pulse	1	t		57.0	2.5	/experiments/AOT/AOT_stimuli/rescaled_final/0381_fw.mp4	0.0	851.2036669254303	
59	826.2380938529968	fix_post	2		12	57.0	2.5	/experiments/AOT/AOT_stimuli/rescaled_final/0381_fw.mp4	0.0	852.5200588703156	0.09999513626098633
60	826.3380889892578	fix_pre	0		120	58.0	2.5	/experiments/AOT/AOT_stimuli/rescaled_final/1479_fw.mp4	0.0	852.6200540065765	1.0000848770141602
60	826.5132110118866	pulse	0	t		58.0	2.5	/experiments/AOT/AOT_stimuli/rescaled_final/1479_fw.mp4	0.0	852.7951760292053	
60	827.338173866272	movie	1		243	58.0	2.5	/experiments/AOT/AOT_stimuli/rescaled_final/1479_fw.mp4	0.0	853.6201388835907	2.499967098236084
60	828.1132328510284	pulse	1	t		58.0	2.5	/experiments/AOT/AOT_stimuli/rescaled_final/1479_fw.mp4	0.0	854.3951978683472	
60	829.7200729846954	pulse	1	t		58.0	2.5	/experiments/AOT/AOT_stimuli/rescaled_final/1479_fw.mp4	0.0	856.0020380020142	
60	829.838140964508	fix_post	2		12	58.0	2.5	/experiments/AOT/AOT_stimuli/rescaled_final/1479_fw.mp4	0.0	856.1201059818268	0.09948587417602539
61	829.9376268386841	fix_pre	0		120	59.0	2.5	/experiments/AOT/AOT_stimuli/rescaled_final/1845_fw.mp4	0.0	856.2195918560028	1.0006861686706543
61	830.9383130073547	movie	1		244	59.0	2.5	/experiments/AOT/AOT_stimuli/rescaled_final/1845_fw.mp4	0.0	857.2202780246735	2.4997620582580566
61	831.3213429450989	pulse	1	t		59.0	2.5	/experiments/AOT/AOT_stimuli/rescaled_final/1845_fw.mp4	0.0	857.6033079624176	
61	832.9143269062042	pulse	1	t		59.0	2.5	/experiments/AOT/AOT_stimuli/rescaled_final/1845_fw.mp4	0.0	859.196291923523	
61	833.4380750656128	fix_post	2		12	59.0	2.5	/experiments/AOT/AOT_stimuli/rescaled_final/1845_fw.mp4	0.0	859.7200400829315	0.1001119613647461
62	833.5381870269775	fix_pre	0		119	60.0	2.5	/experiments/AOT/AOT_stimuli/rescaled_final/0288_fw.mp4	0.0	859.8201520442963	0.9915058612823486
62	834.5141379833221	pulse	0	t		60.0	2.5	/experiments/AOT/AOT_stimuli/rescaled_final/0288_fw.mp4	0.0	860.7961030006409	
62	834.5296928882599	movie	1		247	60.0	2.5	/experiments/AOT/AOT_stimuli/rescaled_final/0288_fw.mp4	0.0	860.8116579055786	2.5083680152893066
62	836.1208629608154	pulse	1	t		60.0	2.5	/experiments/AOT/AOT_stimuli/rescaled_final/0288_fw.mp4	0.0	862.4028279781342	
62	837.0380609035492	fix_post	2		12	60.0	2.5	/experiments/AOT/AOT_stimuli/rescaled_final/0288_fw.mp4	0.0	863.3200259208679	0.09998607635498047
63	837.1380469799042	fix_pre	0		120	61.0	2.5	blank	1.0	863.4200119972229	0.9998760223388672
63	837.7138538360596	pulse	0	t		61.0	2.5	blank	1.0	863.9958188533783	
63	838.137923002243	movie	1		300	61.0	2.5	blank	1.0	864.4198880195618	2.500164031982422
63	839.313915014267	pulse	1	t		61.0	2.5	blank	1.0	865.5958800315857	
63	840.6380870342255	fix_post	2		12	61.0	2.5	blank	1.0	866.9200520515442	0.09991097450256348
64	840.737998008728	fix_pre	0		120	62.0	2.5	/experiments/AOT/AOT_stimuli/rescaled_final/0867_fw.mp4	0.0	867.0199630260468	1.000025987625122
64	840.9139368534088	pulse	0	t		62.0	2.5	/experiments/AOT/AOT_stimuli/rescaled_final/0867_fw.mp4	0.0	867.1959018707275	
64	841.7380239963531	movie	1		243	62.0	2.5	/experiments/AOT/AOT_stimuli/rescaled_final/0867_fw.mp4	0.0	868.0199890136719	2.499940872192383
64	842.5139889717102	pulse	1	t		62.0	2.5	/experiments/AOT/AOT_stimuli/rescaled_final/0867_fw.mp4	0.0	868.7959539890289	
64	844.119735956192	pulse	1	t		62.0	2.5	/experiments/AOT/AOT_stimuli/rescaled_final/0867_fw.mp4	0.0	870.4017009735107	
64	844.2379648685455	fix_post	2		12	62.0	2.5	/experiments/AOT/AOT_stimuli/rescaled_final/0867_fw.mp4	0.0	870.5199298858643	0.09960412979125977
65	844.3375689983368	fix_pre	0		120	63.0	2.5	/experiments/AOT/AOT_stimuli/rescaled_final/0101_fw.mp4	0.0	870.6195340156555	1.0004160404205322
65	845.3379850387573	movie	1		243	63.0	2.5	/experiments/AOT/AOT_stimuli/rescaled_final/0101_fw.mp4	0.0	871.619950056076	2.500013828277588
65	845.7225170135498	pulse	1	t		63.0	2.5	/experiments/AOT/AOT_stimuli/rescaled_final/0101_fw.mp4	0.0	872.0044820308685	
65	847.3139719963074	pulse	1	t		63.0	2.5	/experiments/AOT/AOT_stimuli/rescaled_final/0101_fw.mp4	0.0	873.5959370136261	
65	847.8379988670349	fix_post	2		12	63.0	2.5	/experiments/AOT/AOT_stimuli/rescaled_final/0101_fw.mp4	0.0	874.1199638843536	0.09990215301513672
66	847.93790102005	fix_pre	0		119	64.0	2.5	/experiments/AOT/AOT_stimuli/rescaled_final/1994_fw.mp4	0.0	874.2198660373688	0.9917559623718262
66	848.9139039516449	pulse	0	t		64.0	2.5	/experiments/AOT/AOT_stimuli/rescaled_final/1994_fw.mp4	0.0	875.1958689689636	
66	848.9296569824219	movie	1		248	64.0	2.5	/experiments/AOT/AOT_stimuli/rescaled_final/1994_fw.mp4	0.0	875.2116219997406	2.5081870555877686
66	850.5210218429565	pulse	1	t		64.0	2.5	/experiments/AOT/AOT_stimuli/rescaled_final/1994_fw.mp4	0.0	876.8029868602753	
66	851.4378440380096	fix_post	2		12	64.0	2.5	/experiments/AOT/AOT_stimuli/rescaled_final/1994_fw.mp4	0.0	877.7198090553284	0.10009980201721191
67	851.5379438400269	fix_pre	0		120	65.0	2.5	/experiments/AOT/AOT_stimuli/rescaled_final/0250_rv.mp4	0.0	877.8199088573456	0.9999861717224121
67	852.1139988899231	pulse	0	t		65.0	2.5	/experiments/AOT/AOT_stimuli/rescaled_final/0250_rv.mp4	0.0	878.3959639072418	
67	852.5379300117493	movie	1		244	65.0	2.5	/experiments/AOT/AOT_stimuli/rescaled_final/0250_rv.mp4	0.0	878.819895029068	2.50002384185791
67	853.7214229106903	pulse	1	t		65.0	2.5	/experiments/AOT/AOT_stimuli/rescaled_final/0250_rv.mp4	0.0	880.003387928009	
67	855.0379538536072	fix_post	2		12	65.0	2.5	/experiments/AOT/AOT_stimuli/rescaled_final/0250_rv.mp4	0.0	881.3199188709259	0.09993910789489746
68	855.1378929615021	fix_pre	0		120	66.0	2.5	/experiments/AOT/AOT_stimuli/rescaled_final/0787_rv.mp4	0.0	881.4198579788208	1.0000848770141602
68	855.31387591362	pulse	0	t		66.0	2.5	/experiments/AOT/AOT_stimuli/rescaled_final/0787_rv.mp4	0.0	881.5958409309387	
68	856.1379778385162	movie	1		245	66.0	2.5	/experiments/AOT/AOT_stimuli/rescaled_final/0787_rv.mp4	0.0	882.419942855835	2.4998891353607178
68	856.9139759540558	pulse	1	t		66.0	2.5	/experiments/AOT/AOT_stimuli/rescaled_final/0787_rv.mp4	0.0	883.1959409713745	
68	858.5173678398132	pulse	1	t		66.0	2.5	/experiments/AOT/AOT_stimuli/rescaled_final/0787_rv.mp4	0.0	884.799332857132	
68	858.637866973877	fix_post	2		12	66.0	2.5	/experiments/AOT/AOT_stimuli/rescaled_final/0787_rv.mp4	0.0	884.9198319911957	0.10001993179321289
69	858.7378869056702	fix_pre	0		120	67.0	2.5	/experiments/AOT/AOT_stimuli/rescaled_final/0856_rv.mp4	0.0	885.0198519229889	0.9999711513519287
69	859.7378580570221	movie	1		243	67.0	2.5	/experiments/AOT/AOT_stimuli/rescaled_final/0856_rv.mp4	0.0	886.0198230743408	2.50002384185791
69	860.1225278377533	pulse	1	t		67.0	2.5	/experiments/AOT/AOT_stimuli/rescaled_final/0856_rv.mp4	0.0	886.404492855072	
69	861.7214159965515	pulse	1	t		67.0	2.5	/experiments/AOT/AOT_stimuli/rescaled_final/0856_rv.mp4	0.0	888.0033810138702	
69	862.23788189888	fix_post	2		12	67.0	2.5	/experiments/AOT/AOT_stimuli/rescaled_final/0856_rv.mp4	0.0	888.5198469161987	0.10001707077026367
70	862.3378989696503	fix_pre	0		119	68.0	2.5	/experiments/AOT/AOT_stimuli/rescaled_final/0465_fw.mp4	0.0	888.619863986969	0.9915928840637207
70	863.321338891983	pulse	0	t		68.0	2.5	/experiments/AOT/AOT_stimuli/rescaled_final/0465_fw.mp4	0.0	889.6033039093018	
70	863.329491853714	movie	1		243	68.0	2.5	/experiments/AOT/AOT_stimuli/rescaled_final/0465_fw.mp4	0.0	889.6114568710327	2.507956027984619
70	864.9210519790649	pulse	1	t		68.0	2.5	/experiments/AOT/AOT_stimuli/rescaled_final/0465_fw.mp4	0.0	891.2030169963837	
70	865.8374478816986	fix_post	2		12	68.0	2.5	/experiments/AOT/AOT_stimuli/rescaled_final/0465_fw.mp4	0.0	892.1194128990173	0.10039114952087402
71	865.9378390312195	fix_pre	0		120	69.0	2.5	blank	1.0	892.2198040485382	1.000082015991211
71	866.5139079093933	pulse	0	t		69.0	2.5	blank	1.0	892.795872926712	
71	866.9379210472107	movie	1		300	69.0	2.5	blank	1.0	893.2198860645294	2.4999499320983887
71	868.11376786232	pulse	1	t		69.0	2.5	blank	1.0	894.3957328796387	
71	869.4378709793091	fix_post	2		12	69.0	2.5	blank	1.0	895.7198359966278	0.10013890266418457
72	869.5380098819733	fix_pre	0		120	70.0	2.5	/experiments/AOT/AOT_stimuli/rescaled_final/0844_rv.mp4	0.0	895.819974899292	0.99983811378479
72	869.713721036911	pulse	0	t		70.0	2.5	/experiments/AOT/AOT_stimuli/rescaled_final/0844_rv.mp4	0.0	895.9956860542297	
72	870.537847995758	movie	1		247	70.0	2.5	/experiments/AOT/AOT_stimuli/rescaled_final/0844_rv.mp4	0.0	896.8198130130768	2.50002384185791
72	871.3139200210571	pulse	1	t		70.0	2.5	/experiments/AOT/AOT_stimuli/rescaled_final/0844_rv.mp4	0.0	897.5958850383759	
72	872.9135329723358	pulse	1	t		70.0	2.5	/experiments/AOT/AOT_stimuli/rescaled_final/0844_rv.mp4	0.0	899.1954979896545	
72	873.037871837616	fix_post	2		12	70.0	2.5	/experiments/AOT/AOT_stimuli/rescaled_final/0844_rv.mp4	0.0	899.3198368549347	0.09999918937683105
73	873.1378710269928	fix_pre	0		120	71.0	2.5	/experiments/AOT/AOT_stimuli/rescaled_final/0275_fw.mp4	0.0	899.4198360443115	0.9999878406524658
73	874.1378588676453	movie	1		245	71.0	2.5	/experiments/AOT/AOT_stimuli/rescaled_final/0275_fw.mp4	0.0	900.419823884964	2.4999430179595947
73	874.521075963974	pulse	1	t		71.0	2.5	/experiments/AOT/AOT_stimuli/rescaled_final/0275_fw.mp4	0.0	900.8030409812927	
73	876.1139478683472	pulse	1	t		71.0	2.5	/experiments/AOT/AOT_stimuli/rescaled_final/0275_fw.mp4	0.0	902.3959128856659	
73	876.6378018856049	fix_post	2		12	71.0	2.5	/experiments/AOT/AOT_stimuli/rescaled_final/0275_fw.mp4	0.0	902.9197669029236	0.1000070571899414
74	876.7378089427948	fix_pre	0		119	72.0	2.5	/experiments/AOT/AOT_stimuli/rescaled_final/1293_rv.mp4	0.0	903.0197739601135	0.9916040897369385
74	877.7213459014893	pulse	0	t		72.0	2.5	/experiments/AOT/AOT_stimuli/rescaled_final/1293_rv.mp4	0.0	904.003310918808	
74	877.7294130325317	movie	1		244	72.0	2.5	/experiments/AOT/AOT_stimuli/rescaled_final/1293_rv.mp4	0.0	904.0113780498505	2.507943868637085
74	879.3208808898926	pulse	1	t		72.0	2.5	/experiments/AOT/AOT_stimuli/rescaled_final/1293_rv.mp4	0.0	905.6028459072113	
74	880.2373569011688	fix_post	2		12	72.0	2.5	/experiments/AOT/AOT_stimuli/rescaled_final/1293_rv.mp4	0.0	906.5193219184875	0.10009598731994629
75	880.3374528884888	fix_pre	0		120	73.0	2.5	/experiments/AOT/AOT_stimuli/rescaled_final/0574_fw.mp4	0.0	906.6194179058075	1.0003859996795654
75	880.9212820529938	pulse	0	t		73.0	2.5	/experiments/AOT/AOT_stimuli/rescaled_final/0574_fw.mp4	0.0	907.2032470703125	
75	881.3378388881683	movie	1		245	73.0	2.5	/experiments/AOT/AOT_stimuli/rescaled_final/0574_fw.mp4	0.0	907.6198039054871	2.499972105026245
75	882.5139968395233	pulse	1	t		73.0	2.5	/experiments/AOT/AOT_stimuli/rescaled_final/0574_fw.mp4	0.0	908.795961856842	
75	883.8378109931946	fix_post	2		12	73.0	2.5	/experiments/AOT/AOT_stimuli/rescaled_final/0574_fw.mp4	0.0	910.1197760105133	0.09993386268615723
76	883.9377448558807	fix_pre	0		120	74.0	2.5	/experiments/AOT/AOT_stimuli/rescaled_final/1629_rv.mp4	0.0	910.2197098731995	1.0001170635223389
76	884.1138708591461	pulse	0	t		74.0	2.5	/experiments/AOT/AOT_stimuli/rescaled_final/1629_rv.mp4	0.0	910.3958358764648	
76	884.9378619194031	movie	1		243	74.0	2.5	/experiments/AOT/AOT_stimuli/rescaled_final/1629_rv.mp4	0.0	911.2198269367218	2.4995710849761963
76	885.7207360267639	pulse	1	t		74.0	2.5	/experiments/AOT/AOT_stimuli/rescaled_final/1629_rv.mp4	0.0	912.0027010440826	
76	887.3193218708038	pulse	1	t		74.0	2.5	/experiments/AOT/AOT_stimuli/rescaled_final/1629_rv.mp4	0.0	913.6012868881226	
76	887.4374330043793	fix_post	2		12	74.0	2.5	/experiments/AOT/AOT_stimuli/rescaled_final/1629_rv.mp4	0.0	913.719398021698	0.10038590431213379
77	887.5378189086914	fix_pre	0		120	75.0	2.5	blank	1.0	913.8197839260101	1.0001740455627441
77	888.5379929542542	movie	1		300	75.0	2.5	blank	1.0	914.8199579715729	2.4997498989105225
77	888.9135389328003	pulse	1	t		75.0	2.5	blank	1.0	915.195503950119	
77	890.5137028694153	pulse	1	t		75.0	2.5	blank	1.0	916.795667886734	
77	891.0377428531647	fix_post	2		12	75.0	2.5	blank	1.0	917.3197078704834	0.10000205039978027
78	891.1377449035645	fix_pre	0		119	76.0	2.5	/experiments/AOT/AOT_stimuli/rescaled_final/2050_fw.mp4	0.0	917.4197099208832	0.991671085357666
78	892.1136729717255	pulse	0	t		76.0	2.5	/experiments/AOT/AOT_stimuli/rescaled_final/2050_fw.mp4	0.0	918.3956379890442	
78	892.1294159889221	movie	1		243	76.0	2.5	/experiments/AOT/AOT_stimuli/rescaled_final/2050_fw.mp4	0.0	918.4113810062408	2.5083909034729004
78	893.720762014389	pulse	1	t		76.0	2.5	/experiments/AOT/AOT_stimuli/rescaled_final/2050_fw.mp4	0.0	920.0027270317078	
78	894.637806892395	fix_post	2		12	76.0	2.5	/experiments/AOT/AOT_stimuli/rescaled_final/2050_fw.mp4	0.0	920.9197719097137	0.09986495971679688
79	894.7376718521118	fix_pre	0		120	77.0	2.5	/experiments/AOT/AOT_stimuli/rescaled_final/0844_rv.mp4	0.0	921.0196368694305	1.000089168548584
79	895.3211660385132	pulse	0	t		77.0	2.5	/experiments/AOT/AOT_stimuli/rescaled_final/0844_rv.mp4	0.0	921.6031310558319	
79	895.7377610206604	movie	1		248	77.0	2.5	/experiments/AOT/AOT_stimuli/rescaled_final/0844_rv.mp4	0.0	922.0197260379791	2.4998979568481445
79	896.9140219688416	pulse	1	t		77.0	2.5	/experiments/AOT/AOT_stimuli/rescaled_final/0844_rv.mp4	0.0	923.1959869861603	
79	898.2376589775085	fix_post	2		12	77.0	2.5	/experiments/AOT/AOT_stimuli/rescaled_final/0844_rv.mp4	0.0	924.5196239948273	0.10000491142272949
80	898.3376638889313	fix_pre	0		120	78.0	2.5	/experiments/AOT/AOT_stimuli/rescaled_final/1778_rv.mp4	0.0	924.61962890625	1.0000591278076172
80	898.52117395401	pulse	0	t		78.0	2.5	/experiments/AOT/AOT_stimuli/rescaled_final/1778_rv.mp4	0.0	924.8031389713287	
80	899.3377230167389	movie	1		244	78.0	2.5	/experiments/AOT/AOT_stimuli/rescaled_final/1778_rv.mp4	0.0	925.6196880340576	2.5000159740448
80	900.114275932312	pulse	1	t		78.0	2.5	/experiments/AOT/AOT_stimuli/rescaled_final/1778_rv.mp4	0.0	926.3962409496307	
80	901.7212519645691	pulse	1	t		78.0	2.5	/experiments/AOT/AOT_stimuli/rescaled_final/1778_rv.mp4	0.0	928.0032169818878	
80	901.8377389907837	fix_post	2		12	78.0	2.5	/experiments/AOT/AOT_stimuli/rescaled_final/1778_rv.mp4	0.0	928.1197040081024	0.09994101524353027
81	901.9376800060272	fix_pre	0		120	79.0	2.5	/experiments/AOT/AOT_stimuli/rescaled_final/1567_rv.mp4	0.0	928.219645023346	1.0000779628753662
81	902.9377579689026	movie	1		246	79.0	2.5	/experiments/AOT/AOT_stimuli/rescaled_final/1567_rv.mp4	0.0	929.2197229862213	2.4999659061431885
81	903.3207108974457	pulse	1	t		79.0	2.5	/experiments/AOT/AOT_stimuli/rescaled_final/1567_rv.mp4	0.0	929.6026759147644	
81	904.9137070178986	pulse	1	t		79.0	2.5	/experiments/AOT/AOT_stimuli/rescaled_final/1567_rv.mp4	0.0	931.1956720352173	
81	905.4377238750458	fix_post	2		12	79.0	2.5	/experiments/AOT/AOT_stimuli/rescaled_final/1567_rv.mp4	0.0	931.7196888923645	0.10001516342163086
82	905.5377390384674	fix_pre	0		119	80.0	2.5	/experiments/AOT/AOT_stimuli/rescaled_final/0129_fw.mp4	0.0	931.8197040557861	0.9916558265686035
82	906.5136389732361	pulse	0	t		80.0	2.5	/experiments/AOT/AOT_stimuli/rescaled_final/0129_fw.mp4	0.0	932.7956039905548	
82	906.529394865036	movie	1		244	80.0	2.5	/experiments/AOT/AOT_stimuli/rescaled_final/0129_fw.mp4	0.0	932.8113598823547	2.5083160400390625
82	908.1207408905029	pulse	1	t		80.0	2.5	/experiments/AOT/AOT_stimuli/rescaled_final/0129_fw.mp4	0.0	934.4027059078217	
82	909.0377109050751	fix_post	2		12	80.0	2.5	/experiments/AOT/AOT_stimuli/rescaled_final/0129_fw.mp4	0.0	935.3196759223938	0.09995508193969727
83	909.1376659870148	fix_pre	0		120	81.0	2.5	/experiments/AOT/AOT_stimuli/rescaled_final/2050_rv.mp4	0.0	935.4196310043335	0.9999978542327881
83	909.7211699485779	pulse	0	t		81.0	2.5	/experiments/AOT/AOT_stimuli/rescaled_final/2050_rv.mp4	0.0	936.0031349658966	
83	910.1376638412476	movie	1		244	81.0	2.5	/experiments/AOT/AOT_stimuli/rescaled_final/2050_rv.mp4	0.0	936.4196288585663	2.5000360012054443
83	911.3212268352509	pulse	1	t		81.0	2.5	/experiments/AOT/AOT_stimuli/rescaled_final/2050_rv.mp4	0.0	937.6031918525696	
83	912.637699842453	fix_post	2		12	81.0	2.5	/experiments/AOT/AOT_stimuli/rescaled_final/2050_rv.mp4	0.0	938.9196648597717	0.09999418258666992
84	912.7376940250397	fix_pre	0		120	82.0	2.5	/experiments/AOT/AOT_stimuli/rescaled_final/1894_rv.mp4	0.0	939.0196590423584	0.9999508857727051
84	912.9211430549622	pulse	0	t		82.0	2.5	/experiments/AOT/AOT_stimuli/rescaled_final/1894_rv.mp4	0.0	939.2031080722809	
84	913.7376449108124	movie	1		255	82.0	2.5	/experiments/AOT/AOT_stimuli/rescaled_final/1894_rv.mp4	0.0	940.0196099281311	2.4999539852142334
84	914.5211100578308	pulse	1	t		82.0	2.5	/experiments/AOT/AOT_stimuli/rescaled_final/1894_rv.mp4	0.0	940.8030750751495	
84	916.1211440563202	pulse	1	t		82.0	2.5	/experiments/AOT/AOT_stimuli/rescaled_final/1894_rv.mp4	0.0	942.4031090736389	
84	916.2375988960266	fix_post	2		12	82.0	2.5	/experiments/AOT/AOT_stimuli/rescaled_final/1894_rv.mp4	0.0	942.5195639133453	0.10003805160522461
85	916.3376369476318	fix_pre	0		120	83.0	2.5	blank	1.0	942.6196019649506	0.9999740123748779
85	917.3376109600067	movie	1		300	83.0	2.5	blank	1.0	943.6195759773254	2.500075101852417
85	917.7211148738861	pulse	1	t		83.0	2.5	blank	1.0	944.0030798912048	
85	919.313539981842	pulse	1	t		83.0	2.5	blank	1.0	945.5955049991608	
85	919.8376860618591	fix_post	2		12	83.0	2.5	blank	1.0	946.1196510791779	0.09984493255615234
87	919.9375309944153	stim	0		1716					946.219496011734	14.30000901222229
87	920.9137139320374	pulse	0	t						947.1956789493561	
87	922.5136790275574	pulse	0	t						948.7956440448761	
87	924.1136510372162	pulse	0	t						950.3956160545349	
87	925.721174955368	pulse	0	t						952.0031399726868	
87	927.3210530281067	pulse	0	t						953.6030180454254	
87	928.9210078716278	pulse	0	t						955.2029728889465	
87	930.5209510326385	pulse	0	t						956.8029160499573	
87	932.121011018753	pulse	0	t						958.4029760360718	
87	933.7136218547821	pulse	0	t						959.9955868721008	
