trial_nr	onset	event_type	phase	response	nr_frames	movie_index	movie_duration	movie_file	blank	onset_abs	duration
0	0.14935708045959473	stim	0		45					22.194477081298828	0.38381385803222656
0	0.5251419544219971	response	0	space						22.57026195526123	
1	0.5331709384918213	stim	0		4981					22.578290939331055	41.50813317298889
1	42.03670597076416	pulse	0	t						64.0818259716034	
1	42.04130411148071	stim	1		1717					64.08642411231995	14.30819296836853
1	43.63314700126648	pulse	1	t						65.67826700210571	
1	45.22562503814697	pulse	1	t						67.2707450389862	
1	46.8330979347229	pulse	1	t						68.87821793556213	
1	48.43310213088989	pulse	1	t						70.47822213172913	
1	50.03301811218262	pulse	1	t						72.07813811302185	
1	51.633090019226074	pulse	1	t						73.67821002006531	
1	53.2329580783844	pulse	1	t						75.27807807922363	
1	54.83298707008362	pulse	1	t						76.87810707092285	
2	56.34949707984924	fix_pre	0		11	0.0	2.5	/experiments/AOT/AOT_stimuli/rescaled_final/1577_fw.mp4	0.0	78.39461708068848	0.09173583984375
2	56.433067083358765	pulse	0	t		0.0	2.5	/experiments/AOT/AOT_stimuli/rescaled_final/1577_fw.mp4	0.0	78.478187084198	
2	56.44123291969299	movie	1		246	0.0	2.5	/experiments/AOT/AOT_stimuli/rescaled_final/1577_fw.mp4	0.0	78.48635292053223	2.5083751678466797
2	58.032546043395996	pulse	1	t		0.0	2.5	/experiments/AOT/AOT_stimuli/rescaled_final/1577_fw.mp4	0.0	80.07766604423523	
2	58.94960808753967	fix_post	2		12	0.0	2.5	/experiments/AOT/AOT_stimuli/rescaled_final/1577_fw.mp4	0.0	80.9947280883789	0.09998703002929688
3	59.04959511756897	fix_pre	0		120	1.0	2.5	/experiments/AOT/AOT_stimuli/rescaled_final/0857_fw.mp4	0.0	81.0947151184082	0.9995119571685791
3	59.633079051971436	pulse	0	t		1.0	2.5	/experiments/AOT/AOT_stimuli/rescaled_final/0857_fw.mp4	0.0	81.67819905281067	
3	60.04910707473755	movie	1		243	1.0	2.5	/experiments/AOT/AOT_stimuli/rescaled_final/0857_fw.mp4	0.0	82.09422707557678	2.5000839233398438
3	61.23309111595154	pulse	1	t		1.0	2.5	/experiments/AOT/AOT_stimuli/rescaled_final/0857_fw.mp4	0.0	83.27821111679077	
3	62.54919099807739	fix_post	2		12	1.0	2.5	/experiments/AOT/AOT_stimuli/rescaled_final/0857_fw.mp4	0.0	84.59431099891663	0.1003730297088623
4	62.649564027786255	fix_pre	0		120	2.0	2.5	/experiments/AOT/AOT_stimuli/rescaled_final/0316_fw.mp4	0.0	84.69468402862549	1.0000169277191162
4	62.832968950271606	pulse	0	t		2.0	2.5	/experiments/AOT/AOT_stimuli/rescaled_final/0316_fw.mp4	0.0	84.87808895111084	
4	63.64958095550537	movie	1		246	2.0	2.5	/experiments/AOT/AOT_stimuli/rescaled_final/0316_fw.mp4	0.0	85.6947009563446	2.4999890327453613
4	64.43299293518066	pulse	1	t		2.0	2.5	/experiments/AOT/AOT_stimuli/rescaled_final/0316_fw.mp4	0.0	86.4781129360199	
4	66.0292661190033	pulse	1	t		2.0	2.5	/experiments/AOT/AOT_stimuli/rescaled_final/0316_fw.mp4	0.0	88.07438611984253	
4	66.14956998825073	fix_post	2		12	2.0	2.5	/experiments/AOT/AOT_stimuli/rescaled_final/0316_fw.mp4	0.0	88.19468998908997	0.10006093978881836
5	66.24963092803955	fix_pre	0		120	3.0	2.5	/experiments/AOT/AOT_stimuli/rescaled_final/1230_fw.mp4	0.0	88.29475092887878	0.9998931884765625
5	67.24952411651611	movie	1		245	3.0	2.5	/experiments/AOT/AOT_stimuli/rescaled_final/1230_fw.mp4	0.0	89.29464411735535	2.500091791152954
5	67.63253092765808	pulse	1	t		3.0	2.5	/experiments/AOT/AOT_stimuli/rescaled_final/1230_fw.mp4	0.0	89.67765092849731	
5	69.2329740524292	pulse	1	t		3.0	2.5	/experiments/AOT/AOT_stimuli/rescaled_final/1230_fw.mp4	0.0	91.27809405326843	
5	69.74961590766907	fix_post	2		12	3.0	2.5	/experiments/AOT/AOT_stimuli/rescaled_final/1230_fw.mp4	0.0	91.7947359085083	0.09987616539001465
6	69.84949207305908	fix_pre	0		119	4.0	2.5	/experiments/AOT/AOT_stimuli/rescaled_final/0040_fw.mp4	0.0	91.89461207389832	0.9916679859161377
6	70.83308696746826	pulse	0	t		4.0	2.5	/experiments/AOT/AOT_stimuli/rescaled_final/0040_fw.mp4	0.0	92.8782069683075	
6	70.84116005897522	movie	1		247	4.0	2.5	/experiments/AOT/AOT_stimuli/rescaled_final/0040_fw.mp4	0.0	92.88628005981445	2.5082900524139404
6	72.43299102783203	pulse	1	t		4.0	2.5	/experiments/AOT/AOT_stimuli/rescaled_final/0040_fw.mp4	0.0	94.47811102867126	
6	73.34945011138916	fix_post	2		12	4.0	2.5	/experiments/AOT/AOT_stimuli/rescaled_final/0040_fw.mp4	0.0	95.3945701122284	0.10003185272216797
7	73.44948196411133	fix_pre	0		120	5.0	2.5	blank	1.0	95.49460196495056	1.0000979900360107
7	74.03302311897278	pulse	0	t		5.0	2.5	blank	1.0	96.07814311981201	
7	74.44957995414734	movie	1		300	5.0	2.5	blank	1.0	96.49469995498657	2.4998979568481445
7	75.63291692733765	pulse	1	t		5.0	2.5	blank	1.0	97.67803692817688	
7	76.94947791099548	fix_post	2		12	5.0	2.5	blank	1.0	98.99459791183472	0.09960317611694336
8	77.04908108711243	fix_pre	0		120	6.0	2.5	/experiments/AOT/AOT_stimuli/rescaled_final/0861_fw.mp4	0.0	99.09420108795166	1.000126838684082
8	77.23262691497803	pulse	0	t		6.0	2.5	/experiments/AOT/AOT_stimuli/rescaled_final/0861_fw.mp4	0.0	99.27774691581726	
8	78.04920792579651	movie	1		245	6.0	2.5	/experiments/AOT/AOT_stimuli/rescaled_final/0861_fw.mp4	0.0	100.09432792663574	2.500275135040283
8	78.83316802978516	pulse	1	t		6.0	2.5	/experiments/AOT/AOT_stimuli/rescaled_final/0861_fw.mp4	0.0	100.87828803062439	
8	80.43127298355103	pulse	1	t		6.0	2.5	/experiments/AOT/AOT_stimuli/rescaled_final/0861_fw.mp4	0.0	102.47639298439026	
8	80.54948306083679	fix_post	2		12	6.0	2.5	/experiments/AOT/AOT_stimuli/rescaled_final/0861_fw.mp4	0.0	102.59460306167603	0.09966897964477539
9	80.64915204048157	fix_pre	0		120	7.0	2.5	/experiments/AOT/AOT_stimuli/rescaled_final/1220_fw.mp4	0.0	102.6942720413208	0.9999020099639893
9	81.64905405044556	movie	1		245	7.0	2.5	/experiments/AOT/AOT_stimuli/rescaled_final/1220_fw.mp4	0.0	103.69417405128479	2.500499963760376
9	82.03224205970764	pulse	1	t		7.0	2.5	/experiments/AOT/AOT_stimuli/rescaled_final/1220_fw.mp4	0.0	104.07736206054688	
9	83.63292407989502	pulse	1	t		7.0	2.5	/experiments/AOT/AOT_stimuli/rescaled_final/1220_fw.mp4	0.0	105.67804408073425	
9	84.14955401420593	fix_post	2		12	7.0	2.5	/experiments/AOT/AOT_stimuli/rescaled_final/1220_fw.mp4	0.0	106.19467401504517	0.09987306594848633
10	84.24942708015442	fix_pre	0		119	8.0	2.5	/experiments/AOT/AOT_stimuli/rescaled_final/1926_rv.mp4	0.0	106.29454708099365	0.9915988445281982
10	85.2328040599823	pulse	0	t		8.0	2.5	/experiments/AOT/AOT_stimuli/rescaled_final/1926_rv.mp4	0.0	107.27792406082153	
10	85.24102592468262	movie	1		247	8.0	2.5	/experiments/AOT/AOT_stimuli/rescaled_final/1926_rv.mp4	0.0	107.28614592552185	2.5084211826324463
10	86.83363199234009	pulse	1	t		8.0	2.5	/experiments/AOT/AOT_stimuli/rescaled_final/1926_rv.mp4	0.0	108.87875199317932	
10	87.74944710731506	fix_post	2		12	8.0	2.5	/experiments/AOT/AOT_stimuli/rescaled_final/1926_rv.mp4	0.0	109.7945671081543	0.09987401962280273
11	87.84932112693787	fix_pre	0		120	9.0	2.5	/experiments/AOT/AOT_stimuli/rescaled_final/0982_rv.mp4	0.0	109.8944411277771	1.0000948905944824
11	88.42661690711975	pulse	0	t		9.0	2.5	/experiments/AOT/AOT_stimuli/rescaled_final/0982_rv.mp4	0.0	110.47173690795898	
11	88.84941601753235	movie	1		245	9.0	2.5	/experiments/AOT/AOT_stimuli/rescaled_final/0982_rv.mp4	0.0	110.89453601837158	2.499969005584717
11	90.03294706344604	pulse	1	t		9.0	2.5	/experiments/AOT/AOT_stimuli/rescaled_final/0982_rv.mp4	0.0	112.07806706428528	
11	91.34938502311707	fix_post	2		12	9.0	2.5	/experiments/AOT/AOT_stimuli/rescaled_final/0982_rv.mp4	0.0	113.3945050239563	0.10002708435058594
12	91.44941210746765	fix_pre	0		120	10.0	2.5	/experiments/AOT/AOT_stimuli/rescaled_final/1921_fw.mp4	0.0	113.49453210830688	1.0000338554382324
12	91.63285398483276	pulse	0	t		10.0	2.5	/experiments/AOT/AOT_stimuli/rescaled_final/1921_fw.mp4	0.0	113.677973985672	
12	92.44944596290588	movie	1		243	10.0	2.5	/experiments/AOT/AOT_stimuli/rescaled_final/1921_fw.mp4	0.0	114.49456596374512	2.499484062194824
12	93.23281812667847	pulse	1	t		10.0	2.5	/experiments/AOT/AOT_stimuli/rescaled_final/1921_fw.mp4	0.0	115.2779381275177	
12	94.83133912086487	pulse	1	t		10.0	2.5	/experiments/AOT/AOT_stimuli/rescaled_final/1921_fw.mp4	0.0	116.8764591217041	
12	94.94893002510071	fix_post	2		12	10.0	2.5	/experiments/AOT/AOT_stimuli/rescaled_final/1921_fw.mp4	0.0	116.99405002593994	0.10040092468261719
13	95.04933094978333	fix_pre	0		120	11.0	2.5	/experiments/AOT/AOT_stimuli/rescaled_final/1844_rv.mp4	0.0	117.09445095062256	1.0001320838928223
13	96.04946303367615	movie	1		245	11.0	2.5	/experiments/AOT/AOT_stimuli/rescaled_final/1844_rv.mp4	0.0	118.09458303451538	2.4998319149017334
13	96.4324951171875	pulse	1	t		11.0	2.5	/experiments/AOT/AOT_stimuli/rescaled_final/1844_rv.mp4	0.0	118.47761511802673	
13	98.03283095359802	pulse	1	t		11.0	2.5	/experiments/AOT/AOT_stimuli/rescaled_final/1844_rv.mp4	0.0	120.07795095443726	
13	98.54929494857788	fix_post	2		12	11.0	2.5	/experiments/AOT/AOT_stimuli/rescaled_final/1844_rv.mp4	0.0	120.59441494941711	0.10001015663146973
14	98.64930510520935	fix_pre	0		119	12.0	2.5	blank	1.0	120.69442510604858	0.9917428493499756
14	99.63290309906006	pulse	0	t		12.0	2.5	blank	1.0	121.67802309989929	
14	99.64104795455933	movie	1		301	12.0	2.5	blank	1.0	121.68616795539856	2.508249044418335
14	101.23285603523254	pulse	1	t		12.0	2.5	blank	1.0	123.27797603607178	
14	102.14929699897766	fix_post	2		12	12.0	2.5	blank	1.0	124.1944169998169	0.09999799728393555
15	102.2492949962616	fix_pre	0		120	13.0	2.5	/experiments/AOT/AOT_stimuli/rescaled_final/0459_fw.mp4	0.0	124.29441499710083	1.000075101852417
15	102.83284592628479	pulse	0	t		13.0	2.5	/experiments/AOT/AOT_stimuli/rescaled_final/0459_fw.mp4	0.0	124.87796592712402	
15	103.24937009811401	movie	1		245	13.0	2.5	/experiments/AOT/AOT_stimuli/rescaled_final/0459_fw.mp4	0.0	125.29449009895325	2.4997398853302
15	104.43288397789001	pulse	1	t		13.0	2.5	/experiments/AOT/AOT_stimuli/rescaled_final/0459_fw.mp4	0.0	126.47800397872925	
15	105.74910998344421	fix_post	2		12	13.0	2.5	/experiments/AOT/AOT_stimuli/rescaled_final/0459_fw.mp4	0.0	127.79422998428345	0.10024213790893555
16	105.84935212135315	fix_pre	0		120	14.0	2.5	/experiments/AOT/AOT_stimuli/rescaled_final/0416_fw.mp4	0.0	127.89447212219238	0.9999418258666992
16	106.03287410736084	pulse	0	t		14.0	2.5	/experiments/AOT/AOT_stimuli/rescaled_final/0416_fw.mp4	0.0	128.07799410820007	
16	106.84929394721985	movie	1		245	14.0	2.5	/experiments/AOT/AOT_stimuli/rescaled_final/0416_fw.mp4	0.0	128.89441394805908	2.500007152557373
16	107.63290596008301	pulse	1	t		14.0	2.5	/experiments/AOT/AOT_stimuli/rescaled_final/0416_fw.mp4	0.0	129.67802596092224	
16	109.23283410072327	pulse	1	t		14.0	2.5	/experiments/AOT/AOT_stimuli/rescaled_final/0416_fw.mp4	0.0	131.2779541015625	
16	109.34930109977722	fix_post	2		12	14.0	2.5	/experiments/AOT/AOT_stimuli/rescaled_final/0416_fw.mp4	0.0	131.39442110061646	0.09997200965881348
17	109.44927310943604	fix_pre	0		120	15.0	2.5	/experiments/AOT/AOT_stimuli/rescaled_final/1570_rv.mp4	0.0	131.49439311027527	0.9996159076690674
17	110.4488890171051	movie	1		247	15.0	2.5	/experiments/AOT/AOT_stimuli/rescaled_final/1570_rv.mp4	0.0	132.49400901794434	2.5004310607910156
17	110.83227491378784	pulse	1	t		15.0	2.5	/experiments/AOT/AOT_stimuli/rescaled_final/1570_rv.mp4	0.0	132.87739491462708	
17	112.43284296989441	pulse	1	t		15.0	2.5	/experiments/AOT/AOT_stimuli/rescaled_final/1570_rv.mp4	0.0	134.47796297073364	
17	112.94932007789612	fix_post	2		12	15.0	2.5	/experiments/AOT/AOT_stimuli/rescaled_final/1570_rv.mp4	0.0	134.99444007873535	0.09999799728393555
18	113.04931807518005	fix_pre	0		119	16.0	2.5	/experiments/AOT/AOT_stimuli/rescaled_final/1835_fw.mp4	0.0	135.0944380760193	0.9916539192199707
18	114.0327820777893	pulse	0	t		16.0	2.5	/experiments/AOT/AOT_stimuli/rescaled_final/1835_fw.mp4	0.0	136.07790207862854	
18	114.04097199440002	movie	1		244	16.0	2.5	/experiments/AOT/AOT_stimuli/rescaled_final/1835_fw.mp4	0.0	136.08609199523926	2.508268117904663
18	115.63261890411377	pulse	1	t		16.0	2.5	/experiments/AOT/AOT_stimuli/rescaled_final/1835_fw.mp4	0.0	137.677738904953	
18	116.54924011230469	fix_post	2		12	16.0	2.5	/experiments/AOT/AOT_stimuli/rescaled_final/1835_fw.mp4	0.0	138.59436011314392	0.10004496574401855
19	116.6492850780487	fix_pre	0		120	17.0	2.5	/experiments/AOT/AOT_stimuli/rescaled_final/0092_rv.mp4	0.0	138.69440507888794	1.0000228881835938
19	117.23278307914734	pulse	0	t		17.0	2.5	/experiments/AOT/AOT_stimuli/rescaled_final/0092_rv.mp4	0.0	139.27790307998657	
19	117.6493079662323	movie	1		243	17.0	2.5	/experiments/AOT/AOT_stimuli/rescaled_final/0092_rv.mp4	0.0	139.69442796707153	2.499946117401123
19	118.83281993865967	pulse	1	t		17.0	2.5	/experiments/AOT/AOT_stimuli/rescaled_final/0092_rv.mp4	0.0	140.8779399394989	
19	120.14925408363342	fix_post	2		12	17.0	2.5	/experiments/AOT/AOT_stimuli/rescaled_final/0092_rv.mp4	0.0	142.19437408447266	0.10013484954833984
20	120.24938893318176	fix_pre	0		120	18.0	2.5	/experiments/AOT/AOT_stimuli/rescaled_final/0277_fw.mp4	0.0	142.294508934021	0.9999790191650391
20	120.43276190757751	pulse	0	t		18.0	2.5	/experiments/AOT/AOT_stimuli/rescaled_final/0277_fw.mp4	0.0	142.47788190841675	
20	121.2493679523468	movie	1		244	18.0	2.5	/experiments/AOT/AOT_stimuli/rescaled_final/0277_fw.mp4	0.0	143.29448795318604	2.4998550415039062
20	122.0327000617981	pulse	1	t		18.0	2.5	/experiments/AOT/AOT_stimuli/rescaled_final/0277_fw.mp4	0.0	144.07782006263733	
20	123.63111901283264	pulse	1	t		18.0	2.5	/experiments/AOT/AOT_stimuli/rescaled_final/0277_fw.mp4	0.0	145.67623901367188	
20	123.74922299385071	fix_post	2		12	18.0	2.5	/experiments/AOT/AOT_stimuli/rescaled_final/0277_fw.mp4	0.0	145.79434299468994	0.10004997253417969
21	123.84927296638489	fix_pre	0		120	19.0	2.5	blank	1.0	145.89439296722412	0.999993085861206
21	124.8492660522461	movie	1		300	19.0	2.5	blank	1.0	146.89438605308533	2.499969005584717
21	125.23267602920532	pulse	1	t		19.0	2.5	blank	1.0	147.27779603004456	
21	126.83268213272095	pulse	1	t		19.0	2.5	blank	1.0	148.87780213356018	
21	127.34923505783081	fix_post	2		12	19.0	2.5	blank	1.0	149.39435505867004	0.10002493858337402
22	127.44925999641418	fix_pre	0		119	20.0	2.5	/experiments/AOT/AOT_stimuli/rescaled_final/1903_rv.mp4	0.0	149.49437999725342	0.9916129112243652
22	128.43273091316223	pulse	0	t		20.0	2.5	/experiments/AOT/AOT_stimuli/rescaled_final/1903_rv.mp4	0.0	150.47785091400146	
22	128.44087290763855	movie	1		245	20.0	2.5	/experiments/AOT/AOT_stimuli/rescaled_final/1903_rv.mp4	0.0	150.48599290847778	2.5084991455078125
22	130.03235602378845	pulse	1	t		20.0	2.5	/experiments/AOT/AOT_stimuli/rescaled_final/1903_rv.mp4	0.0	152.07747602462769	
22	130.94937205314636	fix_post	2		12	20.0	2.5	/experiments/AOT/AOT_stimuli/rescaled_final/1903_rv.mp4	0.0	152.9944920539856	0.09984993934631348
23	131.04922199249268	fix_pre	0		120	21.0	2.5	/experiments/AOT/AOT_stimuli/rescaled_final/0042_rv.mp4	0.0	153.0943419933319	0.9999899864196777
23	131.63276410102844	pulse	0	t		21.0	2.5	/experiments/AOT/AOT_stimuli/rescaled_final/0042_rv.mp4	0.0	153.67788410186768	
23	132.04921197891235	movie	1		245	21.0	2.5	/experiments/AOT/AOT_stimuli/rescaled_final/0042_rv.mp4	0.0	154.0943319797516	2.500261068344116
23	133.23275899887085	pulse	1	t		21.0	2.5	/experiments/AOT/AOT_stimuli/rescaled_final/0042_rv.mp4	0.0	155.27787899971008	
23	134.54947304725647	fix_post	2		12	21.0	2.5	/experiments/AOT/AOT_stimuli/rescaled_final/0042_rv.mp4	0.0	156.5945930480957	0.09955000877380371
24	134.64902305603027	fix_pre	0		120	22.0	2.5	/experiments/AOT/AOT_stimuli/rescaled_final/0505_rv.mp4	0.0	156.6941430568695	1.0001380443572998
24	134.83256697654724	pulse	0	t		22.0	2.5	/experiments/AOT/AOT_stimuli/rescaled_final/0505_rv.mp4	0.0	156.87768697738647	
24	135.64916110038757	movie	1		244	22.0	2.5	/experiments/AOT/AOT_stimuli/rescaled_final/0505_rv.mp4	0.0	157.6942811012268	2.4995949268341064
24	136.43263602256775	pulse	1	t		22.0	2.5	/experiments/AOT/AOT_stimuli/rescaled_final/0505_rv.mp4	0.0	158.47775602340698	
24	138.03133606910706	pulse	1	t		22.0	2.5	/experiments/AOT/AOT_stimuli/rescaled_final/0505_rv.mp4	0.0	160.0764560699463	
24	138.14875602722168	fix_post	2		12	22.0	2.5	/experiments/AOT/AOT_stimuli/rescaled_final/0505_rv.mp4	0.0	160.1938760280609	0.10038590431213379
25	138.2491419315338	fix_pre	0		120	23.0	2.5	/experiments/AOT/AOT_stimuli/rescaled_final/0251_fw.mp4	0.0	160.29426193237305	1.000096082687378
25	139.2492380142212	movie	1		245	23.0	2.5	/experiments/AOT/AOT_stimuli/rescaled_final/0251_fw.mp4	0.0	161.29435801506042	2.4998929500579834
25	139.63240909576416	pulse	1	t		23.0	2.5	/experiments/AOT/AOT_stimuli/rescaled_final/0251_fw.mp4	0.0	161.6775290966034	
25	141.23251295089722	pulse	1	t		23.0	2.5	/experiments/AOT/AOT_stimuli/rescaled_final/0251_fw.mp4	0.0	163.27763295173645	
25	141.74913096427917	fix_post	2		12	23.0	2.5	/experiments/AOT/AOT_stimuli/rescaled_final/0251_fw.mp4	0.0	163.7942509651184	0.09999895095825195
26	141.84912991523743	fix_pre	0		119	24.0	2.5	/experiments/AOT/AOT_stimuli/rescaled_final/0379_rv.mp4	0.0	163.89424991607666	0.9915781021118164
26	142.8326289653778	pulse	0	t		24.0	2.5	/experiments/AOT/AOT_stimuli/rescaled_final/0379_rv.mp4	0.0	164.87774896621704	
26	142.84070801734924	movie	1		244	24.0	2.5	/experiments/AOT/AOT_stimuli/rescaled_final/0379_rv.mp4	0.0	164.88582801818848	2.508373975753784
26	144.43275904655457	pulse	1	t		24.0	2.5	/experiments/AOT/AOT_stimuli/rescaled_final/0379_rv.mp4	0.0	166.4778790473938	
26	145.34908199310303	fix_post	2		12	24.0	2.5	/experiments/AOT/AOT_stimuli/rescaled_final/0379_rv.mp4	0.0	167.39420199394226	0.10002994537353516
27	145.44911193847656	fix_pre	0		120	25.0	2.5	/experiments/AOT/AOT_stimuli/rescaled_final/0134_fw.mp4	0.0	167.4942319393158	0.9999380111694336
27	146.03261494636536	pulse	0	t		25.0	2.5	/experiments/AOT/AOT_stimuli/rescaled_final/0134_fw.mp4	0.0	168.0777349472046	
27	146.449049949646	movie	1		244	25.0	2.5	/experiments/AOT/AOT_stimuli/rescaled_final/0134_fw.mp4	0.0	168.49416995048523	2.5000321865081787
27	147.63266396522522	pulse	1	t		25.0	2.5	/experiments/AOT/AOT_stimuli/rescaled_final/0134_fw.mp4	0.0	169.67778396606445	
27	148.94908213615417	fix_post	2		12	25.0	2.5	/experiments/AOT/AOT_stimuli/rescaled_final/0134_fw.mp4	0.0	170.9942021369934	0.0999917984008789
28	149.04907393455505	fix_pre	0		120	26.0	2.5	blank	1.0	171.0941939353943	1.0000531673431396
28	149.23262691497803	pulse	0	t		26.0	2.5	blank	1.0	171.27774691581726	
28	150.0491271018982	movie	1		300	26.0	2.5	blank	1.0	172.09424710273743	2.4999828338623047
28	150.8326380252838	pulse	1	t		26.0	2.5	blank	1.0	172.87775802612305	
28	152.43271803855896	pulse	1	t		26.0	2.5	blank	1.0	174.4778380393982	
28	152.5491099357605	fix_post	2		12	26.0	2.5	blank	1.0	174.59422993659973	0.09959006309509277
29	152.6486999988556	fix_pre	0		120	27.0	2.5	/experiments/AOT/AOT_stimuli/rescaled_final/2141_rv.mp4	0.0	174.69381999969482	1.0004289150238037
29	153.6491289138794	movie	1		245	27.0	2.5	/experiments/AOT/AOT_stimuli/rescaled_final/2141_rv.mp4	0.0	175.69424891471863	2.4995920658111572
29	154.03357791900635	pulse	1	t		27.0	2.5	/experiments/AOT/AOT_stimuli/rescaled_final/2141_rv.mp4	0.0	176.07869791984558	
29	155.63258910179138	pulse	1	t		27.0	2.5	/experiments/AOT/AOT_stimuli/rescaled_final/2141_rv.mp4	0.0	177.67770910263062	
29	156.14872097969055	fix_post	2		12	27.0	2.5	/experiments/AOT/AOT_stimuli/rescaled_final/2141_rv.mp4	0.0	178.19384098052979	0.10033512115478516
30	156.24905610084534	fix_pre	0		119	28.0	2.5	/experiments/AOT/AOT_stimuli/rescaled_final/0906_rv.mp4	0.0	178.29417610168457	0.9917278289794922
30	157.23258996009827	pulse	0	t		28.0	2.5	/experiments/AOT/AOT_stimuli/rescaled_final/0906_rv.mp4	0.0	179.2777099609375	
30	157.24078392982483	movie	1		246	28.0	2.5	/experiments/AOT/AOT_stimuli/rescaled_final/0906_rv.mp4	0.0	179.28590393066406	2.5078721046447754
30	158.83372712135315	pulse	1	t		28.0	2.5	/experiments/AOT/AOT_stimuli/rescaled_final/0906_rv.mp4	0.0	180.87884712219238	
30	159.7486560344696	fix_post	2		12	28.0	2.5	/experiments/AOT/AOT_stimuli/rescaled_final/0906_rv.mp4	0.0	181.79377603530884	0.10041594505310059
31	159.8490719795227	fix_pre	0		120	29.0	2.5	/experiments/AOT/AOT_stimuli/rescaled_final/0251_fw.mp4	0.0	181.89419198036194	0.9995579719543457
31	160.4325749874115	pulse	0	t		29.0	2.5	/experiments/AOT/AOT_stimuli/rescaled_final/0251_fw.mp4	0.0	182.47769498825073	
31	160.84862995147705	movie	1		244	29.0	2.5	/experiments/AOT/AOT_stimuli/rescaled_final/0251_fw.mp4	0.0	182.89374995231628	2.5004990100860596
31	162.03264999389648	pulse	1	t		29.0	2.5	/experiments/AOT/AOT_stimuli/rescaled_final/0251_fw.mp4	0.0	184.07776999473572	
31	163.3491289615631	fix_post	2		12	29.0	2.5	/experiments/AOT/AOT_stimuli/rescaled_final/0251_fw.mp4	0.0	185.39424896240234	0.09992504119873047
32	163.44905400276184	fix_pre	0		120	30.0	2.5	/experiments/AOT/AOT_stimuli/rescaled_final/1879_fw.mp4	0.0	185.49417400360107	0.9999759197235107
32	163.63252997398376	pulse	0	t		30.0	2.5	/experiments/AOT/AOT_stimuli/rescaled_final/1879_fw.mp4	0.0	185.677649974823	
32	164.44902992248535	movie	1		243	30.0	2.5	/experiments/AOT/AOT_stimuli/rescaled_final/1879_fw.mp4	0.0	186.49414992332458	2.4999899864196777
32	165.23250198364258	pulse	1	t		30.0	2.5	/experiments/AOT/AOT_stimuli/rescaled_final/1879_fw.mp4	0.0	187.2776219844818	
32	166.8312759399414	pulse	1	t		30.0	2.5	/experiments/AOT/AOT_stimuli/rescaled_final/1879_fw.mp4	0.0	188.87639594078064	
32	166.94901990890503	fix_post	2		12	30.0	2.5	/experiments/AOT/AOT_stimuli/rescaled_final/1879_fw.mp4	0.0	188.99413990974426	0.09997320175170898
33	167.04899311065674	fix_pre	0		120	31.0	2.5	/experiments/AOT/AOT_stimuli/rescaled_final/0770_rv.mp4	0.0	189.09411311149597	1.0000009536743164
33	168.04899406433105	movie	1		244	31.0	2.5	/experiments/AOT/AOT_stimuli/rescaled_final/0770_rv.mp4	0.0	190.0941140651703	2.499983072280884
33	168.43346405029297	pulse	1	t		31.0	2.5	/experiments/AOT/AOT_stimuli/rescaled_final/0770_rv.mp4	0.0	190.4785840511322	
33	170.03255105018616	pulse	1	t		31.0	2.5	/experiments/AOT/AOT_stimuli/rescaled_final/0770_rv.mp4	0.0	192.0776710510254	
33	170.54897713661194	fix_post	2		12	31.0	2.5	/experiments/AOT/AOT_stimuli/rescaled_final/0770_rv.mp4	0.0	192.59409713745117	0.10009479522705078
34	170.649071931839	fix_pre	0		119	32.0	2.5	/experiments/AOT/AOT_stimuli/rescaled_final/1497_fw.mp4	0.0	192.69419193267822	0.9916141033172607
34	171.6325080394745	pulse	0	t		32.0	2.5	/experiments/AOT/AOT_stimuli/rescaled_final/1497_fw.mp4	0.0	193.67762804031372	
34	171.64068603515625	movie	1		246	32.0	2.5	/experiments/AOT/AOT_stimuli/rescaled_final/1497_fw.mp4	0.0	193.68580603599548	2.508009910583496
34	173.23265290260315	pulse	1	t		32.0	2.5	/experiments/AOT/AOT_stimuli/rescaled_final/1497_fw.mp4	0.0	195.27777290344238	
34	174.14869594573975	fix_post	2		12	32.0	2.5	/experiments/AOT/AOT_stimuli/rescaled_final/1497_fw.mp4	0.0	196.19381594657898	0.1003420352935791
35	174.24903798103333	fix_pre	0		120	33.0	2.5	/experiments/AOT/AOT_stimuli/rescaled_final/0277_rv.mp4	0.0	196.29415798187256	0.9995360374450684
35	174.83253812789917	pulse	0	t		33.0	2.5	/experiments/AOT/AOT_stimuli/rescaled_final/0277_rv.mp4	0.0	196.8776581287384	
35	175.2485740184784	movie	1		244	33.0	2.5	/experiments/AOT/AOT_stimuli/rescaled_final/0277_rv.mp4	0.0	197.29369401931763	2.500438928604126
35	176.43254113197327	pulse	1	t		33.0	2.5	/experiments/AOT/AOT_stimuli/rescaled_final/0277_rv.mp4	0.0	198.4776611328125	
35	177.74901294708252	fix_post	2		12	33.0	2.5	/experiments/AOT/AOT_stimuli/rescaled_final/0277_rv.mp4	0.0	199.79413294792175	0.09992718696594238
36	177.84894013404846	fix_pre	0		120	34.0	2.5	/experiments/AOT/AOT_stimuli/rescaled_final/1807_rv.mp4	0.0	199.8940601348877	1.0000238418579102
36	178.03248405456543	pulse	0	t		34.0	2.5	/experiments/AOT/AOT_stimuli/rescaled_final/1807_rv.mp4	0.0	200.07760405540466	
36	178.84896397590637	movie	1		244	34.0	2.5	/experiments/AOT/AOT_stimuli/rescaled_final/1807_rv.mp4	0.0	200.8940839767456	2.4995999336242676
36	179.63248801231384	pulse	1	t		34.0	2.5	/experiments/AOT/AOT_stimuli/rescaled_final/1807_rv.mp4	0.0	201.67760801315308	
36	181.2312650680542	pulse	1	t		34.0	2.5	/experiments/AOT/AOT_stimuli/rescaled_final/1807_rv.mp4	0.0	203.27638506889343	
36	181.34856390953064	fix_post	2		12	34.0	2.5	/experiments/AOT/AOT_stimuli/rescaled_final/1807_rv.mp4	0.0	203.39368391036987	0.10037422180175781
37	181.4489381313324	fix_pre	0		120	35.0	2.5	blank	1.0	203.49405813217163	0.9999949932098389
37	182.44893312454224	movie	1		300	35.0	2.5	blank	1.0	204.49405312538147	2.500067949295044
37	182.83245706558228	pulse	1	t		35.0	2.5	blank	1.0	204.8775770664215	
37	184.4325110912323	pulse	1	t		35.0	2.5	blank	1.0	206.47763109207153	
37	184.94900107383728	fix_post	2		12	35.0	2.5	blank	1.0	206.9941210746765	0.09995603561401367
38	185.0489571094513	fix_pre	0		119	36.0	2.5	/experiments/AOT/AOT_stimuli/rescaled_final/0236_rv.mp4	0.0	207.09407711029053	0.9917149543762207
38	186.0325939655304	pulse	0	t		36.0	2.5	/experiments/AOT/AOT_stimuli/rescaled_final/0236_rv.mp4	0.0	208.07771396636963	
38	186.04067206382751	movie	1		246	36.0	2.5	/experiments/AOT/AOT_stimuli/rescaled_final/0236_rv.mp4	0.0	208.08579206466675	2.5083789825439453
38	187.63240790367126	pulse	1	t		36.0	2.5	/experiments/AOT/AOT_stimuli/rescaled_final/0236_rv.mp4	0.0	209.6775279045105	
38	188.54905104637146	fix_post	2		12	36.0	2.5	/experiments/AOT/AOT_stimuli/rescaled_final/0236_rv.mp4	0.0	210.5941710472107	0.09961891174316406
39	188.64866995811462	fix_pre	0		120	37.0	2.5	/experiments/AOT/AOT_stimuli/rescaled_final/0048_fw.mp4	0.0	210.69378995895386	1.0004611015319824
39	189.2325119972229	pulse	0	t		37.0	2.5	/experiments/AOT/AOT_stimuli/rescaled_final/0048_fw.mp4	0.0	211.27763199806213	
39	189.6491310596466	movie	1		244	37.0	2.5	/experiments/AOT/AOT_stimuli/rescaled_final/0048_fw.mp4	0.0	211.69425106048584	2.4999048709869385
39	190.83230805397034	pulse	1	t		37.0	2.5	/experiments/AOT/AOT_stimuli/rescaled_final/0048_fw.mp4	0.0	212.87742805480957	
39	192.14903593063354	fix_post	2		12	37.0	2.5	/experiments/AOT/AOT_stimuli/rescaled_final/0048_fw.mp4	0.0	214.19415593147278	0.0999290943145752
40	192.24896502494812	fix_pre	0		120	38.0	2.5	/experiments/AOT/AOT_stimuli/rescaled_final/1332_rv.mp4	0.0	214.29408502578735	0.9999899864196777
40	192.43243312835693	pulse	0	t		38.0	2.5	/experiments/AOT/AOT_stimuli/rescaled_final/1332_rv.mp4	0.0	214.47755312919617	
40	193.2489550113678	movie	1		245	38.0	2.5	/experiments/AOT/AOT_stimuli/rescaled_final/1332_rv.mp4	0.0	215.29407501220703	2.499603033065796
40	194.03237891197205	pulse	1	t		38.0	2.5	/experiments/AOT/AOT_stimuli/rescaled_final/1332_rv.mp4	0.0	216.07749891281128	
40	195.63077402114868	pulse	1	t		38.0	2.5	/experiments/AOT/AOT_stimuli/rescaled_final/1332_rv.mp4	0.0	217.67589402198792	
40	195.7485580444336	fix_post	2		12	38.0	2.5	/experiments/AOT/AOT_stimuli/rescaled_final/1332_rv.mp4	0.0	217.79367804527283	0.10038495063781738
41	195.8489429950714	fix_pre	0		120	39.0	2.5	/experiments/AOT/AOT_stimuli/rescaled_final/2005_rv.mp4	0.0	217.89406299591064	0.9999611377716064
41	196.84890413284302	movie	1		250	39.0	2.5	/experiments/AOT/AOT_stimuli/rescaled_final/2005_rv.mp4	0.0	218.89402413368225	2.4996509552001953
41	197.23214292526245	pulse	1	t		39.0	2.5	/experiments/AOT/AOT_stimuli/rescaled_final/2005_rv.mp4	0.0	219.27726292610168	
41	198.8323359489441	pulse	1	t		39.0	2.5	/experiments/AOT/AOT_stimuli/rescaled_final/2005_rv.mp4	0.0	220.87745594978333	
41	199.3485550880432	fix_post	2		12	39.0	2.5	/experiments/AOT/AOT_stimuli/rescaled_final/2005_rv.mp4	0.0	221.39367508888245	0.10032391548156738
42	199.44887900352478	fix_pre	0		119	40.0	2.5	/experiments/AOT/AOT_stimuli/rescaled_final/1656_rv.mp4	0.0	221.493999004364	0.9916360378265381
42	200.43241691589355	pulse	0	t		40.0	2.5	/experiments/AOT/AOT_stimuli/rescaled_final/1656_rv.mp4	0.0	222.4775369167328	
42	200.44051504135132	movie	1		246	40.0	2.5	/experiments/AOT/AOT_stimuli/rescaled_final/1656_rv.mp4	0.0	222.48563504219055	2.508296012878418
42	202.03199195861816	pulse	1	t		40.0	2.5	/experiments/AOT/AOT_stimuli/rescaled_final/1656_rv.mp4	0.0	224.0771119594574	
42	202.94881105422974	fix_post	2		12	40.0	2.5	/experiments/AOT/AOT_stimuli/rescaled_final/1656_rv.mp4	0.0	224.99393105506897	0.10003495216369629
43	203.04884600639343	fix_pre	0		120	41.0	2.5	blank	1.0	225.09396600723267	1.000020980834961
43	203.6323161125183	pulse	0	t		41.0	2.5	blank	1.0	225.67743611335754	
43	204.0488669872284	movie	1		300	41.0	2.5	blank	1.0	226.09398698806763	2.4995620250701904
43	205.23235893249512	pulse	1	t		41.0	2.5	blank	1.0	227.27747893333435	
43	206.54842901229858	fix_post	2		12	41.0	2.5	blank	1.0	228.59354901313782	0.10043501853942871
44	206.648864030838	fix_pre	0		120	42.0	2.5	/experiments/AOT/AOT_stimuli/rescaled_final/1190_fw.mp4	0.0	228.69398403167725	0.9996190071105957
44	206.832377910614	pulse	0	t		42.0	2.5	/experiments/AOT/AOT_stimuli/rescaled_final/1190_fw.mp4	0.0	228.87749791145325	
44	207.6484830379486	movie	1		243	42.0	2.5	/experiments/AOT/AOT_stimuli/rescaled_final/1190_fw.mp4	0.0	229.69360303878784	2.4999120235443115
44	208.43232607841492	pulse	1	t		42.0	2.5	/experiments/AOT/AOT_stimuli/rescaled_final/1190_fw.mp4	0.0	230.47744607925415	
44	210.0309739112854	pulse	1	t		42.0	2.5	/experiments/AOT/AOT_stimuli/rescaled_final/1190_fw.mp4	0.0	232.07609391212463	
44	210.14839506149292	fix_post	2		12	42.0	2.5	/experiments/AOT/AOT_stimuli/rescaled_final/1190_fw.mp4	0.0	232.19351506233215	0.1004018783569336
45	210.24879693984985	fix_pre	0		120	43.0	2.5	/experiments/AOT/AOT_stimuli/rescaled_final/1439_rv.mp4	0.0	232.2939169406891	1.0001111030578613
45	211.24890804290771	movie	1		243	43.0	2.5	/experiments/AOT/AOT_stimuli/rescaled_final/1439_rv.mp4	0.0	233.29402804374695	2.499521017074585
45	211.63216400146484	pulse	1	t		43.0	2.5	/experiments/AOT/AOT_stimuli/rescaled_final/1439_rv.mp4	0.0	233.67728400230408	
45	213.2323179244995	pulse	1	t		43.0	2.5	/experiments/AOT/AOT_stimuli/rescaled_final/1439_rv.mp4	0.0	235.27743792533875	
45	213.7484290599823	fix_post	2		12	43.0	2.5	/experiments/AOT/AOT_stimuli/rescaled_final/1439_rv.mp4	0.0	235.79354906082153	0.1003720760345459
46	213.84880113601685	fix_pre	0		119	44.0	2.5	/experiments/AOT/AOT_stimuli/rescaled_final/1054_fw.mp4	0.0	235.89392113685608	0.991689920425415
46	214.8323690891266	pulse	0	t		44.0	2.5	/experiments/AOT/AOT_stimuli/rescaled_final/1054_fw.mp4	0.0	236.87748908996582	
46	214.84049105644226	movie	1		245	44.0	2.5	/experiments/AOT/AOT_stimuli/rescaled_final/1054_fw.mp4	0.0	236.8856110572815	2.508275032043457
46	216.4332640171051	pulse	1	t		44.0	2.5	/experiments/AOT/AOT_stimuli/rescaled_final/1054_fw.mp4	0.0	238.47838401794434	
46	217.34876608848572	fix_post	2		12	44.0	2.5	/experiments/AOT/AOT_stimuli/rescaled_final/1054_fw.mp4	0.0	239.39388608932495	0.10009288787841797
47	217.44885897636414	fix_pre	0		120	45.0	2.5	/experiments/AOT/AOT_stimuli/rescaled_final/1834_rv.mp4	0.0	239.49397897720337	0.9999160766601562
47	218.03232097625732	pulse	0	t		45.0	2.5	/experiments/AOT/AOT_stimuli/rescaled_final/1834_rv.mp4	0.0	240.07744097709656	
47	218.4487750530243	movie	1		245	45.0	2.5	/experiments/AOT/AOT_stimuli/rescaled_final/1834_rv.mp4	0.0	240.49389505386353	2.5000698566436768
47	219.63240098953247	pulse	1	t		45.0	2.5	/experiments/AOT/AOT_stimuli/rescaled_final/1834_rv.mp4	0.0	241.6775209903717	
47	220.94884490966797	fix_post	2		12	45.0	2.5	/experiments/AOT/AOT_stimuli/rescaled_final/1834_rv.mp4	0.0	242.9939649105072	0.10007810592651367
48	221.04892301559448	fix_pre	0		120	46.0	2.5	/experiments/AOT/AOT_stimuli/rescaled_final/0050_fw.mp4	0.0	243.09404301643372	0.9998619556427002
48	221.23225593566895	pulse	0	t		46.0	2.5	/experiments/AOT/AOT_stimuli/rescaled_final/0050_fw.mp4	0.0	243.27737593650818	
48	222.04878497123718	movie	1		243	46.0	2.5	/experiments/AOT/AOT_stimuli/rescaled_final/0050_fw.mp4	0.0	244.09390497207642	2.4995529651641846
48	222.832279920578	pulse	1	t		46.0	2.5	/experiments/AOT/AOT_stimuli/rescaled_final/0050_fw.mp4	0.0	244.87739992141724	
48	224.43096494674683	pulse	1	t		46.0	2.5	/experiments/AOT/AOT_stimuli/rescaled_final/0050_fw.mp4	0.0	246.47608494758606	
48	224.54833793640137	fix_post	2		12	46.0	2.5	/experiments/AOT/AOT_stimuli/rescaled_final/0050_fw.mp4	0.0	246.5934579372406	0.10046219825744629
49	224.6488001346588	fix_pre	0		120	47.0	2.5	blank	1.0	246.69392013549805	1.0000219345092773
49	225.6488220691681	movie	1		300	47.0	2.5	blank	1.0	247.69394207000732	2.4998810291290283
49	226.032301902771	pulse	1	t		47.0	2.5	blank	1.0	248.07742190361023	
49	227.63226509094238	pulse	1	t		47.0	2.5	blank	1.0	249.67738509178162	
49	228.14870309829712	fix_post	2		12	47.0	2.5	blank	1.0	250.19382309913635	0.10008788108825684
50	228.24879097938538	fix_pre	0		119	48.0	2.5	/experiments/AOT/AOT_stimuli/rescaled_final/1212_rv.mp4	0.0	250.2939109802246	0.9916801452636719
50	229.23232913017273	pulse	0	t		48.0	2.5	/experiments/AOT/AOT_stimuli/rescaled_final/1212_rv.mp4	0.0	251.27744913101196	
50	229.24047112464905	movie	1		245	48.0	2.5	/experiments/AOT/AOT_stimuli/rescaled_final/1212_rv.mp4	0.0	251.28559112548828	2.5082108974456787
50	230.83158493041992	pulse	1	t		48.0	2.5	/experiments/AOT/AOT_stimuli/rescaled_final/1212_rv.mp4	0.0	252.87670493125916	
50	231.74868202209473	fix_post	2		12	48.0	2.5	/experiments/AOT/AOT_stimuli/rescaled_final/1212_rv.mp4	0.0	253.79380202293396	0.10002803802490234
51	231.84871006011963	fix_pre	0		120	49.0	2.5	/experiments/AOT/AOT_stimuli/rescaled_final/1372_fw.mp4	0.0	253.89383006095886	0.9999630451202393
51	232.43217396736145	pulse	0	t		49.0	2.5	/experiments/AOT/AOT_stimuli/rescaled_final/1372_fw.mp4	0.0	254.47729396820068	
51	232.84867310523987	movie	1		243	49.0	2.5	/experiments/AOT/AOT_stimuli/rescaled_final/1372_fw.mp4	0.0	254.8937931060791	2.4996109008789062
51	234.03228998184204	pulse	1	t		49.0	2.5	/experiments/AOT/AOT_stimuli/rescaled_final/1372_fw.mp4	0.0	256.0774099826813	
51	235.34828400611877	fix_post	2		12	49.0	2.5	/experiments/AOT/AOT_stimuli/rescaled_final/1372_fw.mp4	0.0	257.393404006958	0.10037994384765625
52	235.44866394996643	fix_pre	0		120	50.0	2.5	/experiments/AOT/AOT_stimuli/rescaled_final/0874_rv.mp4	0.0	257.49378395080566	0.9996140003204346
52	235.6322820186615	pulse	0	t		50.0	2.5	/experiments/AOT/AOT_stimuli/rescaled_final/0874_rv.mp4	0.0	257.67740201950073	
52	236.44827795028687	movie	1		243	50.0	2.5	/experiments/AOT/AOT_stimuli/rescaled_final/0874_rv.mp4	0.0	258.4933979511261	2.5003650188446045
52	237.232253074646	pulse	1	t		50.0	2.5	/experiments/AOT/AOT_stimuli/rescaled_final/0874_rv.mp4	0.0	259.27737307548523	
52	238.83060908317566	pulse	1	t		50.0	2.5	/experiments/AOT/AOT_stimuli/rescaled_final/0874_rv.mp4	0.0	260.8757290840149	
52	238.94864296913147	fix_post	2		12	50.0	2.5	/experiments/AOT/AOT_stimuli/rescaled_final/0874_rv.mp4	0.0	260.9937629699707	0.1000511646270752
53	239.04869413375854	fix_pre	0		120	51.0	2.5	/experiments/AOT/AOT_stimuli/rescaled_final/0906_fw.mp4	0.0	261.0938141345978	0.9999799728393555
53	240.0486741065979	movie	1		246	51.0	2.5	/experiments/AOT/AOT_stimuli/rescaled_final/0906_fw.mp4	0.0	262.09379410743713	2.500013828277588
53	240.4316201210022	pulse	1	t		51.0	2.5	/experiments/AOT/AOT_stimuli/rescaled_final/0906_fw.mp4	0.0	262.47674012184143	
53	242.0322549343109	pulse	1	t		51.0	2.5	/experiments/AOT/AOT_stimuli/rescaled_final/0906_fw.mp4	0.0	264.07737493515015	
53	242.5486879348755	fix_post	2		12	51.0	2.5	/experiments/AOT/AOT_stimuli/rescaled_final/0906_fw.mp4	0.0	264.5938079357147	0.10005712509155273
54	242.64874505996704	fix_pre	0		119	52.0	2.5	/experiments/AOT/AOT_stimuli/rescaled_final/0046_fw.mp4	0.0	264.6938650608063	0.9912240505218506
54	243.63176012039185	pulse	0	t		52.0	2.5	/experiments/AOT/AOT_stimuli/rescaled_final/0046_fw.mp4	0.0	265.6768801212311	
54	243.6399691104889	movie	1		248	52.0	2.5	/experiments/AOT/AOT_stimuli/rescaled_final/0046_fw.mp4	0.0	265.6850891113281	2.50849986076355
54	245.23147797584534	pulse	1	t		52.0	2.5	/experiments/AOT/AOT_stimuli/rescaled_final/0046_fw.mp4	0.0	267.27659797668457	
54	246.14846897125244	fix_post	2		12	52.0	2.5	/experiments/AOT/AOT_stimuli/rescaled_final/0046_fw.mp4	0.0	268.1935889720917	0.10003399848937988
55	246.24850296974182	fix_pre	0		120	53.0	2.5	/experiments/AOT/AOT_stimuli/rescaled_final/1995_rv.mp4	0.0	268.29362297058105	1.0001029968261719
55	246.8333020210266	pulse	0	t		53.0	2.5	/experiments/AOT/AOT_stimuli/rescaled_final/1995_rv.mp4	0.0	268.87842202186584	
55	247.248605966568	movie	1		245	53.0	2.5	/experiments/AOT/AOT_stimuli/rescaled_final/1995_rv.mp4	0.0	269.2937259674072	2.5000290870666504
55	248.43227791786194	pulse	1	t		53.0	2.5	/experiments/AOT/AOT_stimuli/rescaled_final/1995_rv.mp4	0.0	270.4773979187012	
55	249.74863505363464	fix_post	2		12	53.0	2.5	/experiments/AOT/AOT_stimuli/rescaled_final/1995_rv.mp4	0.0	271.7937550544739	0.10002398490905762
56	249.8486590385437	fix_pre	0		120	54.0	2.5	/experiments/AOT/AOT_stimuli/rescaled_final/0711_fw.mp4	0.0	271.89377903938293	0.9999608993530273
56	250.03216910362244	pulse	0	t		54.0	2.5	/experiments/AOT/AOT_stimuli/rescaled_final/0711_fw.mp4	0.0	272.07728910446167	
56	250.84861993789673	movie	1		246	54.0	2.5	/experiments/AOT/AOT_stimuli/rescaled_final/0711_fw.mp4	0.0	272.89373993873596	2.499643087387085
56	251.63220191001892	pulse	1	t		54.0	2.5	/experiments/AOT/AOT_stimuli/rescaled_final/0711_fw.mp4	0.0	273.67732191085815	
56	253.2306890487671	pulse	1	t		54.0	2.5	/experiments/AOT/AOT_stimuli/rescaled_final/0711_fw.mp4	0.0	275.2758090496063	
56	253.3482630252838	fix_post	2		12	54.0	2.5	/experiments/AOT/AOT_stimuli/rescaled_final/0711_fw.mp4	0.0	275.39338302612305	0.1004190444946289
57	253.44868206977844	fix_pre	0		120	55.0	2.5	/experiments/AOT/AOT_stimuli/rescaled_final/0505_fw.mp4	0.0	275.4938020706177	0.9999449253082275
57	254.44862699508667	movie	1		244	55.0	2.5	/experiments/AOT/AOT_stimuli/rescaled_final/0505_fw.mp4	0.0	276.4937469959259	2.500009059906006
57	254.83145403862	pulse	1	t		55.0	2.5	/experiments/AOT/AOT_stimuli/rescaled_final/0505_fw.mp4	0.0	276.87657403945923	
57	256.4320750236511	pulse	1	t		55.0	2.5	/experiments/AOT/AOT_stimuli/rescaled_final/0505_fw.mp4	0.0	278.47719502449036	
57	256.9486360549927	fix_post	2		12	55.0	2.5	/experiments/AOT/AOT_stimuli/rescaled_final/0505_fw.mp4	0.0	278.9937560558319	0.09999990463256836
58	257.04863595962524	fix_pre	0		119	56.0	2.5	blank	1.0	279.0937559604645	0.9916729927062988
58	258.03209400177	pulse	0	t		56.0	2.5	blank	1.0	280.07721400260925	
58	258.04030895233154	movie	1		301	56.0	2.5	blank	1.0	280.0854289531708	2.5082991123199463
58	259.63215708732605	pulse	1	t		56.0	2.5	blank	1.0	281.6772770881653	
58	260.5486080646515	fix_post	2		12	56.0	2.5	blank	1.0	282.5937280654907	0.10003995895385742
59	260.64864802360535	fix_pre	0		120	57.0	2.5	/experiments/AOT/AOT_stimuli/rescaled_final/1757_fw.mp4	0.0	282.6937680244446	0.9999139308929443
59	261.23209500312805	pulse	0	t		57.0	2.5	/experiments/AOT/AOT_stimuli/rescaled_final/1757_fw.mp4	0.0	283.2772150039673	
59	261.6485619544983	movie	1		245	57.0	2.5	/experiments/AOT/AOT_stimuli/rescaled_final/1757_fw.mp4	0.0	283.6936819553375	2.4996280670166016
59	262.83211612701416	pulse	1	t		57.0	2.5	/experiments/AOT/AOT_stimuli/rescaled_final/1757_fw.mp4	0.0	284.8772361278534	
59	264.1481900215149	fix_post	2		12	57.0	2.5	/experiments/AOT/AOT_stimuli/rescaled_final/1757_fw.mp4	0.0	286.1933100223541	0.10038995742797852
60	264.24857997894287	fix_pre	0		120	58.0	2.5	/experiments/AOT/AOT_stimuli/rescaled_final/0645_rv.mp4	0.0	286.2936999797821	0.9999871253967285
60	264.4321539402008	pulse	0	t		58.0	2.5	/experiments/AOT/AOT_stimuli/rescaled_final/0645_rv.mp4	0.0	286.47727394104004	
60	265.2485671043396	movie	1		245	58.0	2.5	/experiments/AOT/AOT_stimuli/rescaled_final/0645_rv.mp4	0.0	287.29368710517883	2.499950885772705
60	266.0320589542389	pulse	1	t		58.0	2.5	/experiments/AOT/AOT_stimuli/rescaled_final/0645_rv.mp4	0.0	288.0771789550781	
60	267.6306459903717	pulse	1	t		58.0	2.5	/experiments/AOT/AOT_stimuli/rescaled_final/0645_rv.mp4	0.0	289.67576599121094	
60	267.7485179901123	fix_post	2		12	58.0	2.5	/experiments/AOT/AOT_stimuli/rescaled_final/0645_rv.mp4	0.0	289.79363799095154	0.1000220775604248
61	267.84854006767273	fix_pre	0		120	59.0	2.5	/experiments/AOT/AOT_stimuli/rescaled_final/1246_fw.mp4	0.0	289.89366006851196	1.000040054321289
61	268.848580121994	movie	1		244	59.0	2.5	/experiments/AOT/AOT_stimuli/rescaled_final/1246_fw.mp4	0.0	290.89370012283325	2.5000269412994385
61	269.23173999786377	pulse	1	t		59.0	2.5	/experiments/AOT/AOT_stimuli/rescaled_final/1246_fw.mp4	0.0	291.276859998703	
61	270.8320460319519	pulse	1	t		59.0	2.5	/experiments/AOT/AOT_stimuli/rescaled_final/1246_fw.mp4	0.0	292.87716603279114	
61	271.34860706329346	fix_post	2		12	59.0	2.5	/experiments/AOT/AOT_stimuli/rescaled_final/1246_fw.mp4	0.0	293.3937270641327	0.10001802444458008
62	271.44862508773804	fix_pre	0		119	60.0	2.5	/experiments/AOT/AOT_stimuli/rescaled_final/0341_rv.mp4	0.0	293.49374508857727	0.991523027420044
62	272.4319701194763	pulse	0	t		60.0	2.5	/experiments/AOT/AOT_stimuli/rescaled_final/0341_rv.mp4	0.0	294.47709012031555	
62	272.4401481151581	movie	1		246	60.0	2.5	/experiments/AOT/AOT_stimuli/rescaled_final/0341_rv.mp4	0.0	294.4852681159973	2.5084948539733887
62	274.03139209747314	pulse	1	t		60.0	2.5	/experiments/AOT/AOT_stimuli/rescaled_final/0341_rv.mp4	0.0	296.0765120983124	
62	274.94864296913147	fix_post	2		12	60.0	2.5	/experiments/AOT/AOT_stimuli/rescaled_final/0341_rv.mp4	0.0	296.9937629699707	0.09951496124267578
63	275.04815793037415	fix_pre	0		120	61.0	2.5	/experiments/AOT/AOT_stimuli/rescaled_final/0291_fw.mp4	0.0	297.0932779312134	1.0004360675811768
63	275.63205790519714	pulse	0	t		61.0	2.5	/experiments/AOT/AOT_stimuli/rescaled_final/0291_fw.mp4	0.0	297.6771779060364	
63	276.0485939979553	movie	1		245	61.0	2.5	/experiments/AOT/AOT_stimuli/rescaled_final/0291_fw.mp4	0.0	298.09371399879456	2.4999430179595947
63	277.2320730686188	pulse	1	t		61.0	2.5	/experiments/AOT/AOT_stimuli/rescaled_final/0291_fw.mp4	0.0	299.277193069458	
63	278.5485370159149	fix_post	2		12	61.0	2.5	/experiments/AOT/AOT_stimuli/rescaled_final/0291_fw.mp4	0.0	300.59365701675415	0.10001206398010254
64	278.648549079895	fix_pre	0		120	62.0	2.5	/experiments/AOT/AOT_stimuli/rescaled_final/1962_fw.mp4	0.0	300.69366908073425	0.9999969005584717
64	278.8320200443268	pulse	0	t		62.0	2.5	/experiments/AOT/AOT_stimuli/rescaled_final/1962_fw.mp4	0.0	300.877140045166	
64	279.6485459804535	movie	1		245	62.0	2.5	/experiments/AOT/AOT_stimuli/rescaled_final/1962_fw.mp4	0.0	301.6936659812927	2.4999539852142334
64	280.4319829940796	pulse	1	t		62.0	2.5	/experiments/AOT/AOT_stimuli/rescaled_final/1962_fw.mp4	0.0	302.4771029949188	
64	282.0281240940094	pulse	1	t		62.0	2.5	/experiments/AOT/AOT_stimuli/rescaled_final/1962_fw.mp4	0.0	304.07324409484863	
64	282.1484999656677	fix_post	2		12	62.0	2.5	/experiments/AOT/AOT_stimuli/rescaled_final/1962_fw.mp4	0.0	304.19361996650696	0.1000211238861084
65	282.24852108955383	fix_pre	0		120	63.0	2.5	blank	1.0	304.29364109039307	1.0000619888305664
65	283.2485830783844	movie	1		300	63.0	2.5	blank	1.0	305.29370307922363	2.499932050704956
65	283.6320159435272	pulse	1	t		63.0	2.5	blank	1.0	305.67713594436646	
65	285.2319869995117	pulse	1	t		63.0	2.5	blank	1.0	307.27710700035095	
65	285.74851512908936	fix_post	2		12	63.0	2.5	blank	1.0	307.7936351299286	0.09998083114624023
66	285.8484959602356	fix_pre	0		119	64.0	2.5	/experiments/AOT/AOT_stimuli/rescaled_final/1255_rv.mp4	0.0	307.89361596107483	0.991645097732544
66	286.8319880962372	pulse	0	t		64.0	2.5	/experiments/AOT/AOT_stimuli/rescaled_final/1255_rv.mp4	0.0	308.8771080970764	
66	286.84014105796814	movie	1		246	64.0	2.5	/experiments/AOT/AOT_stimuli/rescaled_final/1255_rv.mp4	0.0	308.8852610588074	2.5083529949188232
66	288.43209505081177	pulse	1	t		64.0	2.5	/experiments/AOT/AOT_stimuli/rescaled_final/1255_rv.mp4	0.0	310.477215051651	
66	289.34849405288696	fix_post	2		12	64.0	2.5	/experiments/AOT/AOT_stimuli/rescaled_final/1255_rv.mp4	0.0	311.3936140537262	0.09989690780639648
67	289.44839096069336	fix_pre	0		120	65.0	2.5	/experiments/AOT/AOT_stimuli/rescaled_final/0416_rv.mp4	0.0	311.4935109615326	1.000040054321289
67	290.03216791152954	pulse	0	t		65.0	2.5	/experiments/AOT/AOT_stimuli/rescaled_final/0416_rv.mp4	0.0	312.0772879123688	
67	290.44843101501465	movie	1		244	65.0	2.5	/experiments/AOT/AOT_stimuli/rescaled_final/0416_rv.mp4	0.0	312.4935510158539	2.499969959259033
67	291.63206791877747	pulse	1	t		65.0	2.5	/experiments/AOT/AOT_stimuli/rescaled_final/0416_rv.mp4	0.0	313.6771879196167	
67	292.9484009742737	fix_post	2		12	65.0	2.5	/experiments/AOT/AOT_stimuli/rescaled_final/0416_rv.mp4	0.0	314.9935209751129	0.10005998611450195
68	293.0484609603882	fix_pre	0		120	66.0	2.5	/experiments/AOT/AOT_stimuli/rescaled_final/0419_rv.mp4	0.0	315.0935809612274	0.9999649524688721
68	293.2320170402527	pulse	0	t		66.0	2.5	/experiments/AOT/AOT_stimuli/rescaled_final/0419_rv.mp4	0.0	315.2771370410919	
68	294.04842591285706	movie	1		244	66.0	2.5	/experiments/AOT/AOT_stimuli/rescaled_final/0419_rv.mp4	0.0	316.0935459136963	2.499998092651367
68	294.83198595046997	pulse	1	t		66.0	2.5	/experiments/AOT/AOT_stimuli/rescaled_final/0419_rv.mp4	0.0	316.8771059513092	
68	296.43095993995667	pulse	1	t		66.0	2.5	/experiments/AOT/AOT_stimuli/rescaled_final/0419_rv.mp4	0.0	318.4760799407959	
68	296.5484240055084	fix_post	2		12	66.0	2.5	/experiments/AOT/AOT_stimuli/rescaled_final/0419_rv.mp4	0.0	318.59354400634766	0.09998607635498047
69	296.6484100818634	fix_pre	0		120	67.0	2.5	/experiments/AOT/AOT_stimuli/rescaled_final/1328_rv.mp4	0.0	318.69353008270264	1.0000569820404053
69	297.6484670639038	movie	1		247	67.0	2.5	/experiments/AOT/AOT_stimuli/rescaled_final/1328_rv.mp4	0.0	319.69358706474304	2.4995570182800293
69	298.03137493133545	pulse	1	t		67.0	2.5	/experiments/AOT/AOT_stimuli/rescaled_final/1328_rv.mp4	0.0	320.0764949321747	
69	299.63195300102234	pulse	1	t		67.0	2.5	/experiments/AOT/AOT_stimuli/rescaled_final/1328_rv.mp4	0.0	321.6770730018616	
69	300.14802408218384	fix_post	2		12	67.0	2.5	/experiments/AOT/AOT_stimuli/rescaled_final/1328_rv.mp4	0.0	322.19314408302307	0.10040497779846191
70	300.2484290599823	fix_pre	0		119	68.0	2.5	/experiments/AOT/AOT_stimuli/rescaled_final/0033_fw.mp4	0.0	322.29354906082153	0.9918060302734375
70	301.23197293281555	pulse	0	t		68.0	2.5	/experiments/AOT/AOT_stimuli/rescaled_final/0033_fw.mp4	0.0	323.2770929336548	
70	301.24023509025574	movie	1		246	68.0	2.5	/experiments/AOT/AOT_stimuli/rescaled_final/0033_fw.mp4	0.0	323.28535509109497	2.5077500343322754
70	302.8314290046692	pulse	1	t		68.0	2.5	/experiments/AOT/AOT_stimuli/rescaled_final/0033_fw.mp4	0.0	324.8765490055084	
70	303.747985124588	fix_post	2		12	68.0	2.5	/experiments/AOT/AOT_stimuli/rescaled_final/0033_fw.mp4	0.0	325.79310512542725	0.10040593147277832
71	303.8483910560608	fix_pre	0		120	69.0	2.5	blank	1.0	325.8935110569	1.0000579357147217
71	304.4320890903473	pulse	0	t		69.0	2.5	blank	1.0	326.4772090911865	
71	304.8484489917755	movie	1		300	69.0	2.5	blank	1.0	326.89356899261475	2.4994800090789795
71	306.0318479537964	pulse	1	t		69.0	2.5	blank	1.0	328.0769679546356	
71	307.3479290008545	fix_post	2		12	69.0	2.5	blank	1.0	329.3930490016937	0.10050201416015625
72	307.44843101501465	fix_pre	0		120	70.0	2.5	/experiments/AOT/AOT_stimuli/rescaled_final/1844_rv.mp4	0.0	329.4935510158539	0.9999511241912842
72	307.6319351196289	pulse	0	t		70.0	2.5	/experiments/AOT/AOT_stimuli/rescaled_final/1844_rv.mp4	0.0	329.67705512046814	
72	308.44838213920593	movie	1		248	70.0	2.5	/experiments/AOT/AOT_stimuli/rescaled_final/1844_rv.mp4	0.0	330.49350214004517	2.500037908554077
72	309.2318561077118	pulse	1	t		70.0	2.5	/experiments/AOT/AOT_stimuli/rescaled_final/1844_rv.mp4	0.0	331.276976108551	
72	310.8318419456482	pulse	1	t		70.0	2.5	/experiments/AOT/AOT_stimuli/rescaled_final/1844_rv.mp4	0.0	332.8769619464874	
72	310.94842004776	fix_post	2		12	70.0	2.5	/experiments/AOT/AOT_stimuli/rescaled_final/1844_rv.mp4	0.0	332.99354004859924	0.09992599487304688
73	311.04834604263306	fix_pre	0		120	71.0	2.5	/experiments/AOT/AOT_stimuli/rescaled_final/2030_rv.mp4	0.0	333.0934660434723	0.9996359348297119
73	312.04798197746277	movie	1		245	71.0	2.5	/experiments/AOT/AOT_stimuli/rescaled_final/2030_rv.mp4	0.0	334.093101978302	2.500352144241333
73	312.4314351081848	pulse	1	t		71.0	2.5	/experiments/AOT/AOT_stimuli/rescaled_final/2030_rv.mp4	0.0	334.47655510902405	
73	314.0317621231079	pulse	1	t		71.0	2.5	/experiments/AOT/AOT_stimuli/rescaled_final/2030_rv.mp4	0.0	336.07688212394714	
73	314.5483341217041	fix_post	2		12	71.0	2.5	/experiments/AOT/AOT_stimuli/rescaled_final/2030_rv.mp4	0.0	336.59345412254333	0.10004591941833496
74	314.64838004112244	fix_pre	0		119	72.0	2.5	/experiments/AOT/AOT_stimuli/rescaled_final/0572_fw.mp4	0.0	336.69350004196167	0.9916379451751709
74	315.6318209171295	pulse	0	t		72.0	2.5	/experiments/AOT/AOT_stimuli/rescaled_final/0572_fw.mp4	0.0	337.67694091796875	
74	315.6400179862976	movie	1		247	72.0	2.5	/experiments/AOT/AOT_stimuli/rescaled_final/0572_fw.mp4	0.0	337.68513798713684	2.5082919597625732
74	317.23143792152405	pulse	1	t		72.0	2.5	/experiments/AOT/AOT_stimuli/rescaled_final/0572_fw.mp4	0.0	339.2765579223633	
74	318.1483099460602	fix_post	2		12	72.0	2.5	/experiments/AOT/AOT_stimuli/rescaled_final/0572_fw.mp4	0.0	340.1934299468994	0.10000109672546387
75	318.24831104278564	fix_pre	0		120	73.0	2.5	/experiments/AOT/AOT_stimuli/rescaled_final/0469_fw.mp4	0.0	340.2934310436249	0.999993085861206
75	318.83184695243835	pulse	0	t		73.0	2.5	/experiments/AOT/AOT_stimuli/rescaled_final/0469_fw.mp4	0.0	340.8769669532776	
75	319.24830412864685	movie	1		243	73.0	2.5	/experiments/AOT/AOT_stimuli/rescaled_final/0469_fw.mp4	0.0	341.2934241294861	2.500027894973755
75	320.4318699836731	pulse	1	t		73.0	2.5	/experiments/AOT/AOT_stimuli/rescaled_final/0469_fw.mp4	0.0	342.47698998451233	
75	321.7483320236206	fix_post	2		12	73.0	2.5	/experiments/AOT/AOT_stimuli/rescaled_final/0469_fw.mp4	0.0	343.79345202445984	0.0999290943145752
76	321.8482611179352	fix_pre	0		120	74.0	2.5	/experiments/AOT/AOT_stimuli/rescaled_final/1907_rv.mp4	0.0	343.8933811187744	1.000079870223999
76	322.03183102607727	pulse	0	t		74.0	2.5	/experiments/AOT/AOT_stimuli/rescaled_final/1907_rv.mp4	0.0	344.0769510269165	
76	322.8483409881592	movie	1		244	74.0	2.5	/experiments/AOT/AOT_stimuli/rescaled_final/1907_rv.mp4	0.0	344.8934609889984	2.4995880126953125
76	323.6317369937897	pulse	1	t		74.0	2.5	/experiments/AOT/AOT_stimuli/rescaled_final/1907_rv.mp4	0.0	345.6768569946289	
76	325.2304620742798	pulse	1	t		74.0	2.5	/experiments/AOT/AOT_stimuli/rescaled_final/1907_rv.mp4	0.0	347.275582075119	
76	325.3479290008545	fix_post	2		12	74.0	2.5	/experiments/AOT/AOT_stimuli/rescaled_final/1907_rv.mp4	0.0	347.3930490016937	0.09993100166320801
77	325.4478600025177	fix_pre	0		120	75.0	2.5	blank	1.0	347.49298000335693	1.0003859996795654
77	326.44824600219727	movie	1		300	75.0	2.5	blank	1.0	348.4933660030365	2.500049114227295
77	326.8319070339203	pulse	1	t		75.0	2.5	blank	1.0	348.8770270347595	
77	328.43176102638245	pulse	1	t		75.0	2.5	blank	1.0	350.4768810272217	
77	328.94829511642456	fix_post	2		12	75.0	2.5	blank	1.0	350.9934151172638	0.09999585151672363
78	329.0482909679413	fix_pre	0		119	76.0	2.5	/experiments/AOT/AOT_stimuli/rescaled_final/1210_rv.mp4	0.0	351.0934109687805	0.9916970729827881
78	330.0317769050598	pulse	0	t		76.0	2.5	/experiments/AOT/AOT_stimuli/rescaled_final/1210_rv.mp4	0.0	352.07689690589905	
78	330.0399880409241	movie	1		244	76.0	2.5	/experiments/AOT/AOT_stimuli/rescaled_final/1210_rv.mp4	0.0	352.0851080417633	2.508220911026001
78	331.6313829421997	pulse	1	t		76.0	2.5	/experiments/AOT/AOT_stimuli/rescaled_final/1210_rv.mp4	0.0	353.67650294303894	
78	332.5482089519501	fix_post	2		12	76.0	2.5	/experiments/AOT/AOT_stimuli/rescaled_final/1210_rv.mp4	0.0	354.5933289527893	0.10003304481506348
79	332.64824199676514	fix_pre	0		120	77.0	2.5	/experiments/AOT/AOT_stimuli/rescaled_final/0505_fw.mp4	0.0	354.69336199760437	0.9997029304504395
79	333.23180103302	pulse	0	t		77.0	2.5	/experiments/AOT/AOT_stimuli/rescaled_final/0505_fw.mp4	0.0	355.27692103385925	
79	333.6479449272156	movie	1		245	77.0	2.5	/experiments/AOT/AOT_stimuli/rescaled_final/0505_fw.mp4	0.0	355.6930649280548	2.5003130435943604
79	334.8318099975586	pulse	1	t		77.0	2.5	/experiments/AOT/AOT_stimuli/rescaled_final/0505_fw.mp4	0.0	356.8769299983978	
79	336.14825797080994	fix_post	2		12	77.0	2.5	/experiments/AOT/AOT_stimuli/rescaled_final/0505_fw.mp4	0.0	358.19337797164917	0.10000109672546387
80	336.2482590675354	fix_pre	0		120	78.0	2.5	/experiments/AOT/AOT_stimuli/rescaled_final/0416_fw.mp4	0.0	358.29337906837463	0.9999279975891113
80	336.43176913261414	pulse	0	t		78.0	2.5	/experiments/AOT/AOT_stimuli/rescaled_final/0416_fw.mp4	0.0	358.47688913345337	
80	337.2481870651245	movie	1		244	78.0	2.5	/experiments/AOT/AOT_stimuli/rescaled_final/0416_fw.mp4	0.0	359.29330706596375	2.5001039505004883
80	338.03176403045654	pulse	1	t		78.0	2.5	/experiments/AOT/AOT_stimuli/rescaled_final/0416_fw.mp4	0.0	360.0768840312958	
80	339.6304581165314	pulse	1	t		78.0	2.5	/experiments/AOT/AOT_stimuli/rescaled_final/0416_fw.mp4	0.0	361.6755781173706	
80	339.748291015625	fix_post	2		12	78.0	2.5	/experiments/AOT/AOT_stimuli/rescaled_final/0416_fw.mp4	0.0	361.79341101646423	0.10010504722595215
81	339.84839606285095	fix_pre	0		120	79.0	2.5	/experiments/AOT/AOT_stimuli/rescaled_final/1794_rv.mp4	0.0	361.8935160636902	0.9998159408569336
81	340.8482120037079	movie	1		246	79.0	2.5	/experiments/AOT/AOT_stimuli/rescaled_final/1794_rv.mp4	0.0	362.8933320045471	2.5000369548797607
81	341.23147201538086	pulse	1	t		79.0	2.5	/experiments/AOT/AOT_stimuli/rescaled_final/1794_rv.mp4	0.0	363.2765920162201	
81	342.8317439556122	pulse	1	t		79.0	2.5	/experiments/AOT/AOT_stimuli/rescaled_final/1794_rv.mp4	0.0	364.8768639564514	
81	343.34824895858765	fix_post	2		12	79.0	2.5	/experiments/AOT/AOT_stimuli/rescaled_final/1794_rv.mp4	0.0	365.3933689594269	0.09992408752441406
82	343.44817304611206	fix_pre	0		119	80.0	2.5	/experiments/AOT/AOT_stimuli/rescaled_final/0040_rv.mp4	0.0	365.4932930469513	0.9916870594024658
82	344.43180298805237	pulse	0	t		80.0	2.5	/experiments/AOT/AOT_stimuli/rescaled_final/0040_rv.mp4	0.0	366.4769229888916	
82	344.4398601055145	movie	1		245	80.0	2.5	/experiments/AOT/AOT_stimuli/rescaled_final/0040_rv.mp4	0.0	366.48498010635376	2.508384943008423
82	346.03180408477783	pulse	1	t		80.0	2.5	/experiments/AOT/AOT_stimuli/rescaled_final/0040_rv.mp4	0.0	368.07692408561707	
82	346.94824504852295	fix_post	2		12	80.0	2.5	/experiments/AOT/AOT_stimuli/rescaled_final/0040_rv.mp4	0.0	368.9933650493622	0.09961891174316406
83	347.0478639602661	fix_pre	0		120	81.0	2.5	/experiments/AOT/AOT_stimuli/rescaled_final/0825_rv.mp4	0.0	369.09298396110535	1.0003790855407715
83	347.631716966629	pulse	0	t		81.0	2.5	/experiments/AOT/AOT_stimuli/rescaled_final/0825_rv.mp4	0.0	369.67683696746826	
83	348.0482430458069	movie	1		245	81.0	2.5	/experiments/AOT/AOT_stimuli/rescaled_final/0825_rv.mp4	0.0	370.0933630466461	2.499919891357422
83	349.23175501823425	pulse	1	t		81.0	2.5	/experiments/AOT/AOT_stimuli/rescaled_final/0825_rv.mp4	0.0	371.2768750190735	
83	350.5481629371643	fix_post	2		12	81.0	2.5	/experiments/AOT/AOT_stimuli/rescaled_final/0825_rv.mp4	0.0	372.59328293800354	0.10004901885986328
84	350.64821195602417	fix_pre	0		120	82.0	2.5	/experiments/AOT/AOT_stimuli/rescaled_final/0783_fw.mp4	0.0	372.6933319568634	0.9995331764221191
84	350.83166313171387	pulse	0	t		82.0	2.5	/experiments/AOT/AOT_stimuli/rescaled_final/0783_fw.mp4	0.0	372.8767831325531	
84	351.6477451324463	movie	1		246	82.0	2.5	/experiments/AOT/AOT_stimuli/rescaled_final/0783_fw.mp4	0.0	373.6928651332855	2.500501871109009
84	352.4316029548645	pulse	1	t		82.0	2.5	/experiments/AOT/AOT_stimuli/rescaled_final/0783_fw.mp4	0.0	374.47672295570374	
84	354.03171491622925	pulse	1	t		82.0	2.5	/experiments/AOT/AOT_stimuli/rescaled_final/0783_fw.mp4	0.0	376.0768349170685	
84	354.1482470035553	fix_post	2		12	82.0	2.5	/experiments/AOT/AOT_stimuli/rescaled_final/0783_fw.mp4	0.0	376.19336700439453	0.09991002082824707
85	354.24815702438354	fix_pre	0		120	83.0	2.5	blank	1.0	376.2932770252228	0.9999699592590332
85	355.2481269836426	movie	1		300	83.0	2.5	blank	1.0	377.2932469844818	2.499880075454712
85	355.6312460899353	pulse	1	t		83.0	2.5	blank	1.0	377.67636609077454	
85	357.2313189506531	pulse	1	t		83.0	2.5	blank	1.0	379.2764389514923	
85	357.7480070590973	fix_post	2		12	83.0	2.5	blank	1.0	379.7931270599365	0.10038304328918457
87	357.8483901023865	stim	0		1716					379.8935101032257	14.299731969833374
87	358.8316259384155	pulse	0	t						380.87674593925476	
87	360.4315800666809	pulse	0	t						382.47670006752014	
87	362.0316150188446	pulse	0	t						384.07673501968384	
87	363.63157391548157	pulse	0	t						385.6766939163208	
87	365.2315709590912	pulse	0	t						387.2766909599304	
87	366.83157992362976	pulse	0	t						388.876699924469	
87	368.43152809143066	pulse	0	t						390.4766480922699	
87	370.03150606155396	pulse	0	t						392.0766260623932	
87	371.6314480304718	pulse	0	t						393.67656803131104	
