trial_nr	onset	event_type	phase	response	nr_frames	movie_index	movie_duration	movie_file	blank	onset_abs	duration
0	0.20848917961120605	stim	0		115					15.898569107055664	0.9583230018615723
0	1.1585900783538818	response	0	space						16.84867000579834	
1	1.1668121814727783	stim	0		9028					16.856892108917236	75.25542402267456
1	76.41230702400208	pulse	0	t						92.10238695144653	
1	76.42223620414734	stim	1		1715					92.1123161315918	14.299615859985352
1	78.00358819961548	pulse	1	t						93.69366812705994	
1	79.60373020172119	pulse	1	t						95.29381012916565	
1	81.196524143219	pulse	1	t						96.88660407066345	
1	82.79662108421326	pulse	1	t						98.48670101165771	
1	84.39693808555603	pulse	1	t						100.08701801300049	
1	85.99722099304199	pulse	1	t						101.68730092048645	
1	87.59734416007996	pulse	1	t						103.28742408752441	
1	89.1968080997467	pulse	1	t						104.88688802719116	
2	90.72185206413269	fix_pre	0		10	0.0	2.5	/experiments/knapen_AOT/AOT_stimuli/rescaled_final/1947_rv.mp4	0.0	106.41193199157715	0.08343696594238281
2	90.7970061302185	pulse	0	t		0.0	2.5	/experiments/knapen_AOT/AOT_stimuli/rescaled_final/1947_rv.mp4	0.0	106.48708605766296	
2	90.80528903007507	movie	1		243	0.0	2.5	/experiments/knapen_AOT/AOT_stimuli/rescaled_final/1947_rv.mp4	0.0	106.49536895751953	2.5087311267852783
2	92.39792203903198	pulse	1	t		0.0	2.5	/experiments/knapen_AOT/AOT_stimuli/rescaled_final/1947_rv.mp4	0.0	108.08800196647644	
2	93.31402015686035	fix_post	2		12	0.0	2.5	/experiments/knapen_AOT/AOT_stimuli/rescaled_final/1947_rv.mp4	0.0	109.00410008430481	0.09995794296264648
3	93.413978099823	fix_pre	0		120	1.0	2.5	/experiments/knapen_AOT/AOT_stimuli/rescaled_final/0713_rv.mp4	0.0	109.10405802726746	1.000140905380249
3	93.99754214286804	pulse	0	t		1.0	2.5	/experiments/knapen_AOT/AOT_stimuli/rescaled_final/0713_rv.mp4	0.0	109.6876220703125	
3	94.41411900520325	movie	1		244	1.0	2.5	/experiments/knapen_AOT/AOT_stimuli/rescaled_final/0713_rv.mp4	0.0	110.1041989326477	2.5003371238708496
3	95.59783816337585	pulse	1	t		1.0	2.5	/experiments/knapen_AOT/AOT_stimuli/rescaled_final/0713_rv.mp4	0.0	111.28791809082031	
3	96.9144561290741	fix_post	2		12	1.0	2.5	/experiments/knapen_AOT/AOT_stimuli/rescaled_final/0713_rv.mp4	0.0	112.60453605651855	0.10002803802490234
4	97.014484167099	fix_pre	0		120	2.0	2.5	/experiments/knapen_AOT/AOT_stimuli/rescaled_final/0525_fw.mp4	0.0	112.70456409454346	1.000121831893921
4	97.19804406166077	pulse	0	t		2.0	2.5	/experiments/knapen_AOT/AOT_stimuli/rescaled_final/0525_fw.mp4	0.0	112.88812398910522	
4	98.01460599899292	movie	1		242	2.0	2.5	/experiments/knapen_AOT/AOT_stimuli/rescaled_final/0525_fw.mp4	0.0	113.70468592643738	2.5005171298980713
4	98.79822707176208	pulse	1	t		2.0	2.5	/experiments/knapen_AOT/AOT_stimuli/rescaled_final/0525_fw.mp4	0.0	114.48830699920654	
4	100.3984591960907	pulse	1	t		2.0	2.5	/experiments/knapen_AOT/AOT_stimuli/rescaled_final/0525_fw.mp4	0.0	116.08853912353516	
4	100.51512312889099	fix_post	2		12	2.0	2.5	/experiments/knapen_AOT/AOT_stimuli/rescaled_final/0525_fw.mp4	0.0	116.20520305633545	0.09994101524353027
5	100.61506414413452	fix_pre	0		120	3.0	2.5	/experiments/knapen_AOT/AOT_stimuli/rescaled_final/1078_fw.mp4	0.0	116.30514407157898	1.0000660419464111
5	101.61513018608093	movie	1		241	3.0	2.5	/experiments/knapen_AOT/AOT_stimuli/rescaled_final/1078_fw.mp4	0.0	117.30521011352539	2.4922080039978027
5	102.00000810623169	pulse	1	t		3.0	2.5	/experiments/knapen_AOT/AOT_stimuli/rescaled_final/1078_fw.mp4	0.0	117.69008803367615	
5	103.5990960597992	pulse	1	t		3.0	2.5	/experiments/knapen_AOT/AOT_stimuli/rescaled_final/1078_fw.mp4	0.0	119.28917598724365	
5	104.10733819007874	fix_post	2		12	3.0	2.5	/experiments/knapen_AOT/AOT_stimuli/rescaled_final/1078_fw.mp4	0.0	119.7974181175232	0.09987998008728027
6	104.20721817016602	fix_pre	0		120	4.0	2.5	/experiments/knapen_AOT/AOT_stimuli/rescaled_final/1814_rv.mp4	0.0	119.89729809761047	1.0001640319824219
6	105.19925212860107	pulse	0	t		4.0	2.5	/experiments/knapen_AOT/AOT_stimuli/rescaled_final/1814_rv.mp4	0.0	120.88933205604553	
6	105.20738220214844	movie	1		241	4.0	2.5	/experiments/knapen_AOT/AOT_stimuli/rescaled_final/1814_rv.mp4	0.0	120.8974621295929	2.5062479972839355
6	106.80082416534424	pulse	1	t		4.0	2.5	/experiments/knapen_AOT/AOT_stimuli/rescaled_final/1814_rv.mp4	0.0	122.4909040927887	
6	107.71363019943237	fix_post	2		12	4.0	2.5	/experiments/knapen_AOT/AOT_stimuli/rescaled_final/1814_rv.mp4	0.0	123.40371012687683	0.10248899459838867
7	107.81611919403076	fix_pre	0		120	5.0	2.5	/experiments/knapen_AOT/AOT_stimuli/rescaled_final/0573_rv.mp4	0.0	123.50619912147522	1.0001459121704102
7	108.3996090888977	pulse	0	t		5.0	2.5	/experiments/knapen_AOT/AOT_stimuli/rescaled_final/0573_rv.mp4	0.0	124.08968901634216	
7	108.81626510620117	movie	1		244	5.0	2.5	/experiments/knapen_AOT/AOT_stimuli/rescaled_final/0573_rv.mp4	0.0	124.50634503364563	2.5003199577331543
7	110.00012111663818	pulse	1	t		5.0	2.5	/experiments/knapen_AOT/AOT_stimuli/rescaled_final/0573_rv.mp4	0.0	125.69020104408264	
7	111.31658506393433	fix_post	2		12	5.0	2.5	/experiments/knapen_AOT/AOT_stimuli/rescaled_final/0573_rv.mp4	0.0	127.00666499137878	0.10010910034179688
8	111.41669416427612	fix_pre	0		120	6.0	2.5	blank	1.0	127.10677409172058	1.0000770092010498
8	111.60026621818542	pulse	0	t		6.0	2.5	blank	1.0	127.29034614562988	
8	112.41677117347717	movie	1		300	6.0	2.5	blank	1.0	128.10685110092163	2.500401020050049
8	113.2004451751709	pulse	1	t		6.0	2.5	blank	1.0	128.89052510261536	
8	114.8005440235138	pulse	1	t		6.0	2.5	blank	1.0	130.49062395095825	
8	114.91717219352722	fix_post	2		12	6.0	2.5	blank	1.0	130.60725212097168	0.1000528335571289
9	115.01722502708435	fix_pre	0		120	7.0	2.5	/experiments/knapen_AOT/AOT_stimuli/rescaled_final/1944_rv.mp4	0.0	130.7073049545288	1.0000920295715332
9	116.01731705665588	movie	1		242	7.0	2.5	/experiments/knapen_AOT/AOT_stimuli/rescaled_final/1944_rv.mp4	0.0	131.70739698410034	2.4920239448547363
9	116.40147805213928	pulse	1	t		7.0	2.5	/experiments/knapen_AOT/AOT_stimuli/rescaled_final/1944_rv.mp4	0.0	132.09155797958374	
9	118.00118112564087	pulse	1	t		7.0	2.5	/experiments/knapen_AOT/AOT_stimuli/rescaled_final/1944_rv.mp4	0.0	133.69126105308533	
9	118.50934100151062	fix_post	2		12	7.0	2.5	/experiments/knapen_AOT/AOT_stimuli/rescaled_final/1944_rv.mp4	0.0	134.19942092895508	0.10001516342163086
10	118.60935616493225	fix_pre	0		120	8.0	2.5	/experiments/knapen_AOT/AOT_stimuli/rescaled_final/1553_fw.mp4	0.0	134.2994360923767	1.000126838684082
10	119.60143208503723	pulse	0	t		8.0	2.5	/experiments/knapen_AOT/AOT_stimuli/rescaled_final/1553_fw.mp4	0.0	135.2915120124817	
10	119.60948300361633	movie	1		244	8.0	2.5	/experiments/knapen_AOT/AOT_stimuli/rescaled_final/1553_fw.mp4	0.0	135.2995629310608	2.5087971687316895
10	121.2022180557251	pulse	1	t		8.0	2.5	/experiments/knapen_AOT/AOT_stimuli/rescaled_final/1553_fw.mp4	0.0	136.89229798316956	
10	122.11828017234802	fix_post	2		12	8.0	2.5	/experiments/knapen_AOT/AOT_stimuli/rescaled_final/1553_fw.mp4	0.0	137.80836009979248	0.10004186630249023
11	122.21832203865051	fix_pre	0		120	9.0	2.5	/experiments/knapen_AOT/AOT_stimuli/rescaled_final/1944_fw.mp4	0.0	137.90840196609497	1.0000581741333008
11	122.80187320709229	pulse	0	t		9.0	2.5	/experiments/knapen_AOT/AOT_stimuli/rescaled_final/1944_fw.mp4	0.0	138.49195313453674	
11	123.21838021278381	movie	1		243	9.0	2.5	/experiments/knapen_AOT/AOT_stimuli/rescaled_final/1944_fw.mp4	0.0	138.90846014022827	2.5004048347473145
11	124.40225315093994	pulse	1	t		9.0	2.5	/experiments/knapen_AOT/AOT_stimuli/rescaled_final/1944_fw.mp4	0.0	140.0923330783844	
11	125.71878504753113	fix_post	2		12	9.0	2.5	/experiments/knapen_AOT/AOT_stimuli/rescaled_final/1944_fw.mp4	0.0	141.4088649749756	0.10000896453857422
12	125.8187940120697	fix_pre	0		120	10.0	2.5	/experiments/knapen_AOT/AOT_stimuli/rescaled_final/1743_rv.mp4	0.0	141.50887393951416	1.0001661777496338
12	126.00240421295166	pulse	0	t		10.0	2.5	/experiments/knapen_AOT/AOT_stimuli/rescaled_final/1743_rv.mp4	0.0	141.69248414039612	
12	126.81896018981934	movie	1		242	10.0	2.5	/experiments/knapen_AOT/AOT_stimuli/rescaled_final/1743_rv.mp4	0.0	142.5090401172638	2.500537872314453
12	127.60257005691528	pulse	1	t		10.0	2.5	/experiments/knapen_AOT/AOT_stimuli/rescaled_final/1743_rv.mp4	0.0	143.29264998435974	
12	129.2027292251587	pulse	1	t		10.0	2.5	/experiments/knapen_AOT/AOT_stimuli/rescaled_final/1743_rv.mp4	0.0	144.89280915260315	
12	129.3194980621338	fix_post	2		12	10.0	2.5	/experiments/knapen_AOT/AOT_stimuli/rescaled_final/1743_rv.mp4	0.0	145.00957798957825	0.09984493255615234
13	129.41934299468994	fix_pre	0		120	11.0	2.5	/experiments/knapen_AOT/AOT_stimuli/rescaled_final/0999_rv.mp4	0.0	145.1094229221344	1.0001161098480225
13	130.41945910453796	movie	1		242	11.0	2.5	/experiments/knapen_AOT/AOT_stimuli/rescaled_final/0999_rv.mp4	0.0	146.10953903198242	2.492156982421875
13	130.80417919158936	pulse	1	t		11.0	2.5	/experiments/knapen_AOT/AOT_stimuli/rescaled_final/0999_rv.mp4	0.0	146.4942591190338	
13	132.40328812599182	pulse	1	t		11.0	2.5	/experiments/knapen_AOT/AOT_stimuli/rescaled_final/0999_rv.mp4	0.0	148.09336805343628	
13	132.91161608695984	fix_post	2		12	11.0	2.5	/experiments/knapen_AOT/AOT_stimuli/rescaled_final/0999_rv.mp4	0.0	148.6016960144043	0.09988212585449219
14	133.01149821281433	fix_pre	0		120	12.0	2.5	/experiments/knapen_AOT/AOT_stimuli/rescaled_final/0377_rv.mp4	0.0	148.7015781402588	1.0002868175506592
14	134.00353121757507	pulse	0	t		12.0	2.5	/experiments/knapen_AOT/AOT_stimuli/rescaled_final/0377_rv.mp4	0.0	149.69361114501953	
14	134.011785030365	movie	1		244	12.0	2.5	/experiments/knapen_AOT/AOT_stimuli/rescaled_final/0377_rv.mp4	0.0	149.70186495780945	2.5086371898651123
14	135.60425305366516	pulse	1	t		12.0	2.5	/experiments/knapen_AOT/AOT_stimuli/rescaled_final/0377_rv.mp4	0.0	151.29433298110962	
14	136.5204222202301	fix_post	2		12	12.0	2.5	/experiments/knapen_AOT/AOT_stimuli/rescaled_final/0377_rv.mp4	0.0	152.21050214767456	0.09993481636047363
15	136.62035703659058	fix_pre	0		120	13.0	2.5	/experiments/knapen_AOT/AOT_stimuli/rescaled_final/0021_rv.mp4	0.0	152.31043696403503	1.0001771450042725
15	137.2041211128235	pulse	0	t		13.0	2.5	/experiments/knapen_AOT/AOT_stimuli/rescaled_final/0021_rv.mp4	0.0	152.89420104026794	
15	137.62053418159485	movie	1		243	13.0	2.5	/experiments/knapen_AOT/AOT_stimuli/rescaled_final/0021_rv.mp4	0.0	153.3106141090393	2.500541925430298
15	138.80430507659912	pulse	1	t		13.0	2.5	/experiments/knapen_AOT/AOT_stimuli/rescaled_final/0021_rv.mp4	0.0	154.49438500404358	
15	140.12107610702515	fix_post	2		12	13.0	2.5	/experiments/knapen_AOT/AOT_stimuli/rescaled_final/0021_rv.mp4	0.0	155.8111560344696	0.09986400604248047
16	140.22094011306763	fix_pre	0		120	14.0	2.5	blank	1.0	155.91102004051208	1.0001990795135498
16	140.40448904037476	pulse	0	t		14.0	2.5	blank	1.0	156.0945689678192	
16	141.22113919258118	movie	1		300	14.0	2.5	blank	1.0	156.91121912002563	2.5003128051757812
16	141.99729108810425	pulse	1	t		14.0	2.5	blank	1.0	157.6873710155487	
16	143.597412109375	pulse	1	t		14.0	2.5	blank	1.0	159.28749203681946	
16	143.72145199775696	fix_post	2		12	14.0	2.5	blank	1.0	159.41153192520142	0.09998512268066406
17	143.82143712043762	fix_pre	0		119	15.0	2.5	/experiments/knapen_AOT/AOT_stimuli/rescaled_final/2079_rv.mp4	0.0	159.51151704788208	0.9918630123138428
17	144.81330013275146	movie	1		243	15.0	2.5	/experiments/knapen_AOT/AOT_stimuli/rescaled_final/2079_rv.mp4	0.0	160.50338006019592	2.5004780292510986
17	145.19742012023926	pulse	1	t		15.0	2.5	/experiments/knapen_AOT/AOT_stimuli/rescaled_final/2079_rv.mp4	0.0	160.88750004768372	
17	146.79815316200256	pulse	1	t		15.0	2.5	/experiments/knapen_AOT/AOT_stimuli/rescaled_final/2079_rv.mp4	0.0	162.48823308944702	
17	147.31377816200256	fix_post	2		12	15.0	2.5	/experiments/knapen_AOT/AOT_stimuli/rescaled_final/2079_rv.mp4	0.0	163.00385808944702	0.09990191459655762
18	147.41368007659912	fix_pre	0		120	16.0	2.5	/experiments/knapen_AOT/AOT_stimuli/rescaled_final/1189_rv.mp4	0.0	163.10376000404358	1.000157117843628
18	148.3981490135193	pulse	0	t		16.0	2.5	/experiments/knapen_AOT/AOT_stimuli/rescaled_final/1189_rv.mp4	0.0	164.08822894096375	
18	148.41383719444275	movie	1		243	16.0	2.5	/experiments/knapen_AOT/AOT_stimuli/rescaled_final/1189_rv.mp4	0.0	164.1039171218872	2.5087509155273438
18	149.9976511001587	pulse	1	t		16.0	2.5	/experiments/knapen_AOT/AOT_stimuli/rescaled_final/1189_rv.mp4	0.0	165.68773102760315	
18	150.9225881099701	fix_post	2		12	16.0	2.5	/experiments/knapen_AOT/AOT_stimuli/rescaled_final/1189_rv.mp4	0.0	166.61266803741455	0.09995102882385254
19	151.02253913879395	fix_pre	0		120	17.0	2.5	/experiments/knapen_AOT/AOT_stimuli/rescaled_final/1916_rv.mp4	0.0	166.7126190662384	1.0001509189605713
19	151.59776520729065	pulse	0	t		17.0	2.5	/experiments/knapen_AOT/AOT_stimuli/rescaled_final/1916_rv.mp4	0.0	167.2878451347351	
19	152.02269005775452	movie	1		242	17.0	2.5	/experiments/knapen_AOT/AOT_stimuli/rescaled_final/1916_rv.mp4	0.0	167.71276998519897	2.500580072402954
19	153.20216417312622	pulse	1	t		17.0	2.5	/experiments/knapen_AOT/AOT_stimuli/rescaled_final/1916_rv.mp4	0.0	168.89224410057068	
19	154.52327013015747	fix_post	2		12	17.0	2.5	/experiments/knapen_AOT/AOT_stimuli/rescaled_final/1916_rv.mp4	0.0	170.21335005760193	0.09981894493103027
20	154.6230890750885	fix_pre	0		120	18.0	2.5	/experiments/knapen_AOT/AOT_stimuli/rescaled_final/2081_fw.mp4	0.0	170.31316900253296	1.0001380443572998
20	154.7984001636505	pulse	0	t		18.0	2.5	/experiments/knapen_AOT/AOT_stimuli/rescaled_final/2081_fw.mp4	0.0	170.48848009109497	
20	155.6232271194458	movie	1		242	18.0	2.5	/experiments/knapen_AOT/AOT_stimuli/rescaled_final/2081_fw.mp4	0.0	171.31330704689026	2.4922590255737305
20	156.39853405952454	pulse	1	t		18.0	2.5	/experiments/knapen_AOT/AOT_stimuli/rescaled_final/2081_fw.mp4	0.0	172.088613986969	
20	157.99869298934937	pulse	1	t		18.0	2.5	/experiments/knapen_AOT/AOT_stimuli/rescaled_final/2081_fw.mp4	0.0	173.68877291679382	
20	158.11548614501953	fix_post	2		13	18.0	2.5	/experiments/knapen_AOT/AOT_stimuli/rescaled_final/2081_fw.mp4	0.0	173.805566072464	0.1081399917602539
21	158.22362613677979	fix_pre	0		119	19.0	2.5	blank	1.0	173.91370606422424	0.9917900562286377
21	159.21541619300842	movie	1		300	19.0	2.5	blank	1.0	174.90549612045288	2.500386953353882
21	159.59899020195007	pulse	1	t		19.0	2.5	blank	1.0	175.28907012939453	
21	161.1992790699005	pulse	1	t		19.0	2.5	blank	1.0	176.88935899734497	
21	161.7158031463623	fix_post	2		12	19.0	2.5	blank	1.0	177.40588307380676	0.10000205039978027
22	161.81580519676208	fix_pre	0		119	20.0	2.5	/experiments/knapen_AOT/AOT_stimuli/rescaled_final/1886_fw.mp4	0.0	177.50588512420654	0.9917898178100586
22	162.79949307441711	pulse	0	t		20.0	2.5	/experiments/knapen_AOT/AOT_stimuli/rescaled_final/1886_fw.mp4	0.0	178.48957300186157	
22	162.80759501457214	movie	1		243	20.0	2.5	/experiments/knapen_AOT/AOT_stimuli/rescaled_final/1886_fw.mp4	0.0	178.4976749420166	2.508819103240967
22	164.4004430770874	pulse	1	t		20.0	2.5	/experiments/knapen_AOT/AOT_stimuli/rescaled_final/1886_fw.mp4	0.0	180.09052300453186	
22	165.3164141178131	fix_post	2		12	20.0	2.5	/experiments/knapen_AOT/AOT_stimuli/rescaled_final/1886_fw.mp4	0.0	181.00649404525757	0.09993886947631836
23	165.41635298728943	fix_pre	0		120	21.0	2.5	/experiments/knapen_AOT/AOT_stimuli/rescaled_final/1674_fw.mp4	0.0	181.1064329147339	1.0001580715179443
23	166.00003004074097	pulse	0	t		21.0	2.5	/experiments/knapen_AOT/AOT_stimuli/rescaled_final/1674_fw.mp4	0.0	181.69010996818542	
23	166.41651105880737	movie	1		242	21.0	2.5	/experiments/knapen_AOT/AOT_stimuli/rescaled_final/1674_fw.mp4	0.0	182.10659098625183	2.5006189346313477
23	167.60027813911438	pulse	1	t		21.0	2.5	/experiments/knapen_AOT/AOT_stimuli/rescaled_final/1674_fw.mp4	0.0	183.29035806655884	
23	168.91712999343872	fix_post	2		12	21.0	2.5	/experiments/knapen_AOT/AOT_stimuli/rescaled_final/1674_fw.mp4	0.0	184.60720992088318	0.09973812103271484
24	169.01686811447144	fix_pre	0		117	22.0	2.5	/experiments/knapen_AOT/AOT_stimuli/rescaled_final/0817_fw.mp4	0.0	184.7069480419159	1.0001490116119385
24	169.20051217079163	pulse	0	t		22.0	2.5	/experiments/knapen_AOT/AOT_stimuli/rescaled_final/0817_fw.mp4	0.0	184.89059209823608	
24	170.01701712608337	movie	1		242	22.0	2.5	/experiments/knapen_AOT/AOT_stimuli/rescaled_final/0817_fw.mp4	0.0	185.70709705352783	2.5004959106445312
24	170.80063605308533	pulse	1	t		22.0	2.5	/experiments/knapen_AOT/AOT_stimuli/rescaled_final/0817_fw.mp4	0.0	186.49071598052979	
24	172.40082621574402	pulse	1	t		22.0	2.5	/experiments/knapen_AOT/AOT_stimuli/rescaled_final/0817_fw.mp4	0.0	188.09090614318848	
24	172.5175130367279	fix_post	2		12	22.0	2.5	/experiments/knapen_AOT/AOT_stimuli/rescaled_final/0817_fw.mp4	0.0	188.20759296417236	0.09990906715393066
25	172.61742210388184	fix_pre	0		120	23.0	2.5	/experiments/knapen_AOT/AOT_stimuli/rescaled_final/0666_rv.mp4	0.0	188.3075020313263	1.0001509189605713
25	173.6175730228424	movie	1		241	23.0	2.5	/experiments/knapen_AOT/AOT_stimuli/rescaled_final/0666_rv.mp4	0.0	189.30765295028687	2.4921371936798096
25	174.0017261505127	pulse	1	t		23.0	2.5	/experiments/knapen_AOT/AOT_stimuli/rescaled_final/0666_rv.mp4	0.0	189.69180607795715	
25	175.601478099823	pulse	1	t		23.0	2.5	/experiments/knapen_AOT/AOT_stimuli/rescaled_final/0666_rv.mp4	0.0	191.29155802726746	
25	176.10971021652222	fix_post	2		12	23.0	2.5	/experiments/knapen_AOT/AOT_stimuli/rescaled_final/0666_rv.mp4	0.0	191.79979014396667	0.09993696212768555
26	176.2096471786499	fix_pre	0		120	24.0	2.5	/experiments/knapen_AOT/AOT_stimuli/rescaled_final/0282_fw.mp4	0.0	191.89972710609436	1.0001239776611328
26	177.2016282081604	pulse	0	t		24.0	2.5	/experiments/knapen_AOT/AOT_stimuli/rescaled_final/0282_fw.mp4	0.0	192.89170813560486	
26	177.20977115631104	movie	1		243	24.0	2.5	/experiments/knapen_AOT/AOT_stimuli/rescaled_final/0282_fw.mp4	0.0	192.8998510837555	2.5087599754333496
26	178.8031451702118	pulse	1	t		24.0	2.5	/experiments/knapen_AOT/AOT_stimuli/rescaled_final/0282_fw.mp4	0.0	194.49322509765625	
26	179.71853113174438	fix_post	2		12	24.0	2.5	/experiments/knapen_AOT/AOT_stimuli/rescaled_final/0282_fw.mp4	0.0	195.40861105918884	0.09995102882385254
27	179.81848216056824	fix_pre	0		120	25.0	2.5	/experiments/knapen_AOT/AOT_stimuli/rescaled_final/1947_rv.mp4	0.0	195.5085620880127	1.0002379417419434
27	180.40215420722961	pulse	0	t		25.0	2.5	/experiments/knapen_AOT/AOT_stimuli/rescaled_final/1947_rv.mp4	0.0	196.09223413467407	
27	180.81872010231018	movie	1		243	25.0	2.5	/experiments/knapen_AOT/AOT_stimuli/rescaled_final/1947_rv.mp4	0.0	196.50880002975464	2.5003108978271484
27	182.0024139881134	pulse	1	t		25.0	2.5	/experiments/knapen_AOT/AOT_stimuli/rescaled_final/1947_rv.mp4	0.0	197.69249391555786	
27	183.31903100013733	fix_post	2		12	25.0	2.5	/experiments/knapen_AOT/AOT_stimuli/rescaled_final/1947_rv.mp4	0.0	199.0091109275818	0.10001206398010254
28	183.41904306411743	fix_pre	0		120	26.0	2.5	blank	1.0	199.1091229915619	1.000110149383545
28	183.6025631427765	pulse	0	t		26.0	2.5	blank	1.0	199.29264307022095	
28	184.41915321350098	movie	1		300	26.0	2.5	blank	1.0	200.10923314094543	2.500408887863159
28	185.20282220840454	pulse	1	t		26.0	2.5	blank	1.0	200.892902135849	
28	186.8030300140381	pulse	1	t		26.0	2.5	blank	1.0	202.49310994148254	
28	186.91956210136414	fix_post	2		12	26.0	2.5	blank	1.0	202.6096420288086	0.10008907318115234
29	187.0196511745453	fix_pre	0		120	27.0	2.5	/experiments/knapen_AOT/AOT_stimuli/rescaled_final/2108_fw.mp4	0.0	202.70973110198975	1.0000970363616943
29	188.01974821090698	movie	1		242	27.0	2.5	/experiments/knapen_AOT/AOT_stimuli/rescaled_final/2108_fw.mp4	0.0	203.70982813835144	2.492219924926758
29	188.4039270877838	pulse	1	t		27.0	2.5	/experiments/knapen_AOT/AOT_stimuli/rescaled_final/2108_fw.mp4	0.0	204.09400701522827	
29	190.00355100631714	pulse	1	t		27.0	2.5	/experiments/knapen_AOT/AOT_stimuli/rescaled_final/2108_fw.mp4	0.0	205.6936309337616	
29	190.51196813583374	fix_post	2		12	27.0	2.5	/experiments/knapen_AOT/AOT_stimuli/rescaled_final/2108_fw.mp4	0.0	206.2020480632782	0.09982490539550781
30	190.61179304122925	fix_pre	0		120	28.0	2.5	/experiments/knapen_AOT/AOT_stimuli/rescaled_final/0859_fw.mp4	0.0	206.3018729686737	1.0001461505889893
30	191.60380506515503	pulse	0	t		28.0	2.5	/experiments/knapen_AOT/AOT_stimuli/rescaled_final/0859_fw.mp4	0.0	207.2938849925995	
30	191.61193919181824	movie	1		243	28.0	2.5	/experiments/knapen_AOT/AOT_stimuli/rescaled_final/0859_fw.mp4	0.0	207.3020191192627	2.508786916732788
30	193.20530104637146	pulse	1	t		28.0	2.5	/experiments/knapen_AOT/AOT_stimuli/rescaled_final/0859_fw.mp4	0.0	208.89538097381592	
30	194.12072610855103	fix_post	2		12	28.0	2.5	/experiments/knapen_AOT/AOT_stimuli/rescaled_final/0859_fw.mp4	0.0	209.81080603599548	0.09994196891784668
31	194.22066807746887	fix_pre	0		120	29.0	2.5	/experiments/knapen_AOT/AOT_stimuli/rescaled_final/0371_rv.mp4	0.0	209.91074800491333	1.0001780986785889
31	194.80424809455872	pulse	0	t		29.0	2.5	/experiments/knapen_AOT/AOT_stimuli/rescaled_final/0371_rv.mp4	0.0	210.49432802200317	
31	195.22084617614746	movie	1		243	29.0	2.5	/experiments/knapen_AOT/AOT_stimuli/rescaled_final/0371_rv.mp4	0.0	210.91092610359192	2.5003550052642822
31	196.4046151638031	pulse	1	t		29.0	2.5	/experiments/knapen_AOT/AOT_stimuli/rescaled_final/0371_rv.mp4	0.0	212.09469509124756	
31	197.72120118141174	fix_post	2		12	29.0	2.5	/experiments/knapen_AOT/AOT_stimuli/rescaled_final/0371_rv.mp4	0.0	213.4112811088562	0.10003089904785156
32	197.8212320804596	fix_pre	0		120	30.0	2.5	/experiments/knapen_AOT/AOT_stimuli/rescaled_final/1288_rv.mp4	0.0	213.51131200790405	1.0001411437988281
32	197.99719214439392	pulse	0	t		30.0	2.5	/experiments/knapen_AOT/AOT_stimuli/rescaled_final/1288_rv.mp4	0.0	213.68727207183838	
32	198.82137322425842	movie	1		244	30.0	2.5	/experiments/knapen_AOT/AOT_stimuli/rescaled_final/1288_rv.mp4	0.0	214.51145315170288	2.5003268718719482
32	199.59747004508972	pulse	1	t		30.0	2.5	/experiments/knapen_AOT/AOT_stimuli/rescaled_final/1288_rv.mp4	0.0	215.28754997253418	
32	201.20714402198792	pulse	1	t		30.0	2.5	/experiments/knapen_AOT/AOT_stimuli/rescaled_final/1288_rv.mp4	0.0	216.89722394943237	
32	201.32170009613037	fix_post	2		12	30.0	2.5	/experiments/knapen_AOT/AOT_stimuli/rescaled_final/1288_rv.mp4	0.0	217.01178002357483	0.10005998611450195
33	201.42176008224487	fix_pre	0		120	31.0	2.5	/experiments/knapen_AOT/AOT_stimuli/rescaled_final/0525_rv.mp4	0.0	217.11184000968933	1.0001099109649658
33	202.42186999320984	movie	1		242	31.0	2.5	/experiments/knapen_AOT/AOT_stimuli/rescaled_final/0525_rv.mp4	0.0	218.1119499206543	2.49204421043396
33	202.80593013763428	pulse	1	t		31.0	2.5	/experiments/knapen_AOT/AOT_stimuli/rescaled_final/0525_rv.mp4	0.0	218.49601006507874	
33	204.39738821983337	pulse	1	t		31.0	2.5	/experiments/knapen_AOT/AOT_stimuli/rescaled_final/0525_rv.mp4	0.0	220.08746814727783	
33	204.9139142036438	fix_post	2		12	31.0	2.5	/experiments/knapen_AOT/AOT_stimuli/rescaled_final/0525_rv.mp4	0.0	220.60399413108826	0.10005688667297363
34	205.01397109031677	fix_pre	0		119	32.0	2.5	/experiments/knapen_AOT/AOT_stimuli/rescaled_final/2081_fw.mp4	0.0	220.70405101776123	0.991840124130249
34	205.99757504463196	pulse	0	t		32.0	2.5	/experiments/knapen_AOT/AOT_stimuli/rescaled_final/2081_fw.mp4	0.0	221.68765497207642	
34	206.00581121444702	movie	1		244	32.0	2.5	/experiments/knapen_AOT/AOT_stimuli/rescaled_final/2081_fw.mp4	0.0	221.69589114189148	2.5086259841918945
34	207.59843015670776	pulse	1	t		32.0	2.5	/experiments/knapen_AOT/AOT_stimuli/rescaled_final/2081_fw.mp4	0.0	223.28851008415222	
34	208.51443719863892	fix_post	2		12	32.0	2.5	/experiments/knapen_AOT/AOT_stimuli/rescaled_final/2081_fw.mp4	0.0	224.20451712608337	0.10002493858337402
35	208.6144621372223	fix_pre	0		120	33.0	2.5	/experiments/knapen_AOT/AOT_stimuli/rescaled_final/1276_rv.mp4	0.0	224.30454206466675	1.0001680850982666
35	209.1981360912323	pulse	0	t		33.0	2.5	/experiments/knapen_AOT/AOT_stimuli/rescaled_final/1276_rv.mp4	0.0	224.88821601867676	
35	209.61463022232056	movie	1		243	33.0	2.5	/experiments/knapen_AOT/AOT_stimuli/rescaled_final/1276_rv.mp4	0.0	225.30471014976501	2.5006167888641357
35	210.79841804504395	pulse	1	t		33.0	2.5	/experiments/knapen_AOT/AOT_stimuli/rescaled_final/1276_rv.mp4	0.0	226.4884979724884	
35	212.1152470111847	fix_post	2		12	33.0	2.5	/experiments/knapen_AOT/AOT_stimuli/rescaled_final/1276_rv.mp4	0.0	227.80532693862915	0.09982013702392578
36	212.21506714820862	fix_pre	0		120	34.0	2.5	blank	1.0	227.90514707565308	1.000114917755127
36	212.3985311985016	pulse	0	t		34.0	2.5	blank	1.0	228.08861112594604	
36	213.21518206596375	movie	1		300	34.0	2.5	blank	1.0	228.9052619934082	2.500354051589966
36	213.99873900413513	pulse	1	t		34.0	2.5	blank	1.0	229.6888189315796	
36	215.599112033844	pulse	1	t		34.0	2.5	blank	1.0	231.28919196128845	
36	215.7155361175537	fix_post	2		12	34.0	2.5	blank	1.0	231.40561604499817	0.09998297691345215
37	215.81551909446716	fix_pre	0		120	35.0	2.5	/experiments/knapen_AOT/AOT_stimuli/rescaled_final/1295_rv.mp4	0.0	231.50559902191162	1.000227928161621
37	216.81574702262878	movie	1		242	35.0	2.5	/experiments/knapen_AOT/AOT_stimuli/rescaled_final/1295_rv.mp4	0.0	232.50582695007324	2.4921560287475586
37	217.20356011390686	pulse	1	t		35.0	2.5	/experiments/knapen_AOT/AOT_stimuli/rescaled_final/1295_rv.mp4	0.0	232.89364004135132	
37	218.79950404167175	pulse	1	t		35.0	2.5	/experiments/knapen_AOT/AOT_stimuli/rescaled_final/1295_rv.mp4	0.0	234.4895839691162	
37	219.30790305137634	fix_post	2		12	35.0	2.5	/experiments/knapen_AOT/AOT_stimuli/rescaled_final/1295_rv.mp4	0.0	234.9979829788208	0.0999000072479248
38	219.40780305862427	fix_pre	0		120	36.0	2.5	/experiments/knapen_AOT/AOT_stimuli/rescaled_final/0211_rv.mp4	0.0	235.09788298606873	1.0001089572906494
38	220.39978098869324	pulse	0	t		36.0	2.5	/experiments/knapen_AOT/AOT_stimuli/rescaled_final/0211_rv.mp4	0.0	236.0898609161377	
38	220.40791201591492	movie	1		244	36.0	2.5	/experiments/knapen_AOT/AOT_stimuli/rescaled_final/0211_rv.mp4	0.0	236.09799194335938	2.5087411403656006
38	222.0013301372528	pulse	1	t		36.0	2.5	/experiments/knapen_AOT/AOT_stimuli/rescaled_final/0211_rv.mp4	0.0	237.69141006469727	
38	222.91665315628052	fix_post	2		12	36.0	2.5	/experiments/knapen_AOT/AOT_stimuli/rescaled_final/0211_rv.mp4	0.0	238.60673308372498	0.10000395774841309
39	223.01665711402893	fix_pre	0		120	37.0	2.5	/experiments/knapen_AOT/AOT_stimuli/rescaled_final/0573_fw.mp4	0.0	238.7067370414734	1.000143051147461
39	223.6003541946411	pulse	0	t		37.0	2.5	/experiments/knapen_AOT/AOT_stimuli/rescaled_final/0573_fw.mp4	0.0	239.29043412208557	
39	224.0168001651764	movie	1		244	37.0	2.5	/experiments/knapen_AOT/AOT_stimuli/rescaled_final/0573_fw.mp4	0.0	239.70688009262085	2.500342845916748
39	225.20051217079163	pulse	1	t		37.0	2.5	/experiments/knapen_AOT/AOT_stimuli/rescaled_final/0573_fw.mp4	0.0	240.89059209823608	
39	226.51714301109314	fix_post	2		12	37.0	2.5	/experiments/knapen_AOT/AOT_stimuli/rescaled_final/0573_fw.mp4	0.0	242.2072229385376	0.10001707077026367
40	226.6171600818634	fix_pre	0		120	38.0	2.5	/experiments/knapen_AOT/AOT_stimuli/rescaled_final/1833_rv.mp4	0.0	242.30724000930786	1.000175952911377
40	226.800626039505	pulse	0	t		38.0	2.5	/experiments/knapen_AOT/AOT_stimuli/rescaled_final/1833_rv.mp4	0.0	242.49070596694946	
40	227.61733603477478	movie	1		242	38.0	2.5	/experiments/knapen_AOT/AOT_stimuli/rescaled_final/1833_rv.mp4	0.0	243.30741596221924	2.5004940032958984
40	228.4009461402893	pulse	1	t		38.0	2.5	/experiments/knapen_AOT/AOT_stimuli/rescaled_final/1833_rv.mp4	0.0	244.09102606773376	
40	230.00109314918518	pulse	1	t		38.0	2.5	/experiments/knapen_AOT/AOT_stimuli/rescaled_final/1833_rv.mp4	0.0	245.69117307662964	
40	230.11783003807068	fix_post	2		12	38.0	2.5	/experiments/knapen_AOT/AOT_stimuli/rescaled_final/1833_rv.mp4	0.0	245.80790996551514	0.09987998008728027
41	230.21771001815796	fix_pre	0		119	39.0	2.5	/experiments/knapen_AOT/AOT_stimuli/rescaled_final/1749_fw.mp4	0.0	245.90778994560242	0.9917871952056885
41	231.20949721336365	movie	1		242	39.0	2.5	/experiments/knapen_AOT/AOT_stimuli/rescaled_final/1749_fw.mp4	0.0	246.8995771408081	2.5255539417266846
41	231.59762501716614	pulse	1	t		39.0	2.5	/experiments/knapen_AOT/AOT_stimuli/rescaled_final/1749_fw.mp4	0.0	247.2877049446106	
41	233.20169711112976	pulse	1	t		39.0	2.5	/experiments/knapen_AOT/AOT_stimuli/rescaled_final/1749_fw.mp4	0.0	248.89177703857422	
41	233.73505115509033	fix_post	2		9	39.0	2.5	/experiments/knapen_AOT/AOT_stimuli/rescaled_final/1749_fw.mp4	0.0	249.4251310825348	0.07487797737121582
42	233.80992913246155	fix_pre	0		120	40.0	2.5	blank	1.0	249.500009059906	1.0002110004425049
42	234.8019621372223	pulse	0	t		40.0	2.5	blank	1.0	250.49204206466675	
42	234.81014013290405	movie	1		301	40.0	2.5	blank	1.0	250.5002200603485	2.508629083633423
42	236.4022650718689	pulse	1	t		40.0	2.5	blank	1.0	252.09234499931335	
42	237.31876921653748	fix_post	2		12	40.0	2.5	blank	1.0	253.00884914398193	0.10006594657897949
43	237.41883516311646	fix_pre	0		120	41.0	2.5	/experiments/knapen_AOT/AOT_stimuli/rescaled_final/0031_rv.mp4	0.0	253.1089150905609	1.0000908374786377
43	238.00248003005981	pulse	0	t		41.0	2.5	/experiments/knapen_AOT/AOT_stimuli/rescaled_final/0031_rv.mp4	0.0	253.69255995750427	
43	238.4189260005951	movie	1		243	41.0	2.5	/experiments/knapen_AOT/AOT_stimuli/rescaled_final/0031_rv.mp4	0.0	254.10900592803955	2.5005381107330322
43	239.60277700424194	pulse	1	t		41.0	2.5	/experiments/knapen_AOT/AOT_stimuli/rescaled_final/0031_rv.mp4	0.0	255.2928569316864	
43	240.91946411132812	fix_post	2		12	41.0	2.5	/experiments/knapen_AOT/AOT_stimuli/rescaled_final/0031_rv.mp4	0.0	256.6095440387726	0.09987401962280273
44	241.01933813095093	fix_pre	0		120	42.0	2.5	/experiments/knapen_AOT/AOT_stimuli/rescaled_final/0533_rv.mp4	0.0	256.7094180583954	1.000133991241455
44	241.20294213294983	pulse	0	t		42.0	2.5	/experiments/knapen_AOT/AOT_stimuli/rescaled_final/0533_rv.mp4	0.0	256.8930220603943	
44	242.01947212219238	movie	1		243	42.0	2.5	/experiments/knapen_AOT/AOT_stimuli/rescaled_final/0533_rv.mp4	0.0	257.70955204963684	2.5003678798675537
44	242.8032250404358	pulse	1	t		42.0	2.5	/experiments/knapen_AOT/AOT_stimuli/rescaled_final/0533_rv.mp4	0.0	258.49330496788025	
44	244.40314602851868	pulse	1	t		42.0	2.5	/experiments/knapen_AOT/AOT_stimuli/rescaled_final/0533_rv.mp4	0.0	260.09322595596313	
44	244.51984000205994	fix_post	2		12	42.0	2.5	/experiments/knapen_AOT/AOT_stimuli/rescaled_final/0533_rv.mp4	0.0	260.2099199295044	0.10004806518554688
45	244.61988806724548	fix_pre	0		120	43.0	2.5	/experiments/knapen_AOT/AOT_stimuli/rescaled_final/0271_fw.mp4	0.0	260.30996799468994	1.000143051147461
45	245.62003111839294	movie	1		242	43.0	2.5	/experiments/knapen_AOT/AOT_stimuli/rescaled_final/0271_fw.mp4	0.0	261.3101110458374	2.4922239780426025
45	246.00415515899658	pulse	1	t		43.0	2.5	/experiments/knapen_AOT/AOT_stimuli/rescaled_final/0271_fw.mp4	0.0	261.69423508644104	
45	247.60377502441406	pulse	1	t		43.0	2.5	/experiments/knapen_AOT/AOT_stimuli/rescaled_final/0271_fw.mp4	0.0	263.2938549518585	
45	248.11225509643555	fix_post	2		12	43.0	2.5	/experiments/knapen_AOT/AOT_stimuli/rescaled_final/0271_fw.mp4	0.0	263.80233502388	0.09982609748840332
46	248.21208119392395	fix_pre	0		120	44.0	2.5	/experiments/knapen_AOT/AOT_stimuli/rescaled_final/0430_fw.mp4	0.0	263.9021611213684	1.000119924545288
46	249.19654202461243	pulse	0	t		44.0	2.5	/experiments/knapen_AOT/AOT_stimuli/rescaled_final/0430_fw.mp4	0.0	264.8866219520569	
46	249.21220111846924	movie	1		244	44.0	2.5	/experiments/knapen_AOT/AOT_stimuli/rescaled_final/0430_fw.mp4	0.0	264.9022810459137	2.5088090896606445
46	250.80589509010315	pulse	1	t		44.0	2.5	/experiments/knapen_AOT/AOT_stimuli/rescaled_final/0430_fw.mp4	0.0	266.4959750175476	
46	251.72101020812988	fix_post	2		12	44.0	2.5	/experiments/knapen_AOT/AOT_stimuli/rescaled_final/0430_fw.mp4	0.0	267.41109013557434	0.09994792938232422
47	251.8209581375122	fix_pre	0		120	45.0	2.5	/experiments/knapen_AOT/AOT_stimuli/rescaled_final/1775_fw.mp4	0.0	267.51103806495667	1.0001490116119385
47	252.39693808555603	pulse	0	t		45.0	2.5	/experiments/knapen_AOT/AOT_stimuli/rescaled_final/1775_fw.mp4	0.0	268.0870180130005	
47	252.82110714912415	movie	1		242	45.0	2.5	/experiments/knapen_AOT/AOT_stimuli/rescaled_final/1775_fw.mp4	0.0	268.5111870765686	2.5004329681396484
47	253.99705004692078	pulse	1	t		45.0	2.5	/experiments/knapen_AOT/AOT_stimuli/rescaled_final/1775_fw.mp4	0.0	269.68712997436523	
47	255.3215401172638	fix_post	2		12	45.0	2.5	/experiments/knapen_AOT/AOT_stimuli/rescaled_final/1775_fw.mp4	0.0	271.01162004470825	0.0999000072479248
48	255.42144012451172	fix_pre	0		120	46.0	2.5	/experiments/knapen_AOT/AOT_stimuli/rescaled_final/1269_fw.mp4	0.0	271.1115200519562	1.0001699924468994
48	255.5967721939087	pulse	0	t		46.0	2.5	/experiments/knapen_AOT/AOT_stimuli/rescaled_final/1269_fw.mp4	0.0	271.28685212135315	
48	256.4216101169586	movie	1		243	46.0	2.5	/experiments/knapen_AOT/AOT_stimuli/rescaled_final/1269_fw.mp4	0.0	272.1116900444031	2.5004820823669434
48	257.1968982219696	pulse	1	t		46.0	2.5	/experiments/knapen_AOT/AOT_stimuli/rescaled_final/1269_fw.mp4	0.0	272.88697814941406	
48	258.7971251010895	pulse	1	t		46.0	2.5	/experiments/knapen_AOT/AOT_stimuli/rescaled_final/1269_fw.mp4	0.0	274.48720502853394	
48	258.92209219932556	fix_post	2		12	46.0	2.5	/experiments/knapen_AOT/AOT_stimuli/rescaled_final/1269_fw.mp4	0.0	274.61217212677	0.09992790222167969
49	259.02202010154724	fix_pre	0		120	47.0	2.5	/experiments/knapen_AOT/AOT_stimuli/rescaled_final/0002_fw.mp4	0.0	274.7121000289917	1.000148057937622
49	260.02216815948486	movie	1		241	47.0	2.5	/experiments/knapen_AOT/AOT_stimuli/rescaled_final/0002_fw.mp4	0.0	275.7122480869293	2.492159843444824
49	260.39743304252625	pulse	1	t		47.0	2.5	/experiments/knapen_AOT/AOT_stimuli/rescaled_final/0002_fw.mp4	0.0	276.0875129699707	
49	261.9976541996002	pulse	1	t		47.0	2.5	/experiments/knapen_AOT/AOT_stimuli/rescaled_final/0002_fw.mp4	0.0	277.6877341270447	
49	262.5143280029297	fix_post	2		12	47.0	2.5	/experiments/knapen_AOT/AOT_stimuli/rescaled_final/0002_fw.mp4	0.0	278.20440793037415	0.09990906715393066
50	262.6142370700836	fix_pre	0		119	48.0	2.5	/experiments/knapen_AOT/AOT_stimuli/rescaled_final/1373_rv.mp4	0.0	278.3043169975281	0.9918429851531982
50	263.5979070663452	pulse	0	t		48.0	2.5	/experiments/knapen_AOT/AOT_stimuli/rescaled_final/1373_rv.mp4	0.0	279.2879869937897	
50	263.6060800552368	movie	1		243	48.0	2.5	/experiments/knapen_AOT/AOT_stimuli/rescaled_final/1373_rv.mp4	0.0	279.2961599826813	2.5087361335754395
50	265.19962310791016	pulse	1	t		48.0	2.5	/experiments/knapen_AOT/AOT_stimuli/rescaled_final/1373_rv.mp4	0.0	280.8897030353546	
50	266.11481618881226	fix_post	2		12	48.0	2.5	/experiments/knapen_AOT/AOT_stimuli/rescaled_final/1373_rv.mp4	0.0	281.8048961162567	0.09996485710144043
51	266.2147810459137	fix_pre	0		120	49.0	2.5	blank	1.0	281.90486097335815	1.000154972076416
51	266.79833006858826	pulse	0	t		49.0	2.5	blank	1.0	282.4884099960327	
51	267.2149360179901	movie	1		300	49.0	2.5	blank	1.0	282.90501594543457	2.500347137451172
51	268.39857602119446	pulse	1	t		49.0	2.5	blank	1.0	284.0886559486389	
51	269.7152831554413	fix_post	2		12	49.0	2.5	blank	1.0	285.40536308288574	0.10009002685546875
52	269.81537318229675	fix_pre	0		120	50.0	2.5	/experiments/knapen_AOT/AOT_stimuli/rescaled_final/1486_fw.mp4	0.0	285.5054531097412	1.0000309944152832
52	269.9988601207733	pulse	0	t		50.0	2.5	/experiments/knapen_AOT/AOT_stimuli/rescaled_final/1486_fw.mp4	0.0	285.6889400482178	
52	270.81540417671204	movie	1		243	50.0	2.5	/experiments/knapen_AOT/AOT_stimuli/rescaled_final/1486_fw.mp4	0.0	286.5054841041565	2.5006349086761475
52	271.5991141796112	pulse	1	t		50.0	2.5	/experiments/knapen_AOT/AOT_stimuli/rescaled_final/1486_fw.mp4	0.0	287.28919410705566	
52	273.19918298721313	pulse	1	t		50.0	2.5	/experiments/knapen_AOT/AOT_stimuli/rescaled_final/1486_fw.mp4	0.0	288.8892629146576	
52	273.3160390853882	fix_post	2		12	50.0	2.5	/experiments/knapen_AOT/AOT_stimuli/rescaled_final/1486_fw.mp4	0.0	289.00611901283264	0.09979104995727539
53	273.41583013534546	fix_pre	0		120	51.0	2.5	/experiments/knapen_AOT/AOT_stimuli/rescaled_final/1254_fw.mp4	0.0	289.1059100627899	1.0001299381256104
53	274.41596007347107	movie	1		242	51.0	2.5	/experiments/knapen_AOT/AOT_stimuli/rescaled_final/1254_fw.mp4	0.0	290.1060400009155	2.4922609329223633
53	274.800772190094	pulse	1	t		51.0	2.5	/experiments/knapen_AOT/AOT_stimuli/rescaled_final/1254_fw.mp4	0.0	290.49085211753845	
53	276.3998169898987	pulse	1	t		51.0	2.5	/experiments/knapen_AOT/AOT_stimuli/rescaled_final/1254_fw.mp4	0.0	292.08989691734314	
53	276.90822100639343	fix_post	2		12	51.0	2.5	/experiments/knapen_AOT/AOT_stimuli/rescaled_final/1254_fw.mp4	0.0	292.5983009338379	0.09981298446655273
54	277.00803399086	fix_pre	0		120	52.0	2.5	/experiments/knapen_AOT/AOT_stimuli/rescaled_final/2043_fw.mp4	0.0	292.69811391830444	1.000089168548584
54	278.0001380443573	pulse	0	t		52.0	2.5	/experiments/knapen_AOT/AOT_stimuli/rescaled_final/2043_fw.mp4	0.0	293.69021797180176	
54	278.00812315940857	movie	1		244	52.0	2.5	/experiments/knapen_AOT/AOT_stimuli/rescaled_final/2043_fw.mp4	0.0	293.698203086853	2.508810043334961
54	279.600613117218	pulse	1	t		52.0	2.5	/experiments/knapen_AOT/AOT_stimuli/rescaled_final/2043_fw.mp4	0.0	295.2906930446625	
54	280.51693320274353	fix_post	2		12	52.0	2.5	/experiments/knapen_AOT/AOT_stimuli/rescaled_final/2043_fw.mp4	0.0	296.207013130188	0.09999895095825195
55	280.6169321537018	fix_pre	0		120	53.0	2.5	/experiments/knapen_AOT/AOT_stimuli/rescaled_final/0340_fw.mp4	0.0	296.30701208114624	1.0001709461212158
55	281.200471162796	pulse	0	t		53.0	2.5	/experiments/knapen_AOT/AOT_stimuli/rescaled_final/0340_fw.mp4	0.0	296.8905510902405	
55	281.617103099823	movie	1		243	53.0	2.5	/experiments/knapen_AOT/AOT_stimuli/rescaled_final/0340_fw.mp4	0.0	297.30718302726746	2.5002870559692383
55	282.8008601665497	pulse	1	t		53.0	2.5	/experiments/knapen_AOT/AOT_stimuli/rescaled_final/0340_fw.mp4	0.0	298.49094009399414	
55	284.11739015579224	fix_post	2		12	53.0	2.5	/experiments/knapen_AOT/AOT_stimuli/rescaled_final/0340_fw.mp4	0.0	299.8074700832367	0.1000208854675293
56	284.21741104125977	fix_pre	0		120	54.0	2.5	blank	1.0	299.9074909687042	1.0001840591430664
56	284.40110301971436	pulse	0	t		54.0	2.5	blank	1.0	300.0911829471588	
56	285.21759510040283	movie	1		300	54.0	2.5	blank	1.0	300.9076750278473	2.50039005279541
56	286.0012581348419	pulse	1	t		54.0	2.5	blank	1.0	301.6913380622864	
56	287.60148215293884	pulse	1	t		54.0	2.5	blank	1.0	303.2915620803833	
56	287.71798515319824	fix_post	2		12	54.0	2.5	blank	1.0	303.4080650806427	0.09996795654296875
57	287.8179531097412	fix_pre	0		120	55.0	2.5	/experiments/knapen_AOT/AOT_stimuli/rescaled_final/2049_fw.mp4	0.0	303.50803303718567	1.000180959701538
57	288.81813406944275	movie	1		241	55.0	2.5	/experiments/knapen_AOT/AOT_stimuli/rescaled_final/2049_fw.mp4	0.0	304.5082139968872	2.4921610355377197
57	289.2029640674591	pulse	1	t		55.0	2.5	/experiments/knapen_AOT/AOT_stimuli/rescaled_final/2049_fw.mp4	0.0	304.89304399490356	
57	290.80203104019165	pulse	1	t		55.0	2.5	/experiments/knapen_AOT/AOT_stimuli/rescaled_final/2049_fw.mp4	0.0	306.4921109676361	
57	291.31029510498047	fix_post	2		12	55.0	2.5	/experiments/knapen_AOT/AOT_stimuli/rescaled_final/2049_fw.mp4	0.0	307.0003750324249	0.09993910789489746
58	291.41023421287537	fix_pre	0		120	56.0	2.5	/experiments/knapen_AOT/AOT_stimuli/rescaled_final/1229_fw.mp4	0.0	307.1003141403198	1.000053882598877
58	292.40235710144043	pulse	0	t		56.0	2.5	/experiments/knapen_AOT/AOT_stimuli/rescaled_final/1229_fw.mp4	0.0	308.0924370288849	
58	292.41028809547424	movie	1		244	56.0	2.5	/experiments/knapen_AOT/AOT_stimuli/rescaled_final/1229_fw.mp4	0.0	308.1003680229187	2.5087809562683105
58	294.00658416748047	pulse	1	t		56.0	2.5	/experiments/knapen_AOT/AOT_stimuli/rescaled_final/1229_fw.mp4	0.0	309.6966640949249	
58	294.91906905174255	fix_post	2		12	56.0	2.5	/experiments/knapen_AOT/AOT_stimuli/rescaled_final/1229_fw.mp4	0.0	310.609148979187	0.09997415542602539
59	295.0190432071686	fix_pre	0		117	57.0	2.5	/experiments/knapen_AOT/AOT_stimuli/rescaled_final/1471_rv.mp4	0.0	310.70912313461304	1.0001678466796875
59	295.60259318351746	pulse	0	t		57.0	2.5	/experiments/knapen_AOT/AOT_stimuli/rescaled_final/1471_rv.mp4	0.0	311.2926731109619	
59	296.01921105384827	movie	1		242	57.0	2.5	/experiments/knapen_AOT/AOT_stimuli/rescaled_final/1471_rv.mp4	0.0	311.7092909812927	2.5004849433898926
59	297.20295310020447	pulse	1	t		57.0	2.5	/experiments/knapen_AOT/AOT_stimuli/rescaled_final/1471_rv.mp4	0.0	312.8930330276489	
59	298.51969599723816	fix_post	2		12	57.0	2.5	/experiments/knapen_AOT/AOT_stimuli/rescaled_final/1471_rv.mp4	0.0	314.2097759246826	0.0999000072479248
60	298.6195960044861	fix_pre	0		120	58.0	2.5	/experiments/knapen_AOT/AOT_stimuli/rescaled_final/0251_rv.mp4	0.0	314.30967593193054	1.0001680850982666
60	298.80323910713196	pulse	0	t		58.0	2.5	/experiments/knapen_AOT/AOT_stimuli/rescaled_final/0251_rv.mp4	0.0	314.4933190345764	
60	299.61976408958435	movie	1		243	58.0	2.5	/experiments/knapen_AOT/AOT_stimuli/rescaled_final/0251_rv.mp4	0.0	315.3098440170288	2.5005531311035156
60	300.40344309806824	pulse	1	t		58.0	2.5	/experiments/knapen_AOT/AOT_stimuli/rescaled_final/0251_rv.mp4	0.0	316.0935230255127	
60	302.0035741329193	pulse	1	t		58.0	2.5	/experiments/knapen_AOT/AOT_stimuli/rescaled_final/0251_rv.mp4	0.0	317.69365406036377	
60	302.12031722068787	fix_post	2		12	58.0	2.5	/experiments/knapen_AOT/AOT_stimuli/rescaled_final/0251_rv.mp4	0.0	317.8103971481323	0.09983396530151367
61	302.2201511859894	fix_pre	0		120	59.0	2.5	/experiments/knapen_AOT/AOT_stimuli/rescaled_final/0371_fw.mp4	0.0	317.91023111343384	1.000126838684082
61	303.22027802467346	movie	1		242	59.0	2.5	/experiments/knapen_AOT/AOT_stimuli/rescaled_final/0371_fw.mp4	0.0	318.9103579521179	2.4920990467071533
61	303.60494017601013	pulse	1	t		59.0	2.5	/experiments/knapen_AOT/AOT_stimuli/rescaled_final/0371_fw.mp4	0.0	319.2950201034546	
61	305.2042121887207	pulse	1	t		59.0	2.5	/experiments/knapen_AOT/AOT_stimuli/rescaled_final/0371_fw.mp4	0.0	320.89429211616516	
61	305.7123770713806	fix_post	2		12	59.0	2.5	/experiments/knapen_AOT/AOT_stimuli/rescaled_final/0371_fw.mp4	0.0	321.4024569988251	0.09999299049377441
62	305.8123700618744	fix_pre	0		120	60.0	2.5	/experiments/knapen_AOT/AOT_stimuli/rescaled_final/1553_rv.mp4	0.0	321.50244998931885	1.000072956085205
62	306.80435013771057	pulse	0	t		60.0	2.5	/experiments/knapen_AOT/AOT_stimuli/rescaled_final/1553_rv.mp4	0.0	322.49443006515503	
62	306.8124430179596	movie	1		244	60.0	2.5	/experiments/knapen_AOT/AOT_stimuli/rescaled_final/1553_rv.mp4	0.0	322.50252294540405	2.5088400840759277
62	308.40521121025085	pulse	1	t		60.0	2.5	/experiments/knapen_AOT/AOT_stimuli/rescaled_final/1553_rv.mp4	0.0	324.0952911376953	
62	309.3212831020355	fix_post	2		12	60.0	2.5	/experiments/knapen_AOT/AOT_stimuli/rescaled_final/1553_rv.mp4	0.0	325.01136302948	0.09988903999328613
63	309.4211721420288	fix_pre	0		120	61.0	2.5	/experiments/knapen_AOT/AOT_stimuli/rescaled_final/1833_fw.mp4	0.0	325.11125206947327	1.0001840591430664
63	309.9973120689392	pulse	0	t		61.0	2.5	/experiments/knapen_AOT/AOT_stimuli/rescaled_final/1833_fw.mp4	0.0	325.68739199638367	
63	310.4213562011719	movie	1		242	61.0	2.5	/experiments/knapen_AOT/AOT_stimuli/rescaled_final/1833_fw.mp4	0.0	326.11143612861633	2.500576972961426
63	311.597295999527	pulse	1	t		61.0	2.5	/experiments/knapen_AOT/AOT_stimuli/rescaled_final/1833_fw.mp4	0.0	327.28737592697144	
63	312.9219331741333	fix_post	2		12	61.0	2.5	/experiments/knapen_AOT/AOT_stimuli/rescaled_final/1833_fw.mp4	0.0	328.61201310157776	0.09977889060974121
64	313.02171206474304	fix_pre	0		120	62.0	2.5	/experiments/knapen_AOT/AOT_stimuli/rescaled_final/1011_rv.mp4	0.0	328.7117919921875	1.0001871585845947
64	313.1978340148926	pulse	0	t		62.0	2.5	/experiments/knapen_AOT/AOT_stimuli/rescaled_final/1011_rv.mp4	0.0	328.88791394233704	
64	314.02189922332764	movie	1		243	62.0	2.5	/experiments/knapen_AOT/AOT_stimuli/rescaled_final/1011_rv.mp4	0.0	329.7119791507721	2.5005438327789307
64	314.7980320453644	pulse	1	t		62.0	2.5	/experiments/knapen_AOT/AOT_stimuli/rescaled_final/1011_rv.mp4	0.0	330.48811197280884	
64	316.4061760902405	pulse	1	t		62.0	2.5	/experiments/knapen_AOT/AOT_stimuli/rescaled_final/1011_rv.mp4	0.0	332.09625601768494	
64	316.52244305610657	fix_post	2		12	62.0	2.5	/experiments/knapen_AOT/AOT_stimuli/rescaled_final/1011_rv.mp4	0.0	332.212522983551	0.09984707832336426
65	316.62229013442993	fix_pre	0		120	63.0	2.5	blank	1.0	332.3123700618744	1.0001270771026611
65	317.6224172115326	movie	1		299	63.0	2.5	blank	1.0	333.31249713897705	2.492051839828491
65	317.99767303466797	pulse	1	t		63.0	2.5	blank	1.0	333.6877529621124	
65	319.5978481769562	pulse	1	t		63.0	2.5	blank	1.0	335.28792810440063	
65	320.1144690513611	fix_post	2		12	63.0	2.5	blank	1.0	335.80454897880554	0.09998798370361328
66	320.2144570350647	fix_pre	0		119	64.0	2.5	/experiments/knapen_AOT/AOT_stimuli/rescaled_final/0104_rv.mp4	0.0	335.90453696250916	0.9918801784515381
66	321.19816517829895	pulse	0	t		64.0	2.5	/experiments/knapen_AOT/AOT_stimuli/rescaled_final/0104_rv.mp4	0.0	336.8882451057434	
66	321.20633721351624	movie	1		243	64.0	2.5	/experiments/knapen_AOT/AOT_stimuli/rescaled_final/0104_rv.mp4	0.0	336.8964171409607	2.5087649822235107
66	322.79891300201416	pulse	1	t		64.0	2.5	/experiments/knapen_AOT/AOT_stimuli/rescaled_final/0104_rv.mp4	0.0	338.4889929294586	
66	323.71510219573975	fix_post	2		12	64.0	2.5	/experiments/knapen_AOT/AOT_stimuli/rescaled_final/0104_rv.mp4	0.0	339.4051821231842	0.09994983673095703
67	323.8150520324707	fix_pre	0		120	65.0	2.5	/experiments/knapen_AOT/AOT_stimuli/rescaled_final/0784_rv.mp4	0.0	339.50513195991516	1.0000801086425781
67	324.39857602119446	pulse	0	t		65.0	2.5	/experiments/knapen_AOT/AOT_stimuli/rescaled_final/0784_rv.mp4	0.0	340.0886559486389	
67	324.8151321411133	movie	1		243	65.0	2.5	/experiments/knapen_AOT/AOT_stimuli/rescaled_final/0784_rv.mp4	0.0	340.50521206855774	2.500535011291504
67	325.9989421367645	pulse	1	t		65.0	2.5	/experiments/knapen_AOT/AOT_stimuli/rescaled_final/0784_rv.mp4	0.0	341.689022064209	
67	327.3156671524048	fix_post	2		12	65.0	2.5	/experiments/knapen_AOT/AOT_stimuli/rescaled_final/0784_rv.mp4	0.0	343.00574707984924	0.09986591339111328
68	327.4155330657959	fix_pre	0		120	66.0	2.5	/experiments/knapen_AOT/AOT_stimuli/rescaled_final/1749_rv.mp4	0.0	343.10561299324036	1.0002250671386719
68	327.5991430282593	pulse	0	t		66.0	2.5	/experiments/knapen_AOT/AOT_stimuli/rescaled_final/1749_rv.mp4	0.0	343.28922295570374	
68	328.41575813293457	movie	1		242	66.0	2.5	/experiments/knapen_AOT/AOT_stimuli/rescaled_final/1749_rv.mp4	0.0	344.105838060379	2.5005440711975098
68	329.1994001865387	pulse	1	t		66.0	2.5	/experiments/knapen_AOT/AOT_stimuli/rescaled_final/1749_rv.mp4	0.0	344.88948011398315	
68	330.79949021339417	pulse	1	t		66.0	2.5	/experiments/knapen_AOT/AOT_stimuli/rescaled_final/1749_rv.mp4	0.0	346.4895701408386	
68	330.9163022041321	fix_post	2		12	66.0	2.5	/experiments/knapen_AOT/AOT_stimuli/rescaled_final/1749_rv.mp4	0.0	346.60638213157654	0.09981989860534668
69	331.0161221027374	fix_pre	0		120	67.0	2.5	/experiments/knapen_AOT/AOT_stimuli/rescaled_final/0282_rv.mp4	0.0	346.7062020301819	1.0001170635223389
69	332.01623916625977	movie	1		241	67.0	2.5	/experiments/knapen_AOT/AOT_stimuli/rescaled_final/0282_rv.mp4	0.0	347.7063190937042	2.492197036743164
69	332.4010682106018	pulse	1	t		67.0	2.5	/experiments/knapen_AOT/AOT_stimuli/rescaled_final/0282_rv.mp4	0.0	348.09114813804626	
69	334.0000021457672	pulse	1	t		67.0	2.5	/experiments/knapen_AOT/AOT_stimuli/rescaled_final/0282_rv.mp4	0.0	349.69008207321167	
69	334.50843620300293	fix_post	2		12	67.0	2.5	/experiments/knapen_AOT/AOT_stimuli/rescaled_final/0282_rv.mp4	0.0	350.1985161304474	0.09987592697143555
70	334.60831212997437	fix_pre	0		120	68.0	2.5	/experiments/knapen_AOT/AOT_stimuli/rescaled_final/0098_rv.mp4	0.0	350.2983920574188	1.0001089572906494
70	335.6002712249756	pulse	0	t		68.0	2.5	/experiments/knapen_AOT/AOT_stimuli/rescaled_final/0098_rv.mp4	0.0	351.29035115242004	
70	335.608421087265	movie	1		244	68.0	2.5	/experiments/knapen_AOT/AOT_stimuli/rescaled_final/0098_rv.mp4	0.0	351.2985010147095	2.5087389945983887
70	337.2011651992798	pulse	1	t		68.0	2.5	/experiments/knapen_AOT/AOT_stimuli/rescaled_final/0098_rv.mp4	0.0	352.89124512672424	
70	338.1171600818634	fix_post	2		12	68.0	2.5	/experiments/knapen_AOT/AOT_stimuli/rescaled_final/0098_rv.mp4	0.0	353.80724000930786	0.1000220775604248
71	338.2171821594238	fix_pre	0		120	69.0	2.5	/experiments/knapen_AOT/AOT_stimuli/rescaled_final/1234_fw.mp4	0.0	353.9072620868683	1.000126838684082
71	338.800754070282	pulse	0	t		69.0	2.5	/experiments/knapen_AOT/AOT_stimuli/rescaled_final/1234_fw.mp4	0.0	354.49083399772644	
71	339.2173089981079	movie	1		243	69.0	2.5	/experiments/knapen_AOT/AOT_stimuli/rescaled_final/1234_fw.mp4	0.0	354.90738892555237	2.5004031658172607
71	340.40106320381165	pulse	1	t		69.0	2.5	/experiments/knapen_AOT/AOT_stimuli/rescaled_final/1234_fw.mp4	0.0	356.0911431312561	
71	341.71771216392517	fix_post	2		12	69.0	2.5	/experiments/knapen_AOT/AOT_stimuli/rescaled_final/1234_fw.mp4	0.0	357.40779209136963	0.09998798370361328
72	341.8177001476288	fix_pre	0		120	70.0	2.5	blank	1.0	357.50778007507324	1.0002238750457764
72	342.0013220310211	pulse	0	t		70.0	2.5	blank	1.0	357.6914019584656	
72	342.81792402267456	movie	1		300	70.0	2.5	blank	1.0	358.508003950119	2.5003271102905273
72	343.6015341281891	pulse	1	t		70.0	2.5	blank	1.0	359.29161405563354	
72	345.20166420936584	pulse	1	t		70.0	2.5	blank	1.0	360.8917441368103	
72	345.3182511329651	fix_post	2		12	70.0	2.5	blank	1.0	361.00833106040955	0.0999898910522461
73	345.41824102401733	fix_pre	0		119	71.0	2.5	/experiments/knapen_AOT/AOT_stimuli/rescaled_final/0009_rv.mp4	0.0	361.1083209514618	0.9918010234832764
73	346.4100420475006	movie	1		242	71.0	2.5	/experiments/knapen_AOT/AOT_stimuli/rescaled_final/0009_rv.mp4	0.0	362.10012197494507	2.5004689693450928
73	346.8020250797272	pulse	1	t		71.0	2.5	/experiments/knapen_AOT/AOT_stimuli/rescaled_final/0009_rv.mp4	0.0	362.49210500717163	
73	348.40229511260986	pulse	1	t		71.0	2.5	/experiments/knapen_AOT/AOT_stimuli/rescaled_final/0009_rv.mp4	0.0	364.0923750400543	
73	348.9105110168457	fix_post	2		12	71.0	2.5	/experiments/knapen_AOT/AOT_stimuli/rescaled_final/0009_rv.mp4	0.0	364.60059094429016	0.09992599487304688
74	349.01043701171875	fix_pre	0		120	72.0	2.5	/experiments/knapen_AOT/AOT_stimuli/rescaled_final/1136_fw.mp4	0.0	364.7005169391632	1.000148057937622
74	350.00245809555054	pulse	0	t		72.0	2.5	/experiments/knapen_AOT/AOT_stimuli/rescaled_final/1136_fw.mp4	0.0	365.692538022995	
74	350.0105850696564	movie	1		244	72.0	2.5	/experiments/knapen_AOT/AOT_stimuli/rescaled_final/1136_fw.mp4	0.0	365.70066499710083	2.5087530612945557
74	351.6067900657654	pulse	1	t		72.0	2.5	/experiments/knapen_AOT/AOT_stimuli/rescaled_final/1136_fw.mp4	0.0	367.29686999320984	
74	352.5193381309509	fix_post	2		12	72.0	2.5	/experiments/knapen_AOT/AOT_stimuli/rescaled_final/1136_fw.mp4	0.0	368.2094180583954	0.10001301765441895
75	352.61935114860535	fix_pre	0		120	73.0	2.5	/experiments/knapen_AOT/AOT_stimuli/rescaled_final/1743_rv.mp4	0.0	368.3094310760498	1.0000839233398438
75	353.2029230594635	pulse	0	t		73.0	2.5	/experiments/knapen_AOT/AOT_stimuli/rescaled_final/1743_rv.mp4	0.0	368.89300298690796	
75	353.6194350719452	movie	1		242	73.0	2.5	/experiments/knapen_AOT/AOT_stimuli/rescaled_final/1743_rv.mp4	0.0	369.30951499938965	2.5004050731658936
75	354.80325412750244	pulse	1	t		73.0	2.5	/experiments/knapen_AOT/AOT_stimuli/rescaled_final/1743_rv.mp4	0.0	370.4933340549469	
75	356.1198401451111	fix_post	2		12	73.0	2.5	/experiments/knapen_AOT/AOT_stimuli/rescaled_final/1743_rv.mp4	0.0	371.80992007255554	0.09999895095825195
76	356.21983909606934	fix_pre	0		120	74.0	2.5	/experiments/knapen_AOT/AOT_stimuli/rescaled_final/0522_rv.mp4	0.0	371.9099190235138	1.0001790523529053
76	356.40346908569336	pulse	0	t		74.0	2.5	/experiments/knapen_AOT/AOT_stimuli/rescaled_final/0522_rv.mp4	0.0	372.0935490131378	
76	357.22001814842224	movie	1		243	74.0	2.5	/experiments/knapen_AOT/AOT_stimuli/rescaled_final/0522_rv.mp4	0.0	372.9100980758667	2.5004730224609375
76	358.00363206863403	pulse	1	t		74.0	2.5	/experiments/knapen_AOT/AOT_stimuli/rescaled_final/0522_rv.mp4	0.0	373.6937119960785	
76	359.6037230491638	pulse	1	t		74.0	2.5	/experiments/knapen_AOT/AOT_stimuli/rescaled_final/0522_rv.mp4	0.0	375.2938029766083	
76	359.7204911708832	fix_post	2		9	74.0	2.5	/experiments/knapen_AOT/AOT_stimuli/rescaled_final/0522_rv.mp4	0.0	375.41057109832764	0.09991002082824707
77	359.8204011917114	fix_pre	0		120	75.0	2.5	/experiments/knapen_AOT/AOT_stimuli/rescaled_final/2051_fw.mp4	0.0	375.5104811191559	1.0001158714294434
77	360.82051706314087	movie	1		241	75.0	2.5	/experiments/knapen_AOT/AOT_stimuli/rescaled_final/2051_fw.mp4	0.0	376.5105969905853	2.4921109676361084
77	361.20456409454346	pulse	1	t		75.0	2.5	/experiments/knapen_AOT/AOT_stimuli/rescaled_final/2051_fw.mp4	0.0	376.8946440219879	
77	362.7970781326294	pulse	1	t		75.0	2.5	/experiments/knapen_AOT/AOT_stimuli/rescaled_final/2051_fw.mp4	0.0	378.48715806007385	
77	363.312628030777	fix_post	2		12	75.0	2.5	/experiments/knapen_AOT/AOT_stimuli/rescaled_final/2051_fw.mp4	0.0	379.00270795822144	0.09993910789489746
78	363.4125671386719	fix_pre	0		120	76.0	2.5	/experiments/knapen_AOT/AOT_stimuli/rescaled_final/2053_rv.mp4	0.0	379.10264706611633	1.0002009868621826
78	364.39716506004333	pulse	0	t		76.0	2.5	/experiments/knapen_AOT/AOT_stimuli/rescaled_final/2053_rv.mp4	0.0	380.0872449874878	
78	364.41276812553406	movie	1		244	76.0	2.5	/experiments/knapen_AOT/AOT_stimuli/rescaled_final/2053_rv.mp4	0.0	380.1028480529785	2.508723020553589
78	366.00552916526794	pulse	1	t		76.0	2.5	/experiments/knapen_AOT/AOT_stimuli/rescaled_final/2053_rv.mp4	0.0	381.6956090927124	
78	366.92149114608765	fix_post	2		12	76.0	2.5	/experiments/knapen_AOT/AOT_stimuli/rescaled_final/2053_rv.mp4	0.0	382.6115710735321	0.09997105598449707
79	367.02146220207214	fix_pre	0		120	77.0	2.5	blank	1.0	382.7115421295166	1.000152826309204
79	367.5975501537323	pulse	0	t		77.0	2.5	blank	1.0	383.28763008117676	
79	368.02161502838135	movie	1		300	77.0	2.5	blank	1.0	383.7116949558258	2.500359058380127
79	369.1977581977844	pulse	1	t		77.0	2.5	blank	1.0	384.8878381252289	
79	370.5219740867615	fix_post	2		12	77.0	2.5	blank	1.0	386.21205401420593	0.1001291275024414
80	370.6221032142639	fix_pre	0		120	78.0	2.5	/experiments/knapen_AOT/AOT_stimuli/rescaled_final/1853_rv.mp4	0.0	386.3121831417084	1.0000629425048828
80	370.7972400188446	pulse	0	t		78.0	2.5	/experiments/knapen_AOT/AOT_stimuli/rescaled_final/1853_rv.mp4	0.0	386.48731994628906	
80	371.6221661567688	movie	1		242	78.0	2.5	/experiments/knapen_AOT/AOT_stimuli/rescaled_final/1853_rv.mp4	0.0	387.31224608421326	2.5005009174346924
80	372.3973801136017	pulse	1	t		78.0	2.5	/experiments/knapen_AOT/AOT_stimuli/rescaled_final/1853_rv.mp4	0.0	388.08746004104614	
80	373.99764108657837	pulse	1	t		78.0	2.5	/experiments/knapen_AOT/AOT_stimuli/rescaled_final/1853_rv.mp4	0.0	389.6877210140228	
80	374.1226670742035	fix_post	2		12	78.0	2.5	/experiments/knapen_AOT/AOT_stimuli/rescaled_final/1853_rv.mp4	0.0	389.81274700164795	0.09988093376159668
81	374.2225480079651	fix_pre	0		119	79.0	2.5	/experiments/knapen_AOT/AOT_stimuli/rescaled_final/0936_fw.mp4	0.0	389.91262793540955	0.9917941093444824
81	375.21434211730957	movie	1		243	79.0	2.5	/experiments/knapen_AOT/AOT_stimuli/rescaled_final/0936_fw.mp4	0.0	390.904422044754	2.5005719661712646
81	375.59843611717224	pulse	1	t		79.0	2.5	/experiments/knapen_AOT/AOT_stimuli/rescaled_final/0936_fw.mp4	0.0	391.2885160446167	
81	377.1981990337372	pulse	1	t		79.0	2.5	/experiments/knapen_AOT/AOT_stimuli/rescaled_final/0936_fw.mp4	0.0	392.88827896118164	
81	377.71491408348083	fix_post	2		12	79.0	2.5	/experiments/knapen_AOT/AOT_stimuli/rescaled_final/0936_fw.mp4	0.0	393.4049940109253	0.0998830795288086
82	377.81479716300964	fix_pre	0		119	80.0	2.5	/experiments/knapen_AOT/AOT_stimuli/rescaled_final/1378_rv.mp4	0.0	393.5048770904541	0.9917418956756592
82	378.79843616485596	pulse	0	t		80.0	2.5	/experiments/knapen_AOT/AOT_stimuli/rescaled_final/1378_rv.mp4	0.0	394.4885160923004	
82	378.8065390586853	movie	1		245	80.0	2.5	/experiments/knapen_AOT/AOT_stimuli/rescaled_final/1378_rv.mp4	0.0	394.49661898612976	2.508756160736084
82	380.39919900894165	pulse	1	t		80.0	2.5	/experiments/knapen_AOT/AOT_stimuli/rescaled_final/1378_rv.mp4	0.0	396.0892789363861	
82	381.3152952194214	fix_post	2		12	80.0	2.5	/experiments/knapen_AOT/AOT_stimuli/rescaled_final/1378_rv.mp4	0.0	397.00537514686584	0.10005688667297363
83	381.41535210609436	fix_pre	0		120	81.0	2.5	/experiments/knapen_AOT/AOT_stimuli/rescaled_final/0412_fw.mp4	0.0	397.1054320335388	1.0000600814819336
83	381.99883913993835	pulse	0	t		81.0	2.5	/experiments/knapen_AOT/AOT_stimuli/rescaled_final/0412_fw.mp4	0.0	397.6889190673828	
83	382.4154121875763	movie	1		244	81.0	2.5	/experiments/knapen_AOT/AOT_stimuli/rescaled_final/0412_fw.mp4	0.0	398.10549211502075	2.5004239082336426
83	383.59931111335754	pulse	1	t		81.0	2.5	/experiments/knapen_AOT/AOT_stimuli/rescaled_final/0412_fw.mp4	0.0	399.289391040802	
83	384.91583609580994	fix_post	2		12	81.0	2.5	/experiments/knapen_AOT/AOT_stimuli/rescaled_final/0412_fw.mp4	0.0	400.6059160232544	0.10009002685546875
84	385.0159261226654	fix_pre	0		120	82.0	2.5	blank	1.0	400.70600605010986	1.0000519752502441
84	385.1993842124939	pulse	0	t		82.0	2.5	blank	1.0	400.88946413993835	
84	386.01597809791565	movie	1		300	82.0	2.5	blank	1.0	401.7060580253601	2.50040602684021
84	386.79952907562256	pulse	1	t		82.0	2.5	blank	1.0	402.489609003067	
84	388.3998520374298	pulse	1	t		82.0	2.5	blank	1.0	404.08993196487427	
84	388.51638412475586	fix_post	2		12	82.0	2.5	blank	1.0	404.2064640522003	0.1000070571899414
85	388.6163911819458	fix_pre	0		120	83.0	2.5	/experiments/knapen_AOT/AOT_stimuli/rescaled_final/0299_rv.mp4	0.0	404.30647110939026	1.0000889301300049
85	389.6164801120758	movie	1		242	83.0	2.5	/experiments/knapen_AOT/AOT_stimuli/rescaled_final/0299_rv.mp4	0.0	405.30656003952026	2.4921441078186035
85	390.00062799453735	pulse	1	t		83.0	2.5	/experiments/knapen_AOT/AOT_stimuli/rescaled_final/0299_rv.mp4	0.0	405.6907079219818	
85	391.6004521846771	pulse	1	t		83.0	2.5	/experiments/knapen_AOT/AOT_stimuli/rescaled_final/0299_rv.mp4	0.0	407.2905321121216	
85	392.1086242198944	fix_post	2		12	83.0	2.5	/experiments/knapen_AOT/AOT_stimuli/rescaled_final/0299_rv.mp4	0.0	407.79870414733887	0.09991288185119629
87	392.2085371017456	stim	0		1716					407.89861702919006	14.302144050598145
87	393.2004940509796	pulse	0	t						408.8905739784241	
87	394.8007311820984	pulse	0	t						410.49081110954285	
87	396.4010372161865	pulse	0	t						412.091117143631	
87	398.0013370513916	pulse	0	t						413.69141697883606	
87	399.60150599479675	pulse	0	t						415.2915859222412	
87	401.2016701698303	pulse	0	t						416.8917500972748	
87	402.8019640445709	pulse	0	t						418.4920439720154	
87	404.4022340774536	pulse	0	t						420.09231400489807	
87	406.00248312950134	pulse	0	t						421.6925630569458	
