trial_nr	onset	event_type	phase	response	nr_frames	movie_index	movie_duration	movie_file	blank	onset_abs	duration
0	0.1414947509765625	stim	0		78					17.282190322875977	0.6500096321105957
0	0.7833595275878906	response	0	space						17.924055099487305	
1	0.7915043830871582	stim	0		4597					17.932199954986572	38.31566023826599
1	39.097599506378174	pulse	0	t						56.23829507827759	
1	39.10716462135315	stim	1		1715					56.24786019325256	14.300601243972778
1	40.69771194458008	pulse	1	t						57.83840751647949	
1	42.29811477661133	pulse	1	t						59.43881034851074	
1	43.89831852912903	pulse	1	t						61.03901410102844	
1	45.4984815120697	pulse	1	t						62.639177083969116	
1	47.0986533164978	pulse	1	t						64.23934888839722	
1	48.6989324092865	pulse	1	t						65.83962798118591	
1	50.29914879798889	pulse	1	t						67.4398443698883	
1	51.89939475059509	pulse	1	t						69.0400903224945	
2	53.40776586532593	fix_pre	0		12	0.0	2.5	/experiments/knapen_AOT/AOT_stimuli/rescaled_final/0518_rv.mp4	0.0	70.54846143722534	0.11675095558166504
2	53.499634742736816	pulse	0	t		0.0	2.5	/experiments/knapen_AOT/AOT_stimuli/rescaled_final/0518_rv.mp4	0.0	70.64033031463623	
2	53.52451682090759	movie	1		289	0.0	2.5	/experiments/knapen_AOT/AOT_stimuli/rescaled_final/0518_rv.mp4	0.0	70.665212392807	2.4920289516448975
2	55.09990072250366	pulse	1	t		0.0	2.5	/experiments/knapen_AOT/AOT_stimuli/rescaled_final/0518_rv.mp4	0.0	72.24059629440308	
2	56.01654577255249	fix_post	2		12	0.0	2.5	/experiments/knapen_AOT/AOT_stimuli/rescaled_final/0518_rv.mp4	0.0	73.1572413444519	0.09998726844787598
3	56.116533041000366	fix_pre	0		120	1.0	2.5	/experiments/knapen_AOT/AOT_stimuli/rescaled_final/0012_fw.mp4	0.0	73.25722861289978	1.0084655284881592
3	56.70011639595032	pulse	0	t		1.0	2.5	/experiments/knapen_AOT/AOT_stimuli/rescaled_final/0012_fw.mp4	0.0	73.84081196784973	
3	57.124998569488525	movie	1		284	1.0	2.5	/experiments/knapen_AOT/AOT_stimuli/rescaled_final/0012_fw.mp4	0.0	74.26569414138794	2.4920308589935303
3	58.29920029640198	pulse	1	t		1.0	2.5	/experiments/knapen_AOT/AOT_stimuli/rescaled_final/0012_fw.mp4	0.0	75.43989586830139	
3	59.617029428482056	fix_post	2		12	1.0	2.5	/experiments/knapen_AOT/AOT_stimuli/rescaled_final/0012_fw.mp4	0.0	76.75772500038147	0.10000276565551758
4	59.71703219413757	fix_pre	0		120	2.0	2.5	/experiments/knapen_AOT/AOT_stimuli/rescaled_final/0959_rv.mp4	0.0	76.85772776603699	1.0085489749908447
4	59.900776386260986	pulse	0	t		2.0	2.5	/experiments/knapen_AOT/AOT_stimuli/rescaled_final/0959_rv.mp4	0.0	77.0414719581604	
4	60.72558116912842	movie	1		277	2.0	2.5	/experiments/knapen_AOT/AOT_stimuli/rescaled_final/0959_rv.mp4	0.0	77.86627674102783	2.491990327835083
4	61.49881720542908	pulse	1	t		2.0	2.5	/experiments/knapen_AOT/AOT_stimuli/rescaled_final/0959_rv.mp4	0.0	78.63951277732849	
4	63.10076546669006	pulse	1	t		2.0	2.5	/experiments/knapen_AOT/AOT_stimuli/rescaled_final/0959_rv.mp4	0.0	80.24146103858948	
4	63.2175714969635	fix_post	2		12	2.0	2.5	/experiments/knapen_AOT/AOT_stimuli/rescaled_final/0959_rv.mp4	0.0	80.35826706886292	0.10003972053527832
5	63.31761121749878	fix_pre	0		120	3.0	2.5	/experiments/knapen_AOT/AOT_stimuli/rescaled_final/0361_fw.mp4	0.0	80.4583067893982	1.008594274520874
5	64.32620549201965	movie	1		282	3.0	2.5	/experiments/knapen_AOT/AOT_stimuli/rescaled_final/0361_fw.mp4	0.0	81.46690106391907	2.491893768310547
5	64.69933891296387	pulse	1	t		3.0	2.5	/experiments/knapen_AOT/AOT_stimuli/rescaled_final/0361_fw.mp4	0.0	81.84003448486328	
5	66.30035829544067	pulse	1	t		3.0	2.5	/experiments/knapen_AOT/AOT_stimuli/rescaled_final/0361_fw.mp4	0.0	83.44105386734009	
5	66.8180992603302	fix_post	2		12	3.0	2.5	/experiments/knapen_AOT/AOT_stimuli/rescaled_final/0361_fw.mp4	0.0	83.95879483222961	0.10001254081726074
6	66.91811180114746	fix_pre	0		119	4.0	2.5	/experiments/knapen_AOT/AOT_stimuli/rescaled_final/1616_fw.mp4	0.0	84.05880737304688	1.0002636909484863
6	67.90182709693909	pulse	0	t		4.0	2.5	/experiments/knapen_AOT/AOT_stimuli/rescaled_final/1616_fw.mp4	0.0	85.0425226688385	
6	67.91837549209595	movie	1		284	4.0	2.5	/experiments/knapen_AOT/AOT_stimuli/rescaled_final/1616_fw.mp4	0.0	85.05907106399536	2.5004329681396484
6	69.50229954719543	pulse	1	t		4.0	2.5	/experiments/knapen_AOT/AOT_stimuli/rescaled_final/1616_fw.mp4	0.0	86.64299511909485	
6	70.4188084602356	fix_post	2		12	4.0	2.5	/experiments/knapen_AOT/AOT_stimuli/rescaled_final/1616_fw.mp4	0.0	87.55950403213501	0.09984779357910156
7	70.5186562538147	fix_pre	0		120	5.0	2.5	/experiments/knapen_AOT/AOT_stimuli/rescaled_final/0878_fw.mp4	0.0	87.65935182571411	1.0084900856018066
7	71.10228323936462	pulse	0	t		5.0	2.5	/experiments/knapen_AOT/AOT_stimuli/rescaled_final/0878_fw.mp4	0.0	88.24297881126404	
7	71.5271463394165	movie	1		281	5.0	2.5	/experiments/knapen_AOT/AOT_stimuli/rescaled_final/0878_fw.mp4	0.0	88.66784191131592	2.4920313358306885
7	72.70065236091614	pulse	1	t		5.0	2.5	/experiments/knapen_AOT/AOT_stimuli/rescaled_final/0878_fw.mp4	0.0	89.84134793281555	
7	74.01917767524719	fix_post	2		12	5.0	2.5	/experiments/knapen_AOT/AOT_stimuli/rescaled_final/0878_fw.mp4	0.0	91.1598732471466	0.10022926330566406
8	74.11940693855286	fix_pre	0		120	6.0	2.5	blank	1.0	91.26010251045227	0.9999442100524902
8	74.29514122009277	pulse	0	t		6.0	2.5	blank	1.0	91.43583679199219	
8	75.11935114860535	movie	1		300	6.0	2.5	blank	1.0	92.26004672050476	2.500375270843506
8	75.89491605758667	pulse	1	t		6.0	2.5	blank	1.0	93.03561162948608	
8	77.49491381645203	pulse	1	t		6.0	2.5	blank	1.0	94.63560938835144	
8	77.61972641944885	fix_post	2		12	6.0	2.5	blank	1.0	94.76042199134827	0.10001707077026367
9	77.71974349021912	fix_pre	0		120	7.0	2.5	/experiments/knapen_AOT/AOT_stimuli/rescaled_final/1610_rv.mp4	0.0	94.86043906211853	1.008518934249878
9	78.728262424469	movie	1		279	7.0	2.5	/experiments/knapen_AOT/AOT_stimuli/rescaled_final/1610_rv.mp4	0.0	95.86895799636841	2.4920921325683594
9	79.09526252746582	pulse	1	t		7.0	2.5	/experiments/knapen_AOT/AOT_stimuli/rescaled_final/1610_rv.mp4	0.0	96.23595809936523	
9	80.69544243812561	pulse	1	t		7.0	2.5	/experiments/knapen_AOT/AOT_stimuli/rescaled_final/1610_rv.mp4	0.0	97.83613801002502	
9	81.22035455703735	fix_post	2		12	7.0	2.5	/experiments/knapen_AOT/AOT_stimuli/rescaled_final/1610_rv.mp4	0.0	98.36105012893677	0.09995341300964355
10	81.320307970047	fix_pre	0		118	8.0	2.5	/experiments/knapen_AOT/AOT_stimuli/rescaled_final/0650_fw.mp4	0.0	98.46100354194641	0.9917893409729004
10	82.29566669464111	pulse	0	t		8.0	2.5	/experiments/knapen_AOT/AOT_stimuli/rescaled_final/0650_fw.mp4	0.0	99.43636226654053	
10	82.3120973110199	movie	1		271	8.0	2.5	/experiments/knapen_AOT/AOT_stimuli/rescaled_final/0650_fw.mp4	0.0	99.45279288291931	2.5003817081451416
10	83.8957872390747	pulse	1	t		8.0	2.5	/experiments/knapen_AOT/AOT_stimuli/rescaled_final/0650_fw.mp4	0.0	101.03648281097412	
10	84.81247901916504	fix_post	2		12	8.0	2.5	/experiments/knapen_AOT/AOT_stimuli/rescaled_final/0650_fw.mp4	0.0	101.95317459106445	0.10000896453857422
11	84.91248798370361	fix_pre	0		120	9.0	2.5	/experiments/knapen_AOT/AOT_stimuli/rescaled_final/0961_fw.mp4	0.0	102.05318355560303	1.008497714996338
11	85.49612212181091	pulse	0	t		9.0	2.5	/experiments/knapen_AOT/AOT_stimuli/rescaled_final/0961_fw.mp4	0.0	102.63681769371033	
11	85.92098569869995	movie	1		279	9.0	2.5	/experiments/knapen_AOT/AOT_stimuli/rescaled_final/0961_fw.mp4	0.0	103.06168127059937	2.492022752761841
11	87.09589529037476	pulse	1	t		9.0	2.5	/experiments/knapen_AOT/AOT_stimuli/rescaled_final/0961_fw.mp4	0.0	104.23659086227417	
11	88.41300845146179	fix_post	2		12	9.0	2.5	/experiments/knapen_AOT/AOT_stimuli/rescaled_final/0961_fw.mp4	0.0	105.5537040233612	0.10002493858337402
12	88.51303339004517	fix_pre	0		120	10.0	2.5	/experiments/knapen_AOT/AOT_stimuli/rescaled_final/0927_rv.mp4	0.0	105.65372896194458	1.0084807872772217
12	88.69667196273804	pulse	0	t		10.0	2.5	/experiments/knapen_AOT/AOT_stimuli/rescaled_final/0927_rv.mp4	0.0	105.83736753463745	
12	89.52151417732239	movie	1		275	10.0	2.5	/experiments/knapen_AOT/AOT_stimuli/rescaled_final/0927_rv.mp4	0.0	106.6622097492218	2.492058038711548
12	90.29683542251587	pulse	1	t		10.0	2.5	/experiments/knapen_AOT/AOT_stimuli/rescaled_final/0927_rv.mp4	0.0	107.43753099441528	
12	91.89707779884338	pulse	1	t		10.0	2.5	/experiments/knapen_AOT/AOT_stimuli/rescaled_final/0927_rv.mp4	0.0	109.0377733707428	
12	92.01357221603394	fix_post	2		12	10.0	2.5	/experiments/knapen_AOT/AOT_stimuli/rescaled_final/0927_rv.mp4	0.0	109.15426778793335	0.10002565383911133
13	92.11359786987305	fix_pre	0		120	11.0	2.5	/experiments/knapen_AOT/AOT_stimuli/rescaled_final/1271_fw.mp4	0.0	109.25429344177246	1.0084702968597412
13	93.12206816673279	movie	1		279	11.0	2.5	/experiments/knapen_AOT/AOT_stimuli/rescaled_final/1271_fw.mp4	0.0	110.2627637386322	2.4920384883880615
13	93.49562382698059	pulse	1	t		11.0	2.5	/experiments/knapen_AOT/AOT_stimuli/rescaled_final/1271_fw.mp4	0.0	110.63631939888	
13	95.09517192840576	pulse	1	t		11.0	2.5	/experiments/knapen_AOT/AOT_stimuli/rescaled_final/1271_fw.mp4	0.0	112.23586750030518	
13	95.61410665512085	fix_post	2		12	11.0	2.5	/experiments/knapen_AOT/AOT_stimuli/rescaled_final/1271_fw.mp4	0.0	112.75480222702026	0.10001730918884277
14	95.71412396430969	fix_pre	0		119	12.0	2.5	blank	1.0	112.8548195362091	0.9918551445007324
14	96.69781947135925	pulse	0	t		12.0	2.5	blank	1.0	113.83851504325867	
14	96.70597910881042	movie	1		301	12.0	2.5	blank	1.0	113.84667468070984	2.5086522102355957
14	98.29804825782776	pulse	1	t		12.0	2.5	blank	1.0	115.43874382972717	
14	99.21463131904602	fix_post	2		12	12.0	2.5	blank	1.0	116.35532689094543	0.1000208854675293
15	99.31465220451355	fix_pre	0		120	13.0	2.5	/experiments/knapen_AOT/AOT_stimuli/rescaled_final/1872_fw.mp4	0.0	116.45534777641296	1.008493423461914
15	99.89831471443176	pulse	0	t		13.0	2.5	/experiments/knapen_AOT/AOT_stimuli/rescaled_final/1872_fw.mp4	0.0	117.03901028633118	
15	100.32314562797546	movie	1		283	13.0	2.5	/experiments/knapen_AOT/AOT_stimuli/rescaled_final/1872_fw.mp4	0.0	117.46384119987488	2.4920382499694824
15	101.49665570259094	pulse	1	t		13.0	2.5	/experiments/knapen_AOT/AOT_stimuli/rescaled_final/1872_fw.mp4	0.0	118.63735127449036	
15	102.81518387794495	fix_post	2		12	13.0	2.5	/experiments/knapen_AOT/AOT_stimuli/rescaled_final/1872_fw.mp4	0.0	119.95587944984436	0.10010123252868652
16	102.91528511047363	fix_pre	0		120	14.0	2.5	/experiments/knapen_AOT/AOT_stimuli/rescaled_final/0825_fw.mp4	0.0	120.05598068237305	1.008439064025879
16	103.09881663322449	pulse	0	t		14.0	2.5	/experiments/knapen_AOT/AOT_stimuli/rescaled_final/0825_fw.mp4	0.0	120.2395122051239	
16	103.92372417449951	movie	1		285	14.0	2.5	/experiments/knapen_AOT/AOT_stimuli/rescaled_final/0825_fw.mp4	0.0	121.06441974639893	2.492002487182617
16	104.69664907455444	pulse	1	t		14.0	2.5	/experiments/knapen_AOT/AOT_stimuli/rescaled_final/0825_fw.mp4	0.0	121.83734464645386	
16	106.29722762107849	pulse	1	t		14.0	2.5	/experiments/knapen_AOT/AOT_stimuli/rescaled_final/0825_fw.mp4	0.0	123.4379231929779	
16	106.41572666168213	fix_post	2		12	14.0	2.5	/experiments/knapen_AOT/AOT_stimuli/rescaled_final/0825_fw.mp4	0.0	123.55642223358154	0.10002017021179199
17	106.51574683189392	fix_pre	0		120	15.0	2.5	/experiments/knapen_AOT/AOT_stimuli/rescaled_final/1869_fw.mp4	0.0	123.65644240379333	1.0085039138793945
17	107.52425074577332	movie	1		282	15.0	2.5	/experiments/knapen_AOT/AOT_stimuli/rescaled_final/1869_fw.mp4	0.0	124.66494631767273	2.4920382499694824
17	107.89963221549988	pulse	1	t		15.0	2.5	/experiments/knapen_AOT/AOT_stimuli/rescaled_final/1869_fw.mp4	0.0	125.04032778739929	
17	109.49737477302551	pulse	1	t		15.0	2.5	/experiments/knapen_AOT/AOT_stimuli/rescaled_final/1869_fw.mp4	0.0	126.63807034492493	
17	110.0162889957428	fix_post	2		12	15.0	2.5	/experiments/knapen_AOT/AOT_stimuli/rescaled_final/1869_fw.mp4	0.0	127.15698456764221	0.10005307197570801
18	110.1163420677185	fix_pre	0		119	16.0	2.5	/experiments/knapen_AOT/AOT_stimuli/rescaled_final/1464_rv.mp4	0.0	127.25703763961792	1.0002412796020508
18	111.10000824928284	pulse	0	t		16.0	2.5	/experiments/knapen_AOT/AOT_stimuli/rescaled_final/1464_rv.mp4	0.0	128.24070382118225	
18	111.11658334732056	movie	1		290	16.0	2.5	/experiments/knapen_AOT/AOT_stimuli/rescaled_final/1464_rv.mp4	0.0	128.25727891921997	2.5002219676971436
18	112.69897437095642	pulse	1	t		16.0	2.5	/experiments/knapen_AOT/AOT_stimuli/rescaled_final/1464_rv.mp4	0.0	129.83966994285583	
18	113.6168053150177	fix_post	2		12	16.0	2.5	/experiments/knapen_AOT/AOT_stimuli/rescaled_final/1464_rv.mp4	0.0	130.75750088691711	0.10003399848937988
19	113.71683931350708	fix_pre	0		120	17.0	2.5	/experiments/knapen_AOT/AOT_stimuli/rescaled_final/1579_fw.mp4	0.0	130.8575348854065	1.0085241794586182
19	114.30047535896301	pulse	0	t		17.0	2.5	/experiments/knapen_AOT/AOT_stimuli/rescaled_final/1579_fw.mp4	0.0	131.44117093086243	
19	114.7253634929657	movie	1		279	17.0	2.5	/experiments/knapen_AOT/AOT_stimuli/rescaled_final/1579_fw.mp4	0.0	131.8660590648651	2.4919919967651367
19	115.89886736869812	pulse	1	t		17.0	2.5	/experiments/knapen_AOT/AOT_stimuli/rescaled_final/1579_fw.mp4	0.0	133.03956294059753	
19	117.21735548973083	fix_post	2		12	17.0	2.5	/experiments/knapen_AOT/AOT_stimuli/rescaled_final/1579_fw.mp4	0.0	134.35805106163025	0.10006952285766602
20	117.3174250125885	fix_pre	0		120	18.0	2.5	/experiments/knapen_AOT/AOT_stimuli/rescaled_final/1689_rv.mp4	0.0	134.45812058448792	1.0084643363952637
20	117.50091743469238	pulse	0	t		18.0	2.5	/experiments/knapen_AOT/AOT_stimuli/rescaled_final/1689_rv.mp4	0.0	134.6416130065918	
20	118.32588934898376	movie	1		276	18.0	2.5	/experiments/knapen_AOT/AOT_stimuli/rescaled_final/1689_rv.mp4	0.0	135.46658492088318	2.4919979572296143
20	119.0988130569458	pulse	1	t		18.0	2.5	/experiments/knapen_AOT/AOT_stimuli/rescaled_final/1689_rv.mp4	0.0	136.23950862884521	
20	120.6992757320404	pulse	1	t		18.0	2.5	/experiments/knapen_AOT/AOT_stimuli/rescaled_final/1689_rv.mp4	0.0	137.83997130393982	
20	120.81788730621338	fix_post	2		12	18.0	2.5	/experiments/knapen_AOT/AOT_stimuli/rescaled_final/1689_rv.mp4	0.0	137.9585828781128	0.10002374649047852
21	120.91791105270386	fix_pre	0		120	19.0	2.5	/experiments/knapen_AOT/AOT_stimuli/rescaled_final/2027_fw.mp4	0.0	138.05860662460327	1.0084946155548096
21	121.92640566825867	movie	1		289	19.0	2.5	/experiments/knapen_AOT/AOT_stimuli/rescaled_final/2027_fw.mp4	0.0	139.06710124015808	2.4922873973846436
21	122.3020122051239	pulse	1	t		19.0	2.5	/experiments/knapen_AOT/AOT_stimuli/rescaled_final/2027_fw.mp4	0.0	139.44270777702332	
21	123.89976644515991	pulse	1	t		19.0	2.5	/experiments/knapen_AOT/AOT_stimuli/rescaled_final/2027_fw.mp4	0.0	141.04046201705933	
21	124.41869306564331	fix_post	2		12	19.0	2.5	/experiments/knapen_AOT/AOT_stimuli/rescaled_final/2027_fw.mp4	0.0	141.55938863754272	0.09974551200866699
22	124.51843857765198	fix_pre	0		119	20.0	2.5	/experiments/knapen_AOT/AOT_stimuli/rescaled_final/1729_rv.mp4	0.0	141.6591341495514	1.0002024173736572
22	125.50233006477356	pulse	0	t		20.0	2.5	/experiments/knapen_AOT/AOT_stimuli/rescaled_final/1729_rv.mp4	0.0	142.64302563667297	
22	125.51864099502563	movie	1		276	20.0	2.5	/experiments/knapen_AOT/AOT_stimuli/rescaled_final/1729_rv.mp4	0.0	142.65933656692505	2.500385046005249
22	127.10252523422241	pulse	1	t		20.0	2.5	/experiments/knapen_AOT/AOT_stimuli/rescaled_final/1729_rv.mp4	0.0	144.24322080612183	
22	128.01902604103088	fix_post	2		12	20.0	2.5	/experiments/knapen_AOT/AOT_stimuli/rescaled_final/1729_rv.mp4	0.0	145.1597216129303	0.09994220733642578
23	128.1189682483673	fix_pre	0		120	21.0	2.5	blank	1.0	145.25966382026672	1.0001599788665771
23	128.7026093006134	pulse	0	t		21.0	2.5	blank	1.0	145.84330487251282	
23	129.1191282272339	movie	1		300	21.0	2.5	blank	1.0	146.2598237991333	2.5004193782806396
23	130.2952573299408	pulse	1	t		21.0	2.5	blank	1.0	147.4359529018402	
23	131.61954760551453	fix_post	2		12	21.0	2.5	blank	1.0	148.76024317741394	0.09997057914733887
24	131.71951818466187	fix_pre	0		120	22.0	2.5	/experiments/knapen_AOT/AOT_stimuli/rescaled_final/1285_rv.mp4	0.0	148.86021375656128	1.0084946155548096
24	131.89526867866516	pulse	0	t		22.0	2.5	/experiments/knapen_AOT/AOT_stimuli/rescaled_final/1285_rv.mp4	0.0	149.03596425056458	
24	132.72801280021667	movie	1		280	22.0	2.5	/experiments/knapen_AOT/AOT_stimuli/rescaled_final/1285_rv.mp4	0.0	149.8687083721161	2.4920504093170166
24	133.49536442756653	pulse	1	t		22.0	2.5	/experiments/knapen_AOT/AOT_stimuli/rescaled_final/1285_rv.mp4	0.0	150.63605999946594	
24	135.09535908699036	pulse	1	t		22.0	2.5	/experiments/knapen_AOT/AOT_stimuli/rescaled_final/1285_rv.mp4	0.0	152.23605465888977	
24	135.2200632095337	fix_post	2		12	22.0	2.5	/experiments/knapen_AOT/AOT_stimuli/rescaled_final/1285_rv.mp4	0.0	152.3607587814331	0.10003042221069336
25	135.32009363174438	fix_pre	0		120	23.0	2.5	/experiments/knapen_AOT/AOT_stimuli/rescaled_final/2087_rv.mp4	0.0	152.4607892036438	1.0085506439208984
25	136.32864427566528	movie	1		267	23.0	2.5	/experiments/knapen_AOT/AOT_stimuli/rescaled_final/2087_rv.mp4	0.0	153.4693398475647	2.491943120956421
25	136.6955225467682	pulse	1	t		23.0	2.5	/experiments/knapen_AOT/AOT_stimuli/rescaled_final/2087_rv.mp4	0.0	153.8362181186676	
25	138.29569482803345	pulse	1	t		23.0	2.5	/experiments/knapen_AOT/AOT_stimuli/rescaled_final/2087_rv.mp4	0.0	155.43639039993286	
25	138.8205873966217	fix_post	2		12	23.0	2.5	/experiments/knapen_AOT/AOT_stimuli/rescaled_final/2087_rv.mp4	0.0	155.96128296852112	0.10006046295166016
26	138.92064785957336	fix_pre	0		118	24.0	2.5	/experiments/knapen_AOT/AOT_stimuli/rescaled_final/1559_fw.mp4	0.0	156.06134343147278	0.9917905330657959
26	139.8959617614746	pulse	0	t		24.0	2.5	/experiments/knapen_AOT/AOT_stimuli/rescaled_final/1559_fw.mp4	0.0	157.03665733337402	
26	139.91243839263916	movie	1		287	24.0	2.5	/experiments/knapen_AOT/AOT_stimuli/rescaled_final/1559_fw.mp4	0.0	157.05313396453857	2.5003902912139893
26	141.4962179660797	pulse	1	t		24.0	2.5	/experiments/knapen_AOT/AOT_stimuli/rescaled_final/1559_fw.mp4	0.0	158.63691353797913	
26	142.41282868385315	fix_post	2		12	24.0	2.5	/experiments/knapen_AOT/AOT_stimuli/rescaled_final/1559_fw.mp4	0.0	159.55352425575256	0.10000395774841309
27	142.51283264160156	fix_pre	0		120	25.0	2.5	/experiments/knapen_AOT/AOT_stimuli/rescaled_final/1475_fw.mp4	0.0	159.65352821350098	1.0085065364837646
27	143.09647130966187	pulse	0	t		25.0	2.5	/experiments/knapen_AOT/AOT_stimuli/rescaled_final/1475_fw.mp4	0.0	160.23716688156128	
27	143.52133917808533	movie	1		281	25.0	2.5	/experiments/knapen_AOT/AOT_stimuli/rescaled_final/1475_fw.mp4	0.0	160.66203474998474	2.4920101165771484
27	144.69673013687134	pulse	1	t		25.0	2.5	/experiments/knapen_AOT/AOT_stimuli/rescaled_final/1475_fw.mp4	0.0	161.83742570877075	
27	146.01334929466248	fix_post	2		12	25.0	2.5	/experiments/knapen_AOT/AOT_stimuli/rescaled_final/1475_fw.mp4	0.0	163.1540448665619	0.10000157356262207
28	146.1133508682251	fix_pre	0		120	26.0	2.5	blank	1.0	163.2540464401245	1.000148057937622
28	146.29718565940857	pulse	0	t		26.0	2.5	blank	1.0	163.43788123130798	
28	147.11349892616272	movie	1		300	26.0	2.5	blank	1.0	164.25419449806213	2.500422716140747
28	147.8972933292389	pulse	1	t		26.0	2.5	blank	1.0	165.0379889011383	
28	149.49744582176208	pulse	1	t		26.0	2.5	blank	1.0	166.6381413936615	
28	149.61392164230347	fix_post	2		12	26.0	2.5	blank	1.0	166.75461721420288	0.10002017021179199
29	149.71394181251526	fix_pre	0		120	27.0	2.5	/experiments/knapen_AOT/AOT_stimuli/rescaled_final/1827_fw.mp4	0.0	166.85463738441467	1.0084702968597412
29	150.722412109375	movie	1		284	27.0	2.5	/experiments/knapen_AOT/AOT_stimuli/rescaled_final/1827_fw.mp4	0.0	167.8631076812744	2.4921789169311523
29	151.09575366973877	pulse	1	t		27.0	2.5	/experiments/knapen_AOT/AOT_stimuli/rescaled_final/1827_fw.mp4	0.0	168.23644924163818	
29	152.69567131996155	pulse	1	t		27.0	2.5	/experiments/knapen_AOT/AOT_stimuli/rescaled_final/1827_fw.mp4	0.0	169.83636689186096	
29	153.21459102630615	fix_post	2		12	27.0	2.5	/experiments/knapen_AOT/AOT_stimuli/rescaled_final/1827_fw.mp4	0.0	170.35528659820557	0.09986066818237305
30	153.31445169448853	fix_pre	0		119	28.0	2.5	/experiments/knapen_AOT/AOT_stimuli/rescaled_final/2007_rv.mp4	0.0	170.45514726638794	1.0001442432403564
30	154.29811644554138	pulse	0	t		28.0	2.5	/experiments/knapen_AOT/AOT_stimuli/rescaled_final/2007_rv.mp4	0.0	171.4388120174408	
30	154.31459593772888	movie	1		282	28.0	2.5	/experiments/knapen_AOT/AOT_stimuli/rescaled_final/2007_rv.mp4	0.0	171.4552915096283	2.5003647804260254
30	155.89785075187683	pulse	1	t		28.0	2.5	/experiments/knapen_AOT/AOT_stimuli/rescaled_final/2007_rv.mp4	0.0	173.03854632377625	
30	156.8149607181549	fix_post	2		12	28.0	2.5	/experiments/knapen_AOT/AOT_stimuli/rescaled_final/2007_rv.mp4	0.0	173.95565629005432	0.1000666618347168
31	156.91502737998962	fix_pre	0		120	29.0	2.5	/experiments/knapen_AOT/AOT_stimuli/rescaled_final/0322_fw.mp4	0.0	174.05572295188904	1.0084657669067383
31	157.49859428405762	pulse	0	t		29.0	2.5	/experiments/knapen_AOT/AOT_stimuli/rescaled_final/0322_fw.mp4	0.0	174.63928985595703	
31	157.92349314689636	movie	1		289	29.0	2.5	/experiments/knapen_AOT/AOT_stimuli/rescaled_final/0322_fw.mp4	0.0	175.06418871879578	2.492014169692993
31	159.0969603061676	pulse	1	t		29.0	2.5	/experiments/knapen_AOT/AOT_stimuli/rescaled_final/0322_fw.mp4	0.0	176.23765587806702	
31	160.41550731658936	fix_post	2		12	29.0	2.5	/experiments/knapen_AOT/AOT_stimuli/rescaled_final/0322_fw.mp4	0.0	177.55620288848877	0.1000220775604248
32	160.51552939414978	fix_pre	0		120	30.0	2.5	/experiments/knapen_AOT/AOT_stimuli/rescaled_final/0742_rv.mp4	0.0	177.6562249660492	1.008481502532959
32	160.6990475654602	pulse	0	t		30.0	2.5	/experiments/knapen_AOT/AOT_stimuli/rescaled_final/0742_rv.mp4	0.0	177.83974313735962	
32	161.52401089668274	movie	1		284	30.0	2.5	/experiments/knapen_AOT/AOT_stimuli/rescaled_final/0742_rv.mp4	0.0	178.66470646858215	2.4920380115509033
32	162.29731607437134	pulse	1	t		30.0	2.5	/experiments/knapen_AOT/AOT_stimuli/rescaled_final/0742_rv.mp4	0.0	179.43801164627075	
32	163.89730596542358	pulse	1	t		30.0	2.5	/experiments/knapen_AOT/AOT_stimuli/rescaled_final/0742_rv.mp4	0.0	181.038001537323	
32	164.01604890823364	fix_post	2		12	30.0	2.5	/experiments/knapen_AOT/AOT_stimuli/rescaled_final/0742_rv.mp4	0.0	181.15674448013306	0.10003948211669922
33	164.11608839035034	fix_pre	0		120	31.0	2.5	/experiments/knapen_AOT/AOT_stimuli/rescaled_final/0671_fw.mp4	0.0	181.25678396224976	1.008599042892456
33	165.1246874332428	movie	1		278	31.0	2.5	/experiments/knapen_AOT/AOT_stimuli/rescaled_final/0671_fw.mp4	0.0	182.2653830051422	2.4918994903564453
33	165.49816703796387	pulse	1	t		31.0	2.5	/experiments/knapen_AOT/AOT_stimuli/rescaled_final/0671_fw.mp4	0.0	182.63886260986328	
33	167.09767246246338	pulse	1	t		31.0	2.5	/experiments/knapen_AOT/AOT_stimuli/rescaled_final/0671_fw.mp4	0.0	184.2383680343628	
33	167.61658692359924	fix_post	2		12	31.0	2.5	/experiments/knapen_AOT/AOT_stimuli/rescaled_final/0671_fw.mp4	0.0	184.75728249549866	0.1000218391418457
34	167.7166087627411	fix_pre	0		119	32.0	2.5	/experiments/knapen_AOT/AOT_stimuli/rescaled_final/0445_fw.mp4	0.0	184.8573043346405	1.000124216079712
34	168.70055651664734	pulse	0	t		32.0	2.5	/experiments/knapen_AOT/AOT_stimuli/rescaled_final/0445_fw.mp4	0.0	185.84125208854675	
34	168.7167329788208	movie	1		286	32.0	2.5	/experiments/knapen_AOT/AOT_stimuli/rescaled_final/0445_fw.mp4	0.0	185.85742855072021	2.5004382133483887
34	170.29873538017273	pulse	1	t		32.0	2.5	/experiments/knapen_AOT/AOT_stimuli/rescaled_final/0445_fw.mp4	0.0	187.43943095207214	
34	171.2171711921692	fix_post	2		12	32.0	2.5	/experiments/knapen_AOT/AOT_stimuli/rescaled_final/0445_fw.mp4	0.0	188.3578667640686	0.09997272491455078
35	171.31714391708374	fix_pre	0		120	33.0	2.5	/experiments/knapen_AOT/AOT_stimuli/rescaled_final/0874_rv.mp4	0.0	188.45783948898315	1.008589267730713
35	171.90082454681396	pulse	0	t		33.0	2.5	/experiments/knapen_AOT/AOT_stimuli/rescaled_final/0874_rv.mp4	0.0	189.04152011871338	
35	172.32573318481445	movie	1		278	33.0	2.5	/experiments/knapen_AOT/AOT_stimuli/rescaled_final/0874_rv.mp4	0.0	189.46642875671387	2.5002872943878174
35	173.4994080066681	pulse	1	t		33.0	2.5	/experiments/knapen_AOT/AOT_stimuli/rescaled_final/0874_rv.mp4	0.0	190.6401035785675	
35	174.82602047920227	fix_post	2		11	33.0	2.5	/experiments/knapen_AOT/AOT_stimuli/rescaled_final/0874_rv.mp4	0.0	191.96671605110168	0.09167289733886719
36	174.91769337654114	fix_pre	0		120	34.0	2.5	/experiments/knapen_AOT/AOT_stimuli/rescaled_final/1360_rv.mp4	0.0	192.05838894844055	1.0085606575012207
36	175.10126781463623	pulse	0	t		34.0	2.5	/experiments/knapen_AOT/AOT_stimuli/rescaled_final/1360_rv.mp4	0.0	192.24196338653564	
36	175.92625403404236	movie	1		286	34.0	2.5	/experiments/knapen_AOT/AOT_stimuli/rescaled_final/1360_rv.mp4	0.0	193.06694960594177	2.4919910430908203
36	176.69925236701965	pulse	1	t		34.0	2.5	/experiments/knapen_AOT/AOT_stimuli/rescaled_final/1360_rv.mp4	0.0	193.83994793891907	
36	178.29946732521057	pulse	1	t		34.0	2.5	/experiments/knapen_AOT/AOT_stimuli/rescaled_final/1360_rv.mp4	0.0	195.44016289710999	
36	178.41824507713318	fix_post	2		12	34.0	2.5	/experiments/knapen_AOT/AOT_stimuli/rescaled_final/1360_rv.mp4	0.0	195.5589406490326	0.10001707077026367
37	178.51826214790344	fix_pre	0		120	35.0	2.5	blank	1.0	195.65895771980286	1.0001604557037354
37	179.51842260360718	movie	1		300	35.0	2.5	blank	1.0	196.6591181755066	2.5003695487976074
37	179.90200018882751	pulse	1	t		35.0	2.5	blank	1.0	197.04269576072693	
37	181.4947865009308	pulse	1	t		35.0	2.5	blank	1.0	198.6354820728302	
37	182.01879215240479	fix_post	2		12	35.0	2.5	blank	1.0	199.1594877243042	0.09998035430908203
38	182.11877250671387	fix_pre	0		119	36.0	2.5	/experiments/knapen_AOT/AOT_stimuli/rescaled_final/1285_rv.mp4	0.0	199.25946807861328	1.0002052783966064
38	183.09465837478638	pulse	0	t		36.0	2.5	/experiments/knapen_AOT/AOT_stimuli/rescaled_final/1285_rv.mp4	0.0	200.2353539466858	
38	183.11897778511047	movie	1		286	36.0	2.5	/experiments/knapen_AOT/AOT_stimuli/rescaled_final/1285_rv.mp4	0.0	200.2596733570099	2.5003082752227783
38	184.69471716880798	pulse	1	t		36.0	2.5	/experiments/knapen_AOT/AOT_stimuli/rescaled_final/1285_rv.mp4	0.0	201.8354127407074	
38	185.61928606033325	fix_post	2		12	36.0	2.5	/experiments/knapen_AOT/AOT_stimuli/rescaled_final/1285_rv.mp4	0.0	202.75998163223267	0.10001969337463379
39	185.71930575370789	fix_pre	0		120	37.0	2.5	/experiments/knapen_AOT/AOT_stimuli/rescaled_final/0571_rv.mp4	0.0	202.8600013256073	1.0085241794586182
39	186.2947118282318	pulse	0	t		37.0	2.5	/experiments/knapen_AOT/AOT_stimuli/rescaled_final/0571_rv.mp4	0.0	203.43540740013123	
39	186.7278299331665	movie	1		287	37.0	2.5	/experiments/knapen_AOT/AOT_stimuli/rescaled_final/0571_rv.mp4	0.0	203.86852550506592	2.492079019546509
39	187.89489889144897	pulse	1	t		37.0	2.5	/experiments/knapen_AOT/AOT_stimuli/rescaled_final/0571_rv.mp4	0.0	205.0355944633484	
39	189.219908952713	fix_post	2		12	37.0	2.5	/experiments/knapen_AOT/AOT_stimuli/rescaled_final/0571_rv.mp4	0.0	206.36060452461243	0.0999457836151123
40	189.31985473632812	fix_pre	0		120	38.0	2.5	/experiments/knapen_AOT/AOT_stimuli/rescaled_final/2027_rv.mp4	0.0	206.46055030822754	1.0085456371307373
40	189.49542093276978	pulse	0	t		38.0	2.5	/experiments/knapen_AOT/AOT_stimuli/rescaled_final/2027_rv.mp4	0.0	206.6361165046692	
40	190.32840037345886	movie	1		286	38.0	2.5	/experiments/knapen_AOT/AOT_stimuli/rescaled_final/2027_rv.mp4	0.0	207.46909594535828	2.491971731185913
40	191.09544944763184	pulse	1	t		38.0	2.5	/experiments/knapen_AOT/AOT_stimuli/rescaled_final/2027_rv.mp4	0.0	208.23614501953125	
40	192.6955602169037	pulse	1	t		38.0	2.5	/experiments/knapen_AOT/AOT_stimuli/rescaled_final/2027_rv.mp4	0.0	209.8362557888031	
40	192.82037210464478	fix_post	2		12	38.0	2.5	/experiments/knapen_AOT/AOT_stimuli/rescaled_final/2027_rv.mp4	0.0	209.9610676765442	0.10002589225769043
41	192.92039799690247	fix_pre	0		120	39.0	2.5	/experiments/knapen_AOT/AOT_stimuli/rescaled_final/0639_rv.mp4	0.0	210.06109356880188	1.008486270904541
41	193.928884267807	movie	1		277	39.0	2.5	/experiments/knapen_AOT/AOT_stimuli/rescaled_final/0639_rv.mp4	0.0	211.06957983970642	2.492053270339966
41	194.29659366607666	pulse	1	t		39.0	2.5	/experiments/knapen_AOT/AOT_stimuli/rescaled_final/0639_rv.mp4	0.0	211.43728923797607	
41	195.89599299430847	pulse	1	t		39.0	2.5	/experiments/knapen_AOT/AOT_stimuli/rescaled_final/0639_rv.mp4	0.0	213.03668856620789	
41	196.42093753814697	fix_post	2		12	39.0	2.5	/experiments/knapen_AOT/AOT_stimuli/rescaled_final/0639_rv.mp4	0.0	213.5616331100464	0.09997677803039551
42	196.52091431617737	fix_pre	0		118	40.0	2.5	/experiments/knapen_AOT/AOT_stimuli/rescaled_final/0617_fw.mp4	0.0	213.66160988807678	0.9918427467346191
42	197.49623489379883	pulse	0	t		40.0	2.5	/experiments/knapen_AOT/AOT_stimuli/rescaled_final/0617_fw.mp4	0.0	214.63693046569824	
42	197.512757062912	movie	1		268	40.0	2.5	/experiments/knapen_AOT/AOT_stimuli/rescaled_final/0617_fw.mp4	0.0	214.6534526348114	2.5003514289855957
42	199.09532237052917	pulse	1	t		40.0	2.5	/experiments/knapen_AOT/AOT_stimuli/rescaled_final/0617_fw.mp4	0.0	216.2360179424286	
42	200.01310849189758	fix_post	2		12	40.0	2.5	/experiments/knapen_AOT/AOT_stimuli/rescaled_final/0617_fw.mp4	0.0	217.153804063797	0.10002374649047852
43	200.11313223838806	fix_pre	0		120	41.0	2.5	blank	1.0	217.25382781028748	1.0001599788665771
43	200.6967751979828	pulse	0	t		41.0	2.5	blank	1.0	217.8374707698822	
43	201.11329221725464	movie	1		300	41.0	2.5	blank	1.0	218.25398778915405	2.5003645420074463
43	202.29709148406982	pulse	1	t		41.0	2.5	blank	1.0	219.43778705596924	
43	203.61365675926208	fix_post	2		12	41.0	2.5	blank	1.0	220.7543523311615	0.1000204086303711
44	203.71367716789246	fix_pre	0		120	42.0	2.5	/experiments/knapen_AOT/AOT_stimuli/rescaled_final/1652_rv.mp4	0.0	220.85437273979187	1.008507490158081
44	203.89728307724	pulse	0	t		42.0	2.5	/experiments/knapen_AOT/AOT_stimuli/rescaled_final/1652_rv.mp4	0.0	221.0379786491394	
44	204.72218465805054	movie	1		281	42.0	2.5	/experiments/knapen_AOT/AOT_stimuli/rescaled_final/1652_rv.mp4	0.0	221.86288022994995	2.4920926094055176
44	205.4963037967682	pulse	1	t		42.0	2.5	/experiments/knapen_AOT/AOT_stimuli/rescaled_final/1652_rv.mp4	0.0	222.6369993686676	
44	207.09705662727356	pulse	1	t		42.0	2.5	/experiments/knapen_AOT/AOT_stimuli/rescaled_final/1652_rv.mp4	0.0	224.23775219917297	
44	207.21427726745605	fix_post	2		12	42.0	2.5	/experiments/knapen_AOT/AOT_stimuli/rescaled_final/1652_rv.mp4	0.0	224.35497283935547	0.09995102882385254
45	207.3142282962799	fix_pre	0		120	43.0	2.5	/experiments/knapen_AOT/AOT_stimuli/rescaled_final/0792_rv.mp4	0.0	224.45492386817932	1.0084927082061768
45	208.32272100448608	movie	1		275	43.0	2.5	/experiments/knapen_AOT/AOT_stimuli/rescaled_final/0792_rv.mp4	0.0	225.4634165763855	2.492064952850342
45	208.6974823474884	pulse	1	t		43.0	2.5	/experiments/knapen_AOT/AOT_stimuli/rescaled_final/0792_rv.mp4	0.0	225.83817791938782	
45	210.29827737808228	pulse	1	t		43.0	2.5	/experiments/knapen_AOT/AOT_stimuli/rescaled_final/0792_rv.mp4	0.0	227.4389729499817	
45	210.81478595733643	fix_post	2		12	43.0	2.5	/experiments/knapen_AOT/AOT_stimuli/rescaled_final/0792_rv.mp4	0.0	227.95548152923584	0.10001182556152344
46	210.91479778289795	fix_pre	0		119	44.0	2.5	/experiments/knapen_AOT/AOT_stimuli/rescaled_final/0915_rv.mp4	0.0	228.05549335479736	1.0001113414764404
46	211.89845085144043	pulse	0	t		44.0	2.5	/experiments/knapen_AOT/AOT_stimuli/rescaled_final/0915_rv.mp4	0.0	229.03914642333984	
46	211.9149091243744	movie	1		285	44.0	2.5	/experiments/knapen_AOT/AOT_stimuli/rescaled_final/0915_rv.mp4	0.0	229.0556046962738	2.500394344329834
46	213.49706172943115	pulse	1	t		44.0	2.5	/experiments/knapen_AOT/AOT_stimuli/rescaled_final/0915_rv.mp4	0.0	230.63775730133057	
46	214.41530346870422	fix_post	2		12	44.0	2.5	/experiments/knapen_AOT/AOT_stimuli/rescaled_final/0915_rv.mp4	0.0	231.55599904060364	0.10001492500305176
47	214.51531839370728	fix_pre	0		120	45.0	2.5	/experiments/knapen_AOT/AOT_stimuli/rescaled_final/0137_rv.mp4	0.0	231.6560139656067	1.0084762573242188
47	215.09898114204407	pulse	0	t		45.0	2.5	/experiments/knapen_AOT/AOT_stimuli/rescaled_final/0137_rv.mp4	0.0	232.23967671394348	
47	215.5237946510315	movie	1		283	45.0	2.5	/experiments/knapen_AOT/AOT_stimuli/rescaled_final/0137_rv.mp4	0.0	232.6644902229309	2.4920408725738525
47	216.6975383758545	pulse	1	t		45.0	2.5	/experiments/knapen_AOT/AOT_stimuli/rescaled_final/0137_rv.mp4	0.0	233.8382339477539	
47	218.01583552360535	fix_post	2		12	45.0	2.5	/experiments/knapen_AOT/AOT_stimuli/rescaled_final/0137_rv.mp4	0.0	235.15653109550476	0.10001182556152344
48	218.11584734916687	fix_pre	0		104	46.0	2.5	/experiments/knapen_AOT/AOT_stimuli/rescaled_final/1071_fw.mp4	0.0	235.25654292106628	1.0085129737854004
48	218.43629002571106	pulse	0	t		46.0	2.5	/experiments/knapen_AOT/AOT_stimuli/rescaled_final/1071_fw.mp4	0.0	235.57698559761047	
48	219.12436032295227	movie	1		295	46.0	2.5	/experiments/knapen_AOT/AOT_stimuli/rescaled_final/1071_fw.mp4	0.0	236.26505589485168	2.49206280708313
48	219.89767694473267	pulse	1	t		46.0	2.5	/experiments/knapen_AOT/AOT_stimuli/rescaled_final/1071_fw.mp4	0.0	237.03837251663208	
48	221.4980993270874	pulse	1	t		46.0	2.5	/experiments/knapen_AOT/AOT_stimuli/rescaled_final/1071_fw.mp4	0.0	238.63879489898682	
48	221.6164231300354	fix_post	2		12	46.0	2.5	/experiments/knapen_AOT/AOT_stimuli/rescaled_final/1071_fw.mp4	0.0	238.75711870193481	0.10002732276916504
49	221.71645045280457	fix_pre	0		120	47.0	2.5	/experiments/knapen_AOT/AOT_stimuli/rescaled_final/0429_rv.mp4	0.0	238.85714602470398	1.0084490776062012
49	222.72489953041077	movie	1		276	47.0	2.5	/experiments/knapen_AOT/AOT_stimuli/rescaled_final/0429_rv.mp4	0.0	239.86559510231018	2.4920384883880615
49	223.09893441200256	pulse	1	t		47.0	2.5	/experiments/knapen_AOT/AOT_stimuli/rescaled_final/0429_rv.mp4	0.0	240.23962998390198	
49	224.69812726974487	pulse	1	t		47.0	2.5	/experiments/knapen_AOT/AOT_stimuli/rescaled_final/0429_rv.mp4	0.0	241.8388228416443	
49	225.21693801879883	fix_post	2		12	47.0	2.5	/experiments/knapen_AOT/AOT_stimuli/rescaled_final/0429_rv.mp4	0.0	242.35763359069824	0.09999227523803711
50	225.31693029403687	fix_pre	0		119	48.0	2.5	blank	1.0	242.45762586593628	0.9918389320373535
50	226.30064797401428	pulse	0	t		48.0	2.5	blank	1.0	243.4413435459137	
50	226.30876922607422	movie	1		301	48.0	2.5	blank	1.0	243.44946479797363	2.508676767349243
50	227.90083527565002	pulse	1	t		48.0	2.5	blank	1.0	245.04153084754944	
50	228.81744599342346	fix_post	2		12	48.0	2.5	blank	1.0	245.95814156532288	0.10003232955932617
51	228.9174783229828	fix_pre	0		120	49.0	2.5	/experiments/knapen_AOT/AOT_stimuli/rescaled_final/1511_rv.mp4	0.0	246.0581738948822	1.0084984302520752
51	229.50109815597534	pulse	0	t		49.0	2.5	/experiments/knapen_AOT/AOT_stimuli/rescaled_final/1511_rv.mp4	0.0	246.64179372787476	
51	229.92597675323486	movie	1		293	49.0	2.5	/experiments/knapen_AOT/AOT_stimuli/rescaled_final/1511_rv.mp4	0.0	247.06667232513428	2.49202036857605
51	231.10170030593872	pulse	1	t		49.0	2.5	/experiments/knapen_AOT/AOT_stimuli/rescaled_final/1511_rv.mp4	0.0	248.24239587783813	
51	232.4179971218109	fix_post	2		12	49.0	2.5	/experiments/knapen_AOT/AOT_stimuli/rescaled_final/1511_rv.mp4	0.0	249.55869269371033	0.10001778602600098
52	232.5180149078369	fix_pre	0		120	50.0	2.5	/experiments/knapen_AOT/AOT_stimuli/rescaled_final/2138_rv.mp4	0.0	249.65871047973633	1.0085220336914062
52	232.70157480239868	pulse	0	t		50.0	2.5	/experiments/knapen_AOT/AOT_stimuli/rescaled_final/2138_rv.mp4	0.0	249.8422703742981	
52	233.52653694152832	movie	1		290	50.0	2.5	/experiments/knapen_AOT/AOT_stimuli/rescaled_final/2138_rv.mp4	0.0	250.66723251342773	2.492002248764038
52	234.29975485801697	pulse	1	t		50.0	2.5	/experiments/knapen_AOT/AOT_stimuli/rescaled_final/2138_rv.mp4	0.0	251.44045042991638	
52	235.90011262893677	pulse	1	t		50.0	2.5	/experiments/knapen_AOT/AOT_stimuli/rescaled_final/2138_rv.mp4	0.0	253.04080820083618	
52	236.01853919029236	fix_post	2		12	50.0	2.5	/experiments/knapen_AOT/AOT_stimuli/rescaled_final/2138_rv.mp4	0.0	253.15923476219177	0.10000729560852051
53	236.11854648590088	fix_pre	0		120	51.0	2.5	/experiments/knapen_AOT/AOT_stimuli/rescaled_final/0231_rv.mp4	0.0	253.2592420578003	1.0085256099700928
53	237.12707209587097	movie	1		287	51.0	2.5	/experiments/knapen_AOT/AOT_stimuli/rescaled_final/0231_rv.mp4	0.0	254.26776766777039	2.4920380115509033
53	237.50047206878662	pulse	1	t		51.0	2.5	/experiments/knapen_AOT/AOT_stimuli/rescaled_final/0231_rv.mp4	0.0	254.64116764068604	
53	239.10053062438965	pulse	1	t		51.0	2.5	/experiments/knapen_AOT/AOT_stimuli/rescaled_final/0231_rv.mp4	0.0	256.24122619628906	
53	239.61911010742188	fix_post	2		12	51.0	2.5	/experiments/knapen_AOT/AOT_stimuli/rescaled_final/0231_rv.mp4	0.0	256.7598056793213	0.09998965263366699
54	239.71909976005554	fix_pre	0		119	52.0	2.5	/experiments/knapen_AOT/AOT_stimuli/rescaled_final/1357_fw.mp4	0.0	256.85979533195496	1.000218152999878
54	240.69513702392578	pulse	0	t		52.0	2.5	/experiments/knapen_AOT/AOT_stimuli/rescaled_final/1357_fw.mp4	0.0	257.8358325958252	
54	240.71931791305542	movie	1		287	52.0	2.5	/experiments/knapen_AOT/AOT_stimuli/rescaled_final/1357_fw.mp4	0.0	257.86001348495483	2.5003302097320557
54	242.3013060092926	pulse	1	t		52.0	2.5	/experiments/knapen_AOT/AOT_stimuli/rescaled_final/1357_fw.mp4	0.0	259.442001581192	
54	243.21964812278748	fix_post	2		12	52.0	2.5	/experiments/knapen_AOT/AOT_stimuli/rescaled_final/1357_fw.mp4	0.0	260.3603436946869	0.10004544258117676
55	243.31969356536865	fix_pre	0		120	53.0	2.5	/experiments/knapen_AOT/AOT_stimuli/rescaled_final/0961_fw.mp4	0.0	260.46038913726807	1.0084245204925537
55	243.89513611793518	pulse	0	t		53.0	2.5	/experiments/knapen_AOT/AOT_stimuli/rescaled_final/0961_fw.mp4	0.0	261.0358316898346	
55	244.3281180858612	movie	1		284	53.0	2.5	/experiments/knapen_AOT/AOT_stimuli/rescaled_final/0961_fw.mp4	0.0	261.4688136577606	2.492034435272217
55	245.49516344070435	pulse	1	t		53.0	2.5	/experiments/knapen_AOT/AOT_stimuli/rescaled_final/0961_fw.mp4	0.0	262.63585901260376	
55	246.82015252113342	fix_post	2		12	53.0	2.5	/experiments/knapen_AOT/AOT_stimuli/rescaled_final/0961_fw.mp4	0.0	263.96084809303284	0.10002994537353516
56	246.92018246650696	fix_pre	0		120	54.0	2.5	/experiments/knapen_AOT/AOT_stimuli/rescaled_final/0483_rv.mp4	0.0	264.0608780384064	1.0084922313690186
56	247.09558653831482	pulse	0	t		54.0	2.5	/experiments/knapen_AOT/AOT_stimuli/rescaled_final/0483_rv.mp4	0.0	264.23628211021423	
56	247.92867469787598	movie	1		286	54.0	2.5	/experiments/knapen_AOT/AOT_stimuli/rescaled_final/0483_rv.mp4	0.0	265.0693702697754	2.492046594619751
56	248.6956684589386	pulse	1	t		54.0	2.5	/experiments/knapen_AOT/AOT_stimuli/rescaled_final/0483_rv.mp4	0.0	265.836364030838	
56	250.2959020137787	pulse	1	t		54.0	2.5	/experiments/knapen_AOT/AOT_stimuli/rescaled_final/0483_rv.mp4	0.0	267.4365975856781	
56	250.42072129249573	fix_post	2		12	54.0	2.5	/experiments/knapen_AOT/AOT_stimuli/rescaled_final/0483_rv.mp4	0.0	267.56141686439514	0.10000061988830566
57	250.52072191238403	fix_pre	0		120	55.0	2.5	blank	1.0	267.66141748428345	1.0001420974731445
57	251.52086400985718	movie	1		300	55.0	2.5	blank	1.0	268.6615595817566	2.500403642654419
57	251.89613389968872	pulse	1	t		55.0	2.5	blank	1.0	269.03682947158813	
57	253.49635815620422	pulse	1	t		55.0	2.5	blank	1.0	270.63705372810364	
57	254.0212676525116	fix_post	2		12	55.0	2.5	blank	1.0	271.161963224411	0.10004854202270508
58	254.1213161945343	fix_pre	0		118	56.0	2.5	/experiments/knapen_AOT/AOT_stimuli/rescaled_final/1352_rv.mp4	0.0	271.2620117664337	0.9917426109313965
58	255.09663486480713	pulse	0	t		56.0	2.5	/experiments/knapen_AOT/AOT_stimuli/rescaled_final/1352_rv.mp4	0.0	272.23733043670654	
58	255.1130588054657	movie	1		288	56.0	2.5	/experiments/knapen_AOT/AOT_stimuli/rescaled_final/1352_rv.mp4	0.0	272.2537543773651	2.5003862380981445
58	256.6954724788666	pulse	1	t		56.0	2.5	/experiments/knapen_AOT/AOT_stimuli/rescaled_final/1352_rv.mp4	0.0	273.836168050766	
58	257.61344504356384	fix_post	2		12	56.0	2.5	/experiments/knapen_AOT/AOT_stimuli/rescaled_final/1352_rv.mp4	0.0	274.75414061546326	0.10003209114074707
59	257.7134771347046	fix_pre	0		120	57.0	2.5	/experiments/knapen_AOT/AOT_stimuli/rescaled_final/1359_rv.mp4	0.0	274.854172706604	1.0085408687591553
59	258.2970612049103	pulse	0	t		57.0	2.5	/experiments/knapen_AOT/AOT_stimuli/rescaled_final/1359_rv.mp4	0.0	275.4377567768097	
59	258.72201800346375	movie	1		288	57.0	2.5	/experiments/knapen_AOT/AOT_stimuli/rescaled_final/1359_rv.mp4	0.0	275.86271357536316	2.4919703006744385
59	259.89574670791626	pulse	1	t		57.0	2.5	/experiments/knapen_AOT/AOT_stimuli/rescaled_final/1359_rv.mp4	0.0	277.0364422798157	
59	261.2139883041382	fix_post	2		12	57.0	2.5	/experiments/knapen_AOT/AOT_stimuli/rescaled_final/1359_rv.mp4	0.0	278.3546838760376	0.1000361442565918
60	261.3140244483948	fix_pre	0		120	58.0	2.5	/experiments/knapen_AOT/AOT_stimuli/rescaled_final/0299_fw.mp4	0.0	278.4547200202942	1.0085015296936035
60	261.49763321876526	pulse	0	t		58.0	2.5	/experiments/knapen_AOT/AOT_stimuli/rescaled_final/0299_fw.mp4	0.0	278.6383287906647	
60	262.3225259780884	movie	1		286	58.0	2.5	/experiments/knapen_AOT/AOT_stimuli/rescaled_final/0299_fw.mp4	0.0	279.4632215499878	2.4920036792755127
60	263.0959806442261	pulse	1	t		58.0	2.5	/experiments/knapen_AOT/AOT_stimuli/rescaled_final/0299_fw.mp4	0.0	280.2366762161255	
60	264.6959512233734	pulse	1	t		58.0	2.5	/experiments/knapen_AOT/AOT_stimuli/rescaled_final/0299_fw.mp4	0.0	281.8366467952728	
60	264.8145296573639	fix_post	2		12	58.0	2.5	/experiments/knapen_AOT/AOT_stimuli/rescaled_final/0299_fw.mp4	0.0	281.9552252292633	0.10002017021179199
61	264.9145498275757	fix_pre	0		120	59.0	2.5	/experiments/knapen_AOT/AOT_stimuli/rescaled_final/0620_rv.mp4	0.0	282.0552453994751	1.0085322856903076
61	265.923082113266	movie	1		288	59.0	2.5	/experiments/knapen_AOT/AOT_stimuli/rescaled_final/0620_rv.mp4	0.0	283.0637776851654	2.4921655654907227
61	266.29724740982056	pulse	1	t		59.0	2.5	/experiments/knapen_AOT/AOT_stimuli/rescaled_final/0620_rv.mp4	0.0	283.43794298171997	
61	267.8966386318207	pulse	1	t		59.0	2.5	/experiments/knapen_AOT/AOT_stimuli/rescaled_final/0620_rv.mp4	0.0	285.0373342037201	
61	268.4152476787567	fix_post	2		12	59.0	2.5	/experiments/knapen_AOT/AOT_stimuli/rescaled_final/0620_rv.mp4	0.0	285.5559432506561	0.0998392105102539
62	268.51508688926697	fix_pre	0		119	60.0	2.5	/experiments/knapen_AOT/AOT_stimuli/rescaled_final/0007_fw.mp4	0.0	285.6557824611664	1.0002045631408691
62	269.49877309799194	pulse	0	t		60.0	2.5	/experiments/knapen_AOT/AOT_stimuli/rescaled_final/0007_fw.mp4	0.0	286.63946866989136	
62	269.51529145240784	movie	1		285	60.0	2.5	/experiments/knapen_AOT/AOT_stimuli/rescaled_final/0007_fw.mp4	0.0	286.65598702430725	2.5003256797790527
62	271.0990355014801	pulse	1	t		60.0	2.5	/experiments/knapen_AOT/AOT_stimuli/rescaled_final/0007_fw.mp4	0.0	288.2397310733795	
62	272.0156171321869	fix_post	2		12	60.0	2.5	/experiments/knapen_AOT/AOT_stimuli/rescaled_final/0007_fw.mp4	0.0	289.1563127040863	0.10002303123474121
63	272.11564016342163	fix_pre	0		120	61.0	2.5	/experiments/knapen_AOT/AOT_stimuli/rescaled_final/0361_rv.mp4	0.0	289.25633573532104	1.0084843635559082
63	272.69926261901855	pulse	0	t		61.0	2.5	/experiments/knapen_AOT/AOT_stimuli/rescaled_final/0361_rv.mp4	0.0	289.83995819091797	
63	273.12412452697754	movie	1		288	61.0	2.5	/experiments/knapen_AOT/AOT_stimuli/rescaled_final/0361_rv.mp4	0.0	290.26482009887695	2.4920365810394287
63	274.2977418899536	pulse	1	t		61.0	2.5	/experiments/knapen_AOT/AOT_stimuli/rescaled_final/0361_rv.mp4	0.0	291.438437461853	
63	275.61616110801697	fix_post	2		12	61.0	2.5	/experiments/knapen_AOT/AOT_stimuli/rescaled_final/0361_rv.mp4	0.0	292.7568566799164	0.1000211238861084
64	275.7161822319031	fix_pre	0		120	62.0	2.5	blank	1.0	292.8568778038025	1.0001354217529297
64	275.89975905418396	pulse	0	t		62.0	2.5	blank	1.0	293.0404546260834	
64	276.716317653656	movie	1		300	62.0	2.5	blank	1.0	293.8570132255554	2.500375270843506
64	277.49993085861206	pulse	1	t		62.0	2.5	blank	1.0	294.6406264305115	
64	279.10021781921387	pulse	1	t		62.0	2.5	blank	1.0	296.2409133911133	
64	279.2166929244995	fix_post	2		12	62.0	2.5	blank	1.0	296.3573884963989	0.10007452964782715
65	279.31676745414734	fix_pre	0		120	63.0	2.5	/experiments/knapen_AOT/AOT_stimuli/rescaled_final/2027_fw.mp4	0.0	296.45746302604675	1.0084669589996338
65	280.325234413147	movie	1		286	63.0	2.5	/experiments/knapen_AOT/AOT_stimuli/rescaled_final/2027_fw.mp4	0.0	297.4659299850464	2.492014169692993
65	280.6985170841217	pulse	1	t		63.0	2.5	/experiments/knapen_AOT/AOT_stimuli/rescaled_final/2027_fw.mp4	0.0	297.8392126560211	
65	282.29843854904175	pulse	1	t		63.0	2.5	/experiments/knapen_AOT/AOT_stimuli/rescaled_final/2027_fw.mp4	0.0	299.43913412094116	
65	282.81724858283997	fix_post	2		12	63.0	2.5	/experiments/knapen_AOT/AOT_stimuli/rescaled_final/2027_fw.mp4	0.0	299.9579441547394	0.10007739067077637
66	282.91732597351074	fix_pre	0		119	64.0	2.5	/experiments/knapen_AOT/AOT_stimuli/rescaled_final/0429_fw.mp4	0.0	300.05802154541016	1.0000920295715332
66	283.9009358882904	pulse	0	t		64.0	2.5	/experiments/knapen_AOT/AOT_stimuli/rescaled_final/0429_fw.mp4	0.0	301.0416314601898	
66	283.9174180030823	movie	1		291	64.0	2.5	/experiments/knapen_AOT/AOT_stimuli/rescaled_final/0429_fw.mp4	0.0	301.0581135749817	2.500354051589966
66	285.49978709220886	pulse	1	t		64.0	2.5	/experiments/knapen_AOT/AOT_stimuli/rescaled_final/0429_fw.mp4	0.0	302.6404826641083	
66	286.41777205467224	fix_post	2		12	64.0	2.5	/experiments/knapen_AOT/AOT_stimuli/rescaled_final/0429_fw.mp4	0.0	303.55846762657166	0.10002589225769043
67	286.51779794692993	fix_pre	0		120	65.0	2.5	/experiments/knapen_AOT/AOT_stimuli/rescaled_final/1290_fw.mp4	0.0	303.65849351882935	1.0085179805755615
67	287.1015396118164	pulse	0	t		65.0	2.5	/experiments/knapen_AOT/AOT_stimuli/rescaled_final/1290_fw.mp4	0.0	304.2422351837158	
67	287.5263159275055	movie	1		282	65.0	2.5	/experiments/knapen_AOT/AOT_stimuli/rescaled_final/1290_fw.mp4	0.0	304.6670114994049	2.4919934272766113
67	288.69990634918213	pulse	1	t		65.0	2.5	/experiments/knapen_AOT/AOT_stimuli/rescaled_final/1290_fw.mp4	0.0	305.84060192108154	
67	290.0183093547821	fix_post	2		12	65.0	2.5	/experiments/knapen_AOT/AOT_stimuli/rescaled_final/1290_fw.mp4	0.0	307.1590049266815	0.10012269020080566
68	290.1184320449829	fix_pre	0		120	66.0	2.5	/experiments/knapen_AOT/AOT_stimuli/rescaled_final/0462_fw.mp4	0.0	307.2591276168823	1.008409023284912
68	290.30207562446594	pulse	0	t		66.0	2.5	/experiments/knapen_AOT/AOT_stimuli/rescaled_final/0462_fw.mp4	0.0	307.44277119636536	
68	291.1268410682678	movie	1		293	66.0	2.5	/experiments/knapen_AOT/AOT_stimuli/rescaled_final/0462_fw.mp4	0.0	308.26753664016724	2.492042303085327
68	291.900288105011	pulse	1	t		66.0	2.5	/experiments/knapen_AOT/AOT_stimuli/rescaled_final/0462_fw.mp4	0.0	309.0409836769104	
68	293.5004632472992	pulse	1	t		66.0	2.5	/experiments/knapen_AOT/AOT_stimuli/rescaled_final/0462_fw.mp4	0.0	310.6411588191986	
68	293.61888337135315	fix_post	2		12	66.0	2.5	/experiments/knapen_AOT/AOT_stimuli/rescaled_final/0462_fw.mp4	0.0	310.75957894325256	0.10000395774841309
69	293.71888732910156	fix_pre	0		120	67.0	2.5	/experiments/knapen_AOT/AOT_stimuli/rescaled_final/0249_fw.mp4	0.0	310.859582901001	1.0085058212280273
69	294.7273931503296	movie	1		285	67.0	2.5	/experiments/knapen_AOT/AOT_stimuli/rescaled_final/0249_fw.mp4	0.0	311.868088722229	2.4920315742492676
69	295.1014220714569	pulse	1	t		67.0	2.5	/experiments/knapen_AOT/AOT_stimuli/rescaled_final/0249_fw.mp4	0.0	312.2421176433563	
69	296.7012405395508	pulse	1	t		67.0	2.5	/experiments/knapen_AOT/AOT_stimuli/rescaled_final/0249_fw.mp4	0.0	313.8419361114502	
69	297.21942472457886	fix_post	2		12	67.0	2.5	/experiments/knapen_AOT/AOT_stimuli/rescaled_final/0249_fw.mp4	0.0	314.36012029647827	0.09999251365661621
70	297.3194172382355	fix_pre	0		119	68.0	2.5	/experiments/knapen_AOT/AOT_stimuli/rescaled_final/0514_rv.mp4	0.0	314.4601128101349	1.0001552104949951
70	298.29600167274475	pulse	0	t		68.0	2.5	/experiments/knapen_AOT/AOT_stimuli/rescaled_final/0514_rv.mp4	0.0	315.43669724464417	
70	298.31957244873047	movie	1		283	68.0	2.5	/experiments/knapen_AOT/AOT_stimuli/rescaled_final/0514_rv.mp4	0.0	315.4602680206299	2.500358819961548
70	299.89552330970764	pulse	1	t		68.0	2.5	/experiments/knapen_AOT/AOT_stimuli/rescaled_final/0514_rv.mp4	0.0	317.03621888160706	
70	300.819931268692	fix_post	2		12	68.0	2.5	/experiments/knapen_AOT/AOT_stimuli/rescaled_final/0514_rv.mp4	0.0	317.96062684059143	0.10002779960632324
71	300.91995906829834	fix_pre	0		120	69.0	2.5	blank	1.0	318.06065464019775	1.0001189708709717
71	301.49558305740356	pulse	0	t		69.0	2.5	blank	1.0	318.636278629303	
71	301.9200780391693	movie	1		300	69.0	2.5	blank	1.0	319.0607736110687	2.5004501342773438
71	303.09558057785034	pulse	1	t		69.0	2.5	blank	1.0	320.23627614974976	
71	304.42052817344666	fix_post	2		12	69.0	2.5	blank	1.0	321.56122374534607	0.10002851486206055
72	304.5205566883087	fix_pre	0		120	70.0	2.5	/experiments/knapen_AOT/AOT_stimuli/rescaled_final/0571_fw.mp4	0.0	321.66125226020813	1.0085618495941162
72	304.69587206840515	pulse	0	t		70.0	2.5	/experiments/knapen_AOT/AOT_stimuli/rescaled_final/0571_fw.mp4	0.0	321.83656764030457	
72	305.52911853790283	movie	1		280	70.0	2.5	/experiments/knapen_AOT/AOT_stimuli/rescaled_final/0571_fw.mp4	0.0	322.66981410980225	2.4919016361236572
72	306.2959771156311	pulse	1	t		70.0	2.5	/experiments/knapen_AOT/AOT_stimuli/rescaled_final/0571_fw.mp4	0.0	323.4366726875305	
72	307.8962502479553	pulse	1	t		70.0	2.5	/experiments/knapen_AOT/AOT_stimuli/rescaled_final/0571_fw.mp4	0.0	325.03694581985474	
72	308.0210201740265	fix_post	2		12	70.0	2.5	/experiments/knapen_AOT/AOT_stimuli/rescaled_final/0571_fw.mp4	0.0	325.1617157459259	0.1000223159790039
73	308.1210424900055	fix_pre	0		120	71.0	2.5	/experiments/knapen_AOT/AOT_stimuli/rescaled_final/0454_rv.mp4	0.0	325.2617380619049	1.008509635925293
73	309.1295521259308	movie	1		286	71.0	2.5	/experiments/knapen_AOT/AOT_stimuli/rescaled_final/0454_rv.mp4	0.0	326.2702476978302	2.492034673690796
73	309.49697732925415	pulse	1	t		71.0	2.5	/experiments/knapen_AOT/AOT_stimuli/rescaled_final/0454_rv.mp4	0.0	326.63767290115356	
73	311.0966942310333	pulse	1	t		71.0	2.5	/experiments/knapen_AOT/AOT_stimuli/rescaled_final/0454_rv.mp4	0.0	328.23738980293274	
73	311.6215867996216	fix_post	2		12	71.0	2.5	/experiments/knapen_AOT/AOT_stimuli/rescaled_final/0454_rv.mp4	0.0	328.762282371521	0.10003423690795898
74	311.72162103652954	fix_pre	0		118	72.0	2.5	/experiments/knapen_AOT/AOT_stimuli/rescaled_final/0742_fw.mp4	0.0	328.86231660842896	0.9917831420898438
74	312.6971752643585	pulse	0	t		72.0	2.5	/experiments/knapen_AOT/AOT_stimuli/rescaled_final/0742_fw.mp4	0.0	329.83787083625793	
74	312.7134041786194	movie	1		291	72.0	2.5	/experiments/knapen_AOT/AOT_stimuli/rescaled_final/0742_fw.mp4	0.0	329.8540997505188	2.500371217727661
74	314.2960603237152	pulse	1	t		72.0	2.5	/experiments/knapen_AOT/AOT_stimuli/rescaled_final/0742_fw.mp4	0.0	331.4367558956146	
74	315.21377539634705	fix_post	2		12	72.0	2.5	/experiments/knapen_AOT/AOT_stimuli/rescaled_final/0742_fw.mp4	0.0	332.35447096824646	0.1000204086303711
75	315.3137958049774	fix_pre	0		120	73.0	2.5	/experiments/knapen_AOT/AOT_stimuli/rescaled_final/2149_fw.mp4	0.0	332.45449137687683	1.0085399150848389
75	315.89746737480164	pulse	0	t		73.0	2.5	/experiments/knapen_AOT/AOT_stimuli/rescaled_final/2149_fw.mp4	0.0	333.03816294670105	
75	316.32233572006226	movie	1		279	73.0	2.5	/experiments/knapen_AOT/AOT_stimuli/rescaled_final/2149_fw.mp4	0.0	333.46303129196167	2.49202561378479
75	317.4955744743347	pulse	1	t		73.0	2.5	/experiments/knapen_AOT/AOT_stimuli/rescaled_final/2149_fw.mp4	0.0	334.63627004623413	
75	318.81436133384705	fix_post	2		12	73.0	2.5	/experiments/knapen_AOT/AOT_stimuli/rescaled_final/2149_fw.mp4	0.0	335.95505690574646	0.09997367858886719
76	318.9143350124359	fix_pre	0		120	74.0	2.5	/experiments/knapen_AOT/AOT_stimuli/rescaled_final/0010_fw.mp4	0.0	336.0550305843353	1.008500099182129
76	319.09792304039	pulse	0	t		74.0	2.5	/experiments/knapen_AOT/AOT_stimuli/rescaled_final/0010_fw.mp4	0.0	336.23861861228943	
76	319.92283511161804	movie	1		288	74.0	2.5	/experiments/knapen_AOT/AOT_stimuli/rescaled_final/0010_fw.mp4	0.0	337.06353068351746	2.4920167922973633
76	320.69694089889526	pulse	1	t		74.0	2.5	/experiments/knapen_AOT/AOT_stimuli/rescaled_final/0010_fw.mp4	0.0	337.8376364707947	
76	322.296493768692	pulse	1	t		74.0	2.5	/experiments/knapen_AOT/AOT_stimuli/rescaled_final/0010_fw.mp4	0.0	339.43718934059143	
76	322.4148519039154	fix_post	2		12	74.0	2.5	/experiments/knapen_AOT/AOT_stimuli/rescaled_final/0010_fw.mp4	0.0	339.5555474758148	0.10001111030578613
77	322.5148630142212	fix_pre	0		120	75.0	2.5	blank	1.0	339.6555585861206	1.000154972076416
77	323.5150179862976	movie	1		300	75.0	2.5	blank	1.0	340.655713558197	2.500410318374634
77	323.8986973762512	pulse	1	t		75.0	2.5	blank	1.0	341.03939294815063	
77	325.4988932609558	pulse	1	t		75.0	2.5	blank	1.0	342.6395888328552	
77	326.01542830467224	fix_post	2		12	75.0	2.5	blank	1.0	343.15612387657166	0.10001468658447266
78	326.1154429912567	fix_pre	0		119	76.0	2.5	/experiments/knapen_AOT/AOT_stimuli/rescaled_final/0994_rv.mp4	0.0	343.2561385631561	1.0001583099365234
78	327.09914684295654	pulse	0	t		76.0	2.5	/experiments/knapen_AOT/AOT_stimuli/rescaled_final/0994_rv.mp4	0.0	344.23984241485596	
78	327.11560130119324	movie	1		282	76.0	2.5	/experiments/knapen_AOT/AOT_stimuli/rescaled_final/0994_rv.mp4	0.0	344.25629687309265	2.5003435611724854
78	328.6976330280304	pulse	1	t		76.0	2.5	/experiments/knapen_AOT/AOT_stimuli/rescaled_final/0994_rv.mp4	0.0	345.8383285999298	
78	329.6159448623657	fix_post	2		12	76.0	2.5	/experiments/knapen_AOT/AOT_stimuli/rescaled_final/0994_rv.mp4	0.0	346.75664043426514	0.10001730918884277
79	329.71596217155457	fix_pre	0		120	77.0	2.5	/experiments/knapen_AOT/AOT_stimuli/rescaled_final/1919_fw.mp4	0.0	346.856657743454	1.0085248947143555
79	330.29957342147827	pulse	0	t		77.0	2.5	/experiments/knapen_AOT/AOT_stimuli/rescaled_final/1919_fw.mp4	0.0	347.4402689933777	
79	330.7244870662689	movie	1		275	77.0	2.5	/experiments/knapen_AOT/AOT_stimuli/rescaled_final/1919_fw.mp4	0.0	347.86518263816833	2.491994619369507
79	331.89788246154785	pulse	1	t		77.0	2.5	/experiments/knapen_AOT/AOT_stimuli/rescaled_final/1919_fw.mp4	0.0	349.03857803344727	
79	333.2164816856384	fix_post	2		12	77.0	2.5	/experiments/knapen_AOT/AOT_stimuli/rescaled_final/1919_fw.mp4	0.0	350.35717725753784	0.10000038146972656
80	333.31648206710815	fix_pre	0		120	78.0	2.5	/experiments/knapen_AOT/AOT_stimuli/rescaled_final/0130_fw.mp4	0.0	350.45717763900757	1.0085043907165527
80	333.50007486343384	pulse	0	t		78.0	2.5	/experiments/knapen_AOT/AOT_stimuli/rescaled_final/0130_fw.mp4	0.0	350.64077043533325	
80	334.3249864578247	movie	1		280	78.0	2.5	/experiments/knapen_AOT/AOT_stimuli/rescaled_final/0130_fw.mp4	0.0	351.4656820297241	2.492062568664551
80	335.0982298851013	pulse	1	t		78.0	2.5	/experiments/knapen_AOT/AOT_stimuli/rescaled_final/0130_fw.mp4	0.0	352.23892545700073	
80	336.701030254364	pulse	1	t		78.0	2.5	/experiments/knapen_AOT/AOT_stimuli/rescaled_final/0130_fw.mp4	0.0	353.8417258262634	
80	336.81704902648926	fix_post	2		12	78.0	2.5	/experiments/knapen_AOT/AOT_stimuli/rescaled_final/0130_fw.mp4	0.0	353.9577445983887	0.10002756118774414
81	336.917076587677	fix_pre	0		120	79.0	2.5	/experiments/knapen_AOT/AOT_stimuli/rescaled_final/0604_rv.mp4	0.0	354.0577721595764	1.008500337600708
81	337.9255769252777	movie	1		281	79.0	2.5	/experiments/knapen_AOT/AOT_stimuli/rescaled_final/0604_rv.mp4	0.0	355.0662724971771	2.491997003555298
81	338.2995390892029	pulse	1	t		79.0	2.5	/experiments/knapen_AOT/AOT_stimuli/rescaled_final/0604_rv.mp4	0.0	355.4402346611023	
81	339.89970207214355	pulse	1	t		79.0	2.5	/experiments/knapen_AOT/AOT_stimuli/rescaled_final/0604_rv.mp4	0.0	357.04039764404297	
81	340.417573928833	fix_post	2		12	79.0	2.5	/experiments/knapen_AOT/AOT_stimuli/rescaled_final/0604_rv.mp4	0.0	357.5582695007324	0.10003137588500977
82	340.517605304718	fix_pre	0		119	80.0	2.5	/experiments/knapen_AOT/AOT_stimuli/rescaled_final/1652_rv.mp4	0.0	357.65830087661743	1.0001604557037354
82	341.5014138221741	pulse	0	t		80.0	2.5	/experiments/knapen_AOT/AOT_stimuli/rescaled_final/1652_rv.mp4	0.0	358.6421093940735	
82	341.51776576042175	movie	1		283	80.0	2.5	/experiments/knapen_AOT/AOT_stimuli/rescaled_final/1652_rv.mp4	0.0	358.65846133232117	2.5003457069396973
82	343.1006603240967	pulse	1	t		80.0	2.5	/experiments/knapen_AOT/AOT_stimuli/rescaled_final/1652_rv.mp4	0.0	360.2413558959961	
82	344.01811146736145	fix_post	2		12	80.0	2.5	/experiments/knapen_AOT/AOT_stimuli/rescaled_final/1652_rv.mp4	0.0	361.15880703926086	0.10014081001281738
83	344.11825227737427	fix_pre	0		120	81.0	2.5	/experiments/knapen_AOT/AOT_stimuli/rescaled_final/0779_fw.mp4	0.0	361.2589478492737	1.0083856582641602
83	344.70175290107727	pulse	0	t		81.0	2.5	/experiments/knapen_AOT/AOT_stimuli/rescaled_final/0779_fw.mp4	0.0	361.8424484729767	
83	345.1266379356384	movie	1		286	81.0	2.5	/experiments/knapen_AOT/AOT_stimuli/rescaled_final/0779_fw.mp4	0.0	362.26733350753784	2.4920568466186523
83	346.30001163482666	pulse	1	t		81.0	2.5	/experiments/knapen_AOT/AOT_stimuli/rescaled_final/0779_fw.mp4	0.0	363.4407072067261	
83	347.6186947822571	fix_post	2		12	81.0	2.5	/experiments/knapen_AOT/AOT_stimuli/rescaled_final/0779_fw.mp4	0.0	364.7593903541565	0.10002303123474121
84	347.7187178134918	fix_pre	0		120	82.0	2.5	blank	1.0	364.85941338539124	1.0001311302185059
84	347.90223479270935	pulse	0	t		82.0	2.5	blank	1.0	365.04293036460876	
84	348.7188489437103	movie	1		300	82.0	2.5	blank	1.0	365.85954451560974	2.50034236907959
84	349.5025825500488	pulse	1	t		82.0	2.5	blank	1.0	366.64327812194824	
84	351.0948724746704	pulse	1	t		82.0	2.5	blank	1.0	368.2355680465698	
84	351.2191913127899	fix_post	2		12	82.0	2.5	blank	1.0	368.35988688468933	0.10003399848937988
85	351.3192253112793	fix_pre	0		120	83.0	2.5	/experiments/knapen_AOT/AOT_stimuli/rescaled_final/2069_rv.mp4	0.0	368.4599208831787	1.0084853172302246
85	352.3277106285095	movie	1		287	83.0	2.5	/experiments/knapen_AOT/AOT_stimuli/rescaled_final/2069_rv.mp4	0.0	369.46840620040894	2.4920473098754883
85	352.69490122795105	pulse	1	t		83.0	2.5	/experiments/knapen_AOT/AOT_stimuli/rescaled_final/2069_rv.mp4	0.0	369.83559679985046	
85	354.30240869522095	pulse	1	t		83.0	2.5	/experiments/knapen_AOT/AOT_stimuli/rescaled_final/2069_rv.mp4	0.0	371.44310426712036	
85	354.819757938385	fix_post	2		12	83.0	2.5	/experiments/knapen_AOT/AOT_stimuli/rescaled_final/2069_rv.mp4	0.0	371.9604535102844	0.12509655952453613
87	354.94485449790955	stim	0		1712					372.08555006980896	14.268697023391724
87	355.89518308639526	pulse	0	t						373.0358786582947	
87	357.4953489303589	pulse	0	t						374.6360445022583	
87	359.095547914505	pulse	0	t						376.2362434864044	
87	360.69580340385437	pulse	0	t						377.8364989757538	
87	362.2960729598999	pulse	0	t						379.4367685317993	
87	363.89628744125366	pulse	0	t						381.0369830131531	
87	365.4965121746063	pulse	0	t						382.63720774650574	
87	367.0970392227173	pulse	0	t						384.2377347946167	
87	368.6972997188568	pulse	0	t						385.8379952907562	
