trial_nr	onset	event_type	phase	response	nr_frames	movie_index	movie_duration	movie_file	blank	onset_abs	duration
0	0.16633844375610352	stim	0		3					15.336845874786377	0.024921655654907227
0	0.17651867866516113	response	0	space						15.347026109695435	
1	0.19126009941101074	stim	0		5596					15.361767530441284	46.65303444862366
1	46.82963514328003	pulse	0	t						62.0001425743103	
1	46.84429454803467	stim	1		1714					62.01480197906494	14.297853231430054
1	48.423818826675415	pulse	1	t						63.59432625770569	
1	50.024007081985474	pulse	1	t						65.19451451301575	
1	51.624229431152344	pulse	1	t						66.79473686218262	
1	53.22449016571045	pulse	1	t						68.39499759674072	
1	54.82475757598877	pulse	1	t						69.99526500701904	
1	56.42493724822998	pulse	1	t						71.59544467926025	
1	58.02515006065369	pulse	1	t						73.19565749168396	
1	59.62542104721069	pulse	1	t						74.79592847824097	
2	61.14214777946472	fix_pre	0		11	0.0	2.5	/experiments/Knapen_AOT/AOT_stimuli/rescaled_final/1804_fw.mp4	0.0	76.312655210495	0.12508511543273926
2	61.225711822509766	pulse	0	t		0.0	2.5	/experiments/Knapen_AOT/AOT_stimuli/rescaled_final/1804_fw.mp4	0.0	76.39621925354004	
2	61.26723289489746	movie	1		283	0.0	2.5	/experiments/Knapen_AOT/AOT_stimuli/rescaled_final/1804_fw.mp4	0.0	76.43774032592773	2.475337028503418
2	62.824899435043335	pulse	1	t		0.0	2.5	/experiments/Knapen_AOT/AOT_stimuli/rescaled_final/1804_fw.mp4	0.0	77.99540686607361	
2	63.74256992340088	fix_post	2		12	0.0	2.5	/experiments/Knapen_AOT/AOT_stimuli/rescaled_final/1804_fw.mp4	0.0	78.91307735443115	0.09996294975280762
3	63.84253287315369	fix_pre	0		120	1.0	2.5	/experiments/Knapen_AOT/AOT_stimuli/rescaled_final/0922_rv.mp4	0.0	79.01304030418396	1.0085489749908447
3	64.42623090744019	pulse	0	t		1.0	2.5	/experiments/Knapen_AOT/AOT_stimuli/rescaled_final/0922_rv.mp4	0.0	79.59673833847046	
3	64.85108184814453	movie	1		287	1.0	2.5	/experiments/Knapen_AOT/AOT_stimuli/rescaled_final/0922_rv.mp4	0.0	80.0215892791748	2.49196195602417
3	66.02479290962219	pulse	1	t		1.0	2.5	/experiments/Knapen_AOT/AOT_stimuli/rescaled_final/0922_rv.mp4	0.0	81.19530034065247	
3	67.3430438041687	fix_post	2		12	1.0	2.5	/experiments/Knapen_AOT/AOT_stimuli/rescaled_final/0922_rv.mp4	0.0	82.51355123519897	0.10004496574401855
4	67.44308876991272	fix_pre	0		120	2.0	2.5	/experiments/Knapen_AOT/AOT_stimuli/rescaled_final/0593_rv.mp4	0.0	82.613596200943	1.00848388671875
4	67.61927700042725	pulse	0	t		2.0	2.5	/experiments/Knapen_AOT/AOT_stimuli/rescaled_final/0593_rv.mp4	0.0	82.78978443145752	
4	68.45157265663147	movie	1		282	2.0	2.5	/experiments/Knapen_AOT/AOT_stimuli/rescaled_final/0593_rv.mp4	0.0	83.62208008766174	2.4920225143432617
4	69.21888089179993	pulse	1	t		2.0	2.5	/experiments/Knapen_AOT/AOT_stimuli/rescaled_final/0593_rv.mp4	0.0	84.3893883228302	
4	70.81885814666748	pulse	1	t		2.0	2.5	/experiments/Knapen_AOT/AOT_stimuli/rescaled_final/0593_rv.mp4	0.0	85.98936557769775	
4	70.94359517097473	fix_post	2		12	2.0	2.5	/experiments/Knapen_AOT/AOT_stimuli/rescaled_final/0593_rv.mp4	0.0	86.114102602005	0.10006284713745117
5	71.04365801811218	fix_pre	0		120	3.0	2.5	/experiments/Knapen_AOT/AOT_stimuli/rescaled_final/1714_fw.mp4	0.0	86.21416544914246	1.0084583759307861
5	72.05211639404297	movie	1		277	3.0	2.5	/experiments/Knapen_AOT/AOT_stimuli/rescaled_final/1714_fw.mp4	0.0	87.22262382507324	2.4920549392700195
5	72.41912841796875	pulse	1	t		3.0	2.5	/experiments/Knapen_AOT/AOT_stimuli/rescaled_final/1714_fw.mp4	0.0	87.58963584899902	
5	74.0192699432373	pulse	1	t		3.0	2.5	/experiments/Knapen_AOT/AOT_stimuli/rescaled_final/1714_fw.mp4	0.0	89.18977737426758	
5	74.54417133331299	fix_post	2		12	3.0	2.5	/experiments/Knapen_AOT/AOT_stimuli/rescaled_final/1714_fw.mp4	0.0	89.71467876434326	0.09998226165771484
6	74.6441535949707	fix_pre	0		118	4.0	2.5	/experiments/Knapen_AOT/AOT_stimuli/rescaled_final/0665_rv.mp4	0.0	89.81466102600098	0.9918060302734375
6	75.61947703361511	pulse	0	t		4.0	2.5	/experiments/Knapen_AOT/AOT_stimuli/rescaled_final/0665_rv.mp4	0.0	90.78998446464539	
6	75.63595962524414	movie	1		295	4.0	2.5	/experiments/Knapen_AOT/AOT_stimuli/rescaled_final/0665_rv.mp4	0.0	90.80646705627441	2.5003371238708496
6	77.21976113319397	pulse	1	t		4.0	2.5	/experiments/Knapen_AOT/AOT_stimuli/rescaled_final/0665_rv.mp4	0.0	92.39026856422424	
6	78.13629674911499	fix_post	2		12	4.0	2.5	/experiments/Knapen_AOT/AOT_stimuli/rescaled_final/0665_rv.mp4	0.0	93.30680418014526	0.10004258155822754
7	78.23633933067322	fix_pre	0		120	5.0	2.5	blank	1.0	93.40684676170349	1.0001914501190186
7	78.82005071640015	pulse	0	t		5.0	2.5	blank	1.0	93.99055814743042	
7	79.23653078079224	movie	1		300	5.0	2.5	blank	1.0	94.40703821182251	2.500349760055542
7	80.4202048778534	pulse	1	t		5.0	2.5	blank	1.0	95.59071230888367	
7	81.73688054084778	fix_post	2		12	5.0	2.5	blank	1.0	96.90738797187805	0.10005497932434082
8	81.83693552017212	fix_pre	0		120	6.0	2.5	/experiments/Knapen_AOT/AOT_stimuli/rescaled_final/1014_rv.mp4	0.0	97.00744295120239	1.008436918258667
8	82.02042317390442	pulse	0	t		6.0	2.5	/experiments/Knapen_AOT/AOT_stimuli/rescaled_final/1014_rv.mp4	0.0	97.19093060493469	
8	82.84537243843079	movie	1		294	6.0	2.5	/experiments/Knapen_AOT/AOT_stimuli/rescaled_final/1014_rv.mp4	0.0	98.01587986946106	2.4920220375061035
8	83.62061905860901	pulse	1	t		6.0	2.5	/experiments/Knapen_AOT/AOT_stimuli/rescaled_final/1014_rv.mp4	0.0	98.79112648963928	
8	85.2209222316742	pulse	1	t		6.0	2.5	/experiments/Knapen_AOT/AOT_stimuli/rescaled_final/1014_rv.mp4	0.0	100.39142966270447	
8	85.33739447593689	fix_post	2		12	6.0	2.5	/experiments/Knapen_AOT/AOT_stimuli/rescaled_final/1014_rv.mp4	0.0	100.50790190696716	0.10001826286315918
9	85.43741273880005	fix_pre	0		120	7.0	2.5	/experiments/Knapen_AOT/AOT_stimuli/rescaled_final/0884_fw.mp4	0.0	100.60792016983032	1.0085299015045166
9	86.44594264030457	movie	1		296	7.0	2.5	/experiments/Knapen_AOT/AOT_stimuli/rescaled_final/0884_fw.mp4	0.0	101.61645007133484	2.4919939041137695
9	86.82115459442139	pulse	1	t		7.0	2.5	/experiments/Knapen_AOT/AOT_stimuli/rescaled_final/0884_fw.mp4	0.0	101.99166202545166	
9	88.42131686210632	pulse	1	t		7.0	2.5	/experiments/Knapen_AOT/AOT_stimuli/rescaled_final/0884_fw.mp4	0.0	103.5918242931366	
9	88.93793654441833	fix_post	2		12	7.0	2.5	/experiments/Knapen_AOT/AOT_stimuli/rescaled_final/0884_fw.mp4	0.0	104.10844397544861	0.10001015663146973
10	89.0379467010498	fix_pre	0		119	8.0	2.5	/experiments/Knapen_AOT/AOT_stimuli/rescaled_final/1862_fw.mp4	0.0	104.20845413208008	1.0002410411834717
10	90.02158451080322	pulse	0	t		8.0	2.5	/experiments/Knapen_AOT/AOT_stimuli/rescaled_final/1862_fw.mp4	0.0	105.1920919418335	
10	90.03818774223328	movie	1		295	8.0	2.5	/experiments/Knapen_AOT/AOT_stimuli/rescaled_final/1862_fw.mp4	0.0	105.20869517326355	2.500293731689453
10	91.61970567703247	pulse	1	t		8.0	2.5	/experiments/Knapen_AOT/AOT_stimuli/rescaled_final/1862_fw.mp4	0.0	106.79021310806274	
10	92.53848147392273	fix_post	2		12	8.0	2.5	/experiments/Knapen_AOT/AOT_stimuli/rescaled_final/1862_fw.mp4	0.0	107.708988904953	0.10002422332763672
11	92.63850569725037	fix_pre	0		120	9.0	2.5	/experiments/Knapen_AOT/AOT_stimuli/rescaled_final/1933_fw.mp4	0.0	107.80901312828064	1.0084936618804932
11	93.22208619117737	pulse	0	t		9.0	2.5	/experiments/Knapen_AOT/AOT_stimuli/rescaled_final/1933_fw.mp4	0.0	108.39259362220764	
11	93.64699935913086	movie	1		293	9.0	2.5	/experiments/Knapen_AOT/AOT_stimuli/rescaled_final/1933_fw.mp4	0.0	108.81750679016113	2.4920217990875244
11	94.82226634025574	pulse	1	t		9.0	2.5	/experiments/Knapen_AOT/AOT_stimuli/rescaled_final/1933_fw.mp4	0.0	109.99277377128601	
11	96.13902115821838	fix_post	2		12	9.0	2.5	/experiments/Knapen_AOT/AOT_stimuli/rescaled_final/1933_fw.mp4	0.0	111.30952858924866	0.1000831127166748
12	96.23910427093506	fix_pre	0		120	10.0	2.5	/experiments/Knapen_AOT/AOT_stimuli/rescaled_final/1252_fw.mp4	0.0	111.40961170196533	1.0084490776062012
12	96.42269659042358	pulse	0	t		10.0	2.5	/experiments/Knapen_AOT/AOT_stimuli/rescaled_final/1252_fw.mp4	0.0	111.59320402145386	
12	97.24755334854126	movie	1		293	10.0	2.5	/experiments/Knapen_AOT/AOT_stimuli/rescaled_final/1252_fw.mp4	0.0	112.41806077957153	2.4921820163726807
12	98.02190279960632	pulse	1	t		10.0	2.5	/experiments/Knapen_AOT/AOT_stimuli/rescaled_final/1252_fw.mp4	0.0	113.1924102306366	
12	99.6205952167511	pulse	1	t		10.0	2.5	/experiments/Knapen_AOT/AOT_stimuli/rescaled_final/1252_fw.mp4	0.0	114.79110264778137	
12	99.73973536491394	fix_post	2		12	10.0	2.5	/experiments/Knapen_AOT/AOT_stimuli/rescaled_final/1252_fw.mp4	0.0	114.91024279594421	0.09987235069274902
13	99.83960771560669	fix_pre	0		120	11.0	2.5	/experiments/Knapen_AOT/AOT_stimuli/rescaled_final/1813_rv.mp4	0.0	115.01011514663696	1.0001490116119385
13	100.83975672721863	movie	1		291	11.0	2.5	/experiments/Knapen_AOT/AOT_stimuli/rescaled_final/1813_rv.mp4	0.0	116.0102641582489	2.500338315963745
13	101.22114753723145	pulse	1	t		11.0	2.5	/experiments/Knapen_AOT/AOT_stimuli/rescaled_final/1813_rv.mp4	0.0	116.39165496826172	
13	102.82091522216797	pulse	1	t		11.0	2.5	/experiments/Knapen_AOT/AOT_stimuli/rescaled_final/1813_rv.mp4	0.0	117.99142265319824	
13	103.34009504318237	fix_post	2		12	11.0	2.5	/experiments/Knapen_AOT/AOT_stimuli/rescaled_final/1813_rv.mp4	0.0	118.51060247421265	0.10004949569702148
14	103.4401445388794	fix_pre	0		119	12.0	2.5	/experiments/Knapen_AOT/AOT_stimuli/rescaled_final/2106_fw.mp4	0.0	118.61065196990967	1.0001840591430664
14	104.42396664619446	pulse	0	t		12.0	2.5	/experiments/Knapen_AOT/AOT_stimuli/rescaled_final/2106_fw.mp4	0.0	119.59447407722473	
14	104.44032859802246	movie	1		287	12.0	2.5	/experiments/Knapen_AOT/AOT_stimuli/rescaled_final/2106_fw.mp4	0.0	119.61083602905273	2.500471830368042
14	106.02418112754822	pulse	1	t		12.0	2.5	/experiments/Knapen_AOT/AOT_stimuli/rescaled_final/2106_fw.mp4	0.0	121.19468855857849	
14	106.9408004283905	fix_post	2		12	12.0	2.5	/experiments/Knapen_AOT/AOT_stimuli/rescaled_final/2106_fw.mp4	0.0	122.11130785942078	0.09990262985229492
15	107.0407030582428	fix_pre	0		120	13.0	2.5	/experiments/Knapen_AOT/AOT_stimuli/rescaled_final/1670_rv.mp4	0.0	122.21121048927307	1.0084948539733887
15	107.62432932853699	pulse	0	t		13.0	2.5	/experiments/Knapen_AOT/AOT_stimuli/rescaled_final/1670_rv.mp4	0.0	122.79483675956726	
15	108.04919791221619	movie	1		276	13.0	2.5	/experiments/Knapen_AOT/AOT_stimuli/rescaled_final/1670_rv.mp4	0.0	123.21970534324646	2.492168664932251
15	109.22461795806885	pulse	1	t		13.0	2.5	/experiments/Knapen_AOT/AOT_stimuli/rescaled_final/1670_rv.mp4	0.0	124.39512538909912	
15	110.54136657714844	fix_post	2		12	13.0	2.5	/experiments/Knapen_AOT/AOT_stimuli/rescaled_final/1670_rv.mp4	0.0	125.71187400817871	0.09986138343811035
16	110.64122796058655	fix_pre	0		120	14.0	2.5	blank	1.0	125.81173539161682	1.0001673698425293
16	110.82480764389038	pulse	0	t		14.0	2.5	blank	1.0	125.99531507492065	
16	111.64139533042908	movie	1		300	14.0	2.5	blank	1.0	126.81190276145935	2.500361442565918
16	112.4251708984375	pulse	1	t		14.0	2.5	blank	1.0	127.59567832946777	
16	114.02532076835632	pulse	1	t		14.0	2.5	blank	1.0	129.1958281993866	
16	114.141756772995	fix_post	2		12	14.0	2.5	blank	1.0	129.31226420402527	0.10003423690795898
17	114.24179100990295	fix_pre	0		120	15.0	2.5	/experiments/Knapen_AOT/AOT_stimuli/rescaled_final/0983_fw.mp4	0.0	129.41229844093323	1.0085046291351318
17	115.25029563903809	movie	1		279	15.0	2.5	/experiments/Knapen_AOT/AOT_stimuli/rescaled_final/0983_fw.mp4	0.0	130.42080307006836	2.4920098781585693
17	115.62526369094849	pulse	1	t		15.0	2.5	/experiments/Knapen_AOT/AOT_stimuli/rescaled_final/0983_fw.mp4	0.0	130.79577112197876	
17	117.22386455535889	pulse	1	t		15.0	2.5	/experiments/Knapen_AOT/AOT_stimuli/rescaled_final/0983_fw.mp4	0.0	132.39437198638916	
17	117.74230551719666	fix_post	2		12	15.0	2.5	/experiments/Knapen_AOT/AOT_stimuli/rescaled_final/0983_fw.mp4	0.0	132.91281294822693	0.10005664825439453
18	117.84236216545105	fix_pre	0		119	16.0	2.5	/experiments/Knapen_AOT/AOT_stimuli/rescaled_final/1428_fw.mp4	0.0	133.01286959648132	1.0001368522644043
18	118.82659459114075	pulse	0	t		16.0	2.5	/experiments/Knapen_AOT/AOT_stimuli/rescaled_final/1428_fw.mp4	0.0	133.99710202217102	
18	118.84249901771545	movie	1		286	16.0	2.5	/experiments/Knapen_AOT/AOT_stimuli/rescaled_final/1428_fw.mp4	0.0	134.01300644874573	2.500363826751709
18	120.42446637153625	pulse	1	t		16.0	2.5	/experiments/Knapen_AOT/AOT_stimuli/rescaled_final/1428_fw.mp4	0.0	135.59497380256653	
18	121.34286284446716	fix_post	2		12	16.0	2.5	/experiments/Knapen_AOT/AOT_stimuli/rescaled_final/1428_fw.mp4	0.0	136.51337027549744	0.09999847412109375
19	121.44286131858826	fix_pre	0		120	17.0	2.5	/experiments/Knapen_AOT/AOT_stimuli/rescaled_final/1259_rv.mp4	0.0	136.61336874961853	1.0085089206695557
19	122.02662467956543	pulse	0	t		17.0	2.5	/experiments/Knapen_AOT/AOT_stimuli/rescaled_final/1259_rv.mp4	0.0	137.1971321105957	
19	122.45137023925781	movie	1		290	17.0	2.5	/experiments/Knapen_AOT/AOT_stimuli/rescaled_final/1259_rv.mp4	0.0	137.6218776702881	2.4920084476470947
19	123.62492895126343	pulse	1	t		17.0	2.5	/experiments/Knapen_AOT/AOT_stimuli/rescaled_final/1259_rv.mp4	0.0	138.7954363822937	
19	124.94337868690491	fix_post	2		12	17.0	2.5	/experiments/Knapen_AOT/AOT_stimuli/rescaled_final/1259_rv.mp4	0.0	140.11388611793518	0.10009121894836426
20	125.04346990585327	fix_pre	0		120	18.0	2.5	/experiments/Knapen_AOT/AOT_stimuli/rescaled_final/1030_rv.mp4	0.0	140.21397733688354	1.0084362030029297
20	125.21958303451538	pulse	0	t		18.0	2.5	/experiments/Knapen_AOT/AOT_stimuli/rescaled_final/1030_rv.mp4	0.0	140.39009046554565	
20	126.0519061088562	movie	1		277	18.0	2.5	/experiments/Knapen_AOT/AOT_stimuli/rescaled_final/1030_rv.mp4	0.0	141.22241353988647	2.492049217224121
20	126.82494902610779	pulse	1	t		18.0	2.5	/experiments/Knapen_AOT/AOT_stimuli/rescaled_final/1030_rv.mp4	0.0	141.99545645713806	
20	128.4195580482483	pulse	1	t		18.0	2.5	/experiments/Knapen_AOT/AOT_stimuli/rescaled_final/1030_rv.mp4	0.0	143.59006547927856	
20	128.54395532608032	fix_post	2		12	18.0	2.5	/experiments/Knapen_AOT/AOT_stimuli/rescaled_final/1030_rv.mp4	0.0	143.7144627571106	0.0999910831451416
21	128.64394640922546	fix_pre	0		120	19.0	2.5	/experiments/Knapen_AOT/AOT_stimuli/rescaled_final/1464_rv.mp4	0.0	143.81445384025574	1.0085315704345703
21	129.65247797966003	movie	1		274	19.0	2.5	/experiments/Knapen_AOT/AOT_stimuli/rescaled_final/1464_rv.mp4	0.0	144.8229854106903	2.492027997970581
21	130.01945161819458	pulse	1	t		19.0	2.5	/experiments/Knapen_AOT/AOT_stimuli/rescaled_final/1464_rv.mp4	0.0	145.18995904922485	
21	131.61976766586304	pulse	1	t		19.0	2.5	/experiments/Knapen_AOT/AOT_stimuli/rescaled_final/1464_rv.mp4	0.0	146.7902750968933	
21	132.14450597763062	fix_post	2		12	19.0	2.5	/experiments/Knapen_AOT/AOT_stimuli/rescaled_final/1464_rv.mp4	0.0	147.3150134086609	0.10004019737243652
22	132.24454617500305	fix_pre	0		118	20.0	2.5	/experiments/Knapen_AOT/AOT_stimuli/rescaled_final/1973_fw.mp4	0.0	147.41505360603333	0.9917869567871094
22	133.21984720230103	pulse	0	t		20.0	2.5	/experiments/Knapen_AOT/AOT_stimuli/rescaled_final/1973_fw.mp4	0.0	148.3903546333313	
22	133.23633313179016	movie	1		291	20.0	2.5	/experiments/Knapen_AOT/AOT_stimuli/rescaled_final/1973_fw.mp4	0.0	148.40684056282043	2.5003600120544434
22	134.81866145133972	pulse	1	t		20.0	2.5	/experiments/Knapen_AOT/AOT_stimuli/rescaled_final/1973_fw.mp4	0.0	149.98916888237	
22	135.7366931438446	fix_post	2		12	20.0	2.5	/experiments/Knapen_AOT/AOT_stimuli/rescaled_final/1973_fw.mp4	0.0	150.90720057487488	0.10004353523254395
23	135.83673667907715	fix_pre	0		120	21.0	2.5	blank	1.0	151.00724411010742	1.0001378059387207
23	136.42039561271667	pulse	0	t		21.0	2.5	blank	1.0	151.59090304374695	
23	136.83687448501587	movie	1		300	21.0	2.5	blank	1.0	152.00738191604614	2.5003435611724854
23	138.02059054374695	pulse	1	t		21.0	2.5	blank	1.0	153.19109797477722	
23	139.33721804618835	fix_post	2		12	21.0	2.5	blank	1.0	154.50772547721863	0.1000361442565918
24	139.43725419044495	fix_pre	0		120	22.0	2.5	/experiments/Knapen_AOT/AOT_stimuli/rescaled_final/0963_fw.mp4	0.0	154.60776162147522	1.0085766315460205
24	139.62089586257935	pulse	0	t		22.0	2.5	/experiments/Knapen_AOT/AOT_stimuli/rescaled_final/0963_fw.mp4	0.0	154.79140329360962	
24	140.44583082199097	movie	1		284	22.0	2.5	/experiments/Knapen_AOT/AOT_stimuli/rescaled_final/0963_fw.mp4	0.0	155.61633825302124	2.492131471633911
24	141.22014260292053	pulse	1	t		22.0	2.5	/experiments/Knapen_AOT/AOT_stimuli/rescaled_final/0963_fw.mp4	0.0	156.3906500339508	
24	142.81951069831848	pulse	1	t		22.0	2.5	/experiments/Knapen_AOT/AOT_stimuli/rescaled_final/0963_fw.mp4	0.0	157.99001812934875	
24	142.93796229362488	fix_post	2		12	22.0	2.5	/experiments/Knapen_AOT/AOT_stimuli/rescaled_final/0963_fw.mp4	0.0	158.10846972465515	0.09983515739440918
25	143.0377974510193	fix_pre	0		120	23.0	2.5	/experiments/Knapen_AOT/AOT_stimuli/rescaled_final/1033_fw.mp4	0.0	158.20830488204956	1.0084621906280518
25	144.04625964164734	movie	1		282	23.0	2.5	/experiments/Knapen_AOT/AOT_stimuli/rescaled_final/1033_fw.mp4	0.0	159.2167670726776	2.492111921310425
25	144.42033410072327	pulse	1	t		23.0	2.5	/experiments/Knapen_AOT/AOT_stimuli/rescaled_final/1033_fw.mp4	0.0	159.59084153175354	
25	146.02011442184448	pulse	1	t		23.0	2.5	/experiments/Knapen_AOT/AOT_stimuli/rescaled_final/1033_fw.mp4	0.0	161.19062185287476	
25	146.53837156295776	fix_post	2		12	23.0	2.5	/experiments/Knapen_AOT/AOT_stimuli/rescaled_final/1033_fw.mp4	0.0	161.70887899398804	0.09998869895935059
26	146.63836026191711	fix_pre	0		119	24.0	2.5	/experiments/Knapen_AOT/AOT_stimuli/rescaled_final/0775_fw.mp4	0.0	161.8088676929474	1.0001640319824219
26	147.6222324371338	pulse	0	t		24.0	2.5	/experiments/Knapen_AOT/AOT_stimuli/rescaled_final/0775_fw.mp4	0.0	162.79273986816406	
26	147.63852429389954	movie	1		274	24.0	2.5	/experiments/Knapen_AOT/AOT_stimuli/rescaled_final/0775_fw.mp4	0.0	162.8090317249298	2.5004079341888428
26	149.2223174571991	pulse	1	t		24.0	2.5	/experiments/Knapen_AOT/AOT_stimuli/rescaled_final/0775_fw.mp4	0.0	164.39282488822937	
26	150.13893222808838	fix_post	2		12	24.0	2.5	/experiments/Knapen_AOT/AOT_stimuli/rescaled_final/0775_fw.mp4	0.0	165.30943965911865	0.09993958473205566
27	150.23887181282043	fix_pre	0		120	25.0	2.5	/experiments/Knapen_AOT/AOT_stimuli/rescaled_final/1702_rv.mp4	0.0	165.4093792438507	1.008486270904541
27	150.8224914073944	pulse	0	t		25.0	2.5	/experiments/Knapen_AOT/AOT_stimuli/rescaled_final/1702_rv.mp4	0.0	165.99299883842468	
27	151.24735808372498	movie	1		275	25.0	2.5	/experiments/Knapen_AOT/AOT_stimuli/rescaled_final/1702_rv.mp4	0.0	166.41786551475525	2.4920616149902344
27	152.42290043830872	pulse	1	t		25.0	2.5	/experiments/Knapen_AOT/AOT_stimuli/rescaled_final/1702_rv.mp4	0.0	167.593407869339	
27	153.7394196987152	fix_post	2		12	25.0	2.5	/experiments/Knapen_AOT/AOT_stimuli/rescaled_final/1702_rv.mp4	0.0	168.90992712974548	0.09998798370361328
28	153.83940768241882	fix_pre	0		120	26.0	2.5	/experiments/Knapen_AOT/AOT_stimuli/rescaled_final/0967_fw.mp4	0.0	169.0099151134491	1.0085351467132568
28	154.0230164527893	pulse	0	t		26.0	2.5	/experiments/Knapen_AOT/AOT_stimuli/rescaled_final/0967_fw.mp4	0.0	169.19352388381958	
28	154.84794282913208	movie	1		276	26.0	2.5	/experiments/Knapen_AOT/AOT_stimuli/rescaled_final/0967_fw.mp4	0.0	170.01845026016235	2.492037773132324
28	155.62162590026855	pulse	1	t		26.0	2.5	/experiments/Knapen_AOT/AOT_stimuli/rescaled_final/0967_fw.mp4	0.0	170.79213333129883	
28	157.22130227088928	pulse	1	t		26.0	2.5	/experiments/Knapen_AOT/AOT_stimuli/rescaled_final/0967_fw.mp4	0.0	172.39180970191956	
28	157.3399806022644	fix_post	2		12	26.0	2.5	/experiments/Knapen_AOT/AOT_stimuli/rescaled_final/0967_fw.mp4	0.0	172.51048803329468	0.09998941421508789
29	157.4399700164795	fix_pre	0		120	27.0	2.5	blank	1.0	172.61047744750977	1.0001554489135742
29	158.44012546539307	movie	1		300	27.0	2.5	blank	1.0	173.61063289642334	2.5003743171691895
29	158.82370710372925	pulse	1	t		27.0	2.5	blank	1.0	173.99421453475952	
29	160.4240837097168	pulse	1	t		27.0	2.5	blank	1.0	175.59459114074707	
29	160.94049978256226	fix_post	2		12	27.0	2.5	blank	1.0	176.11100721359253	0.10003399848937988
30	161.04053378105164	fix_pre	0		119	28.0	2.5	/experiments/Knapen_AOT/AOT_stimuli/rescaled_final/1291_rv.mp4	0.0	176.2110412120819	1.0001258850097656
30	162.02421355247498	pulse	0	t		28.0	2.5	/experiments/Knapen_AOT/AOT_stimuli/rescaled_final/1291_rv.mp4	0.0	177.19472098350525	
30	162.0406596660614	movie	1		280	28.0	2.5	/experiments/Knapen_AOT/AOT_stimuli/rescaled_final/1291_rv.mp4	0.0	177.21116709709167	2.5003552436828613
30	163.62274360656738	pulse	1	t		28.0	2.5	/experiments/Knapen_AOT/AOT_stimuli/rescaled_final/1291_rv.mp4	0.0	178.79325103759766	
30	164.54101490974426	fix_post	2		12	28.0	2.5	/experiments/Knapen_AOT/AOT_stimuli/rescaled_final/1291_rv.mp4	0.0	179.71152234077454	0.10001325607299805
31	164.64102816581726	fix_pre	0		120	29.0	2.5	/experiments/Knapen_AOT/AOT_stimuli/rescaled_final/1555_rv.mp4	0.0	179.81153559684753	1.0084857940673828
31	165.224684715271	pulse	0	t		29.0	2.5	/experiments/Knapen_AOT/AOT_stimuli/rescaled_final/1555_rv.mp4	0.0	180.39519214630127	
31	165.64951395988464	movie	1		281	29.0	2.5	/experiments/Knapen_AOT/AOT_stimuli/rescaled_final/1555_rv.mp4	0.0	180.82002139091492	2.4920501708984375
31	166.8243715763092	pulse	1	t		29.0	2.5	/experiments/Knapen_AOT/AOT_stimuli/rescaled_final/1555_rv.mp4	0.0	181.99487900733948	
31	168.14156413078308	fix_post	2		12	29.0	2.5	/experiments/Knapen_AOT/AOT_stimuli/rescaled_final/1555_rv.mp4	0.0	183.31207156181335	0.10001444816589355
32	168.24157857894897	fix_pre	0		120	30.0	2.5	/experiments/Knapen_AOT/AOT_stimuli/rescaled_final/1504_fw.mp4	0.0	183.41208600997925	1.0084662437438965
32	168.4254970550537	pulse	0	t		30.0	2.5	/experiments/Knapen_AOT/AOT_stimuli/rescaled_final/1504_fw.mp4	0.0	183.59600448608398	
32	169.25004482269287	movie	1		275	30.0	2.5	/experiments/Knapen_AOT/AOT_stimuli/rescaled_final/1504_fw.mp4	0.0	184.42055225372314	2.4920992851257324
32	170.02351546287537	pulse	1	t		30.0	2.5	/experiments/Knapen_AOT/AOT_stimuli/rescaled_final/1504_fw.mp4	0.0	185.19402289390564	
32	171.62363028526306	pulse	1	t		30.0	2.5	/experiments/Knapen_AOT/AOT_stimuli/rescaled_final/1504_fw.mp4	0.0	186.79413771629333	
32	171.7421441078186	fix_post	2		12	30.0	2.5	/experiments/Knapen_AOT/AOT_stimuli/rescaled_final/1504_fw.mp4	0.0	186.91265153884888	0.09999299049377441
33	171.84213709831238	fix_pre	0		120	31.0	2.5	/experiments/Knapen_AOT/AOT_stimuli/rescaled_final/1609_fw.mp4	0.0	187.01264452934265	1.0084788799285889
33	172.85061597824097	movie	1		279	31.0	2.5	/experiments/Knapen_AOT/AOT_stimuli/rescaled_final/1609_fw.mp4	0.0	188.02112340927124	2.4920167922973633
33	173.22641968727112	pulse	1	t		31.0	2.5	/experiments/Knapen_AOT/AOT_stimuli/rescaled_final/1609_fw.mp4	0.0	188.3969271183014	
33	174.82385063171387	pulse	1	t		31.0	2.5	/experiments/Knapen_AOT/AOT_stimuli/rescaled_final/1609_fw.mp4	0.0	189.99435806274414	
33	175.34263277053833	fix_post	2		12	31.0	2.5	/experiments/Knapen_AOT/AOT_stimuli/rescaled_final/1609_fw.mp4	0.0	190.5131402015686	0.1000223159790039
34	175.44265508651733	fix_pre	0		119	32.0	2.5	/experiments/Knapen_AOT/AOT_stimuli/rescaled_final/1236_fw.mp4	0.0	190.6131625175476	1.0086472034454346
34	176.41903233528137	pulse	0	t		32.0	2.5	/experiments/Knapen_AOT/AOT_stimuli/rescaled_final/1236_fw.mp4	0.0	191.58953976631165	
34	176.45130228996277	movie	1		282	32.0	2.5	/experiments/Knapen_AOT/AOT_stimuli/rescaled_final/1236_fw.mp4	0.0	191.62180972099304	2.491899013519287
34	178.0254943370819	pulse	1	t		32.0	2.5	/experiments/Knapen_AOT/AOT_stimuli/rescaled_final/1236_fw.mp4	0.0	193.19600176811218	
34	178.94320130348206	fix_post	2		12	32.0	2.5	/experiments/Knapen_AOT/AOT_stimuli/rescaled_final/1236_fw.mp4	0.0	194.11370873451233	0.10001754760742188
35	179.04321885108948	fix_pre	0		120	33.0	2.5	blank	1.0	194.21372628211975	1.0002272129058838
35	179.61886501312256	pulse	0	t		33.0	2.5	blank	1.0	194.78937244415283	
35	180.04344606399536	movie	1		300	33.0	2.5	blank	1.0	195.21395349502563	2.500392436981201
35	181.21876549720764	pulse	1	t		33.0	2.5	blank	1.0	196.38927292823792	
35	182.54383850097656	fix_post	2		12	33.0	2.5	blank	1.0	197.71434593200684	0.09998822212219238
36	182.64382672309875	fix_pre	0		120	34.0	2.5	/experiments/Knapen_AOT/AOT_stimuli/rescaled_final/0211_fw.mp4	0.0	197.81433415412903	1.0085296630859375
36	182.81907677650452	pulse	0	t		34.0	2.5	/experiments/Knapen_AOT/AOT_stimuli/rescaled_final/0211_fw.mp4	0.0	197.9895842075348	
36	183.6523563861847	movie	1		282	34.0	2.5	/experiments/Knapen_AOT/AOT_stimuli/rescaled_final/0211_fw.mp4	0.0	198.82286381721497	2.4920408725738525
36	184.4192349910736	pulse	1	t		34.0	2.5	/experiments/Knapen_AOT/AOT_stimuli/rescaled_final/0211_fw.mp4	0.0	199.58974242210388	
36	186.01945114135742	pulse	1	t		34.0	2.5	/experiments/Knapen_AOT/AOT_stimuli/rescaled_final/0211_fw.mp4	0.0	201.1899585723877	
36	186.14439725875854	fix_post	2		12	34.0	2.5	/experiments/Knapen_AOT/AOT_stimuli/rescaled_final/0211_fw.mp4	0.0	201.31490468978882	0.0998835563659668
37	186.2442808151245	fix_pre	0		120	35.0	2.5	/experiments/Knapen_AOT/AOT_stimuli/rescaled_final/1024_rv.mp4	0.0	201.41478824615479	1.008512258529663
37	187.25279307365417	movie	1		284	35.0	2.5	/experiments/Knapen_AOT/AOT_stimuli/rescaled_final/1024_rv.mp4	0.0	202.42330050468445	2.4920129776000977
37	187.62012219429016	pulse	1	t		35.0	2.5	/experiments/Knapen_AOT/AOT_stimuli/rescaled_final/1024_rv.mp4	0.0	202.79062962532043	
37	189.21995282173157	pulse	1	t		35.0	2.5	/experiments/Knapen_AOT/AOT_stimuli/rescaled_final/1024_rv.mp4	0.0	204.39046025276184	
37	189.74480605125427	fix_post	2		12	35.0	2.5	/experiments/Knapen_AOT/AOT_stimuli/rescaled_final/1024_rv.mp4	0.0	204.91531348228455	0.10006499290466309
38	189.84487104415894	fix_pre	0		118	36.0	2.5	/experiments/Knapen_AOT/AOT_stimuli/rescaled_final/0947_fw.mp4	0.0	205.0153784751892	0.9917776584625244
38	190.82017397880554	pulse	0	t		36.0	2.5	/experiments/Knapen_AOT/AOT_stimuli/rescaled_final/0947_fw.mp4	0.0	205.99068140983582	
38	190.83664870262146	movie	1		275	36.0	2.5	/experiments/Knapen_AOT/AOT_stimuli/rescaled_final/0947_fw.mp4	0.0	206.00715613365173	2.500370502471924
38	192.4196174144745	pulse	1	t		36.0	2.5	/experiments/Knapen_AOT/AOT_stimuli/rescaled_final/0947_fw.mp4	0.0	207.59012484550476	
38	193.33701920509338	fix_post	2		12	36.0	2.5	/experiments/Knapen_AOT/AOT_stimuli/rescaled_final/0947_fw.mp4	0.0	208.50752663612366	0.10001420974731445
39	193.4370334148407	fix_pre	0		120	37.0	2.5	/experiments/Knapen_AOT/AOT_stimuli/rescaled_final/0858_fw.mp4	0.0	208.60754084587097	1.008491039276123
39	194.02068185806274	pulse	0	t		37.0	2.5	/experiments/Knapen_AOT/AOT_stimuli/rescaled_final/0858_fw.mp4	0.0	209.19118928909302	
39	194.44552445411682	movie	1		282	37.0	2.5	/experiments/Knapen_AOT/AOT_stimuli/rescaled_final/0858_fw.mp4	0.0	209.6160318851471	2.4920969009399414
39	195.61956691741943	pulse	1	t		37.0	2.5	/experiments/Knapen_AOT/AOT_stimuli/rescaled_final/0858_fw.mp4	0.0	210.7900743484497	
39	196.93762135505676	fix_post	2		12	37.0	2.5	/experiments/Knapen_AOT/AOT_stimuli/rescaled_final/0858_fw.mp4	0.0	212.10812878608704	0.10002970695495605
40	197.03765106201172	fix_pre	0		120	38.0	2.5	/experiments/Knapen_AOT/AOT_stimuli/rescaled_final/0916_rv.mp4	0.0	212.208158493042	1.0084757804870605
40	197.2211890220642	pulse	0	t		38.0	2.5	/experiments/Knapen_AOT/AOT_stimuli/rescaled_final/0916_rv.mp4	0.0	212.39169645309448	
40	198.04612684249878	movie	1		273	38.0	2.5	/experiments/Knapen_AOT/AOT_stimuli/rescaled_final/0916_rv.mp4	0.0	213.21663427352905	2.491999626159668
40	198.82142996788025	pulse	1	t		38.0	2.5	/experiments/Knapen_AOT/AOT_stimuli/rescaled_final/0916_rv.mp4	0.0	213.99193739891052	
40	200.42002844810486	pulse	1	t		38.0	2.5	/experiments/Knapen_AOT/AOT_stimuli/rescaled_final/0916_rv.mp4	0.0	215.59053587913513	
40	200.53812646865845	fix_post	2		12	38.0	2.5	/experiments/Knapen_AOT/AOT_stimuli/rescaled_final/0916_rv.mp4	0.0	215.70863389968872	0.0999917984008789
41	200.63811826705933	fix_pre	0		120	39.0	2.5	/experiments/Knapen_AOT/AOT_stimuli/rescaled_final/1990_rv.mp4	0.0	215.8086256980896	1.0085086822509766
41	201.6466269493103	movie	1		274	39.0	2.5	/experiments/Knapen_AOT/AOT_stimuli/rescaled_final/1990_rv.mp4	0.0	216.81713438034058	2.4920358657836914
41	202.02227520942688	pulse	1	t		39.0	2.5	/experiments/Knapen_AOT/AOT_stimuli/rescaled_final/1990_rv.mp4	0.0	217.19278264045715	
41	203.62265872955322	pulse	1	t		39.0	2.5	/experiments/Knapen_AOT/AOT_stimuli/rescaled_final/1990_rv.mp4	0.0	218.7931661605835	
41	204.138662815094	fix_post	2		12	39.0	2.5	/experiments/Knapen_AOT/AOT_stimuli/rescaled_final/1990_rv.mp4	0.0	219.30917024612427	0.10005736351013184
42	204.23872017860413	fix_pre	0		119	40.0	2.5	/experiments/Knapen_AOT/AOT_stimuli/rescaled_final/1667_rv.mp4	0.0	219.4092276096344	1.0001051425933838
42	205.2223436832428	pulse	0	t		40.0	2.5	/experiments/Knapen_AOT/AOT_stimuli/rescaled_final/1667_rv.mp4	0.0	220.39285111427307	
42	205.2388253211975	movie	1		264	40.0	2.5	/experiments/Knapen_AOT/AOT_stimuli/rescaled_final/1667_rv.mp4	0.0	220.40933275222778	2.500358819961548
42	206.82208585739136	pulse	1	t		40.0	2.5	/experiments/Knapen_AOT/AOT_stimuli/rescaled_final/1667_rv.mp4	0.0	221.99259328842163	
42	207.73918414115906	fix_post	2		12	40.0	2.5	/experiments/Knapen_AOT/AOT_stimuli/rescaled_final/1667_rv.mp4	0.0	222.90969157218933	0.10005903244018555
43	207.83924317359924	fix_pre	0		120	41.0	2.5	blank	1.0	223.00975060462952	1.0000932216644287
43	208.42288327217102	pulse	0	t		41.0	2.5	blank	1.0	223.5933907032013	
43	208.83933639526367	movie	1		300	41.0	2.5	blank	1.0	224.00984382629395	2.500485420227051
43	210.02349090576172	pulse	1	t		41.0	2.5	blank	1.0	225.193998336792	
43	211.33982181549072	fix_post	2		12	41.0	2.5	blank	1.0	226.510329246521	0.09996533393859863
44	211.43978714942932	fix_pre	0		119	42.0	2.5	/experiments/Knapen_AOT/AOT_stimuli/rescaled_final/2106_fw.mp4	0.0	226.6102945804596	1.008481740951538
44	211.62332606315613	pulse	0	t		42.0	2.5	/experiments/Knapen_AOT/AOT_stimuli/rescaled_final/2106_fw.mp4	0.0	226.7938334941864	
44	212.44826889038086	movie	1		276	42.0	2.5	/experiments/Knapen_AOT/AOT_stimuli/rescaled_final/2106_fw.mp4	0.0	227.61877632141113	2.492011070251465
44	213.22208333015442	pulse	1	t		42.0	2.5	/experiments/Knapen_AOT/AOT_stimuli/rescaled_final/2106_fw.mp4	0.0	228.3925907611847	
44	214.821932554245	pulse	1	t		42.0	2.5	/experiments/Knapen_AOT/AOT_stimuli/rescaled_final/2106_fw.mp4	0.0	229.99243998527527	
44	214.94027996063232	fix_post	2		12	42.0	2.5	/experiments/Knapen_AOT/AOT_stimuli/rescaled_final/2106_fw.mp4	0.0	230.1107873916626	0.10000205039978027
45	215.0402820110321	fix_pre	0		120	43.0	2.5	/experiments/Knapen_AOT/AOT_stimuli/rescaled_final/0291_rv.mp4	0.0	230.21078944206238	1.0085070133209229
45	216.04878902435303	movie	1		260	43.0	2.5	/experiments/Knapen_AOT/AOT_stimuli/rescaled_final/0291_rv.mp4	0.0	231.2192964553833	2.4920809268951416
45	216.4223484992981	pulse	1	t		43.0	2.5	/experiments/Knapen_AOT/AOT_stimuli/rescaled_final/0291_rv.mp4	0.0	231.59285593032837	
45	218.0220673084259	pulse	1	t		43.0	2.5	/experiments/Knapen_AOT/AOT_stimuli/rescaled_final/0291_rv.mp4	0.0	233.19257473945618	
45	218.54086995124817	fix_post	2		11	43.0	2.5	/experiments/Knapen_AOT/AOT_stimuli/rescaled_final/0291_rv.mp4	0.0	233.71137738227844	0.09999394416809082
46	218.64086389541626	fix_pre	0		119	44.0	2.5	/experiments/Knapen_AOT/AOT_stimuli/rescaled_final/1667_fw.mp4	0.0	233.81137132644653	1.000152587890625
46	219.62453055381775	pulse	0	t		44.0	2.5	/experiments/Knapen_AOT/AOT_stimuli/rescaled_final/1667_fw.mp4	0.0	234.79503798484802	
46	219.64101648330688	movie	1		272	44.0	2.5	/experiments/Knapen_AOT/AOT_stimuli/rescaled_final/1667_fw.mp4	0.0	234.81152391433716	2.5087761878967285
46	221.2245967388153	pulse	1	t		44.0	2.5	/experiments/Knapen_AOT/AOT_stimuli/rescaled_final/1667_fw.mp4	0.0	236.39510416984558	
46	222.1497926712036	fix_post	2		11	44.0	2.5	/experiments/Knapen_AOT/AOT_stimuli/rescaled_final/1667_fw.mp4	0.0	237.3203001022339	0.0915529727935791
47	222.2413456439972	fix_pre	0		120	45.0	2.5	/experiments/Knapen_AOT/AOT_stimuli/rescaled_final/1923_rv.mp4	0.0	237.41185307502747	1.0086462497711182
47	222.82511019706726	pulse	0	t		45.0	2.5	/experiments/Knapen_AOT/AOT_stimuli/rescaled_final/1923_rv.mp4	0.0	237.99561762809753	
47	223.2499918937683	movie	1		278	45.0	2.5	/experiments/Knapen_AOT/AOT_stimuli/rescaled_final/1923_rv.mp4	0.0	238.42049932479858	2.491995334625244
47	224.42414617538452	pulse	1	t		45.0	2.5	/experiments/Knapen_AOT/AOT_stimuli/rescaled_final/1923_rv.mp4	0.0	239.5946536064148	
47	225.74198722839355	fix_post	2		12	45.0	2.5	/experiments/Knapen_AOT/AOT_stimuli/rescaled_final/1923_rv.mp4	0.0	240.91249465942383	0.09996604919433594
48	225.8419532775879	fix_pre	0		120	46.0	2.5	/experiments/Knapen_AOT/AOT_stimuli/rescaled_final/1595_fw.mp4	0.0	241.01246070861816	1.0084776878356934
48	226.02568101882935	pulse	0	t		46.0	2.5	/experiments/Knapen_AOT/AOT_stimuli/rescaled_final/1595_fw.mp4	0.0	241.19618844985962	
48	226.85043096542358	movie	1		260	46.0	2.5	/experiments/Knapen_AOT/AOT_stimuli/rescaled_final/1595_fw.mp4	0.0	242.02093839645386	2.4920058250427246
48	227.62423062324524	pulse	1	t		46.0	2.5	/experiments/Knapen_AOT/AOT_stimuli/rescaled_final/1595_fw.mp4	0.0	242.7947380542755	
48	229.2243058681488	pulse	1	t		46.0	2.5	/experiments/Knapen_AOT/AOT_stimuli/rescaled_final/1595_fw.mp4	0.0	244.39481329917908	
48	229.3424367904663	fix_post	2		12	46.0	2.5	/experiments/Knapen_AOT/AOT_stimuli/rescaled_final/1595_fw.mp4	0.0	244.51294422149658	0.10010766983032227
49	229.44254446029663	fix_pre	0		120	47.0	2.5	blank	1.0	244.6130518913269	1.000044345855713
49	230.44258880615234	movie	1		300	47.0	2.5	blank	1.0	245.61309623718262	2.5004255771636963
49	230.82654762268066	pulse	1	t		47.0	2.5	blank	1.0	245.99705505371094	
49	232.42652082443237	pulse	1	t		47.0	2.5	blank	1.0	247.59702825546265	
49	232.94301438331604	fix_post	2		12	47.0	2.5	blank	1.0	248.1135218143463	0.10000300407409668
50	233.04301738739014	fix_pre	0		119	48.0	2.5	/experiments/Knapen_AOT/AOT_stimuli/rescaled_final/0199_rv.mp4	0.0	248.2135248184204	1.0085139274597168
50	234.02702641487122	pulse	0	t		48.0	2.5	/experiments/Knapen_AOT/AOT_stimuli/rescaled_final/0199_rv.mp4	0.0	249.1975338459015	
50	234.05153131484985	movie	1		288	48.0	2.5	/experiments/Knapen_AOT/AOT_stimuli/rescaled_final/0199_rv.mp4	0.0	249.22203874588013	2.4919803142547607
50	235.62581944465637	pulse	1	t		48.0	2.5	/experiments/Knapen_AOT/AOT_stimuli/rescaled_final/0199_rv.mp4	0.0	250.79632687568665	
50	236.54351162910461	fix_post	2		12	48.0	2.5	/experiments/Knapen_AOT/AOT_stimuli/rescaled_final/0199_rv.mp4	0.0	251.7140190601349	0.10002541542053223
51	236.64353704452515	fix_pre	0		120	49.0	2.5	/experiments/Knapen_AOT/AOT_stimuli/rescaled_final/1702_fw.mp4	0.0	251.81404447555542	1.0084939002990723
51	237.21925473213196	pulse	0	t		49.0	2.5	/experiments/Knapen_AOT/AOT_stimuli/rescaled_final/1702_fw.mp4	0.0	252.38976216316223	
51	237.65203094482422	movie	1		284	49.0	2.5	/experiments/Knapen_AOT/AOT_stimuli/rescaled_final/1702_fw.mp4	0.0	252.8225383758545	2.492074489593506
51	238.81951189041138	pulse	1	t		49.0	2.5	/experiments/Knapen_AOT/AOT_stimuli/rescaled_final/1702_fw.mp4	0.0	253.99001932144165	
51	240.14410543441772	fix_post	2		12	49.0	2.5	/experiments/Knapen_AOT/AOT_stimuli/rescaled_final/1702_fw.mp4	0.0	255.314612865448	0.1000204086303711
52	240.2441258430481	fix_pre	0		120	50.0	2.5	/experiments/Knapen_AOT/AOT_stimuli/rescaled_final/0970_fw.mp4	0.0	255.41463327407837	1.0084609985351562
52	240.41942262649536	pulse	0	t		50.0	2.5	/experiments/Knapen_AOT/AOT_stimuli/rescaled_final/0970_fw.mp4	0.0	255.58993005752563	
52	241.25258684158325	movie	1		282	50.0	2.5	/experiments/Knapen_AOT/AOT_stimuli/rescaled_final/0970_fw.mp4	0.0	256.4230942726135	2.492004156112671
52	242.0196397304535	pulse	1	t		50.0	2.5	/experiments/Knapen_AOT/AOT_stimuli/rescaled_final/0970_fw.mp4	0.0	257.19014716148376	
52	243.61983561515808	pulse	1	t		50.0	2.5	/experiments/Knapen_AOT/AOT_stimuli/rescaled_final/0970_fw.mp4	0.0	258.79034304618835	
52	243.74459099769592	fix_post	2		12	50.0	2.5	/experiments/Knapen_AOT/AOT_stimuli/rescaled_final/0970_fw.mp4	0.0	258.9150984287262	0.10001039505004883
53	243.84460139274597	fix_pre	0		120	51.0	2.5	/experiments/Knapen_AOT/AOT_stimuli/rescaled_final/0386_fw.mp4	0.0	259.01510882377625	1.0086121559143066
53	244.85321354866028	movie	1		277	51.0	2.5	/experiments/Knapen_AOT/AOT_stimuli/rescaled_final/0386_fw.mp4	0.0	260.02372097969055	2.492006301879883
53	245.22018480300903	pulse	1	t		51.0	2.5	/experiments/Knapen_AOT/AOT_stimuli/rescaled_final/0386_fw.mp4	0.0	260.3906922340393	
53	246.821213722229	pulse	1	t		51.0	2.5	/experiments/Knapen_AOT/AOT_stimuli/rescaled_final/0386_fw.mp4	0.0	261.9917211532593	
53	247.34521985054016	fix_post	2		12	51.0	2.5	/experiments/Knapen_AOT/AOT_stimuli/rescaled_final/0386_fw.mp4	0.0	262.51572728157043	0.10001087188720703
54	247.44523072242737	fix_pre	0		118	52.0	2.5	/experiments/Knapen_AOT/AOT_stimuli/rescaled_final/1252_rv.mp4	0.0	262.61573815345764	0.9917526245117188
54	248.4205403327942	pulse	0	t		52.0	2.5	/experiments/Knapen_AOT/AOT_stimuli/rescaled_final/1252_rv.mp4	0.0	263.59104776382446	
54	248.4369833469391	movie	1		286	52.0	2.5	/experiments/Knapen_AOT/AOT_stimuli/rescaled_final/1252_rv.mp4	0.0	263.60749077796936	2.5003740787506104
54	250.01972031593323	pulse	1	t		52.0	2.5	/experiments/Knapen_AOT/AOT_stimuli/rescaled_final/1252_rv.mp4	0.0	265.1902277469635	
54	250.9373574256897	fix_post	2		12	52.0	2.5	/experiments/Knapen_AOT/AOT_stimuli/rescaled_final/1252_rv.mp4	0.0	266.10786485671997	0.10001230239868164
55	251.03736972808838	fix_pre	0		120	53.0	2.5	/experiments/Knapen_AOT/AOT_stimuli/rescaled_final/1567_fw.mp4	0.0	266.20787715911865	1.0084946155548096
55	251.62113690376282	pulse	0	t		53.0	2.5	/experiments/Knapen_AOT/AOT_stimuli/rescaled_final/1567_fw.mp4	0.0	266.7916443347931	
55	252.0458643436432	movie	1		290	53.0	2.5	/experiments/Knapen_AOT/AOT_stimuli/rescaled_final/1567_fw.mp4	0.0	267.21637177467346	2.492027997970581
55	253.2193706035614	pulse	1	t		53.0	2.5	/experiments/Knapen_AOT/AOT_stimuli/rescaled_final/1567_fw.mp4	0.0	268.3898780345917	
55	254.53789234161377	fix_post	2		12	53.0	2.5	/experiments/Knapen_AOT/AOT_stimuli/rescaled_final/1567_fw.mp4	0.0	269.70839977264404	0.10000491142272949
56	254.6378972530365	fix_pre	0		120	54.0	2.5	/experiments/Knapen_AOT/AOT_stimuli/rescaled_final/1014_rv.mp4	0.0	269.8084046840668	1.0084962844848633
56	254.82155418395996	pulse	0	t		54.0	2.5	/experiments/Knapen_AOT/AOT_stimuli/rescaled_final/1014_rv.mp4	0.0	269.99206161499023	
56	255.64639353752136	movie	1		266	54.0	2.5	/experiments/Knapen_AOT/AOT_stimuli/rescaled_final/1014_rv.mp4	0.0	270.81690096855164	2.4920692443847656
56	256.421870470047	pulse	1	t		54.0	2.5	/experiments/Knapen_AOT/AOT_stimuli/rescaled_final/1014_rv.mp4	0.0	271.59237790107727	
56	258.0198049545288	pulse	1	t		54.0	2.5	/experiments/Knapen_AOT/AOT_stimuli/rescaled_final/1014_rv.mp4	0.0	273.1903123855591	
56	258.1384627819061	fix_post	2		12	54.0	2.5	/experiments/Knapen_AOT/AOT_stimuli/rescaled_final/1014_rv.mp4	0.0	273.3089702129364	0.09996509552001953
57	258.23842787742615	fix_pre	0		120	55.0	2.5	blank	1.0	273.4089353084564	1.0001578330993652
57	259.2385857105255	movie	1		300	55.0	2.5	blank	1.0	274.4090931415558	2.5003795623779297
57	259.6224048137665	pulse	1	t		55.0	2.5	blank	1.0	274.79291224479675	
57	261.2224590778351	pulse	1	t		55.0	2.5	blank	1.0	276.39296650886536	
57	261.73896527290344	fix_post	2		12	55.0	2.5	blank	1.0	276.9094727039337	0.09999990463256836
58	261.838965177536	fix_pre	0		119	56.0	2.5	/experiments/Knapen_AOT/AOT_stimuli/rescaled_final/1343_rv.mp4	0.0	277.0094726085663	1.0003368854522705
58	262.8227274417877	pulse	0	t		56.0	2.5	/experiments/Knapen_AOT/AOT_stimuli/rescaled_final/1343_rv.mp4	0.0	277.993234872818	
58	262.8393020629883	movie	1		279	56.0	2.5	/experiments/Knapen_AOT/AOT_stimuli/rescaled_final/1343_rv.mp4	0.0	278.00980949401855	2.5002355575561523
58	264.4218282699585	pulse	1	t		56.0	2.5	/experiments/Knapen_AOT/AOT_stimuli/rescaled_final/1343_rv.mp4	0.0	279.59233570098877	
58	265.33953762054443	fix_post	2		12	56.0	2.5	/experiments/Knapen_AOT/AOT_stimuli/rescaled_final/1343_rv.mp4	0.0	280.5100450515747	0.09997153282165527
59	265.4395091533661	fix_pre	0		120	57.0	2.5	/experiments/Knapen_AOT/AOT_stimuli/rescaled_final/0834_rv.mp4	0.0	280.61001658439636	1.0086047649383545
59	266.02342796325684	pulse	0	t		57.0	2.5	/experiments/Knapen_AOT/AOT_stimuli/rescaled_final/0834_rv.mp4	0.0	281.1939353942871	
59	266.44811391830444	movie	1		282	57.0	2.5	/experiments/Knapen_AOT/AOT_stimuli/rescaled_final/0834_rv.mp4	0.0	281.6186213493347	2.491934299468994
59	267.62223982810974	pulse	1	t		57.0	2.5	/experiments/Knapen_AOT/AOT_stimuli/rescaled_final/0834_rv.mp4	0.0	282.79274725914	
59	268.94004821777344	fix_post	2		12	57.0	2.5	/experiments/Knapen_AOT/AOT_stimuli/rescaled_final/0834_rv.mp4	0.0	284.1105556488037	0.10002636909484863
60	269.0400745868683	fix_pre	0		120	58.0	2.5	/experiments/Knapen_AOT/AOT_stimuli/rescaled_final/0567_rv.mp4	0.0	284.21058201789856	1.0085039138793945
60	269.22367215156555	pulse	0	t		58.0	2.5	/experiments/Knapen_AOT/AOT_stimuli/rescaled_final/0567_rv.mp4	0.0	284.3941795825958	
60	270.0485785007477	movie	1		282	58.0	2.5	/experiments/Knapen_AOT/AOT_stimuli/rescaled_final/0567_rv.mp4	0.0	285.21908593177795	2.4920458793640137
60	270.8223466873169	pulse	1	t		58.0	2.5	/experiments/Knapen_AOT/AOT_stimuli/rescaled_final/0567_rv.mp4	0.0	285.99285411834717	
60	272.4228150844574	pulse	1	t		58.0	2.5	/experiments/Knapen_AOT/AOT_stimuli/rescaled_final/0567_rv.mp4	0.0	287.59332251548767	
60	272.5406243801117	fix_post	2		12	58.0	2.5	/experiments/Knapen_AOT/AOT_stimuli/rescaled_final/0567_rv.mp4	0.0	287.71113181114197	0.09998941421508789
61	272.6406137943268	fix_pre	0		119	59.0	2.5	/experiments/Knapen_AOT/AOT_stimuli/rescaled_final/1130_rv.mp4	0.0	287.81112122535706	1.0085067749023438
61	273.6491205692291	movie	1		281	59.0	2.5	/experiments/Knapen_AOT/AOT_stimuli/rescaled_final/1130_rv.mp4	0.0	288.8196280002594	2.4920055866241455
61	274.02307176589966	pulse	1	t		59.0	2.5	/experiments/Knapen_AOT/AOT_stimuli/rescaled_final/1130_rv.mp4	0.0	289.19357919692993	
61	275.62252974510193	pulse	1	t		59.0	2.5	/experiments/Knapen_AOT/AOT_stimuli/rescaled_final/1130_rv.mp4	0.0	290.7930371761322	
61	276.14112615585327	fix_post	2		12	59.0	2.5	/experiments/Knapen_AOT/AOT_stimuli/rescaled_final/1130_rv.mp4	0.0	291.31163358688354	0.10004210472106934
62	276.24116826057434	fix_pre	0		119	60.0	2.5	/experiments/Knapen_AOT/AOT_stimuli/rescaled_final/0726_fw.mp4	0.0	291.4116756916046	1.0002081394195557
62	277.22486996650696	pulse	0	t		60.0	2.5	/experiments/Knapen_AOT/AOT_stimuli/rescaled_final/0726_fw.mp4	0.0	292.39537739753723	
62	277.2413763999939	movie	1		290	60.0	2.5	/experiments/Knapen_AOT/AOT_stimuli/rescaled_final/0726_fw.mp4	0.0	292.41188383102417	2.5003104209899902
62	278.8240644931793	pulse	1	t		60.0	2.5	/experiments/Knapen_AOT/AOT_stimuli/rescaled_final/0726_fw.mp4	0.0	293.9945719242096	
62	279.7416868209839	fix_post	2		12	60.0	2.5	/experiments/Knapen_AOT/AOT_stimuli/rescaled_final/0726_fw.mp4	0.0	294.91219425201416	0.1000056266784668
63	279.84169244766235	fix_pre	0		120	61.0	2.5	/experiments/Knapen_AOT/AOT_stimuli/rescaled_final/0240_rv.mp4	0.0	295.0121998786926	1.0084953308105469
63	280.4253122806549	pulse	0	t		61.0	2.5	/experiments/Knapen_AOT/AOT_stimuli/rescaled_final/0240_rv.mp4	0.0	295.5958197116852	
63	280.8501877784729	movie	1		253	61.0	2.5	/experiments/Knapen_AOT/AOT_stimuli/rescaled_final/0240_rv.mp4	0.0	296.0206952095032	2.49202036857605
63	282.0234558582306	pulse	1	t		61.0	2.5	/experiments/Knapen_AOT/AOT_stimuli/rescaled_final/0240_rv.mp4	0.0	297.19396328926086	
63	283.34220814704895	fix_post	2		12	61.0	2.5	/experiments/Knapen_AOT/AOT_stimuli/rescaled_final/0240_rv.mp4	0.0	298.5127155780792	0.10007524490356445
64	283.4422833919525	fix_pre	0		120	62.0	2.5	blank	1.0	298.6127908229828	1.000115156173706
64	283.6258442401886	pulse	0	t		62.0	2.5	blank	1.0	298.7963516712189	
64	284.4423985481262	movie	1		300	62.0	2.5	blank	1.0	299.6129059791565	2.5003631114959717
64	285.2260272502899	pulse	1	t		62.0	2.5	blank	1.0	300.3965346813202	
64	286.8263347148895	pulse	1	t		62.0	2.5	blank	1.0	301.9968421459198	
64	286.9427616596222	fix_post	2		12	62.0	2.5	blank	1.0	302.11326909065247	0.10005450248718262
65	287.0428161621094	fix_pre	0		120	63.0	2.5	/experiments/Knapen_AOT/AOT_stimuli/rescaled_final/0650_rv.mp4	0.0	302.21332359313965	1.0084495544433594
65	288.05126571655273	movie	1		272	63.0	2.5	/experiments/Knapen_AOT/AOT_stimuli/rescaled_final/0650_rv.mp4	0.0	303.221773147583	2.492025852203369
65	288.4249906539917	pulse	1	t		63.0	2.5	/experiments/Knapen_AOT/AOT_stimuli/rescaled_final/0650_rv.mp4	0.0	303.595498085022	
65	290.0256881713867	pulse	1	t		63.0	2.5	/experiments/Knapen_AOT/AOT_stimuli/rescaled_final/0650_rv.mp4	0.0	305.196195602417	
65	290.5432915687561	fix_post	2		12	63.0	2.5	/experiments/Knapen_AOT/AOT_stimuli/rescaled_final/0650_rv.mp4	0.0	305.7137989997864	0.10004687309265137
66	290.64333844184875	fix_pre	0		119	64.0	2.5	/experiments/Knapen_AOT/AOT_stimuli/rescaled_final/0837_rv.mp4	0.0	305.813845872879	1.0001461505889893
66	291.6194658279419	pulse	0	t		64.0	2.5	/experiments/Knapen_AOT/AOT_stimuli/rescaled_final/0837_rv.mp4	0.0	306.78997325897217	
66	291.64348459243774	movie	1		271	64.0	2.5	/experiments/Knapen_AOT/AOT_stimuli/rescaled_final/0837_rv.mp4	0.0	306.813992023468	2.500366449356079
66	293.2259912490845	pulse	1	t		64.0	2.5	/experiments/Knapen_AOT/AOT_stimuli/rescaled_final/0837_rv.mp4	0.0	308.39649868011475	
66	294.1438510417938	fix_post	2		12	64.0	2.5	/experiments/Knapen_AOT/AOT_stimuli/rescaled_final/0837_rv.mp4	0.0	309.3143584728241	0.10017275810241699
67	294.24402379989624	fix_pre	0		120	65.0	2.5	/experiments/Knapen_AOT/AOT_stimuli/rescaled_final/1454_fw.mp4	0.0	309.4145312309265	1.008357048034668
67	294.81957244873047	pulse	0	t		65.0	2.5	/experiments/Knapen_AOT/AOT_stimuli/rescaled_final/1454_fw.mp4	0.0	309.99007987976074	
67	295.2523808479309	movie	1		286	65.0	2.5	/experiments/Knapen_AOT/AOT_stimuli/rescaled_final/1454_fw.mp4	0.0	310.4228882789612	2.4920263290405273
67	296.41999411582947	pulse	1	t		65.0	2.5	/experiments/Knapen_AOT/AOT_stimuli/rescaled_final/1454_fw.mp4	0.0	311.59050154685974	
67	297.74440717697144	fix_post	2		12	65.0	2.5	/experiments/Knapen_AOT/AOT_stimuli/rescaled_final/1454_fw.mp4	0.0	312.9149146080017	0.1000218391418457
68	297.8444290161133	fix_pre	0		120	66.0	2.5	/experiments/Knapen_AOT/AOT_stimuli/rescaled_final/0199_rv.mp4	0.0	313.01493644714355	1.0085830688476562
68	298.0198087692261	pulse	0	t		66.0	2.5	/experiments/Knapen_AOT/AOT_stimuli/rescaled_final/0199_rv.mp4	0.0	313.19031620025635	
68	298.85301208496094	movie	1		276	66.0	2.5	/experiments/Knapen_AOT/AOT_stimuli/rescaled_final/0199_rv.mp4	0.0	314.0235195159912	2.4918923377990723
68	299.6198945045471	pulse	1	t		66.0	2.5	/experiments/Knapen_AOT/AOT_stimuli/rescaled_final/0199_rv.mp4	0.0	314.7904019355774	
68	301.22022914886475	pulse	1	t		66.0	2.5	/experiments/Knapen_AOT/AOT_stimuli/rescaled_final/0199_rv.mp4	0.0	316.390736579895	
68	301.34490442276	fix_post	2		12	66.0	2.5	/experiments/Knapen_AOT/AOT_stimuli/rescaled_final/0199_rv.mp4	0.0	316.5154118537903	0.10005950927734375
69	301.44496393203735	fix_pre	0		120	67.0	2.5	/experiments/Knapen_AOT/AOT_stimuli/rescaled_final/2103_rv.mp4	0.0	316.6154713630676	1.008472204208374
69	302.4534361362457	movie	1		267	67.0	2.5	/experiments/Knapen_AOT/AOT_stimuli/rescaled_final/2103_rv.mp4	0.0	317.623943567276	2.492067337036133
69	302.82035517692566	pulse	1	t		67.0	2.5	/experiments/Knapen_AOT/AOT_stimuli/rescaled_final/2103_rv.mp4	0.0	317.99086260795593	
69	304.4207842350006	pulse	1	t		67.0	2.5	/experiments/Knapen_AOT/AOT_stimuli/rescaled_final/2103_rv.mp4	0.0	319.5912916660309	
69	304.94550347328186	fix_post	2		12	67.0	2.5	/experiments/Knapen_AOT/AOT_stimuli/rescaled_final/2103_rv.mp4	0.0	320.11601090431213	0.09998750686645508
70	305.0454909801483	fix_pre	0		118	68.0	2.5	/experiments/Knapen_AOT/AOT_stimuli/rescaled_final/1620_fw.mp4	0.0	320.2159984111786	0.9918699264526367
70	306.02084136009216	pulse	0	t		68.0	2.5	/experiments/Knapen_AOT/AOT_stimuli/rescaled_final/1620_fw.mp4	0.0	321.19134879112244	
70	306.03736090660095	movie	1		278	68.0	2.5	/experiments/Knapen_AOT/AOT_stimuli/rescaled_final/1620_fw.mp4	0.0	321.2078683376312	2.5003490447998047
70	307.621276140213	pulse	1	t		68.0	2.5	/experiments/Knapen_AOT/AOT_stimuli/rescaled_final/1620_fw.mp4	0.0	322.7917835712433	
70	308.53770995140076	fix_post	2		12	68.0	2.5	/experiments/Knapen_AOT/AOT_stimuli/rescaled_final/1620_fw.mp4	0.0	323.70821738243103	0.0999765396118164
71	308.6376864910126	fix_pre	0		120	69.0	2.5	blank	1.0	323.80819392204285	1.0001592636108398
71	309.22141122817993	pulse	0	t		69.0	2.5	blank	1.0	324.3919186592102	
71	309.6378457546234	movie	1		300	69.0	2.5	blank	1.0	324.8083531856537	2.50036358833313
71	310.82154393196106	pulse	1	t		69.0	2.5	blank	1.0	325.99205136299133	
71	312.13820934295654	fix_post	2		12	69.0	2.5	blank	1.0	327.3087167739868	0.10001826286315918
72	312.2382276058197	fix_pre	0		120	70.0	2.5	/experiments/Knapen_AOT/AOT_stimuli/rescaled_final/1665_fw.mp4	0.0	327.40873503685	1.0085878372192383
72	312.421847820282	pulse	0	t		70.0	2.5	/experiments/Knapen_AOT/AOT_stimuli/rescaled_final/1665_fw.mp4	0.0	327.59235525131226	
72	313.24681544303894	movie	1		279	70.0	2.5	/experiments/Knapen_AOT/AOT_stimuli/rescaled_final/1665_fw.mp4	0.0	328.4173228740692	2.4919543266296387
72	314.0201892852783	pulse	1	t		70.0	2.5	/experiments/Knapen_AOT/AOT_stimuli/rescaled_final/1665_fw.mp4	0.0	329.1906967163086	
72	315.62034487724304	pulse	1	t		70.0	2.5	/experiments/Knapen_AOT/AOT_stimuli/rescaled_final/1665_fw.mp4	0.0	330.7908523082733	
72	315.7387697696686	fix_post	2		12	70.0	2.5	/experiments/Knapen_AOT/AOT_stimuli/rescaled_final/1665_fw.mp4	0.0	330.90927720069885	0.10004043579101562
73	315.8388102054596	fix_pre	0		120	71.0	2.5	/experiments/Knapen_AOT/AOT_stimuli/rescaled_final/1923_fw.mp4	0.0	331.00931763648987	1.0084891319274902
73	316.8472993373871	movie	1		261	71.0	2.5	/experiments/Knapen_AOT/AOT_stimuli/rescaled_final/1923_fw.mp4	0.0	332.01780676841736	2.491999387741089
73	317.2208902835846	pulse	1	t		71.0	2.5	/experiments/Knapen_AOT/AOT_stimuli/rescaled_final/1923_fw.mp4	0.0	332.39139771461487	
73	318.820871591568	pulse	1	t		71.0	2.5	/experiments/Knapen_AOT/AOT_stimuli/rescaled_final/1923_fw.mp4	0.0	333.99137902259827	
73	319.3392987251282	fix_post	2		12	71.0	2.5	/experiments/Knapen_AOT/AOT_stimuli/rescaled_final/1923_fw.mp4	0.0	334.50980615615845	0.10007309913635254
74	319.4393718242645	fix_pre	0		119	72.0	2.5	/experiments/Knapen_AOT/AOT_stimuli/rescaled_final/0991_rv.mp4	0.0	334.6098792552948	1.0084872245788574
74	320.423139333725	pulse	0	t		72.0	2.5	/experiments/Knapen_AOT/AOT_stimuli/rescaled_final/0991_rv.mp4	0.0	335.59364676475525	
74	320.4478590488434	movie	1		279	72.0	2.5	/experiments/Knapen_AOT/AOT_stimuli/rescaled_final/0991_rv.mp4	0.0	335.61836647987366	2.4920260906219482
74	322.02213191986084	pulse	1	t		72.0	2.5	/experiments/Knapen_AOT/AOT_stimuli/rescaled_final/0991_rv.mp4	0.0	337.1926393508911	
74	322.93988513946533	fix_post	2		12	72.0	2.5	/experiments/Knapen_AOT/AOT_stimuli/rescaled_final/0991_rv.mp4	0.0	338.1103925704956	0.10002374649047852
75	323.0399088859558	fix_pre	0		120	73.0	2.5	/experiments/Knapen_AOT/AOT_stimuli/rescaled_final/1291_rv.mp4	0.0	338.2104163169861	1.008469820022583
75	323.6234881877899	pulse	0	t		73.0	2.5	/experiments/Knapen_AOT/AOT_stimuli/rescaled_final/1291_rv.mp4	0.0	338.7939956188202	
75	324.0483787059784	movie	1		273	73.0	2.5	/experiments/Knapen_AOT/AOT_stimuli/rescaled_final/1291_rv.mp4	0.0	339.21888613700867	2.491999626159668
75	325.2222239971161	pulse	1	t		73.0	2.5	/experiments/Knapen_AOT/AOT_stimuli/rescaled_final/1291_rv.mp4	0.0	340.39273142814636	
75	326.54037833213806	fix_post	2		12	73.0	2.5	/experiments/Knapen_AOT/AOT_stimuli/rescaled_final/1291_rv.mp4	0.0	341.71088576316833	0.10001420974731445
76	326.6403925418854	fix_pre	0		120	74.0	2.5	/experiments/Knapen_AOT/AOT_stimuli/rescaled_final/0216_fw.mp4	0.0	341.81089997291565	1.0084788799285889
76	326.82396245002747	pulse	0	t		74.0	2.5	/experiments/Knapen_AOT/AOT_stimuli/rescaled_final/0216_fw.mp4	0.0	341.99446988105774	
76	327.64887142181396	movie	1		283	74.0	2.5	/experiments/Knapen_AOT/AOT_stimuli/rescaled_final/0216_fw.mp4	0.0	342.81937885284424	2.4920966625213623
76	328.4249053001404	pulse	1	t		74.0	2.5	/experiments/Knapen_AOT/AOT_stimuli/rescaled_final/0216_fw.mp4	0.0	343.59541273117065	
76	330.02290654182434	pulse	1	t		74.0	2.5	/experiments/Knapen_AOT/AOT_stimuli/rescaled_final/0216_fw.mp4	0.0	345.1934139728546	
76	330.1409680843353	fix_post	2		12	74.0	2.5	/experiments/Knapen_AOT/AOT_stimuli/rescaled_final/0216_fw.mp4	0.0	345.3114755153656	0.0999758243560791
77	330.2409439086914	fix_pre	0		120	75.0	2.5	/experiments/Knapen_AOT/AOT_stimuli/rescaled_final/0386_rv.mp4	0.0	345.4114513397217	1.008495569229126
77	331.24943947792053	movie	1		269	75.0	2.5	/experiments/Knapen_AOT/AOT_stimuli/rescaled_final/0386_rv.mp4	0.0	346.4199469089508	2.4920105934143066
77	331.6232705116272	pulse	1	t		75.0	2.5	/experiments/Knapen_AOT/AOT_stimuli/rescaled_final/0386_rv.mp4	0.0	346.79377794265747	
77	333.22353959083557	pulse	1	t		75.0	2.5	/experiments/Knapen_AOT/AOT_stimuli/rescaled_final/0386_rv.mp4	0.0	348.39404702186584	
77	333.74145007133484	fix_post	2		12	75.0	2.5	/experiments/Knapen_AOT/AOT_stimuli/rescaled_final/0386_rv.mp4	0.0	348.9119575023651	0.10003256797790527
78	333.84148263931274	fix_pre	0		119	76.0	2.5	blank	1.0	349.011990070343	0.99178147315979
78	334.82533025741577	pulse	0	t		76.0	2.5	blank	1.0	349.99583768844604	
78	334.83326411247253	movie	1		301	76.0	2.5	blank	1.0	350.0037715435028	2.5087549686431885
78	336.42550802230835	pulse	1	t		76.0	2.5	blank	1.0	351.5960154533386	
78	337.3420190811157	fix_post	2		12	76.0	2.5	blank	1.0	352.512526512146	0.10000467300415039
79	337.4420237541199	fix_pre	0		120	77.0	2.5	/experiments/Knapen_AOT/AOT_stimuli/rescaled_final/0935_rv.mp4	0.0	352.61253118515015	1.008544921875
79	338.0258936882019	pulse	0	t		77.0	2.5	/experiments/Knapen_AOT/AOT_stimuli/rescaled_final/0935_rv.mp4	0.0	353.1964011192322	
79	338.4505686759949	movie	1		273	77.0	2.5	/experiments/Knapen_AOT/AOT_stimuli/rescaled_final/0935_rv.mp4	0.0	353.62107610702515	2.492008924484253
79	339.6244914531708	pulse	1	t		77.0	2.5	/experiments/Knapen_AOT/AOT_stimuli/rescaled_final/0935_rv.mp4	0.0	354.79499888420105	
79	340.9425776004791	fix_post	2		12	77.0	2.5	/experiments/Knapen_AOT/AOT_stimuli/rescaled_final/0935_rv.mp4	0.0	356.1130850315094	0.09999322891235352
80	341.0425708293915	fix_pre	0		120	78.0	2.5	/experiments/Knapen_AOT/AOT_stimuli/rescaled_final/1775_rv.mp4	0.0	356.21307826042175	1.0084974765777588
80	341.22610807418823	pulse	0	t		78.0	2.5	/experiments/Knapen_AOT/AOT_stimuli/rescaled_final/1775_rv.mp4	0.0	356.3966155052185	
80	342.05106830596924	movie	1		282	78.0	2.5	/experiments/Knapen_AOT/AOT_stimuli/rescaled_final/1775_rv.mp4	0.0	357.2215757369995	2.4920690059661865
80	342.82490849494934	pulse	1	t		78.0	2.5	/experiments/Knapen_AOT/AOT_stimuli/rescaled_final/1775_rv.mp4	0.0	357.9954159259796	
80	344.4245796203613	pulse	1	t		78.0	2.5	/experiments/Knapen_AOT/AOT_stimuli/rescaled_final/1775_rv.mp4	0.0	359.5950870513916	
80	344.5431373119354	fix_post	2		12	78.0	2.5	/experiments/Knapen_AOT/AOT_stimuli/rescaled_final/1775_rv.mp4	0.0	359.7136447429657	0.10000991821289062
81	344.6431472301483	fix_pre	0		120	79.0	2.5	/experiments/Knapen_AOT/AOT_stimuli/rescaled_final/1504_fw.mp4	0.0	359.8136546611786	1.0084331035614014
81	345.6515803337097	movie	1		274	79.0	2.5	/experiments/Knapen_AOT/AOT_stimuli/rescaled_final/1504_fw.mp4	0.0	360.82208776474	2.4920430183410645
81	346.02527236938477	pulse	1	t		79.0	2.5	/experiments/Knapen_AOT/AOT_stimuli/rescaled_final/1504_fw.mp4	0.0	361.19577980041504	
81	347.61913990974426	pulse	1	t		79.0	2.5	/experiments/Knapen_AOT/AOT_stimuli/rescaled_final/1504_fw.mp4	0.0	362.78964734077454	
81	348.1436233520508	fix_post	2		12	79.0	2.5	/experiments/Knapen_AOT/AOT_stimuli/rescaled_final/1504_fw.mp4	0.0	363.31413078308105	0.10003113746643066
82	348.2436544895172	fix_pre	0		118	80.0	2.5	/experiments/Knapen_AOT/AOT_stimuli/rescaled_final/0365_fw.mp4	0.0	363.4141619205475	0.9918010234832764
82	349.21903586387634	pulse	0	t		80.0	2.5	/experiments/Knapen_AOT/AOT_stimuli/rescaled_final/0365_fw.mp4	0.0	364.3895432949066	
82	349.2354555130005	movie	1		280	80.0	2.5	/experiments/Knapen_AOT/AOT_stimuli/rescaled_final/0365_fw.mp4	0.0	364.40596294403076	2.5005390644073486
82	350.81930780410767	pulse	1	t		80.0	2.5	/experiments/Knapen_AOT/AOT_stimuli/rescaled_final/0365_fw.mp4	0.0	365.98981523513794	
82	351.73599457740784	fix_post	2		12	80.0	2.5	/experiments/Knapen_AOT/AOT_stimuli/rescaled_final/0365_fw.mp4	0.0	366.9065020084381	0.09998369216918945
83	351.835978269577	fix_pre	0		120	81.0	2.5	/experiments/Knapen_AOT/AOT_stimuli/rescaled_final/1332_rv.mp4	0.0	367.0064857006073	1.0083329677581787
83	352.41955161094666	pulse	0	t		81.0	2.5	/experiments/Knapen_AOT/AOT_stimuli/rescaled_final/1332_rv.mp4	0.0	367.59005904197693	
83	352.8443112373352	movie	1		280	81.0	2.5	/experiments/Knapen_AOT/AOT_stimuli/rescaled_final/1332_rv.mp4	0.0	368.0148186683655	2.492053508758545
83	354.01998686790466	pulse	1	t		81.0	2.5	/experiments/Knapen_AOT/AOT_stimuli/rescaled_final/1332_rv.mp4	0.0	369.19049429893494	
83	355.33636474609375	fix_post	2		12	81.0	2.5	/experiments/Knapen_AOT/AOT_stimuli/rescaled_final/1332_rv.mp4	0.0	370.506872177124	0.10001635551452637
84	355.4363811016083	fix_pre	0		120	82.0	2.5	/experiments/Knapen_AOT/AOT_stimuli/rescaled_final/2094_rv.mp4	0.0	370.60688853263855	1.0086257457733154
84	355.62008261680603	pulse	0	t		82.0	2.5	/experiments/Knapen_AOT/AOT_stimuli/rescaled_final/2094_rv.mp4	0.0	370.7905900478363	
84	356.4450068473816	movie	1		270	82.0	2.5	/experiments/Knapen_AOT/AOT_stimuli/rescaled_final/2094_rv.mp4	0.0	371.61551427841187	2.4918911457061768
84	357.2207713127136	pulse	1	t		82.0	2.5	/experiments/Knapen_AOT/AOT_stimuli/rescaled_final/2094_rv.mp4	0.0	372.3912787437439	
84	358.82042264938354	pulse	1	t		82.0	2.5	/experiments/Knapen_AOT/AOT_stimuli/rescaled_final/2094_rv.mp4	0.0	373.9909300804138	
84	358.93689799308777	fix_post	2		12	82.0	2.5	/experiments/Knapen_AOT/AOT_stimuli/rescaled_final/2094_rv.mp4	0.0	374.10740542411804	0.10001730918884277
85	359.0369153022766	fix_pre	0		120	83.0	2.5	blank	1.0	374.2074227333069	1.000178337097168
85	360.0370936393738	movie	1		299	83.0	2.5	blank	1.0	375.20760107040405	2.5004658699035645
85	360.4208507537842	pulse	1	t		83.0	2.5	blank	1.0	375.59135818481445	
85	362.0209164619446	pulse	1	t		83.0	2.5	blank	1.0	377.19142389297485	
85	362.53755950927734	fix_post	2		12	83.0	2.5	blank	1.0	377.7080669403076	0.09999227523803711
87	362.6375517845154	stim	0		1715					377.80805921554565	14.293745040893555
87	363.6213104724884	pulse	0	t						378.7918179035187	
87	365.22145342826843	pulse	0	t						380.3919608592987	
87	366.82183170318604	pulse	0	t						381.9923391342163	
87	368.4220006465912	pulse	0	t						383.59250807762146	
87	370.0221199989319	pulse	0	t						385.19262742996216	
87	371.62235617637634	pulse	0	t						386.7928636074066	
87	373.2226686477661	pulse	0	t						388.3931760787964	
87	374.82294058799744	pulse	0	t						389.9934480190277	
87	376.4230558872223	pulse	0	t						391.59356331825256	
