trial_nr	onset	event_type	phase	response	nr_frames	movie_index	movie_duration	movie_file	blank	onset_abs	duration
0	0.15764999389648438	stim	0		48					23.852301120758057	0.3999760150909424
0	0.5494928359985352	response	0	space						24.244143962860107	
1	0.5576260089874268	stim	0		4805					24.252277135849	40.04151201248169
1	40.593108892440796	pulse	0	t						64.28776001930237	
1	40.599138021469116	stim	1		1717					64.29378914833069	14.308207988739014
1	42.19064784049988	pulse	1	t						65.88529896736145	
1	43.790935039520264	pulse	1	t						67.48558616638184	
1	45.39105701446533	pulse	1	t						69.0857081413269	
1	46.990952014923096	pulse	1	t						70.68560314178467	
1	48.59097099304199	pulse	1	t						72.28562211990356	
1	50.1908700466156	pulse	1	t						73.88552117347717	
1	51.79088592529297	pulse	1	t						75.48553705215454	
1	53.39089894294739	pulse	1	t						77.08555006980896	
2	54.90734601020813	fix_pre	0		11	0.0	2.5	/experiments/aot/S_yt-Gc1p5CnDbDY_22.mp4	0.0	78.6019971370697	0.09170293807983398
2	54.99080300331116	pulse	0	t		0.0	2.5	/experiments/aot/S_yt-Gc1p5CnDbDY_22.mp4	0.0	78.68545413017273	
2	54.999048948287964	movie	1		293	0.0	2.5	/experiments/aot/S_yt-Gc1p5CnDbDY_22.mp4	0.0	78.69370007514954	2.508305072784424
2	56.590883016586304	pulse	1	t		0.0	2.5	/experiments/aot/S_yt-Gc1p5CnDbDY_22.mp4	0.0	80.28553414344788	
2	57.50735402107239	fix_post	2		12	0.0	2.5	/experiments/aot/S_yt-Gc1p5CnDbDY_22.mp4	0.0	81.20200514793396	0.09998583793640137
3	57.60733985900879	fix_pre	0		120	1.0	2.5	/experiments/aot/S_yt-tQ-hgwTcMqU_43.mp4	0.0	81.30199098587036	1.0000109672546387
3	58.19092893600464	pulse	0	t		1.0	2.5	/experiments/aot/S_yt-tQ-hgwTcMqU_43.mp4	0.0	81.88558006286621	
3	58.60735082626343	movie	1		300	1.0	2.5	/experiments/aot/S_yt-tQ-hgwTcMqU_43.mp4	0.0	82.302001953125	2.4999871253967285
3	59.79079294204712	pulse	1	t		1.0	2.5	/experiments/aot/S_yt-tQ-hgwTcMqU_43.mp4	0.0	83.48544406890869	
3	61.107337951660156	fix_post	2		12	1.0	2.5	/experiments/aot/S_yt-tQ-hgwTcMqU_43.mp4	0.0	84.80198907852173	0.09998607635498047
4	61.20732402801514	fix_pre	0		120	2.0	2.5	/experiments/aot/S_SPNvf6JCjGw_123.mp4	0.0	84.90197515487671	1.000121831893921
4	61.39091396331787	pulse	0	t		2.0	2.5	/experiments/aot/S_SPNvf6JCjGw_123.mp4	0.0	85.08556509017944	
4	62.20744585990906	movie	1		299	2.0	2.5	/experiments/aot/S_SPNvf6JCjGw_123.mp4	0.0	85.90209698677063	2.5000040531158447
4	62.99083995819092	pulse	1	t		2.0	2.5	/experiments/aot/S_SPNvf6JCjGw_123.mp4	0.0	86.68549108505249	
4	64.5909788608551	pulse	1	t		2.0	2.5	/experiments/aot/S_SPNvf6JCjGw_123.mp4	0.0	88.28562998771667	
4	64.7074499130249	fix_post	2		12	2.0	2.5	/experiments/aot/S_SPNvf6JCjGw_123.mp4	0.0	88.40210103988647	0.09995412826538086
5	64.80740404129028	fix_pre	0		120	3.0	2.5	/experiments/aot/R_S_ILSVRC2015_train_00584001.mp4	0.0	88.50205516815186	0.9999067783355713
5	65.80731081962585	movie	1		300	3.0	2.5	/experiments/aot/R_S_ILSVRC2015_train_00584001.mp4	0.0	89.50196194648743	2.499994993209839
5	66.1908438205719	pulse	1	t		3.0	2.5	/experiments/aot/R_S_ILSVRC2015_train_00584001.mp4	0.0	89.88549494743347	
5	67.79087781906128	pulse	1	t		3.0	2.5	/experiments/aot/R_S_ILSVRC2015_train_00584001.mp4	0.0	91.48552894592285	
5	68.3073058128357	fix_post	2		12	3.0	2.5	/experiments/aot/R_S_ILSVRC2015_train_00584001.mp4	0.0	92.00195693969727	0.10009407997131348
6	68.407399892807	fix_pre	0		119	4.0	2.5	/experiments/aot/S_yt-WTxvvlP8xnw_113.mp4	0.0	92.10205101966858	0.9916510581970215
6	69.39080500602722	pulse	0	t		4.0	2.5	/experiments/aot/S_yt-WTxvvlP8xnw_113.mp4	0.0	93.0854561328888	
6	69.39905095100403	movie	1		301	4.0	2.5	/experiments/aot/S_yt-WTxvvlP8xnw_113.mp4	0.0	93.0937020778656	2.5083320140838623
6	70.99083995819092	pulse	1	t		4.0	2.5	/experiments/aot/S_yt-WTxvvlP8xnw_113.mp4	0.0	94.68549108505249	
6	71.90738296508789	fix_post	2		12	4.0	2.5	/experiments/aot/S_yt-WTxvvlP8xnw_113.mp4	0.0	95.60203409194946	0.09996199607849121
7	72.00734496116638	fix_pre	0		120	5.0	2.5	/experiments/aot/R_S_b3TCugtX0h0_108.mp4	0.0	95.70199608802795	1.0000178813934326
7	72.59084486961365	pulse	0	t		5.0	2.5	/experiments/aot/R_S_b3TCugtX0h0_108.mp4	0.0	96.28549599647522	
7	73.00736284255981	movie	1		300	5.0	2.5	/experiments/aot/R_S_b3TCugtX0h0_108.mp4	0.0	96.70201396942139	2.499943971633911
7	74.19074892997742	pulse	1	t		5.0	2.5	/experiments/aot/R_S_b3TCugtX0h0_108.mp4	0.0	97.88540005683899	
7	75.50730681419373	fix_post	2		12	5.0	2.5	/experiments/aot/R_S_b3TCugtX0h0_108.mp4	0.0	99.2019579410553	0.10005617141723633
8	75.60736298561096	fix_pre	0		120	6.0	2.5	blank	1.0	99.30201411247253	0.9999790191650391
8	75.79074287414551	pulse	0	t		6.0	2.5	blank	1.0	99.48539400100708	
8	76.607342004776	movie	1		300	6.0	2.5	blank	1.0	100.30199313163757	2.499976873397827
8	77.39073300361633	pulse	1	t		6.0	2.5	blank	1.0	101.0853841304779	
8	78.99068188667297	pulse	1	t		6.0	2.5	blank	1.0	102.68533301353455	
8	79.10731887817383	fix_post	2		12	6.0	2.5	blank	1.0	102.8019700050354	0.09984207153320312
9	79.20716094970703	fix_pre	0		120	7.0	2.5	/experiments/aot/R_S_PA_A004_C003_SDR_20190719_SDR_2K_AVC.mp4	0.0	102.9018120765686	1.0001139640808105
9	80.20727491378784	movie	1		168	7.0	2.5	/experiments/aot/R_S_PA_A004_C003_SDR_20190719_SDR_2K_AVC.mp4	0.0	103.90192604064941	2.4999639987945557
9	80.59070897102356	pulse	1	t		7.0	2.5	/experiments/aot/R_S_PA_A004_C003_SDR_20190719_SDR_2K_AVC.mp4	0.0	104.28536009788513	
9	82.1908929347992	pulse	1	t		7.0	2.5	/experiments/aot/R_S_PA_A004_C003_SDR_20190719_SDR_2K_AVC.mp4	0.0	105.88554406166077	
9	82.7072389125824	fix_post	2		12	7.0	2.5	/experiments/aot/R_S_PA_A004_C003_SDR_20190719_SDR_2K_AVC.mp4	0.0	106.40189003944397	0.10002398490905762
10	82.80726289749146	fix_pre	0		119	8.0	2.5	/experiments/aot/S_Oo8otu7cQ20_112.mp4	0.0	106.50191402435303	0.9916069507598877
10	83.79075288772583	pulse	0	t		8.0	2.5	/experiments/aot/S_Oo8otu7cQ20_112.mp4	0.0	107.4854040145874	
10	83.79886984825134	movie	1		301	8.0	2.5	/experiments/aot/S_Oo8otu7cQ20_112.mp4	0.0	107.49352097511292	2.5084421634674072
10	85.39074897766113	pulse	1	t		8.0	2.5	/experiments/aot/S_Oo8otu7cQ20_112.mp4	0.0	109.0854001045227	
10	86.30731201171875	fix_post	2		12	8.0	2.5	/experiments/aot/S_Oo8otu7cQ20_112.mp4	0.0	110.00196313858032	0.0999908447265625
11	86.40730285644531	fix_pre	0		120	9.0	2.5	/experiments/aot/S_comp_LA_A009_C009_PSNK_v02_SDR_PS_FINAL_20180709_SDR_2K_AVC.mp4	0.0	110.10195398330688	1.0000040531158447
11	86.99074697494507	pulse	0	t		9.0	2.5	/experiments/aot/S_comp_LA_A009_C009_PSNK_v02_SDR_PS_FINAL_20180709_SDR_2K_AVC.mp4	0.0	110.68539810180664	
11	87.40730690956116	movie	1		161	9.0	2.5	/experiments/aot/S_comp_LA_A009_C009_PSNK_v02_SDR_PS_FINAL_20180709_SDR_2K_AVC.mp4	0.0	111.10195803642273	2.4999630451202393
11	88.59080195426941	pulse	1	t		9.0	2.5	/experiments/aot/S_comp_LA_A009_C009_PSNK_v02_SDR_PS_FINAL_20180709_SDR_2K_AVC.mp4	0.0	112.28545308113098	
11	89.9072699546814	fix_post	2		12	9.0	2.5	/experiments/aot/S_comp_LA_A009_C009_PSNK_v02_SDR_PS_FINAL_20180709_SDR_2K_AVC.mp4	0.0	113.60192108154297	0.10004997253417969
12	90.00731992721558	fix_pre	0		120	10.0	2.5	/experiments/aot/S_yt-IC62JSYpq9w_71.mp4	0.0	113.70197105407715	1.0000150203704834
12	90.1907320022583	pulse	0	t		10.0	2.5	/experiments/aot/S_yt-IC62JSYpq9w_71.mp4	0.0	113.88538312911987	
12	91.00733494758606	movie	1		299	10.0	2.5	/experiments/aot/S_yt-IC62JSYpq9w_71.mp4	0.0	114.70198607444763	2.4998838901519775
12	91.79069900512695	pulse	1	t		10.0	2.5	/experiments/aot/S_yt-IC62JSYpq9w_71.mp4	0.0	115.48535013198853	
12	93.39033389091492	pulse	1	t		10.0	2.5	/experiments/aot/S_yt-IC62JSYpq9w_71.mp4	0.0	117.08498501777649	
12	93.50721883773804	fix_post	2		12	10.0	2.5	/experiments/aot/S_yt-IC62JSYpq9w_71.mp4	0.0	117.20186996459961	0.10000300407409668
13	93.60722184181213	fix_pre	0		120	11.0	2.5	/experiments/aot/S_yt-AjyR9--Mx3A_44.mp4	0.0	117.3018729686737	1.0000200271606445
13	94.60724186897278	movie	1		300	11.0	2.5	/experiments/aot/S_yt-AjyR9--Mx3A_44.mp4	0.0	118.30189299583435	2.4999911785125732
13	94.99069595336914	pulse	1	t		11.0	2.5	/experiments/aot/S_yt-AjyR9--Mx3A_44.mp4	0.0	118.68534708023071	
13	96.59026288986206	pulse	1	t		11.0	2.5	/experiments/aot/S_yt-AjyR9--Mx3A_44.mp4	0.0	120.28491401672363	
13	97.10723304748535	fix_post	2		12	11.0	2.5	/experiments/aot/S_yt-AjyR9--Mx3A_44.mp4	0.0	120.80188417434692	0.09952878952026367
14	97.20676183700562	fix_pre	0		119	12.0	2.5	/experiments/aot/R_S_yt-eF5J5Kjt6oY_23.mp4	0.0	120.90141296386719	0.9923150539398193
14	98.1908209323883	pulse	0	t		12.0	2.5	/experiments/aot/R_S_yt-eF5J5Kjt6oY_23.mp4	0.0	121.88547205924988	
14	98.19907689094543	movie	1		301	12.0	2.5	/experiments/aot/R_S_yt-eF5J5Kjt6oY_23.mp4	0.0	121.893728017807	2.508134126663208
14	99.79072284698486	pulse	1	t		12.0	2.5	/experiments/aot/R_S_yt-eF5J5Kjt6oY_23.mp4	0.0	123.48537397384644	
14	100.70721101760864	fix_post	2		12	12.0	2.5	/experiments/aot/R_S_yt-eF5J5Kjt6oY_23.mp4	0.0	124.40186214447021	0.10010480880737305
15	100.80731582641602	fix_pre	0		120	13.0	2.5	/experiments/aot/R_S_yt-tfHCqgH1guY_235.mp4	0.0	124.50196695327759	0.9998672008514404
15	101.3907208442688	pulse	0	t		13.0	2.5	/experiments/aot/R_S_yt-tfHCqgH1guY_235.mp4	0.0	125.08537197113037	
15	101.80718302726746	movie	1		300	13.0	2.5	/experiments/aot/R_S_yt-tfHCqgH1guY_235.mp4	0.0	125.50183415412903	2.4998979568481445
15	102.99065399169922	pulse	1	t		13.0	2.5	/experiments/aot/R_S_yt-tfHCqgH1guY_235.mp4	0.0	126.68530511856079	
15	104.3070809841156	fix_post	2		12	13.0	2.5	/experiments/aot/R_S_yt-tfHCqgH1guY_235.mp4	0.0	128.00173211097717	0.10006284713745117
16	104.40714383125305	fix_pre	0		120	14.0	2.5	blank	1.0	128.10179495811462	0.9999330043792725
16	104.59061884880066	pulse	0	t		14.0	2.5	blank	1.0	128.28526997566223	
16	105.40707683563232	movie	1		300	14.0	2.5	blank	1.0	129.1017279624939	2.5000171661376953
16	106.19066882133484	pulse	1	t		14.0	2.5	blank	1.0	129.8853199481964	
16	107.79057383537292	pulse	1	t		14.0	2.5	blank	1.0	131.4852249622345	
16	107.90709400177002	fix_post	2		12	14.0	2.5	blank	1.0	131.6017451286316	0.10001397132873535
17	108.00710797309875	fix_pre	0		120	15.0	2.5	/experiments/aot/S_yt-_zDYi2P-QxY_128.mp4	0.0	131.70175909996033	1.0000848770141602
17	109.00719285011292	movie	1		299	15.0	2.5	/experiments/aot/S_yt-_zDYi2P-QxY_128.mp4	0.0	132.7018439769745	2.4998931884765625
17	109.39060592651367	pulse	1	t		15.0	2.5	/experiments/aot/S_yt-_zDYi2P-QxY_128.mp4	0.0	133.08525705337524	
17	110.99047994613647	pulse	1	t		15.0	2.5	/experiments/aot/S_yt-_zDYi2P-QxY_128.mp4	0.0	134.68513107299805	
17	111.50708603858948	fix_post	2		12	15.0	2.5	/experiments/aot/S_yt-_zDYi2P-QxY_128.mp4	0.0	135.20173716545105	0.10006880760192871
18	111.6071548461914	fix_pre	0		119	16.0	2.5	/experiments/aot/R_S_yt-vQGD-rJyMw4_166.mp4	0.0	135.30180597305298	0.99167799949646
18	112.59055304527283	pulse	0	t		16.0	2.5	/experiments/aot/R_S_yt-vQGD-rJyMw4_166.mp4	0.0	136.2852041721344	
18	112.59883284568787	movie	1		301	16.0	2.5	/experiments/aot/R_S_yt-vQGD-rJyMw4_166.mp4	0.0	136.29348397254944	2.508291006088257
18	114.19062685966492	pulse	1	t		16.0	2.5	/experiments/aot/R_S_yt-vQGD-rJyMw4_166.mp4	0.0	137.8852779865265	
18	115.10712385177612	fix_post	2		12	16.0	2.5	/experiments/aot/R_S_yt-vQGD-rJyMw4_166.mp4	0.0	138.8017749786377	0.09997105598449707
19	115.20709490776062	fix_pre	0		120	17.0	2.5	/experiments/aot/S_production_ID_4428752.mp4	0.0	138.9017460346222	0.9999990463256836
19	115.79067993164062	pulse	0	t		17.0	2.5	/experiments/aot/S_production_ID_4428752.mp4	0.0	139.4853310585022	
19	116.2070939540863	movie	1		164	17.0	2.5	/experiments/aot/S_production_ID_4428752.mp4	0.0	139.90174508094788	2.5000429153442383
19	117.39066886901855	pulse	1	t		17.0	2.5	/experiments/aot/S_production_ID_4428752.mp4	0.0	141.08531999588013	
19	118.70713686943054	fix_post	2		12	17.0	2.5	/experiments/aot/S_production_ID_4428752.mp4	0.0	142.40178799629211	0.09991717338562012
20	118.80705404281616	fix_pre	0		120	18.0	2.5	/experiments/aot/R_S_yt-MUfa26F8dfE_97.mp4	0.0	142.50170516967773	1.000011920928955
20	118.99055981636047	pulse	0	t		18.0	2.5	/experiments/aot/R_S_yt-MUfa26F8dfE_97.mp4	0.0	142.68521094322205	
20	119.80706596374512	movie	1		300	18.0	2.5	/experiments/aot/R_S_yt-MUfa26F8dfE_97.mp4	0.0	143.5017170906067	2.4999969005584717
20	120.59065389633179	pulse	1	t		18.0	2.5	/experiments/aot/R_S_yt-MUfa26F8dfE_97.mp4	0.0	144.28530502319336	
20	122.19014000892639	pulse	1	t		18.0	2.5	/experiments/aot/R_S_yt-MUfa26F8dfE_97.mp4	0.0	145.88479113578796	
20	122.30706286430359	fix_post	2		12	18.0	2.5	/experiments/aot/R_S_yt-MUfa26F8dfE_97.mp4	0.0	146.00171399116516	0.0999000072479248
21	122.40696287155151	fix_pre	0		120	19.0	2.5	blank	1.0	146.1016139984131	1.0000691413879395
21	123.40703201293945	movie	1		300	19.0	2.5	blank	1.0	147.10168313980103	2.5
21	123.79061198234558	pulse	1	t		19.0	2.5	blank	1.0	147.48526310920715	
21	125.3905279636383	pulse	1	t		19.0	2.5	blank	1.0	149.08517909049988	
21	125.90703201293945	fix_post	2		12	19.0	2.5	blank	1.0	149.60168313980103	0.10001683235168457
22	126.00704884529114	fix_pre	0		119	20.0	2.5	/experiments/aot/R_S_yt-3NMDWrZr1Z4_255.mp4	0.0	149.7016999721527	0.991610050201416
22	126.99055790901184	pulse	0	t		20.0	2.5	/experiments/aot/R_S_yt-3NMDWrZr1Z4_255.mp4	0.0	150.6852090358734	
22	126.99865889549255	movie	1		301	20.0	2.5	/experiments/aot/R_S_yt-3NMDWrZr1Z4_255.mp4	0.0	150.69331002235413	2.5084590911865234
22	128.59059691429138	pulse	1	t		20.0	2.5	/experiments/aot/R_S_yt-3NMDWrZr1Z4_255.mp4	0.0	152.28524804115295	
22	129.50711798667908	fix_post	2		12	20.0	2.5	/experiments/aot/R_S_yt-3NMDWrZr1Z4_255.mp4	0.0	153.20176911354065	0.10002303123474121
23	129.60714101791382	fix_pre	0		120	21.0	2.5	/experiments/aot/S_ILSVRC2015_train_00661001.mp4	0.0	153.3017921447754	0.9999809265136719
23	130.19058203697205	pulse	0	t		21.0	2.5	/experiments/aot/S_ILSVRC2015_train_00661001.mp4	0.0	153.88523316383362	
23	130.6071219444275	movie	1		300	21.0	2.5	/experiments/aot/S_ILSVRC2015_train_00661001.mp4	0.0	154.30177307128906	2.499912977218628
23	131.7904829978943	pulse	1	t		21.0	2.5	/experiments/aot/S_ILSVRC2015_train_00661001.mp4	0.0	155.48513412475586	
23	133.10703492164612	fix_post	2		12	21.0	2.5	/experiments/aot/S_ILSVRC2015_train_00661001.mp4	0.0	156.8016860485077	0.10002803802490234
24	133.20706295967102	fix_pre	0		120	22.0	2.5	/experiments/aot/S_yt-IC62JSYpq9w_71.mp4	0.0	156.9017140865326	0.9999220371246338
24	133.39054584503174	pulse	0	t		22.0	2.5	/experiments/aot/S_yt-IC62JSYpq9w_71.mp4	0.0	157.0851969718933	
24	134.20698499679565	movie	1		300	22.0	2.5	/experiments/aot/S_yt-IC62JSYpq9w_71.mp4	0.0	157.90163612365723	2.5000689029693604
24	134.99050903320312	pulse	1	t		22.0	2.5	/experiments/aot/S_yt-IC62JSYpq9w_71.mp4	0.0	158.6851601600647	
24	136.59049487113953	pulse	1	t		22.0	2.5	/experiments/aot/S_yt-IC62JSYpq9w_71.mp4	0.0	160.2851459980011	
24	136.70705389976501	fix_post	2		12	22.0	2.5	/experiments/aot/S_yt-IC62JSYpq9w_71.mp4	0.0	160.4017050266266	0.0999290943145752
25	136.8069829940796	fix_pre	0		120	23.0	2.5	/experiments/aot/R_S_pexels-laker-5793000.mp4	0.0	160.50163412094116	1.000079870223999
25	137.8070628643036	movie	1		162	23.0	2.5	/experiments/aot/R_S_pexels-laker-5793000.mp4	0.0	161.50171399116516	2.5000009536743164
25	138.19052004814148	pulse	1	t		23.0	2.5	/experiments/aot/R_S_pexels-laker-5793000.mp4	0.0	161.88517117500305	
25	139.79057097434998	pulse	1	t		23.0	2.5	/experiments/aot/R_S_pexels-laker-5793000.mp4	0.0	163.48522210121155	
25	140.3070638179779	fix_post	2		12	23.0	2.5	/experiments/aot/R_S_pexels-laker-5793000.mp4	0.0	164.00171494483948	0.0999600887298584
26	140.40702390670776	fix_pre	0		119	24.0	2.5	/experiments/aot/R_S_yt-9t5-3Qe_t9A_591.mp4	0.0	164.10167503356934	0.9916269779205322
26	141.3905119895935	pulse	0	t		24.0	2.5	/experiments/aot/R_S_yt-9t5-3Qe_t9A_591.mp4	0.0	165.08516311645508	
26	141.3986508846283	movie	1		301	24.0	2.5	/experiments/aot/R_S_yt-9t5-3Qe_t9A_591.mp4	0.0	165.09330201148987	2.5082740783691406
26	142.99054193496704	pulse	1	t		24.0	2.5	/experiments/aot/R_S_yt-9t5-3Qe_t9A_591.mp4	0.0	166.6851930618286	
26	143.90692496299744	fix_post	2		12	24.0	2.5	/experiments/aot/R_S_yt-9t5-3Qe_t9A_591.mp4	0.0	167.601576089859	0.10004186630249023
27	144.00696682929993	fix_pre	0		120	25.0	2.5	/experiments/aot/S_yt-0bovQBIUZho_15.mp4	0.0	167.7016179561615	1.0000720024108887
27	144.59044289588928	pulse	0	t		25.0	2.5	/experiments/aot/S_yt-0bovQBIUZho_15.mp4	0.0	168.28509402275085	
27	145.00703883171082	movie	1		300	25.0	2.5	/experiments/aot/S_yt-0bovQBIUZho_15.mp4	0.0	168.7016899585724	2.4999260902404785
27	146.19046902656555	pulse	1	t		25.0	2.5	/experiments/aot/S_yt-0bovQBIUZho_15.mp4	0.0	169.88512015342712	
27	147.5069649219513	fix_post	2		12	25.0	2.5	/experiments/aot/S_yt-0bovQBIUZho_15.mp4	0.0	171.20161604881287	0.09991192817687988
28	147.60687685012817	fix_pre	0		120	26.0	2.5	/experiments/aot/R_S_yt-Co4dzHwupRM_18.mp4	0.0	171.30152797698975	1.0001680850982666
28	147.79046988487244	pulse	0	t		26.0	2.5	/experiments/aot/R_S_yt-Co4dzHwupRM_18.mp4	0.0	171.485121011734	
28	148.60704493522644	movie	1		300	26.0	2.5	/experiments/aot/R_S_yt-Co4dzHwupRM_18.mp4	0.0	172.301696062088	2.4998810291290283
28	149.3904309272766	pulse	1	t		26.0	2.5	/experiments/aot/R_S_yt-Co4dzHwupRM_18.mp4	0.0	173.08508205413818	
28	150.991192817688	pulse	1	t		26.0	2.5	/experiments/aot/R_S_yt-Co4dzHwupRM_18.mp4	0.0	174.68584394454956	
28	151.10692596435547	fix_post	2		12	26.0	2.5	/experiments/aot/R_S_yt-Co4dzHwupRM_18.mp4	0.0	174.80157709121704	0.10003805160522461
29	151.2069640159607	fix_pre	0		120	27.0	2.5	/experiments/aot/R_S_ILSVRC2015_train_00165012.mp4	0.0	174.90161514282227	1.000065803527832
29	152.20702981948853	movie	1		300	27.0	2.5	/experiments/aot/R_S_ILSVRC2015_train_00165012.mp4	0.0	175.9016809463501	2.500197172164917
29	152.58996987342834	pulse	1	t		27.0	2.5	/experiments/aot/R_S_ILSVRC2015_train_00165012.mp4	0.0	176.28462100028992	
29	154.19013094902039	pulse	1	t		27.0	2.5	/experiments/aot/R_S_ILSVRC2015_train_00165012.mp4	0.0	177.88478207588196	
29	154.70722699165344	fix_post	2		12	27.0	2.5	/experiments/aot/R_S_ILSVRC2015_train_00165012.mp4	0.0	178.40187811851501	0.09995388984680176
30	154.80718088150024	fix_pre	0		119	28.0	2.5	blank	1.0	178.50183200836182	0.9914219379425049
30	155.79054403305054	pulse	0	t		28.0	2.5	blank	1.0	179.4851951599121	
30	155.79860281944275	movie	1		301	28.0	2.5	blank	1.0	179.49325394630432	2.508280038833618
30	157.3903489112854	pulse	1	t		28.0	2.5	blank	1.0	181.08500003814697	
30	158.30688285827637	fix_post	2		12	28.0	2.5	blank	1.0	182.00153398513794	0.10007715225219727
31	158.40696001052856	fix_pre	0		120	29.0	2.5	/experiments/aot/S_ILSVRC2015_train_00434000.mp4	0.0	182.10161113739014	0.9999368190765381
31	158.99037289619446	pulse	0	t		29.0	2.5	/experiments/aot/S_ILSVRC2015_train_00434000.mp4	0.0	182.68502402305603	
31	159.4068968296051	movie	1		300	29.0	2.5	/experiments/aot/S_ILSVRC2015_train_00434000.mp4	0.0	183.10154795646667	2.499997138977051
31	160.59025692939758	pulse	1	t		29.0	2.5	/experiments/aot/S_ILSVRC2015_train_00434000.mp4	0.0	184.28490805625916	
31	161.90689396858215	fix_post	2		12	29.0	2.5	/experiments/aot/S_ILSVRC2015_train_00434000.mp4	0.0	185.60154509544373	0.10000395774841309
32	162.00689792633057	fix_pre	0		120	30.0	2.5	/experiments/aot/R_S_wc-8bTJmWfuVyJ4_8.mp4	0.0	185.70154905319214	0.9998979568481445
32	162.19037985801697	pulse	0	t		30.0	2.5	/experiments/aot/R_S_wc-8bTJmWfuVyJ4_8.mp4	0.0	185.88503098487854	
32	163.0067958831787	movie	1		163	30.0	2.5	/experiments/aot/R_S_wc-8bTJmWfuVyJ4_8.mp4	0.0	186.70144701004028	2.5000369548797607
32	163.7904179096222	pulse	1	t		30.0	2.5	/experiments/aot/R_S_wc-8bTJmWfuVyJ4_8.mp4	0.0	187.48506903648376	
32	165.39027500152588	pulse	1	t		30.0	2.5	/experiments/aot/R_S_wc-8bTJmWfuVyJ4_8.mp4	0.0	189.08492612838745	
32	165.50683283805847	fix_post	2		12	30.0	2.5	/experiments/aot/R_S_wc-8bTJmWfuVyJ4_8.mp4	0.0	189.20148396492004	0.09999513626098633
33	165.60682797431946	fix_pre	0		120	31.0	2.5	/experiments/aot/R_S_yt-XtzmBXKYEWk_60.mp4	0.0	189.30147910118103	1.000014066696167
33	166.60684204101562	movie	1		299	31.0	2.5	/experiments/aot/R_S_yt-XtzmBXKYEWk_60.mp4	0.0	190.3014931678772	2.4999477863311768
33	166.99030184745789	pulse	1	t		31.0	2.5	/experiments/aot/R_S_yt-XtzmBXKYEWk_60.mp4	0.0	190.68495297431946	
33	168.5902750492096	pulse	1	t		31.0	2.5	/experiments/aot/R_S_yt-XtzmBXKYEWk_60.mp4	0.0	192.28492617607117	
33	169.1067898273468	fix_post	2		12	31.0	2.5	/experiments/aot/R_S_yt-XtzmBXKYEWk_60.mp4	0.0	192.80144095420837	0.09998703002929688
34	169.2067768573761	fix_pre	0		119	32.0	2.5	/experiments/aot/R_S_ILSVRC2015_train_00369004.mp4	0.0	192.90142798423767	0.9917051792144775
34	170.19040393829346	pulse	0	t		32.0	2.5	/experiments/aot/R_S_ILSVRC2015_train_00369004.mp4	0.0	193.88505506515503	
34	170.19848203659058	movie	1		301	32.0	2.5	/experiments/aot/R_S_ILSVRC2015_train_00369004.mp4	0.0	193.89313316345215	2.5082828998565674
34	171.7903139591217	pulse	1	t		32.0	2.5	/experiments/aot/R_S_ILSVRC2015_train_00369004.mp4	0.0	195.48496508598328	
34	172.70676493644714	fix_post	2		12	32.0	2.5	/experiments/aot/R_S_ILSVRC2015_train_00369004.mp4	0.0	196.40141606330872	0.09995198249816895
35	172.8067169189453	fix_pre	0		120	33.0	2.5	/experiments/aot/S_c5iVM3LI6kI_252.mp4	0.0	196.50136804580688	1.0000290870666504
35	173.39035487174988	pulse	0	t		33.0	2.5	/experiments/aot/S_c5iVM3LI6kI_252.mp4	0.0	197.08500599861145	
35	173.80674600601196	movie	1		300	33.0	2.5	/experiments/aot/S_c5iVM3LI6kI_252.mp4	0.0	197.50139713287354	2.500048875808716
35	174.99027490615845	pulse	1	t		33.0	2.5	/experiments/aot/S_c5iVM3LI6kI_252.mp4	0.0	198.68492603302002	
35	176.30679488182068	fix_post	2		12	33.0	2.5	/experiments/aot/S_c5iVM3LI6kI_252.mp4	0.0	200.00144600868225	0.1000521183013916
36	176.40684700012207	fix_pre	0		120	34.0	2.5	blank	1.0	200.10149812698364	0.9999828338623047
36	176.59031581878662	pulse	0	t		34.0	2.5	blank	1.0	200.2849669456482	
36	177.40682983398438	movie	1		300	34.0	2.5	blank	1.0	201.10148096084595	2.499962091445923
36	178.19029593467712	pulse	1	t		34.0	2.5	blank	1.0	201.8849470615387	
36	179.790207862854	pulse	1	t		34.0	2.5	blank	1.0	203.48485898971558	
36	179.9067919254303	fix_post	2		12	34.0	2.5	blank	1.0	203.60144305229187	0.10003399848937988
37	180.00682592391968	fix_pre	0		120	35.0	2.5	/experiments/aot/S_yt-gMqeZkpA_1Q_61.mp4	0.0	203.70147705078125	0.9999771118164062
37	181.00680303573608	movie	1		300	35.0	2.5	/experiments/aot/S_yt-gMqeZkpA_1Q_61.mp4	0.0	204.70145416259766	2.499933958053589
37	181.3902509212494	pulse	1	t		35.0	2.5	/experiments/aot/S_yt-gMqeZkpA_1Q_61.mp4	0.0	205.08490204811096	
37	182.9902799129486	pulse	1	t		35.0	2.5	/experiments/aot/S_yt-gMqeZkpA_1Q_61.mp4	0.0	206.68493103981018	
37	183.50673699378967	fix_post	2		12	35.0	2.5	/experiments/aot/S_yt-gMqeZkpA_1Q_61.mp4	0.0	207.20138812065125	0.09996604919433594
38	183.606703042984	fix_pre	0		119	36.0	2.5	/experiments/aot/R_S_yt-aqrdb6BiFx4_12.mp4	0.0	207.30135416984558	0.9917888641357422
38	184.59016299247742	pulse	0	t		36.0	2.5	/experiments/aot/R_S_yt-aqrdb6BiFx4_12.mp4	0.0	208.284814119339	
38	184.59849190711975	movie	1		301	36.0	2.5	/experiments/aot/R_S_yt-aqrdb6BiFx4_12.mp4	0.0	208.29314303398132	2.5082709789276123
38	186.19024181365967	pulse	1	t		36.0	2.5	/experiments/aot/R_S_yt-aqrdb6BiFx4_12.mp4	0.0	209.88489294052124	
38	187.10676288604736	fix_post	2		12	36.0	2.5	/experiments/aot/R_S_yt-aqrdb6BiFx4_12.mp4	0.0	210.80141401290894	0.09997701644897461
39	187.20673990249634	fix_pre	0		120	37.0	2.5	/experiments/aot/S_yt-qF-69JWJX_Y_55.mp4	0.0	210.9013910293579	1.000011920928955
39	187.79025387763977	pulse	0	t		37.0	2.5	/experiments/aot/S_yt-qF-69JWJX_Y_55.mp4	0.0	211.48490500450134	
39	188.2067518234253	movie	1		299	37.0	2.5	/experiments/aot/S_yt-qF-69JWJX_Y_55.mp4	0.0	211.90140295028687	2.4999771118164062
39	189.39025688171387	pulse	1	t		37.0	2.5	/experiments/aot/S_yt-qF-69JWJX_Y_55.mp4	0.0	213.08490800857544	
39	190.7067289352417	fix_post	2		12	37.0	2.5	/experiments/aot/S_yt-qF-69JWJX_Y_55.mp4	0.0	214.40138006210327	0.10003495216369629
40	190.8067638874054	fix_pre	0		120	38.0	2.5	/experiments/aot/S_9smWynsk6sI_158.mp4	0.0	214.50141501426697	0.9999639987945557
40	190.99019598960876	pulse	0	t		38.0	2.5	/experiments/aot/S_9smWynsk6sI_158.mp4	0.0	214.68484711647034	
40	191.80672788619995	movie	1		300	38.0	2.5	/experiments/aot/S_9smWynsk6sI_158.mp4	0.0	215.50137901306152	2.5000009536743164
40	192.59026288986206	pulse	1	t		38.0	2.5	/experiments/aot/S_9smWynsk6sI_158.mp4	0.0	216.28491401672363	
40	194.18979287147522	pulse	1	t		38.0	2.5	/experiments/aot/S_9smWynsk6sI_158.mp4	0.0	217.8844439983368	
40	194.30672883987427	fix_post	2		12	38.0	2.5	/experiments/aot/S_9smWynsk6sI_158.mp4	0.0	218.00137996673584	0.09998607635498047
41	194.40671491622925	fix_pre	0		120	39.0	2.5	/experiments/aot/S_yt-XtzmBXKYEWk_60.mp4	0.0	218.10136604309082	1.0000231266021729
41	195.40673804283142	movie	1		300	39.0	2.5	/experiments/aot/S_yt-XtzmBXKYEWk_60.mp4	0.0	219.101389169693	2.4999377727508545
41	195.790109872818	pulse	1	t		39.0	2.5	/experiments/aot/S_yt-XtzmBXKYEWk_60.mp4	0.0	219.48476099967957	
41	197.39048886299133	pulse	1	t		39.0	2.5	/experiments/aot/S_yt-XtzmBXKYEWk_60.mp4	0.0	221.0851399898529	
41	197.90667581558228	fix_post	2		12	39.0	2.5	/experiments/aot/S_yt-XtzmBXKYEWk_60.mp4	0.0	221.60132694244385	0.10000419616699219
42	198.00668001174927	fix_pre	0		119	40.0	2.5	blank	1.0	221.70133113861084	0.9916918277740479
42	198.9901168346405	pulse	0	t		40.0	2.5	blank	1.0	222.68476796150208	
42	198.99837183952332	movie	1		301	40.0	2.5	blank	1.0	222.6930229663849	2.5083069801330566
42	200.59009194374084	pulse	1	t		40.0	2.5	blank	1.0	224.28474307060242	
42	201.50667881965637	fix_post	2		12	40.0	2.5	blank	1.0	225.20132994651794	0.10003209114074707
43	201.60671091079712	fix_pre	0		120	41.0	2.5	/experiments/aot/R_S_yt-0qfEA1ZFWjA_123.mp4	0.0	225.3013620376587	0.9999139308929443
43	202.190083026886	pulse	0	t		41.0	2.5	/experiments/aot/R_S_yt-0qfEA1ZFWjA_123.mp4	0.0	225.88473415374756	
43	202.60662484169006	movie	1		300	41.0	2.5	/experiments/aot/R_S_yt-0qfEA1ZFWjA_123.mp4	0.0	226.30127596855164	2.4999911785125732
43	203.7901120185852	pulse	1	t		41.0	2.5	/experiments/aot/R_S_yt-0qfEA1ZFWjA_123.mp4	0.0	227.48476314544678	
43	205.10661602020264	fix_post	2		12	41.0	2.5	/experiments/aot/R_S_yt-0qfEA1ZFWjA_123.mp4	0.0	228.8012671470642	0.10001802444458008
44	205.20663404464722	fix_pre	0		120	42.0	2.5	/experiments/aot/S_yt-SGTgMItFkxY_172.mp4	0.0	228.9012851715088	0.9999969005584717
44	205.39013695716858	pulse	0	t		42.0	2.5	/experiments/aot/S_yt-SGTgMItFkxY_172.mp4	0.0	229.08478808403015	
44	206.2066309452057	movie	1		300	42.0	2.5	/experiments/aot/S_yt-SGTgMItFkxY_172.mp4	0.0	229.90128207206726	2.499605894088745
44	206.9902708530426	pulse	1	t		42.0	2.5	/experiments/aot/S_yt-SGTgMItFkxY_172.mp4	0.0	230.68492197990417	
44	208.58968591690063	pulse	1	t		42.0	2.5	/experiments/aot/S_yt-SGTgMItFkxY_172.mp4	0.0	232.2843370437622	
44	208.70623683929443	fix_post	2		12	42.0	2.5	/experiments/aot/S_yt-SGTgMItFkxY_172.mp4	0.0	232.400887966156	0.10003209114074707
45	208.80626893043518	fix_pre	0		120	43.0	2.5	/experiments/aot/R_S_yt-HoRtvVuuvOs_5.mp4	0.0	232.50092005729675	1.000519037246704
45	209.80678796768188	movie	1		300	43.0	2.5	/experiments/aot/R_S_yt-HoRtvVuuvOs_5.mp4	0.0	233.50143909454346	2.499835968017578
45	210.1903748512268	pulse	1	t		43.0	2.5	/experiments/aot/R_S_yt-HoRtvVuuvOs_5.mp4	0.0	233.88502597808838	
45	211.79007387161255	pulse	1	t		43.0	2.5	/experiments/aot/R_S_yt-HoRtvVuuvOs_5.mp4	0.0	235.48472499847412	
45	212.30662393569946	fix_post	2		12	43.0	2.5	/experiments/aot/R_S_yt-HoRtvVuuvOs_5.mp4	0.0	236.00127506256104	0.1000070571899414
46	212.4066309928894	fix_pre	0		119	44.0	2.5	/experiments/aot/S_yt-I2n2eo2zoZs_112.mp4	0.0	236.10128211975098	0.9917240142822266
46	213.3901150226593	pulse	0	t		44.0	2.5	/experiments/aot/S_yt-I2n2eo2zoZs_112.mp4	0.0	237.08476614952087	
46	213.39835500717163	movie	1		301	44.0	2.5	/experiments/aot/S_yt-I2n2eo2zoZs_112.mp4	0.0	237.0930061340332	2.508253812789917
46	214.9900200366974	pulse	1	t		44.0	2.5	/experiments/aot/S_yt-I2n2eo2zoZs_112.mp4	0.0	238.68467116355896	
46	215.90660881996155	fix_post	2		12	44.0	2.5	/experiments/aot/S_yt-I2n2eo2zoZs_112.mp4	0.0	239.60125994682312	0.10010504722595215
47	216.0067138671875	fix_pre	0		120	45.0	2.5	/experiments/aot/S_wc-1MzpHfRq1MUK_32.mp4	0.0	239.70136499404907	0.9998900890350342
47	216.59005284309387	pulse	0	t		45.0	2.5	/experiments/aot/S_wc-1MzpHfRq1MUK_32.mp4	0.0	240.28470396995544	
47	217.00660395622253	movie	1		300	45.0	2.5	/experiments/aot/S_wc-1MzpHfRq1MUK_32.mp4	0.0	240.7012550830841	2.4999709129333496
47	218.18999099731445	pulse	1	t		45.0	2.5	/experiments/aot/S_wc-1MzpHfRq1MUK_32.mp4	0.0	241.88464212417603	
47	219.50657486915588	fix_post	2		12	45.0	2.5	/experiments/aot/S_wc-1MzpHfRq1MUK_32.mp4	0.0	243.20122599601746	0.10000300407409668
48	219.60657787322998	fix_pre	0		120	46.0	2.5	/experiments/aot/S_yt-mJzkLd3Mr_c_35.mp4	0.0	243.30122900009155	0.9999251365661621
48	219.79000902175903	pulse	0	t		46.0	2.5	/experiments/aot/S_yt-mJzkLd3Mr_c_35.mp4	0.0	243.4846601486206	
48	220.60650300979614	movie	1		300	46.0	2.5	/experiments/aot/S_yt-mJzkLd3Mr_c_35.mp4	0.0	244.30115413665771	2.500124931335449
48	221.39002895355225	pulse	1	t		46.0	2.5	/experiments/aot/S_yt-mJzkLd3Mr_c_35.mp4	0.0	245.08468008041382	
48	222.98964595794678	pulse	1	t		46.0	2.5	/experiments/aot/S_yt-mJzkLd3Mr_c_35.mp4	0.0	246.68429708480835	
48	223.1066279411316	fix_post	2		12	46.0	2.5	/experiments/aot/S_yt-mJzkLd3Mr_c_35.mp4	0.0	246.80127906799316	0.09996795654296875
49	223.20659589767456	fix_pre	0		120	47.0	2.5	/experiments/aot/R_S_yt-YlA-FPDylDE_100.mp4	0.0	246.90124702453613	1.0000381469726562
49	224.20663404464722	movie	1		299	47.0	2.5	/experiments/aot/R_S_yt-YlA-FPDylDE_100.mp4	0.0	247.9012851715088	2.4999818801879883
49	224.59003496170044	pulse	1	t		47.0	2.5	/experiments/aot/R_S_yt-YlA-FPDylDE_100.mp4	0.0	248.284686088562	
49	226.19004893302917	pulse	1	t		47.0	2.5	/experiments/aot/R_S_yt-YlA-FPDylDE_100.mp4	0.0	249.88470005989075	
49	226.7066159248352	fix_post	2		12	47.0	2.5	/experiments/aot/R_S_yt-YlA-FPDylDE_100.mp4	0.0	250.40126705169678	0.09993290901184082
50	226.80654883384705	fix_pre	0		119	48.0	2.5	/experiments/aot/S_pexels-koolshooters-7327405.mp4	0.0	250.50119996070862	0.9915900230407715
50	227.78996181488037	pulse	0	t		48.0	2.5	/experiments/aot/S_pexels-koolshooters-7327405.mp4	0.0	251.48461294174194	
50	227.79813885688782	movie	1		165	48.0	2.5	/experiments/aot/S_pexels-koolshooters-7327405.mp4	0.0	251.4927899837494	2.508406162261963
50	229.39010286331177	pulse	1	t		48.0	2.5	/experiments/aot/S_pexels-koolshooters-7327405.mp4	0.0	253.08475399017334	
50	230.30654501914978	fix_post	2		12	48.0	2.5	/experiments/aot/S_pexels-koolshooters-7327405.mp4	0.0	254.00119614601135	0.09999299049377441
51	230.40653800964355	fix_pre	0		120	49.0	2.5	blank	1.0	254.10118913650513	1.000079870223999
51	230.99002194404602	pulse	0	t		49.0	2.5	blank	1.0	254.6846730709076	
51	231.40661787986755	movie	1		300	49.0	2.5	blank	1.0	255.10126900672913	2.5000181198120117
51	232.59002995491028	pulse	1	t		49.0	2.5	blank	1.0	256.28468108177185	
51	233.90663599967957	fix_post	2		12	49.0	2.5	blank	1.0	257.60128712654114	0.09992384910583496
52	234.0065598487854	fix_pre	0		120	50.0	2.5	/experiments/aot/R_S_yt-I2n2eo2zoZs_112.mp4	0.0	257.701210975647	0.9999899864196777
52	234.18994688987732	pulse	0	t		50.0	2.5	/experiments/aot/R_S_yt-I2n2eo2zoZs_112.mp4	0.0	257.8845980167389	
52	235.00654983520508	movie	1		300	50.0	2.5	/experiments/aot/R_S_yt-I2n2eo2zoZs_112.mp4	0.0	258.70120096206665	2.4999210834503174
52	235.78996992111206	pulse	1	t		50.0	2.5	/experiments/aot/R_S_yt-I2n2eo2zoZs_112.mp4	0.0	259.48462104797363	
52	237.38995003700256	pulse	1	t		50.0	2.5	/experiments/aot/R_S_yt-I2n2eo2zoZs_112.mp4	0.0	261.08460116386414	
52	237.5064709186554	fix_post	2		12	50.0	2.5	/experiments/aot/R_S_yt-I2n2eo2zoZs_112.mp4	0.0	261.20112204551697	0.10008406639099121
53	237.6065549850464	fix_pre	0		120	51.0	2.5	/experiments/aot/S_yt-yPl8LcgSMjo_32.mp4	0.0	261.30120611190796	1.000011920928955
53	238.60656690597534	movie	1		300	51.0	2.5	/experiments/aot/S_yt-yPl8LcgSMjo_32.mp4	0.0	262.3012180328369	2.4999301433563232
53	238.98999094963074	pulse	1	t		51.0	2.5	/experiments/aot/S_yt-yPl8LcgSMjo_32.mp4	0.0	262.6846420764923	
53	240.58996081352234	pulse	1	t		51.0	2.5	/experiments/aot/S_yt-yPl8LcgSMjo_32.mp4	0.0	264.2846119403839	
53	241.10649704933167	fix_post	2		12	51.0	2.5	/experiments/aot/S_yt-yPl8LcgSMjo_32.mp4	0.0	264.80114817619324	0.09993982315063477
54	241.2064368724823	fix_pre	0		119	52.0	2.5	/experiments/aot/S_pexels-mart-production-7698693.mp4	0.0	264.9010879993439	0.991631031036377
54	242.18990302085876	pulse	0	t		52.0	2.5	/experiments/aot/S_pexels-mart-production-7698693.mp4	0.0	265.88455414772034	
54	242.19806790351868	movie	1		163	52.0	2.5	/experiments/aot/S_pexels-mart-production-7698693.mp4	0.0	265.89271903038025	2.5083999633789062
54	243.7892370223999	pulse	1	t		52.0	2.5	/experiments/aot/S_pexels-mart-production-7698693.mp4	0.0	267.4838881492615	
54	244.70646786689758	fix_post	2		12	52.0	2.5	/experiments/aot/S_pexels-mart-production-7698693.mp4	0.0	268.40111899375916	0.09999513626098633
55	244.80646300315857	fix_pre	0		120	53.0	2.5	/experiments/aot/R_S_flickr-51283549@N02-23064904264_16.mp4	0.0	268.50111413002014	0.9999959468841553
55	245.39002799987793	pulse	0	t		53.0	2.5	/experiments/aot/R_S_flickr-51283549@N02-23064904264_16.mp4	0.0	269.0846791267395	
55	245.80645895004272	movie	1		164	53.0	2.5	/experiments/aot/R_S_flickr-51283549@N02-23064904264_16.mp4	0.0	269.5011100769043	2.4999940395355225
55	246.99012303352356	pulse	1	t		53.0	2.5	/experiments/aot/R_S_flickr-51283549@N02-23064904264_16.mp4	0.0	270.68477416038513	
55	248.30645298957825	fix_post	2		12	53.0	2.5	/experiments/aot/R_S_flickr-51283549@N02-23064904264_16.mp4	0.0	272.0011041164398	0.0999288558959961
56	248.40638184547424	fix_pre	0		120	54.0	2.5	blank	1.0	272.1010329723358	1.0000920295715332
56	248.5898609161377	pulse	0	t		54.0	2.5	blank	1.0	272.28451204299927	
56	249.40647387504578	movie	1		300	54.0	2.5	blank	1.0	273.10112500190735	2.4998719692230225
56	250.189954996109	pulse	1	t		54.0	2.5	blank	1.0	273.8846061229706	
56	251.78984689712524	pulse	1	t		54.0	2.5	blank	1.0	275.4844980239868	
56	251.9063458442688	fix_post	2		12	54.0	2.5	blank	1.0	275.60099697113037	0.10001897811889648
57	252.0063648223877	fix_pre	0		120	55.0	2.5	/experiments/aot/R_S_yt-lCb_efvJcdE_5.mp4	0.0	275.70101594924927	1.0000441074371338
57	253.00640892982483	movie	1		300	55.0	2.5	/experiments/aot/R_S_yt-lCb_efvJcdE_5.mp4	0.0	276.7010600566864	2.500067949295044
57	253.38985896110535	pulse	1	t		55.0	2.5	/experiments/aot/R_S_yt-lCb_efvJcdE_5.mp4	0.0	277.0845100879669	
57	254.9899389743805	pulse	1	t		55.0	2.5	/experiments/aot/R_S_yt-lCb_efvJcdE_5.mp4	0.0	278.68459010124207	
57	255.50647687911987	fix_post	2		12	55.0	2.5	/experiments/aot/R_S_yt-lCb_efvJcdE_5.mp4	0.0	279.20112800598145	0.09995102882385254
58	255.60642790794373	fix_pre	0		119	56.0	2.5	/experiments/aot/S_yt-lEPoNlKWibA_1.mp4	0.0	279.3010790348053	0.9916551113128662
58	256.58992195129395	pulse	0	t		56.0	2.5	/experiments/aot/S_yt-lEPoNlKWibA_1.mp4	0.0	280.2845730781555	
58	256.5980830192566	movie	1		301	56.0	2.5	/experiments/aot/S_yt-lEPoNlKWibA_1.mp4	0.0	280.29273414611816	2.5082688331604004
58	258.18983793258667	pulse	1	t		56.0	2.5	/experiments/aot/S_yt-lEPoNlKWibA_1.mp4	0.0	281.88448905944824	
58	259.106351852417	fix_post	2		12	56.0	2.5	/experiments/aot/S_yt-lEPoNlKWibA_1.mp4	0.0	282.80100297927856	0.10011410713195801
59	259.20646595954895	fix_pre	0		120	57.0	2.5	/experiments/aot/S_yt-aiDGx4AN8J0_9.mp4	0.0	282.9011170864105	0.999871015548706
59	259.7898700237274	pulse	0	t		57.0	2.5	/experiments/aot/S_yt-aiDGx4AN8J0_9.mp4	0.0	283.484521150589	
59	260.20633697509766	movie	1		300	57.0	2.5	/experiments/aot/S_yt-aiDGx4AN8J0_9.mp4	0.0	283.90098810195923	2.500185966491699
59	261.38999485969543	pulse	1	t		57.0	2.5	/experiments/aot/S_yt-aiDGx4AN8J0_9.mp4	0.0	285.084645986557	
59	262.70652294158936	fix_post	2		12	57.0	2.5	/experiments/aot/S_yt-aiDGx4AN8J0_9.mp4	0.0	286.4011740684509	0.0999150276184082
60	262.80643796920776	fix_pre	0		120	58.0	2.5	/experiments/aot/S_yt-gMqeZkpA_1Q_61.mp4	0.0	286.50108909606934	1.0000178813934326
60	262.9898648262024	pulse	0	t		58.0	2.5	/experiments/aot/S_yt-gMqeZkpA_1Q_61.mp4	0.0	286.68451595306396	
60	263.8064558506012	movie	1		300	58.0	2.5	/experiments/aot/S_yt-gMqeZkpA_1Q_61.mp4	0.0	287.50110697746277	2.4997739791870117
60	264.58938097953796	pulse	1	t		58.0	2.5	/experiments/aot/S_yt-gMqeZkpA_1Q_61.mp4	0.0	288.28403210639954	
60	266.19015884399414	pulse	1	t		58.0	2.5	/experiments/aot/S_yt-gMqeZkpA_1Q_61.mp4	0.0	289.8848099708557	
60	266.3062298297882	fix_post	2		12	58.0	2.5	/experiments/aot/S_yt-gMqeZkpA_1Q_61.mp4	0.0	290.0008809566498	0.1004490852355957
61	266.4066789150238	fix_pre	0		120	59.0	2.5	/experiments/aot/R_S_pexels-roman-odintsov-8231493.mp4	0.0	290.1013300418854	0.9996829032897949
61	267.4063618183136	movie	1		162	59.0	2.5	/experiments/aot/R_S_pexels-roman-odintsov-8231493.mp4	0.0	291.10101294517517	2.500007152557373
61	267.7897219657898	pulse	1	t		59.0	2.5	/experiments/aot/R_S_pexels-roman-odintsov-8231493.mp4	0.0	291.48437309265137	
61	269.3888349533081	pulse	1	t		59.0	2.5	/experiments/aot/R_S_pexels-roman-odintsov-8231493.mp4	0.0	293.0834860801697	
61	269.906368970871	fix_post	2		12	59.0	2.5	/experiments/aot/R_S_pexels-roman-odintsov-8231493.mp4	0.0	293.60102009773254	0.09999203681945801
62	270.00636100769043	fix_pre	0		119	60.0	2.5	/experiments/aot/S_yt-zKnjBBYWe90_369.mp4	0.0	293.701012134552	0.9916329383850098
62	270.98983883857727	pulse	0	t		60.0	2.5	/experiments/aot/S_yt-zKnjBBYWe90_369.mp4	0.0	294.68448996543884	
62	270.99799394607544	movie	1		301	60.0	2.5	/experiments/aot/S_yt-zKnjBBYWe90_369.mp4	0.0	294.692645072937	2.5083160400390625
62	272.5897488594055	pulse	1	t		60.0	2.5	/experiments/aot/S_yt-zKnjBBYWe90_369.mp4	0.0	296.2843999862671	
62	273.5063099861145	fix_post	2		12	60.0	2.5	/experiments/aot/S_yt-zKnjBBYWe90_369.mp4	0.0	297.2009611129761	0.10002994537353516
63	273.60633993148804	fix_pre	0		120	61.0	2.5	/experiments/aot/S_ILSVRC2015_train_00745000.mp4	0.0	297.3009910583496	0.9999599456787109
63	274.18978691101074	pulse	0	t		61.0	2.5	/experiments/aot/S_ILSVRC2015_train_00745000.mp4	0.0	297.8844380378723	
63	274.60629987716675	movie	1		300	61.0	2.5	/experiments/aot/S_ILSVRC2015_train_00745000.mp4	0.0	298.3009510040283	2.4999799728393555
63	275.7897238731384	pulse	1	t		61.0	2.5	/experiments/aot/S_ILSVRC2015_train_00745000.mp4	0.0	299.484375	
63	277.1062798500061	fix_post	2		12	61.0	2.5	/experiments/aot/S_ILSVRC2015_train_00745000.mp4	0.0	300.8009309768677	0.09998798370361328
64	277.2062678337097	fix_pre	0		120	62.0	2.5	/experiments/aot/S_3dzza09VbXY_235.mp4	0.0	300.9009189605713	1.0000190734863281
64	277.3897578716278	pulse	0	t		62.0	2.5	/experiments/aot/S_3dzza09VbXY_235.mp4	0.0	301.0844089984894	
64	278.20628690719604	movie	1		300	62.0	2.5	/experiments/aot/S_3dzza09VbXY_235.mp4	0.0	301.9009380340576	2.500009059906006
64	278.9898679256439	pulse	1	t		62.0	2.5	/experiments/aot/S_3dzza09VbXY_235.mp4	0.0	302.6845190525055	
64	280.5893428325653	pulse	1	t		62.0	2.5	/experiments/aot/S_3dzza09VbXY_235.mp4	0.0	304.2839939594269	
64	280.70629596710205	fix_post	2		12	62.0	2.5	/experiments/aot/S_3dzza09VbXY_235.mp4	0.0	304.4009470939636	0.09998106956481934
65	280.80627703666687	fix_pre	0		120	63.0	2.5	blank	1.0	304.50092816352844	1.0000269412994385
65	281.8063039779663	movie	1		300	63.0	2.5	blank	1.0	305.5009551048279	2.4999659061431885
65	282.18982195854187	pulse	1	t		63.0	2.5	blank	1.0	305.88447308540344	
65	283.789675951004	pulse	1	t		63.0	2.5	blank	1.0	307.4843270778656	
65	284.3062698841095	fix_post	2		12	63.0	2.5	blank	1.0	308.00092101097107	0.09994101524353027
66	284.406210899353	fix_pre	0		119	64.0	2.5	/experiments/aot/R_S_yt-McqS-QObQbk_122.mp4	0.0	308.1008620262146	0.9916589260101318
66	285.3896770477295	pulse	0	t		64.0	2.5	/experiments/aot/R_S_yt-McqS-QObQbk_122.mp4	0.0	309.08432817459106	
66	285.39786982536316	movie	1		301	64.0	2.5	/experiments/aot/R_S_yt-McqS-QObQbk_122.mp4	0.0	309.09252095222473	2.5084052085876465
66	286.9897379875183	pulse	1	t		64.0	2.5	/experiments/aot/R_S_yt-McqS-QObQbk_122.mp4	0.0	310.6843891143799	
66	287.9062750339508	fix_post	2		12	64.0	2.5	/experiments/aot/R_S_yt-McqS-QObQbk_122.mp4	0.0	311.6009261608124	0.09986400604248047
67	288.0061390399933	fix_pre	0		120	65.0	2.5	/experiments/aot/R_S_comp_GMT060_117NC_363D_1034_AUSTRALIA_v35_SDR_PS_FINAL_20180731_SDR_2K_AVC.mp4	0.0	311.70079016685486	1.0001227855682373
67	288.5897378921509	pulse	0	t		65.0	2.5	/experiments/aot/R_S_comp_GMT060_117NC_363D_1034_AUSTRALIA_v35_SDR_PS_FINAL_20180731_SDR_2K_AVC.mp4	0.0	312.28438901901245	
67	289.0062618255615	movie	1		165	65.0	2.5	/experiments/aot/R_S_comp_GMT060_117NC_363D_1034_AUSTRALIA_v35_SDR_PS_FINAL_20180731_SDR_2K_AVC.mp4	0.0	312.7009129524231	2.4999611377716064
67	290.18976497650146	pulse	1	t		65.0	2.5	/experiments/aot/R_S_comp_GMT060_117NC_363D_1034_AUSTRALIA_v35_SDR_PS_FINAL_20180731_SDR_2K_AVC.mp4	0.0	313.88441610336304	
67	291.50622296333313	fix_post	2		12	65.0	2.5	/experiments/aot/R_S_comp_GMT060_117NC_363D_1034_AUSTRALIA_v35_SDR_PS_FINAL_20180731_SDR_2K_AVC.mp4	0.0	315.2008740901947	0.10000205039978027
68	291.6062250137329	fix_pre	0		120	66.0	2.5	/experiments/aot/S_yt-mHLTJkMrkZI_143.mp4	0.0	315.3008761405945	1.0001699924468994
68	291.7897880077362	pulse	0	t		66.0	2.5	/experiments/aot/S_yt-mHLTJkMrkZI_143.mp4	0.0	315.4844391345978	
68	292.6063950061798	movie	1		300	66.0	2.5	/experiments/aot/S_yt-mHLTJkMrkZI_143.mp4	0.0	316.3010461330414	2.4998438358306885
68	293.38972902297974	pulse	1	t		66.0	2.5	/experiments/aot/S_yt-mHLTJkMrkZI_143.mp4	0.0	317.0843801498413	
68	294.98978900909424	pulse	1	t		66.0	2.5	/experiments/aot/S_yt-mHLTJkMrkZI_143.mp4	0.0	318.6844401359558	
68	295.1062388420105	fix_post	2		12	66.0	2.5	/experiments/aot/S_yt-mHLTJkMrkZI_143.mp4	0.0	318.80088996887207	0.10004997253417969
69	295.2062888145447	fix_pre	0		120	67.0	2.5	/experiments/aot/R_S_yt-GfPep7IhZIU_47.mp4	0.0	318.90093994140625	0.9999401569366455
69	296.2062289714813	movie	1		300	67.0	2.5	/experiments/aot/R_S_yt-GfPep7IhZIU_47.mp4	0.0	319.9008800983429	2.4999489784240723
69	296.58964681625366	pulse	1	t		67.0	2.5	/experiments/aot/R_S_yt-GfPep7IhZIU_47.mp4	0.0	320.28429794311523	
69	298.18976497650146	pulse	1	t		67.0	2.5	/experiments/aot/R_S_yt-GfPep7IhZIU_47.mp4	0.0	321.88441610336304	
69	298.7061779499054	fix_post	2		12	67.0	2.5	/experiments/aot/R_S_yt-GfPep7IhZIU_47.mp4	0.0	322.40082907676697	0.09992098808288574
70	298.8060989379883	fix_pre	0		119	68.0	2.5	/experiments/aot/S_yt--JnTDuElzXQ_121.mp4	0.0	322.50075006484985	0.9916980266571045
70	299.7897639274597	pulse	0	t		68.0	2.5	/experiments/aot/S_yt--JnTDuElzXQ_121.mp4	0.0	323.4844150543213	
70	299.7977969646454	movie	1		301	68.0	2.5	/experiments/aot/S_yt--JnTDuElzXQ_121.mp4	0.0	323.49244809150696	2.50839900970459
70	301.3897190093994	pulse	1	t		68.0	2.5	/experiments/aot/S_yt--JnTDuElzXQ_121.mp4	0.0	325.084370136261	
70	302.30619597435	fix_post	2		12	68.0	2.5	/experiments/aot/S_yt--JnTDuElzXQ_121.mp4	0.0	326.00084710121155	0.10002589225769043
71	302.40622186660767	fix_pre	0		120	69.0	2.5	/experiments/aot/S_yt-qazCIJqjxUU_3.mp4	0.0	326.10087299346924	0.9999129772186279
71	302.98966884613037	pulse	0	t		69.0	2.5	/experiments/aot/S_yt-qazCIJqjxUU_3.mp4	0.0	326.68431997299194	
71	303.4061348438263	movie	1		300	69.0	2.5	/experiments/aot/S_yt-qazCIJqjxUU_3.mp4	0.0	327.10078597068787	2.5000600814819336
71	304.5896499156952	pulse	1	t		69.0	2.5	/experiments/aot/S_yt-qazCIJqjxUU_3.mp4	0.0	328.28430104255676	
71	305.9061949253082	fix_post	2		12	69.0	2.5	/experiments/aot/S_yt-qazCIJqjxUU_3.mp4	0.0	329.6008460521698	0.0999441146850586
72	306.0061390399933	fix_pre	0		120	70.0	2.5	blank	1.0	329.70079016685486	1.0000817775726318
72	306.18968296051025	pulse	0	t		70.0	2.5	blank	1.0	329.8843340873718	
72	307.0062208175659	movie	1		300	70.0	2.5	blank	1.0	330.7008719444275	2.499988079071045
72	307.7896628379822	pulse	1	t		70.0	2.5	blank	1.0	331.48431396484375	
72	309.3896179199219	pulse	1	t		70.0	2.5	blank	1.0	333.08426904678345	
72	309.50620889663696	fix_post	2		12	70.0	2.5	blank	1.0	333.20086002349854	0.09995603561401367
73	309.606164932251	fix_pre	0		120	71.0	2.5	/experiments/aot/S_yt-w_e3sxIzepA_115.mp4	0.0	333.30081605911255	0.9999709129333496
73	310.6061358451843	movie	1		300	71.0	2.5	/experiments/aot/S_yt-w_e3sxIzepA_115.mp4	0.0	334.3007869720459	2.500028133392334
73	310.9895520210266	pulse	1	t		71.0	2.5	/experiments/aot/S_yt-w_e3sxIzepA_115.mp4	0.0	334.6842031478882	
73	312.58964490890503	pulse	1	t		71.0	2.5	/experiments/aot/S_yt-w_e3sxIzepA_115.mp4	0.0	336.2842960357666	
73	313.10616397857666	fix_post	2		12	71.0	2.5	/experiments/aot/S_yt-w_e3sxIzepA_115.mp4	0.0	336.80081510543823	0.09990286827087402
74	313.20606684684753	fix_pre	0		119	72.0	2.5	/experiments/aot/R_S_ILSVRC2015_train_00396000.mp4	0.0	336.9007179737091	0.9916701316833496
74	314.1896460056305	pulse	0	t		72.0	2.5	/experiments/aot/R_S_ILSVRC2015_train_00396000.mp4	0.0	337.88429713249207	
74	314.1977369785309	movie	1		301	72.0	2.5	/experiments/aot/R_S_ILSVRC2015_train_00396000.mp4	0.0	337.89238810539246	2.5084118843078613
74	315.7897069454193	pulse	1	t		72.0	2.5	/experiments/aot/R_S_ILSVRC2015_train_00396000.mp4	0.0	339.4843580722809	
74	316.70614886283875	fix_post	2		12	72.0	2.5	/experiments/aot/R_S_ILSVRC2015_train_00396000.mp4	0.0	340.4007999897003	0.10001802444458008
75	316.8061668872833	fix_pre	0		120	73.0	2.5	/experiments/aot/S_yt-K_gHa2x2OQA_319.mp4	0.0	340.5008180141449	0.9999070167541504
75	317.38964200019836	pulse	0	t		73.0	2.5	/experiments/aot/S_yt-K_gHa2x2OQA_319.mp4	0.0	341.08429312705994	
75	317.8060739040375	movie	1		300	73.0	2.5	/experiments/aot/S_yt-K_gHa2x2OQA_319.mp4	0.0	341.50072503089905	2.499656915664673
75	318.98953890800476	pulse	1	t		73.0	2.5	/experiments/aot/S_yt-K_gHa2x2OQA_319.mp4	0.0	342.68419003486633	
75	320.30573081970215	fix_post	2		12	73.0	2.5	/experiments/aot/S_yt-K_gHa2x2OQA_319.mp4	0.0	344.0003819465637	0.10040521621704102
76	320.4061360359192	fix_pre	0		120	74.0	2.5	/experiments/aot/S_yt-Gc1p5CnDbDY_22.mp4	0.0	344.10078716278076	1.000093936920166
76	320.58922004699707	pulse	0	t		74.0	2.5	/experiments/aot/S_yt-Gc1p5CnDbDY_22.mp4	0.0	344.28387117385864	
76	321.40622997283936	movie	1		300	74.0	2.5	/experiments/aot/S_yt-Gc1p5CnDbDY_22.mp4	0.0	345.1008810997009	2.4999430179595947
76	322.1893730163574	pulse	1	t		74.0	2.5	/experiments/aot/S_yt-Gc1p5CnDbDY_22.mp4	0.0	345.884024143219	
76	323.78952383995056	pulse	1	t		74.0	2.5	/experiments/aot/S_yt-Gc1p5CnDbDY_22.mp4	0.0	347.48417496681213	
76	323.90617299079895	fix_post	2		12	74.0	2.5	/experiments/aot/S_yt-Gc1p5CnDbDY_22.mp4	0.0	347.6008241176605	0.0999898910522461
77	324.0061628818512	fix_pre	0		120	75.0	2.5	/experiments/aot/S_ILSVRC2015_train_00396000.mp4	0.0	347.70081400871277	0.9998879432678223
77	325.006050825119	movie	1		300	75.0	2.5	/experiments/aot/S_ILSVRC2015_train_00396000.mp4	0.0	348.7007019519806	2.500035047531128
77	325.38953399658203	pulse	1	t		75.0	2.5	/experiments/aot/S_ILSVRC2015_train_00396000.mp4	0.0	349.0841851234436	
77	326.989483833313	pulse	1	t		75.0	2.5	/experiments/aot/S_ILSVRC2015_train_00396000.mp4	0.0	350.68413496017456	
77	327.50608587265015	fix_post	2		12	75.0	2.5	/experiments/aot/S_ILSVRC2015_train_00396000.mp4	0.0	351.2007369995117	0.10004305839538574
78	327.60612893104553	fix_pre	0		119	76.0	2.5	/experiments/aot/S_ioSkDvwpEaU_35.mp4	0.0	351.3007800579071	0.9915080070495605
78	328.5894968509674	pulse	0	t		76.0	2.5	/experiments/aot/S_ioSkDvwpEaU_35.mp4	0.0	352.284147977829	
78	328.5976369380951	movie	1		301	76.0	2.5	/experiments/aot/S_ioSkDvwpEaU_35.mp4	0.0	352.29228806495667	2.5083858966827393
78	330.18951201438904	pulse	1	t		76.0	2.5	/experiments/aot/S_ioSkDvwpEaU_35.mp4	0.0	353.8841631412506	
78	331.10602283477783	fix_post	2		12	76.0	2.5	/experiments/aot/S_ioSkDvwpEaU_35.mp4	0.0	354.8006739616394	0.10028409957885742
79	331.2063069343567	fix_pre	0		120	77.0	2.5	blank	1.0	354.90095806121826	0.9997360706329346
79	331.7895128726959	pulse	0	t		77.0	2.5	blank	1.0	355.4841639995575	
79	332.2060430049896	movie	1		300	77.0	2.5	blank	1.0	355.9006941318512	2.4999778270721436
79	333.3894898891449	pulse	1	t		77.0	2.5	blank	1.0	357.08414101600647	
79	334.70602083206177	fix_post	2		12	77.0	2.5	blank	1.0	358.40067195892334	0.10001301765441895
80	334.8060338497162	fix_pre	0		120	78.0	2.5	/experiments/aot/S_pexels-roman-odintsov-8231493.mp4	0.0	358.50068497657776	0.9999630451202393
80	334.98948884010315	pulse	0	t		78.0	2.5	/experiments/aot/S_pexels-roman-odintsov-8231493.mp4	0.0	358.6841399669647	
80	335.8059968948364	movie	1		165	78.0	2.5	/experiments/aot/S_pexels-roman-odintsov-8231493.mp4	0.0	359.500648021698	2.4999759197235107
80	336.5895278453827	pulse	1	t		78.0	2.5	/experiments/aot/S_pexels-roman-odintsov-8231493.mp4	0.0	360.28417897224426	
80	338.1894910335541	pulse	1	t		78.0	2.5	/experiments/aot/S_pexels-roman-odintsov-8231493.mp4	0.0	361.88414216041565	
80	338.30597281455994	fix_post	2		12	78.0	2.5	/experiments/aot/S_pexels-roman-odintsov-8231493.mp4	0.0	362.0006239414215	0.100006103515625
81	338.40597891807556	fix_pre	0		120	79.0	2.5	/experiments/aot/R_S_ahJft-G235A_122.mp4	0.0	362.10063004493713	1.0000231266021729
81	339.40600204467773	movie	1		300	79.0	2.5	/experiments/aot/R_S_ahJft-G235A_122.mp4	0.0	363.1006531715393	2.5000247955322266
81	339.78952288627625	pulse	1	t		79.0	2.5	/experiments/aot/R_S_ahJft-G235A_122.mp4	0.0	363.4841740131378	
81	341.3894729614258	pulse	1	t		79.0	2.5	/experiments/aot/R_S_ahJft-G235A_122.mp4	0.0	365.08412408828735	
81	341.90602684020996	fix_post	2		12	79.0	2.5	/experiments/aot/R_S_ahJft-G235A_122.mp4	0.0	365.60067796707153	0.09990906715393066
82	342.0059359073639	fix_pre	0		119	80.0	2.5	/experiments/aot/R_S_yt-Q5Mfl5NdT7g_3.mp4	0.0	365.70058703422546	0.9916629791259766
82	342.9894919395447	pulse	0	t		80.0	2.5	/experiments/aot/R_S_yt-Q5Mfl5NdT7g_3.mp4	0.0	366.68414306640625	
82	342.99759888648987	movie	1		301	80.0	2.5	/experiments/aot/R_S_yt-Q5Mfl5NdT7g_3.mp4	0.0	366.69225001335144	2.5084221363067627
82	344.5895779132843	pulse	1	t		80.0	2.5	/experiments/aot/R_S_yt-Q5Mfl5NdT7g_3.mp4	0.0	368.2842290401459	
82	345.50602102279663	fix_post	2		12	80.0	2.5	/experiments/aot/R_S_yt-Q5Mfl5NdT7g_3.mp4	0.0	369.2006721496582	0.09997081756591797
83	345.60599184036255	fix_pre	0		120	81.0	2.5	/experiments/aot/R_S_yt-9t5-3Qe_t9A_591.mp4	0.0	369.3006429672241	1.000020980834961
83	346.1894919872284	pulse	0	t		81.0	2.5	/experiments/aot/R_S_yt-9t5-3Qe_t9A_591.mp4	0.0	369.88414311408997	
83	346.6060128211975	movie	1		300	81.0	2.5	/experiments/aot/R_S_yt-9t5-3Qe_t9A_591.mp4	0.0	370.3006639480591	2.499922037124634
83	347.78944087028503	pulse	1	t		81.0	2.5	/experiments/aot/R_S_yt-9t5-3Qe_t9A_591.mp4	0.0	371.4840919971466	
83	349.10593485832214	fix_post	2		12	81.0	2.5	/experiments/aot/R_S_yt-9t5-3Qe_t9A_591.mp4	0.0	372.8005859851837	0.09999608993530273
84	349.20593094825745	fix_pre	0		120	82.0	2.5	blank	1.0	372.900582075119	1.0000290870666504
84	349.3894639015198	pulse	0	t		82.0	2.5	blank	1.0	373.08411502838135	
84	350.2059600353241	movie	1		300	82.0	2.5	blank	1.0	373.90061116218567	2.500001907348633
84	350.989501953125	pulse	1	t		82.0	2.5	blank	1.0	374.6841530799866	
84	352.5894420146942	pulse	1	t		82.0	2.5	blank	1.0	376.2840931415558	
84	352.70596194267273	fix_post	2		12	82.0	2.5	blank	1.0	376.4006130695343	0.09999203681945801
85	352.8059539794922	fix_pre	0		120	83.0	2.5	/experiments/aot/S_yt-pOCEuqVE7ro_61.mp4	0.0	376.50060510635376	1.0000488758087158
85	353.8060028553009	movie	1		299	83.0	2.5	/experiments/aot/S_yt-pOCEuqVE7ro_61.mp4	0.0	377.5006539821625	2.499937057495117
85	354.18938088417053	pulse	1	t		83.0	2.5	/experiments/aot/S_yt-pOCEuqVE7ro_61.mp4	0.0	377.8840320110321	
85	355.78933000564575	pulse	1	t		83.0	2.5	/experiments/aot/S_yt-pOCEuqVE7ro_61.mp4	0.0	379.4839811325073	
85	356.305939912796	fix_post	2		12	83.0	2.5	/experiments/aot/S_yt-pOCEuqVE7ro_61.mp4	0.0	380.0005910396576	0.09993910789489746
87	356.4058790206909	stim	0		1716					380.1005301475525	14.299908876419067
87	357.3893859386444	pulse	0	t						381.084037065506	
87	358.98935985565186	pulse	0	t						382.6840109825134	
87	360.5893039703369	pulse	0	t						384.2839550971985	
87	362.18937492370605	pulse	0	t						385.8840260505676	
87	363.7893078327179	pulse	0	t						387.48395895957947	
87	365.3893280029297	pulse	0	t						389.08397912979126	
87	366.9893708229065	pulse	0	t						390.68402194976807	
87	368.5894470214844	pulse	0	t						392.28409814834595	
87	370.1893298625946	pulse	0	t						393.8839809894562	
