trial_nr	onset	event_type	phase	response	nr_frames	movie_index	movie_duration	movie_file	blank	onset_abs	duration
0	0.16653180122375488	stim	0		14					20.324188947677612	0.12492132186889648
0	0.2833442687988281	response	0	space						20.441001415252686	
1	0.29145312309265137	stim	0		4666					20.44911026954651	38.900052309036255
1	39.17519974708557	pulse	0	t						59.33285689353943	
1	39.191505432128906	stim	1		1714					59.349162578582764	14.299667358398438
1	40.772772550582886	pulse	1	t						60.93042969703674	
1	42.37307953834534	pulse	1	t						62.530736684799194	
1	43.973284006118774	pulse	1	t						64.13094115257263	
1	45.57348370552063	pulse	1	t						65.73114085197449	
1	47.17370939254761	pulse	1	t						67.33136653900146	
1	48.77409029006958	pulse	1	t						68.93174743652344	
1	50.37433886528015	pulse	1	t						70.53199601173401	
1	51.97454881668091	pulse	1	t						72.13220596313477	
2	53.491172790527344	fix_pre	0		11	0.0	2.5	/experiments/knapen_AOT/AOT_stimuli/rescaled_final/0014_rv.mp4	0.0	73.6488299369812	0.11672115325927734
2	53.567604780197144	pulse	0	t		0.0	2.5	/experiments/knapen_AOT/AOT_stimuli/rescaled_final/0014_rv.mp4	0.0	73.725261926651	
2	53.60789394378662	movie	1		284	0.0	2.5	/experiments/knapen_AOT/AOT_stimuli/rescaled_final/0014_rv.mp4	0.0	73.76555109024048	2.483858823776245
2	55.17344522476196	pulse	1	t		0.0	2.5	/experiments/knapen_AOT/AOT_stimuli/rescaled_final/0014_rv.mp4	0.0	75.33110237121582	
2	56.091752767562866	fix_post	2		12	0.0	2.5	/experiments/knapen_AOT/AOT_stimuli/rescaled_final/0014_rv.mp4	0.0	76.24940991401672	0.09989094734191895
3	56.191643714904785	fix_pre	0		120	1.0	2.5	/experiments/knapen_AOT/AOT_stimuli/rescaled_final/0389_rv.mp4	0.0	76.34930086135864	1.0084426403045654
3	56.76745247840881	pulse	0	t		1.0	2.5	/experiments/knapen_AOT/AOT_stimuli/rescaled_final/0389_rv.mp4	0.0	76.92510962486267	
3	57.20008635520935	movie	1		257	1.0	2.5	/experiments/knapen_AOT/AOT_stimuli/rescaled_final/0389_rv.mp4	0.0	77.35774350166321	2.492443799972534
3	58.36712312698364	pulse	1	t		1.0	2.5	/experiments/knapen_AOT/AOT_stimuli/rescaled_final/0389_rv.mp4	0.0	78.5247802734375	
3	59.692530155181885	fix_post	2		12	1.0	2.5	/experiments/knapen_AOT/AOT_stimuli/rescaled_final/0389_rv.mp4	0.0	79.85018730163574	0.0995934009552002
4	59.792123556137085	fix_pre	0		120	2.0	2.5	/experiments/knapen_AOT/AOT_stimuli/rescaled_final/1474_fw.mp4	0.0	79.94978070259094	1.0084800720214844
4	59.96737217903137	pulse	0	t		2.0	2.5	/experiments/knapen_AOT/AOT_stimuli/rescaled_final/1474_fw.mp4	0.0	80.12502932548523	
4	60.80060362815857	movie	1		251	2.0	2.5	/experiments/knapen_AOT/AOT_stimuli/rescaled_final/1474_fw.mp4	0.0	80.95826077461243	2.4921584129333496
4	61.56787395477295	pulse	1	t		2.0	2.5	/experiments/knapen_AOT/AOT_stimuli/rescaled_final/1474_fw.mp4	0.0	81.7255311012268	
4	63.16815543174744	pulse	1	t		2.0	2.5	/experiments/knapen_AOT/AOT_stimuli/rescaled_final/1474_fw.mp4	0.0	83.3258125782013	
4	63.29276204109192	fix_post	2		12	2.0	2.5	/experiments/knapen_AOT/AOT_stimuli/rescaled_final/1474_fw.mp4	0.0	83.45041918754578	0.0998988151550293
5	63.39266085624695	fix_pre	0		120	3.0	2.5	/experiments/knapen_AOT/AOT_stimuli/rescaled_final/0983_rv.mp4	0.0	83.5503180027008	1.0086495876312256
5	64.40131044387817	movie	1		266	3.0	2.5	/experiments/knapen_AOT/AOT_stimuli/rescaled_final/0983_rv.mp4	0.0	84.55896759033203	2.492035388946533
5	64.76807689666748	pulse	1	t		3.0	2.5	/experiments/knapen_AOT/AOT_stimuli/rescaled_final/0983_rv.mp4	0.0	84.92573404312134	
5	66.36837577819824	pulse	1	t		3.0	2.5	/experiments/knapen_AOT/AOT_stimuli/rescaled_final/0983_rv.mp4	0.0	86.5260329246521	
5	66.8933458328247	fix_post	2		12	3.0	2.5	/experiments/knapen_AOT/AOT_stimuli/rescaled_final/0983_rv.mp4	0.0	87.05100297927856	0.10000848770141602
6	66.99335432052612	fix_pre	0		118	4.0	2.5	/experiments/knapen_AOT/AOT_stimuli/rescaled_final/1531_fw.mp4	0.0	87.15101146697998	0.9916431903839111
6	67.96856737136841	pulse	0	t		4.0	2.5	/experiments/knapen_AOT/AOT_stimuli/rescaled_final/1531_fw.mp4	0.0	88.12622451782227	
6	67.98499751091003	movie	1		263	4.0	2.5	/experiments/knapen_AOT/AOT_stimuli/rescaled_final/1531_fw.mp4	0.0	88.14265465736389	2.5003957748413086
6	69.56816220283508	pulse	1	t		4.0	2.5	/experiments/knapen_AOT/AOT_stimuli/rescaled_final/1531_fw.mp4	0.0	89.72581934928894	
6	70.48539328575134	fix_post	2		12	4.0	2.5	/experiments/knapen_AOT/AOT_stimuli/rescaled_final/1531_fw.mp4	0.0	90.6430504322052	0.10002255439758301
7	70.58541584014893	fix_pre	0		120	5.0	2.5	/experiments/knapen_AOT/AOT_stimuli/rescaled_final/0174_rv.mp4	0.0	90.74307298660278	1.0085217952728271
7	71.16906690597534	pulse	0	t		5.0	2.5	/experiments/knapen_AOT/AOT_stimuli/rescaled_final/0174_rv.mp4	0.0	91.3267240524292	
7	71.59393763542175	movie	1		279	5.0	2.5	/experiments/knapen_AOT/AOT_stimuli/rescaled_final/0174_rv.mp4	0.0	91.75159478187561	2.492021322250366
7	72.76746892929077	pulse	1	t		5.0	2.5	/experiments/knapen_AOT/AOT_stimuli/rescaled_final/0174_rv.mp4	0.0	92.92512607574463	
7	74.08595895767212	fix_post	2		12	5.0	2.5	/experiments/knapen_AOT/AOT_stimuli/rescaled_final/0174_rv.mp4	0.0	94.24361610412598	0.09998011589050293
8	74.18593907356262	fix_pre	0		120	6.0	2.5	/experiments/knapen_AOT/AOT_stimuli/rescaled_final/0954_rv.mp4	0.0	94.34359622001648	1.008617877960205
8	74.36961054801941	pulse	0	t		6.0	2.5	/experiments/knapen_AOT/AOT_stimuli/rescaled_final/0954_rv.mp4	0.0	94.52726769447327	
8	75.19455695152283	movie	1		271	6.0	2.5	/experiments/knapen_AOT/AOT_stimuli/rescaled_final/0954_rv.mp4	0.0	95.35221409797668	2.4920074939727783
8	75.96946048736572	pulse	1	t		6.0	2.5	/experiments/knapen_AOT/AOT_stimuli/rescaled_final/0954_rv.mp4	0.0	96.12711763381958	
8	77.56910157203674	pulse	1	t		6.0	2.5	/experiments/knapen_AOT/AOT_stimuli/rescaled_final/0954_rv.mp4	0.0	97.7267587184906	
8	77.6865644454956	fix_post	2		12	6.0	2.5	/experiments/knapen_AOT/AOT_stimuli/rescaled_final/0954_rv.mp4	0.0	97.84422159194946	0.09992551803588867
9	77.7864899635315	fix_pre	0		120	7.0	2.5	blank	1.0	97.94414710998535	1.0001440048217773
9	78.78663396835327	movie	1		300	7.0	2.5	blank	1.0	98.94429111480713	2.5003795623779297
9	79.17028498649597	pulse	1	t		7.0	2.5	blank	1.0	99.32794213294983	
9	80.77053618431091	pulse	1	t		7.0	2.5	blank	1.0	100.92819333076477	
9	81.2870135307312	fix_post	2		12	7.0	2.5	blank	1.0	101.44467067718506	0.10038232803344727
10	81.38739585876465	fix_pre	0		119	8.0	2.5	/experiments/knapen_AOT/AOT_stimuli/rescaled_final/1913_rv.mp4	0.0	101.5450530052185	0.9998297691345215
10	82.37070083618164	pulse	0	t		8.0	2.5	/experiments/knapen_AOT/AOT_stimuli/rescaled_final/1913_rv.mp4	0.0	102.5283579826355	
10	82.38722562789917	movie	1		269	8.0	2.5	/experiments/knapen_AOT/AOT_stimuli/rescaled_final/1913_rv.mp4	0.0	102.54488277435303	2.5005078315734863
10	83.9704282283783	pulse	1	t		8.0	2.5	/experiments/knapen_AOT/AOT_stimuli/rescaled_final/1913_rv.mp4	0.0	104.12808537483215	
10	84.88773345947266	fix_post	2		12	8.0	2.5	/experiments/knapen_AOT/AOT_stimuli/rescaled_final/1913_rv.mp4	0.0	105.04539060592651	0.09984493255615234
11	84.98757839202881	fix_pre	0		120	9.0	2.5	/experiments/knapen_AOT/AOT_stimuli/rescaled_final/0856_fw.mp4	0.0	105.14523553848267	1.00848388671875
11	85.5712742805481	pulse	0	t		9.0	2.5	/experiments/knapen_AOT/AOT_stimuli/rescaled_final/0856_fw.mp4	0.0	105.72893142700195	
11	85.99606227874756	movie	1		264	9.0	2.5	/experiments/knapen_AOT/AOT_stimuli/rescaled_final/0856_fw.mp4	0.0	106.15371942520142	2.492333173751831
11	87.16939735412598	pulse	1	t		9.0	2.5	/experiments/knapen_AOT/AOT_stimuli/rescaled_final/0856_fw.mp4	0.0	107.32705450057983	
11	88.48839545249939	fix_post	2		12	9.0	2.5	/experiments/knapen_AOT/AOT_stimuli/rescaled_final/0856_fw.mp4	0.0	108.64605259895325	0.09973549842834473
12	88.58813095092773	fix_pre	0		120	10.0	2.5	/experiments/knapen_AOT/AOT_stimuli/rescaled_final/1669_fw.mp4	0.0	108.74578809738159	1.0084891319274902
12	88.77163457870483	pulse	0	t		10.0	2.5	/experiments/knapen_AOT/AOT_stimuli/rescaled_final/1669_fw.mp4	0.0	108.92929172515869	
12	89.59662008285522	movie	1		259	10.0	2.5	/experiments/knapen_AOT/AOT_stimuli/rescaled_final/1669_fw.mp4	0.0	109.75427722930908	2.492182970046997
12	90.36987209320068	pulse	1	t		10.0	2.5	/experiments/knapen_AOT/AOT_stimuli/rescaled_final/1669_fw.mp4	0.0	110.52752923965454	
12	91.96993112564087	pulse	1	t		10.0	2.5	/experiments/knapen_AOT/AOT_stimuli/rescaled_final/1669_fw.mp4	0.0	112.12758827209473	
12	92.08880305290222	fix_post	2		12	10.0	2.5	/experiments/knapen_AOT/AOT_stimuli/rescaled_final/1669_fw.mp4	0.0	112.24646019935608	0.09986090660095215
13	92.18866395950317	fix_pre	0		120	11.0	2.5	/experiments/knapen_AOT/AOT_stimuli/rescaled_final/1909_fw.mp4	0.0	112.34632110595703	1.0084888935089111
13	93.19715285301208	movie	1		277	11.0	2.5	/experiments/knapen_AOT/AOT_stimuli/rescaled_final/1909_fw.mp4	0.0	113.35480999946594	2.492017984390259
13	93.57070350646973	pulse	1	t		11.0	2.5	/experiments/knapen_AOT/AOT_stimuli/rescaled_final/1909_fw.mp4	0.0	113.72836065292358	
13	95.17036390304565	pulse	1	t		11.0	2.5	/experiments/knapen_AOT/AOT_stimuli/rescaled_final/1909_fw.mp4	0.0	115.32802104949951	
13	95.68917083740234	fix_post	2		12	11.0	2.5	/experiments/knapen_AOT/AOT_stimuli/rescaled_final/1909_fw.mp4	0.0	115.8468279838562	0.10005593299865723
14	95.789226770401	fix_pre	0		119	12.0	2.5	/experiments/knapen_AOT/AOT_stimuli/rescaled_final/1952_rv.mp4	0.0	115.94688391685486	1.0001351833343506
14	96.77293562889099	pulse	0	t		12.0	2.5	/experiments/knapen_AOT/AOT_stimuli/rescaled_final/1952_rv.mp4	0.0	116.93059277534485	
14	96.78936195373535	movie	1		272	12.0	2.5	/experiments/knapen_AOT/AOT_stimuli/rescaled_final/1952_rv.mp4	0.0	116.94701910018921	2.50050687789917
14	98.37286472320557	pulse	1	t		12.0	2.5	/experiments/knapen_AOT/AOT_stimuli/rescaled_final/1952_rv.mp4	0.0	118.53052186965942	
14	99.28986883163452	fix_post	2		12	12.0	2.5	/experiments/knapen_AOT/AOT_stimuli/rescaled_final/1952_rv.mp4	0.0	119.44752597808838	0.09992504119873047
15	99.38979387283325	fix_pre	0		120	13.0	2.5	/experiments/knapen_AOT/AOT_stimuli/rescaled_final/0478_rv.mp4	0.0	119.54745101928711	1.008521318435669
15	99.97341823577881	pulse	0	t		13.0	2.5	/experiments/knapen_AOT/AOT_stimuli/rescaled_final/0478_rv.mp4	0.0	120.13107538223267	
15	100.39831519126892	movie	1		284	13.0	2.5	/experiments/knapen_AOT/AOT_stimuli/rescaled_final/0478_rv.mp4	0.0	120.55597233772278	2.491947889328003
15	101.57183146476746	pulse	1	t		13.0	2.5	/experiments/knapen_AOT/AOT_stimuli/rescaled_final/0478_rv.mp4	0.0	121.72948861122131	
15	102.89026308059692	fix_post	2		12	13.0	2.5	/experiments/knapen_AOT/AOT_stimuli/rescaled_final/0478_rv.mp4	0.0	123.04792022705078	0.10007953643798828
16	102.99034261703491	fix_pre	0		120	14.0	2.5	blank	1.0	123.14799976348877	1.000093936920166
16	103.17394375801086	pulse	0	t		14.0	2.5	blank	1.0	123.33160090446472	
16	103.99043655395508	movie	1		300	14.0	2.5	blank	1.0	124.14809370040894	2.5003886222839355
16	104.77407240867615	pulse	1	t		14.0	2.5	blank	1.0	124.93172955513	
16	106.37462162971497	pulse	1	t		14.0	2.5	blank	1.0	126.53227877616882	
16	106.49082517623901	fix_post	2		12	14.0	2.5	blank	1.0	126.64848232269287	0.10000920295715332
17	106.59083437919617	fix_pre	0		120	15.0	2.5	/experiments/knapen_AOT/AOT_stimuli/rescaled_final/0454_rv.mp4	0.0	126.74849152565002	1.008781909942627
17	107.5996162891388	movie	1		252	15.0	2.5	/experiments/knapen_AOT/AOT_stimuli/rescaled_final/0454_rv.mp4	0.0	127.75727343559265	2.491950511932373
17	107.97358202934265	pulse	1	t		15.0	2.5	/experiments/knapen_AOT/AOT_stimuli/rescaled_final/0454_rv.mp4	0.0	128.1312391757965	
17	109.57507300376892	pulse	1	t		15.0	2.5	/experiments/knapen_AOT/AOT_stimuli/rescaled_final/0454_rv.mp4	0.0	129.73273015022278	
17	110.09156680107117	fix_post	2		12	15.0	2.5	/experiments/knapen_AOT/AOT_stimuli/rescaled_final/0454_rv.mp4	0.0	130.24922394752502	0.0998682975769043
18	110.19143509864807	fix_pre	0		119	16.0	2.5	/experiments/knapen_AOT/AOT_stimuli/rescaled_final/0453_rv.mp4	0.0	130.34909224510193	1.0002107620239258
18	111.17512273788452	pulse	0	t		16.0	2.5	/experiments/knapen_AOT/AOT_stimuli/rescaled_final/0453_rv.mp4	0.0	131.33277988433838	
18	111.191645860672	movie	1		264	16.0	2.5	/experiments/knapen_AOT/AOT_stimuli/rescaled_final/0453_rv.mp4	0.0	131.34930300712585	2.500457286834717
18	112.77378916740417	pulse	1	t		16.0	2.5	/experiments/knapen_AOT/AOT_stimuli/rescaled_final/0453_rv.mp4	0.0	132.93144631385803	
18	113.69210314750671	fix_post	2		12	16.0	2.5	/experiments/knapen_AOT/AOT_stimuli/rescaled_final/0453_rv.mp4	0.0	133.84976029396057	0.09981679916381836
19	113.79191994667053	fix_pre	0		120	17.0	2.5	/experiments/knapen_AOT/AOT_stimuli/rescaled_final/0590_rv.mp4	0.0	133.9495770931244	1.0086266994476318
19	114.3677306175232	pulse	0	t		17.0	2.5	/experiments/knapen_AOT/AOT_stimuli/rescaled_final/0590_rv.mp4	0.0	134.52538776397705	
19	114.80054664611816	movie	1		274	17.0	2.5	/experiments/knapen_AOT/AOT_stimuli/rescaled_final/0590_rv.mp4	0.0	134.95820379257202	2.492064952850342
19	115.96770191192627	pulse	1	t		17.0	2.5	/experiments/knapen_AOT/AOT_stimuli/rescaled_final/0590_rv.mp4	0.0	136.12535905838013	
19	117.2926115989685	fix_post	2		12	17.0	2.5	/experiments/knapen_AOT/AOT_stimuli/rescaled_final/0590_rv.mp4	0.0	137.45026874542236	0.09984803199768066
20	117.39245963096619	fix_pre	0		120	18.0	2.5	/experiments/knapen_AOT/AOT_stimuli/rescaled_final/0137_fw.mp4	0.0	137.55011677742004	1.0084781646728516
20	117.56809759140015	pulse	0	t		18.0	2.5	/experiments/knapen_AOT/AOT_stimuli/rescaled_final/0137_fw.mp4	0.0	137.725754737854	
20	118.40093779563904	movie	1		266	18.0	2.5	/experiments/knapen_AOT/AOT_stimuli/rescaled_final/0137_fw.mp4	0.0	138.5585949420929	2.492647886276245
20	119.16788172721863	pulse	1	t		18.0	2.5	/experiments/knapen_AOT/AOT_stimuli/rescaled_final/0137_fw.mp4	0.0	139.32553887367249	
20	120.76775312423706	pulse	1	t		18.0	2.5	/experiments/knapen_AOT/AOT_stimuli/rescaled_final/0137_fw.mp4	0.0	140.92541027069092	
20	120.89358568191528	fix_post	2		12	18.0	2.5	/experiments/knapen_AOT/AOT_stimuli/rescaled_final/0137_fw.mp4	0.0	141.05124282836914	0.09942221641540527
21	120.99300789833069	fix_pre	0		120	19.0	2.5	/experiments/knapen_AOT/AOT_stimuli/rescaled_final/1119_fw.mp4	0.0	141.15066504478455	1.0084826946258545
21	122.00149059295654	movie	1		267	19.0	2.5	/experiments/knapen_AOT/AOT_stimuli/rescaled_final/1119_fw.mp4	0.0	142.1591477394104	2.4922661781311035
21	122.36853361129761	pulse	1	t		19.0	2.5	/experiments/knapen_AOT/AOT_stimuli/rescaled_final/1119_fw.mp4	0.0	142.52619075775146	
21	123.96866869926453	pulse	1	t		19.0	2.5	/experiments/knapen_AOT/AOT_stimuli/rescaled_final/1119_fw.mp4	0.0	144.12632584571838	
21	124.49375677108765	fix_post	2		12	19.0	2.5	/experiments/knapen_AOT/AOT_stimuli/rescaled_final/1119_fw.mp4	0.0	144.6514139175415	0.09987831115722656
22	124.59363508224487	fix_pre	0		118	20.0	2.5	/experiments/knapen_AOT/AOT_stimuli/rescaled_final/0406_rv.mp4	0.0	144.75129222869873	0.9917352199554443
22	125.56889796257019	pulse	0	t		20.0	2.5	/experiments/knapen_AOT/AOT_stimuli/rescaled_final/0406_rv.mp4	0.0	145.72655510902405	
22	125.58537030220032	movie	1		285	20.0	2.5	/experiments/knapen_AOT/AOT_stimuli/rescaled_final/0406_rv.mp4	0.0	145.74302744865417	2.5006301403045654
22	127.16784071922302	pulse	1	t		20.0	2.5	/experiments/knapen_AOT/AOT_stimuli/rescaled_final/0406_rv.mp4	0.0	147.32549786567688	
22	128.08600044250488	fix_post	2		12	20.0	2.5	/experiments/knapen_AOT/AOT_stimuli/rescaled_final/0406_rv.mp4	0.0	148.24365758895874	0.09993696212768555
23	128.18593740463257	fix_pre	0		120	21.0	2.5	blank	1.0	148.34359455108643	0.9999892711639404
23	128.76947164535522	pulse	0	t		21.0	2.5	blank	1.0	148.92712879180908	
23	129.1859266757965	movie	1		300	21.0	2.5	blank	1.0	149.34358382225037	2.5003480911254883
23	130.3696939945221	pulse	1	t		21.0	2.5	blank	1.0	150.52735114097595	
23	131.686274766922	fix_post	2		12	21.0	2.5	blank	1.0	151.84393191337585	0.10020828247070312
24	131.7864830493927	fix_pre	0		120	22.0	2.5	/experiments/knapen_AOT/AOT_stimuli/rescaled_final/0773_fw.mp4	0.0	151.94414019584656	1.0083067417144775
24	131.9700870513916	pulse	0	t		22.0	2.5	/experiments/knapen_AOT/AOT_stimuli/rescaled_final/0773_fw.mp4	0.0	152.12774419784546	
24	132.79478979110718	movie	1		270	22.0	2.5	/experiments/knapen_AOT/AOT_stimuli/rescaled_final/0773_fw.mp4	0.0	152.95244693756104	2.4922523498535156
24	133.5683205127716	pulse	1	t		22.0	2.5	/experiments/knapen_AOT/AOT_stimuli/rescaled_final/0773_fw.mp4	0.0	153.72597765922546	
24	135.16807460784912	pulse	1	t		22.0	2.5	/experiments/knapen_AOT/AOT_stimuli/rescaled_final/0773_fw.mp4	0.0	155.32573175430298	
24	135.2870421409607	fix_post	2		12	22.0	2.5	/experiments/knapen_AOT/AOT_stimuli/rescaled_final/0773_fw.mp4	0.0	155.44469928741455	0.09990310668945312
25	135.38694524765015	fix_pre	0		120	23.0	2.5	/experiments/knapen_AOT/AOT_stimuli/rescaled_final/1424_rv.mp4	0.0	155.544602394104	1.008363962173462
25	136.3953092098236	movie	1		249	23.0	2.5	/experiments/knapen_AOT/AOT_stimuli/rescaled_final/1424_rv.mp4	0.0	156.55296635627747	2.4923954010009766
25	136.7711479663849	pulse	1	t		23.0	2.5	/experiments/knapen_AOT/AOT_stimuli/rescaled_final/1424_rv.mp4	0.0	156.92880511283875	
25	138.36861491203308	pulse	1	t		23.0	2.5	/experiments/knapen_AOT/AOT_stimuli/rescaled_final/1424_rv.mp4	0.0	158.52627205848694	
25	138.88770461082458	fix_post	2		12	23.0	2.5	/experiments/knapen_AOT/AOT_stimuli/rescaled_final/1424_rv.mp4	0.0	159.04536175727844	0.09967589378356934
26	138.98738050460815	fix_pre	0		119	24.0	2.5	/experiments/knapen_AOT/AOT_stimuli/rescaled_final/0941_rv.mp4	0.0	159.145037651062	1.0089006423950195
26	139.97109866142273	pulse	0	t		24.0	2.5	/experiments/knapen_AOT/AOT_stimuli/rescaled_final/0941_rv.mp4	0.0	160.1287558078766	
26	139.99628114700317	movie	1		273	24.0	2.5	/experiments/knapen_AOT/AOT_stimuli/rescaled_final/0941_rv.mp4	0.0	160.15393829345703	2.491610050201416
26	141.56973338127136	pulse	1	t		24.0	2.5	/experiments/knapen_AOT/AOT_stimuli/rescaled_final/0941_rv.mp4	0.0	161.72739052772522	
26	142.4878911972046	fix_post	2		12	24.0	2.5	/experiments/knapen_AOT/AOT_stimuli/rescaled_final/0941_rv.mp4	0.0	162.64554834365845	0.10003209114074707
27	142.58792328834534	fix_pre	0		120	25.0	2.5	/experiments/knapen_AOT/AOT_stimuli/rescaled_final/1476_fw.mp4	0.0	162.7455804347992	1.0087482929229736
27	143.1718819141388	pulse	0	t		25.0	2.5	/experiments/knapen_AOT/AOT_stimuli/rescaled_final/1476_fw.mp4	0.0	163.32953906059265	
27	143.5966715812683	movie	1		272	25.0	2.5	/experiments/knapen_AOT/AOT_stimuli/rescaled_final/1476_fw.mp4	0.0	163.75432872772217	2.4917490482330322
27	144.77058291435242	pulse	1	t		25.0	2.5	/experiments/knapen_AOT/AOT_stimuli/rescaled_final/1476_fw.mp4	0.0	164.92824006080627	
27	146.08842062950134	fix_post	2		12	25.0	2.5	/experiments/knapen_AOT/AOT_stimuli/rescaled_final/1476_fw.mp4	0.0	166.2460777759552	0.10023736953735352
28	146.1886579990387	fix_pre	0		120	26.0	2.5	/experiments/knapen_AOT/AOT_stimuli/rescaled_final/0773_rv.mp4	0.0	166.34631514549255	1.0084490776062012
28	146.37233757972717	pulse	0	t		26.0	2.5	/experiments/knapen_AOT/AOT_stimuli/rescaled_final/0773_rv.mp4	0.0	166.52999472618103	
28	147.1971070766449	movie	1		265	26.0	2.5	/experiments/knapen_AOT/AOT_stimuli/rescaled_final/0773_rv.mp4	0.0	167.35476422309875	2.4921061992645264
28	147.9706289768219	pulse	1	t		26.0	2.5	/experiments/knapen_AOT/AOT_stimuli/rescaled_final/0773_rv.mp4	0.0	168.12828612327576	
28	149.57054996490479	pulse	1	t		26.0	2.5	/experiments/knapen_AOT/AOT_stimuli/rescaled_final/0773_rv.mp4	0.0	169.72820711135864	
28	149.68921327590942	fix_post	2		12	26.0	2.5	/experiments/knapen_AOT/AOT_stimuli/rescaled_final/0773_rv.mp4	0.0	169.84687042236328	0.0997934341430664
29	149.7890067100525	fix_pre	0		120	27.0	2.5	/experiments/knapen_AOT/AOT_stimuli/rescaled_final/0320_rv.mp4	0.0	169.94666385650635	1.0084798336029053
29	150.7974865436554	movie	1		272	27.0	2.5	/experiments/knapen_AOT/AOT_stimuli/rescaled_final/0320_rv.mp4	0.0	170.95514369010925	2.492063522338867
29	151.17101621627808	pulse	1	t		27.0	2.5	/experiments/knapen_AOT/AOT_stimuli/rescaled_final/0320_rv.mp4	0.0	171.32867336273193	
29	152.77141666412354	pulse	1	t		27.0	2.5	/experiments/knapen_AOT/AOT_stimuli/rescaled_final/0320_rv.mp4	0.0	172.9290738105774	
29	153.28955006599426	fix_post	2		12	27.0	2.5	/experiments/knapen_AOT/AOT_stimuli/rescaled_final/0320_rv.mp4	0.0	173.44720721244812	0.10002660751342773
30	153.3895766735077	fix_pre	0		119	28.0	2.5	blank	1.0	173.54723381996155	0.9917716979980469
30	154.37320590019226	pulse	0	t		28.0	2.5	blank	1.0	174.53086304664612	
30	154.38134837150574	movie	1		301	28.0	2.5	blank	1.0	174.5390055179596	2.508702039718628
30	155.9734239578247	pulse	1	t		28.0	2.5	blank	1.0	176.13108110427856	
30	156.89005041122437	fix_post	2		12	28.0	2.5	blank	1.0	177.04770755767822	0.1000211238861084
31	156.99007153511047	fix_pre	0		120	29.0	2.5	/experiments/knapen_AOT/AOT_stimuli/rescaled_final/0354_rv.mp4	0.0	177.14772868156433	1.0084810256958008
31	157.57379484176636	pulse	0	t		29.0	2.5	/experiments/knapen_AOT/AOT_stimuli/rescaled_final/0354_rv.mp4	0.0	177.73145198822021	
31	157.99855256080627	movie	1		260	29.0	2.5	/experiments/knapen_AOT/AOT_stimuli/rescaled_final/0354_rv.mp4	0.0	178.15620970726013	2.492169141769409
31	159.17252802848816	pulse	1	t		29.0	2.5	/experiments/knapen_AOT/AOT_stimuli/rescaled_final/0354_rv.mp4	0.0	179.33018517494202	
31	160.49072170257568	fix_post	2		12	29.0	2.5	/experiments/knapen_AOT/AOT_stimuli/rescaled_final/0354_rv.mp4	0.0	180.64837884902954	0.10000228881835938
32	160.59072399139404	fix_pre	0		120	30.0	2.5	/experiments/knapen_AOT/AOT_stimuli/rescaled_final/0897_fw.mp4	0.0	180.7483811378479	1.0084872245788574
32	160.77420663833618	pulse	0	t		30.0	2.5	/experiments/knapen_AOT/AOT_stimuli/rescaled_final/0897_fw.mp4	0.0	180.93186378479004	
32	161.5992112159729	movie	1		280	30.0	2.5	/experiments/knapen_AOT/AOT_stimuli/rescaled_final/0897_fw.mp4	0.0	181.75686836242676	2.491920232772827
32	162.37239503860474	pulse	1	t		30.0	2.5	/experiments/knapen_AOT/AOT_stimuli/rescaled_final/0897_fw.mp4	0.0	182.5300521850586	
32	163.9725444316864	pulse	1	t		30.0	2.5	/experiments/knapen_AOT/AOT_stimuli/rescaled_final/0897_fw.mp4	0.0	184.13020157814026	
32	164.09113144874573	fix_post	2		12	30.0	2.5	/experiments/knapen_AOT/AOT_stimuli/rescaled_final/0897_fw.mp4	0.0	184.24878859519958	0.10004496574401855
33	164.19117641448975	fix_pre	0		120	31.0	2.5	/experiments/knapen_AOT/AOT_stimuli/rescaled_final/0414_fw.mp4	0.0	184.3488335609436	1.0084640979766846
33	165.19964051246643	movie	1		287	31.0	2.5	/experiments/knapen_AOT/AOT_stimuli/rescaled_final/0414_fw.mp4	0.0	185.3572976589203	2.492152690887451
33	165.56689476966858	pulse	1	t		31.0	2.5	/experiments/knapen_AOT/AOT_stimuli/rescaled_final/0414_fw.mp4	0.0	185.72455191612244	
33	167.17316937446594	pulse	1	t		31.0	2.5	/experiments/knapen_AOT/AOT_stimuli/rescaled_final/0414_fw.mp4	0.0	187.3308265209198	
33	167.69179320335388	fix_post	2		12	31.0	2.5	/experiments/knapen_AOT/AOT_stimuli/rescaled_final/0414_fw.mp4	0.0	187.84945034980774	0.10004711151123047
34	167.7918403148651	fix_pre	0		118	32.0	2.5	/experiments/knapen_AOT/AOT_stimuli/rescaled_final/1940_rv.mp4	0.0	187.94949746131897	0.9916763305664062
34	168.76728415489197	pulse	0	t		32.0	2.5	/experiments/knapen_AOT/AOT_stimuli/rescaled_final/1940_rv.mp4	0.0	188.92494130134583	
34	168.78351664543152	movie	1		274	32.0	2.5	/experiments/knapen_AOT/AOT_stimuli/rescaled_final/1940_rv.mp4	0.0	188.94117379188538	2.5005998611450195
34	170.36746048927307	pulse	1	t		32.0	2.5	/experiments/knapen_AOT/AOT_stimuli/rescaled_final/1940_rv.mp4	0.0	190.52511763572693	
34	171.28411650657654	fix_post	2		12	32.0	2.5	/experiments/knapen_AOT/AOT_stimuli/rescaled_final/1940_rv.mp4	0.0	191.4417736530304	0.09980964660644531
35	171.38392615318298	fix_pre	0		120	33.0	2.5	/experiments/knapen_AOT/AOT_stimuli/rescaled_final/1643_rv.mp4	0.0	191.54158329963684	1.0085558891296387
35	171.96758699417114	pulse	0	t		33.0	2.5	/experiments/knapen_AOT/AOT_stimuli/rescaled_final/1643_rv.mp4	0.0	192.125244140625	
35	172.39248204231262	movie	1		276	33.0	2.5	/experiments/knapen_AOT/AOT_stimuli/rescaled_final/1643_rv.mp4	0.0	192.55013918876648	2.492403745651245
35	173.56822180747986	pulse	1	t		33.0	2.5	/experiments/knapen_AOT/AOT_stimuli/rescaled_final/1643_rv.mp4	0.0	193.72587895393372	
35	174.88488578796387	fix_post	2		12	33.0	2.5	/experiments/knapen_AOT/AOT_stimuli/rescaled_final/1643_rv.mp4	0.0	195.04254293441772	0.09958267211914062
36	174.984468460083	fix_pre	0		120	34.0	2.5	blank	1.0	195.14212560653687	1.000281810760498
36	175.16803073883057	pulse	0	t		34.0	2.5	blank	1.0	195.32568788528442	
36	175.9847502708435	movie	1		300	34.0	2.5	blank	1.0	196.14240741729736	2.500222682952881
36	176.76825213432312	pulse	1	t		34.0	2.5	blank	1.0	196.92590928077698	
36	178.3685600757599	pulse	1	t		34.0	2.5	blank	1.0	198.52621722221375	
36	178.4849729537964	fix_post	2		12	34.0	2.5	blank	1.0	198.64263010025024	0.10001802444458008
37	178.58499097824097	fix_pre	0		120	35.0	2.5	/experiments/knapen_AOT/AOT_stimuli/rescaled_final/0767_fw.mp4	0.0	198.74264812469482	1.008601188659668
37	179.59359216690063	movie	1		267	35.0	2.5	/experiments/knapen_AOT/AOT_stimuli/rescaled_final/0767_fw.mp4	0.0	199.7512493133545	2.49218487739563
37	179.9692211151123	pulse	1	t		35.0	2.5	/experiments/knapen_AOT/AOT_stimuli/rescaled_final/0767_fw.mp4	0.0	200.12687826156616	
37	181.56871914863586	pulse	1	t		35.0	2.5	/experiments/knapen_AOT/AOT_stimuli/rescaled_final/0767_fw.mp4	0.0	201.72637629508972	
37	182.08577704429626	fix_post	2		12	35.0	2.5	/experiments/knapen_AOT/AOT_stimuli/rescaled_final/0767_fw.mp4	0.0	202.24343419075012	0.09994792938232422
38	182.1857249736786	fix_pre	0		119	36.0	2.5	/experiments/knapen_AOT/AOT_stimuli/rescaled_final/0414_rv.mp4	0.0	202.34338212013245	0.9999556541442871
38	183.1692237854004	pulse	0	t		36.0	2.5	/experiments/knapen_AOT/AOT_stimuli/rescaled_final/0414_rv.mp4	0.0	203.32688093185425	
38	183.18568062782288	movie	1		268	36.0	2.5	/experiments/knapen_AOT/AOT_stimuli/rescaled_final/0414_rv.mp4	0.0	203.34333777427673	2.5004119873046875
38	184.7677035331726	pulse	1	t		36.0	2.5	/experiments/knapen_AOT/AOT_stimuli/rescaled_final/0414_rv.mp4	0.0	204.92536067962646	
38	185.68609261512756	fix_post	2		12	36.0	2.5	/experiments/knapen_AOT/AOT_stimuli/rescaled_final/0414_rv.mp4	0.0	205.84374976158142	0.10000300407409668
39	185.78609561920166	fix_pre	0		120	37.0	2.5	/experiments/knapen_AOT/AOT_stimuli/rescaled_final/1361_rv.mp4	0.0	205.94375276565552	1.0084550380706787
39	186.36997628211975	pulse	0	t		37.0	2.5	/experiments/knapen_AOT/AOT_stimuli/rescaled_final/1361_rv.mp4	0.0	206.5276334285736	
39	186.79455065727234	movie	1		274	37.0	2.5	/experiments/knapen_AOT/AOT_stimuli/rescaled_final/1361_rv.mp4	0.0	206.9522078037262	2.4922449588775635
39	187.96784901618958	pulse	1	t		37.0	2.5	/experiments/knapen_AOT/AOT_stimuli/rescaled_final/1361_rv.mp4	0.0	208.12550616264343	
39	189.2867956161499	fix_post	2		12	37.0	2.5	/experiments/knapen_AOT/AOT_stimuli/rescaled_final/1361_rv.mp4	0.0	209.44445276260376	0.10008907318115234
40	189.38688468933105	fix_pre	0		120	38.0	2.5	/experiments/knapen_AOT/AOT_stimuli/rescaled_final/0937_rv.mp4	0.0	209.5445418357849	1.0082731246948242
40	189.57014966011047	pulse	0	t		38.0	2.5	/experiments/knapen_AOT/AOT_stimuli/rescaled_final/0937_rv.mp4	0.0	209.72780680656433	
40	190.39515781402588	movie	1		270	38.0	2.5	/experiments/knapen_AOT/AOT_stimuli/rescaled_final/0937_rv.mp4	0.0	210.55281496047974	2.491990327835083
40	191.16808438301086	pulse	1	t		38.0	2.5	/experiments/knapen_AOT/AOT_stimuli/rescaled_final/0937_rv.mp4	0.0	211.32574152946472	
40	192.76881670951843	pulse	1	t		38.0	2.5	/experiments/knapen_AOT/AOT_stimuli/rescaled_final/0937_rv.mp4	0.0	212.9264738559723	
40	192.88714814186096	fix_post	2		12	38.0	2.5	/experiments/knapen_AOT/AOT_stimuli/rescaled_final/0937_rv.mp4	0.0	213.04480528831482	0.10000371932983398
41	192.9871518611908	fix_pre	0		120	39.0	2.5	/experiments/knapen_AOT/AOT_stimuli/rescaled_final/0019_fw.mp4	0.0	213.14480900764465	1.0086281299591064
41	193.9957799911499	movie	1		268	39.0	2.5	/experiments/knapen_AOT/AOT_stimuli/rescaled_final/0019_fw.mp4	0.0	214.15343713760376	2.4919309616088867
41	194.3690083026886	pulse	1	t		39.0	2.5	/experiments/knapen_AOT/AOT_stimuli/rescaled_final/0019_fw.mp4	0.0	214.52666544914246	
41	195.9704568386078	pulse	1	t		39.0	2.5	/experiments/knapen_AOT/AOT_stimuli/rescaled_final/0019_fw.mp4	0.0	216.12811398506165	
41	196.4877109527588	fix_post	2		12	39.0	2.5	/experiments/knapen_AOT/AOT_stimuli/rescaled_final/0019_fw.mp4	0.0	216.64536809921265	0.09999966621398926
42	196.58771061897278	fix_pre	0		119	40.0	2.5	blank	1.0	216.74536776542664	0.9917778968811035
42	197.57150053977966	pulse	0	t		40.0	2.5	blank	1.0	217.72915768623352	
42	197.57948851585388	movie	1		301	40.0	2.5	blank	1.0	217.73714566230774	2.508737802505493
42	199.1718819141388	pulse	1	t		40.0	2.5	blank	1.0	219.32953906059265	
42	200.08822631835938	fix_post	2		12	40.0	2.5	blank	1.0	220.24588346481323	0.10004472732543945
43	200.18827104568481	fix_pre	0		120	41.0	2.5	/experiments/knapen_AOT/AOT_stimuli/rescaled_final/1581_rv.mp4	0.0	220.34592819213867	1.0084960460662842
43	200.771954536438	pulse	0	t		41.0	2.5	/experiments/knapen_AOT/AOT_stimuli/rescaled_final/1581_rv.mp4	0.0	220.92961168289185	
43	201.1967670917511	movie	1		263	41.0	2.5	/experiments/knapen_AOT/AOT_stimuli/rescaled_final/1581_rv.mp4	0.0	221.35442423820496	2.4920637607574463
43	202.37037420272827	pulse	1	t		41.0	2.5	/experiments/knapen_AOT/AOT_stimuli/rescaled_final/1581_rv.mp4	0.0	222.52803134918213	
43	203.68883085250854	fix_post	2		12	41.0	2.5	/experiments/knapen_AOT/AOT_stimuli/rescaled_final/1581_rv.mp4	0.0	223.8464879989624	0.09996891021728516
44	203.78879976272583	fix_pre	0		120	42.0	2.5	/experiments/knapen_AOT/AOT_stimuli/rescaled_final/0354_fw.mp4	0.0	223.9464569091797	1.0085794925689697
44	203.97253894805908	pulse	0	t		42.0	2.5	/experiments/knapen_AOT/AOT_stimuli/rescaled_final/0354_fw.mp4	0.0	224.13019609451294	
44	204.7973792552948	movie	1		274	42.0	2.5	/experiments/knapen_AOT/AOT_stimuli/rescaled_final/0354_fw.mp4	0.0	224.95503640174866	2.492006540298462
44	205.57045078277588	pulse	1	t		42.0	2.5	/experiments/knapen_AOT/AOT_stimuli/rescaled_final/0354_fw.mp4	0.0	225.72810792922974	
44	207.17083883285522	pulse	1	t		42.0	2.5	/experiments/knapen_AOT/AOT_stimuli/rescaled_final/0354_fw.mp4	0.0	227.32849597930908	
44	207.28938579559326	fix_post	2		12	42.0	2.5	/experiments/knapen_AOT/AOT_stimuli/rescaled_final/0354_fw.mp4	0.0	227.44704294204712	0.1000664234161377
45	207.3894522190094	fix_pre	0		120	43.0	2.5	/experiments/knapen_AOT/AOT_stimuli/rescaled_final/1056_rv.mp4	0.0	227.54710936546326	1.0083763599395752
45	208.39782857894897	movie	1		261	43.0	2.5	/experiments/knapen_AOT/AOT_stimuli/rescaled_final/1056_rv.mp4	0.0	228.55548572540283	2.4920151233673096
45	208.77152585983276	pulse	1	t		43.0	2.5	/experiments/knapen_AOT/AOT_stimuli/rescaled_final/1056_rv.mp4	0.0	228.92918300628662	
45	210.37097644805908	pulse	1	t		43.0	2.5	/experiments/knapen_AOT/AOT_stimuli/rescaled_final/1056_rv.mp4	0.0	230.52863359451294	
45	210.88984370231628	fix_post	2		12	43.0	2.5	/experiments/knapen_AOT/AOT_stimuli/rescaled_final/1056_rv.mp4	0.0	231.04750084877014	0.1001272201538086
46	210.9899709224701	fix_pre	0		119	44.0	2.5	/experiments/knapen_AOT/AOT_stimuli/rescaled_final/0941_fw.mp4	0.0	231.14762806892395	1.0001921653747559
46	211.9736931324005	pulse	0	t		44.0	2.5	/experiments/knapen_AOT/AOT_stimuli/rescaled_final/0941_fw.mp4	0.0	232.13135027885437	
46	211.99016308784485	movie	1		270	44.0	2.5	/experiments/knapen_AOT/AOT_stimuli/rescaled_final/0941_fw.mp4	0.0	232.1478202342987	2.50032639503479
46	213.5728461742401	pulse	1	t		44.0	2.5	/experiments/knapen_AOT/AOT_stimuli/rescaled_final/0941_fw.mp4	0.0	233.73050332069397	
46	214.49048948287964	fix_post	2		12	44.0	2.5	/experiments/knapen_AOT/AOT_stimuli/rescaled_final/0941_fw.mp4	0.0	234.6481466293335	0.09991621971130371
47	214.59040570259094	fix_pre	0		120	45.0	2.5	/experiments/knapen_AOT/AOT_stimuli/rescaled_final/1474_rv.mp4	0.0	234.7480628490448	1.0085787773132324
47	215.17402863502502	pulse	0	t		45.0	2.5	/experiments/knapen_AOT/AOT_stimuli/rescaled_final/1474_rv.mp4	0.0	235.33168578147888	
47	215.59898447990417	movie	1		268	45.0	2.5	/experiments/knapen_AOT/AOT_stimuli/rescaled_final/1474_rv.mp4	0.0	235.75664162635803	2.4919323921203613
47	216.77262258529663	pulse	1	t		45.0	2.5	/experiments/knapen_AOT/AOT_stimuli/rescaled_final/1474_rv.mp4	0.0	236.9302797317505	
47	218.09091687202454	fix_post	2		12	45.0	2.5	/experiments/knapen_AOT/AOT_stimuli/rescaled_final/1474_rv.mp4	0.0	238.2485740184784	0.10023832321166992
48	218.1911551952362	fix_pre	0		120	46.0	2.5	/experiments/knapen_AOT/AOT_stimuli/rescaled_final/2107_fw.mp4	0.0	238.34881234169006	1.0082669258117676
48	218.36802434921265	pulse	0	t		46.0	2.5	/experiments/knapen_AOT/AOT_stimuli/rescaled_final/2107_fw.mp4	0.0	238.5256814956665	
48	219.19942212104797	movie	1		258	46.0	2.5	/experiments/knapen_AOT/AOT_stimuli/rescaled_final/2107_fw.mp4	0.0	239.35707926750183	2.492037296295166
48	219.97501754760742	pulse	1	t		46.0	2.5	/experiments/knapen_AOT/AOT_stimuli/rescaled_final/2107_fw.mp4	0.0	240.13267469406128	
48	221.57319569587708	pulse	1	t		46.0	2.5	/experiments/knapen_AOT/AOT_stimuli/rescaled_final/2107_fw.mp4	0.0	241.73085284233093	
48	221.69145941734314	fix_post	2		12	46.0	2.5	/experiments/knapen_AOT/AOT_stimuli/rescaled_final/2107_fw.mp4	0.0	241.849116563797	0.10001659393310547
49	221.79147601127625	fix_pre	0		120	47.0	2.5	/experiments/knapen_AOT/AOT_stimuli/rescaled_final/1330_fw.mp4	0.0	241.9491331577301	1.008549690246582
49	222.80002570152283	movie	1		257	47.0	2.5	/experiments/knapen_AOT/AOT_stimuli/rescaled_final/1330_fw.mp4	0.0	242.95768284797668	2.5004608631134033
49	223.173588514328	pulse	1	t		47.0	2.5	/experiments/knapen_AOT/AOT_stimuli/rescaled_final/1330_fw.mp4	0.0	243.33124566078186	
49	224.76736116409302	pulse	1	t		47.0	2.5	/experiments/knapen_AOT/AOT_stimuli/rescaled_final/1330_fw.mp4	0.0	244.92501831054688	
49	225.30048656463623	fix_post	2		11	47.0	2.5	/experiments/knapen_AOT/AOT_stimuli/rescaled_final/1330_fw.mp4	0.0	245.4581437110901	0.09157085418701172
50	225.39205741882324	fix_pre	0		118	48.0	2.5	blank	1.0	245.5497145652771	0.9834480285644531
50	226.36752080917358	pulse	0	t		48.0	2.5	blank	1.0	246.52517795562744	
50	226.3755054473877	movie	1		301	48.0	2.5	blank	1.0	246.53316259384155	2.508755683898926
50	227.9676296710968	pulse	1	t		48.0	2.5	blank	1.0	248.12528681755066	
50	228.88426113128662	fix_post	2		12	48.0	2.5	blank	1.0	249.04191827774048	0.10007834434509277
51	228.9843394756317	fix_pre	0		120	49.0	2.5	/experiments/knapen_AOT/AOT_stimuli/rescaled_final/1384_fw.mp4	0.0	249.14199662208557	1.008376121520996
51	229.5679099559784	pulse	0	t		49.0	2.5	/experiments/knapen_AOT/AOT_stimuli/rescaled_final/1384_fw.mp4	0.0	249.72556710243225	
51	229.9927155971527	movie	1		274	49.0	2.5	/experiments/knapen_AOT/AOT_stimuli/rescaled_final/1384_fw.mp4	0.0	250.15037274360657	2.492147445678711
51	231.1681478023529	pulse	1	t		49.0	2.5	/experiments/knapen_AOT/AOT_stimuli/rescaled_final/1384_fw.mp4	0.0	251.32580494880676	
51	232.48486304283142	fix_post	2		12	49.0	2.5	/experiments/knapen_AOT/AOT_stimuli/rescaled_final/1384_fw.mp4	0.0	252.64252018928528	0.09992122650146484
52	232.58478426933289	fix_pre	0		120	50.0	2.5	/experiments/knapen_AOT/AOT_stimuli/rescaled_final/0941_rv.mp4	0.0	252.74244141578674	1.0084319114685059
52	232.76840114593506	pulse	0	t		50.0	2.5	/experiments/knapen_AOT/AOT_stimuli/rescaled_final/0941_rv.mp4	0.0	252.92605829238892	
52	233.5932161808014	movie	1		265	50.0	2.5	/experiments/knapen_AOT/AOT_stimuli/rescaled_final/0941_rv.mp4	0.0	253.75087332725525	2.4923274517059326
52	234.36738204956055	pulse	1	t		50.0	2.5	/experiments/knapen_AOT/AOT_stimuli/rescaled_final/0941_rv.mp4	0.0	254.5250391960144	
52	235.968825340271	pulse	1	t		50.0	2.5	/experiments/knapen_AOT/AOT_stimuli/rescaled_final/0941_rv.mp4	0.0	256.12648248672485	
52	236.08554363250732	fix_post	2		12	50.0	2.5	/experiments/knapen_AOT/AOT_stimuli/rescaled_final/0941_rv.mp4	0.0	256.2432007789612	0.09979653358459473
53	236.18534016609192	fix_pre	0		120	51.0	2.5	/experiments/knapen_AOT/AOT_stimuli/rescaled_final/0390_fw.mp4	0.0	256.3429973125458	1.008484125137329
53	237.19382429122925	movie	1		259	51.0	2.5	/experiments/knapen_AOT/AOT_stimuli/rescaled_final/0390_fw.mp4	0.0	257.3514814376831	2.4920079708099365
53	237.56745719909668	pulse	1	t		51.0	2.5	/experiments/knapen_AOT/AOT_stimuli/rescaled_final/0390_fw.mp4	0.0	257.72511434555054	
53	239.16860103607178	pulse	1	t		51.0	2.5	/experiments/knapen_AOT/AOT_stimuli/rescaled_final/0390_fw.mp4	0.0	259.32625818252563	
53	239.68583226203918	fix_post	2		12	51.0	2.5	/experiments/knapen_AOT/AOT_stimuli/rescaled_final/0390_fw.mp4	0.0	259.84348940849304	0.1000666618347168
54	239.7858989238739	fix_pre	0		119	52.0	2.5	/experiments/knapen_AOT/AOT_stimuli/rescaled_final/1909_fw.mp4	0.0	259.94355607032776	1.0003411769866943
54	240.76963305473328	pulse	0	t		52.0	2.5	/experiments/knapen_AOT/AOT_stimuli/rescaled_final/1909_fw.mp4	0.0	260.92729020118713	
54	240.7862401008606	movie	1		281	52.0	2.5	/experiments/knapen_AOT/AOT_stimuli/rescaled_final/1909_fw.mp4	0.0	260.94389724731445	2.500173568725586
54	242.36795353889465	pulse	1	t		52.0	2.5	/experiments/knapen_AOT/AOT_stimuli/rescaled_final/1909_fw.mp4	0.0	262.5256106853485	
54	243.28641366958618	fix_post	2		12	52.0	2.5	/experiments/knapen_AOT/AOT_stimuli/rescaled_final/1909_fw.mp4	0.0	263.44407081604004	0.10003948211669922
55	243.38645315170288	fix_pre	0		120	53.0	2.5	/experiments/knapen_AOT/AOT_stimuli/rescaled_final/0486_fw.mp4	0.0	263.54411029815674	1.0085833072662354
55	243.97007393836975	pulse	0	t		53.0	2.5	/experiments/knapen_AOT/AOT_stimuli/rescaled_final/0486_fw.mp4	0.0	264.1277310848236	
55	244.39503645896912	movie	1		258	53.0	2.5	/experiments/knapen_AOT/AOT_stimuli/rescaled_final/0486_fw.mp4	0.0	264.552693605423	2.4920525550842285
55	245.56916069984436	pulse	1	t		53.0	2.5	/experiments/knapen_AOT/AOT_stimuli/rescaled_final/0486_fw.mp4	0.0	265.7268178462982	
55	246.88708901405334	fix_post	2		12	53.0	2.5	/experiments/knapen_AOT/AOT_stimuli/rescaled_final/0486_fw.mp4	0.0	267.0447461605072	0.10007834434509277
56	246.98716735839844	fix_pre	0		120	54.0	2.5	/experiments/knapen_AOT/AOT_stimuli/rescaled_final/0458_rv.mp4	0.0	267.1448245048523	1.0085928440093994
56	247.1706302165985	pulse	0	t		54.0	2.5	/experiments/knapen_AOT/AOT_stimuli/rescaled_final/0458_rv.mp4	0.0	267.32828736305237	
56	247.99576020240784	movie	1		256	54.0	2.5	/experiments/knapen_AOT/AOT_stimuli/rescaled_final/0458_rv.mp4	0.0	268.1534173488617	2.4920060634613037
56	248.7697515487671	pulse	1	t		54.0	2.5	/experiments/knapen_AOT/AOT_stimuli/rescaled_final/0458_rv.mp4	0.0	268.92740869522095	
56	250.3689501285553	pulse	1	t		54.0	2.5	/experiments/knapen_AOT/AOT_stimuli/rescaled_final/0458_rv.mp4	0.0	270.52660727500916	
56	250.48776626586914	fix_post	2		12	54.0	2.5	/experiments/knapen_AOT/AOT_stimuli/rescaled_final/0458_rv.mp4	0.0	270.645423412323	0.09971380233764648
57	250.5874800682068	fix_pre	0		120	55.0	2.5	blank	1.0	270.74513721466064	1.0003914833068848
57	251.58787155151367	movie	1		300	55.0	2.5	blank	1.0	271.74552869796753	2.500148296356201
57	251.97122645378113	pulse	1	t		55.0	2.5	blank	1.0	272.128883600235	
57	253.57152843475342	pulse	1	t		55.0	2.5	blank	1.0	273.7291855812073	
57	254.08801984786987	fix_post	2		12	55.0	2.5	blank	1.0	274.24567699432373	0.10001850128173828
58	254.1880383491516	fix_pre	0		119	56.0	2.5	/experiments/knapen_AOT/AOT_stimuli/rescaled_final/0853_rv.mp4	0.0	274.34569549560547	1.00876784324646
58	255.17193293571472	pulse	0	t		56.0	2.5	/experiments/knapen_AOT/AOT_stimuli/rescaled_final/0853_rv.mp4	0.0	275.3295900821686	
58	255.19680619239807	movie	1		274	56.0	2.5	/experiments/knapen_AOT/AOT_stimuli/rescaled_final/0853_rv.mp4	0.0	275.35446333885193	2.4919135570526123
58	256.77072644233704	pulse	1	t		56.0	2.5	/experiments/knapen_AOT/AOT_stimuli/rescaled_final/0853_rv.mp4	0.0	276.9283835887909	
58	257.6887197494507	fix_post	2		12	56.0	2.5	/experiments/knapen_AOT/AOT_stimuli/rescaled_final/0853_rv.mp4	0.0	277.84637689590454	0.09989476203918457
59	257.78861451148987	fix_pre	0		120	57.0	2.5	/experiments/knapen_AOT/AOT_stimuli/rescaled_final/0354_fw.mp4	0.0	277.9462716579437	1.0084309577941895
59	258.37219643592834	pulse	0	t		57.0	2.5	/experiments/knapen_AOT/AOT_stimuli/rescaled_final/0354_fw.mp4	0.0	278.5298535823822	
59	258.79704546928406	movie	1		283	57.0	2.5	/experiments/knapen_AOT/AOT_stimuli/rescaled_final/0354_fw.mp4	0.0	278.9547026157379	2.492316246032715
59	259.971138715744	pulse	1	t		57.0	2.5	/experiments/knapen_AOT/AOT_stimuli/rescaled_final/0354_fw.mp4	0.0	280.1287958621979	
59	261.2893617153168	fix_post	2		12	57.0	2.5	/experiments/knapen_AOT/AOT_stimuli/rescaled_final/0354_fw.mp4	0.0	281.44701886177063	0.09976840019226074
60	261.38913011550903	fix_pre	0		120	58.0	2.5	/experiments/knapen_AOT/AOT_stimuli/rescaled_final/0498_rv.mp4	0.0	281.5467872619629	1.008507251739502
60	261.57265996932983	pulse	0	t		58.0	2.5	/experiments/knapen_AOT/AOT_stimuli/rescaled_final/0498_rv.mp4	0.0	281.7303171157837	
60	262.39763736724854	movie	1		285	58.0	2.5	/experiments/knapen_AOT/AOT_stimuli/rescaled_final/0498_rv.mp4	0.0	282.5552945137024	2.4920804500579834
60	263.1709637641907	pulse	1	t		58.0	2.5	/experiments/knapen_AOT/AOT_stimuli/rescaled_final/0498_rv.mp4	0.0	283.32862091064453	
60	264.7715470790863	pulse	1	t		58.0	2.5	/experiments/knapen_AOT/AOT_stimuli/rescaled_final/0498_rv.mp4	0.0	284.92920422554016	
60	264.8897178173065	fix_post	2		12	58.0	2.5	/experiments/knapen_AOT/AOT_stimuli/rescaled_final/0498_rv.mp4	0.0	285.0473749637604	0.09997677803039551
61	264.9896945953369	fix_pre	0		120	59.0	2.5	/experiments/knapen_AOT/AOT_stimuli/rescaled_final/1161_rv.mp4	0.0	285.14735174179077	1.0087313652038574
61	265.99842596054077	movie	1		271	59.0	2.5	/experiments/knapen_AOT/AOT_stimuli/rescaled_final/1161_rv.mp4	0.0	286.15608310699463	2.4921481609344482
61	266.37347745895386	pulse	1	t		59.0	2.5	/experiments/knapen_AOT/AOT_stimuli/rescaled_final/1161_rv.mp4	0.0	286.5311346054077	
61	267.97190523147583	pulse	1	t		59.0	2.5	/experiments/knapen_AOT/AOT_stimuli/rescaled_final/1161_rv.mp4	0.0	288.1295623779297	
61	268.4905741214752	fix_post	2		12	59.0	2.5	/experiments/knapen_AOT/AOT_stimuli/rescaled_final/1161_rv.mp4	0.0	288.6482312679291	0.09974837303161621
62	268.59032249450684	fix_pre	0		119	60.0	2.5	/experiments/knapen_AOT/AOT_stimuli/rescaled_final/0590_rv.mp4	0.0	288.7479796409607	1.0001039505004883
62	269.5739269256592	pulse	0	t		60.0	2.5	/experiments/knapen_AOT/AOT_stimuli/rescaled_final/0590_rv.mp4	0.0	289.73158407211304	
62	269.5904264450073	movie	1		282	60.0	2.5	/experiments/knapen_AOT/AOT_stimuli/rescaled_final/0590_rv.mp4	0.0	289.7480835914612	2.5005149841308594
62	271.1722149848938	pulse	1	t		60.0	2.5	/experiments/knapen_AOT/AOT_stimuli/rescaled_final/0590_rv.mp4	0.0	291.32987213134766	
62	272.0909414291382	fix_post	2		12	60.0	2.5	/experiments/knapen_AOT/AOT_stimuli/rescaled_final/0590_rv.mp4	0.0	292.24859857559204	0.09987235069274902
63	272.19081377983093	fix_pre	0		120	61.0	2.5	blank	1.0	292.3484709262848	1.0000686645507812
63	272.77453327178955	pulse	0	t		61.0	2.5	blank	1.0	292.9321904182434	
63	273.1908824443817	movie	1		300	61.0	2.5	blank	1.0	293.34853959083557	2.5004734992980957
63	274.3746521472931	pulse	1	t		61.0	2.5	blank	1.0	294.53230929374695	
63	275.6913559436798	fix_post	2		12	61.0	2.5	blank	1.0	295.84901309013367	0.09994244575500488
64	275.7912983894348	fix_pre	0		120	62.0	2.5	/experiments/knapen_AOT/AOT_stimuli/rescaled_final/1253_fw.mp4	0.0	295.9489555358887	1.0086708068847656
64	275.9748344421387	pulse	0	t		62.0	2.5	/experiments/knapen_AOT/AOT_stimuli/rescaled_final/1253_fw.mp4	0.0	296.13249158859253	
64	276.7999691963196	movie	1		284	62.0	2.5	/experiments/knapen_AOT/AOT_stimuli/rescaled_final/1253_fw.mp4	0.0	296.95762634277344	2.4921116828918457
64	277.57333540916443	pulse	1	t		62.0	2.5	/experiments/knapen_AOT/AOT_stimuli/rescaled_final/1253_fw.mp4	0.0	297.7309925556183	
64	279.1737480163574	pulse	1	t		62.0	2.5	/experiments/knapen_AOT/AOT_stimuli/rescaled_final/1253_fw.mp4	0.0	299.3314051628113	
64	279.2920808792114	fix_post	2		12	62.0	2.5	/experiments/knapen_AOT/AOT_stimuli/rescaled_final/1253_fw.mp4	0.0	299.4497380256653	0.09976506233215332
65	279.3918459415436	fix_pre	0		120	63.0	2.5	/experiments/knapen_AOT/AOT_stimuli/rescaled_final/0917_rv.mp4	0.0	299.54950308799744	1.008561372756958
65	280.40040731430054	movie	1		261	63.0	2.5	/experiments/knapen_AOT/AOT_stimuli/rescaled_final/0917_rv.mp4	0.0	300.5580644607544	2.4922571182250977
65	280.7742199897766	pulse	1	t		63.0	2.5	/experiments/knapen_AOT/AOT_stimuli/rescaled_final/0917_rv.mp4	0.0	300.93187713623047	
65	282.3679029941559	pulse	1	t		63.0	2.5	/experiments/knapen_AOT/AOT_stimuli/rescaled_final/0917_rv.mp4	0.0	302.52556014060974	
65	282.89266443252563	fix_post	2		12	63.0	2.5	/experiments/knapen_AOT/AOT_stimuli/rescaled_final/0917_rv.mp4	0.0	303.0503215789795	0.09969806671142578
66	282.99236249923706	fix_pre	0		118	64.0	2.5	/experiments/knapen_AOT/AOT_stimuli/rescaled_final/1581_fw.mp4	0.0	303.1500196456909	0.991830587387085
66	283.9678523540497	pulse	0	t		64.0	2.5	/experiments/knapen_AOT/AOT_stimuli/rescaled_final/1581_fw.mp4	0.0	304.12550950050354	
66	283.98419308662415	movie	1		276	64.0	2.5	/experiments/knapen_AOT/AOT_stimuli/rescaled_final/1581_fw.mp4	0.0	304.141850233078	2.500483274459839
66	285.5766270160675	pulse	1	t		64.0	2.5	/experiments/knapen_AOT/AOT_stimuli/rescaled_final/1581_fw.mp4	0.0	305.73428416252136	
66	286.484676361084	fix_post	2		12	64.0	2.5	/experiments/knapen_AOT/AOT_stimuli/rescaled_final/1581_fw.mp4	0.0	306.64233350753784	0.09990382194519043
67	286.5845801830292	fix_pre	0		120	65.0	2.5	/experiments/knapen_AOT/AOT_stimuli/rescaled_final/1337_fw.mp4	0.0	306.74223732948303	1.0084757804870605
67	287.16827273368835	pulse	0	t		65.0	2.5	/experiments/knapen_AOT/AOT_stimuli/rescaled_final/1337_fw.mp4	0.0	307.3259298801422	
67	287.59305596351624	movie	1		267	65.0	2.5	/experiments/knapen_AOT/AOT_stimuli/rescaled_final/1337_fw.mp4	0.0	307.7507131099701	2.5008578300476074
67	288.76852202415466	pulse	1	t		65.0	2.5	/experiments/knapen_AOT/AOT_stimuli/rescaled_final/1337_fw.mp4	0.0	308.9261791706085	
67	290.09391379356384	fix_post	2		11	65.0	2.5	/experiments/knapen_AOT/AOT_stimuli/rescaled_final/1337_fw.mp4	0.0	310.2515709400177	0.09118390083312988
68	290.185097694397	fix_pre	0		120	66.0	2.5	/experiments/knapen_AOT/AOT_stimuli/rescaled_final/0863_fw.mp4	0.0	310.34275484085083	1.0086174011230469
68	290.36871099472046	pulse	0	t		66.0	2.5	/experiments/knapen_AOT/AOT_stimuli/rescaled_final/0863_fw.mp4	0.0	310.5263681411743	
68	291.19371509552	movie	1		275	66.0	2.5	/experiments/knapen_AOT/AOT_stimuli/rescaled_final/0863_fw.mp4	0.0	311.3513722419739	2.4919495582580566
68	291.96895360946655	pulse	1	t		66.0	2.5	/experiments/knapen_AOT/AOT_stimuli/rescaled_final/0863_fw.mp4	0.0	312.1266107559204	
68	293.56918120384216	pulse	1	t		66.0	2.5	/experiments/knapen_AOT/AOT_stimuli/rescaled_final/0863_fw.mp4	0.0	313.726838350296	
68	293.6856646537781	fix_post	2		12	66.0	2.5	/experiments/knapen_AOT/AOT_stimuli/rescaled_final/0863_fw.mp4	0.0	313.84332180023193	0.10016036033630371
69	293.7858250141144	fix_pre	0		120	67.0	2.5	/experiments/knapen_AOT/AOT_stimuli/rescaled_final/1983_rv.mp4	0.0	313.94348216056824	1.0083324909210205
69	294.7941575050354	movie	1		263	67.0	2.5	/experiments/knapen_AOT/AOT_stimuli/rescaled_final/1983_rv.mp4	0.0	314.95181465148926	2.4921672344207764
69	295.16907596588135	pulse	1	t		67.0	2.5	/experiments/knapen_AOT/AOT_stimuli/rescaled_final/1983_rv.mp4	0.0	315.3267331123352	
69	296.7677571773529	pulse	1	t		67.0	2.5	/experiments/knapen_AOT/AOT_stimuli/rescaled_final/1983_rv.mp4	0.0	316.92541432380676	
69	297.2863247394562	fix_post	2		12	67.0	2.5	/experiments/knapen_AOT/AOT_stimuli/rescaled_final/1983_rv.mp4	0.0	317.44398188591003	0.09988164901733398
70	297.3862063884735	fix_pre	0		119	68.0	2.5	/experiments/knapen_AOT/AOT_stimuli/rescaled_final/0671_rv.mp4	0.0	317.54386353492737	1.0004985332489014
70	298.3698856830597	pulse	0	t		68.0	2.5	/experiments/knapen_AOT/AOT_stimuli/rescaled_final/0671_rv.mp4	0.0	318.52754282951355	
70	298.3867049217224	movie	1		278	68.0	2.5	/experiments/knapen_AOT/AOT_stimuli/rescaled_final/0671_rv.mp4	0.0	318.54436206817627	2.500028371810913
70	299.9687752723694	pulse	1	t		68.0	2.5	/experiments/knapen_AOT/AOT_stimuli/rescaled_final/0671_rv.mp4	0.0	320.12643241882324	
70	300.8867332935333	fix_post	2		12	68.0	2.5	/experiments/knapen_AOT/AOT_stimuli/rescaled_final/0671_rv.mp4	0.0	321.0443904399872	0.10026860237121582
71	300.98700189590454	fix_pre	0		120	69.0	2.5	/experiments/knapen_AOT/AOT_stimuli/rescaled_final/1231_fw.mp4	0.0	321.1446590423584	1.0082521438598633
71	301.5704081058502	pulse	0	t		69.0	2.5	/experiments/knapen_AOT/AOT_stimuli/rescaled_final/1231_fw.mp4	0.0	321.7280652523041	
71	301.9952540397644	movie	1		263	69.0	2.5	/experiments/knapen_AOT/AOT_stimuli/rescaled_final/1231_fw.mp4	0.0	322.15291118621826	2.4922423362731934
71	303.17119336128235	pulse	1	t		69.0	2.5	/experiments/knapen_AOT/AOT_stimuli/rescaled_final/1231_fw.mp4	0.0	323.3288505077362	
71	304.4874963760376	fix_post	2		12	69.0	2.5	/experiments/knapen_AOT/AOT_stimuli/rescaled_final/1231_fw.mp4	0.0	324.64515352249146	0.09978580474853516
72	304.58728218078613	fix_pre	0		120	70.0	2.5	blank	1.0	324.74493932724	1.0001447200775146
72	304.7711305618286	pulse	0	t		70.0	2.5	blank	1.0	324.92878770828247	
72	305.58742690086365	movie	1		300	70.0	2.5	blank	1.0	325.7450840473175	2.500382423400879
72	306.3713207244873	pulse	1	t		70.0	2.5	blank	1.0	326.52897787094116	
72	307.97152948379517	pulse	1	t		70.0	2.5	blank	1.0	328.129186630249	
72	308.0878093242645	fix_post	2		12	70.0	2.5	blank	1.0	328.2454664707184	0.10000801086425781
73	308.1878173351288	fix_pre	0		120	71.0	2.5	/experiments/knapen_AOT/AOT_stimuli/rescaled_final/0433_fw.mp4	0.0	328.34547448158264	1.0086517333984375
73	309.1964690685272	movie	1		284	71.0	2.5	/experiments/knapen_AOT/AOT_stimuli/rescaled_final/0433_fw.mp4	0.0	329.3541262149811	2.4919302463531494
73	309.57016229629517	pulse	1	t		71.0	2.5	/experiments/knapen_AOT/AOT_stimuli/rescaled_final/0433_fw.mp4	0.0	329.727819442749	
73	311.16964960098267	pulse	1	t		71.0	2.5	/experiments/knapen_AOT/AOT_stimuli/rescaled_final/0433_fw.mp4	0.0	331.3273067474365	
73	311.68839931488037	fix_post	2		12	71.0	2.5	/experiments/knapen_AOT/AOT_stimuli/rescaled_final/0433_fw.mp4	0.0	331.84605646133423	0.10014009475708008
74	311.78853940963745	fix_pre	0		119	72.0	2.5	/experiments/knapen_AOT/AOT_stimuli/rescaled_final/1267_fw.mp4	0.0	331.9461965560913	1.0000791549682617
74	312.77220916748047	pulse	0	t		72.0	2.5	/experiments/knapen_AOT/AOT_stimuli/rescaled_final/1267_fw.mp4	0.0	332.9298663139343	
74	312.7886185646057	movie	1		289	72.0	2.5	/experiments/knapen_AOT/AOT_stimuli/rescaled_final/1267_fw.mp4	0.0	332.94627571105957	2.5003433227539062
74	314.3712258338928	pulse	1	t		72.0	2.5	/experiments/knapen_AOT/AOT_stimuli/rescaled_final/1267_fw.mp4	0.0	334.5288829803467	
74	315.2889618873596	fix_post	2		12	72.0	2.5	/experiments/knapen_AOT/AOT_stimuli/rescaled_final/1267_fw.mp4	0.0	335.4466190338135	0.10000014305114746
75	315.38896203041077	fix_pre	0		120	73.0	2.5	/experiments/knapen_AOT/AOT_stimuli/rescaled_final/0390_rv.mp4	0.0	335.5466191768646	1.0085418224334717
75	315.9725909233093	pulse	0	t		73.0	2.5	/experiments/knapen_AOT/AOT_stimuli/rescaled_final/0390_rv.mp4	0.0	336.1302480697632	
75	316.39750385284424	movie	1		281	73.0	2.5	/experiments/knapen_AOT/AOT_stimuli/rescaled_final/0390_rv.mp4	0.0	336.5551609992981	2.4920461177825928
75	317.57197618484497	pulse	1	t		73.0	2.5	/experiments/knapen_AOT/AOT_stimuli/rescaled_final/0390_rv.mp4	0.0	337.7296333312988	
75	318.88954997062683	fix_post	2		12	73.0	2.5	/experiments/knapen_AOT/AOT_stimuli/rescaled_final/0390_rv.mp4	0.0	339.0472071170807	0.10002446174621582
76	318.98957443237305	fix_pre	0		120	74.0	2.5	/experiments/knapen_AOT/AOT_stimuli/rescaled_final/2083_rv.mp4	0.0	339.1472315788269	1.008631706237793
76	319.17309308052063	pulse	0	t		74.0	2.5	/experiments/knapen_AOT/AOT_stimuli/rescaled_final/2083_rv.mp4	0.0	339.3307502269745	
76	319.99820613861084	movie	1		276	74.0	2.5	/experiments/knapen_AOT/AOT_stimuli/rescaled_final/2083_rv.mp4	0.0	340.1558632850647	2.491805076599121
76	320.7716209888458	pulse	1	t		74.0	2.5	/experiments/knapen_AOT/AOT_stimuli/rescaled_final/2083_rv.mp4	0.0	340.9292781352997	
76	322.37238812446594	pulse	1	t		74.0	2.5	/experiments/knapen_AOT/AOT_stimuli/rescaled_final/2083_rv.mp4	0.0	342.5300452709198	
76	322.49001121520996	fix_post	2		12	74.0	2.5	/experiments/knapen_AOT/AOT_stimuli/rescaled_final/2083_rv.mp4	0.0	342.6476683616638	0.10003232955932617
77	322.5900435447693	fix_pre	0		120	75.0	2.5	/experiments/knapen_AOT/AOT_stimuli/rescaled_final/1519_fw.mp4	0.0	342.74770069122314	1.0086114406585693
77	323.59865498542786	movie	1		272	75.0	2.5	/experiments/knapen_AOT/AOT_stimuli/rescaled_final/1519_fw.mp4	0.0	343.7563121318817	2.4922611713409424
77	323.9726896286011	pulse	1	t		75.0	2.5	/experiments/knapen_AOT/AOT_stimuli/rescaled_final/1519_fw.mp4	0.0	344.13034677505493	
77	325.5735282897949	pulse	1	t		75.0	2.5	/experiments/knapen_AOT/AOT_stimuli/rescaled_final/1519_fw.mp4	0.0	345.7311854362488	
77	326.0909161567688	fix_post	2		12	75.0	2.5	/experiments/knapen_AOT/AOT_stimuli/rescaled_final/1519_fw.mp4	0.0	346.24857330322266	0.0996086597442627
78	326.19052481651306	fix_pre	0		119	76.0	2.5	blank	1.0	346.3481819629669	0.9918205738067627
78	327.1742293834686	pulse	0	t		76.0	2.5	blank	1.0	347.3318865299225	
78	327.1823453903198	movie	1		301	76.0	2.5	blank	1.0	347.3400025367737	2.5087802410125732
78	328.7744300365448	pulse	1	t		76.0	2.5	blank	1.0	348.93208718299866	
78	329.6911256313324	fix_post	2		12	76.0	2.5	blank	1.0	349.84878277778625	0.09995555877685547
79	329.79108119010925	fix_pre	0		120	77.0	2.5	/experiments/knapen_AOT/AOT_stimuli/rescaled_final/1193_fw.mp4	0.0	349.9487383365631	1.0085601806640625
79	330.3746793270111	pulse	0	t		77.0	2.5	/experiments/knapen_AOT/AOT_stimuli/rescaled_final/1193_fw.mp4	0.0	350.53233647346497	
79	330.7996413707733	movie	1		283	77.0	2.5	/experiments/knapen_AOT/AOT_stimuli/rescaled_final/1193_fw.mp4	0.0	350.9572985172272	2.4919450283050537
79	331.9732868671417	pulse	1	t		77.0	2.5	/experiments/knapen_AOT/AOT_stimuli/rescaled_final/1193_fw.mp4	0.0	352.1309440135956	
79	333.29158639907837	fix_post	2		12	77.0	2.5	/experiments/knapen_AOT/AOT_stimuli/rescaled_final/1193_fw.mp4	0.0	353.4492435455322	0.10002017021179199
80	333.39160656929016	fix_pre	0		120	78.0	2.5	/experiments/knapen_AOT/AOT_stimuli/rescaled_final/1330_rv.mp4	0.0	353.549263715744	1.0086731910705566
80	333.575261592865	pulse	0	t		78.0	2.5	/experiments/knapen_AOT/AOT_stimuli/rescaled_final/1330_rv.mp4	0.0	353.73291873931885	
80	334.4002797603607	movie	1		271	78.0	2.5	/experiments/knapen_AOT/AOT_stimuli/rescaled_final/1330_rv.mp4	0.0	354.5579369068146	2.492176055908203
80	335.1745095252991	pulse	1	t		78.0	2.5	/experiments/knapen_AOT/AOT_stimuli/rescaled_final/1330_rv.mp4	0.0	355.33216667175293	
80	336.77542781829834	pulse	1	t		78.0	2.5	/experiments/knapen_AOT/AOT_stimuli/rescaled_final/1330_rv.mp4	0.0	356.9330849647522	
80	336.8924558162689	fix_post	2		12	78.0	2.5	/experiments/knapen_AOT/AOT_stimuli/rescaled_final/1330_rv.mp4	0.0	357.0501129627228	0.09969854354858398
81	336.9921543598175	fix_pre	0		120	79.0	2.5	/experiments/knapen_AOT/AOT_stimuli/rescaled_final/1631_rv.mp4	0.0	357.14981150627136	1.00848388671875
81	338.00063824653625	movie	1		271	79.0	2.5	/experiments/knapen_AOT/AOT_stimuli/rescaled_final/1631_rv.mp4	0.0	358.1582953929901	2.4922573566436768
81	338.3749198913574	pulse	1	t		79.0	2.5	/experiments/knapen_AOT/AOT_stimuli/rescaled_final/1631_rv.mp4	0.0	358.5325770378113	
81	339.96851229667664	pulse	1	t		79.0	2.5	/experiments/knapen_AOT/AOT_stimuli/rescaled_final/1631_rv.mp4	0.0	360.1261694431305	
81	340.49289560317993	fix_post	2		12	79.0	2.5	/experiments/knapen_AOT/AOT_stimuli/rescaled_final/1631_rv.mp4	0.0	360.6505527496338	0.09992766380310059
82	340.59282326698303	fix_pre	0		118	80.0	2.5	/experiments/knapen_AOT/AOT_stimuli/rescaled_final/1855_rv.mp4	0.0	360.7504804134369	0.9917056560516357
82	341.56840229034424	pulse	0	t		80.0	2.5	/experiments/knapen_AOT/AOT_stimuli/rescaled_final/1855_rv.mp4	0.0	361.7260594367981	
82	341.58452892303467	movie	1		273	80.0	2.5	/experiments/knapen_AOT/AOT_stimuli/rescaled_final/1855_rv.mp4	0.0	361.7421860694885	2.500544309616089
82	343.16715836524963	pulse	1	t		80.0	2.5	/experiments/knapen_AOT/AOT_stimuli/rescaled_final/1855_rv.mp4	0.0	363.3248155117035	
82	344.08507323265076	fix_post	2		11	80.0	2.5	/experiments/knapen_AOT/AOT_stimuli/rescaled_final/1855_rv.mp4	0.0	364.2427303791046	0.09982609748840332
83	344.18489933013916	fix_pre	0		120	81.0	2.5	/experiments/knapen_AOT/AOT_stimuli/rescaled_final/1132_fw.mp4	0.0	364.342556476593	1.0086047649383545
83	344.7685625553131	pulse	0	t		81.0	2.5	/experiments/knapen_AOT/AOT_stimuli/rescaled_final/1132_fw.mp4	0.0	364.92621970176697	
83	345.1935040950775	movie	1		283	81.0	2.5	/experiments/knapen_AOT/AOT_stimuli/rescaled_final/1132_fw.mp4	0.0	365.3511612415314	2.491912364959717
83	346.3689184188843	pulse	1	t		81.0	2.5	/experiments/knapen_AOT/AOT_stimuli/rescaled_final/1132_fw.mp4	0.0	366.52657556533813	
83	347.68541646003723	fix_post	2		12	81.0	2.5	/experiments/knapen_AOT/AOT_stimuli/rescaled_final/1132_fw.mp4	0.0	367.8430736064911	0.10003542900085449
84	347.7854518890381	fix_pre	0		120	82.0	2.5	/experiments/knapen_AOT/AOT_stimuli/rescaled_final/0320_rv.mp4	0.0	367.94310903549194	1.0084562301635742
84	347.96899151802063	pulse	0	t		82.0	2.5	/experiments/knapen_AOT/AOT_stimuli/rescaled_final/0320_rv.mp4	0.0	368.1266486644745	
84	348.79390811920166	movie	1		282	82.0	2.5	/experiments/knapen_AOT/AOT_stimuli/rescaled_final/0320_rv.mp4	0.0	368.9515652656555	2.492048740386963
84	349.568158864975	pulse	1	t		82.0	2.5	/experiments/knapen_AOT/AOT_stimuli/rescaled_final/0320_rv.mp4	0.0	369.72581601142883	
84	351.1676242351532	pulse	1	t		82.0	2.5	/experiments/knapen_AOT/AOT_stimuli/rescaled_final/0320_rv.mp4	0.0	371.32528138160706	
84	351.2859568595886	fix_post	2		12	82.0	2.5	/experiments/knapen_AOT/AOT_stimuli/rescaled_final/0320_rv.mp4	0.0	371.4436140060425	0.10003304481506348
85	351.3859899044037	fix_pre	0		120	83.0	2.5	blank	1.0	371.54364705085754	1.0001349449157715
85	352.38612484931946	movie	1		300	83.0	2.5	blank	1.0	372.5437819957733	2.5004472732543945
85	352.7699511051178	pulse	1	t		83.0	2.5	blank	1.0	372.92760825157166	
85	354.3699584007263	pulse	1	t		83.0	2.5	blank	1.0	374.5276155471802	
85	354.88657212257385	fix_post	2		12	83.0	2.5	blank	1.0	375.0442292690277	0.09996843338012695
87	354.986540555954	stim	0		1715					375.14419770240784	14.293815851211548
87	355.9702286720276	pulse	0	t						376.12788581848145	
87	357.5705153942108	pulse	0	t						377.7281725406647	
87	359.1706643104553	pulse	0	t						379.3283214569092	
87	360.7709858417511	pulse	0	t						380.92864298820496	
87	362.3711609840393	pulse	0	t						382.52881813049316	
87	363.9714696407318	pulse	0	t						384.12912678718567	
87	365.57168650627136	pulse	0	t						385.7293436527252	
87	367.17198848724365	pulse	0	t						387.3296456336975	
87	368.7721281051636	pulse	0	t						388.92978525161743	
