trial_nr	onset	event_type	phase	response	nr_frames	movie_index	movie_duration	movie_file	blank	onset_abs	duration
0	0.1497211456298828	stim	0		3					17.72271156311035	0.02496170997619629
0	0.16665101051330566	response	0	space						17.739641427993774	
1	0.1746828556060791	stim	0		4601					17.747673273086548	38.357096672058105
1	38.511982679367065	pulse	0	t						56.084973096847534	
1	38.531779527664185	stim	1		1715					56.10476994514465	14.300837516784668
1	40.10636878013611	pulse	1	t						57.67935919761658	
1	41.70636296272278	pulse	1	t						59.27935338020325	
1	43.306394815444946	pulse	1	t						60.879385232925415	
1	44.90659785270691	pulse	1	t						62.47958827018738	
1	46.50700879096985	pulse	1	t						64.07999920845032	
1	48.10710263252258	pulse	1	t						65.68009305000305	
1	49.70743656158447	pulse	1	t						67.28042697906494	
1	51.30759406089783	pulse	1	t						68.8805844783783	
2	52.83261704444885	fix_pre	0		10	0.0	2.5	/experiments/Knapen_AOT/AOT_stimuli/rescaled_final/0244_fw.mp4	0.0	70.40560746192932	0.1000216007232666
2	52.90786814689636	pulse	0	t		0.0	2.5	/experiments/Knapen_AOT/AOT_stimuli/rescaled_final/0244_fw.mp4	0.0	70.48085856437683	
2	52.93263864517212	movie	1		292	0.0	2.5	/experiments/Knapen_AOT/AOT_stimuli/rescaled_final/0244_fw.mp4	0.0	70.50562906265259	2.492004871368408
2	54.50673532485962	pulse	1	t		0.0	2.5	/experiments/Knapen_AOT/AOT_stimuli/rescaled_final/0244_fw.mp4	0.0	72.07972574234009	
2	55.42464351654053	fix_post	2		12	0.0	2.5	/experiments/Knapen_AOT/AOT_stimuli/rescaled_final/0244_fw.mp4	0.0	72.997633934021	0.10002517700195312
3	55.52466869354248	fix_pre	0		120	1.0	2.5	/experiments/Knapen_AOT/AOT_stimuli/rescaled_final/1892_fw.mp4	0.0	73.09765911102295	1.0084784030914307
3	56.10838985443115	pulse	0	t		1.0	2.5	/experiments/Knapen_AOT/AOT_stimuli/rescaled_final/1892_fw.mp4	0.0	73.68138027191162	
3	56.53314709663391	movie	1		285	1.0	2.5	/experiments/Knapen_AOT/AOT_stimuli/rescaled_final/1892_fw.mp4	0.0	74.10613751411438	2.492043972015381
3	57.70868945121765	pulse	1	t		1.0	2.5	/experiments/Knapen_AOT/AOT_stimuli/rescaled_final/1892_fw.mp4	0.0	75.28167986869812	
3	59.02519106864929	fix_post	2		12	1.0	2.5	/experiments/Knapen_AOT/AOT_stimuli/rescaled_final/1892_fw.mp4	0.0	76.59818148612976	0.10001659393310547
4	59.1252076625824	fix_pre	0		120	2.0	2.5	/experiments/Knapen_AOT/AOT_stimuli/rescaled_final/0102_fw.mp4	0.0	76.69819808006287	1.0085740089416504
4	59.3088800907135	pulse	0	t		2.0	2.5	/experiments/Knapen_AOT/AOT_stimuli/rescaled_final/0102_fw.mp4	0.0	76.88187050819397	
4	60.13378167152405	movie	1		287	2.0	2.5	/experiments/Knapen_AOT/AOT_stimuli/rescaled_final/0102_fw.mp4	0.0	77.70677208900452	2.491952896118164
4	60.90686893463135	pulse	1	t		2.0	2.5	/experiments/Knapen_AOT/AOT_stimuli/rescaled_final/0102_fw.mp4	0.0	78.47985935211182	
4	62.507222175598145	pulse	1	t		2.0	2.5	/experiments/Knapen_AOT/AOT_stimuli/rescaled_final/0102_fw.mp4	0.0	80.08021259307861	
4	62.62573456764221	fix_post	2		12	2.0	2.5	/experiments/Knapen_AOT/AOT_stimuli/rescaled_final/0102_fw.mp4	0.0	80.19872498512268	0.10002303123474121
5	62.72575759887695	fix_pre	0		120	3.0	2.5	/experiments/Knapen_AOT/AOT_stimuli/rescaled_final/1650_rv.mp4	0.0	80.29874801635742	1.0084986686706543
5	63.73425626754761	movie	1		284	3.0	2.5	/experiments/Knapen_AOT/AOT_stimuli/rescaled_final/1650_rv.mp4	0.0	81.30724668502808	2.4920148849487305
5	64.10879302024841	pulse	1	t		3.0	2.5	/experiments/Knapen_AOT/AOT_stimuli/rescaled_final/1650_rv.mp4	0.0	81.68178343772888	
5	65.70742177963257	pulse	1	t		3.0	2.5	/experiments/Knapen_AOT/AOT_stimuli/rescaled_final/1650_rv.mp4	0.0	83.28041219711304	
5	66.22627115249634	fix_post	2		12	3.0	2.5	/experiments/Knapen_AOT/AOT_stimuli/rescaled_final/1650_rv.mp4	0.0	83.7992615699768	0.10007715225219727
6	66.32634830474854	fix_pre	0		119	4.0	2.5	/experiments/Knapen_AOT/AOT_stimuli/rescaled_final/2060_fw.mp4	0.0	83.899338722229	1.0001111030578613
6	67.31001853942871	pulse	0	t		4.0	2.5	/experiments/Knapen_AOT/AOT_stimuli/rescaled_final/2060_fw.mp4	0.0	84.88300895690918	
6	67.3264594078064	movie	1		287	4.0	2.5	/experiments/Knapen_AOT/AOT_stimuli/rescaled_final/2060_fw.mp4	0.0	84.89944982528687	2.5003609657287598
6	68.90875458717346	pulse	1	t		4.0	2.5	/experiments/Knapen_AOT/AOT_stimuli/rescaled_final/2060_fw.mp4	0.0	86.48174500465393	
6	69.82682037353516	fix_post	2		12	4.0	2.5	/experiments/Knapen_AOT/AOT_stimuli/rescaled_final/2060_fw.mp4	0.0	87.39981079101562	0.10017848014831543
7	69.92699885368347	fix_pre	0		120	5.0	2.5	/experiments/Knapen_AOT/AOT_stimuli/rescaled_final/1980_rv.mp4	0.0	87.49998927116394	1.0083632469177246
7	70.51050090789795	pulse	0	t		5.0	2.5	/experiments/Knapen_AOT/AOT_stimuli/rescaled_final/1980_rv.mp4	0.0	88.08349132537842	
7	70.9353621006012	movie	1		289	5.0	2.5	/experiments/Knapen_AOT/AOT_stimuli/rescaled_final/1980_rv.mp4	0.0	88.50835251808167	2.4920451641082764
7	72.10867857933044	pulse	1	t		5.0	2.5	/experiments/Knapen_AOT/AOT_stimuli/rescaled_final/1980_rv.mp4	0.0	89.68166899681091	
7	73.42740726470947	fix_post	2		12	5.0	2.5	/experiments/Knapen_AOT/AOT_stimuli/rescaled_final/1980_rv.mp4	0.0	91.00039768218994	0.09999728202819824
8	73.52740454673767	fix_pre	0		120	6.0	2.5	blank	1.0	91.10039496421814	1.0002648830413818
8	73.71093726158142	pulse	0	t		6.0	2.5	blank	1.0	91.28392767906189	
8	74.52766942977905	movie	1		300	6.0	2.5	blank	1.0	92.10065984725952	2.5002424716949463
8	75.31115531921387	pulse	1	t		6.0	2.5	blank	1.0	92.88414573669434	
8	76.91141247749329	pulse	1	t		6.0	2.5	blank	1.0	94.48440289497375	
8	77.027911901474	fix_post	2		12	6.0	2.5	blank	1.0	94.60090231895447	0.10009646415710449
9	77.1280083656311	fix_pre	0		120	7.0	2.5	/experiments/Knapen_AOT/AOT_stimuli/rescaled_final/0760_fw.mp4	0.0	94.70099878311157	1.0083930492401123
9	78.13640141487122	movie	1		290	7.0	2.5	/experiments/Knapen_AOT/AOT_stimuli/rescaled_final/0760_fw.mp4	0.0	95.70939183235168	2.4920542240142822
9	78.51174783706665	pulse	1	t		7.0	2.5	/experiments/Knapen_AOT/AOT_stimuli/rescaled_final/0760_fw.mp4	0.0	96.08473825454712	
9	80.11161136627197	pulse	1	t		7.0	2.5	/experiments/Knapen_AOT/AOT_stimuli/rescaled_final/0760_fw.mp4	0.0	97.68460178375244	
9	80.6284556388855	fix_post	2		12	7.0	2.5	/experiments/Knapen_AOT/AOT_stimuli/rescaled_final/0760_fw.mp4	0.0	98.20144605636597	0.10002541542053223
10	80.72848105430603	fix_pre	0		119	8.0	2.5	/experiments/Knapen_AOT/AOT_stimuli/rescaled_final/0893_fw.mp4	0.0	98.3014714717865	1.000267744064331
10	81.71212863922119	pulse	0	t		8.0	2.5	/experiments/Knapen_AOT/AOT_stimuli/rescaled_final/0893_fw.mp4	0.0	99.28511905670166	
10	81.72874879837036	movie	1		271	8.0	2.5	/experiments/Knapen_AOT/AOT_stimuli/rescaled_final/0893_fw.mp4	0.0	99.30173921585083	2.5002474784851074
10	83.31090927124023	pulse	1	t		8.0	2.5	/experiments/Knapen_AOT/AOT_stimuli/rescaled_final/0893_fw.mp4	0.0	100.8838996887207	
10	84.22899627685547	fix_post	2		12	8.0	2.5	/experiments/Knapen_AOT/AOT_stimuli/rescaled_final/0893_fw.mp4	0.0	101.80198669433594	0.10003471374511719
11	84.32903099060059	fix_pre	0		120	9.0	2.5	/experiments/Knapen_AOT/AOT_stimuli/rescaled_final/0463_fw.mp4	0.0	101.90202140808105	1.0084636211395264
11	84.91262722015381	pulse	0	t		9.0	2.5	/experiments/Knapen_AOT/AOT_stimuli/rescaled_final/0463_fw.mp4	0.0	102.48561763763428	
11	85.33749461174011	movie	1		287	9.0	2.5	/experiments/Knapen_AOT/AOT_stimuli/rescaled_final/0463_fw.mp4	0.0	102.91048502922058	2.492018461227417
11	86.51114845275879	pulse	1	t		9.0	2.5	/experiments/Knapen_AOT/AOT_stimuli/rescaled_final/0463_fw.mp4	0.0	104.08413887023926	
11	87.82951307296753	fix_post	2		12	9.0	2.5	/experiments/Knapen_AOT/AOT_stimuli/rescaled_final/0463_fw.mp4	0.0	105.402503490448	0.10002946853637695
12	87.9295425415039	fix_pre	0		120	10.0	2.5	/experiments/Knapen_AOT/AOT_stimuli/rescaled_final/0074_rv.mp4	0.0	105.50253295898438	1.0085432529449463
12	88.11310243606567	pulse	0	t		10.0	2.5	/experiments/Knapen_AOT/AOT_stimuli/rescaled_final/0074_rv.mp4	0.0	105.68609285354614	
12	88.93808579444885	movie	1		293	10.0	2.5	/experiments/Knapen_AOT/AOT_stimuli/rescaled_final/0074_rv.mp4	0.0	106.51107621192932	2.491997480392456
12	89.71104955673218	pulse	1	t		10.0	2.5	/experiments/Knapen_AOT/AOT_stimuli/rescaled_final/0074_rv.mp4	0.0	107.28403997421265	
12	91.3118851184845	pulse	1	t		10.0	2.5	/experiments/Knapen_AOT/AOT_stimuli/rescaled_final/0074_rv.mp4	0.0	108.88487553596497	
12	91.43008327484131	fix_post	2		12	10.0	2.5	/experiments/Knapen_AOT/AOT_stimuli/rescaled_final/0074_rv.mp4	0.0	109.00307369232178	0.10006022453308105
13	91.53014349937439	fix_pre	0		120	11.0	2.5	/experiments/Knapen_AOT/AOT_stimuli/rescaled_final/1898_fw.mp4	0.0	109.10313391685486	1.0084407329559326
13	92.53858423233032	movie	1		274	11.0	2.5	/experiments/Knapen_AOT/AOT_stimuli/rescaled_final/1898_fw.mp4	0.0	110.11157464981079	2.492029905319214
13	92.91354703903198	pulse	1	t		11.0	2.5	/experiments/Knapen_AOT/AOT_stimuli/rescaled_final/1898_fw.mp4	0.0	110.48653745651245	
13	94.51331067085266	pulse	1	t		11.0	2.5	/experiments/Knapen_AOT/AOT_stimuli/rescaled_final/1898_fw.mp4	0.0	112.08630108833313	
13	95.03061413764954	fix_post	2		12	11.0	2.5	/experiments/Knapen_AOT/AOT_stimuli/rescaled_final/1898_fw.mp4	0.0	112.60360455513	0.10001850128173828
14	95.13063263893127	fix_pre	0		119	12.0	2.5	/experiments/Knapen_AOT/AOT_stimuli/rescaled_final/1061_rv.mp4	0.0	112.70362305641174	1.0085151195526123
14	96.11426329612732	pulse	0	t		12.0	2.5	/experiments/Knapen_AOT/AOT_stimuli/rescaled_final/1061_rv.mp4	0.0	113.68725371360779	
14	96.13914775848389	movie	1		281	12.0	2.5	/experiments/Knapen_AOT/AOT_stimuli/rescaled_final/1061_rv.mp4	0.0	113.71213817596436	2.492011785507202
14	97.71283507347107	pulse	1	t		12.0	2.5	/experiments/Knapen_AOT/AOT_stimuli/rescaled_final/1061_rv.mp4	0.0	115.28582549095154	
14	98.63115954399109	fix_post	2		12	12.0	2.5	/experiments/Knapen_AOT/AOT_stimuli/rescaled_final/1061_rv.mp4	0.0	116.20414996147156	0.10000753402709961
15	98.73116707801819	fix_pre	0		120	13.0	2.5	blank	1.0	116.30415749549866	1.000145435333252
15	99.30688261985779	pulse	0	t		13.0	2.5	blank	1.0	116.87987303733826	
15	99.73131251335144	movie	1		300	13.0	2.5	blank	1.0	117.30430293083191	2.5003678798675537
15	100.90685749053955	pulse	1	t		13.0	2.5	blank	1.0	118.47984790802002	
15	102.231680393219	fix_post	2		12	13.0	2.5	blank	1.0	119.80467081069946	0.10003900527954102
16	102.33171939849854	fix_pre	0		120	14.0	2.5	/experiments/Knapen_AOT/AOT_stimuli/rescaled_final/0515_rv.mp4	0.0	119.904709815979	1.0085055828094482
16	102.507169008255	pulse	0	t		14.0	2.5	/experiments/Knapen_AOT/AOT_stimuli/rescaled_final/0515_rv.mp4	0.0	120.08015942573547	
16	103.34022498130798	movie	1		280	14.0	2.5	/experiments/Knapen_AOT/AOT_stimuli/rescaled_final/0515_rv.mp4	0.0	120.91321539878845	2.49200701713562
16	104.10723352432251	pulse	1	t		14.0	2.5	/experiments/Knapen_AOT/AOT_stimuli/rescaled_final/0515_rv.mp4	0.0	121.68022394180298	
16	105.70742130279541	pulse	1	t		14.0	2.5	/experiments/Knapen_AOT/AOT_stimuli/rescaled_final/0515_rv.mp4	0.0	123.28041172027588	
16	105.8322319984436	fix_post	2		12	14.0	2.5	/experiments/Knapen_AOT/AOT_stimuli/rescaled_final/0515_rv.mp4	0.0	123.40522241592407	0.10002684593200684
17	105.93225884437561	fix_pre	0		120	15.0	2.5	/experiments/Knapen_AOT/AOT_stimuli/rescaled_final/1898_rv.mp4	0.0	123.50524926185608	1.0084993839263916
17	106.940758228302	movie	1		279	15.0	2.5	/experiments/Knapen_AOT/AOT_stimuli/rescaled_final/1898_rv.mp4	0.0	124.51374864578247	2.492112398147583
17	107.3079628944397	pulse	1	t		15.0	2.5	/experiments/Knapen_AOT/AOT_stimuli/rescaled_final/1898_rv.mp4	0.0	124.88095331192017	
17	108.90791893005371	pulse	1	t		15.0	2.5	/experiments/Knapen_AOT/AOT_stimuli/rescaled_final/1898_rv.mp4	0.0	126.48090934753418	
17	109.43287062644958	fix_post	2		12	15.0	2.5	/experiments/Knapen_AOT/AOT_stimuli/rescaled_final/1898_rv.mp4	0.0	127.00586104393005	0.09997200965881348
18	109.5328426361084	fix_pre	0		118	16.0	2.5	/experiments/Knapen_AOT/AOT_stimuli/rescaled_final/1549_rv.mp4	0.0	127.10583305358887	0.991776704788208
18	110.50821256637573	pulse	0	t		16.0	2.5	/experiments/Knapen_AOT/AOT_stimuli/rescaled_final/1549_rv.mp4	0.0	128.0812029838562	
18	110.5246193408966	movie	1		288	16.0	2.5	/experiments/Knapen_AOT/AOT_stimuli/rescaled_final/1549_rv.mp4	0.0	128.09760975837708	2.500378131866455
18	112.10675859451294	pulse	1	t		16.0	2.5	/experiments/Knapen_AOT/AOT_stimuli/rescaled_final/1549_rv.mp4	0.0	129.6797490119934	
18	113.02499747276306	fix_post	2		12	16.0	2.5	/experiments/Knapen_AOT/AOT_stimuli/rescaled_final/1549_rv.mp4	0.0	130.59798789024353	0.09999680519104004
19	113.1249942779541	fix_pre	0		120	17.0	2.5	/experiments/Knapen_AOT/AOT_stimuli/rescaled_final/1499_fw.mp4	0.0	130.69798469543457	1.0085790157318115
19	113.70869398117065	pulse	0	t		17.0	2.5	/experiments/Knapen_AOT/AOT_stimuli/rescaled_final/1499_fw.mp4	0.0	131.28168439865112	
19	114.13357329368591	movie	1		282	17.0	2.5	/experiments/Knapen_AOT/AOT_stimuli/rescaled_final/1499_fw.mp4	0.0	131.70656371116638	2.4919230937957764
19	115.3075635433197	pulse	1	t		17.0	2.5	/experiments/Knapen_AOT/AOT_stimuli/rescaled_final/1499_fw.mp4	0.0	132.88055396080017	
19	116.62549638748169	fix_post	2		12	17.0	2.5	/experiments/Knapen_AOT/AOT_stimuli/rescaled_final/1499_fw.mp4	0.0	134.19848680496216	0.10004043579101562
20	116.7255368232727	fix_pre	0		120	18.0	2.5	/experiments/Knapen_AOT/AOT_stimuli/rescaled_final/1806_fw.mp4	0.0	134.29852724075317	1.0085279941558838
20	116.909188747406	pulse	0	t		18.0	2.5	/experiments/Knapen_AOT/AOT_stimuli/rescaled_final/1806_fw.mp4	0.0	134.48217916488647	
20	117.73406481742859	movie	1		290	18.0	2.5	/experiments/Knapen_AOT/AOT_stimuli/rescaled_final/1806_fw.mp4	0.0	135.30705523490906	2.4919893741607666
20	118.50732517242432	pulse	1	t		18.0	2.5	/experiments/Knapen_AOT/AOT_stimuli/rescaled_final/1806_fw.mp4	0.0	136.08031558990479	
20	120.1078588962555	pulse	1	t		18.0	2.5	/experiments/Knapen_AOT/AOT_stimuli/rescaled_final/1806_fw.mp4	0.0	137.68084931373596	
20	120.22605419158936	fix_post	2		12	18.0	2.5	/experiments/Knapen_AOT/AOT_stimuli/rescaled_final/1806_fw.mp4	0.0	137.79904460906982	0.10001707077026367
21	120.32607126235962	fix_pre	0		120	19.0	2.5	blank	1.0	137.8990616798401	1.0001773834228516
21	121.32624864578247	movie	1		300	19.0	2.5	blank	1.0	138.89923906326294	2.5003347396850586
21	121.71010160446167	pulse	1	t		19.0	2.5	blank	1.0	139.28309202194214	
21	123.3103940486908	pulse	1	t		19.0	2.5	blank	1.0	140.88338446617126	
21	123.82658338546753	fix_post	2		12	19.0	2.5	blank	1.0	141.399573802948	0.10003900527954102
22	123.92662239074707	fix_pre	0		119	20.0	2.5	/experiments/Knapen_AOT/AOT_stimuli/rescaled_final/1906_rv.mp4	0.0	141.49961280822754	1.000140905380249
22	124.91031265258789	pulse	0	t		20.0	2.5	/experiments/Knapen_AOT/AOT_stimuli/rescaled_final/1906_rv.mp4	0.0	142.48330307006836	
22	124.92676329612732	movie	1		279	20.0	2.5	/experiments/Knapen_AOT/AOT_stimuli/rescaled_final/1906_rv.mp4	0.0	142.4997537136078	2.5005359649658203
22	126.51060938835144	pulse	1	t		20.0	2.5	/experiments/Knapen_AOT/AOT_stimuli/rescaled_final/1906_rv.mp4	0.0	144.0835998058319	
22	127.42729926109314	fix_post	2		12	20.0	2.5	/experiments/Knapen_AOT/AOT_stimuli/rescaled_final/1906_rv.mp4	0.0	145.0002896785736	0.0998685359954834
23	127.52716779708862	fix_pre	0		120	21.0	2.5	/experiments/Knapen_AOT/AOT_stimuli/rescaled_final/0066_rv.mp4	0.0	145.1001582145691	1.0085322856903076
23	128.11121606826782	pulse	0	t		21.0	2.5	/experiments/Knapen_AOT/AOT_stimuli/rescaled_final/0066_rv.mp4	0.0	145.6842064857483	
23	128.53570008277893	movie	1		286	21.0	2.5	/experiments/Knapen_AOT/AOT_stimuli/rescaled_final/0066_rv.mp4	0.0	146.1086905002594	2.4919795989990234
23	129.70879983901978	pulse	1	t		21.0	2.5	/experiments/Knapen_AOT/AOT_stimuli/rescaled_final/0066_rv.mp4	0.0	147.28179025650024	
23	131.02767968177795	fix_post	2		12	21.0	2.5	/experiments/Knapen_AOT/AOT_stimuli/rescaled_final/0066_rv.mp4	0.0	148.60067009925842	0.10002779960632324
24	131.12770748138428	fix_pre	0		120	22.0	2.5	/experiments/Knapen_AOT/AOT_stimuli/rescaled_final/0235_fw.mp4	0.0	148.70069789886475	1.008484125137329
24	131.31145811080933	pulse	0	t		22.0	2.5	/experiments/Knapen_AOT/AOT_stimuli/rescaled_final/0235_fw.mp4	0.0	148.8844485282898	
24	132.1361916065216	movie	1		279	22.0	2.5	/experiments/Knapen_AOT/AOT_stimuli/rescaled_final/0235_fw.mp4	0.0	149.70918202400208	2.492058515548706
24	132.90947890281677	pulse	1	t		22.0	2.5	/experiments/Knapen_AOT/AOT_stimuli/rescaled_final/0235_fw.mp4	0.0	150.48246932029724	
24	134.50969886779785	pulse	1	t		22.0	2.5	/experiments/Knapen_AOT/AOT_stimuli/rescaled_final/0235_fw.mp4	0.0	152.08268928527832	
24	134.6282501220703	fix_post	2		12	22.0	2.5	/experiments/Knapen_AOT/AOT_stimuli/rescaled_final/0235_fw.mp4	0.0	152.20124053955078	0.09998464584350586
25	134.72823476791382	fix_pre	0		120	23.0	2.5	/experiments/Knapen_AOT/AOT_stimuli/rescaled_final/1614_fw.mp4	0.0	152.3012251853943	1.0085763931274414
25	135.73681116104126	movie	1		290	23.0	2.5	/experiments/Knapen_AOT/AOT_stimuli/rescaled_final/1614_fw.mp4	0.0	153.30980157852173	2.492126941680908
25	136.10990619659424	pulse	1	t		23.0	2.5	/experiments/Knapen_AOT/AOT_stimuli/rescaled_final/1614_fw.mp4	0.0	153.6828966140747	
25	137.70991158485413	pulse	1	t		23.0	2.5	/experiments/Knapen_AOT/AOT_stimuli/rescaled_final/1614_fw.mp4	0.0	155.2829020023346	
25	138.22893810272217	fix_post	2		12	23.0	2.5	/experiments/Knapen_AOT/AOT_stimuli/rescaled_final/1614_fw.mp4	0.0	155.80192852020264	0.0998992919921875
26	138.32883739471436	fix_pre	0		119	24.0	2.5	/experiments/Knapen_AOT/AOT_stimuli/rescaled_final/0251_rv.mp4	0.0	155.90182781219482	1.00010347366333
26	139.3124315738678	pulse	0	t		24.0	2.5	/experiments/Knapen_AOT/AOT_stimuli/rescaled_final/0251_rv.mp4	0.0	156.88542199134827	
26	139.32894086837769	movie	1		286	24.0	2.5	/experiments/Knapen_AOT/AOT_stimuli/rescaled_final/0251_rv.mp4	0.0	156.90193128585815	2.5003862380981445
26	140.9111623764038	pulse	1	t		24.0	2.5	/experiments/Knapen_AOT/AOT_stimuli/rescaled_final/0251_rv.mp4	0.0	158.48415279388428	
26	141.82932710647583	fix_post	2		12	24.0	2.5	/experiments/Knapen_AOT/AOT_stimuli/rescaled_final/0251_rv.mp4	0.0	159.4023175239563	0.10008549690246582
27	141.9294126033783	fix_pre	0		120	25.0	2.5	/experiments/Knapen_AOT/AOT_stimuli/rescaled_final/0680_rv.mp4	0.0	159.50240302085876	1.008413314819336
27	142.5128972530365	pulse	0	t		25.0	2.5	/experiments/Knapen_AOT/AOT_stimuli/rescaled_final/0680_rv.mp4	0.0	160.08588767051697	
27	142.93782591819763	movie	1		280	25.0	2.5	/experiments/Knapen_AOT/AOT_stimuli/rescaled_final/0680_rv.mp4	0.0	160.5108163356781	2.4920711517333984
27	144.1111307144165	pulse	1	t		25.0	2.5	/experiments/Knapen_AOT/AOT_stimuli/rescaled_final/0680_rv.mp4	0.0	161.68412113189697	
27	145.42989706993103	fix_post	2		12	25.0	2.5	/experiments/Knapen_AOT/AOT_stimuli/rescaled_final/0680_rv.mp4	0.0	163.0028874874115	0.09996914863586426
28	145.5298662185669	fix_pre	0		120	26.0	2.5	blank	1.0	163.10285663604736	1.0002028942108154
28	145.7134246826172	pulse	0	t		26.0	2.5	blank	1.0	163.28641510009766	
28	146.5300691127777	movie	1		300	26.0	2.5	blank	1.0	164.10305953025818	2.500380516052246
28	147.3137240409851	pulse	1	t		26.0	2.5	blank	1.0	164.88671445846558	
28	148.9140408039093	pulse	1	t		26.0	2.5	blank	1.0	166.48703122138977	
28	149.03044962882996	fix_post	2		12	26.0	2.5	blank	1.0	166.60344004631042	0.09999394416809082
29	149.13044357299805	fix_pre	0		120	27.0	2.5	/experiments/Knapen_AOT/AOT_stimuli/rescaled_final/1746_fw.mp4	0.0	166.70343399047852	1.0085139274597168
29	150.13895750045776	movie	1		283	27.0	2.5	/experiments/Knapen_AOT/AOT_stimuli/rescaled_final/1746_fw.mp4	0.0	167.71194791793823	2.49204158782959
29	150.5124089717865	pulse	1	t		27.0	2.5	/experiments/Knapen_AOT/AOT_stimuli/rescaled_final/1746_fw.mp4	0.0	168.08539938926697	
29	152.11230874061584	pulse	1	t		27.0	2.5	/experiments/Knapen_AOT/AOT_stimuli/rescaled_final/1746_fw.mp4	0.0	169.6852991580963	
29	152.63099908828735	fix_post	2		12	27.0	2.5	/experiments/Knapen_AOT/AOT_stimuli/rescaled_final/1746_fw.mp4	0.0	170.20398950576782	0.09996676445007324
30	152.73096585273743	fix_pre	0		119	28.0	2.5	/experiments/Knapen_AOT/AOT_stimuli/rescaled_final/2160_rv.mp4	0.0	170.3039562702179	1.0001683235168457
30	153.71492266654968	pulse	0	t		28.0	2.5	/experiments/Knapen_AOT/AOT_stimuli/rescaled_final/2160_rv.mp4	0.0	171.28791308403015	
30	153.73113417625427	movie	1		280	28.0	2.5	/experiments/Knapen_AOT/AOT_stimuli/rescaled_final/2160_rv.mp4	0.0	171.30412459373474	2.5003421306610107
30	155.313138961792	pulse	1	t		28.0	2.5	/experiments/Knapen_AOT/AOT_stimuli/rescaled_final/2160_rv.mp4	0.0	172.88612937927246	
30	156.23147630691528	fix_post	2		12	28.0	2.5	/experiments/Knapen_AOT/AOT_stimuli/rescaled_final/2160_rv.mp4	0.0	173.80446672439575	0.10026693344116211
31	156.33174324035645	fix_pre	0		120	29.0	2.5	/experiments/Knapen_AOT/AOT_stimuli/rescaled_final/0272_rv.mp4	0.0	173.9047336578369	1.0083143711090088
31	156.9071547985077	pulse	0	t		29.0	2.5	/experiments/Knapen_AOT/AOT_stimuli/rescaled_final/0272_rv.mp4	0.0	174.48014521598816	
31	157.34005761146545	movie	1		282	29.0	2.5	/experiments/Knapen_AOT/AOT_stimuli/rescaled_final/0272_rv.mp4	0.0	174.91304802894592	2.4920120239257812
31	158.50716996192932	pulse	1	t		29.0	2.5	/experiments/Knapen_AOT/AOT_stimuli/rescaled_final/0272_rv.mp4	0.0	176.0801603794098	
31	159.83206963539124	fix_post	2		12	29.0	2.5	/experiments/Knapen_AOT/AOT_stimuli/rescaled_final/0272_rv.mp4	0.0	177.4050600528717	0.10001969337463379
32	159.93208932876587	fix_pre	0		120	30.0	2.5	/experiments/Knapen_AOT/AOT_stimuli/rescaled_final/0816_fw.mp4	0.0	177.50507974624634	1.0084609985351562
32	160.10737466812134	pulse	0	t		30.0	2.5	/experiments/Knapen_AOT/AOT_stimuli/rescaled_final/0816_fw.mp4	0.0	177.6803650856018	
32	160.94055032730103	movie	1		286	30.0	2.5	/experiments/Knapen_AOT/AOT_stimuli/rescaled_final/0816_fw.mp4	0.0	178.5135407447815	2.491997241973877
32	161.7074875831604	pulse	1	t		30.0	2.5	/experiments/Knapen_AOT/AOT_stimuli/rescaled_final/0816_fw.mp4	0.0	179.28047800064087	
32	163.3077757358551	pulse	1	t		30.0	2.5	/experiments/Knapen_AOT/AOT_stimuli/rescaled_final/0816_fw.mp4	0.0	180.88076615333557	
32	163.4325475692749	fix_post	2		12	30.0	2.5	/experiments/Knapen_AOT/AOT_stimuli/rescaled_final/0816_fw.mp4	0.0	181.00553798675537	0.10007023811340332
33	163.5326178073883	fix_pre	0		120	31.0	2.5	/experiments/Knapen_AOT/AOT_stimuli/rescaled_final/1631_fw.mp4	0.0	181.10560822486877	1.008549690246582
33	164.5411674976349	movie	1		271	31.0	2.5	/experiments/Knapen_AOT/AOT_stimuli/rescaled_final/1631_fw.mp4	0.0	182.11415791511536	2.500328302383423
33	164.90719056129456	pulse	1	t		31.0	2.5	/experiments/Knapen_AOT/AOT_stimuli/rescaled_final/1631_fw.mp4	0.0	182.48018097877502	
33	166.50823593139648	pulse	1	t		31.0	2.5	/experiments/Knapen_AOT/AOT_stimuli/rescaled_final/1631_fw.mp4	0.0	184.08122634887695	
33	167.0414958000183	fix_post	2		11	31.0	2.5	/experiments/Knapen_AOT/AOT_stimuli/rescaled_final/1631_fw.mp4	0.0	184.61448621749878	0.09167027473449707
34	167.1331660747528	fix_pre	0		118	32.0	2.5	/experiments/Knapen_AOT/AOT_stimuli/rescaled_final/1261_rv.mp4	0.0	184.70615649223328	0.9917733669281006
34	168.10842776298523	pulse	0	t		32.0	2.5	/experiments/Knapen_AOT/AOT_stimuli/rescaled_final/1261_rv.mp4	0.0	185.6814181804657	
34	168.1249394416809	movie	1		275	32.0	2.5	/experiments/Knapen_AOT/AOT_stimuli/rescaled_final/1261_rv.mp4	0.0	185.69792985916138	2.5087814331054688
34	169.70847082138062	pulse	1	t		32.0	2.5	/experiments/Knapen_AOT/AOT_stimuli/rescaled_final/1261_rv.mp4	0.0	187.28146123886108	
34	170.63372087478638	fix_post	2		11	32.0	2.5	/experiments/Knapen_AOT/AOT_stimuli/rescaled_final/1261_rv.mp4	0.0	188.20671129226685	0.09159588813781738
35	170.7253167629242	fix_pre	0		120	33.0	2.5	/experiments/Knapen_AOT/AOT_stimuli/rescaled_final/0235_rv.mp4	0.0	188.29830718040466	1.0085241794586182
35	171.30892372131348	pulse	0	t		33.0	2.5	/experiments/Knapen_AOT/AOT_stimuli/rescaled_final/0235_rv.mp4	0.0	188.88191413879395	
35	171.7338409423828	movie	1		284	33.0	2.5	/experiments/Knapen_AOT/AOT_stimuli/rescaled_final/0235_rv.mp4	0.0	189.30683135986328	2.4920084476470947
35	172.90739846229553	pulse	1	t		33.0	2.5	/experiments/Knapen_AOT/AOT_stimuli/rescaled_final/0235_rv.mp4	0.0	190.480388879776	
35	174.2258493900299	fix_post	2		12	33.0	2.5	/experiments/Knapen_AOT/AOT_stimuli/rescaled_final/0235_rv.mp4	0.0	191.79883980751038	0.10004377365112305
36	174.32589316368103	fix_pre	0		120	34.0	2.5	/experiments/Knapen_AOT/AOT_stimuli/rescaled_final/1114_rv.mp4	0.0	191.8988835811615	1.008451223373413
36	174.50937008857727	pulse	0	t		34.0	2.5	/experiments/Knapen_AOT/AOT_stimuli/rescaled_final/1114_rv.mp4	0.0	192.08236050605774	
36	175.33434438705444	movie	1		281	34.0	2.5	/experiments/Knapen_AOT/AOT_stimuli/rescaled_final/1114_rv.mp4	0.0	192.9073348045349	2.4920573234558105
36	176.10799980163574	pulse	1	t		34.0	2.5	/experiments/Knapen_AOT/AOT_stimuli/rescaled_final/1114_rv.mp4	0.0	193.6809902191162	
36	177.70794987678528	pulse	1	t		34.0	2.5	/experiments/Knapen_AOT/AOT_stimuli/rescaled_final/1114_rv.mp4	0.0	195.28094029426575	
36	177.82640171051025	fix_post	2		12	34.0	2.5	/experiments/Knapen_AOT/AOT_stimuli/rescaled_final/1114_rv.mp4	0.0	195.39939212799072	0.1000058650970459
37	177.9264075756073	fix_pre	0		120	35.0	2.5	blank	1.0	195.49939799308777	1.0001721382141113
37	178.9265797138214	movie	1		300	35.0	2.5	blank	1.0	196.49957013130188	2.5003535747528076
37	179.31045484542847	pulse	1	t		35.0	2.5	blank	1.0	196.88344526290894	
37	180.91050100326538	pulse	1	t		35.0	2.5	blank	1.0	198.48349142074585	
37	181.42693328857422	fix_post	2		12	35.0	2.5	blank	1.0	198.9999237060547	0.10004520416259766
38	181.52697849273682	fix_pre	0		119	36.0	2.5	/experiments/Knapen_AOT/AOT_stimuli/rescaled_final/0629_fw.mp4	0.0	199.09996891021729	1.0001726150512695
38	182.51066160202026	pulse	0	t		36.0	2.5	/experiments/Knapen_AOT/AOT_stimuli/rescaled_final/0629_fw.mp4	0.0	200.08365201950073	
38	182.5271511077881	movie	1		290	36.0	2.5	/experiments/Knapen_AOT/AOT_stimuli/rescaled_final/0629_fw.mp4	0.0	200.10014152526855	2.5003182888031006
38	184.10992908477783	pulse	1	t		36.0	2.5	/experiments/Knapen_AOT/AOT_stimuli/rescaled_final/0629_fw.mp4	0.0	201.6829195022583	
38	185.0274693965912	fix_post	2		12	36.0	2.5	/experiments/Knapen_AOT/AOT_stimuli/rescaled_final/0629_fw.mp4	0.0	202.60045981407166	0.10006594657897949
39	185.12753534317017	fix_pre	0		120	37.0	2.5	/experiments/Knapen_AOT/AOT_stimuli/rescaled_final/0787_fw.mp4	0.0	202.70052576065063	1.0084476470947266
39	185.71109008789062	pulse	0	t		37.0	2.5	/experiments/Knapen_AOT/AOT_stimuli/rescaled_final/0787_fw.mp4	0.0	203.2840805053711	
39	186.1359829902649	movie	1		285	37.0	2.5	/experiments/Knapen_AOT/AOT_stimuli/rescaled_final/0787_fw.mp4	0.0	203.70897340774536	2.4920148849487305
39	187.30953407287598	pulse	1	t		37.0	2.5	/experiments/Knapen_AOT/AOT_stimuli/rescaled_final/0787_fw.mp4	0.0	204.88252449035645	
39	188.62799787521362	fix_post	2		12	37.0	2.5	/experiments/Knapen_AOT/AOT_stimuli/rescaled_final/0787_fw.mp4	0.0	206.2009882926941	0.10002946853637695
40	188.72802734375	fix_pre	0		120	38.0	2.5	/experiments/Knapen_AOT/AOT_stimuli/rescaled_final/2172_rv.mp4	0.0	206.30101776123047	1.0085861682891846
40	188.91156148910522	pulse	0	t		38.0	2.5	/experiments/Knapen_AOT/AOT_stimuli/rescaled_final/2172_rv.mp4	0.0	206.4845519065857	
40	189.73661351203918	movie	1		288	38.0	2.5	/experiments/Knapen_AOT/AOT_stimuli/rescaled_final/2172_rv.mp4	0.0	207.30960392951965	2.491931200027466
40	190.50975942611694	pulse	1	t		38.0	2.5	/experiments/Knapen_AOT/AOT_stimuli/rescaled_final/2172_rv.mp4	0.0	208.0827498435974	
40	192.1100766658783	pulse	1	t		38.0	2.5	/experiments/Knapen_AOT/AOT_stimuli/rescaled_final/2172_rv.mp4	0.0	209.68306708335876	
40	192.22854471206665	fix_post	2		12	38.0	2.5	/experiments/Knapen_AOT/AOT_stimuli/rescaled_final/2172_rv.mp4	0.0	209.80153512954712	0.10005736351013184
41	192.32860207557678	fix_pre	0		120	39.0	2.5	/experiments/Knapen_AOT/AOT_stimuli/rescaled_final/0948_fw.mp4	0.0	209.90159249305725	1.008486270904541
41	193.33708834648132	movie	1		284	39.0	2.5	/experiments/Knapen_AOT/AOT_stimuli/rescaled_final/0948_fw.mp4	0.0	210.9100787639618	2.492039203643799
41	193.711110830307	pulse	1	t		39.0	2.5	/experiments/Knapen_AOT/AOT_stimuli/rescaled_final/0948_fw.mp4	0.0	211.28410124778748	
41	195.31072854995728	pulse	1	t		39.0	2.5	/experiments/Knapen_AOT/AOT_stimuli/rescaled_final/0948_fw.mp4	0.0	212.88371896743774	
41	195.82912755012512	fix_post	2		12	39.0	2.5	/experiments/Knapen_AOT/AOT_stimuli/rescaled_final/0948_fw.mp4	0.0	213.4021179676056	0.09998941421508789
42	195.9291169643402	fix_pre	0		119	40.0	2.5	/experiments/Knapen_AOT/AOT_stimuli/rescaled_final/2140_fw.mp4	0.0	213.50210738182068	1.0001842975616455
42	196.9128758907318	pulse	0	t		40.0	2.5	/experiments/Knapen_AOT/AOT_stimuli/rescaled_final/2140_fw.mp4	0.0	214.48586630821228	
42	196.92930126190186	movie	1		278	40.0	2.5	/experiments/Knapen_AOT/AOT_stimuli/rescaled_final/2140_fw.mp4	0.0	214.50229167938232	2.5003437995910645
42	198.5117223262787	pulse	1	t		40.0	2.5	/experiments/Knapen_AOT/AOT_stimuli/rescaled_final/2140_fw.mp4	0.0	216.08471274375916	
42	199.42964506149292	fix_post	2		12	40.0	2.5	/experiments/Knapen_AOT/AOT_stimuli/rescaled_final/2140_fw.mp4	0.0	217.0026354789734	0.10001349449157715
43	199.5296585559845	fix_pre	0		120	41.0	2.5	/experiments/Knapen_AOT/AOT_stimuli/rescaled_final/0397_rv.mp4	0.0	217.10264897346497	1.0085079669952393
43	200.11336517333984	pulse	0	t		41.0	2.5	/experiments/Knapen_AOT/AOT_stimuli/rescaled_final/0397_rv.mp4	0.0	217.6863555908203	
43	200.53816652297974	movie	1		274	41.0	2.5	/experiments/Knapen_AOT/AOT_stimuli/rescaled_final/0397_rv.mp4	0.0	218.1111569404602	2.492014169692993
43	201.7137541770935	pulse	1	t		41.0	2.5	/experiments/Knapen_AOT/AOT_stimuli/rescaled_final/0397_rv.mp4	0.0	219.28674459457397	
43	203.03018069267273	fix_post	2		12	41.0	2.5	/experiments/Knapen_AOT/AOT_stimuli/rescaled_final/0397_rv.mp4	0.0	220.6031711101532	0.10001182556152344
44	203.13019251823425	fix_pre	0		120	42.0	2.5	blank	1.0	220.70318293571472	1.000138521194458
44	203.30710554122925	pulse	0	t		42.0	2.5	blank	1.0	220.88009595870972	
44	204.1303310394287	movie	1		300	42.0	2.5	blank	1.0	221.70332145690918	2.500392198562622
44	204.9139642715454	pulse	1	t		42.0	2.5	blank	1.0	222.48695468902588	
44	206.50644826889038	pulse	1	t		42.0	2.5	blank	1.0	224.07943868637085	
44	206.63072323799133	fix_post	2		12	42.0	2.5	blank	1.0	224.2037136554718	0.10002613067626953
45	206.7307493686676	fix_pre	0		120	43.0	2.5	/experiments/Knapen_AOT/AOT_stimuli/rescaled_final/1527_fw.mp4	0.0	224.30373978614807	1.0084946155548096
45	207.7392439842224	movie	1		289	43.0	2.5	/experiments/Knapen_AOT/AOT_stimuli/rescaled_final/1527_fw.mp4	0.0	225.31223440170288	2.492034435272217
45	208.1125557422638	pulse	1	t		43.0	2.5	/experiments/Knapen_AOT/AOT_stimuli/rescaled_final/1527_fw.mp4	0.0	225.68554615974426	
45	209.70685029029846	pulse	1	t		43.0	2.5	/experiments/Knapen_AOT/AOT_stimuli/rescaled_final/1527_fw.mp4	0.0	227.27984070777893	
45	210.23127841949463	fix_post	2		12	43.0	2.5	/experiments/Knapen_AOT/AOT_stimuli/rescaled_final/1527_fw.mp4	0.0	227.8042688369751	0.10000157356262207
46	210.33127999305725	fix_pre	0		118	44.0	2.5	/experiments/Knapen_AOT/AOT_stimuli/rescaled_final/1194_fw.mp4	0.0	227.90427041053772	0.9918322563171387
46	211.30665016174316	pulse	0	t		44.0	2.5	/experiments/Knapen_AOT/AOT_stimuli/rescaled_final/1194_fw.mp4	0.0	228.87964057922363	
46	211.3231122493744	movie	1		276	44.0	2.5	/experiments/Knapen_AOT/AOT_stimuli/rescaled_final/1194_fw.mp4	0.0	228.89610266685486	2.5003902912139893
46	212.90693879127502	pulse	1	t		44.0	2.5	/experiments/Knapen_AOT/AOT_stimuli/rescaled_final/1194_fw.mp4	0.0	230.4799292087555	
46	213.82350254058838	fix_post	2		12	44.0	2.5	/experiments/Knapen_AOT/AOT_stimuli/rescaled_final/1194_fw.mp4	0.0	231.39649295806885	0.09999513626098633
47	213.92349767684937	fix_pre	0		120	45.0	2.5	/experiments/Knapen_AOT/AOT_stimuli/rescaled_final/0853_fw.mp4	0.0	231.49648809432983	1.0085041522979736
47	214.50727605819702	pulse	0	t		45.0	2.5	/experiments/Knapen_AOT/AOT_stimuli/rescaled_final/0853_fw.mp4	0.0	232.0802664756775	
47	214.93200182914734	movie	1		281	45.0	2.5	/experiments/Knapen_AOT/AOT_stimuli/rescaled_final/0853_fw.mp4	0.0	232.5049922466278	2.492009162902832
47	216.1074779033661	pulse	1	t		45.0	2.5	/experiments/Knapen_AOT/AOT_stimuli/rescaled_final/0853_fw.mp4	0.0	233.68046832084656	
47	217.42401099205017	fix_post	2		12	45.0	2.5	/experiments/Knapen_AOT/AOT_stimuli/rescaled_final/0853_fw.mp4	0.0	234.99700140953064	0.10001182556152344
48	217.5240228176117	fix_pre	0		104	46.0	2.5	/experiments/Knapen_AOT/AOT_stimuli/rescaled_final/1382_rv.mp4	0.0	235.09701323509216	1.0085883140563965
48	217.7075743675232	pulse	0	t		46.0	2.5	/experiments/Knapen_AOT/AOT_stimuli/rescaled_final/1382_rv.mp4	0.0	235.28056478500366	
48	218.5326111316681	movie	1		277	46.0	2.5	/experiments/Knapen_AOT/AOT_stimuli/rescaled_final/1382_rv.mp4	0.0	236.10560154914856	2.4919588565826416
48	219.3079993724823	pulse	1	t		46.0	2.5	/experiments/Knapen_AOT/AOT_stimuli/rescaled_final/1382_rv.mp4	0.0	236.88098978996277	
48	220.90819573402405	pulse	1	t		46.0	2.5	/experiments/Knapen_AOT/AOT_stimuli/rescaled_final/1382_rv.mp4	0.0	238.48118615150452	
48	221.02456998825073	fix_post	2		12	46.0	2.5	/experiments/Knapen_AOT/AOT_stimuli/rescaled_final/1382_rv.mp4	0.0	238.5975604057312	0.10000419616699219
49	221.12457418441772	fix_pre	0		120	47.0	2.5	blank	1.0	238.6975646018982	1.0001606941223145
49	222.12473487854004	movie	1		300	47.0	2.5	blank	1.0	239.6977252960205	2.5003538131713867
49	222.50834798812866	pulse	1	t		47.0	2.5	blank	1.0	240.08133840560913	
49	224.10856986045837	pulse	1	t		47.0	2.5	blank	1.0	241.68156027793884	
49	224.62508869171143	fix_post	2		12	47.0	2.5	blank	1.0	242.1980791091919	0.10006475448608398
50	224.7251534461975	fix_pre	0		119	48.0	2.5	/experiments/Knapen_AOT/AOT_stimuli/rescaled_final/2125_rv.mp4	0.0	242.29814386367798	1.0002520084381104
50	225.7088544368744	pulse	0	t		48.0	2.5	/experiments/Knapen_AOT/AOT_stimuli/rescaled_final/2125_rv.mp4	0.0	243.28184485435486	
50	225.72540545463562	movie	1		288	48.0	2.5	/experiments/Knapen_AOT/AOT_stimuli/rescaled_final/2125_rv.mp4	0.0	243.2983958721161	2.500300407409668
50	227.3073446750641	pulse	1	t		48.0	2.5	/experiments/Knapen_AOT/AOT_stimuli/rescaled_final/2125_rv.mp4	0.0	244.88033509254456	
50	228.2257058620453	fix_post	2		12	48.0	2.5	/experiments/Knapen_AOT/AOT_stimuli/rescaled_final/2125_rv.mp4	0.0	245.79869627952576	0.09993863105773926
51	228.32564449310303	fix_pre	0		120	49.0	2.5	/experiments/Knapen_AOT/AOT_stimuli/rescaled_final/0236_rv.mp4	0.0	245.8986349105835	1.0085182189941406
51	228.9092981815338	pulse	0	t		49.0	2.5	/experiments/Knapen_AOT/AOT_stimuli/rescaled_final/0236_rv.mp4	0.0	246.48228859901428	
51	229.33416271209717	movie	1		278	49.0	2.5	/experiments/Knapen_AOT/AOT_stimuli/rescaled_final/0236_rv.mp4	0.0	246.90715312957764	2.4920661449432373
51	230.50770592689514	pulse	1	t		49.0	2.5	/experiments/Knapen_AOT/AOT_stimuli/rescaled_final/0236_rv.mp4	0.0	248.0806963443756	
51	231.8262288570404	fix_post	2		12	49.0	2.5	/experiments/Knapen_AOT/AOT_stimuli/rescaled_final/0236_rv.mp4	0.0	249.39921927452087	0.09999513626098633
52	231.9262239933014	fix_pre	0		120	50.0	2.5	/experiments/Knapen_AOT/AOT_stimuli/rescaled_final/1650_fw.mp4	0.0	249.49921441078186	1.0084774494171143
52	232.10981798171997	pulse	0	t		50.0	2.5	/experiments/Knapen_AOT/AOT_stimuli/rescaled_final/1650_fw.mp4	0.0	249.68280839920044	
52	232.9347014427185	movie	1		286	50.0	2.5	/experiments/Knapen_AOT/AOT_stimuli/rescaled_final/1650_fw.mp4	0.0	250.50769186019897	2.492032527923584
52	233.70987963676453	pulse	1	t		50.0	2.5	/experiments/Knapen_AOT/AOT_stimuli/rescaled_final/1650_fw.mp4	0.0	251.282870054245	
52	235.3082959651947	pulse	1	t		50.0	2.5	/experiments/Knapen_AOT/AOT_stimuli/rescaled_final/1650_fw.mp4	0.0	252.88128638267517	
52	235.4267339706421	fix_post	2		12	50.0	2.5	/experiments/Knapen_AOT/AOT_stimuli/rescaled_final/1650_fw.mp4	0.0	252.99972438812256	0.09998393058776855
53	235.52671790122986	fix_pre	0		120	51.0	2.5	/experiments/Knapen_AOT/AOT_stimuli/rescaled_final/0816_rv.mp4	0.0	253.09970831871033	1.0085184574127197
53	236.53523635864258	movie	1		273	51.0	2.5	/experiments/Knapen_AOT/AOT_stimuli/rescaled_final/0816_rv.mp4	0.0	254.10822677612305	2.4920694828033447
53	236.90938639640808	pulse	1	t		51.0	2.5	/experiments/Knapen_AOT/AOT_stimuli/rescaled_final/0816_rv.mp4	0.0	254.48237681388855	
53	238.50887203216553	pulse	1	t		51.0	2.5	/experiments/Knapen_AOT/AOT_stimuli/rescaled_final/0816_rv.mp4	0.0	256.081862449646	
53	239.02730584144592	fix_post	2		12	51.0	2.5	/experiments/Knapen_AOT/AOT_stimuli/rescaled_final/0816_rv.mp4	0.0	256.6002962589264	0.1000826358795166
54	239.12738847732544	fix_pre	0		119	52.0	2.5	/experiments/Knapen_AOT/AOT_stimuli/rescaled_final/1114_fw.mp4	0.0	256.7003788948059	1.0000803470611572
54	240.11101388931274	pulse	0	t		52.0	2.5	/experiments/Knapen_AOT/AOT_stimuli/rescaled_final/1114_fw.mp4	0.0	257.6840043067932	
54	240.1274688243866	movie	1		280	52.0	2.5	/experiments/Knapen_AOT/AOT_stimuli/rescaled_final/1114_fw.mp4	0.0	257.70045924186707	2.500352144241333
54	241.70983505249023	pulse	1	t		52.0	2.5	/experiments/Knapen_AOT/AOT_stimuli/rescaled_final/1114_fw.mp4	0.0	259.2828254699707	
54	242.62782096862793	fix_post	2		12	52.0	2.5	/experiments/Knapen_AOT/AOT_stimuli/rescaled_final/1114_fw.mp4	0.0	260.2008113861084	0.10002493858337402
55	242.7278459072113	fix_pre	0		120	53.0	2.5	/experiments/Knapen_AOT/AOT_stimuli/rescaled_final/0264_rv.mp4	0.0	260.3008363246918	1.0084993839263916
55	243.31149649620056	pulse	0	t		53.0	2.5	/experiments/Knapen_AOT/AOT_stimuli/rescaled_final/0264_rv.mp4	0.0	260.88448691368103	
55	243.7363452911377	movie	1		287	53.0	2.5	/experiments/Knapen_AOT/AOT_stimuli/rescaled_final/0264_rv.mp4	0.0	261.30933570861816	2.491990327835083
55	244.9098255634308	pulse	1	t		53.0	2.5	/experiments/Knapen_AOT/AOT_stimuli/rescaled_final/0264_rv.mp4	0.0	262.48281598091125	
55	246.22833561897278	fix_post	2		12	53.0	2.5	/experiments/Knapen_AOT/AOT_stimuli/rescaled_final/0264_rv.mp4	0.0	263.80132603645325	0.10001444816589355
56	246.32835006713867	fix_pre	0		120	54.0	2.5	blank	1.0	263.90134048461914	1.0001518726348877
56	246.51192569732666	pulse	0	t		54.0	2.5	blank	1.0	264.08491611480713	
56	247.32850193977356	movie	1		300	54.0	2.5	blank	1.0	264.901492357254	2.5003926753997803
56	248.11219549179077	pulse	1	t		54.0	2.5	blank	1.0	265.68518590927124	
56	249.7124011516571	pulse	1	t		54.0	2.5	blank	1.0	267.2853915691376	
56	249.82889461517334	fix_post	2		12	54.0	2.5	blank	1.0	267.4018850326538	0.10010600090026855
57	249.9290006160736	fix_pre	0		120	55.0	2.5	/experiments/Knapen_AOT/AOT_stimuli/rescaled_final/1986_rv.mp4	0.0	267.5019910335541	1.008387565612793
57	250.9373881816864	movie	1		285	55.0	2.5	/experiments/Knapen_AOT/AOT_stimuli/rescaled_final/1986_rv.mp4	0.0	268.51037859916687	2.4920239448547363
57	251.31075859069824	pulse	1	t		55.0	2.5	/experiments/Knapen_AOT/AOT_stimuli/rescaled_final/1986_rv.mp4	0.0	268.8837490081787	
57	252.91148233413696	pulse	1	t		55.0	2.5	/experiments/Knapen_AOT/AOT_stimuli/rescaled_final/1986_rv.mp4	0.0	270.48447275161743	
57	253.42941212654114	fix_post	2		12	55.0	2.5	/experiments/Knapen_AOT/AOT_stimuli/rescaled_final/1986_rv.mp4	0.0	271.0024025440216	0.10002803802490234
58	253.52944016456604	fix_pre	0		119	56.0	2.5	/experiments/Knapen_AOT/AOT_stimuli/rescaled_final/0770_fw.mp4	0.0	271.1024305820465	1.0001869201660156
58	254.51325464248657	pulse	0	t		56.0	2.5	/experiments/Knapen_AOT/AOT_stimuli/rescaled_final/0770_fw.mp4	0.0	272.08624505996704	
58	254.52962708473206	movie	1		283	56.0	2.5	/experiments/Knapen_AOT/AOT_stimuli/rescaled_final/0770_fw.mp4	0.0	272.1026175022125	2.5003538131713867
58	256.1130702495575	pulse	1	t		56.0	2.5	/experiments/Knapen_AOT/AOT_stimuli/rescaled_final/0770_fw.mp4	0.0	273.68606066703796	
58	257.02998089790344	fix_post	2		12	56.0	2.5	/experiments/Knapen_AOT/AOT_stimuli/rescaled_final/0770_fw.mp4	0.0	274.6029713153839	0.10013890266418457
59	257.1301198005676	fix_pre	0		120	57.0	2.5	/experiments/Knapen_AOT/AOT_stimuli/rescaled_final/1382_rv.mp4	0.0	274.7031102180481	1.0084009170532227
59	257.71362924575806	pulse	0	t		57.0	2.5	/experiments/Knapen_AOT/AOT_stimuli/rescaled_final/1382_rv.mp4	0.0	275.2866196632385	
59	258.13852071762085	movie	1		281	57.0	2.5	/experiments/Knapen_AOT/AOT_stimuli/rescaled_final/1382_rv.mp4	0.0	275.7115111351013	2.492017984390259
59	259.3121030330658	pulse	1	t		57.0	2.5	/experiments/Knapen_AOT/AOT_stimuli/rescaled_final/1382_rv.mp4	0.0	276.88509345054626	
59	260.6305387020111	fix_post	2		12	57.0	2.5	/experiments/Knapen_AOT/AOT_stimuli/rescaled_final/1382_rv.mp4	0.0	278.2035291194916	0.10002708435058594
60	260.7305657863617	fix_pre	0		120	58.0	2.5	/experiments/Knapen_AOT/AOT_stimuli/rescaled_final/0099_fw.mp4	0.0	278.30355620384216	1.0084688663482666
60	260.90690326690674	pulse	0	t		58.0	2.5	/experiments/Knapen_AOT/AOT_stimuli/rescaled_final/0099_fw.mp4	0.0	278.4798936843872	
60	261.73903465270996	movie	1		264	58.0	2.5	/experiments/Knapen_AOT/AOT_stimuli/rescaled_final/0099_fw.mp4	0.0	279.31202507019043	2.4920475482940674
60	262.5123746395111	pulse	1	t		58.0	2.5	/experiments/Knapen_AOT/AOT_stimuli/rescaled_final/0099_fw.mp4	0.0	280.0853650569916	
60	264.1134133338928	pulse	1	t		58.0	2.5	/experiments/Knapen_AOT/AOT_stimuli/rescaled_final/0099_fw.mp4	0.0	281.6864037513733	
60	264.231082201004	fix_post	2		12	58.0	2.5	/experiments/Knapen_AOT/AOT_stimuli/rescaled_final/0099_fw.mp4	0.0	281.8040726184845	0.1000068187713623
61	264.3310890197754	fix_pre	0		120	59.0	2.5	/experiments/Knapen_AOT/AOT_stimuli/rescaled_final/0853_fw.mp4	0.0	281.90407943725586	1.0084819793701172
61	265.3395709991455	movie	1		277	59.0	2.5	/experiments/Knapen_AOT/AOT_stimuli/rescaled_final/0853_fw.mp4	0.0	282.912561416626	2.4920217990875244
61	265.71374344825745	pulse	1	t		59.0	2.5	/experiments/Knapen_AOT/AOT_stimuli/rescaled_final/0853_fw.mp4	0.0	283.2867338657379	
61	267.3070960044861	pulse	1	t		59.0	2.5	/experiments/Knapen_AOT/AOT_stimuli/rescaled_final/0853_fw.mp4	0.0	284.88008642196655	
61	267.83159279823303	fix_post	2		12	59.0	2.5	/experiments/Knapen_AOT/AOT_stimuli/rescaled_final/0853_fw.mp4	0.0	285.4045832157135	0.10001754760742188
62	267.93161034584045	fix_pre	0		118	60.0	2.5	/experiments/Knapen_AOT/AOT_stimuli/rescaled_final/1898_fw.mp4	0.0	285.5046007633209	0.9918079376220703
62	268.90722584724426	pulse	0	t		60.0	2.5	/experiments/Knapen_AOT/AOT_stimuli/rescaled_final/1898_fw.mp4	0.0	286.48021626472473	
62	268.9234182834625	movie	1		283	60.0	2.5	/experiments/Knapen_AOT/AOT_stimuli/rescaled_final/1898_fw.mp4	0.0	286.496408700943	2.500387668609619
62	270.5073003768921	pulse	1	t		60.0	2.5	/experiments/Knapen_AOT/AOT_stimuli/rescaled_final/1898_fw.mp4	0.0	288.08029079437256	
62	271.42380595207214	fix_post	2		12	60.0	2.5	/experiments/Knapen_AOT/AOT_stimuli/rescaled_final/1898_fw.mp4	0.0	288.9967963695526	0.10000300407409668
63	271.52380895614624	fix_pre	0		120	61.0	2.5	/experiments/Knapen_AOT/AOT_stimuli/rescaled_final/2158_rv.mp4	0.0	289.0967993736267	1.008495807647705
63	272.1076169013977	pulse	0	t		61.0	2.5	/experiments/Knapen_AOT/AOT_stimuli/rescaled_final/2158_rv.mp4	0.0	289.6806073188782	
63	272.53230476379395	movie	1		277	61.0	2.5	/experiments/Knapen_AOT/AOT_stimuli/rescaled_final/2158_rv.mp4	0.0	290.1052951812744	2.492112874984741
63	273.70782351493835	pulse	1	t		61.0	2.5	/experiments/Knapen_AOT/AOT_stimuli/rescaled_final/2158_rv.mp4	0.0	291.2808139324188	
63	275.0244176387787	fix_post	2		11	61.0	2.5	/experiments/Knapen_AOT/AOT_stimuli/rescaled_final/2158_rv.mp4	0.0	292.59740805625916	0.09994935989379883
64	275.1243669986725	fix_pre	0		120	62.0	2.5	blank	1.0	292.69735741615295	1.0001418590545654
64	275.3079550266266	pulse	0	t		62.0	2.5	blank	1.0	292.88094544410706	
64	276.12450885772705	movie	1		300	62.0	2.5	blank	1.0	293.6974992752075	2.5004003047943115
64	276.9082262516022	pulse	1	t		62.0	2.5	blank	1.0	294.48121666908264	
64	278.50860023498535	pulse	1	t		62.0	2.5	blank	1.0	296.0815906524658	
64	278.62490916252136	fix_post	2		12	62.0	2.5	blank	1.0	296.19789958000183	0.10008811950683594
65	278.7249972820282	fix_pre	0		120	63.0	2.5	/experiments/Knapen_AOT/AOT_stimuli/rescaled_final/2073_fw.mp4	0.0	296.29798769950867	1.0084385871887207
65	279.7334358692169	movie	1		271	63.0	2.5	/experiments/Knapen_AOT/AOT_stimuli/rescaled_final/2073_fw.mp4	0.0	297.3064262866974	2.491989850997925
65	280.1073474884033	pulse	1	t		63.0	2.5	/experiments/Knapen_AOT/AOT_stimuli/rescaled_final/2073_fw.mp4	0.0	297.6803379058838	
65	281.7076780796051	pulse	1	t		63.0	2.5	/experiments/Knapen_AOT/AOT_stimuli/rescaled_final/2073_fw.mp4	0.0	299.28066849708557	
65	282.22542572021484	fix_post	2		12	63.0	2.5	/experiments/Knapen_AOT/AOT_stimuli/rescaled_final/2073_fw.mp4	0.0	299.7984161376953	0.10002398490905762
66	282.3254497051239	fix_pre	0		119	64.0	2.5	/experiments/Knapen_AOT/AOT_stimuli/rescaled_final/0586_fw.mp4	0.0	299.89844012260437	1.0001282691955566
66	283.30923318862915	pulse	0	t		64.0	2.5	/experiments/Knapen_AOT/AOT_stimuli/rescaled_final/0586_fw.mp4	0.0	300.8822236061096	
66	283.32557797431946	movie	1		277	64.0	2.5	/experiments/Knapen_AOT/AOT_stimuli/rescaled_final/0586_fw.mp4	0.0	300.8985683917999	2.5004005432128906
66	284.9090385437012	pulse	1	t		64.0	2.5	/experiments/Knapen_AOT/AOT_stimuli/rescaled_final/0586_fw.mp4	0.0	302.48202896118164	
66	285.82597851753235	fix_post	2		12	64.0	2.5	/experiments/Knapen_AOT/AOT_stimuli/rescaled_final/0586_fw.mp4	0.0	303.3989689350128	0.10000133514404297
67	285.9259798526764	fix_pre	0		120	65.0	2.5	/experiments/Knapen_AOT/AOT_stimuli/rescaled_final/1153_rv.mp4	0.0	303.49897027015686	1.0085113048553467
67	286.5096573829651	pulse	0	t		65.0	2.5	/experiments/Knapen_AOT/AOT_stimuli/rescaled_final/1153_rv.mp4	0.0	304.08264780044556	
67	286.93449115753174	movie	1		267	65.0	2.5	/experiments/Knapen_AOT/AOT_stimuli/rescaled_final/1153_rv.mp4	0.0	304.5074815750122	2.492013454437256
67	288.1089897155762	pulse	1	t		65.0	2.5	/experiments/Knapen_AOT/AOT_stimuli/rescaled_final/1153_rv.mp4	0.0	305.68198013305664	
67	289.426504611969	fix_post	2		12	65.0	2.5	/experiments/Knapen_AOT/AOT_stimuli/rescaled_final/1153_rv.mp4	0.0	306.99949502944946	0.100128173828125
68	289.5266327857971	fix_pre	0		120	66.0	2.5	/experiments/Knapen_AOT/AOT_stimuli/rescaled_final/0139_rv.mp4	0.0	307.0996232032776	1.008378028869629
68	289.7103521823883	pulse	0	t		66.0	2.5	/experiments/Knapen_AOT/AOT_stimuli/rescaled_final/0139_rv.mp4	0.0	307.2833425998688	
68	290.53501081466675	movie	1		276	66.0	2.5	/experiments/Knapen_AOT/AOT_stimuli/rescaled_final/0139_rv.mp4	0.0	308.1080012321472	2.49202561378479
68	291.3082835674286	pulse	1	t		66.0	2.5	/experiments/Knapen_AOT/AOT_stimuli/rescaled_final/0139_rv.mp4	0.0	308.88127398490906	
68	292.9084029197693	pulse	1	t		66.0	2.5	/experiments/Knapen_AOT/AOT_stimuli/rescaled_final/0139_rv.mp4	0.0	310.48139333724976	
68	293.02703642845154	fix_post	2		12	66.0	2.5	/experiments/Knapen_AOT/AOT_stimuli/rescaled_final/0139_rv.mp4	0.0	310.600026845932	0.10009002685546875
69	293.127126455307	fix_pre	0		120	67.0	2.5	/experiments/Knapen_AOT/AOT_stimuli/rescaled_final/0014_fw.mp4	0.0	310.7001168727875	1.0084903240203857
69	294.1356167793274	movie	1		276	67.0	2.5	/experiments/Knapen_AOT/AOT_stimuli/rescaled_final/0014_fw.mp4	0.0	311.70860719680786	2.491960287094116
69	294.5094232559204	pulse	1	t		67.0	2.5	/experiments/Knapen_AOT/AOT_stimuli/rescaled_final/0014_fw.mp4	0.0	312.0824136734009	
69	296.1097927093506	pulse	1	t		67.0	2.5	/experiments/Knapen_AOT/AOT_stimuli/rescaled_final/0014_fw.mp4	0.0	313.68278312683105	
69	296.6275770664215	fix_post	2		12	67.0	2.5	/experiments/Knapen_AOT/AOT_stimuli/rescaled_final/0014_fw.mp4	0.0	314.200567483902	0.10002565383911133
70	296.7276027202606	fix_pre	0		119	68.0	2.5	/experiments/Knapen_AOT/AOT_stimuli/rescaled_final/0821_fw.mp4	0.0	314.3005931377411	1.000227928161621
70	297.71164298057556	pulse	0	t		68.0	2.5	/experiments/Knapen_AOT/AOT_stimuli/rescaled_final/0821_fw.mp4	0.0	315.28463339805603	
70	297.72783064842224	movie	1		277	68.0	2.5	/experiments/Knapen_AOT/AOT_stimuli/rescaled_final/0821_fw.mp4	0.0	315.3008210659027	2.5002949237823486
70	299.30987310409546	pulse	1	t		68.0	2.5	/experiments/Knapen_AOT/AOT_stimuli/rescaled_final/0821_fw.mp4	0.0	316.8828635215759	
70	300.2281255722046	fix_post	2		12	68.0	2.5	/experiments/Knapen_AOT/AOT_stimuli/rescaled_final/0821_fw.mp4	0.0	317.80111598968506	0.10001683235168457
71	300.3281424045563	fix_pre	0		120	69.0	2.5	/experiments/Knapen_AOT/AOT_stimuli/rescaled_final/0659_fw.mp4	0.0	317.90113282203674	1.008533000946045
71	300.91218304634094	pulse	0	t		69.0	2.5	/experiments/Knapen_AOT/AOT_stimuli/rescaled_final/0659_fw.mp4	0.0	318.4851734638214	
71	301.3366754055023	movie	1		280	69.0	2.5	/experiments/Knapen_AOT/AOT_stimuli/rescaled_final/0659_fw.mp4	0.0	318.9096658229828	2.4920172691345215
71	302.5102388858795	pulse	1	t		69.0	2.5	/experiments/Knapen_AOT/AOT_stimuli/rescaled_final/0659_fw.mp4	0.0	320.08322930336	
71	303.82869267463684	fix_post	2		12	69.0	2.5	/experiments/Knapen_AOT/AOT_stimuli/rescaled_final/0659_fw.mp4	0.0	321.4016830921173	0.09998583793640137
72	303.92867851257324	fix_pre	0		120	70.0	2.5	blank	1.0	321.5016689300537	1.0001661777496338
72	304.1123147010803	pulse	0	t		70.0	2.5	blank	1.0	321.6853051185608	
72	304.9288446903229	movie	1		300	70.0	2.5	blank	1.0	322.50183510780334	2.5003557205200195
72	305.7126863002777	pulse	1	t		70.0	2.5	blank	1.0	323.2856767177582	
72	307.31273651123047	pulse	1	t		70.0	2.5	blank	1.0	324.88572692871094	
72	307.4292004108429	fix_post	2		12	70.0	2.5	blank	1.0	325.00219082832336	0.10000991821289062
73	307.5292103290558	fix_pre	0		120	71.0	2.5	/experiments/Knapen_AOT/AOT_stimuli/rescaled_final/1447_rv.mp4	0.0	325.10220074653625	1.0085160732269287
73	308.5377264022827	movie	1		274	71.0	2.5	/experiments/Knapen_AOT/AOT_stimuli/rescaled_final/1447_rv.mp4	0.0	326.1107168197632	2.4920244216918945
73	308.91125082969666	pulse	1	t		71.0	2.5	/experiments/Knapen_AOT/AOT_stimuli/rescaled_final/1447_rv.mp4	0.0	326.4842412471771	
73	310.5118889808655	pulse	1	t		71.0	2.5	/experiments/Knapen_AOT/AOT_stimuli/rescaled_final/1447_rv.mp4	0.0	328.08487939834595	
73	311.0297508239746	fix_post	2		12	71.0	2.5	/experiments/Knapen_AOT/AOT_stimuli/rescaled_final/1447_rv.mp4	0.0	328.6027412414551	0.10000872611999512
74	311.1297595500946	fix_pre	0		119	72.0	2.5	/experiments/Knapen_AOT/AOT_stimuli/rescaled_final/1114_rv.mp4	0.0	328.7027499675751	1.0001726150512695
74	312.11349844932556	pulse	0	t		72.0	2.5	/experiments/Knapen_AOT/AOT_stimuli/rescaled_final/1114_rv.mp4	0.0	329.68648886680603	
74	312.1299321651459	movie	1		270	72.0	2.5	/experiments/Knapen_AOT/AOT_stimuli/rescaled_final/1114_rv.mp4	0.0	329.70292258262634	2.5003654956817627
74	313.7128908634186	pulse	1	t		72.0	2.5	/experiments/Knapen_AOT/AOT_stimuli/rescaled_final/1114_rv.mp4	0.0	331.28588128089905	
74	314.63029766082764	fix_post	2		12	72.0	2.5	/experiments/Knapen_AOT/AOT_stimuli/rescaled_final/1114_rv.mp4	0.0	332.2032880783081	0.10000753402709961
75	314.73030519485474	fix_pre	0		120	73.0	2.5	/experiments/Knapen_AOT/AOT_stimuli/rescaled_final/1882_fw.mp4	0.0	332.3032956123352	1.0085084438323975
75	315.31392550468445	pulse	0	t		73.0	2.5	/experiments/Knapen_AOT/AOT_stimuli/rescaled_final/1882_fw.mp4	0.0	332.8869159221649	
75	315.73881363868713	movie	1		275	73.0	2.5	/experiments/Knapen_AOT/AOT_stimuli/rescaled_final/1882_fw.mp4	0.0	333.3118040561676	2.492046594619751
75	316.9127550125122	pulse	1	t		73.0	2.5	/experiments/Knapen_AOT/AOT_stimuli/rescaled_final/1882_fw.mp4	0.0	334.4857454299927	
75	318.2308602333069	fix_post	2		12	73.0	2.5	/experiments/Knapen_AOT/AOT_stimuli/rescaled_final/1882_fw.mp4	0.0	335.80385065078735	0.10001182556152344
76	318.3308720588684	fix_pre	0		120	74.0	2.5	/experiments/Knapen_AOT/AOT_stimuli/rescaled_final/1835_fw.mp4	0.0	335.9038624763489	1.0084831714630127
76	318.5144979953766	pulse	0	t		74.0	2.5	/experiments/Knapen_AOT/AOT_stimuli/rescaled_final/1835_fw.mp4	0.0	336.08748841285706	
76	319.3393552303314	movie	1		262	74.0	2.5	/experiments/Knapen_AOT/AOT_stimuli/rescaled_final/1835_fw.mp4	0.0	336.9123456478119	2.4919965267181396
76	320.1140549182892	pulse	1	t		74.0	2.5	/experiments/Knapen_AOT/AOT_stimuli/rescaled_final/1835_fw.mp4	0.0	337.68704533576965	
76	321.7132713794708	pulse	1	t		74.0	2.5	/experiments/Knapen_AOT/AOT_stimuli/rescaled_final/1835_fw.mp4	0.0	339.2862617969513	
76	321.83135175704956	fix_post	2		12	74.0	2.5	/experiments/Knapen_AOT/AOT_stimuli/rescaled_final/1835_fw.mp4	0.0	339.40434217453003	0.10005998611450195
77	321.93141174316406	fix_pre	0		120	75.0	2.5	/experiments/Knapen_AOT/AOT_stimuli/rescaled_final/0576_rv.mp4	0.0	339.50440216064453	1.008507251739502
77	322.93991899490356	movie	1		265	75.0	2.5	/experiments/Knapen_AOT/AOT_stimuli/rescaled_final/0576_rv.mp4	0.0	340.51290941238403	2.4919915199279785
77	323.3142638206482	pulse	1	t		75.0	2.5	/experiments/Knapen_AOT/AOT_stimuli/rescaled_final/0576_rv.mp4	0.0	340.88725423812866	
77	324.9135410785675	pulse	1	t		75.0	2.5	/experiments/Knapen_AOT/AOT_stimuli/rescaled_final/0576_rv.mp4	0.0	342.486531496048	
77	325.43191051483154	fix_post	2		12	75.0	2.5	/experiments/Knapen_AOT/AOT_stimuli/rescaled_final/0576_rv.mp4	0.0	343.004900932312	0.1000819206237793
78	325.5319924354553	fix_pre	0		118	76.0	2.5	blank	1.0	343.1049828529358	0.9834136962890625
78	326.5077953338623	pulse	0	t		76.0	2.5	blank	1.0	344.0807857513428	
78	326.5154061317444	movie	1		301	76.0	2.5	blank	1.0	344.08839654922485	2.5087223052978516
78	328.10755372047424	pulse	1	t		76.0	2.5	blank	1.0	345.6805441379547	
78	329.02412843704224	fix_post	2		12	76.0	2.5	blank	1.0	346.5971188545227	0.10002517700195312
79	329.1241536140442	fix_pre	0		120	77.0	2.5	/experiments/Knapen_AOT/AOT_stimuli/rescaled_final/0629_rv.mp4	0.0	346.69714403152466	1.0084857940673828
79	329.70823550224304	pulse	0	t		77.0	2.5	/experiments/Knapen_AOT/AOT_stimuli/rescaled_final/0629_rv.mp4	0.0	347.2812259197235	
79	330.1326394081116	movie	1		280	77.0	2.5	/experiments/Knapen_AOT/AOT_stimuli/rescaled_final/0629_rv.mp4	0.0	347.70562982559204	2.4920413494110107
79	331.30802154541016	pulse	1	t		77.0	2.5	/experiments/Knapen_AOT/AOT_stimuli/rescaled_final/0629_rv.mp4	0.0	348.8810119628906	
79	332.6246807575226	fix_post	2		12	77.0	2.5	/experiments/Knapen_AOT/AOT_stimuli/rescaled_final/0629_rv.mp4	0.0	350.19767117500305	0.1001746654510498
80	332.72485542297363	fix_pre	0		120	78.0	2.5	/experiments/Knapen_AOT/AOT_stimuli/rescaled_final/0203_fw.mp4	0.0	350.2978458404541	1.0083224773406982
80	332.90836811065674	pulse	0	t		78.0	2.5	/experiments/Knapen_AOT/AOT_stimuli/rescaled_final/0203_fw.mp4	0.0	350.4813585281372	
80	333.73317790031433	movie	1		269	78.0	2.5	/experiments/Knapen_AOT/AOT_stimuli/rescaled_final/0203_fw.mp4	0.0	351.3061683177948	2.4920310974121094
80	334.5086741447449	pulse	1	t		78.0	2.5	/experiments/Knapen_AOT/AOT_stimuli/rescaled_final/0203_fw.mp4	0.0	352.08166456222534	
80	336.1091077327728	pulse	1	t		78.0	2.5	/experiments/Knapen_AOT/AOT_stimuli/rescaled_final/0203_fw.mp4	0.0	353.6820981502533	
80	336.22520899772644	fix_post	2		12	78.0	2.5	/experiments/Knapen_AOT/AOT_stimuli/rescaled_final/0203_fw.mp4	0.0	353.7981994152069	0.10002827644348145
81	336.3252372741699	fix_pre	0		120	79.0	2.5	/experiments/Knapen_AOT/AOT_stimuli/rescaled_final/0164_fw.mp4	0.0	353.8982276916504	1.008479356765747
81	337.33371663093567	movie	1		280	79.0	2.5	/experiments/Knapen_AOT/AOT_stimuli/rescaled_final/0164_fw.mp4	0.0	354.90670704841614	2.492025852203369
81	337.70898604393005	pulse	1	t		79.0	2.5	/experiments/Knapen_AOT/AOT_stimuli/rescaled_final/0164_fw.mp4	0.0	355.2819764614105	
81	339.3094975948334	pulse	1	t		79.0	2.5	/experiments/Knapen_AOT/AOT_stimuli/rescaled_final/0164_fw.mp4	0.0	356.88248801231384	
81	339.82574248313904	fix_post	2		12	79.0	2.5	/experiments/Knapen_AOT/AOT_stimuli/rescaled_final/0164_fw.mp4	0.0	357.3987329006195	0.1000216007232666
82	339.9257640838623	fix_pre	0		119	80.0	2.5	/experiments/Knapen_AOT/AOT_stimuli/rescaled_final/1436_fw.mp4	0.0	357.4987545013428	1.0001955032348633
82	340.909467458725	pulse	0	t		80.0	2.5	/experiments/Knapen_AOT/AOT_stimuli/rescaled_final/1436_fw.mp4	0.0	358.48245787620544	
82	340.92595958709717	movie	1		282	80.0	2.5	/experiments/Knapen_AOT/AOT_stimuli/rescaled_final/1436_fw.mp4	0.0	358.49895000457764	2.500309944152832
82	342.5098888874054	pulse	1	t		80.0	2.5	/experiments/Knapen_AOT/AOT_stimuli/rescaled_final/1436_fw.mp4	0.0	360.08287930488586	
82	343.42626953125	fix_post	2		12	80.0	2.5	/experiments/Knapen_AOT/AOT_stimuli/rescaled_final/1436_fw.mp4	0.0	360.99925994873047	0.10002350807189941
83	343.5262930393219	fix_pre	0		120	81.0	2.5	/experiments/Knapen_AOT/AOT_stimuli/rescaled_final/0353_rv.mp4	0.0	361.09928345680237	1.0085408687591553
83	344.11028003692627	pulse	0	t		81.0	2.5	/experiments/Knapen_AOT/AOT_stimuli/rescaled_final/0353_rv.mp4	0.0	361.68327045440674	
83	344.53483390808105	movie	1		275	81.0	2.5	/experiments/Knapen_AOT/AOT_stimuli/rescaled_final/0353_rv.mp4	0.0	362.1078243255615	2.4919745922088623
83	345.70889544487	pulse	1	t		81.0	2.5	/experiments/Knapen_AOT/AOT_stimuli/rescaled_final/0353_rv.mp4	0.0	363.28188586235046	
83	347.0268085002899	fix_post	2		12	81.0	2.5	/experiments/Knapen_AOT/AOT_stimuli/rescaled_final/0353_rv.mp4	0.0	364.5997989177704	0.1001749038696289
84	347.12698340415955	fix_pre	0		120	82.0	2.5	/experiments/Knapen_AOT/AOT_stimuli/rescaled_final/1261_fw.mp4	0.0	364.69997382164	1.0083889961242676
84	347.31044721603394	pulse	0	t		82.0	2.5	/experiments/Knapen_AOT/AOT_stimuli/rescaled_final/1261_fw.mp4	0.0	364.8834376335144	
84	348.1353724002838	movie	1		281	82.0	2.5	/experiments/Knapen_AOT/AOT_stimuli/rescaled_final/1261_fw.mp4	0.0	365.7083628177643	2.4919965267181396
84	348.90880370140076	pulse	1	t		82.0	2.5	/experiments/Knapen_AOT/AOT_stimuli/rescaled_final/1261_fw.mp4	0.0	366.4817941188812	
84	350.5093069076538	pulse	1	t		82.0	2.5	/experiments/Knapen_AOT/AOT_stimuli/rescaled_final/1261_fw.mp4	0.0	368.0822973251343	
84	350.62736892700195	fix_post	2		12	82.0	2.5	/experiments/Knapen_AOT/AOT_stimuli/rescaled_final/1261_fw.mp4	0.0	368.2003593444824	0.10007023811340332
85	350.72743916511536	fix_pre	0		120	83.0	2.5	blank	1.0	368.3004295825958	1.0000958442687988
85	351.72753500938416	movie	1		299	83.0	2.5	blank	1.0	369.3005254268646	2.5003747940063477
85	352.11110615730286	pulse	1	t		83.0	2.5	blank	1.0	369.6840965747833	
85	353.71165442466736	pulse	1	t		83.0	2.5	blank	1.0	371.2846448421478	
85	354.2279098033905	fix_post	2		12	83.0	2.5	blank	1.0	371.800900220871	0.1000676155090332
87	354.32797741889954	stim	0		1715					371.90096783638	14.293768644332886
87	355.31179761886597	pulse	0	t						372.88478803634644	
87	356.91182684898376	pulse	0	t						374.48481726646423	
87	358.51223611831665	pulse	0	t						376.0852265357971	
87	360.1123549938202	pulse	0	t						377.68534541130066	
87	361.7127528190613	pulse	0	t						379.28574323654175	
87	363.3128299713135	pulse	0	t						380.88582038879395	
87	364.91310453414917	pulse	0	t						382.48609495162964	
87	366.51341915130615	pulse	0	t						384.0864095687866	
87	368.1135263442993	pulse	0	t						385.6865167617798	
