trial_nr	onset	event_type	phase	response	nr_frames	movie_index	movie_duration	movie_file	blank	onset_abs	duration
0	0.20832514762878418	stim	0		75					25.629698991775513	0.6250200271606445
0	0.8252191543579102	response	0	space						26.24659299850464	
1	0.8333451747894287	stim	0		4988					26.254719018936157	41.581347942352295
1	42.40479612350464	pulse	0	t						67.82616996765137	
1	42.414693117141724	stim	1		1716					67.83606696128845	14.302103996276855
1	43.99836015701294	pulse	1	t						69.41973400115967	
1	45.59852600097656	pulse	1	t						71.01989984512329	
1	47.19888710975647	pulse	1	t						72.6202609539032	
1	48.799129009246826	pulse	1	t						74.22050285339355	
1	50.39930009841919	pulse	1	t						75.82067394256592	
1	51.9994101524353	pulse	1	t						77.42078399658203	
1	53.59980511665344	pulse	1	t						79.02117896080017	
1	55.2000629901886	pulse	1	t						80.62143683433533	
2	56.71679711341858	fix_pre	0		11	0.0	2.5	/experiments/knapen_AOT/AOT_stimuli/rescaled_final/0231_fw.mp4	0.0	82.13817095756531	0.12494087219238281
2	56.80032014846802	pulse	0	t		0.0	2.5	/experiments/knapen_AOT/AOT_stimuli/rescaled_final/0231_fw.mp4	0.0	82.22169399261475	
2	56.84173798561096	movie	1		241	0.0	2.5	/experiments/knapen_AOT/AOT_stimuli/rescaled_final/0231_fw.mp4	0.0	82.26311182975769	2.475346088409424
2	58.40160012245178	pulse	1	t		0.0	2.5	/experiments/knapen_AOT/AOT_stimuli/rescaled_final/0231_fw.mp4	0.0	83.82297396659851	
2	59.317084074020386	fix_post	2		12	0.0	2.5	/experiments/knapen_AOT/AOT_stimuli/rescaled_final/0231_fw.mp4	0.0	84.73845791816711	0.10004401206970215
3	59.41712808609009	fix_pre	0		120	1.0	2.5	/experiments/knapen_AOT/AOT_stimuli/rescaled_final/0723_fw.mp4	0.0	84.83850193023682	1.000114917755127
3	60.00070905685425	pulse	0	t		1.0	2.5	/experiments/knapen_AOT/AOT_stimuli/rescaled_final/0723_fw.mp4	0.0	85.42208290100098	
3	60.417243003845215	movie	1		246	1.0	2.5	/experiments/knapen_AOT/AOT_stimuli/rescaled_final/0723_fw.mp4	0.0	85.83861684799194	2.5003671646118164
3	61.59699010848999	pulse	1	t		1.0	2.5	/experiments/knapen_AOT/AOT_stimuli/rescaled_final/0723_fw.mp4	0.0	87.01836395263672	
3	62.91761016845703	fix_post	2		12	1.0	2.5	/experiments/knapen_AOT/AOT_stimuli/rescaled_final/0723_fw.mp4	0.0	88.33898401260376	0.10001182556152344
4	63.017621994018555	fix_pre	0		120	2.0	2.5	/experiments/knapen_AOT/AOT_stimuli/rescaled_final/0998_rv.mp4	0.0	88.43899583816528	1.00018310546875
4	63.20131206512451	pulse	0	t		2.0	2.5	/experiments/knapen_AOT/AOT_stimuli/rescaled_final/0998_rv.mp4	0.0	88.62268590927124	
4	64.0178050994873	movie	1		244	2.0	2.5	/experiments/knapen_AOT/AOT_stimuli/rescaled_final/0998_rv.mp4	0.0	89.43917894363403	2.5003530979156494
4	64.80150198936462	pulse	1	t		2.0	2.5	/experiments/knapen_AOT/AOT_stimuli/rescaled_final/0998_rv.mp4	0.0	90.22287583351135	
4	66.40170502662659	pulse	1	t		2.0	2.5	/experiments/knapen_AOT/AOT_stimuli/rescaled_final/0998_rv.mp4	0.0	91.82307887077332	
4	66.51815819740295	fix_post	2		12	2.0	2.5	/experiments/knapen_AOT/AOT_stimuli/rescaled_final/0998_rv.mp4	0.0	91.93953204154968	0.10001993179321289
5	66.61817812919617	fix_pre	0		120	3.0	2.5	/experiments/knapen_AOT/AOT_stimuli/rescaled_final/0441_fw.mp4	0.0	92.0395519733429	1.0001680850982666
5	67.61834621429443	movie	1		243	3.0	2.5	/experiments/knapen_AOT/AOT_stimuli/rescaled_final/0441_fw.mp4	0.0	93.03972005844116	2.492015838623047
5	68.00241899490356	pulse	1	t		3.0	2.5	/experiments/knapen_AOT/AOT_stimuli/rescaled_final/0441_fw.mp4	0.0	93.4237928390503	
5	69.59478712081909	pulse	1	t		3.0	2.5	/experiments/knapen_AOT/AOT_stimuli/rescaled_final/0441_fw.mp4	0.0	95.01616096496582	
5	70.11036205291748	fix_post	2		12	3.0	2.5	/experiments/knapen_AOT/AOT_stimuli/rescaled_final/0441_fw.mp4	0.0	95.53173589706421	0.1000070571899414
6	70.21036911010742	fix_pre	0		120	4.0	2.5	/experiments/knapen_AOT/AOT_stimuli/rescaled_final/1292_rv.mp4	0.0	95.63174295425415	1.000196933746338
6	71.19504809379578	pulse	0	t		4.0	2.5	/experiments/knapen_AOT/AOT_stimuli/rescaled_final/1292_rv.mp4	0.0	96.6164219379425	
6	71.21056604385376	movie	1		247	4.0	2.5	/experiments/knapen_AOT/AOT_stimuli/rescaled_final/1292_rv.mp4	0.0	96.63193988800049	2.5086700916290283
6	72.80715012550354	pulse	1	t		4.0	2.5	/experiments/knapen_AOT/AOT_stimuli/rescaled_final/1292_rv.mp4	0.0	98.22852396965027	
6	73.71923613548279	fix_post	2		12	4.0	2.5	/experiments/knapen_AOT/AOT_stimuli/rescaled_final/1292_rv.mp4	0.0	99.14060997962952	0.10004186630249023
7	73.81927800178528	fix_pre	0		120	5.0	2.5	blank	1.0	99.240651845932	1.0001091957092285
7	74.39529705047607	pulse	0	t		5.0	2.5	blank	1.0	99.8166708946228	
7	74.8193871974945	movie	1		300	5.0	2.5	blank	1.0	100.24076104164124	2.500394821166992
7	75.99473214149475	pulse	1	t		5.0	2.5	blank	1.0	101.41610598564148	
7	77.3197820186615	fix_post	2		12	5.0	2.5	blank	1.0	102.74115586280823	0.10002017021179199
8	77.41980218887329	fix_pre	0		120	6.0	2.5	/experiments/knapen_AOT/AOT_stimuli/rescaled_final/1180_rv.mp4	0.0	102.84117603302002	1.0001838207244873
8	77.59500503540039	pulse	0	t		6.0	2.5	/experiments/knapen_AOT/AOT_stimuli/rescaled_final/1180_rv.mp4	0.0	103.01637887954712	
8	78.41998600959778	movie	1		244	6.0	2.5	/experiments/knapen_AOT/AOT_stimuli/rescaled_final/1180_rv.mp4	0.0	103.8413598537445	2.500322103500366
8	79.195228099823	pulse	1	t		6.0	2.5	/experiments/knapen_AOT/AOT_stimuli/rescaled_final/1180_rv.mp4	0.0	104.61660194396973	
8	80.79544305801392	pulse	1	t		6.0	2.5	/experiments/knapen_AOT/AOT_stimuli/rescaled_final/1180_rv.mp4	0.0	106.21681690216064	
8	80.92030811309814	fix_post	2		11	6.0	2.5	/experiments/knapen_AOT/AOT_stimuli/rescaled_final/1180_rv.mp4	0.0	106.34168195724487	0.09166288375854492
9	81.01197099685669	fix_pre	0		120	7.0	2.5	/experiments/knapen_AOT/AOT_stimuli/rescaled_final/1682_rv.mp4	0.0	106.43334484100342	1.0001721382141113
9	82.0121431350708	movie	1		245	7.0	2.5	/experiments/knapen_AOT/AOT_stimuli/rescaled_final/1682_rv.mp4	0.0	107.43351697921753	2.5003559589385986
9	82.39695119857788	pulse	1	t		7.0	2.5	/experiments/knapen_AOT/AOT_stimuli/rescaled_final/1682_rv.mp4	0.0	107.81832504272461	
9	83.9960401058197	pulse	1	t		7.0	2.5	/experiments/knapen_AOT/AOT_stimuli/rescaled_final/1682_rv.mp4	0.0	109.41741394996643	
9	84.5124990940094	fix_post	2		9	7.0	2.5	/experiments/knapen_AOT/AOT_stimuli/rescaled_final/1682_rv.mp4	0.0	109.93387293815613	0.10006189346313477
10	84.61256098747253	fix_pre	0		119	8.0	2.5	/experiments/knapen_AOT/AOT_stimuli/rescaled_final/1100_fw.mp4	0.0	110.03393483161926	0.9917759895324707
10	85.59628105163574	pulse	0	t		8.0	2.5	/experiments/knapen_AOT/AOT_stimuli/rescaled_final/1100_fw.mp4	0.0	111.01765489578247	
10	85.604336977005	movie	1		245	8.0	2.5	/experiments/knapen_AOT/AOT_stimuli/rescaled_final/1100_fw.mp4	0.0	111.02571082115173	2.5087621212005615
10	87.1988000869751	pulse	1	t		8.0	2.5	/experiments/knapen_AOT/AOT_stimuli/rescaled_final/1100_fw.mp4	0.0	112.62017393112183	
10	88.11309909820557	fix_post	2		12	8.0	2.5	/experiments/knapen_AOT/AOT_stimuli/rescaled_final/1100_fw.mp4	0.0	113.5344729423523	0.09998798370361328
11	88.21308708190918	fix_pre	0		120	9.0	2.5	/experiments/knapen_AOT/AOT_stimuli/rescaled_final/1444_fw.mp4	0.0	113.63446092605591	1.0001380443572998
11	88.7967472076416	pulse	0	t		9.0	2.5	/experiments/knapen_AOT/AOT_stimuli/rescaled_final/1444_fw.mp4	0.0	114.21812105178833	
11	89.21322512626648	movie	1		244	9.0	2.5	/experiments/knapen_AOT/AOT_stimuli/rescaled_final/1444_fw.mp4	0.0	114.63459897041321	2.5003578662872314
11	90.39704918861389	pulse	1	t		9.0	2.5	/experiments/knapen_AOT/AOT_stimuli/rescaled_final/1444_fw.mp4	0.0	115.81842303276062	
11	91.71358299255371	fix_post	2		12	9.0	2.5	/experiments/knapen_AOT/AOT_stimuli/rescaled_final/1444_fw.mp4	0.0	117.13495683670044	0.10003805160522461
12	91.81362104415894	fix_pre	0		120	10.0	2.5	/experiments/knapen_AOT/AOT_stimuli/rescaled_final/1934_rv.mp4	0.0	117.23499488830566	1.0001201629638672
12	91.99720215797424	pulse	0	t		10.0	2.5	/experiments/knapen_AOT/AOT_stimuli/rescaled_final/1934_rv.mp4	0.0	117.41857600212097	
12	92.8137412071228	movie	1		243	10.0	2.5	/experiments/knapen_AOT/AOT_stimuli/rescaled_final/1934_rv.mp4	0.0	118.23511505126953	2.5003998279571533
12	93.59742307662964	pulse	1	t		10.0	2.5	/experiments/knapen_AOT/AOT_stimuli/rescaled_final/1934_rv.mp4	0.0	119.01879692077637	
12	95.19774913787842	pulse	1	t		10.0	2.5	/experiments/knapen_AOT/AOT_stimuli/rescaled_final/1934_rv.mp4	0.0	120.61912298202515	
12	95.31414103507996	fix_post	2		12	10.0	2.5	/experiments/knapen_AOT/AOT_stimuli/rescaled_final/1934_rv.mp4	0.0	120.73551487922668	0.10002803802490234
13	95.41416907310486	fix_pre	0		120	11.0	2.5	/experiments/knapen_AOT/AOT_stimuli/rescaled_final/1467_rv.mp4	0.0	120.83554291725159	1.000128984451294
13	96.41429805755615	movie	1		243	11.0	2.5	/experiments/knapen_AOT/AOT_stimuli/rescaled_final/1467_rv.mp4	0.0	121.83567190170288	2.492053985595703
13	96.80000615119934	pulse	1	t		11.0	2.5	/experiments/knapen_AOT/AOT_stimuli/rescaled_final/1467_rv.mp4	0.0	122.22137999534607	
13	98.39821410179138	pulse	1	t		11.0	2.5	/experiments/knapen_AOT/AOT_stimuli/rescaled_final/1467_rv.mp4	0.0	123.81958794593811	
13	98.90635204315186	fix_post	2		12	11.0	2.5	/experiments/knapen_AOT/AOT_stimuli/rescaled_final/1467_rv.mp4	0.0	124.32772588729858	0.09997916221618652
14	99.00633120536804	fix_pre	0		120	12.0	2.5	/experiments/knapen_AOT/AOT_stimuli/rescaled_final/0285_rv.mp4	0.0	124.42770504951477	1.0001769065856934
14	99.9984061717987	pulse	0	t		12.0	2.5	/experiments/knapen_AOT/AOT_stimuli/rescaled_final/0285_rv.mp4	0.0	125.41978001594543	
14	100.00650811195374	movie	1		245	12.0	2.5	/experiments/knapen_AOT/AOT_stimuli/rescaled_final/0285_rv.mp4	0.0	125.42788195610046	2.5087039470672607
14	101.59941220283508	pulse	1	t		12.0	2.5	/experiments/knapen_AOT/AOT_stimuli/rescaled_final/0285_rv.mp4	0.0	127.02078604698181	
14	102.515212059021	fix_post	2		12	12.0	2.5	/experiments/knapen_AOT/AOT_stimuli/rescaled_final/0285_rv.mp4	0.0	127.93658590316772	0.10001206398010254
15	102.6152241230011	fix_pre	0		120	13.0	2.5	/experiments/knapen_AOT/AOT_stimuli/rescaled_final/1016_rv.mp4	0.0	128.03659796714783	1.0001540184020996
15	103.19888806343079	pulse	0	t		13.0	2.5	/experiments/knapen_AOT/AOT_stimuli/rescaled_final/1016_rv.mp4	0.0	128.62026190757751	
15	103.6153781414032	movie	1		246	13.0	2.5	/experiments/knapen_AOT/AOT_stimuli/rescaled_final/1016_rv.mp4	0.0	129.03675198554993	2.5003528594970703
15	104.79913711547852	pulse	1	t		13.0	2.5	/experiments/knapen_AOT/AOT_stimuli/rescaled_final/1016_rv.mp4	0.0	130.22051095962524	
15	106.11573100090027	fix_post	2		12	13.0	2.5	/experiments/knapen_AOT/AOT_stimuli/rescaled_final/1016_rv.mp4	0.0	131.537104845047	0.10002517700195312
16	106.21575617790222	fix_pre	0		120	14.0	2.5	blank	1.0	131.63713002204895	1.000133991241455
16	106.39925813674927	pulse	0	t		14.0	2.5	blank	1.0	131.820631980896	
16	107.21589016914368	movie	1		300	14.0	2.5	blank	1.0	132.6372640132904	2.5003788471221924
16	107.99954414367676	pulse	1	t		14.0	2.5	blank	1.0	133.4209179878235	
16	109.59992408752441	pulse	1	t		14.0	2.5	blank	1.0	135.02129793167114	
16	109.71626901626587	fix_post	2		12	14.0	2.5	blank	1.0	135.1376428604126	0.10003113746643066
17	109.8163001537323	fix_pre	0		120	15.0	2.5	/experiments/knapen_AOT/AOT_stimuli/rescaled_final/1467_rv.mp4	0.0	135.23767399787903	1.0001130104064941
17	110.8164131641388	movie	1		243	15.0	2.5	/experiments/knapen_AOT/AOT_stimuli/rescaled_final/1467_rv.mp4	0.0	136.23778700828552	2.4920589923858643
17	111.20071601867676	pulse	1	t		15.0	2.5	/experiments/knapen_AOT/AOT_stimuli/rescaled_final/1467_rv.mp4	0.0	136.6220898628235	
17	112.80023503303528	pulse	1	t		15.0	2.5	/experiments/knapen_AOT/AOT_stimuli/rescaled_final/1467_rv.mp4	0.0	138.221608877182	
17	113.30847215652466	fix_post	2		12	15.0	2.5	/experiments/knapen_AOT/AOT_stimuli/rescaled_final/1467_rv.mp4	0.0	138.7298460006714	0.10003495216369629
18	113.40850710868835	fix_pre	0		120	16.0	2.5	/experiments/knapen_AOT/AOT_stimuli/rescaled_final/1141_fw.mp4	0.0	138.82988095283508	1.0001730918884277
18	114.40049719810486	pulse	0	t		16.0	2.5	/experiments/knapen_AOT/AOT_stimuli/rescaled_final/1141_fw.mp4	0.0	139.8218710422516	
18	114.40868020057678	movie	1		245	16.0	2.5	/experiments/knapen_AOT/AOT_stimuli/rescaled_final/1141_fw.mp4	0.0	139.8300540447235	2.508661985397339
18	116.00232815742493	pulse	1	t		16.0	2.5	/experiments/knapen_AOT/AOT_stimuli/rescaled_final/1141_fw.mp4	0.0	141.42370200157166	
18	116.91734218597412	fix_post	2		12	16.0	2.5	/experiments/knapen_AOT/AOT_stimuli/rescaled_final/1141_fw.mp4	0.0	142.33871603012085	0.10000085830688477
19	117.017343044281	fix_pre	0		120	17.0	2.5	/experiments/knapen_AOT/AOT_stimuli/rescaled_final/0605_rv.mp4	0.0	142.43871688842773	1.0001561641693115
19	117.60102915763855	pulse	0	t		17.0	2.5	/experiments/knapen_AOT/AOT_stimuli/rescaled_final/0605_rv.mp4	0.0	143.02240300178528	
19	118.01749920845032	movie	1		245	17.0	2.5	/experiments/knapen_AOT/AOT_stimuli/rescaled_final/0605_rv.mp4	0.0	143.43887305259705	2.5003678798675537
19	119.19750499725342	pulse	1	t		17.0	2.5	/experiments/knapen_AOT/AOT_stimuli/rescaled_final/0605_rv.mp4	0.0	144.61887884140015	
19	120.51786708831787	fix_post	2		12	17.0	2.5	/experiments/knapen_AOT/AOT_stimuli/rescaled_final/0605_rv.mp4	0.0	145.9392409324646	0.10003209114074707
20	120.61789917945862	fix_pre	0		120	18.0	2.5	/experiments/knapen_AOT/AOT_stimuli/rescaled_final/1408_fw.mp4	0.0	146.03927302360535	1.0001578330993652
20	120.80147814750671	pulse	0	t		18.0	2.5	/experiments/knapen_AOT/AOT_stimuli/rescaled_final/1408_fw.mp4	0.0	146.22285199165344	
20	121.61805701255798	movie	1		244	18.0	2.5	/experiments/knapen_AOT/AOT_stimuli/rescaled_final/1408_fw.mp4	0.0	147.0394308567047	2.500364065170288
20	122.39426302909851	pulse	1	t		18.0	2.5	/experiments/knapen_AOT/AOT_stimuli/rescaled_final/1408_fw.mp4	0.0	147.81563687324524	
20	124.00198101997375	pulse	1	t		18.0	2.5	/experiments/knapen_AOT/AOT_stimuli/rescaled_final/1408_fw.mp4	0.0	149.42335486412048	
20	124.11842107772827	fix_post	2		12	18.0	2.5	/experiments/knapen_AOT/AOT_stimuli/rescaled_final/1408_fw.mp4	0.0	149.539794921875	0.09998893737792969
21	124.2184100151062	fix_pre	0		120	19.0	2.5	/experiments/knapen_AOT/AOT_stimuli/rescaled_final/1622_rv.mp4	0.0	149.63978385925293	1.0001859664916992
21	125.2185959815979	movie	1		243	19.0	2.5	/experiments/knapen_AOT/AOT_stimuli/rescaled_final/1622_rv.mp4	0.0	150.63996982574463	2.492056131362915
21	125.60344409942627	pulse	1	t		19.0	2.5	/experiments/knapen_AOT/AOT_stimuli/rescaled_final/1622_rv.mp4	0.0	151.024817943573	
21	127.19509601593018	pulse	1	t		19.0	2.5	/experiments/knapen_AOT/AOT_stimuli/rescaled_final/1622_rv.mp4	0.0	152.6164698600769	
21	127.71065211296082	fix_post	2		12	19.0	2.5	/experiments/knapen_AOT/AOT_stimuli/rescaled_final/1622_rv.mp4	0.0	153.13202595710754	0.10006189346313477
22	127.81071400642395	fix_pre	0		120	20.0	2.5	/experiments/knapen_AOT/AOT_stimuli/rescaled_final/1228_fw.mp4	0.0	153.23208785057068	1.0000770092010498
22	128.7951681613922	pulse	0	t		20.0	2.5	/experiments/knapen_AOT/AOT_stimuli/rescaled_final/1228_fw.mp4	0.0	154.21654200553894	
22	128.810791015625	movie	1		245	20.0	2.5	/experiments/knapen_AOT/AOT_stimuli/rescaled_final/1228_fw.mp4	0.0	154.23216485977173	2.508733034133911
22	130.39453220367432	pulse	1	t		20.0	2.5	/experiments/knapen_AOT/AOT_stimuli/rescaled_final/1228_fw.mp4	0.0	155.81590604782104	
22	131.3195240497589	fix_post	2		12	20.0	2.5	/experiments/knapen_AOT/AOT_stimuli/rescaled_final/1228_fw.mp4	0.0	156.74089789390564	0.1000051498413086
23	131.41952919960022	fix_pre	0		120	21.0	2.5	blank	1.0	156.84090304374695	1.0001318454742432
23	131.99480319023132	pulse	0	t		21.0	2.5	blank	1.0	157.41617703437805	
23	132.41966104507446	movie	1		300	21.0	2.5	blank	1.0	157.8410348892212	2.5004241466522217
23	133.59504103660583	pulse	1	t		21.0	2.5	blank	1.0	159.01641488075256	
23	134.92008519172668	fix_post	2		12	21.0	2.5	blank	1.0	160.3414590358734	0.09998893737792969
24	135.02007412910461	fix_pre	0		120	22.0	2.5	/experiments/knapen_AOT/AOT_stimuli/rescaled_final/0610_rv.mp4	0.0	160.44144797325134	1.0001280307769775
24	135.19533705711365	pulse	0	t		22.0	2.5	/experiments/knapen_AOT/AOT_stimuli/rescaled_final/0610_rv.mp4	0.0	160.61671090126038	
24	136.0202021598816	movie	1		244	22.0	2.5	/experiments/knapen_AOT/AOT_stimuli/rescaled_final/0610_rv.mp4	0.0	161.44157600402832	2.492018938064575
24	136.79551911354065	pulse	1	t		22.0	2.5	/experiments/knapen_AOT/AOT_stimuli/rescaled_final/0610_rv.mp4	0.0	162.21689295768738	
24	138.39575505256653	pulse	1	t		22.0	2.5	/experiments/knapen_AOT/AOT_stimuli/rescaled_final/0610_rv.mp4	0.0	163.81712889671326	
24	138.51222109794617	fix_post	2		12	22.0	2.5	/experiments/knapen_AOT/AOT_stimuli/rescaled_final/0610_rv.mp4	0.0	163.9335949420929	0.10002303123474121
25	138.6122441291809	fix_pre	0		120	23.0	2.5	/experiments/knapen_AOT/AOT_stimuli/rescaled_final/0424_rv.mp4	0.0	164.03361797332764	1.0001890659332275
25	139.61243319511414	movie	1		246	23.0	2.5	/experiments/knapen_AOT/AOT_stimuli/rescaled_final/0424_rv.mp4	0.0	165.03380703926086	2.500361919403076
25	139.99721717834473	pulse	1	t		23.0	2.5	/experiments/knapen_AOT/AOT_stimuli/rescaled_final/0424_rv.mp4	0.0	165.41859102249146	
25	141.5963010787964	pulse	1	t		23.0	2.5	/experiments/knapen_AOT/AOT_stimuli/rescaled_final/0424_rv.mp4	0.0	167.01767492294312	
25	142.1127951145172	fix_post	2		12	23.0	2.5	/experiments/knapen_AOT/AOT_stimuli/rescaled_final/0424_rv.mp4	0.0	167.53416895866394	0.10001492500305176
26	142.21281003952026	fix_pre	0		119	24.0	2.5	/experiments/knapen_AOT/AOT_stimuli/rescaled_final/0032_fw.mp4	0.0	167.634183883667	0.9917981624603271
26	143.19642400741577	pulse	0	t		24.0	2.5	/experiments/knapen_AOT/AOT_stimuli/rescaled_final/0032_fw.mp4	0.0	168.6177978515625	
26	143.2046082019806	movie	1		244	24.0	2.5	/experiments/knapen_AOT/AOT_stimuli/rescaled_final/0032_fw.mp4	0.0	168.62598204612732	2.5086758136749268
26	144.80091619491577	pulse	1	t		24.0	2.5	/experiments/knapen_AOT/AOT_stimuli/rescaled_final/0032_fw.mp4	0.0	170.2222900390625	
26	145.71328401565552	fix_post	2		12	24.0	2.5	/experiments/knapen_AOT/AOT_stimuli/rescaled_final/0032_fw.mp4	0.0	171.13465785980225	0.10002613067626953
27	145.8133101463318	fix_pre	0		120	25.0	2.5	/experiments/knapen_AOT/AOT_stimuli/rescaled_final/0018_rv.mp4	0.0	171.23468399047852	1.00016188621521
27	146.3969931602478	pulse	0	t		25.0	2.5	/experiments/knapen_AOT/AOT_stimuli/rescaled_final/0018_rv.mp4	0.0	171.81836700439453	
27	146.813472032547	movie	1		245	25.0	2.5	/experiments/knapen_AOT/AOT_stimuli/rescaled_final/0018_rv.mp4	0.0	172.23484587669373	2.5003721714019775
27	147.99724817276	pulse	1	t		25.0	2.5	/experiments/knapen_AOT/AOT_stimuli/rescaled_final/0018_rv.mp4	0.0	173.41862201690674	
27	149.31384420394897	fix_post	2		12	25.0	2.5	/experiments/knapen_AOT/AOT_stimuli/rescaled_final/0018_rv.mp4	0.0	174.7352180480957	0.1000368595123291
28	149.4138810634613	fix_pre	0		120	26.0	2.5	/experiments/knapen_AOT/AOT_stimuli/rescaled_final/1023_rv.mp4	0.0	174.83525490760803	1.0001420974731445
28	149.59737515449524	pulse	0	t		26.0	2.5	/experiments/knapen_AOT/AOT_stimuli/rescaled_final/1023_rv.mp4	0.0	175.01874899864197	
28	150.41402316093445	movie	1		244	26.0	2.5	/experiments/knapen_AOT/AOT_stimuli/rescaled_final/1023_rv.mp4	0.0	175.83539700508118	2.500342845916748
28	151.19770908355713	pulse	1	t		26.0	2.5	/experiments/knapen_AOT/AOT_stimuli/rescaled_final/1023_rv.mp4	0.0	176.61908292770386	
28	152.79782605171204	pulse	1	t		26.0	2.5	/experiments/knapen_AOT/AOT_stimuli/rescaled_final/1023_rv.mp4	0.0	178.21919989585876	
28	152.9143660068512	fix_post	2		12	26.0	2.5	/experiments/knapen_AOT/AOT_stimuli/rescaled_final/1023_rv.mp4	0.0	178.33573985099792	0.10002398490905762
29	153.01438999176025	fix_pre	0		119	27.0	2.5	/experiments/knapen_AOT/AOT_stimuli/rescaled_final/0068_fw.mp4	0.0	178.43576383590698	0.9918510913848877
29	154.00624108314514	movie	1		245	27.0	2.5	/experiments/knapen_AOT/AOT_stimuli/rescaled_final/0068_fw.mp4	0.0	179.42761492729187	2.500349998474121
29	154.39822006225586	pulse	1	t		27.0	2.5	/experiments/knapen_AOT/AOT_stimuli/rescaled_final/0068_fw.mp4	0.0	179.8195939064026	
29	155.99840307235718	pulse	1	t		27.0	2.5	/experiments/knapen_AOT/AOT_stimuli/rescaled_final/0068_fw.mp4	0.0	181.4197769165039	
29	156.50659108161926	fix_post	2		12	27.0	2.5	/experiments/knapen_AOT/AOT_stimuli/rescaled_final/0068_fw.mp4	0.0	181.927964925766	0.10008406639099121
30	156.60667514801025	fix_pre	0		120	28.0	2.5	blank	1.0	182.02804899215698	1.0000920295715332
30	157.5986180305481	pulse	0	t		28.0	2.5	blank	1.0	183.01999187469482	
30	157.6067671775818	movie	1		301	28.0	2.5	blank	1.0	183.02814102172852	2.508697986602783
30	159.1989550590515	pulse	1	t		28.0	2.5	blank	1.0	184.62032890319824	
30	160.11546516418457	fix_post	2		12	28.0	2.5	blank	1.0	185.5368390083313	0.10001897811889648
31	160.21548414230347	fix_pre	0		120	29.0	2.5	/experiments/knapen_AOT/AOT_stimuli/rescaled_final/0059_fw.mp4	0.0	185.6368579864502	1.0001189708709717
31	160.79921102523804	pulse	0	t		29.0	2.5	/experiments/knapen_AOT/AOT_stimuli/rescaled_final/0059_fw.mp4	0.0	186.22058486938477	
31	161.21560311317444	movie	1		244	29.0	2.5	/experiments/knapen_AOT/AOT_stimuli/rescaled_final/0059_fw.mp4	0.0	186.63697695732117	2.500377893447876
31	162.399423122406	pulse	1	t		29.0	2.5	/experiments/knapen_AOT/AOT_stimuli/rescaled_final/0059_fw.mp4	0.0	187.82079696655273	
31	163.71598100662231	fix_post	2		12	29.0	2.5	/experiments/knapen_AOT/AOT_stimuli/rescaled_final/0059_fw.mp4	0.0	189.13735485076904	0.10010910034179688
32	163.8160901069641	fix_pre	0		120	30.0	2.5	/experiments/knapen_AOT/AOT_stimuli/rescaled_final/0247_fw.mp4	0.0	189.23746395111084	1.0000910758972168
32	163.9995470046997	pulse	0	t		30.0	2.5	/experiments/knapen_AOT/AOT_stimuli/rescaled_final/0247_fw.mp4	0.0	189.42092084884644	
32	164.81618118286133	movie	1		246	30.0	2.5	/experiments/knapen_AOT/AOT_stimuli/rescaled_final/0247_fw.mp4	0.0	190.23755502700806	2.5003268718719482
32	165.59983110427856	pulse	1	t		30.0	2.5	/experiments/knapen_AOT/AOT_stimuli/rescaled_final/0247_fw.mp4	0.0	191.0212049484253	
32	167.20013999938965	pulse	1	t		30.0	2.5	/experiments/knapen_AOT/AOT_stimuli/rescaled_final/0247_fw.mp4	0.0	192.62151384353638	
32	167.31650805473328	fix_post	2		12	30.0	2.5	/experiments/knapen_AOT/AOT_stimuli/rescaled_final/0247_fw.mp4	0.0	192.73788189888	0.10001611709594727
33	167.41652417182922	fix_pre	0		119	31.0	2.5	/experiments/knapen_AOT/AOT_stimuli/rescaled_final/0665_fw.mp4	0.0	192.83789801597595	0.9918398857116699
33	168.4083640575409	movie	1		243	31.0	2.5	/experiments/knapen_AOT/AOT_stimuli/rescaled_final/0665_fw.mp4	0.0	193.82973790168762	2.500338077545166
33	168.8004231452942	pulse	1	t		31.0	2.5	/experiments/knapen_AOT/AOT_stimuli/rescaled_final/0665_fw.mp4	0.0	194.22179698944092	
33	170.40058517456055	pulse	1	t		31.0	2.5	/experiments/knapen_AOT/AOT_stimuli/rescaled_final/0665_fw.mp4	0.0	195.82195901870728	
33	170.90870213508606	fix_post	2		12	31.0	2.5	/experiments/knapen_AOT/AOT_stimuli/rescaled_final/0665_fw.mp4	0.0	196.3300759792328	0.10004091262817383
34	171.00874304771423	fix_pre	0		120	32.0	2.5	/experiments/knapen_AOT/AOT_stimuli/rescaled_final/1906_rv.mp4	0.0	196.43011689186096	1.000175952911377
34	172.00071811676025	pulse	0	t		32.0	2.5	/experiments/knapen_AOT/AOT_stimuli/rescaled_final/1906_rv.mp4	0.0	197.42209196090698	
34	172.0089190006256	movie	1		248	32.0	2.5	/experiments/knapen_AOT/AOT_stimuli/rescaled_final/1906_rv.mp4	0.0	197.43029284477234	2.5086941719055176
34	173.60159420967102	pulse	1	t		32.0	2.5	/experiments/knapen_AOT/AOT_stimuli/rescaled_final/1906_rv.mp4	0.0	199.02296805381775	
34	174.51761317253113	fix_post	2		12	32.0	2.5	/experiments/knapen_AOT/AOT_stimuli/rescaled_final/1906_rv.mp4	0.0	199.93898701667786	0.09996294975280762
35	174.61757612228394	fix_pre	0		120	33.0	2.5	/experiments/knapen_AOT/AOT_stimuli/rescaled_final/0103_fw.mp4	0.0	200.03894996643066	1.000195026397705
35	175.20132303237915	pulse	0	t		33.0	2.5	/experiments/knapen_AOT/AOT_stimuli/rescaled_final/0103_fw.mp4	0.0	200.62269687652588	
35	175.61777114868164	movie	1		245	33.0	2.5	/experiments/knapen_AOT/AOT_stimuli/rescaled_final/0103_fw.mp4	0.0	201.03914499282837	2.5003750324249268
35	176.80157899856567	pulse	1	t		33.0	2.5	/experiments/knapen_AOT/AOT_stimuli/rescaled_final/0103_fw.mp4	0.0	202.2229528427124	
35	178.11814618110657	fix_post	2		12	33.0	2.5	/experiments/knapen_AOT/AOT_stimuli/rescaled_final/0103_fw.mp4	0.0	203.5395200252533	0.10004401206970215
36	178.21819019317627	fix_pre	0		120	34.0	2.5	/experiments/knapen_AOT/AOT_stimuli/rescaled_final/2086_rv.mp4	0.0	203.639564037323	1.0001168251037598
36	178.39425110816956	pulse	0	t		34.0	2.5	/experiments/knapen_AOT/AOT_stimuli/rescaled_final/2086_rv.mp4	0.0	203.81562495231628	
36	179.21830701828003	movie	1		246	34.0	2.5	/experiments/knapen_AOT/AOT_stimuli/rescaled_final/2086_rv.mp4	0.0	204.63968086242676	2.5003581047058105
36	179.99446415901184	pulse	1	t		34.0	2.5	/experiments/knapen_AOT/AOT_stimuli/rescaled_final/2086_rv.mp4	0.0	205.41583800315857	
36	181.59471106529236	pulse	1	t		34.0	2.5	/experiments/knapen_AOT/AOT_stimuli/rescaled_final/2086_rv.mp4	0.0	207.0160849094391	
36	181.71866512298584	fix_post	2		12	34.0	2.5	/experiments/knapen_AOT/AOT_stimuli/rescaled_final/2086_rv.mp4	0.0	207.14003896713257	0.09999895095825195
37	181.8186640739441	fix_pre	0		119	35.0	2.5	blank	1.0	207.24003791809082	0.9919140338897705
37	182.81057810783386	movie	1		300	35.0	2.5	blank	1.0	208.2319519519806	2.500322103500366
37	183.1942150592804	pulse	1	t		35.0	2.5	blank	1.0	208.61558890342712	
37	184.79436898231506	pulse	1	t		35.0	2.5	blank	1.0	210.2157428264618	
37	185.31090021133423	fix_post	2		12	35.0	2.5	blank	1.0	210.73227405548096	0.09998798370361328
38	185.41088819503784	fix_pre	0		119	36.0	2.5	/experiments/knapen_AOT/AOT_stimuli/rescaled_final/1148_rv.mp4	0.0	210.83226203918457	0.9918169975280762
38	186.39459419250488	pulse	0	t		36.0	2.5	/experiments/knapen_AOT/AOT_stimuli/rescaled_final/1148_rv.mp4	0.0	211.8159680366516	
38	186.40270519256592	movie	1		245	36.0	2.5	/experiments/knapen_AOT/AOT_stimuli/rescaled_final/1148_rv.mp4	0.0	211.82407903671265	2.5087549686431885
38	187.9952871799469	pulse	1	t		36.0	2.5	/experiments/knapen_AOT/AOT_stimuli/rescaled_final/1148_rv.mp4	0.0	213.41666102409363	
38	188.9114601612091	fix_post	2		12	36.0	2.5	/experiments/knapen_AOT/AOT_stimuli/rescaled_final/1148_rv.mp4	0.0	214.33283400535583	0.09997081756591797
39	189.01143097877502	fix_pre	0		120	37.0	2.5	/experiments/knapen_AOT/AOT_stimuli/rescaled_final/2122_rv.mp4	0.0	214.43280482292175	1.0002081394195557
39	189.595046043396	pulse	0	t		37.0	2.5	/experiments/knapen_AOT/AOT_stimuli/rescaled_final/2122_rv.mp4	0.0	215.01641988754272	
39	190.01163911819458	movie	1		244	37.0	2.5	/experiments/knapen_AOT/AOT_stimuli/rescaled_final/2122_rv.mp4	0.0	215.4330129623413	2.500437021255493
39	191.19547510147095	pulse	1	t		37.0	2.5	/experiments/knapen_AOT/AOT_stimuli/rescaled_final/2122_rv.mp4	0.0	216.61684894561768	
39	192.51207613945007	fix_post	2		12	37.0	2.5	/experiments/knapen_AOT/AOT_stimuli/rescaled_final/2122_rv.mp4	0.0	217.9334499835968	0.09992384910583496
40	192.6119999885559	fix_pre	0		120	38.0	2.5	/experiments/knapen_AOT/AOT_stimuli/rescaled_final/2001_rv.mp4	0.0	218.03337383270264	1.0001192092895508
40	192.79572820663452	pulse	0	t		38.0	2.5	/experiments/knapen_AOT/AOT_stimuli/rescaled_final/2001_rv.mp4	0.0	218.21710205078125	
40	193.61211919784546	movie	1		243	38.0	2.5	/experiments/knapen_AOT/AOT_stimuli/rescaled_final/2001_rv.mp4	0.0	219.0334930419922	2.500365972518921
40	194.39574909210205	pulse	1	t		38.0	2.5	/experiments/knapen_AOT/AOT_stimuli/rescaled_final/2001_rv.mp4	0.0	219.81712293624878	
40	195.9959900379181	pulse	1	t		38.0	2.5	/experiments/knapen_AOT/AOT_stimuli/rescaled_final/2001_rv.mp4	0.0	221.41736388206482	
40	196.11248517036438	fix_post	2		12	38.0	2.5	/experiments/knapen_AOT/AOT_stimuli/rescaled_final/2001_rv.mp4	0.0	221.5338590145111	0.10002899169921875
41	196.2125141620636	fix_pre	0		120	39.0	2.5	/experiments/knapen_AOT/AOT_stimuli/rescaled_final/0103_fw.mp4	0.0	221.63388800621033	1.0001599788665771
41	197.21267414093018	movie	1		243	39.0	2.5	/experiments/knapen_AOT/AOT_stimuli/rescaled_final/0103_fw.mp4	0.0	222.6340479850769	2.492058038711548
41	197.59678411483765	pulse	1	t		39.0	2.5	/experiments/knapen_AOT/AOT_stimuli/rescaled_final/0103_fw.mp4	0.0	223.01815795898438	
41	199.19643998146057	pulse	1	t		39.0	2.5	/experiments/knapen_AOT/AOT_stimuli/rescaled_final/0103_fw.mp4	0.0	224.6178138256073	
41	199.70473217964172	fix_post	2		12	39.0	2.5	/experiments/knapen_AOT/AOT_stimuli/rescaled_final/0103_fw.mp4	0.0	225.12610602378845	0.10004281997680664
42	199.80477499961853	fix_pre	0		120	40.0	2.5	blank	1.0	225.22614884376526	1.0000720024108887
42	200.79674911499023	pulse	0	t		40.0	2.5	blank	1.0	226.21812295913696	
42	200.80484700202942	movie	1		301	40.0	2.5	blank	1.0	226.22622084617615	2.508735179901123
42	202.39698910713196	pulse	1	t		40.0	2.5	blank	1.0	227.8183629512787	
42	203.31358218193054	fix_post	2		12	40.0	2.5	blank	1.0	228.73495602607727	0.10003900527954102
43	203.41362118721008	fix_pre	0		120	41.0	2.5	/experiments/knapen_AOT/AOT_stimuli/rescaled_final/1786_rv.mp4	0.0	228.8349950313568	1.0001428127288818
43	203.99726700782776	pulse	0	t		41.0	2.5	/experiments/knapen_AOT/AOT_stimuli/rescaled_final/1786_rv.mp4	0.0	229.4186408519745	
43	204.41376399993896	movie	1		245	41.0	2.5	/experiments/knapen_AOT/AOT_stimuli/rescaled_final/1786_rv.mp4	0.0	229.8351378440857	2.500343084335327
43	205.59749507904053	pulse	1	t		41.0	2.5	/experiments/knapen_AOT/AOT_stimuli/rescaled_final/1786_rv.mp4	0.0	231.01886892318726	
43	206.9141070842743	fix_post	2		12	41.0	2.5	/experiments/knapen_AOT/AOT_stimuli/rescaled_final/1786_rv.mp4	0.0	232.33548092842102	0.10003399848937988
44	207.01414108276367	fix_pre	0		120	42.0	2.5	/experiments/knapen_AOT/AOT_stimuli/rescaled_final/1012_fw.mp4	0.0	232.4355149269104	1.0001239776611328
44	207.19777703285217	pulse	0	t		42.0	2.5	/experiments/knapen_AOT/AOT_stimuli/rescaled_final/1012_fw.mp4	0.0	232.6191508769989	
44	208.0142650604248	movie	1		244	42.0	2.5	/experiments/knapen_AOT/AOT_stimuli/rescaled_final/1012_fw.mp4	0.0	233.43563890457153	2.5004191398620605
44	208.79802298545837	pulse	1	t		42.0	2.5	/experiments/knapen_AOT/AOT_stimuli/rescaled_final/1012_fw.mp4	0.0	234.2193968296051	
44	210.40021300315857	pulse	1	t		42.0	2.5	/experiments/knapen_AOT/AOT_stimuli/rescaled_final/1012_fw.mp4	0.0	235.8215868473053	
44	210.51468420028687	fix_post	2		12	42.0	2.5	/experiments/knapen_AOT/AOT_stimuli/rescaled_final/1012_fw.mp4	0.0	235.9360580444336	0.09995794296264648
45	210.6146421432495	fix_pre	0		120	43.0	2.5	/experiments/knapen_AOT/AOT_stimuli/rescaled_final/0514_rv.mp4	0.0	236.03601598739624	1.000169038772583
45	211.6148111820221	movie	1		243	43.0	2.5	/experiments/knapen_AOT/AOT_stimuli/rescaled_final/0514_rv.mp4	0.0	237.03618502616882	2.4920248985290527
45	212.0029571056366	pulse	1	t		43.0	2.5	/experiments/knapen_AOT/AOT_stimuli/rescaled_final/0514_rv.mp4	0.0	237.42433094978333	
45	213.5985779762268	pulse	1	t		43.0	2.5	/experiments/knapen_AOT/AOT_stimuli/rescaled_final/0514_rv.mp4	0.0	239.01995182037354	
45	214.10683608055115	fix_post	2		12	43.0	2.5	/experiments/knapen_AOT/AOT_stimuli/rescaled_final/0514_rv.mp4	0.0	239.52820992469788	0.10003089904785156
46	214.206866979599	fix_pre	0		120	44.0	2.5	/experiments/knapen_AOT/AOT_stimuli/rescaled_final/0935_rv.mp4	0.0	239.62824082374573	1.000171184539795
46	215.19895601272583	pulse	0	t		44.0	2.5	/experiments/knapen_AOT/AOT_stimuli/rescaled_final/0935_rv.mp4	0.0	240.62032985687256	
46	215.2070381641388	movie	1		244	44.0	2.5	/experiments/knapen_AOT/AOT_stimuli/rescaled_final/0935_rv.mp4	0.0	240.62841200828552	2.5086779594421387
46	216.79967617988586	pulse	1	t		44.0	2.5	/experiments/knapen_AOT/AOT_stimuli/rescaled_final/0935_rv.mp4	0.0	242.2210500240326	
46	217.71571612358093	fix_post	2		12	44.0	2.5	/experiments/knapen_AOT/AOT_stimuli/rescaled_final/0935_rv.mp4	0.0	243.13708996772766	0.10006308555603027
47	217.81577920913696	fix_pre	0		120	45.0	2.5	/experiments/knapen_AOT/AOT_stimuli/rescaled_final/2149_rv.mp4	0.0	243.2371530532837	1.0001249313354492
47	218.39935207366943	pulse	0	t		45.0	2.5	/experiments/knapen_AOT/AOT_stimuli/rescaled_final/2149_rv.mp4	0.0	243.82072591781616	
47	218.8159041404724	movie	1		245	45.0	2.5	/experiments/knapen_AOT/AOT_stimuli/rescaled_final/2149_rv.mp4	0.0	244.23727798461914	2.50032901763916
47	219.99965000152588	pulse	1	t		45.0	2.5	/experiments/knapen_AOT/AOT_stimuli/rescaled_final/2149_rv.mp4	0.0	245.4210238456726	
47	221.31623315811157	fix_post	2		12	45.0	2.5	/experiments/knapen_AOT/AOT_stimuli/rescaled_final/2149_rv.mp4	0.0	246.7376070022583	0.1000218391418457
48	221.41625499725342	fix_pre	0		120	46.0	2.5	/experiments/knapen_AOT/AOT_stimuli/rescaled_final/0682_rv.mp4	0.0	246.83762884140015	1.0001699924468994
48	221.59996104240417	pulse	0	t		46.0	2.5	/experiments/knapen_AOT/AOT_stimuli/rescaled_final/0682_rv.mp4	0.0	247.0213348865509	
48	222.41642498970032	movie	1		244	46.0	2.5	/experiments/knapen_AOT/AOT_stimuli/rescaled_final/0682_rv.mp4	0.0	247.83779883384705	2.500357151031494
48	223.2001600265503	pulse	1	t		46.0	2.5	/experiments/knapen_AOT/AOT_stimuli/rescaled_final/0682_rv.mp4	0.0	248.62153387069702	
48	224.80028200149536	pulse	1	t		46.0	2.5	/experiments/knapen_AOT/AOT_stimuli/rescaled_final/0682_rv.mp4	0.0	250.2216558456421	
48	224.9167821407318	fix_post	2		12	46.0	2.5	/experiments/knapen_AOT/AOT_stimuli/rescaled_final/0682_rv.mp4	0.0	250.33815598487854	0.10003900527954102
49	225.01682114601135	fix_pre	0		120	47.0	2.5	blank	1.0	250.43819499015808	1.0001180171966553
49	226.016939163208	movie	1		299	47.0	2.5	blank	1.0	251.43831300735474	2.4920639991760254
49	226.40050220489502	pulse	1	t		47.0	2.5	blank	1.0	251.82187604904175	
49	228.00087904930115	pulse	1	t		47.0	2.5	blank	1.0	253.42225289344788	
49	228.50900316238403	fix_post	2		12	47.0	2.5	blank	1.0	253.93037700653076	0.1000218391418457
50	228.60902500152588	fix_pre	0		120	48.0	2.5	/experiments/knapen_AOT/AOT_stimuli/rescaled_final/1567_fw.mp4	0.0	254.0303988456726	1.0001401901245117
50	229.6011140346527	pulse	0	t		48.0	2.5	/experiments/knapen_AOT/AOT_stimuli/rescaled_final/1567_fw.mp4	0.0	255.02248787879944	
50	229.6091651916504	movie	1		246	48.0	2.5	/experiments/knapen_AOT/AOT_stimuli/rescaled_final/1567_fw.mp4	0.0	255.03053903579712	2.50869083404541
50	231.20175909996033	pulse	1	t		48.0	2.5	/experiments/knapen_AOT/AOT_stimuli/rescaled_final/1567_fw.mp4	0.0	256.62313294410706	
50	232.1178560256958	fix_post	2		12	48.0	2.5	/experiments/knapen_AOT/AOT_stimuli/rescaled_final/1567_fw.mp4	0.0	257.53922986984253	0.10001206398010254
51	232.2178680896759	fix_pre	0		120	49.0	2.5	/experiments/knapen_AOT/AOT_stimuli/rescaled_final/1968_fw.mp4	0.0	257.63924193382263	1.0001509189605713
51	232.80142998695374	pulse	0	t		49.0	2.5	/experiments/knapen_AOT/AOT_stimuli/rescaled_final/1968_fw.mp4	0.0	258.22280383110046	
51	233.21801900863647	movie	1		244	49.0	2.5	/experiments/knapen_AOT/AOT_stimuli/rescaled_final/1968_fw.mp4	0.0	258.6393928527832	2.500385046005249
51	234.40180110931396	pulse	1	t		49.0	2.5	/experiments/knapen_AOT/AOT_stimuli/rescaled_final/1968_fw.mp4	0.0	259.8231749534607	
51	235.71840405464172	fix_post	2		12	49.0	2.5	/experiments/knapen_AOT/AOT_stimuli/rescaled_final/1968_fw.mp4	0.0	261.13977789878845	0.10002708435058594
52	235.8184311389923	fix_pre	0		120	50.0	2.5	/experiments/knapen_AOT/AOT_stimuli/rescaled_final/0646_fw.mp4	0.0	261.23980498313904	1.0001499652862549
52	236.00211906433105	pulse	0	t		50.0	2.5	/experiments/knapen_AOT/AOT_stimuli/rescaled_final/0646_fw.mp4	0.0	261.4234929084778	
52	236.81858110427856	movie	1		245	50.0	2.5	/experiments/knapen_AOT/AOT_stimuli/rescaled_final/0646_fw.mp4	0.0	262.2399549484253	2.500351905822754
52	237.59487509727478	pulse	1	t		50.0	2.5	/experiments/knapen_AOT/AOT_stimuli/rescaled_final/0646_fw.mp4	0.0	263.0162489414215	
52	239.19511008262634	pulse	1	t		50.0	2.5	/experiments/knapen_AOT/AOT_stimuli/rescaled_final/0646_fw.mp4	0.0	264.61648392677307	
52	239.31893301010132	fix_post	2		12	50.0	2.5	/experiments/knapen_AOT/AOT_stimuli/rescaled_final/0646_fw.mp4	0.0	264.74030685424805	0.10001015663146973
53	239.4189431667328	fix_pre	0		120	51.0	2.5	/experiments/knapen_AOT/AOT_stimuli/rescaled_final/2040_fw.mp4	0.0	264.8403170108795	1.000147819519043
53	240.41909098625183	movie	1		246	51.0	2.5	/experiments/knapen_AOT/AOT_stimuli/rescaled_final/2040_fw.mp4	0.0	265.84046483039856	2.4920902252197266
53	240.803227186203	pulse	1	t		51.0	2.5	/experiments/knapen_AOT/AOT_stimuli/rescaled_final/2040_fw.mp4	0.0	266.22460103034973	
53	242.39548301696777	pulse	1	t		51.0	2.5	/experiments/knapen_AOT/AOT_stimuli/rescaled_final/2040_fw.mp4	0.0	267.8168568611145	
53	242.91118121147156	fix_post	2		12	51.0	2.5	/experiments/knapen_AOT/AOT_stimuli/rescaled_final/2040_fw.mp4	0.0	268.3325550556183	0.09997177124023438
54	243.0111529827118	fix_pre	0		119	52.0	2.5	/experiments/knapen_AOT/AOT_stimuli/rescaled_final/1504_fw.mp4	0.0	268.4325268268585	0.9918251037597656
54	243.99481010437012	pulse	0	t		52.0	2.5	/experiments/knapen_AOT/AOT_stimuli/rescaled_final/1504_fw.mp4	0.0	269.41618394851685	
54	244.00297808647156	movie	1		247	52.0	2.5	/experiments/knapen_AOT/AOT_stimuli/rescaled_final/1504_fw.mp4	0.0	269.4243519306183	2.5086729526519775
54	245.5989761352539	pulse	1	t		52.0	2.5	/experiments/knapen_AOT/AOT_stimuli/rescaled_final/1504_fw.mp4	0.0	271.02034997940063	
54	246.51165103912354	fix_post	2		12	52.0	2.5	/experiments/knapen_AOT/AOT_stimuli/rescaled_final/1504_fw.mp4	0.0	271.93302488327026	0.10001802444458008
55	246.61166906356812	fix_pre	0		120	53.0	2.5	/experiments/knapen_AOT/AOT_stimuli/rescaled_final/1551_rv.mp4	0.0	272.03304290771484	1.00018310546875
55	247.19532108306885	pulse	0	t		53.0	2.5	/experiments/knapen_AOT/AOT_stimuli/rescaled_final/1551_rv.mp4	0.0	272.6166949272156	
55	247.61185216903687	movie	1		245	53.0	2.5	/experiments/knapen_AOT/AOT_stimuli/rescaled_final/1551_rv.mp4	0.0	273.0332260131836	2.500375986099243
55	248.7955780029297	pulse	1	t		53.0	2.5	/experiments/knapen_AOT/AOT_stimuli/rescaled_final/1551_rv.mp4	0.0	274.2169518470764	
55	250.1122281551361	fix_post	2		12	53.0	2.5	/experiments/knapen_AOT/AOT_stimuli/rescaled_final/1551_rv.mp4	0.0	275.53360199928284	0.10002589225769043
56	250.2122540473938	fix_pre	0		120	54.0	2.5	/experiments/knapen_AOT/AOT_stimuli/rescaled_final/1495_rv.mp4	0.0	275.6336278915405	1.0001029968261719
56	250.39577507972717	pulse	0	t		54.0	2.5	/experiments/knapen_AOT/AOT_stimuli/rescaled_final/1495_rv.mp4	0.0	275.8171489238739	
56	251.21235704421997	movie	1		244	54.0	2.5	/experiments/knapen_AOT/AOT_stimuli/rescaled_final/1495_rv.mp4	0.0	276.6337308883667	2.500359058380127
56	251.9961221218109	pulse	1	t		54.0	2.5	/experiments/knapen_AOT/AOT_stimuli/rescaled_final/1495_rv.mp4	0.0	277.41749596595764	
56	253.59627199172974	pulse	1	t		54.0	2.5	/experiments/knapen_AOT/AOT_stimuli/rescaled_final/1495_rv.mp4	0.0	279.01764583587646	
56	253.7127161026001	fix_post	2		12	54.0	2.5	/experiments/knapen_AOT/AOT_stimuli/rescaled_final/1495_rv.mp4	0.0	279.1340899467468	0.09999990463256836
57	253.81271600723267	fix_pre	0		120	55.0	2.5	/experiments/knapen_AOT/AOT_stimuli/rescaled_final/1180_fw.mp4	0.0	279.2340898513794	1.0002121925354004
57	254.81292819976807	movie	1		243	55.0	2.5	/experiments/knapen_AOT/AOT_stimuli/rescaled_final/1180_fw.mp4	0.0	280.2343020439148	2.4920289516448975
57	255.19731211662292	pulse	1	t		55.0	2.5	/experiments/knapen_AOT/AOT_stimuli/rescaled_final/1180_fw.mp4	0.0	280.61868596076965	
57	256.7967472076416	pulse	1	t		55.0	2.5	/experiments/knapen_AOT/AOT_stimuli/rescaled_final/1180_fw.mp4	0.0	282.21812105178833	
57	257.30495715141296	fix_post	2		12	55.0	2.5	/experiments/knapen_AOT/AOT_stimuli/rescaled_final/1180_fw.mp4	0.0	282.7263309955597	0.09999990463256836
58	257.40495705604553	fix_pre	0		120	56.0	2.5	blank	1.0	282.82633090019226	1.0001630783081055
58	258.3970670700073	pulse	0	t		56.0	2.5	blank	1.0	283.81844091415405	
58	258.40512013435364	movie	1		301	56.0	2.5	blank	1.0	283.82649397850037	2.50874400138855
58	259.9972240924835	pulse	1	t		56.0	2.5	blank	1.0	285.41859793663025	
58	260.9138641357422	fix_post	2		12	56.0	2.5	blank	1.0	286.3352379798889	0.0999610424041748
59	261.01382517814636	fix_pre	0		120	57.0	2.5	/experiments/knapen_AOT/AOT_stimuli/rescaled_final/1600_rv.mp4	0.0	286.4351990222931	1.0002689361572266
59	261.5974199771881	pulse	0	t		57.0	2.5	/experiments/knapen_AOT/AOT_stimuli/rescaled_final/1600_rv.mp4	0.0	287.01879382133484	
59	262.0140941143036	movie	1		245	57.0	2.5	/experiments/knapen_AOT/AOT_stimuli/rescaled_final/1600_rv.mp4	0.0	287.4354679584503	2.5002529621124268
59	263.19776010513306	pulse	1	t		57.0	2.5	/experiments/knapen_AOT/AOT_stimuli/rescaled_final/1600_rv.mp4	0.0	288.6191339492798	
59	264.514347076416	fix_post	2		12	57.0	2.5	/experiments/knapen_AOT/AOT_stimuli/rescaled_final/1600_rv.mp4	0.0	289.93572092056274	0.10002398490905762
60	264.6143710613251	fix_pre	0		120	58.0	2.5	/experiments/knapen_AOT/AOT_stimuli/rescaled_final/1148_rv.mp4	0.0	290.0357449054718	1.0001730918884277
60	264.7979431152344	pulse	0	t		58.0	2.5	/experiments/knapen_AOT/AOT_stimuli/rescaled_final/1148_rv.mp4	0.0	290.2193169593811	
60	265.6145441532135	movie	1		244	58.0	2.5	/experiments/knapen_AOT/AOT_stimuli/rescaled_final/1148_rv.mp4	0.0	291.03591799736023	2.5003628730773926
60	266.39831018447876	pulse	1	t		58.0	2.5	/experiments/knapen_AOT/AOT_stimuli/rescaled_final/1148_rv.mp4	0.0	291.8196840286255	
60	268.0020480155945	pulse	1	t		58.0	2.5	/experiments/knapen_AOT/AOT_stimuli/rescaled_final/1148_rv.mp4	0.0	293.4234218597412	
60	268.1149070262909	fix_post	2		12	58.0	2.5	/experiments/knapen_AOT/AOT_stimuli/rescaled_final/1148_rv.mp4	0.0	293.5362808704376	0.10001015663146973
61	268.21491718292236	fix_pre	0		120	59.0	2.5	/experiments/knapen_AOT/AOT_stimuli/rescaled_final/0140_rv.mp4	0.0	293.6362910270691	1.000173807144165
61	269.2150909900665	movie	1		244	59.0	2.5	/experiments/knapen_AOT/AOT_stimuli/rescaled_final/0140_rv.mp4	0.0	294.63646483421326	2.491974115371704
61	269.59921407699585	pulse	1	t		59.0	2.5	/experiments/knapen_AOT/AOT_stimuli/rescaled_final/0140_rv.mp4	0.0	295.0205879211426	
61	271.1988971233368	pulse	1	t		59.0	2.5	/experiments/knapen_AOT/AOT_stimuli/rescaled_final/0140_rv.mp4	0.0	296.6202709674835	
61	271.70706510543823	fix_post	2		12	59.0	2.5	/experiments/knapen_AOT/AOT_stimuli/rescaled_final/0140_rv.mp4	0.0	297.12843894958496	0.10011100769042969
62	271.80717611312866	fix_pre	0		120	60.0	2.5	/experiments/knapen_AOT/AOT_stimuli/rescaled_final/0231_rv.mp4	0.0	297.2285499572754	1.0000810623168945
62	272.79918217658997	pulse	0	t		60.0	2.5	/experiments/knapen_AOT/AOT_stimuli/rescaled_final/0231_rv.mp4	0.0	298.2205560207367	
62	272.80725717544556	movie	1		242	60.0	2.5	/experiments/knapen_AOT/AOT_stimuli/rescaled_final/0231_rv.mp4	0.0	298.2286310195923	2.508713960647583
62	274.40008211135864	pulse	1	t		60.0	2.5	/experiments/knapen_AOT/AOT_stimuli/rescaled_final/0231_rv.mp4	0.0	299.82145595550537	
62	275.31597113609314	fix_post	2		12	60.0	2.5	/experiments/knapen_AOT/AOT_stimuli/rescaled_final/0231_rv.mp4	0.0	300.73734498023987	0.10009288787841797
63	275.41606402397156	fix_pre	0		120	61.0	2.5	/experiments/knapen_AOT/AOT_stimuli/rescaled_final/2040_rv.mp4	0.0	300.8374378681183	1.000072956085205
63	275.9996290206909	pulse	0	t		61.0	2.5	/experiments/knapen_AOT/AOT_stimuli/rescaled_final/2040_rv.mp4	0.0	301.42100286483765	
63	276.41613698005676	movie	1		248	61.0	2.5	/experiments/knapen_AOT/AOT_stimuli/rescaled_final/2040_rv.mp4	0.0	301.8375108242035	2.500378131866455
63	277.5999131202698	pulse	1	t		61.0	2.5	/experiments/knapen_AOT/AOT_stimuli/rescaled_final/2040_rv.mp4	0.0	303.0212869644165	
63	278.9165151119232	fix_post	2		12	61.0	2.5	/experiments/knapen_AOT/AOT_stimuli/rescaled_final/2040_rv.mp4	0.0	304.33788895606995	0.1000518798828125
64	279.01656699180603	fix_pre	0		120	62.0	2.5	blank	1.0	304.43794083595276	1.000110149383545
64	279.20004320144653	pulse	0	t		62.0	2.5	blank	1.0	304.62141704559326	
64	280.0166771411896	movie	1		300	62.0	2.5	blank	1.0	305.4380509853363	2.5003879070281982
64	280.8003489971161	pulse	1	t		62.0	2.5	blank	1.0	306.2217228412628	
64	282.4004909992218	pulse	1	t		62.0	2.5	blank	1.0	307.82186484336853	
64	282.5170650482178	fix_post	2		12	62.0	2.5	blank	1.0	307.9384388923645	0.0999751091003418
65	282.6170401573181	fix_pre	0		120	63.0	2.5	/experiments/knapen_AOT/AOT_stimuli/rescaled_final/1084_fw.mp4	0.0	308.03841400146484	1.000175952911377
65	283.6172161102295	movie	1		249	63.0	2.5	/experiments/knapen_AOT/AOT_stimuli/rescaled_final/1084_fw.mp4	0.0	309.0385899543762	2.4920098781585693
65	284.00138807296753	pulse	1	t		63.0	2.5	/experiments/knapen_AOT/AOT_stimuli/rescaled_final/1084_fw.mp4	0.0	309.42276191711426	
65	285.6010801792145	pulse	1	t		63.0	2.5	/experiments/knapen_AOT/AOT_stimuli/rescaled_final/1084_fw.mp4	0.0	311.0224540233612	
65	286.10922598838806	fix_post	2		12	63.0	2.5	/experiments/knapen_AOT/AOT_stimuli/rescaled_final/1084_fw.mp4	0.0	311.5305998325348	0.10005402565002441
66	286.2092800140381	fix_pre	0		120	64.0	2.5	/experiments/knapen_AOT/AOT_stimuli/rescaled_final/1081_fw.mp4	0.0	311.6306538581848	1.0001130104064941
66	287.2013921737671	pulse	0	t		64.0	2.5	/experiments/knapen_AOT/AOT_stimuli/rescaled_final/1081_fw.mp4	0.0	312.6227660179138	
66	287.2093930244446	movie	1		257	64.0	2.5	/experiments/knapen_AOT/AOT_stimuli/rescaled_final/1081_fw.mp4	0.0	312.6307668685913	2.5087311267852783
66	288.80234813690186	pulse	1	t		64.0	2.5	/experiments/knapen_AOT/AOT_stimuli/rescaled_final/1081_fw.mp4	0.0	314.2237219810486	
66	289.71812415122986	fix_post	2		12	64.0	2.5	/experiments/knapen_AOT/AOT_stimuli/rescaled_final/1081_fw.mp4	0.0	315.1394979953766	0.10004401206970215
67	289.81816816329956	fix_pre	0		120	65.0	2.5	/experiments/knapen_AOT/AOT_stimuli/rescaled_final/1293_fw.mp4	0.0	315.2395420074463	1.000121831893921
67	290.39422702789307	pulse	0	t		65.0	2.5	/experiments/knapen_AOT/AOT_stimuli/rescaled_final/1293_fw.mp4	0.0	315.8156008720398	
67	290.8182899951935	movie	1		244	65.0	2.5	/experiments/knapen_AOT/AOT_stimuli/rescaled_final/1293_fw.mp4	0.0	316.2396638393402	2.500413179397583
67	292.0020999908447	pulse	1	t		65.0	2.5	/experiments/knapen_AOT/AOT_stimuli/rescaled_final/1293_fw.mp4	0.0	317.42347383499146	
67	293.31870317459106	fix_post	2		12	65.0	2.5	/experiments/knapen_AOT/AOT_stimuli/rescaled_final/1293_fw.mp4	0.0	318.7400770187378	0.09998393058776855
68	293.41868710517883	fix_pre	0		120	66.0	2.5	/experiments/knapen_AOT/AOT_stimuli/rescaled_final/0285_rv.mp4	0.0	318.84006094932556	1.0001258850097656
68	293.5948340892792	pulse	0	t		66.0	2.5	/experiments/knapen_AOT/AOT_stimuli/rescaled_final/0285_rv.mp4	0.0	319.0162079334259	
68	294.4188129901886	movie	1		243	66.0	2.5	/experiments/knapen_AOT/AOT_stimuli/rescaled_final/0285_rv.mp4	0.0	319.8401868343353	2.500387191772461
68	295.19500207901	pulse	1	t		66.0	2.5	/experiments/knapen_AOT/AOT_stimuli/rescaled_final/0285_rv.mp4	0.0	320.61637592315674	
68	296.794517993927	pulse	1	t		66.0	2.5	/experiments/knapen_AOT/AOT_stimuli/rescaled_final/0285_rv.mp4	0.0	322.21589183807373	
68	296.91920018196106	fix_post	2		12	66.0	2.5	/experiments/knapen_AOT/AOT_stimuli/rescaled_final/0285_rv.mp4	0.0	322.3405740261078	0.1000058650970459
69	297.0192060470581	fix_pre	0		120	67.0	2.5	/experiments/knapen_AOT/AOT_stimuli/rescaled_final/1901_fw.mp4	0.0	322.44057989120483	1.0001411437988281
69	298.01934719085693	movie	1		243	67.0	2.5	/experiments/knapen_AOT/AOT_stimuli/rescaled_final/1901_fw.mp4	0.0	323.44072103500366	2.4920389652252197
69	298.39462208747864	pulse	1	t		67.0	2.5	/experiments/knapen_AOT/AOT_stimuli/rescaled_final/1901_fw.mp4	0.0	323.81599593162537	
69	299.99487805366516	pulse	1	t		67.0	2.5	/experiments/knapen_AOT/AOT_stimuli/rescaled_final/1901_fw.mp4	0.0	325.4162518978119	
69	300.51138615608215	fix_post	2		12	67.0	2.5	/experiments/knapen_AOT/AOT_stimuli/rescaled_final/1901_fw.mp4	0.0	325.9327600002289	0.10000395774841309
70	300.61139011383057	fix_pre	0		119	68.0	2.5	/experiments/knapen_AOT/AOT_stimuli/rescaled_final/1081_fw.mp4	0.0	326.0327639579773	0.9918570518493652
70	301.59504318237305	pulse	0	t		68.0	2.5	/experiments/knapen_AOT/AOT_stimuli/rescaled_final/1081_fw.mp4	0.0	327.0164170265198	
70	301.60324716567993	movie	1		246	68.0	2.5	/experiments/knapen_AOT/AOT_stimuli/rescaled_final/1081_fw.mp4	0.0	327.02462100982666	2.508687973022461
70	303.1967852115631	pulse	1	t		68.0	2.5	/experiments/knapen_AOT/AOT_stimuli/rescaled_final/1081_fw.mp4	0.0	328.61815905570984	
70	304.1119351387024	fix_post	2		12	68.0	2.5	/experiments/knapen_AOT/AOT_stimuli/rescaled_final/1081_fw.mp4	0.0	329.5333089828491	0.1000359058380127
71	304.2119710445404	fix_pre	0		120	69.0	2.5	/experiments/knapen_AOT/AOT_stimuli/rescaled_final/1906_fw.mp4	0.0	329.63334488868713	1.0001780986785889
71	304.7956221103668	pulse	0	t		69.0	2.5	/experiments/knapen_AOT/AOT_stimuli/rescaled_final/1906_fw.mp4	0.0	330.21699595451355	
71	305.212149143219	movie	1		248	69.0	2.5	/experiments/knapen_AOT/AOT_stimuli/rescaled_final/1906_fw.mp4	0.0	330.6335229873657	2.5002870559692383
71	306.39591908454895	pulse	1	t		69.0	2.5	/experiments/knapen_AOT/AOT_stimuli/rescaled_final/1906_fw.mp4	0.0	331.8172929286957	
71	307.71243619918823	fix_post	2		12	69.0	2.5	/experiments/knapen_AOT/AOT_stimuli/rescaled_final/1906_fw.mp4	0.0	333.13381004333496	0.10005879402160645
72	307.81249499320984	fix_pre	0		120	70.0	2.5	blank	1.0	333.23386883735657	1.0001451969146729
72	307.99602699279785	pulse	0	t		70.0	2.5	blank	1.0	333.4174008369446	
72	308.8126401901245	movie	1		300	70.0	2.5	blank	1.0	334.23401403427124	2.5003488063812256
72	309.59633207321167	pulse	1	t		70.0	2.5	blank	1.0	335.0177059173584	
72	311.19645619392395	pulse	1	t		70.0	2.5	blank	1.0	336.6178300380707	
72	311.31298899650574	fix_post	2		12	70.0	2.5	blank	1.0	336.73436284065247	0.10002398490905762
73	311.4130129814148	fix_pre	0		120	71.0	2.5	/experiments/knapen_AOT/AOT_stimuli/rescaled_final/2151_rv.mp4	0.0	336.8343868255615	1.0001461505889893
73	312.4131591320038	movie	1		244	71.0	2.5	/experiments/knapen_AOT/AOT_stimuli/rescaled_final/2151_rv.mp4	0.0	337.8345329761505	2.4920639991760254
73	312.79716515541077	pulse	1	t		71.0	2.5	/experiments/knapen_AOT/AOT_stimuli/rescaled_final/2151_rv.mp4	0.0	338.2185389995575	
73	314.39699721336365	pulse	1	t		71.0	2.5	/experiments/knapen_AOT/AOT_stimuli/rescaled_final/2151_rv.mp4	0.0	339.8183710575104	
73	314.9052231311798	fix_post	2		12	71.0	2.5	/experiments/knapen_AOT/AOT_stimuli/rescaled_final/2151_rv.mp4	0.0	340.32659697532654	0.10001492500305176
74	315.00523805618286	fix_pre	0		120	72.0	2.5	/experiments/knapen_AOT/AOT_stimuli/rescaled_final/1074_fw.mp4	0.0	340.4266119003296	1.0001511573791504
74	315.9972450733185	pulse	0	t		72.0	2.5	/experiments/knapen_AOT/AOT_stimuli/rescaled_final/1074_fw.mp4	0.0	341.4186189174652	
74	316.005389213562	movie	1		245	72.0	2.5	/experiments/knapen_AOT/AOT_stimuli/rescaled_final/1074_fw.mp4	0.0	341.42676305770874	2.50869083404541
74	317.5986030101776	pulse	1	t		72.0	2.5	/experiments/knapen_AOT/AOT_stimuli/rescaled_final/1074_fw.mp4	0.0	343.01997685432434	
74	318.5140800476074	fix_post	2		12	72.0	2.5	/experiments/knapen_AOT/AOT_stimuli/rescaled_final/1074_fw.mp4	0.0	343.93545389175415	0.10002493858337402
75	318.6141049861908	fix_pre	0		120	73.0	2.5	/experiments/knapen_AOT/AOT_stimuli/rescaled_final/1546_rv.mp4	0.0	344.0354788303375	1.0001652240753174
75	319.1977870464325	pulse	0	t		73.0	2.5	/experiments/knapen_AOT/AOT_stimuli/rescaled_final/1546_rv.mp4	0.0	344.6191608905792	
75	319.6142702102661	movie	1		245	73.0	2.5	/experiments/knapen_AOT/AOT_stimuli/rescaled_final/1546_rv.mp4	0.0	345.03564405441284	2.50036883354187
75	320.79811215400696	pulse	1	t		73.0	2.5	/experiments/knapen_AOT/AOT_stimuli/rescaled_final/1546_rv.mp4	0.0	346.2194859981537	
75	322.114639043808	fix_post	2		12	73.0	2.5	/experiments/knapen_AOT/AOT_stimuli/rescaled_final/1546_rv.mp4	0.0	347.5360128879547	0.10001111030578613
76	322.21465015411377	fix_pre	0		120	74.0	2.5	/experiments/knapen_AOT/AOT_stimuli/rescaled_final/1299_rv.mp4	0.0	347.6360239982605	1.0001540184020996
76	322.3982720375061	pulse	0	t		74.0	2.5	/experiments/knapen_AOT/AOT_stimuli/rescaled_final/1299_rv.mp4	0.0	347.81964588165283	
76	323.21480417251587	movie	1		245	74.0	2.5	/experiments/knapen_AOT/AOT_stimuli/rescaled_final/1299_rv.mp4	0.0	348.6361780166626	2.500372886657715
76	323.99859404563904	pulse	1	t		74.0	2.5	/experiments/knapen_AOT/AOT_stimuli/rescaled_final/1299_rv.mp4	0.0	349.41996788978577	
76	325.5987820625305	pulse	1	t		74.0	2.5	/experiments/knapen_AOT/AOT_stimuli/rescaled_final/1299_rv.mp4	0.0	351.02015590667725	
76	325.7151770591736	fix_post	2		12	74.0	2.5	/experiments/knapen_AOT/AOT_stimuli/rescaled_final/1299_rv.mp4	0.0	351.1365509033203	0.09999799728393555
77	325.8151750564575	fix_pre	0		120	75.0	2.5	/experiments/knapen_AOT/AOT_stimuli/rescaled_final/1546_fw.mp4	0.0	351.23654890060425	1.0001590251922607
77	326.8153340816498	movie	1		244	75.0	2.5	/experiments/knapen_AOT/AOT_stimuli/rescaled_final/1546_fw.mp4	0.0	352.2367079257965	2.4920101165771484
77	327.1992540359497	pulse	1	t		75.0	2.5	/experiments/knapen_AOT/AOT_stimuli/rescaled_final/1546_fw.mp4	0.0	352.62062788009644	
77	328.79922819137573	pulse	1	t		75.0	2.5	/experiments/knapen_AOT/AOT_stimuli/rescaled_final/1546_fw.mp4	0.0	354.22060203552246	
77	329.30734419822693	fix_post	2		12	75.0	2.5	/experiments/knapen_AOT/AOT_stimuli/rescaled_final/1546_fw.mp4	0.0	354.72871804237366	0.10002493858337402
78	329.4073691368103	fix_pre	0		120	76.0	2.5	/experiments/knapen_AOT/AOT_stimuli/rescaled_final/0208_rv.mp4	0.0	354.82874298095703	1.000196933746338
78	330.3994221687317	pulse	0	t		76.0	2.5	/experiments/knapen_AOT/AOT_stimuli/rescaled_final/0208_rv.mp4	0.0	355.8207960128784	
78	330.40756607055664	movie	1		246	76.0	2.5	/experiments/knapen_AOT/AOT_stimuli/rescaled_final/0208_rv.mp4	0.0	355.82893991470337	2.5086510181427
78	332.000776052475	pulse	1	t		76.0	2.5	/experiments/knapen_AOT/AOT_stimuli/rescaled_final/0208_rv.mp4	0.0	357.4221498966217	
78	332.91621708869934	fix_post	2		12	76.0	2.5	/experiments/knapen_AOT/AOT_stimuli/rescaled_final/0208_rv.mp4	0.0	358.33759093284607	0.100006103515625
79	333.01622319221497	fix_pre	0		120	77.0	2.5	blank	1.0	358.4375970363617	1.000152826309204
79	333.59995317459106	pulse	0	t		77.0	2.5	blank	1.0	359.0213270187378	
79	334.01637601852417	movie	1		298	77.0	2.5	blank	1.0	359.4377498626709	2.500413179397583
79	335.20017099380493	pulse	1	t		77.0	2.5	blank	1.0	360.62154483795166	
79	336.51678919792175	fix_post	2		12	77.0	2.5	blank	1.0	361.9381630420685	0.09997987747192383
80	336.6167690753937	fix_pre	0		120	78.0	2.5	/experiments/knapen_AOT/AOT_stimuli/rescaled_final/1420_fw.mp4	0.0	362.0381429195404	1.000195026397705
80	336.8003590106964	pulse	0	t		78.0	2.5	/experiments/knapen_AOT/AOT_stimuli/rescaled_final/1420_fw.mp4	0.0	362.22173285484314	
80	337.6169641017914	movie	1		245	78.0	2.5	/experiments/knapen_AOT/AOT_stimuli/rescaled_final/1420_fw.mp4	0.0	363.0383379459381	2.500330924987793
80	338.40052914619446	pulse	1	t		78.0	2.5	/experiments/knapen_AOT/AOT_stimuli/rescaled_final/1420_fw.mp4	0.0	363.8219029903412	
80	339.998407125473	pulse	1	t		78.0	2.5	/experiments/knapen_AOT/AOT_stimuli/rescaled_final/1420_fw.mp4	0.0	365.41978096961975	
80	340.1172950267792	fix_post	2		12	78.0	2.5	/experiments/knapen_AOT/AOT_stimuli/rescaled_final/1420_fw.mp4	0.0	365.5386688709259	0.10001707077026367
81	340.21731209754944	fix_pre	0		120	79.0	2.5	/experiments/knapen_AOT/AOT_stimuli/rescaled_final/0530_fw.mp4	0.0	365.63868594169617	1.0001449584960938
81	341.21745705604553	movie	1		243	79.0	2.5	/experiments/knapen_AOT/AOT_stimuli/rescaled_final/0530_fw.mp4	0.0	366.63883090019226	2.492037057876587
81	341.60156512260437	pulse	1	t		79.0	2.5	/experiments/knapen_AOT/AOT_stimuli/rescaled_final/0530_fw.mp4	0.0	367.0229389667511	
81	343.201425075531	pulse	1	t		79.0	2.5	/experiments/knapen_AOT/AOT_stimuli/rescaled_final/0530_fw.mp4	0.0	368.62279891967773	
81	343.7094941139221	fix_post	2		12	79.0	2.5	/experiments/knapen_AOT/AOT_stimuli/rescaled_final/0530_fw.mp4	0.0	369.13086795806885	0.10003495216369629
82	343.8095290660858	fix_pre	0		120	80.0	2.5	/experiments/knapen_AOT/AOT_stimuli/rescaled_final/1615_rv.mp4	0.0	369.23090291023254	1.0001640319824219
82	344.80148100852966	pulse	0	t		80.0	2.5	/experiments/knapen_AOT/AOT_stimuli/rescaled_final/1615_rv.mp4	0.0	370.2228548526764	
82	344.80969309806824	movie	1		247	80.0	2.5	/experiments/knapen_AOT/AOT_stimuli/rescaled_final/1615_rv.mp4	0.0	370.23106694221497	2.508686065673828
82	346.40212416648865	pulse	1	t		80.0	2.5	/experiments/knapen_AOT/AOT_stimuli/rescaled_final/1615_rv.mp4	0.0	371.8234980106354	
82	347.31837916374207	fix_post	2		12	80.0	2.5	/experiments/knapen_AOT/AOT_stimuli/rescaled_final/1615_rv.mp4	0.0	372.7397530078888	0.09995889663696289
83	347.418338060379	fix_pre	0		120	81.0	2.5	/experiments/knapen_AOT/AOT_stimuli/rescaled_final/1639_fw.mp4	0.0	372.83971190452576	1.0002119541168213
83	348.0021550655365	pulse	0	t		81.0	2.5	/experiments/knapen_AOT/AOT_stimuli/rescaled_final/1639_fw.mp4	0.0	373.4235289096832	
83	348.41855001449585	movie	1		244	81.0	2.5	/experiments/knapen_AOT/AOT_stimuli/rescaled_final/1639_fw.mp4	0.0	373.8399238586426	2.5003461837768555
83	349.59812903404236	pulse	1	t		81.0	2.5	/experiments/knapen_AOT/AOT_stimuli/rescaled_final/1639_fw.mp4	0.0	375.0195028781891	
83	350.9188961982727	fix_post	2		12	81.0	2.5	/experiments/knapen_AOT/AOT_stimuli/rescaled_final/1639_fw.mp4	0.0	376.34027004241943	0.10001993179321289
84	351.0189161300659	fix_pre	0		120	82.0	2.5	/experiments/knapen_AOT/AOT_stimuli/rescaled_final/2040_rv.mp4	0.0	376.44028997421265	1.0001609325408936
84	351.195109128952	pulse	0	t		82.0	2.5	/experiments/knapen_AOT/AOT_stimuli/rescaled_final/2040_rv.mp4	0.0	376.61648297309875	
84	352.0190770626068	movie	1		248	82.0	2.5	/experiments/knapen_AOT/AOT_stimuli/rescaled_final/2040_rv.mp4	0.0	377.44045090675354	2.500373125076294
84	352.79524397850037	pulse	1	t		82.0	2.5	/experiments/knapen_AOT/AOT_stimuli/rescaled_final/2040_rv.mp4	0.0	378.2166178226471	
84	354.3956000804901	pulse	1	t		82.0	2.5	/experiments/knapen_AOT/AOT_stimuli/rescaled_final/2040_rv.mp4	0.0	379.81697392463684	
84	354.5194501876831	fix_post	2		12	82.0	2.5	/experiments/knapen_AOT/AOT_stimuli/rescaled_final/2040_rv.mp4	0.0	379.94082403182983	0.1000359058380127
85	354.6194860935211	fix_pre	0		119	83.0	2.5	blank	1.0	380.04085993766785	0.991779088973999
85	355.6112651824951	movie	1		300	83.0	2.5	blank	1.0	381.03263902664185	2.500396966934204
85	355.9956531524658	pulse	1	t		83.0	2.5	blank	1.0	381.41702699661255	
85	357.5950791835785	pulse	1	t		83.0	2.5	blank	1.0	383.0164530277252	
85	358.1116621494293	fix_post	2		12	83.0	2.5	blank	1.0	383.53303599357605	0.09999704360961914
87	358.21165919303894	stim	0		1716					383.63303303718567	14.302182912826538
87	359.1952760219574	pulse	0	t						384.6166498661041	
87	360.7955391407013	pulse	0	t						386.216912984848	
87	362.3957931995392	pulse	0	t						387.8171670436859	
87	363.99613308906555	pulse	0	t						389.4175069332123	
87	365.5963671207428	pulse	0	t						391.0177409648895	
87	367.1964211463928	pulse	0	t						392.61779499053955	
87	368.7967360019684	pulse	0	t						394.2181098461151	
87	370.39699506759644	pulse	0	t						395.81836891174316	
87	371.9972400665283	pulse	0	t						397.41861391067505	
