trial_nr	onset	event_type	phase	response	nr_frames	movie_index	movie_duration	movie_file	blank	onset_abs	duration
0	0.20848393440246582	stim	0		4					42.58140301704407	0.03328704833984375
0	0.23387908935546875	response	0	space						42.60679817199707	
1	0.24177098274230957	stim	0		4703					42.61469006538391	39.20960807800293
1	39.43685293197632	pulse	0	t						81.80977201461792	
1	39.45137906074524	stim	1		1715					81.82429814338684	14.298321962356567
1	41.03132700920105	pulse	1	t						83.40424609184265	
1	42.63149809837341	pulse	1	t						85.00441718101501	
1	44.23183488845825	pulse	1	t						86.60475397109985	
1	45.83200192451477	pulse	1	t						88.20492100715637	
1	47.43234705924988	pulse	1	t						89.80526614189148	
1	49.03242301940918	pulse	1	t						91.40534210205078	
1	50.63278007507324	pulse	1	t						93.00569915771484	
1	52.232924938201904	pulse	1	t						94.6058440208435	
2	53.74970102310181	fix_pre	0		11	0.0	2.5	/experiments/knapen_AOT/AOT_stimuli/rescaled_final/1367_fw.mp4	0.0	96.12262010574341	0.09174489974975586
2	53.83319687843323	pulse	0	t		0.0	2.5	/experiments/knapen_AOT/AOT_stimuli/rescaled_final/1367_fw.mp4	0.0	96.20611596107483	
2	53.84144592285156	movie	1		242	0.0	2.5	/experiments/knapen_AOT/AOT_stimuli/rescaled_final/1367_fw.mp4	0.0	96.21436500549316	2.5086441040039062
2	55.438283920288086	pulse	1	t		0.0	2.5	/experiments/knapen_AOT/AOT_stimuli/rescaled_final/1367_fw.mp4	0.0	97.81120300292969	
2	56.35009002685547	fix_post	2		12	0.0	2.5	/experiments/knapen_AOT/AOT_stimuli/rescaled_final/1367_fw.mp4	0.0	98.72300910949707	0.1000678539276123
3	56.45015788078308	fix_pre	0		120	1.0	2.5	/experiments/knapen_AOT/AOT_stimuli/rescaled_final/1144_rv.mp4	0.0	98.82307696342468	1.0000700950622559
3	57.033682107925415	pulse	0	t		1.0	2.5	/experiments/knapen_AOT/AOT_stimuli/rescaled_final/1144_rv.mp4	0.0	99.40660119056702	
3	57.45022797584534	movie	1		242	1.0	2.5	/experiments/knapen_AOT/AOT_stimuli/rescaled_final/1144_rv.mp4	0.0	99.82314705848694	2.50058913230896
3	58.627103090286255	pulse	1	t		1.0	2.5	/experiments/knapen_AOT/AOT_stimuli/rescaled_final/1144_rv.mp4	0.0	101.00002217292786	
3	59.9508171081543	fix_post	2		12	1.0	2.5	/experiments/knapen_AOT/AOT_stimuli/rescaled_final/1144_rv.mp4	0.0	102.3237361907959	0.09986495971679688
4	60.050682067871094	fix_pre	0		120	2.0	2.5	/experiments/knapen_AOT/AOT_stimuli/rescaled_final/0331_fw.mp4	0.0	102.4236011505127	1.0000720024108887
4	60.226738929748535	pulse	0	t		2.0	2.5	/experiments/knapen_AOT/AOT_stimuli/rescaled_final/0331_fw.mp4	0.0	102.59965801239014	
4	61.05075407028198	movie	1		243	2.0	2.5	/experiments/knapen_AOT/AOT_stimuli/rescaled_final/0331_fw.mp4	0.0	103.42367315292358	2.5004048347473145
4	61.82695007324219	pulse	1	t		2.0	2.5	/experiments/knapen_AOT/AOT_stimuli/rescaled_final/0331_fw.mp4	0.0	104.19986915588379	
4	63.43478989601135	pulse	1	t		2.0	2.5	/experiments/knapen_AOT/AOT_stimuli/rescaled_final/0331_fw.mp4	0.0	105.80770897865295	
4	63.5511589050293	fix_post	2		12	2.0	2.5	/experiments/knapen_AOT/AOT_stimuli/rescaled_final/0331_fw.mp4	0.0	105.9240779876709	0.10007214546203613
5	63.65123105049133	fix_pre	0		120	3.0	2.5	/experiments/knapen_AOT/AOT_stimuli/rescaled_final/0022_fw.mp4	0.0	106.02415013313293	1.000079870223999
5	64.65131092071533	movie	1		245	3.0	2.5	/experiments/knapen_AOT/AOT_stimuli/rescaled_final/0022_fw.mp4	0.0	107.02423000335693	2.4920520782470703
5	65.02663588523865	pulse	1	t		3.0	2.5	/experiments/knapen_AOT/AOT_stimuli/rescaled_final/0022_fw.mp4	0.0	107.39955496788025	
5	66.626797914505	pulse	1	t		3.0	2.5	/experiments/knapen_AOT/AOT_stimuli/rescaled_final/0022_fw.mp4	0.0	108.9997169971466	
5	67.1433629989624	fix_post	2		12	3.0	2.5	/experiments/knapen_AOT/AOT_stimuli/rescaled_final/0022_fw.mp4	0.0	109.516282081604	0.10001897811889648
6	67.2433819770813	fix_pre	0		119	4.0	2.5	/experiments/knapen_AOT/AOT_stimuli/rescaled_final/1440_fw.mp4	0.0	109.6163010597229	0.9918410778045654
6	68.2269639968872	pulse	0	t		4.0	2.5	/experiments/knapen_AOT/AOT_stimuli/rescaled_final/1440_fw.mp4	0.0	110.59988307952881	
6	68.23522305488586	movie	1		244	4.0	2.5	/experiments/knapen_AOT/AOT_stimuli/rescaled_final/1440_fw.mp4	0.0	110.60814213752747	2.508641004562378
6	69.82757210731506	pulse	1	t		4.0	2.5	/experiments/knapen_AOT/AOT_stimuli/rescaled_final/1440_fw.mp4	0.0	112.20049118995667	
6	70.74386405944824	fix_post	2		12	4.0	2.5	/experiments/knapen_AOT/AOT_stimuli/rescaled_final/1440_fw.mp4	0.0	113.11678314208984	0.1000819206237793
7	70.84394598007202	fix_pre	0		120	5.0	2.5	/experiments/knapen_AOT/AOT_stimuli/rescaled_final/1432_fw.mp4	0.0	113.21686506271362	1.0001530647277832
7	71.4275279045105	pulse	0	t		5.0	2.5	/experiments/knapen_AOT/AOT_stimuli/rescaled_final/1432_fw.mp4	0.0	113.8004469871521	
7	71.8440990447998	movie	1		243	5.0	2.5	/experiments/knapen_AOT/AOT_stimuli/rescaled_final/1432_fw.mp4	0.0	114.2170181274414	2.500509023666382
7	73.02786993980408	pulse	1	t		5.0	2.5	/experiments/knapen_AOT/AOT_stimuli/rescaled_final/1432_fw.mp4	0.0	115.40078902244568	
7	74.34460806846619	fix_post	2		12	5.0	2.5	/experiments/knapen_AOT/AOT_stimuli/rescaled_final/1432_fw.mp4	0.0	116.71752715110779	0.09987592697143555
8	74.44448399543762	fix_pre	0		120	6.0	2.5	/experiments/knapen_AOT/AOT_stimuli/rescaled_final/0611_fw.mp4	0.0	116.81740307807922	1.0000770092010498
8	74.62798404693604	pulse	0	t		6.0	2.5	/experiments/knapen_AOT/AOT_stimuli/rescaled_final/0611_fw.mp4	0.0	117.00090312957764	
8	75.44456100463867	movie	1		242	6.0	2.5	/experiments/knapen_AOT/AOT_stimuli/rescaled_final/0611_fw.mp4	0.0	117.81748008728027	2.5005950927734375
8	76.2282509803772	pulse	1	t		6.0	2.5	/experiments/knapen_AOT/AOT_stimuli/rescaled_final/0611_fw.mp4	0.0	118.6011700630188	
8	77.82825994491577	pulse	1	t		6.0	2.5	/experiments/knapen_AOT/AOT_stimuli/rescaled_final/0611_fw.mp4	0.0	120.20117902755737	
8	77.94515609741211	fix_post	2		12	6.0	2.5	/experiments/knapen_AOT/AOT_stimuli/rescaled_final/0611_fw.mp4	0.0	120.31807518005371	0.09984683990478516
9	78.0450029373169	fix_pre	0		120	7.0	2.5	blank	1.0	120.4179220199585	1.0001261234283447
9	79.04512906074524	movie	1		299	7.0	2.5	blank	1.0	121.41804814338684	2.4920949935913086
9	79.42870903015137	pulse	1	t		7.0	2.5	blank	1.0	121.80162811279297	
9	81.02886891365051	pulse	1	t		7.0	2.5	blank	1.0	123.40178799629211	
9	81.53722405433655	fix_post	2		12	7.0	2.5	blank	1.0	123.91014313697815	0.09998583793640137
10	81.63720989227295	fix_pre	0		120	8.0	2.5	/experiments/knapen_AOT/AOT_stimuli/rescaled_final/0293_fw.mp4	0.0	124.01012897491455	1.0001730918884277
10	82.62914896011353	pulse	0	t		8.0	2.5	/experiments/knapen_AOT/AOT_stimuli/rescaled_final/0293_fw.mp4	0.0	125.00206804275513	
10	82.63738298416138	movie	1		242	8.0	2.5	/experiments/knapen_AOT/AOT_stimuli/rescaled_final/0293_fw.mp4	0.0	125.01030206680298	2.5339109897613525
10	84.23047494888306	pulse	1	t		8.0	2.5	/experiments/knapen_AOT/AOT_stimuli/rescaled_final/0293_fw.mp4	0.0	126.60339403152466	
10	85.17129397392273	fix_post	2		9	8.0	2.5	/experiments/knapen_AOT/AOT_stimuli/rescaled_final/0293_fw.mp4	0.0	127.54421305656433	0.07476305961608887
11	85.24605703353882	fix_pre	0		120	9.0	2.5	/experiments/knapen_AOT/AOT_stimuli/rescaled_final/1948_rv.mp4	0.0	127.61897611618042	1.0001518726348877
11	85.82975196838379	pulse	0	t		9.0	2.5	/experiments/knapen_AOT/AOT_stimuli/rescaled_final/1948_rv.mp4	0.0	128.2026710510254	
11	86.2462089061737	movie	1		243	9.0	2.5	/experiments/knapen_AOT/AOT_stimuli/rescaled_final/1948_rv.mp4	0.0	128.6191279888153	2.500559091567993
11	87.430016040802	pulse	1	t		9.0	2.5	/experiments/knapen_AOT/AOT_stimuli/rescaled_final/1948_rv.mp4	0.0	129.8029351234436	
11	88.7467679977417	fix_post	2		12	9.0	2.5	/experiments/knapen_AOT/AOT_stimuli/rescaled_final/1948_rv.mp4	0.0	131.1196870803833	0.09982800483703613
12	88.84659600257874	fix_pre	0		120	10.0	2.5	/experiments/knapen_AOT/AOT_stimuli/rescaled_final/1751_fw.mp4	0.0	131.21951508522034	1.0001189708709717
12	89.03009510040283	pulse	0	t		10.0	2.5	/experiments/knapen_AOT/AOT_stimuli/rescaled_final/1751_fw.mp4	0.0	131.40301418304443	
12	89.8467149734497	movie	1		242	10.0	2.5	/experiments/knapen_AOT/AOT_stimuli/rescaled_final/1751_fw.mp4	0.0	132.2196340560913	2.5005381107330322
12	90.63046097755432	pulse	1	t		10.0	2.5	/experiments/knapen_AOT/AOT_stimuli/rescaled_final/1751_fw.mp4	0.0	133.00338006019592	
12	92.23173308372498	pulse	1	t		10.0	2.5	/experiments/knapen_AOT/AOT_stimuli/rescaled_final/1751_fw.mp4	0.0	134.60465216636658	
12	92.34725308418274	fix_post	2		12	10.0	2.5	/experiments/knapen_AOT/AOT_stimuli/rescaled_final/1751_fw.mp4	0.0	134.72017216682434	0.09990882873535156
13	92.44716191291809	fix_pre	0		119	11.0	2.5	/experiments/knapen_AOT/AOT_stimuli/rescaled_final/0228_fw.mp4	0.0	134.8200809955597	0.9917821884155273
13	93.43894410133362	movie	1		242	11.0	2.5	/experiments/knapen_AOT/AOT_stimuli/rescaled_final/0228_fw.mp4	0.0	135.81186318397522	2.500562906265259
13	93.83091402053833	pulse	1	t		11.0	2.5	/experiments/knapen_AOT/AOT_stimuli/rescaled_final/0228_fw.mp4	0.0	136.20383310317993	
13	95.43101501464844	pulse	1	t		11.0	2.5	/experiments/knapen_AOT/AOT_stimuli/rescaled_final/0228_fw.mp4	0.0	137.80393409729004	
13	95.93950700759888	fix_post	2		12	11.0	2.5	/experiments/knapen_AOT/AOT_stimuli/rescaled_final/0228_fw.mp4	0.0	138.31242609024048	0.09982800483703613
14	96.03933501243591	fix_pre	0		120	12.0	2.5	/experiments/knapen_AOT/AOT_stimuli/rescaled_final/0226_fw.mp4	0.0	138.41225409507751	1.0001299381256104
14	97.03144598007202	pulse	0	t		12.0	2.5	/experiments/knapen_AOT/AOT_stimuli/rescaled_final/0226_fw.mp4	0.0	139.40436506271362	
14	97.03946495056152	movie	1		244	12.0	2.5	/experiments/knapen_AOT/AOT_stimuli/rescaled_final/0226_fw.mp4	0.0	139.41238403320312	2.5087900161743164
14	98.6362190246582	pulse	1	t		12.0	2.5	/experiments/knapen_AOT/AOT_stimuli/rescaled_final/0226_fw.mp4	0.0	141.0091381072998	
14	99.54825496673584	fix_post	2		12	12.0	2.5	/experiments/knapen_AOT/AOT_stimuli/rescaled_final/0226_fw.mp4	0.0	141.92117404937744	0.0999441146850586
15	99.6481990814209	fix_pre	0		120	13.0	2.5	/experiments/knapen_AOT/AOT_stimuli/rescaled_final/1403_rv.mp4	0.0	142.0211181640625	1.0001459121704102
15	100.23185205459595	pulse	0	t		13.0	2.5	/experiments/knapen_AOT/AOT_stimuli/rescaled_final/1403_rv.mp4	0.0	142.60477113723755	
15	100.64834499359131	movie	1		243	13.0	2.5	/experiments/knapen_AOT/AOT_stimuli/rescaled_final/1403_rv.mp4	0.0	143.0212640762329	2.500523090362549
15	101.82836508750916	pulse	1	t		13.0	2.5	/experiments/knapen_AOT/AOT_stimuli/rescaled_final/1403_rv.mp4	0.0	144.20128417015076	
15	103.14886808395386	fix_post	2		12	13.0	2.5	/experiments/knapen_AOT/AOT_stimuli/rescaled_final/1403_rv.mp4	0.0	145.52178716659546	0.09990096092224121
16	103.2487690448761	fix_pre	0		120	14.0	2.5	blank	1.0	145.6216881275177	1.0000760555267334
16	103.43227505683899	pulse	0	t		14.0	2.5	blank	1.0	145.8051941394806	
16	104.24884510040283	movie	1		300	14.0	2.5	blank	1.0	146.62176418304443	2.5004119873046875
16	105.03266096115112	pulse	1	t		14.0	2.5	blank	1.0	147.40558004379272	
16	106.63286399841309	pulse	1	t		14.0	2.5	blank	1.0	149.0057830810547	
16	106.74925708770752	fix_post	2		12	14.0	2.5	blank	1.0	149.12217617034912	0.10003995895385742
17	106.84929704666138	fix_pre	0		120	15.0	2.5	/experiments/knapen_AOT/AOT_stimuli/rescaled_final/0931_rv.mp4	0.0	149.22221612930298	1.0001039505004883
17	107.84940099716187	movie	1		242	15.0	2.5	/experiments/knapen_AOT/AOT_stimuli/rescaled_final/0931_rv.mp4	0.0	150.22232007980347	2.492285966873169
17	108.23372197151184	pulse	1	t		15.0	2.5	/experiments/knapen_AOT/AOT_stimuli/rescaled_final/0931_rv.mp4	0.0	150.60664105415344	
17	109.83326292037964	pulse	1	t		15.0	2.5	/experiments/knapen_AOT/AOT_stimuli/rescaled_final/0931_rv.mp4	0.0	152.20618200302124	
17	110.34168696403503	fix_post	2		12	15.0	2.5	/experiments/knapen_AOT/AOT_stimuli/rescaled_final/0931_rv.mp4	0.0	152.71460604667664	0.09974408149719238
18	110.44143104553223	fix_pre	0		120	16.0	2.5	/experiments/knapen_AOT/AOT_stimuli/rescaled_final/1299_rv.mp4	0.0	152.81435012817383	1.0001649856567383
18	111.43360590934753	pulse	0	t		16.0	2.5	/experiments/knapen_AOT/AOT_stimuli/rescaled_final/1299_rv.mp4	0.0	153.80652499198914	
18	111.44159603118896	movie	1		243	16.0	2.5	/experiments/knapen_AOT/AOT_stimuli/rescaled_final/1299_rv.mp4	0.0	153.81451511383057	2.508769989013672
18	113.03430199623108	pulse	1	t		16.0	2.5	/experiments/knapen_AOT/AOT_stimuli/rescaled_final/1299_rv.mp4	0.0	155.40722107887268	
18	113.95036602020264	fix_post	2		12	16.0	2.5	/experiments/knapen_AOT/AOT_stimuli/rescaled_final/1299_rv.mp4	0.0	156.32328510284424	0.09999799728393555
19	114.05036401748657	fix_pre	0		120	17.0	2.5	/experiments/knapen_AOT/AOT_stimuli/rescaled_final/1661_fw.mp4	0.0	156.42328310012817	1.0001308917999268
19	114.63398289680481	pulse	0	t		17.0	2.5	/experiments/knapen_AOT/AOT_stimuli/rescaled_final/1661_fw.mp4	0.0	157.0069019794464	
19	115.0504949092865	movie	1		243	17.0	2.5	/experiments/knapen_AOT/AOT_stimuli/rescaled_final/1661_fw.mp4	0.0	157.4234139919281	2.5003740787506104
19	116.23432397842407	pulse	1	t		17.0	2.5	/experiments/knapen_AOT/AOT_stimuli/rescaled_final/1661_fw.mp4	0.0	158.60724306106567	
19	117.55086898803711	fix_post	2		12	17.0	2.5	/experiments/knapen_AOT/AOT_stimuli/rescaled_final/1661_fw.mp4	0.0	159.9237880706787	0.09998607635498047
20	117.65085506439209	fix_pre	0		120	18.0	2.5	/experiments/knapen_AOT/AOT_stimuli/rescaled_final/0424_rv.mp4	0.0	160.0237741470337	1.0001518726348877
20	117.83449292182922	pulse	0	t		18.0	2.5	/experiments/knapen_AOT/AOT_stimuli/rescaled_final/0424_rv.mp4	0.0	160.20741200447083	
20	118.65100693702698	movie	1		243	18.0	2.5	/experiments/knapen_AOT/AOT_stimuli/rescaled_final/0424_rv.mp4	0.0	161.02392601966858	2.500631093978882
20	119.42731189727783	pulse	1	t		18.0	2.5	/experiments/knapen_AOT/AOT_stimuli/rescaled_final/0424_rv.mp4	0.0	161.80023097991943	
20	121.03494501113892	pulse	1	t		18.0	2.5	/experiments/knapen_AOT/AOT_stimuli/rescaled_final/0424_rv.mp4	0.0	163.40786409378052	
20	121.15163803100586	fix_post	2		12	18.0	2.5	/experiments/knapen_AOT/AOT_stimuli/rescaled_final/0424_rv.mp4	0.0	163.52455711364746	0.09983491897583008
21	121.25147294998169	fix_pre	0		120	19.0	2.5	blank	1.0	163.6243920326233	1.0001161098480225
21	122.25158905982971	movie	1		299	19.0	2.5	blank	1.0	164.6245081424713	2.4920380115509033
21	122.62763595581055	pulse	1	t		19.0	2.5	blank	1.0	165.00055503845215	
21	124.22777700424194	pulse	1	t		19.0	2.5	blank	1.0	166.60069608688354	
21	124.74362707138062	fix_post	2		12	19.0	2.5	blank	1.0	167.11654615402222	0.10002803802490234
22	124.84365510940552	fix_pre	0		120	20.0	2.5	/experiments/knapen_AOT/AOT_stimuli/rescaled_final/0160_rv.mp4	0.0	167.21657419204712	1.0001118183135986
22	125.82815504074097	pulse	0	t		20.0	2.5	/experiments/knapen_AOT/AOT_stimuli/rescaled_final/0160_rv.mp4	0.0	168.20107412338257	
22	125.84376692771912	movie	1		243	20.0	2.5	/experiments/knapen_AOT/AOT_stimuli/rescaled_final/0160_rv.mp4	0.0	168.21668601036072	2.5087621212005615
22	127.42746710777283	pulse	1	t		20.0	2.5	/experiments/knapen_AOT/AOT_stimuli/rescaled_final/0160_rv.mp4	0.0	169.80038619041443	
22	128.35252904891968	fix_post	2		12	20.0	2.5	/experiments/knapen_AOT/AOT_stimuli/rescaled_final/0160_rv.mp4	0.0	170.72544813156128	0.09998393058776855
23	128.45251297950745	fix_pre	0		120	21.0	2.5	/experiments/knapen_AOT/AOT_stimuli/rescaled_final/1877_rv.mp4	0.0	170.82543206214905	1.0001659393310547
23	129.02788305282593	pulse	0	t		21.0	2.5	/experiments/knapen_AOT/AOT_stimuli/rescaled_final/1877_rv.mp4	0.0	171.40080213546753	
23	129.4526789188385	movie	1		243	21.0	2.5	/experiments/knapen_AOT/AOT_stimuli/rescaled_final/1877_rv.mp4	0.0	171.8255980014801	2.500439167022705
23	130.63240599632263	pulse	1	t		21.0	2.5	/experiments/knapen_AOT/AOT_stimuli/rescaled_final/1877_rv.mp4	0.0	173.00532507896423	
23	131.9531180858612	fix_post	2		12	21.0	2.5	/experiments/knapen_AOT/AOT_stimuli/rescaled_final/1877_rv.mp4	0.0	174.3260371685028	0.09996986389160156
24	132.0530879497528	fix_pre	0		120	22.0	2.5	/experiments/knapen_AOT/AOT_stimuli/rescaled_final/2150_fw.mp4	0.0	174.4260070323944	1.0000829696655273
24	132.2282600402832	pulse	0	t		22.0	2.5	/experiments/knapen_AOT/AOT_stimuli/rescaled_final/2150_fw.mp4	0.0	174.6011791229248	
24	133.05317091941833	movie	1		242	22.0	2.5	/experiments/knapen_AOT/AOT_stimuli/rescaled_final/2150_fw.mp4	0.0	175.42609000205994	2.5005719661712646
24	133.82846307754517	pulse	1	t		22.0	2.5	/experiments/knapen_AOT/AOT_stimuli/rescaled_final/2150_fw.mp4	0.0	176.20138216018677	
24	135.42870998382568	pulse	1	t		22.0	2.5	/experiments/knapen_AOT/AOT_stimuli/rescaled_final/2150_fw.mp4	0.0	177.80162906646729	
24	135.5537428855896	fix_post	2		12	22.0	2.5	/experiments/knapen_AOT/AOT_stimuli/rescaled_final/2150_fw.mp4	0.0	177.9266619682312	0.09986305236816406
25	135.65360593795776	fix_pre	0		119	23.0	2.5	/experiments/knapen_AOT/AOT_stimuli/rescaled_final/1408_rv.mp4	0.0	178.02652502059937	0.9917800426483154
25	136.64538598060608	movie	1		242	23.0	2.5	/experiments/knapen_AOT/AOT_stimuli/rescaled_final/1408_rv.mp4	0.0	179.01830506324768	2.5005290508270264
25	137.02959990501404	pulse	1	t		23.0	2.5	/experiments/knapen_AOT/AOT_stimuli/rescaled_final/1408_rv.mp4	0.0	179.40251898765564	
25	138.62919092178345	pulse	1	t		23.0	2.5	/experiments/knapen_AOT/AOT_stimuli/rescaled_final/1408_rv.mp4	0.0	181.00211000442505	
25	139.1459150314331	fix_post	2		12	23.0	2.5	/experiments/knapen_AOT/AOT_stimuli/rescaled_final/1408_rv.mp4	0.0	181.5188341140747	0.09983396530151367
26	139.24574899673462	fix_pre	0		119	24.0	2.5	/experiments/knapen_AOT/AOT_stimuli/rescaled_final/0881_rv.mp4	0.0	181.61866807937622	0.9918320178985596
26	140.2294659614563	pulse	0	t		24.0	2.5	/experiments/knapen_AOT/AOT_stimuli/rescaled_final/0881_rv.mp4	0.0	182.6023850440979	
26	140.23758101463318	movie	1		246	24.0	2.5	/experiments/knapen_AOT/AOT_stimuli/rescaled_final/0881_rv.mp4	0.0	182.61050009727478	2.508702039718628
26	141.83015203475952	pulse	1	t		24.0	2.5	/experiments/knapen_AOT/AOT_stimuli/rescaled_final/0881_rv.mp4	0.0	184.20307111740112	
26	142.7462830543518	fix_post	2		12	24.0	2.5	/experiments/knapen_AOT/AOT_stimuli/rescaled_final/0881_rv.mp4	0.0	185.1192021369934	0.10002994537353516
27	142.84631299972534	fix_pre	0		120	25.0	2.5	/experiments/knapen_AOT/AOT_stimuli/rescaled_final/1029_fw.mp4	0.0	185.21923208236694	1.000166893005371
27	143.42989897727966	pulse	0	t		25.0	2.5	/experiments/knapen_AOT/AOT_stimuli/rescaled_final/1029_fw.mp4	0.0	185.80281805992126	
27	143.8464798927307	movie	1		242	25.0	2.5	/experiments/knapen_AOT/AOT_stimuli/rescaled_final/1029_fw.mp4	0.0	186.21939897537231	2.500429153442383
27	145.03022289276123	pulse	1	t		25.0	2.5	/experiments/knapen_AOT/AOT_stimuli/rescaled_final/1029_fw.mp4	0.0	187.40314197540283	
27	146.3469090461731	fix_post	2		12	25.0	2.5	/experiments/knapen_AOT/AOT_stimuli/rescaled_final/1029_fw.mp4	0.0	188.7198281288147	0.09992504119873047
28	146.44683408737183	fix_pre	0		120	26.0	2.5	/experiments/knapen_AOT/AOT_stimuli/rescaled_final/1928_fw.mp4	0.0	188.81975317001343	1.0001599788665771
28	146.63046503067017	pulse	0	t		26.0	2.5	/experiments/knapen_AOT/AOT_stimuli/rescaled_final/1928_fw.mp4	0.0	189.00338411331177	
28	147.4469940662384	movie	1		243	26.0	2.5	/experiments/knapen_AOT/AOT_stimuli/rescaled_final/1928_fw.mp4	0.0	189.81991314888	2.5005648136138916
28	148.23059511184692	pulse	1	t		26.0	2.5	/experiments/knapen_AOT/AOT_stimuli/rescaled_final/1928_fw.mp4	0.0	190.60351419448853	
28	149.8306200504303	pulse	1	t		26.0	2.5	/experiments/knapen_AOT/AOT_stimuli/rescaled_final/1928_fw.mp4	0.0	192.2035391330719	
28	149.9475588798523	fix_post	2		12	26.0	2.5	/experiments/knapen_AOT/AOT_stimuli/rescaled_final/1928_fw.mp4	0.0	192.3204779624939	0.09983301162719727
29	150.0473918914795	fix_pre	0		120	27.0	2.5	blank	1.0	192.4203109741211	1.0001401901245117
29	151.047532081604	movie	1		296	27.0	2.5	blank	1.0	193.4204511642456	2.492029905319214
29	151.43111491203308	pulse	1	t		27.0	2.5	blank	1.0	193.80403399467468	
29	153.03142499923706	pulse	1	t		27.0	2.5	blank	1.0	195.40434408187866	
29	153.53956198692322	fix_post	2		12	27.0	2.5	blank	1.0	195.91248106956482	0.10010910034179688
30	153.63967108726501	fix_pre	0		120	28.0	2.5	/experiments/knapen_AOT/AOT_stimuli/rescaled_final/0331_fw.mp4	0.0	196.01259016990662	1.0000288486480713
30	154.6315701007843	pulse	0	t		28.0	2.5	/experiments/knapen_AOT/AOT_stimuli/rescaled_final/0331_fw.mp4	0.0	197.0044891834259	
30	154.6396999359131	movie	1		243	28.0	2.5	/experiments/knapen_AOT/AOT_stimuli/rescaled_final/0331_fw.mp4	0.0	197.0126190185547	2.5087671279907227
30	156.23244190216064	pulse	1	t		28.0	2.5	/experiments/knapen_AOT/AOT_stimuli/rescaled_final/0331_fw.mp4	0.0	198.60536098480225	
30	157.1484670639038	fix_post	2		12	28.0	2.5	/experiments/knapen_AOT/AOT_stimuli/rescaled_final/0331_fw.mp4	0.0	199.5213861465454	0.09998083114624023
31	157.24844789505005	fix_pre	0		120	29.0	2.5	/experiments/knapen_AOT/AOT_stimuli/rescaled_final/1161_fw.mp4	0.0	199.62136697769165	1.0001580715179443
31	157.83202004432678	pulse	0	t		29.0	2.5	/experiments/knapen_AOT/AOT_stimuli/rescaled_final/1161_fw.mp4	0.0	200.20493912696838	
31	158.248605966568	movie	1		242	29.0	2.5	/experiments/knapen_AOT/AOT_stimuli/rescaled_final/1161_fw.mp4	0.0	200.6215250492096	2.5005199909210205
31	159.43249201774597	pulse	1	t		29.0	2.5	/experiments/knapen_AOT/AOT_stimuli/rescaled_final/1161_fw.mp4	0.0	201.80541110038757	
31	160.749125957489	fix_post	2		12	29.0	2.5	/experiments/knapen_AOT/AOT_stimuli/rescaled_final/1161_fw.mp4	0.0	203.12204504013062	0.09986495971679688
32	160.8489909172058	fix_pre	0		120	30.0	2.5	/experiments/knapen_AOT/AOT_stimuli/rescaled_final/0820_rv.mp4	0.0	203.2219099998474	1.0001239776611328
32	161.03255105018616	pulse	0	t		30.0	2.5	/experiments/knapen_AOT/AOT_stimuli/rescaled_final/0820_rv.mp4	0.0	203.40547013282776	
32	161.84911489486694	movie	1		242	30.0	2.5	/experiments/knapen_AOT/AOT_stimuli/rescaled_final/0820_rv.mp4	0.0	204.22203397750854	2.5005640983581543
32	162.6328001022339	pulse	1	t		30.0	2.5	/experiments/knapen_AOT/AOT_stimuli/rescaled_final/0820_rv.mp4	0.0	205.0057191848755	
32	164.23316407203674	pulse	1	t		30.0	2.5	/experiments/knapen_AOT/AOT_stimuli/rescaled_final/0820_rv.mp4	0.0	206.60608315467834	
32	164.3496789932251	fix_post	2		12	30.0	2.5	/experiments/knapen_AOT/AOT_stimuli/rescaled_final/0820_rv.mp4	0.0	206.7225980758667	0.09983110427856445
33	164.44951009750366	fix_pre	0		120	31.0	2.5	/experiments/knapen_AOT/AOT_stimuli/rescaled_final/0021_rv.mp4	0.0	206.82242918014526	1.0001699924468994
33	165.44968008995056	movie	1		242	31.0	2.5	/experiments/knapen_AOT/AOT_stimuli/rescaled_final/0021_rv.mp4	0.0	207.82259917259216	2.4921529293060303
33	165.8348081111908	pulse	1	t		31.0	2.5	/experiments/knapen_AOT/AOT_stimuli/rescaled_final/0021_rv.mp4	0.0	208.2077271938324	
33	167.43360996246338	pulse	1	t		31.0	2.5	/experiments/knapen_AOT/AOT_stimuli/rescaled_final/0021_rv.mp4	0.0	209.80652904510498	
33	167.9418330192566	fix_post	2		12	31.0	2.5	/experiments/knapen_AOT/AOT_stimuli/rescaled_final/0021_rv.mp4	0.0	210.3147521018982	0.09989094734191895
34	168.0417239665985	fix_pre	0		120	32.0	2.5	/experiments/knapen_AOT/AOT_stimuli/rescaled_final/1504_fw.mp4	0.0	210.4146430492401	1.000128984451294
34	169.03373908996582	pulse	0	t		32.0	2.5	/experiments/knapen_AOT/AOT_stimuli/rescaled_final/1504_fw.mp4	0.0	211.40665817260742	
34	169.0418529510498	movie	1		245	32.0	2.5	/experiments/knapen_AOT/AOT_stimuli/rescaled_final/1504_fw.mp4	0.0	211.4147720336914	2.5087180137634277
34	170.6344609260559	pulse	1	t		32.0	2.5	/experiments/knapen_AOT/AOT_stimuli/rescaled_final/1504_fw.mp4	0.0	213.0073800086975	
34	171.55057096481323	fix_post	2		12	32.0	2.5	/experiments/knapen_AOT/AOT_stimuli/rescaled_final/1504_fw.mp4	0.0	213.92349004745483	0.10003995895385742
35	171.6506109237671	fix_pre	0		120	33.0	2.5	blank	1.0	214.0235300064087	1.000108003616333
35	172.23430109024048	pulse	0	t		33.0	2.5	blank	1.0	214.60722017288208	
35	172.65071892738342	movie	1		300	33.0	2.5	blank	1.0	215.02363801002502	2.5004611015319824
35	173.82695198059082	pulse	1	t		33.0	2.5	blank	1.0	216.19987106323242	
35	175.1511800289154	fix_post	2		12	33.0	2.5	blank	1.0	217.524099111557	0.1000070571899414
36	175.25118708610535	fix_pre	0		120	34.0	2.5	/experiments/knapen_AOT/AOT_stimuli/rescaled_final/1161_fw.mp4	0.0	217.62410616874695	1.0000698566436768
36	175.42725610733032	pulse	0	t		34.0	2.5	/experiments/knapen_AOT/AOT_stimuli/rescaled_final/1161_fw.mp4	0.0	217.80017518997192	
36	176.25125694274902	movie	1		242	34.0	2.5	/experiments/knapen_AOT/AOT_stimuli/rescaled_final/1161_fw.mp4	0.0	218.62417602539062	2.5004451274871826
36	177.0275309085846	pulse	1	t		34.0	2.5	/experiments/knapen_AOT/AOT_stimuli/rescaled_final/1161_fw.mp4	0.0	219.4004499912262	
36	178.6348819732666	pulse	1	t		34.0	2.5	/experiments/knapen_AOT/AOT_stimuli/rescaled_final/1161_fw.mp4	0.0	221.0078010559082	
36	178.7517020702362	fix_post	2		12	34.0	2.5	/experiments/knapen_AOT/AOT_stimuli/rescaled_final/1161_fw.mp4	0.0	221.1246211528778	0.09999489784240723
37	178.8516969680786	fix_pre	0		119	35.0	2.5	/experiments/knapen_AOT/AOT_stimuli/rescaled_final/0642_fw.mp4	0.0	221.22461605072021	0.9918379783630371
37	179.84353494644165	movie	1		242	35.0	2.5	/experiments/knapen_AOT/AOT_stimuli/rescaled_final/0642_fw.mp4	0.0	222.21645402908325	2.500460147857666
37	180.22767090797424	pulse	1	t		35.0	2.5	/experiments/knapen_AOT/AOT_stimuli/rescaled_final/0642_fw.mp4	0.0	222.60058999061584	
37	181.82731008529663	pulse	1	t		35.0	2.5	/experiments/knapen_AOT/AOT_stimuli/rescaled_final/0642_fw.mp4	0.0	224.20022916793823	
37	182.34399509429932	fix_post	2		12	35.0	2.5	/experiments/knapen_AOT/AOT_stimuli/rescaled_final/0642_fw.mp4	0.0	224.71691417694092	0.0998849868774414
38	182.44388008117676	fix_pre	0		119	36.0	2.5	/experiments/knapen_AOT/AOT_stimuli/rescaled_final/1519_rv.mp4	0.0	224.81679916381836	0.9918158054351807
38	183.427668094635	pulse	0	t		36.0	2.5	/experiments/knapen_AOT/AOT_stimuli/rescaled_final/1519_rv.mp4	0.0	225.8005871772766	
38	183.43569588661194	movie	1		243	36.0	2.5	/experiments/knapen_AOT/AOT_stimuli/rescaled_final/1519_rv.mp4	0.0	225.80861496925354	2.508831024169922
38	185.02899503707886	pulse	1	t		36.0	2.5	/experiments/knapen_AOT/AOT_stimuli/rescaled_final/1519_rv.mp4	0.0	227.40191411972046	
38	185.94452691078186	fix_post	2		12	36.0	2.5	/experiments/knapen_AOT/AOT_stimuli/rescaled_final/1519_rv.mp4	0.0	228.31744599342346	0.0999140739440918
39	186.04444098472595	fix_pre	0		120	37.0	2.5	/experiments/knapen_AOT/AOT_stimuli/rescaled_final/1432_rv.mp4	0.0	228.41736006736755	1.000148057937622
39	186.62796688079834	pulse	0	t		37.0	2.5	/experiments/knapen_AOT/AOT_stimuli/rescaled_final/1432_rv.mp4	0.0	229.00088596343994	
39	187.04458904266357	movie	1		243	37.0	2.5	/experiments/knapen_AOT/AOT_stimuli/rescaled_final/1432_rv.mp4	0.0	229.41750812530518	2.5004489421844482
39	188.22834491729736	pulse	1	t		37.0	2.5	/experiments/knapen_AOT/AOT_stimuli/rescaled_final/1432_rv.mp4	0.0	230.60126399993896	
39	189.54503798484802	fix_post	2		12	37.0	2.5	/experiments/knapen_AOT/AOT_stimuli/rescaled_final/1432_rv.mp4	0.0	231.91795706748962	0.09993505477905273
40	189.64497303962708	fix_pre	0		120	38.0	2.5	/experiments/knapen_AOT/AOT_stimuli/rescaled_final/1572_rv.mp4	0.0	232.01789212226868	1.0001449584960938
40	189.82846903800964	pulse	0	t		38.0	2.5	/experiments/knapen_AOT/AOT_stimuli/rescaled_final/1572_rv.mp4	0.0	232.20138812065125	
40	190.64511799812317	movie	1		243	38.0	2.5	/experiments/knapen_AOT/AOT_stimuli/rescaled_final/1572_rv.mp4	0.0	233.01803708076477	2.500530958175659
40	191.42882108688354	pulse	1	t		38.0	2.5	/experiments/knapen_AOT/AOT_stimuli/rescaled_final/1572_rv.mp4	0.0	233.80174016952515	
40	193.0287868976593	pulse	1	t		38.0	2.5	/experiments/knapen_AOT/AOT_stimuli/rescaled_final/1572_rv.mp4	0.0	235.4017059803009	
40	193.14564895629883	fix_post	2		12	38.0	2.5	/experiments/knapen_AOT/AOT_stimuli/rescaled_final/1572_rv.mp4	0.0	235.51856803894043	0.09987592697143555
41	193.24552488327026	fix_pre	0		120	39.0	2.5	/experiments/knapen_AOT/AOT_stimuli/rescaled_final/1770_rv.mp4	0.0	235.61844396591187	1.0000910758972168
41	194.24561595916748	movie	1		241	39.0	2.5	/experiments/knapen_AOT/AOT_stimuli/rescaled_final/1770_rv.mp4	0.0	236.61853504180908	2.4922211170196533
41	194.62973403930664	pulse	1	t		39.0	2.5	/experiments/knapen_AOT/AOT_stimuli/rescaled_final/1770_rv.mp4	0.0	237.00265312194824	
41	196.2295060157776	pulse	1	t		39.0	2.5	/experiments/knapen_AOT/AOT_stimuli/rescaled_final/1770_rv.mp4	0.0	238.6024250984192	
41	196.73783707618713	fix_post	2		12	39.0	2.5	/experiments/knapen_AOT/AOT_stimuli/rescaled_final/1770_rv.mp4	0.0	239.11075615882874	0.09991192817687988
42	196.837749004364	fix_pre	0		120	40.0	2.5	/experiments/knapen_AOT/AOT_stimuli/rescaled_final/0890_rv.mp4	0.0	239.21066808700562	1.0000879764556885
42	197.82969498634338	pulse	0	t		40.0	2.5	/experiments/knapen_AOT/AOT_stimuli/rescaled_final/0890_rv.mp4	0.0	240.20261406898499	
42	197.8378369808197	movie	1		244	40.0	2.5	/experiments/knapen_AOT/AOT_stimuli/rescaled_final/0890_rv.mp4	0.0	240.2107560634613	2.5087740421295166
42	199.43419098854065	pulse	1	t		40.0	2.5	/experiments/knapen_AOT/AOT_stimuli/rescaled_final/0890_rv.mp4	0.0	241.80711007118225	
42	200.34661102294922	fix_post	2		12	40.0	2.5	/experiments/knapen_AOT/AOT_stimuli/rescaled_final/0890_rv.mp4	0.0	242.71953010559082	0.09998106956481934
43	200.44659209251404	fix_pre	0		120	41.0	2.5	blank	1.0	242.81951117515564	1.0001277923583984
43	201.03016996383667	pulse	0	t		41.0	2.5	blank	1.0	243.40308904647827	
43	201.44671988487244	movie	1		300	41.0	2.5	blank	1.0	243.81963896751404	2.5003809928894043
43	202.63047194480896	pulse	1	t		41.0	2.5	blank	1.0	245.00339102745056	
43	203.94710087776184	fix_post	2		12	41.0	2.5	blank	1.0	246.32001996040344	0.10003209114074707
44	204.0471329689026	fix_pre	0		120	42.0	2.5	/experiments/knapen_AOT/AOT_stimuli/rescaled_final/1172_fw.mp4	0.0	246.4200520515442	1.0001330375671387
44	204.23071098327637	pulse	0	t		42.0	2.5	/experiments/knapen_AOT/AOT_stimuli/rescaled_final/1172_fw.mp4	0.0	246.60363006591797	
44	205.04726600646973	movie	1		242	42.0	2.5	/experiments/knapen_AOT/AOT_stimuli/rescaled_final/1172_fw.mp4	0.0	247.42018508911133	2.5005838871002197
44	205.830983877182	pulse	1	t		42.0	2.5	/experiments/knapen_AOT/AOT_stimuli/rescaled_final/1172_fw.mp4	0.0	248.2039029598236	
44	207.4318220615387	pulse	1	t		42.0	2.5	/experiments/knapen_AOT/AOT_stimuli/rescaled_final/1172_fw.mp4	0.0	249.8047411441803	
44	207.54784989356995	fix_post	2		12	42.0	2.5	/experiments/knapen_AOT/AOT_stimuli/rescaled_final/1172_fw.mp4	0.0	249.92076897621155	0.09984016418457031
45	207.64769005775452	fix_pre	0		119	43.0	2.5	/experiments/knapen_AOT/AOT_stimuli/rescaled_final/1858_fw.mp4	0.0	250.02060914039612	0.9917960166931152
45	208.63948607444763	movie	1		242	43.0	2.5	/experiments/knapen_AOT/AOT_stimuli/rescaled_final/1858_fw.mp4	0.0	251.01240515708923	2.5004279613494873
45	209.0314691066742	pulse	1	t		43.0	2.5	/experiments/knapen_AOT/AOT_stimuli/rescaled_final/1858_fw.mp4	0.0	251.4043881893158	
45	210.63172793388367	pulse	1	t		43.0	2.5	/experiments/knapen_AOT/AOT_stimuli/rescaled_final/1858_fw.mp4	0.0	253.00464701652527	
45	211.13991403579712	fix_post	2		12	43.0	2.5	/experiments/knapen_AOT/AOT_stimuli/rescaled_final/1858_fw.mp4	0.0	253.51283311843872	0.09996795654296875
46	211.2398819923401	fix_pre	0		120	44.0	2.5	/experiments/knapen_AOT/AOT_stimuli/rescaled_final/0933_fw.mp4	0.0	253.6128010749817	1.0000920295715332
46	212.231929063797	pulse	0	t		44.0	2.5	/experiments/knapen_AOT/AOT_stimuli/rescaled_final/0933_fw.mp4	0.0	254.6048481464386	
46	212.23997402191162	movie	1		244	44.0	2.5	/experiments/knapen_AOT/AOT_stimuli/rescaled_final/0933_fw.mp4	0.0	254.61289310455322	2.5088679790496826
46	213.83296489715576	pulse	1	t		44.0	2.5	/experiments/knapen_AOT/AOT_stimuli/rescaled_final/0933_fw.mp4	0.0	256.20588397979736	
46	214.7488420009613	fix_post	2		12	44.0	2.5	/experiments/knapen_AOT/AOT_stimuli/rescaled_final/0933_fw.mp4	0.0	257.1217610836029	0.09989190101623535
47	214.84873390197754	fix_pre	0		120	45.0	2.5	/experiments/knapen_AOT/AOT_stimuli/rescaled_final/1521_rv.mp4	0.0	257.22165298461914	1.0001380443572998
47	215.4323570728302	pulse	0	t		45.0	2.5	/experiments/knapen_AOT/AOT_stimuli/rescaled_final/1521_rv.mp4	0.0	257.8052761554718	
47	215.84887194633484	movie	1		244	45.0	2.5	/experiments/knapen_AOT/AOT_stimuli/rescaled_final/1521_rv.mp4	0.0	258.22179102897644	2.500369071960449
47	217.03263401985168	pulse	1	t		45.0	2.5	/experiments/knapen_AOT/AOT_stimuli/rescaled_final/1521_rv.mp4	0.0	259.4055531024933	
47	218.3492410182953	fix_post	2		12	45.0	2.5	/experiments/knapen_AOT/AOT_stimuli/rescaled_final/1521_rv.mp4	0.0	260.7221601009369	0.09999608993530273
48	218.4492371082306	fix_pre	0		120	46.0	2.5	/experiments/knapen_AOT/AOT_stimuli/rescaled_final/1476_rv.mp4	0.0	260.8221561908722	1.0001599788665771
48	218.6328649520874	pulse	0	t		46.0	2.5	/experiments/knapen_AOT/AOT_stimuli/rescaled_final/1476_rv.mp4	0.0	261.005784034729	
48	219.44939708709717	movie	1		239	46.0	2.5	/experiments/knapen_AOT/AOT_stimuli/rescaled_final/1476_rv.mp4	0.0	261.82231616973877	2.500478982925415
48	220.23299288749695	pulse	1	t		46.0	2.5	/experiments/knapen_AOT/AOT_stimuli/rescaled_final/1476_rv.mp4	0.0	262.60591197013855	
48	221.83337497711182	pulse	1	t		46.0	2.5	/experiments/knapen_AOT/AOT_stimuli/rescaled_final/1476_rv.mp4	0.0	264.2062940597534	
48	221.94987607002258	fix_post	2		12	46.0	2.5	/experiments/knapen_AOT/AOT_stimuli/rescaled_final/1476_rv.mp4	0.0	264.3227951526642	0.09987688064575195
49	222.04975295066833	fix_pre	0		120	47.0	2.5	/experiments/knapen_AOT/AOT_stimuli/rescaled_final/0297_rv.mp4	0.0	264.42267203330994	1.0002009868621826
49	223.04995393753052	movie	1		241	47.0	2.5	/experiments/knapen_AOT/AOT_stimuli/rescaled_final/0297_rv.mp4	0.0	265.4228730201721	2.4920899868011475
49	223.43409895896912	pulse	1	t		47.0	2.5	/experiments/knapen_AOT/AOT_stimuli/rescaled_final/0297_rv.mp4	0.0	265.8070180416107	
49	225.02641606330872	pulse	1	t		47.0	2.5	/experiments/knapen_AOT/AOT_stimuli/rescaled_final/0297_rv.mp4	0.0	267.3993351459503	
49	225.54204392433167	fix_post	2		12	47.0	2.5	/experiments/knapen_AOT/AOT_stimuli/rescaled_final/0297_rv.mp4	0.0	267.91496300697327	0.09992599487304688
50	225.6419699192047	fix_pre	0		120	48.0	2.5	/experiments/knapen_AOT/AOT_stimuli/rescaled_final/1172_fw.mp4	0.0	268.0148890018463	1.0001661777496338
50	226.63402199745178	pulse	0	t		48.0	2.5	/experiments/knapen_AOT/AOT_stimuli/rescaled_final/1172_fw.mp4	0.0	269.0069410800934	
50	226.64213609695435	movie	1		243	48.0	2.5	/experiments/knapen_AOT/AOT_stimuli/rescaled_final/1172_fw.mp4	0.0	269.01505517959595	2.508708953857422
50	228.2384181022644	pulse	1	t		48.0	2.5	/experiments/knapen_AOT/AOT_stimuli/rescaled_final/1172_fw.mp4	0.0	270.611337184906	
50	229.15084505081177	fix_post	2		12	48.0	2.5	/experiments/knapen_AOT/AOT_stimuli/rescaled_final/1172_fw.mp4	0.0	271.52376413345337	0.10001301765441895
51	229.2508580684662	fix_pre	0		120	49.0	2.5	blank	1.0	271.6237771511078	1.0001649856567383
51	229.8270239830017	pulse	0	t		49.0	2.5	blank	1.0	272.1999430656433	
51	230.25102305412292	movie	1		300	49.0	2.5	blank	1.0	272.6239421367645	2.5003349781036377
51	231.42715907096863	pulse	1	t		49.0	2.5	blank	1.0	273.80007815361023	
51	232.75135803222656	fix_post	2		12	49.0	2.5	blank	1.0	275.12427711486816	0.10007286071777344
52	232.85143089294434	fix_pre	0		120	50.0	2.5	/experiments/knapen_AOT/AOT_stimuli/rescaled_final/1872_fw.mp4	0.0	275.22434997558594	1.0000841617584229
52	233.0267140865326	pulse	0	t		50.0	2.5	/experiments/knapen_AOT/AOT_stimuli/rescaled_final/1872_fw.mp4	0.0	275.3996331691742	
52	233.85151505470276	movie	1		242	50.0	2.5	/experiments/knapen_AOT/AOT_stimuli/rescaled_final/1872_fw.mp4	0.0	276.22443413734436	2.500532865524292
52	234.62678909301758	pulse	1	t		50.0	2.5	/experiments/knapen_AOT/AOT_stimuli/rescaled_final/1872_fw.mp4	0.0	276.9997081756592	
52	236.2270839214325	pulse	1	t		50.0	2.5	/experiments/knapen_AOT/AOT_stimuli/rescaled_final/1872_fw.mp4	0.0	278.6000030040741	
52	236.35204792022705	fix_post	2		12	50.0	2.5	/experiments/knapen_AOT/AOT_stimuli/rescaled_final/1872_fw.mp4	0.0	278.72496700286865	0.09992408752441406
53	236.45197200775146	fix_pre	0		120	51.0	2.5	/experiments/knapen_AOT/AOT_stimuli/rescaled_final/0409_rv.mp4	0.0	278.82489109039307	1.0001180171966553
53	237.45209002494812	movie	1		242	51.0	2.5	/experiments/knapen_AOT/AOT_stimuli/rescaled_final/0409_rv.mp4	0.0	279.8250091075897	2.492241859436035
53	237.82736706733704	pulse	1	t		51.0	2.5	/experiments/knapen_AOT/AOT_stimuli/rescaled_final/0409_rv.mp4	0.0	280.20028614997864	
53	239.42767810821533	pulse	1	t		51.0	2.5	/experiments/knapen_AOT/AOT_stimuli/rescaled_final/0409_rv.mp4	0.0	281.80059719085693	
53	239.94433188438416	fix_post	2		12	51.0	2.5	/experiments/knapen_AOT/AOT_stimuli/rescaled_final/0409_rv.mp4	0.0	282.31725096702576	0.09986019134521484
54	240.04419207572937	fix_pre	0		119	52.0	2.5	/experiments/knapen_AOT/AOT_stimuli/rescaled_final/0846_rv.mp4	0.0	282.417111158371	0.9917569160461426
54	241.02782702445984	pulse	0	t		52.0	2.5	/experiments/knapen_AOT/AOT_stimuli/rescaled_final/0846_rv.mp4	0.0	283.40074610710144	
54	241.0359489917755	movie	1		244	52.0	2.5	/experiments/knapen_AOT/AOT_stimuli/rescaled_final/0846_rv.mp4	0.0	283.4088680744171	2.5087969303131104
54	242.62852001190186	pulse	1	t		52.0	2.5	/experiments/knapen_AOT/AOT_stimuli/rescaled_final/0846_rv.mp4	0.0	285.00143909454346	
54	243.54474592208862	fix_post	2		12	52.0	2.5	/experiments/knapen_AOT/AOT_stimuli/rescaled_final/0846_rv.mp4	0.0	285.9176650047302	0.09997916221618652
55	243.6447250843048	fix_pre	0		120	53.0	2.5	/experiments/knapen_AOT/AOT_stimuli/rescaled_final/0778_fw.mp4	0.0	286.0176441669464	1.0001108646392822
55	244.22832202911377	pulse	0	t		53.0	2.5	/experiments/knapen_AOT/AOT_stimuli/rescaled_final/0778_fw.mp4	0.0	286.60124111175537	
55	244.6448359489441	movie	1		244	53.0	2.5	/experiments/knapen_AOT/AOT_stimuli/rescaled_final/0778_fw.mp4	0.0	287.0177550315857	2.500352144241333
55	245.82860898971558	pulse	1	t		53.0	2.5	/experiments/knapen_AOT/AOT_stimuli/rescaled_final/0778_fw.mp4	0.0	288.2015280723572	
55	247.14518809318542	fix_post	2		12	53.0	2.5	/experiments/knapen_AOT/AOT_stimuli/rescaled_final/0778_fw.mp4	0.0	289.518107175827	0.10004782676696777
56	247.2452359199524	fix_pre	0		120	54.0	2.5	blank	1.0	289.618155002594	1.0001649856567383
56	247.42875599861145	pulse	0	t		54.0	2.5	blank	1.0	289.80167508125305	
56	248.24540090560913	movie	1		300	54.0	2.5	blank	1.0	290.61831998825073	2.5003740787506104
56	249.0289568901062	pulse	1	t		54.0	2.5	blank	1.0	291.4018759727478	
56	250.62936210632324	pulse	1	t		54.0	2.5	blank	1.0	293.00228118896484	
56	250.74577498435974	fix_post	2		12	54.0	2.5	blank	1.0	293.11869406700134	0.09995698928833008
57	250.84573197364807	fix_pre	0		120	55.0	2.5	/experiments/knapen_AOT/AOT_stimuli/rescaled_final/0487_rv.mp4	0.0	293.2186510562897	1.0001659393310547
57	251.84589791297913	movie	1		243	55.0	2.5	/experiments/knapen_AOT/AOT_stimuli/rescaled_final/0487_rv.mp4	0.0	294.2188169956207	2.4920501708984375
57	252.23001909255981	pulse	1	t		55.0	2.5	/experiments/knapen_AOT/AOT_stimuli/rescaled_final/0487_rv.mp4	0.0	294.6029381752014	
57	253.82973790168762	pulse	1	t		55.0	2.5	/experiments/knapen_AOT/AOT_stimuli/rescaled_final/0487_rv.mp4	0.0	296.2026569843292	
57	254.33794808387756	fix_post	2		12	55.0	2.5	/experiments/knapen_AOT/AOT_stimuli/rescaled_final/0487_rv.mp4	0.0	296.71086716651917	0.10002994537353516
58	254.4379780292511	fix_pre	0		120	56.0	2.5	/experiments/knapen_AOT/AOT_stimuli/rescaled_final/0297_fw.mp4	0.0	296.8108971118927	1.0001778602600098
58	255.42991495132446	pulse	0	t		56.0	2.5	/experiments/knapen_AOT/AOT_stimuli/rescaled_final/0297_fw.mp4	0.0	297.80283403396606	
58	255.4381558895111	movie	1		244	56.0	2.5	/experiments/knapen_AOT/AOT_stimuli/rescaled_final/0297_fw.mp4	0.0	297.8110749721527	2.5086262226104736
58	257.0305678844452	pulse	1	t		56.0	2.5	/experiments/knapen_AOT/AOT_stimuli/rescaled_final/0297_fw.mp4	0.0	299.4034869670868	
58	257.9467821121216	fix_post	2		12	56.0	2.5	/experiments/knapen_AOT/AOT_stimuli/rescaled_final/0297_fw.mp4	0.0	300.3197011947632	0.10004687309265137
59	258.04682898521423	fix_pre	0		120	57.0	2.5	/experiments/knapen_AOT/AOT_stimuli/rescaled_final/0362_fw.mp4	0.0	300.41974806785583	1.0001580715179443
59	258.63047194480896	pulse	0	t		57.0	2.5	/experiments/knapen_AOT/AOT_stimuli/rescaled_final/0362_fw.mp4	0.0	301.00339102745056	
59	259.0469870567322	movie	1		243	57.0	2.5	/experiments/knapen_AOT/AOT_stimuli/rescaled_final/0362_fw.mp4	0.0	301.4199061393738	2.5004019737243652
59	260.2307639122009	pulse	1	t		57.0	2.5	/experiments/knapen_AOT/AOT_stimuli/rescaled_final/0362_fw.mp4	0.0	302.60368299484253	
59	261.54738903045654	fix_post	2		12	57.0	2.5	/experiments/knapen_AOT/AOT_stimuli/rescaled_final/0362_fw.mp4	0.0	303.92030811309814	0.10001993179321289
60	261.64740896224976	fix_pre	0		120	58.0	2.5	/experiments/knapen_AOT/AOT_stimuli/rescaled_final/1210_rv.mp4	0.0	304.02032804489136	1.0001029968261719
60	261.8309381008148	pulse	0	t		58.0	2.5	/experiments/knapen_AOT/AOT_stimuli/rescaled_final/1210_rv.mp4	0.0	304.2038571834564	
60	262.6475119590759	movie	1		242	58.0	2.5	/experiments/knapen_AOT/AOT_stimuli/rescaled_final/1210_rv.mp4	0.0	305.02043104171753	2.5004799365997314
60	263.4311499595642	pulse	1	t		58.0	2.5	/experiments/knapen_AOT/AOT_stimuli/rescaled_final/1210_rv.mp4	0.0	305.8040690422058	
60	265.03116488456726	pulse	1	t		58.0	2.5	/experiments/knapen_AOT/AOT_stimuli/rescaled_final/1210_rv.mp4	0.0	307.40408396720886	
60	265.14799189567566	fix_post	2		12	58.0	2.5	/experiments/knapen_AOT/AOT_stimuli/rescaled_final/1210_rv.mp4	0.0	307.52091097831726	0.09990906715393066
61	265.2479009628296	fix_pre	0		119	59.0	2.5	/experiments/knapen_AOT/AOT_stimuli/rescaled_final/1597_fw.mp4	0.0	307.6208200454712	0.9918019771575928
61	266.2397029399872	movie	1		242	59.0	2.5	/experiments/knapen_AOT/AOT_stimuli/rescaled_final/1597_fw.mp4	0.0	308.6126220226288	2.5005831718444824
61	266.63180804252625	pulse	1	t		59.0	2.5	/experiments/knapen_AOT/AOT_stimuli/rescaled_final/1597_fw.mp4	0.0	309.00472712516785	
61	268.2319390773773	pulse	1	t		59.0	2.5	/experiments/knapen_AOT/AOT_stimuli/rescaled_final/1597_fw.mp4	0.0	310.6048581600189	
61	268.74028611183167	fix_post	2		12	59.0	2.5	/experiments/knapen_AOT/AOT_stimuli/rescaled_final/1597_fw.mp4	0.0	311.11320519447327	0.0998079776763916
62	268.84009408950806	fix_pre	0		120	60.0	2.5	/experiments/knapen_AOT/AOT_stimuli/rescaled_final/0899_rv.mp4	0.0	311.21301317214966	1.0001578330993652
62	269.8320550918579	pulse	0	t		60.0	2.5	/experiments/knapen_AOT/AOT_stimuli/rescaled_final/0899_rv.mp4	0.0	312.2049741744995	
62	269.8402519226074	movie	1		243	60.0	2.5	/experiments/knapen_AOT/AOT_stimuli/rescaled_final/0899_rv.mp4	0.0	312.213171005249	2.5087361335754395
62	271.4328439235687	pulse	1	t		60.0	2.5	/experiments/knapen_AOT/AOT_stimuli/rescaled_final/0899_rv.mp4	0.0	313.8057630062103	
62	272.34898805618286	fix_post	2		12	60.0	2.5	/experiments/knapen_AOT/AOT_stimuli/rescaled_final/0899_rv.mp4	0.0	314.72190713882446	0.09998393058776855
63	272.44897198677063	fix_pre	0		120	61.0	2.5	/experiments/knapen_AOT/AOT_stimuli/rescaled_final/0441_fw.mp4	0.0	314.82189106941223	1.0001399517059326
63	273.0326850414276	pulse	0	t		61.0	2.5	/experiments/knapen_AOT/AOT_stimuli/rescaled_final/0441_fw.mp4	0.0	315.4056041240692	
63	273.44911193847656	movie	1		242	61.0	2.5	/experiments/knapen_AOT/AOT_stimuli/rescaled_final/0441_fw.mp4	0.0	315.82203102111816	2.50052809715271
63	274.6329228878021	pulse	1	t		61.0	2.5	/experiments/knapen_AOT/AOT_stimuli/rescaled_final/0441_fw.mp4	0.0	317.0058419704437	
63	275.9496400356293	fix_post	2		12	61.0	2.5	/experiments/knapen_AOT/AOT_stimuli/rescaled_final/0441_fw.mp4	0.0	318.3225591182709	0.09994792938232422
64	276.0495879650116	fix_pre	0		120	62.0	2.5	/experiments/knapen_AOT/AOT_stimuli/rescaled_final/0630_fw.mp4	0.0	318.4225070476532	1.0001299381256104
64	276.23302006721497	pulse	0	t		62.0	2.5	/experiments/knapen_AOT/AOT_stimuli/rescaled_final/0630_fw.mp4	0.0	318.60593914985657	
64	277.0497179031372	movie	1		243	62.0	2.5	/experiments/knapen_AOT/AOT_stimuli/rescaled_final/0630_fw.mp4	0.0	319.4226369857788	2.5002880096435547
64	277.83338499069214	pulse	1	t		62.0	2.5	/experiments/knapen_AOT/AOT_stimuli/rescaled_final/0630_fw.mp4	0.0	320.20630407333374	
64	279.43340492248535	pulse	1	t		62.0	2.5	/experiments/knapen_AOT/AOT_stimuli/rescaled_final/0630_fw.mp4	0.0	321.80632400512695	
64	279.55000591278076	fix_post	2		12	62.0	2.5	/experiments/knapen_AOT/AOT_stimuli/rescaled_final/0630_fw.mp4	0.0	321.92292499542236	0.10012412071228027
65	279.65013003349304	fix_pre	0		120	63.0	2.5	blank	1.0	322.02304911613464	1.0001270771026611
65	280.6502571105957	movie	1		300	63.0	2.5	blank	1.0	323.0231761932373	2.50034499168396
65	281.03382205963135	pulse	1	t		63.0	2.5	blank	1.0	323.40674114227295	
65	282.63389897346497	pulse	1	t		63.0	2.5	blank	1.0	325.00681805610657	
65	283.15060210227966	fix_post	2		12	63.0	2.5	blank	1.0	325.52352118492126	0.1000208854675293
66	283.2506229877472	fix_pre	0		119	64.0	2.5	/experiments/knapen_AOT/AOT_stimuli/rescaled_final/0718_rv.mp4	0.0	325.6235420703888	0.9917619228363037
66	284.2343120574951	pulse	0	t		64.0	2.5	/experiments/knapen_AOT/AOT_stimuli/rescaled_final/0718_rv.mp4	0.0	326.6072311401367	
66	284.2423849105835	movie	1		244	64.0	2.5	/experiments/knapen_AOT/AOT_stimuli/rescaled_final/0718_rv.mp4	0.0	326.6153039932251	2.5088231563568115
66	285.83566403388977	pulse	1	t		64.0	2.5	/experiments/knapen_AOT/AOT_stimuli/rescaled_final/0718_rv.mp4	0.0	328.2085831165314	
66	286.7512080669403	fix_post	2		12	64.0	2.5	/experiments/knapen_AOT/AOT_stimuli/rescaled_final/0718_rv.mp4	0.0	329.1241271495819	0.09987998008728027
67	286.8510880470276	fix_pre	0		120	65.0	2.5	/experiments/knapen_AOT/AOT_stimuli/rescaled_final/1716_rv.mp4	0.0	329.2240071296692	1.0001628398895264
67	287.4273030757904	pulse	0	t		65.0	2.5	/experiments/knapen_AOT/AOT_stimuli/rescaled_final/1716_rv.mp4	0.0	329.800222158432	
67	287.8512508869171	movie	1		239	65.0	2.5	/experiments/knapen_AOT/AOT_stimuli/rescaled_final/1716_rv.mp4	0.0	330.2241699695587	2.500638008117676
67	289.02721405029297	pulse	1	t		65.0	2.5	/experiments/knapen_AOT/AOT_stimuli/rescaled_final/1716_rv.mp4	0.0	331.40013313293457	
67	290.3518888950348	fix_post	2		12	65.0	2.5	/experiments/knapen_AOT/AOT_stimuli/rescaled_final/1716_rv.mp4	0.0	332.7248079776764	0.09979510307312012
68	290.4516839981079	fix_pre	0		120	66.0	2.5	/experiments/knapen_AOT/AOT_stimuli/rescaled_final/1195_rv.mp4	0.0	332.8246030807495	1.0001299381256104
68	290.6278750896454	pulse	0	t		66.0	2.5	/experiments/knapen_AOT/AOT_stimuli/rescaled_final/1195_rv.mp4	0.0	333.000794172287	
68	291.4518139362335	movie	1		242	66.0	2.5	/experiments/knapen_AOT/AOT_stimuli/rescaled_final/1195_rv.mp4	0.0	333.8247330188751	2.50052809715271
68	292.2279210090637	pulse	1	t		66.0	2.5	/experiments/knapen_AOT/AOT_stimuli/rescaled_final/1195_rv.mp4	0.0	334.6008400917053	
68	293.82738995552063	pulse	1	t		66.0	2.5	/experiments/knapen_AOT/AOT_stimuli/rescaled_final/1195_rv.mp4	0.0	336.20030903816223	
68	293.95234203338623	fix_post	2		12	66.0	2.5	/experiments/knapen_AOT/AOT_stimuli/rescaled_final/1195_rv.mp4	0.0	336.32526111602783	0.0998239517211914
69	294.0521659851074	fix_pre	0		120	67.0	2.5	/experiments/knapen_AOT/AOT_stimuli/rescaled_final/1252_rv.mp4	0.0	336.425085067749	1.0001630783081055
69	295.0523290634155	movie	1		241	67.0	2.5	/experiments/knapen_AOT/AOT_stimuli/rescaled_final/1252_rv.mp4	0.0	337.42524814605713	2.4921698570251465
69	295.42756509780884	pulse	1	t		67.0	2.5	/experiments/knapen_AOT/AOT_stimuli/rescaled_final/1252_rv.mp4	0.0	337.80048418045044	
69	297.02793192863464	pulse	1	t		67.0	2.5	/experiments/knapen_AOT/AOT_stimuli/rescaled_final/1252_rv.mp4	0.0	339.40085101127625	
69	297.5444989204407	fix_post	2		12	67.0	2.5	/experiments/knapen_AOT/AOT_stimuli/rescaled_final/1252_rv.mp4	0.0	339.9174180030823	0.09992313385009766
70	297.64442205429077	fix_pre	0		119	68.0	2.5	/experiments/knapen_AOT/AOT_stimuli/rescaled_final/1172_rv.mp4	0.0	340.0173411369324	0.9918429851531982
70	298.62800097465515	pulse	0	t		68.0	2.5	/experiments/knapen_AOT/AOT_stimuli/rescaled_final/1172_rv.mp4	0.0	341.00092005729675	
70	298.63626503944397	movie	1		243	68.0	2.5	/experiments/knapen_AOT/AOT_stimuli/rescaled_final/1172_rv.mp4	0.0	341.00918412208557	2.5087130069732666
70	300.2287690639496	pulse	1	t		68.0	2.5	/experiments/knapen_AOT/AOT_stimuli/rescaled_final/1172_rv.mp4	0.0	342.6016881465912	
70	301.14497804641724	fix_post	2		12	68.0	2.5	/experiments/knapen_AOT/AOT_stimuli/rescaled_final/1172_rv.mp4	0.0	343.51789712905884	0.09993505477905273
71	301.2449131011963	fix_pre	0		120	69.0	2.5	blank	1.0	343.6178321838379	1.0001568794250488
71	301.8286030292511	pulse	0	t		69.0	2.5	blank	1.0	344.2015221118927	
71	302.24506998062134	movie	1		300	69.0	2.5	blank	1.0	344.61798906326294	2.5004050731658936
71	303.4288430213928	pulse	1	t		69.0	2.5	blank	1.0	345.8017621040344	
71	304.74547505378723	fix_post	2		12	69.0	2.5	blank	1.0	347.11839413642883	0.10004997253417969
72	304.8455250263214	fix_pre	0		120	70.0	2.5	/experiments/knapen_AOT/AOT_stimuli/rescaled_final/0720_fw.mp4	0.0	347.218444108963	1.0001139640808105
72	305.02896904945374	pulse	0	t		70.0	2.5	/experiments/knapen_AOT/AOT_stimuli/rescaled_final/0720_fw.mp4	0.0	347.40188813209534	
72	305.8456389904022	movie	1		243	70.0	2.5	/experiments/knapen_AOT/AOT_stimuli/rescaled_final/0720_fw.mp4	0.0	348.2185580730438	2.5003581047058105
72	306.62920594215393	pulse	1	t		70.0	2.5	/experiments/knapen_AOT/AOT_stimuli/rescaled_final/0720_fw.mp4	0.0	349.00212502479553	
72	308.2293689250946	pulse	1	t		70.0	2.5	/experiments/knapen_AOT/AOT_stimuli/rescaled_final/0720_fw.mp4	0.0	350.6022880077362	
72	308.34599709510803	fix_post	2		12	70.0	2.5	/experiments/knapen_AOT/AOT_stimuli/rescaled_final/0720_fw.mp4	0.0	350.71891617774963	0.10001087188720703
73	308.44600796699524	fix_pre	0		119	71.0	2.5	/experiments/knapen_AOT/AOT_stimuli/rescaled_final/1751_fw.mp4	0.0	350.81892704963684	0.9917969703674316
73	309.43780493736267	movie	1		243	71.0	2.5	/experiments/knapen_AOT/AOT_stimuli/rescaled_final/1751_fw.mp4	0.0	351.8107240200043	2.500375986099243
73	309.8297920227051	pulse	1	t		71.0	2.5	/experiments/knapen_AOT/AOT_stimuli/rescaled_final/1751_fw.mp4	0.0	352.2027111053467	
73	311.429918050766	pulse	1	t		71.0	2.5	/experiments/knapen_AOT/AOT_stimuli/rescaled_final/1751_fw.mp4	0.0	353.8028371334076	
73	311.9381809234619	fix_post	2		12	71.0	2.5	/experiments/knapen_AOT/AOT_stimuli/rescaled_final/1751_fw.mp4	0.0	354.3111000061035	0.10002017021179199
74	312.0382010936737	fix_pre	0		120	72.0	2.5	/experiments/knapen_AOT/AOT_stimuli/rescaled_final/1268_rv.mp4	0.0	354.4111201763153	1.0002508163452148
74	313.03024196624756	pulse	0	t		72.0	2.5	/experiments/knapen_AOT/AOT_stimuli/rescaled_final/1268_rv.mp4	0.0	355.40316104888916	
74	313.0384519100189	movie	1		245	72.0	2.5	/experiments/knapen_AOT/AOT_stimuli/rescaled_final/1268_rv.mp4	0.0	355.4113709926605	2.5086140632629395
74	314.631098985672	pulse	1	t		72.0	2.5	/experiments/knapen_AOT/AOT_stimuli/rescaled_final/1268_rv.mp4	0.0	357.0040180683136	
74	315.54706597328186	fix_post	2		12	72.0	2.5	/experiments/knapen_AOT/AOT_stimuli/rescaled_final/1268_rv.mp4	0.0	357.91998505592346	0.1000969409942627
75	315.6471629142761	fix_pre	0		120	73.0	2.5	/experiments/knapen_AOT/AOT_stimuli/rescaled_final/1935_rv.mp4	0.0	358.0200819969177	1.0000720024108887
75	316.23076701164246	pulse	0	t		73.0	2.5	/experiments/knapen_AOT/AOT_stimuli/rescaled_final/1935_rv.mp4	0.0	358.60368609428406	
75	316.647234916687	movie	1		243	73.0	2.5	/experiments/knapen_AOT/AOT_stimuli/rescaled_final/1935_rv.mp4	0.0	359.0201539993286	2.500576972961426
75	317.8311359882355	pulse	1	t		73.0	2.5	/experiments/knapen_AOT/AOT_stimuli/rescaled_final/1935_rv.mp4	0.0	360.2040550708771	
75	319.14781188964844	fix_post	2		12	73.0	2.5	/experiments/knapen_AOT/AOT_stimuli/rescaled_final/1935_rv.mp4	0.0	361.52073097229004	0.09987115859985352
76	319.2476830482483	fix_pre	0		120	74.0	2.5	/experiments/knapen_AOT/AOT_stimuli/rescaled_final/1597_fw.mp4	0.0	361.6206021308899	1.0001418590545654
76	319.4311718940735	pulse	0	t		74.0	2.5	/experiments/knapen_AOT/AOT_stimuli/rescaled_final/1597_fw.mp4	0.0	361.8040909767151	
76	320.24782490730286	movie	1		242	74.0	2.5	/experiments/knapen_AOT/AOT_stimuli/rescaled_final/1597_fw.mp4	0.0	362.62074398994446	2.500303030014038
76	321.031457901001	pulse	1	t		74.0	2.5	/experiments/knapen_AOT/AOT_stimuli/rescaled_final/1597_fw.mp4	0.0	363.4043769836426	
76	322.6322600841522	pulse	1	t		74.0	2.5	/experiments/knapen_AOT/AOT_stimuli/rescaled_final/1597_fw.mp4	0.0	365.0051791667938	
76	322.7481279373169	fix_post	2		12	74.0	2.5	/experiments/knapen_AOT/AOT_stimuli/rescaled_final/1597_fw.mp4	0.0	365.1210470199585	0.10010409355163574
77	322.84823203086853	fix_pre	0		120	75.0	2.5	/experiments/knapen_AOT/AOT_stimuli/rescaled_final/2105_rv.mp4	0.0	365.22115111351013	1.000058889389038
77	323.84829092025757	movie	1		241	75.0	2.5	/experiments/knapen_AOT/AOT_stimuli/rescaled_final/2105_rv.mp4	0.0	366.22121000289917	2.492138147354126
77	324.23235988616943	pulse	1	t		75.0	2.5	/experiments/knapen_AOT/AOT_stimuli/rescaled_final/2105_rv.mp4	0.0	366.60527896881104	
77	325.83217692375183	pulse	1	t		75.0	2.5	/experiments/knapen_AOT/AOT_stimuli/rescaled_final/2105_rv.mp4	0.0	368.20509600639343	
77	326.3404290676117	fix_post	2		12	75.0	2.5	/experiments/knapen_AOT/AOT_stimuli/rescaled_final/2105_rv.mp4	0.0	368.7133481502533	0.09991693496704102
78	326.44034600257874	fix_pre	0		120	76.0	2.5	blank	1.0	368.81326508522034	1.0001978874206543
78	327.43239998817444	pulse	0	t		76.0	2.5	blank	1.0	369.80531907081604	
78	327.4405438899994	movie	1		301	76.0	2.5	blank	1.0	369.813462972641	2.508702039718628
78	329.0326099395752	pulse	1	t		76.0	2.5	blank	1.0	371.4055290222168	
78	329.949245929718	fix_post	2		12	76.0	2.5	blank	1.0	372.3221650123596	0.1000051498413086
79	330.0492510795593	fix_pre	0		120	77.0	2.5	/experiments/knapen_AOT/AOT_stimuli/rescaled_final/0181_fw.mp4	0.0	372.4221701622009	1.0001089572906494
79	330.63286209106445	pulse	0	t		77.0	2.5	/experiments/knapen_AOT/AOT_stimuli/rescaled_final/0181_fw.mp4	0.0	373.00578117370605	
79	331.04936003685	movie	1		245	77.0	2.5	/experiments/knapen_AOT/AOT_stimuli/rescaled_final/0181_fw.mp4	0.0	373.4222791194916	2.5003700256347656
79	332.2332799434662	pulse	1	t		77.0	2.5	/experiments/knapen_AOT/AOT_stimuli/rescaled_final/0181_fw.mp4	0.0	374.6061990261078	
79	333.54973006248474	fix_post	2		12	77.0	2.5	/experiments/knapen_AOT/AOT_stimuli/rescaled_final/0181_fw.mp4	0.0	375.92264914512634	0.10005784034729004
80	333.64978790283203	fix_pre	0		120	78.0	2.5	/experiments/knapen_AOT/AOT_stimuli/rescaled_final/1307_rv.mp4	0.0	376.02270698547363	1.0001959800720215
80	333.83330392837524	pulse	0	t		78.0	2.5	/experiments/knapen_AOT/AOT_stimuli/rescaled_final/1307_rv.mp4	0.0	376.20622301101685	
80	334.64998388290405	movie	1		243	78.0	2.5	/experiments/knapen_AOT/AOT_stimuli/rescaled_final/1307_rv.mp4	0.0	377.02290296554565	2.5002880096435547
80	335.43358302116394	pulse	1	t		78.0	2.5	/experiments/knapen_AOT/AOT_stimuli/rescaled_final/1307_rv.mp4	0.0	377.80650210380554	
80	337.0338840484619	pulse	1	t		78.0	2.5	/experiments/knapen_AOT/AOT_stimuli/rescaled_final/1307_rv.mp4	0.0	379.4068031311035	
80	337.1502718925476	fix_post	2		12	78.0	2.5	/experiments/knapen_AOT/AOT_stimuli/rescaled_final/1307_rv.mp4	0.0	379.5231909751892	0.1000070571899414
81	337.25027894973755	fix_pre	0		120	79.0	2.5	/experiments/knapen_AOT/AOT_stimuli/rescaled_final/2150_rv.mp4	0.0	379.62319803237915	1.000154972076416
81	338.25043392181396	movie	1		241	79.0	2.5	/experiments/knapen_AOT/AOT_stimuli/rescaled_final/2150_rv.mp4	0.0	380.62335300445557	2.492105007171631
81	338.6347289085388	pulse	1	t		79.0	2.5	/experiments/knapen_AOT/AOT_stimuli/rescaled_final/2150_rv.mp4	0.0	381.0076479911804	
81	340.2269630432129	pulse	1	t		79.0	2.5	/experiments/knapen_AOT/AOT_stimuli/rescaled_final/2150_rv.mp4	0.0	382.5998821258545	
81	340.7425389289856	fix_post	2		12	79.0	2.5	/experiments/knapen_AOT/AOT_stimuli/rescaled_final/2150_rv.mp4	0.0	383.1154580116272	0.09998416900634766
82	340.84252309799194	fix_pre	0		120	80.0	2.5	/experiments/knapen_AOT/AOT_stimuli/rescaled_final/1164_rv.mp4	0.0	383.21544218063354	1.000175952911377
82	341.8270089626312	pulse	0	t		80.0	2.5	/experiments/knapen_AOT/AOT_stimuli/rescaled_final/1164_rv.mp4	0.0	384.1999280452728	
82	341.8426990509033	movie	1		244	80.0	2.5	/experiments/knapen_AOT/AOT_stimuli/rescaled_final/1164_rv.mp4	0.0	384.2156181335449	2.5086400508880615
82	343.43525409698486	pulse	1	t		80.0	2.5	/experiments/knapen_AOT/AOT_stimuli/rescaled_final/1164_rv.mp4	0.0	385.80817317962646	
82	344.3513391017914	fix_post	2		12	80.0	2.5	/experiments/knapen_AOT/AOT_stimuli/rescaled_final/1164_rv.mp4	0.0	386.724258184433	0.10006284713745117
83	344.45140194892883	fix_pre	0		120	81.0	2.5	/experiments/knapen_AOT/AOT_stimuli/rescaled_final/0549_rv.mp4	0.0	386.82432103157043	1.000115156173706
83	345.0274360179901	pulse	0	t		81.0	2.5	/experiments/knapen_AOT/AOT_stimuli/rescaled_final/0549_rv.mp4	0.0	387.4003551006317	
83	345.45151710510254	movie	1		242	81.0	2.5	/experiments/knapen_AOT/AOT_stimuli/rescaled_final/0549_rv.mp4	0.0	387.82443618774414	2.500544786453247
83	346.62754106521606	pulse	1	t		81.0	2.5	/experiments/knapen_AOT/AOT_stimuli/rescaled_final/0549_rv.mp4	0.0	389.00046014785767	
83	347.9520618915558	fix_post	2		12	81.0	2.5	/experiments/knapen_AOT/AOT_stimuli/rescaled_final/0549_rv.mp4	0.0	390.3249809741974	0.09984207153320312
84	348.051903963089	fix_pre	0		120	82.0	2.5	blank	1.0	390.4248230457306	1.0001699924468994
84	348.22706389427185	pulse	0	t		82.0	2.5	blank	1.0	390.59998297691345	
84	349.0520739555359	movie	1		300	82.0	2.5	blank	1.0	391.4249930381775	2.5004141330718994
84	349.8272979259491	pulse	1	t		82.0	2.5	blank	1.0	392.2002170085907	
84	351.4276599884033	pulse	1	t		82.0	2.5	blank	1.0	393.8005790710449	
84	351.5524880886078	fix_post	2		12	82.0	2.5	blank	1.0	393.9254071712494	0.09996700286865234
85	351.65245509147644	fix_pre	0		120	83.0	2.5	/experiments/knapen_AOT/AOT_stimuli/rescaled_final/0052_rv.mp4	0.0	394.02537417411804	1.0001158714294434
85	352.6525709629059	movie	1		242	83.0	2.5	/experiments/knapen_AOT/AOT_stimuli/rescaled_final/0052_rv.mp4	0.0	395.0254900455475	2.4921040534973145
85	353.02786898612976	pulse	1	t		83.0	2.5	/experiments/knapen_AOT/AOT_stimuli/rescaled_final/0052_rv.mp4	0.0	395.40078806877136	
85	354.6281430721283	pulse	1	t		83.0	2.5	/experiments/knapen_AOT/AOT_stimuli/rescaled_final/0052_rv.mp4	0.0	397.0010621547699	
85	355.1446750164032	fix_post	2		12	83.0	2.5	/experiments/knapen_AOT/AOT_stimuli/rescaled_final/0052_rv.mp4	0.0	397.5175940990448	0.0999898910522461
87	355.24466490745544	stim	0		1716					397.61758399009705	14.302098989486694
87	356.22834300994873	pulse	0	t						398.60126209259033	
87	357.82856011390686	pulse	0	t						400.20147919654846	
87	359.4287428855896	pulse	0	t						401.8016619682312	
87	361.02904295921326	pulse	0	t						403.40196204185486	
87	362.62926602363586	pulse	0	t						405.00218510627747	
87	364.2294499874115	pulse	0	t						406.6023690700531	
87	365.8297789096832	pulse	0	t						408.20269799232483	
87	367.429878950119	pulse	0	t						409.8027980327606	
87	369.03023290634155	pulse	0	t						411.40315198898315	
