trial_nr	onset	event_type	phase	response	nr_frames	movie_index	movie_duration	movie_file	blank	onset_abs	duration
0	0.13289594650268555	stim	0		37					39.52411508560181	0.30811500549316406
0	0.4330449104309082	response	0	space						39.82426404953003	
1	0.4410109519958496	stim	0		5004					39.83223009109497	41.70014405250549
1	42.13303899765015	pulse	0	t						81.52425813674927	
1	42.14115500450134	stim	1		1717					81.53237414360046	14.307929992675781
1	43.733070850372314	pulse	1	t						83.12428998947144	
1	45.33305788040161	pulse	1	t						84.72427701950073	
1	46.932976961135864	pulse	1	t						86.32419610023499	
1	48.53304886817932	pulse	1	t						87.92426800727844	
1	50.13302493095398	pulse	1	t						89.5242440700531	
1	51.73295187950134	pulse	1	t						91.12417101860046	
1	53.33306097984314	pulse	1	t						92.72428011894226	
1	54.93308186531067	pulse	1	t						94.32430100440979	
2	56.449084997177124	fix_pre	0		11	0.0	2.5	/experiments/AOT/AOT_stimuli/rescaled_final/1786_fw.mp4	0.0	95.84030413627625	0.09209799766540527
2	56.53252387046814	pulse	0	t		0.0	2.5	/experiments/AOT/AOT_stimuli/rescaled_final/1786_fw.mp4	0.0	95.92374300956726	
2	56.54118299484253	movie	1		242	0.0	2.5	/experiments/AOT/AOT_stimuli/rescaled_final/1786_fw.mp4	0.0	95.93240213394165	2.5087108612060547
2	58.13439202308655	pulse	1	t		0.0	2.5	/experiments/AOT/AOT_stimuli/rescaled_final/1786_fw.mp4	0.0	97.52561116218567	
2	59.049893856048584	fix_post	2		12	0.0	2.5	/experiments/AOT/AOT_stimuli/rescaled_final/1786_fw.mp4	0.0	98.4411129951477	0.09949398040771484
3	59.1493878364563	fix_pre	0		120	1.0	2.5	/experiments/AOT/AOT_stimuli/rescaled_final/2074_rv.mp4	0.0	98.54060697555542	1.000075101852417
3	59.733011960983276	pulse	0	t		1.0	2.5	/experiments/AOT/AOT_stimuli/rescaled_final/2074_rv.mp4	0.0	99.1242311000824	
3	60.149462938308716	movie	1		243	1.0	2.5	/experiments/AOT/AOT_stimuli/rescaled_final/2074_rv.mp4	0.0	99.54068207740784	2.499605894088745
3	61.333035945892334	pulse	1	t		1.0	2.5	/experiments/AOT/AOT_stimuli/rescaled_final/2074_rv.mp4	0.0	100.72425508499146	
3	62.64906883239746	fix_post	2		12	1.0	2.5	/experiments/AOT/AOT_stimuli/rescaled_final/2074_rv.mp4	0.0	102.04028797149658	0.1003730297088623
4	62.74944186210632	fix_pre	0		120	2.0	2.5	/experiments/AOT/AOT_stimuli/rescaled_final/1997_fw.mp4	0.0	102.14066100120544	0.999981164932251
4	62.93301486968994	pulse	0	t		2.0	2.5	/experiments/AOT/AOT_stimuli/rescaled_final/1997_fw.mp4	0.0	102.32423400878906	
4	63.749423027038574	movie	1		243	2.0	2.5	/experiments/AOT/AOT_stimuli/rescaled_final/1997_fw.mp4	0.0	103.1406421661377	2.5000228881835938
4	64.53287696838379	pulse	1	t		2.0	2.5	/experiments/AOT/AOT_stimuli/rescaled_final/1997_fw.mp4	0.0	103.92409610748291	
4	66.1311628818512	pulse	1	t		2.0	2.5	/experiments/AOT/AOT_stimuli/rescaled_final/1997_fw.mp4	0.0	105.52238202095032	
4	66.24944591522217	fix_post	2		12	2.0	2.5	/experiments/AOT/AOT_stimuli/rescaled_final/1997_fw.mp4	0.0	105.64066505432129	0.1000070571899414
5	66.34945297241211	fix_pre	0		120	3.0	2.5	/experiments/AOT/AOT_stimuli/rescaled_final/0038_rv.mp4	0.0	105.74067211151123	0.9996609687805176
5	67.34911394119263	movie	1		243	3.0	2.5	/experiments/AOT/AOT_stimuli/rescaled_final/0038_rv.mp4	0.0	106.74033308029175	2.5003199577331543
5	67.73401498794556	pulse	1	t		3.0	2.5	/experiments/AOT/AOT_stimuli/rescaled_final/0038_rv.mp4	0.0	107.12523412704468	
5	69.33291101455688	pulse	1	t		3.0	2.5	/experiments/AOT/AOT_stimuli/rescaled_final/0038_rv.mp4	0.0	108.724130153656	
5	69.84943389892578	fix_post	2		12	3.0	2.5	/experiments/AOT/AOT_stimuli/rescaled_final/0038_rv.mp4	0.0	109.2406530380249	0.10003495216369629
6	69.94946885108948	fix_pre	0		119	4.0	2.5	/experiments/AOT/AOT_stimuli/rescaled_final/0545_rv.mp4	0.0	109.3406879901886	0.9916939735412598
6	70.93291091918945	pulse	0	t		4.0	2.5	/experiments/AOT/AOT_stimuli/rescaled_final/0545_rv.mp4	0.0	110.32413005828857	
6	70.94116282463074	movie	1		247	4.0	2.5	/experiments/AOT/AOT_stimuli/rescaled_final/0545_rv.mp4	0.0	110.33238196372986	2.508263111114502
6	72.53413081169128	pulse	1	t		4.0	2.5	/experiments/AOT/AOT_stimuli/rescaled_final/0545_rv.mp4	0.0	111.9253499507904	
6	73.44942593574524	fix_post	2		12	4.0	2.5	/experiments/AOT/AOT_stimuli/rescaled_final/0545_rv.mp4	0.0	112.84064507484436	0.09962892532348633
7	73.54905486106873	fix_pre	0		120	5.0	2.5	blank	1.0	112.94027400016785	1.0004260540008545
7	74.13290500640869	pulse	0	t		5.0	2.5	blank	1.0	113.52412414550781	
7	74.54948091506958	movie	1		300	5.0	2.5	blank	1.0	113.9407000541687	2.499964952468872
7	75.73291993141174	pulse	1	t		5.0	2.5	blank	1.0	115.12413907051086	
7	77.04944586753845	fix_post	2		12	5.0	2.5	blank	1.0	116.44066500663757	0.10001397132873535
8	77.14945983886719	fix_pre	0		120	6.0	2.5	/experiments/AOT/AOT_stimuli/rescaled_final/1974_rv.mp4	0.0	116.54067897796631	0.999920129776001
8	77.3329529762268	pulse	0	t		6.0	2.5	/experiments/AOT/AOT_stimuli/rescaled_final/1974_rv.mp4	0.0	116.72417211532593	
8	78.14937996864319	movie	1		243	6.0	2.5	/experiments/AOT/AOT_stimuli/rescaled_final/1974_rv.mp4	0.0	117.54059910774231	2.4996800422668457
8	78.9328339099884	pulse	1	t		6.0	2.5	/experiments/AOT/AOT_stimuli/rescaled_final/1974_rv.mp4	0.0	118.32405304908752	
8	80.53119587898254	pulse	1	t		6.0	2.5	/experiments/AOT/AOT_stimuli/rescaled_final/1974_rv.mp4	0.0	119.92241501808167	
8	80.64906001091003	fix_post	2		12	6.0	2.5	/experiments/AOT/AOT_stimuli/rescaled_final/1974_rv.mp4	0.0	120.04027915000916	0.10032391548156738
9	80.7493839263916	fix_pre	0		120	7.0	2.5	/experiments/AOT/AOT_stimuli/rescaled_final/0561_fw.mp4	0.0	120.14060306549072	0.9999790191650391
9	81.74936294555664	movie	1		242	7.0	2.5	/experiments/AOT/AOT_stimuli/rescaled_final/0561_fw.mp4	0.0	121.14058208465576	2.499898910522461
9	82.13426995277405	pulse	1	t		7.0	2.5	/experiments/AOT/AOT_stimuli/rescaled_final/0561_fw.mp4	0.0	121.52548909187317	
9	83.73287391662598	pulse	1	t		7.0	2.5	/experiments/AOT/AOT_stimuli/rescaled_final/0561_fw.mp4	0.0	123.1240930557251	
9	84.2492618560791	fix_post	2		12	7.0	2.5	/experiments/AOT/AOT_stimuli/rescaled_final/0561_fw.mp4	0.0	123.64048099517822	0.10002803802490234
10	84.349289894104	fix_pre	0		119	8.0	2.5	/experiments/AOT/AOT_stimuli/rescaled_final/1170_fw.mp4	0.0	123.74050903320312	0.9916970729827881
10	85.33285593986511	pulse	0	t		8.0	2.5	/experiments/AOT/AOT_stimuli/rescaled_final/1170_fw.mp4	0.0	124.72407507896423	
10	85.34098696708679	movie	1		244	8.0	2.5	/experiments/AOT/AOT_stimuli/rescaled_final/1170_fw.mp4	0.0	124.73220610618591	2.5082929134368896
10	86.93235182762146	pulse	1	t		8.0	2.5	/experiments/AOT/AOT_stimuli/rescaled_final/1170_fw.mp4	0.0	126.32357096672058	
10	87.84927988052368	fix_post	2		12	8.0	2.5	/experiments/AOT/AOT_stimuli/rescaled_final/1170_fw.mp4	0.0	127.2404990196228	0.10003304481506348
11	87.94931292533875	fix_pre	0		120	9.0	2.5	/experiments/AOT/AOT_stimuli/rescaled_final/0545_fw.mp4	0.0	127.34053206443787	1.0000030994415283
11	88.53292489051819	pulse	0	t		9.0	2.5	/experiments/AOT/AOT_stimuli/rescaled_final/0545_fw.mp4	0.0	127.92414402961731	
11	88.94931602478027	movie	1		243	9.0	2.5	/experiments/AOT/AOT_stimuli/rescaled_final/0545_fw.mp4	0.0	128.3405351638794	2.499783992767334
11	90.13297390937805	pulse	1	t		9.0	2.5	/experiments/AOT/AOT_stimuli/rescaled_final/0545_fw.mp4	0.0	129.52419304847717	
11	91.44910001754761	fix_post	2		12	9.0	2.5	/experiments/AOT/AOT_stimuli/rescaled_final/0545_fw.mp4	0.0	130.84031915664673	0.10024785995483398
12	91.54934787750244	fix_pre	0		120	10.0	2.5	/experiments/AOT/AOT_stimuli/rescaled_final/2013_rv.mp4	0.0	130.94056701660156	0.9999070167541504
12	91.73280000686646	pulse	0	t		10.0	2.5	/experiments/AOT/AOT_stimuli/rescaled_final/2013_rv.mp4	0.0	131.12401914596558	
12	92.54925489425659	movie	1		246	10.0	2.5	/experiments/AOT/AOT_stimuli/rescaled_final/2013_rv.mp4	0.0	131.9404740333557	2.5000529289245605
12	93.33277893066406	pulse	1	t		10.0	2.5	/experiments/AOT/AOT_stimuli/rescaled_final/2013_rv.mp4	0.0	132.72399806976318	
12	94.93149590492249	pulse	1	t		10.0	2.5	/experiments/AOT/AOT_stimuli/rescaled_final/2013_rv.mp4	0.0	134.3227150440216	
12	95.04930782318115	fix_post	2		12	10.0	2.5	/experiments/AOT/AOT_stimuli/rescaled_final/2013_rv.mp4	0.0	134.44052696228027	0.10001111030578613
13	95.14931893348694	fix_pre	0		120	11.0	2.5	/experiments/AOT/AOT_stimuli/rescaled_final/1677_fw.mp4	0.0	134.54053807258606	0.9999959468841553
13	96.1493148803711	movie	1		247	11.0	2.5	/experiments/AOT/AOT_stimuli/rescaled_final/1677_fw.mp4	0.0	135.54053401947021	2.4999611377716064
13	96.53288793563843	pulse	1	t		11.0	2.5	/experiments/AOT/AOT_stimuli/rescaled_final/1677_fw.mp4	0.0	135.92410707473755	
13	98.13281297683716	pulse	1	t		11.0	2.5	/experiments/AOT/AOT_stimuli/rescaled_final/1677_fw.mp4	0.0	137.52403211593628	
13	98.6492760181427	fix_post	2		12	11.0	2.5	/experiments/AOT/AOT_stimuli/rescaled_final/1677_fw.mp4	0.0	138.04049515724182	0.09996390342712402
14	98.74923992156982	fix_pre	0		119	12.0	2.5	/experiments/AOT/AOT_stimuli/rescaled_final/0882_fw.mp4	0.0	138.14045906066895	0.9916489124298096
14	99.7327938079834	pulse	0	t		12.0	2.5	/experiments/AOT/AOT_stimuli/rescaled_final/0882_fw.mp4	0.0	139.12401294708252	
14	99.74088883399963	movie	1		245	12.0	2.5	/experiments/AOT/AOT_stimuli/rescaled_final/0882_fw.mp4	0.0	139.13210797309875	2.5079591274261475
14	101.33253693580627	pulse	1	t		12.0	2.5	/experiments/AOT/AOT_stimuli/rescaled_final/0882_fw.mp4	0.0	140.7237560749054	
14	102.24884796142578	fix_post	2		12	12.0	2.5	/experiments/AOT/AOT_stimuli/rescaled_final/0882_fw.mp4	0.0	141.6400671005249	0.10047388076782227
15	102.3493218421936	fix_pre	0		120	13.0	2.5	/experiments/AOT/AOT_stimuli/rescaled_final/1333_rv.mp4	0.0	141.74054098129272	0.9999001026153564
15	102.93273687362671	pulse	0	t		13.0	2.5	/experiments/AOT/AOT_stimuli/rescaled_final/1333_rv.mp4	0.0	142.32395601272583	
15	103.34922194480896	movie	1		245	13.0	2.5	/experiments/AOT/AOT_stimuli/rescaled_final/1333_rv.mp4	0.0	142.74044108390808	2.49960994720459
15	104.53275799751282	pulse	1	t		13.0	2.5	/experiments/AOT/AOT_stimuli/rescaled_final/1333_rv.mp4	0.0	143.92397713661194	
15	105.84883189201355	fix_post	2		12	13.0	2.5	/experiments/AOT/AOT_stimuli/rescaled_final/1333_rv.mp4	0.0	145.24005103111267	0.10042405128479004
16	105.94925594329834	fix_pre	0		120	14.0	2.5	blank	1.0	145.34047508239746	0.9999370574951172
16	106.13276696205139	pulse	0	t		14.0	2.5	blank	1.0	145.5239861011505	
16	106.94919300079346	movie	1		300	14.0	2.5	blank	1.0	146.34041213989258	2.4999749660491943
16	107.73281979560852	pulse	1	t		14.0	2.5	blank	1.0	147.12403893470764	
16	109.3327808380127	pulse	1	t		14.0	2.5	blank	1.0	148.72399997711182	
16	109.44916796684265	fix_post	2		12	14.0	2.5	blank	1.0	148.84038710594177	0.10009098052978516
17	109.54925894737244	fix_pre	0		120	15.0	2.5	/experiments/AOT/AOT_stimuli/rescaled_final/1929_fw.mp4	0.0	148.94047808647156	0.9999480247497559
17	110.54920697212219	movie	1		244	15.0	2.5	/experiments/AOT/AOT_stimuli/rescaled_final/1929_fw.mp4	0.0	149.9404261112213	2.500124931335449
17	110.93235492706299	pulse	1	t		15.0	2.5	/experiments/AOT/AOT_stimuli/rescaled_final/1929_fw.mp4	0.0	150.3235740661621	
17	112.53230381011963	pulse	1	t		15.0	2.5	/experiments/AOT/AOT_stimuli/rescaled_final/1929_fw.mp4	0.0	151.92352294921875	
17	113.04933190345764	fix_post	2		12	15.0	2.5	/experiments/AOT/AOT_stimuli/rescaled_final/1929_fw.mp4	0.0	152.44055104255676	0.0995481014251709
18	113.14888000488281	fix_pre	0		119	16.0	2.5	/experiments/AOT/AOT_stimuli/rescaled_final/2168_fw.mp4	0.0	152.54009914398193	0.9918038845062256
18	114.13251495361328	pulse	0	t		16.0	2.5	/experiments/AOT/AOT_stimuli/rescaled_final/2168_fw.mp4	0.0	153.5237340927124	
18	114.14068388938904	movie	1		247	16.0	2.5	/experiments/AOT/AOT_stimuli/rescaled_final/2168_fw.mp4	0.0	153.53190302848816	2.508129119873047
18	115.73277401924133	pulse	1	t		16.0	2.5	/experiments/AOT/AOT_stimuli/rescaled_final/2168_fw.mp4	0.0	155.12399315834045	
18	116.64881300926208	fix_post	2		12	16.0	2.5	/experiments/AOT/AOT_stimuli/rescaled_final/2168_fw.mp4	0.0	156.0400321483612	0.10037779808044434
19	116.74919080734253	fix_pre	0		120	17.0	2.5	/experiments/AOT/AOT_stimuli/rescaled_final/1496_fw.mp4	0.0	156.14040994644165	1.0000081062316895
19	117.33269500732422	pulse	0	t		17.0	2.5	/experiments/AOT/AOT_stimuli/rescaled_final/1496_fw.mp4	0.0	156.72391414642334	
19	117.74919891357422	movie	1		248	17.0	2.5	/experiments/AOT/AOT_stimuli/rescaled_final/1496_fw.mp4	0.0	157.14041805267334	2.499964952468872
19	118.93274188041687	pulse	1	t		17.0	2.5	/experiments/AOT/AOT_stimuli/rescaled_final/1496_fw.mp4	0.0	158.323961019516	
19	120.24916386604309	fix_post	2		12	17.0	2.5	/experiments/AOT/AOT_stimuli/rescaled_final/1496_fw.mp4	0.0	159.6403830051422	0.0999441146850586
20	120.34910798072815	fix_pre	0		120	18.0	2.5	/experiments/AOT/AOT_stimuli/rescaled_final/2089_fw.mp4	0.0	159.74032711982727	1.0001068115234375
20	120.5325779914856	pulse	0	t		18.0	2.5	/experiments/AOT/AOT_stimuli/rescaled_final/2089_fw.mp4	0.0	159.92379713058472	
20	121.34921479225159	movie	1		244	18.0	2.5	/experiments/AOT/AOT_stimuli/rescaled_final/2089_fw.mp4	0.0	160.7404339313507	2.4995291233062744
20	122.13270092010498	pulse	1	t		18.0	2.5	/experiments/AOT/AOT_stimuli/rescaled_final/2089_fw.mp4	0.0	161.5239200592041	
20	123.73107290267944	pulse	1	t		18.0	2.5	/experiments/AOT/AOT_stimuli/rescaled_final/2089_fw.mp4	0.0	163.12229204177856	
20	123.84874391555786	fix_post	2		12	18.0	2.5	/experiments/AOT/AOT_stimuli/rescaled_final/2089_fw.mp4	0.0	163.23996305465698	0.10039401054382324
21	123.94913792610168	fix_pre	0		120	19.0	2.5	blank	1.0	163.3403570652008	0.9996030330657959
21	124.94874095916748	movie	1		300	19.0	2.5	blank	1.0	164.3399600982666	2.5003459453582764
21	125.33264398574829	pulse	1	t		19.0	2.5	blank	1.0	164.7238631248474	
21	126.9326798915863	pulse	1	t		19.0	2.5	blank	1.0	166.32389903068542	
21	127.44908690452576	fix_post	2		12	19.0	2.5	blank	1.0	166.84030604362488	0.10002994537353516
22	127.54911684989929	fix_pre	0		119	20.0	2.5	/experiments/AOT/AOT_stimuli/rescaled_final/0075_fw.mp4	0.0	166.9403359889984	0.9916400909423828
22	128.53258991241455	pulse	0	t		20.0	2.5	/experiments/AOT/AOT_stimuli/rescaled_final/0075_fw.mp4	0.0	167.92380905151367	
22	128.54075694084167	movie	1		246	20.0	2.5	/experiments/AOT/AOT_stimuli/rescaled_final/0075_fw.mp4	0.0	167.9319760799408	2.5083038806915283
22	130.13253784179688	pulse	1	t		20.0	2.5	/experiments/AOT/AOT_stimuli/rescaled_final/0075_fw.mp4	0.0	169.523756980896	
22	131.0490608215332	fix_post	2		12	20.0	2.5	/experiments/AOT/AOT_stimuli/rescaled_final/0075_fw.mp4	0.0	170.44027996063232	0.09998798370361328
23	131.14904880523682	fix_pre	0		120	21.0	2.5	/experiments/AOT/AOT_stimuli/rescaled_final/1874_fw.mp4	0.0	170.54026794433594	1.0000600814819336
23	131.7328188419342	pulse	0	t		21.0	2.5	/experiments/AOT/AOT_stimuli/rescaled_final/1874_fw.mp4	0.0	171.12403798103333	
23	132.14910888671875	movie	1		245	21.0	2.5	/experiments/AOT/AOT_stimuli/rescaled_final/1874_fw.mp4	0.0	171.54032802581787	2.5000109672546387
23	133.33275985717773	pulse	1	t		21.0	2.5	/experiments/AOT/AOT_stimuli/rescaled_final/1874_fw.mp4	0.0	172.72397899627686	
23	134.6491198539734	fix_post	2		12	21.0	2.5	/experiments/AOT/AOT_stimuli/rescaled_final/1874_fw.mp4	0.0	174.0403389930725	0.0999140739440918
24	134.74903392791748	fix_pre	0		120	22.0	2.5	/experiments/AOT/AOT_stimuli/rescaled_final/0517_rv.mp4	0.0	174.1402530670166	0.9995720386505127
24	134.9326148033142	pulse	0	t		22.0	2.5	/experiments/AOT/AOT_stimuli/rescaled_final/0517_rv.mp4	0.0	174.32383394241333	
24	135.748605966568	movie	1		245	22.0	2.5	/experiments/AOT/AOT_stimuli/rescaled_final/0517_rv.mp4	0.0	175.13982510566711	2.5004899501800537
24	136.53263902664185	pulse	1	t		22.0	2.5	/experiments/AOT/AOT_stimuli/rescaled_final/0517_rv.mp4	0.0	175.92385816574097	
24	138.13122582435608	pulse	1	t		22.0	2.5	/experiments/AOT/AOT_stimuli/rescaled_final/0517_rv.mp4	0.0	177.5224449634552	
24	138.24909591674805	fix_post	2		12	22.0	2.5	/experiments/AOT/AOT_stimuli/rescaled_final/0517_rv.mp4	0.0	177.64031505584717	0.09999799728393555
25	138.34909391403198	fix_pre	0		120	23.0	2.5	/experiments/AOT/AOT_stimuli/rescaled_final/0522_fw.mp4	0.0	177.7403130531311	1.0000040531158447
25	139.34909796714783	movie	1		247	23.0	2.5	/experiments/AOT/AOT_stimuli/rescaled_final/0522_fw.mp4	0.0	178.74031710624695	2.499635934829712
25	139.73249292373657	pulse	1	t		23.0	2.5	/experiments/AOT/AOT_stimuli/rescaled_final/0522_fw.mp4	0.0	179.1237120628357	
25	141.33256793022156	pulse	1	t		23.0	2.5	/experiments/AOT/AOT_stimuli/rescaled_final/0522_fw.mp4	0.0	180.72378706932068	
25	141.84873390197754	fix_post	2		12	23.0	2.5	/experiments/AOT/AOT_stimuli/rescaled_final/0522_fw.mp4	0.0	181.23995304107666	0.10034489631652832
26	141.94907879829407	fix_pre	0		119	24.0	2.5	/experiments/AOT/AOT_stimuli/rescaled_final/1758_fw.mp4	0.0	181.3402979373932	0.9917261600494385
26	142.93260598182678	pulse	0	t		24.0	2.5	/experiments/AOT/AOT_stimuli/rescaled_final/1758_fw.mp4	0.0	182.3238251209259	
26	142.9408049583435	movie	1		246	24.0	2.5	/experiments/AOT/AOT_stimuli/rescaled_final/1758_fw.mp4	0.0	182.33202409744263	2.508255958557129
26	144.53278279304504	pulse	1	t		24.0	2.5	/experiments/AOT/AOT_stimuli/rescaled_final/1758_fw.mp4	0.0	183.92400193214417	
26	145.44906091690063	fix_post	2		12	24.0	2.5	/experiments/AOT/AOT_stimuli/rescaled_final/1758_fw.mp4	0.0	184.84028005599976	0.09997200965881348
27	145.54903292655945	fix_pre	0		120	25.0	2.5	/experiments/AOT/AOT_stimuli/rescaled_final/2051_fw.mp4	0.0	184.94025206565857	1.00006103515625
27	146.1325659751892	pulse	0	t		25.0	2.5	/experiments/AOT/AOT_stimuli/rescaled_final/2051_fw.mp4	0.0	185.52378511428833	
27	146.5490939617157	movie	1		244	25.0	2.5	/experiments/AOT/AOT_stimuli/rescaled_final/2051_fw.mp4	0.0	185.94031310081482	2.4999539852142334
27	147.7326419353485	pulse	1	t		25.0	2.5	/experiments/AOT/AOT_stimuli/rescaled_final/2051_fw.mp4	0.0	187.12386107444763	
27	149.04904794692993	fix_post	2		12	25.0	2.5	/experiments/AOT/AOT_stimuli/rescaled_final/2051_fw.mp4	0.0	188.44026708602905	0.09991097450256348
28	149.1489589214325	fix_pre	0		120	26.0	2.5	blank	1.0	188.54017806053162	1.000020980834961
28	149.33262300491333	pulse	0	t		26.0	2.5	blank	1.0	188.72384214401245	
28	150.14897990226746	movie	1		300	26.0	2.5	blank	1.0	189.54019904136658	2.499962091445923
28	150.9325339794159	pulse	1	t		26.0	2.5	blank	1.0	190.32375311851501	
28	152.53249597549438	pulse	1	t		26.0	2.5	blank	1.0	191.9237151145935	
28	152.64894199371338	fix_post	2		12	26.0	2.5	blank	1.0	192.0401611328125	0.10001897811889648
29	152.74896097183228	fix_pre	0		120	27.0	2.5	/experiments/AOT/AOT_stimuli/rescaled_final/1217_fw.mp4	0.0	192.1401801109314	1.0000278949737549
29	153.74898886680603	movie	1		243	27.0	2.5	/experiments/AOT/AOT_stimuli/rescaled_final/1217_fw.mp4	0.0	193.14020800590515	2.4999499320983887
29	154.1322569847107	pulse	1	t		27.0	2.5	/experiments/AOT/AOT_stimuli/rescaled_final/1217_fw.mp4	0.0	193.52347612380981	
29	155.73254084587097	pulse	1	t		27.0	2.5	/experiments/AOT/AOT_stimuli/rescaled_final/1217_fw.mp4	0.0	195.1237599849701	
29	156.24893879890442	fix_post	2		12	27.0	2.5	/experiments/AOT/AOT_stimuli/rescaled_final/1217_fw.mp4	0.0	195.64015793800354	0.10007119178771973
30	156.34900999069214	fix_pre	0		119	28.0	2.5	/experiments/AOT/AOT_stimuli/rescaled_final/0850_fw.mp4	0.0	195.74022912979126	0.9915997982025146
30	157.33250093460083	pulse	0	t		28.0	2.5	/experiments/AOT/AOT_stimuli/rescaled_final/0850_fw.mp4	0.0	196.72372007369995	
30	157.34060978889465	movie	1		246	28.0	2.5	/experiments/AOT/AOT_stimuli/rescaled_final/0850_fw.mp4	0.0	196.73182892799377	2.5084340572357178
30	158.93199181556702	pulse	1	t		28.0	2.5	/experiments/AOT/AOT_stimuli/rescaled_final/0850_fw.mp4	0.0	198.32321095466614	
30	159.84904384613037	fix_post	2		12	28.0	2.5	/experiments/AOT/AOT_stimuli/rescaled_final/0850_fw.mp4	0.0	199.2402629852295	0.09987497329711914
31	159.9489188194275	fix_pre	0		120	29.0	2.5	/experiments/AOT/AOT_stimuli/rescaled_final/0886_rv.mp4	0.0	199.3401379585266	1.0001041889190674
31	160.53249502182007	pulse	0	t		29.0	2.5	/experiments/AOT/AOT_stimuli/rescaled_final/0886_rv.mp4	0.0	199.9237141609192	
31	160.94902300834656	movie	1		244	29.0	2.5	/experiments/AOT/AOT_stimuli/rescaled_final/0886_rv.mp4	0.0	200.34024214744568	2.4994938373565674
31	162.13254284858704	pulse	1	t		29.0	2.5	/experiments/AOT/AOT_stimuli/rescaled_final/0886_rv.mp4	0.0	201.52376198768616	
31	163.44851684570312	fix_post	2		12	29.0	2.5	/experiments/AOT/AOT_stimuli/rescaled_final/0886_rv.mp4	0.0	202.83973598480225	0.10040903091430664
32	163.54892587661743	fix_pre	0		120	30.0	2.5	/experiments/AOT/AOT_stimuli/rescaled_final/0388_rv.mp4	0.0	202.94014501571655	1.0000500679016113
32	163.73247385025024	pulse	0	t		30.0	2.5	/experiments/AOT/AOT_stimuli/rescaled_final/0388_rv.mp4	0.0	203.12369298934937	
32	164.54897594451904	movie	1		244	30.0	2.5	/experiments/AOT/AOT_stimuli/rescaled_final/0388_rv.mp4	0.0	203.94019508361816	2.499558925628662
32	165.3324339389801	pulse	1	t		30.0	2.5	/experiments/AOT/AOT_stimuli/rescaled_final/0388_rv.mp4	0.0	204.72365307807922	
32	166.92848896980286	pulse	1	t		30.0	2.5	/experiments/AOT/AOT_stimuli/rescaled_final/0388_rv.mp4	0.0	206.31970810890198	
32	167.0485348701477	fix_post	2		12	30.0	2.5	/experiments/AOT/AOT_stimuli/rescaled_final/0388_rv.mp4	0.0	206.43975400924683	0.10045409202575684
33	167.14898896217346	fix_pre	0		120	31.0	2.5	/experiments/AOT/AOT_stimuli/rescaled_final/0076_fw.mp4	0.0	206.54020810127258	0.9997010231018066
33	168.14868998527527	movie	1		246	31.0	2.5	/experiments/AOT/AOT_stimuli/rescaled_final/0076_fw.mp4	0.0	207.5399091243744	2.500504970550537
33	168.53155779838562	pulse	1	t		31.0	2.5	/experiments/AOT/AOT_stimuli/rescaled_final/0076_fw.mp4	0.0	207.92277693748474	
33	170.1323139667511	pulse	1	t		31.0	2.5	/experiments/AOT/AOT_stimuli/rescaled_final/0076_fw.mp4	0.0	209.52353310585022	
33	170.6491949558258	fix_post	2		12	31.0	2.5	/experiments/AOT/AOT_stimuli/rescaled_final/0076_fw.mp4	0.0	210.04041409492493	0.09964799880981445
34	170.74884295463562	fix_pre	0		119	32.0	2.5	/experiments/AOT/AOT_stimuli/rescaled_final/0701_rv.mp4	0.0	210.14006209373474	0.9918539524078369
34	171.73246479034424	pulse	0	t		32.0	2.5	/experiments/AOT/AOT_stimuli/rescaled_final/0701_rv.mp4	0.0	211.12368392944336	
34	171.74069690704346	movie	1		245	32.0	2.5	/experiments/AOT/AOT_stimuli/rescaled_final/0701_rv.mp4	0.0	211.13191604614258	2.508258104324341
34	173.331866979599	pulse	1	t		32.0	2.5	/experiments/AOT/AOT_stimuli/rescaled_final/0701_rv.mp4	0.0	212.72308611869812	
34	174.2489550113678	fix_post	2		12	32.0	2.5	/experiments/AOT/AOT_stimuli/rescaled_final/0701_rv.mp4	0.0	213.64017415046692	0.09997081756591797
35	174.34892582893372	fix_pre	0		120	33.0	2.5	blank	1.0	213.74014496803284	1.0000791549682617
35	174.93239998817444	pulse	0	t		33.0	2.5	blank	1.0	214.32361912727356	
35	175.34900498390198	movie	1		300	33.0	2.5	blank	1.0	214.7402241230011	2.499969005584717
35	176.53234887123108	pulse	1	t		33.0	2.5	blank	1.0	215.9235680103302	
35	177.8489739894867	fix_post	2		12	33.0	2.5	blank	1.0	217.24019312858582	0.10001897811889648
36	177.9489929676056	fix_pre	0		120	34.0	2.5	/experiments/AOT/AOT_stimuli/rescaled_final/2069_rv.mp4	0.0	217.3402121067047	0.999953031539917
36	178.13239884376526	pulse	0	t		34.0	2.5	/experiments/AOT/AOT_stimuli/rescaled_final/2069_rv.mp4	0.0	217.52361798286438	
36	178.9489459991455	movie	1		246	34.0	2.5	/experiments/AOT/AOT_stimuli/rescaled_final/2069_rv.mp4	0.0	218.34016513824463	2.499544858932495
36	179.7322587966919	pulse	1	t		34.0	2.5	/experiments/AOT/AOT_stimuli/rescaled_final/2069_rv.mp4	0.0	219.12347793579102	
36	181.3283839225769	pulse	1	t		34.0	2.5	/experiments/AOT/AOT_stimuli/rescaled_final/2069_rv.mp4	0.0	220.71960306167603	
36	181.448490858078	fix_post	2		12	34.0	2.5	/experiments/AOT/AOT_stimuli/rescaled_final/2069_rv.mp4	0.0	220.83970999717712	0.10032916069030762
37	181.5488200187683	fix_pre	0		120	35.0	2.5	/experiments/AOT/AOT_stimuli/rescaled_final/0069_fw.mp4	0.0	220.94003915786743	0.9999959468841553
37	182.54881596565247	movie	1		246	35.0	2.5	/experiments/AOT/AOT_stimuli/rescaled_final/0069_fw.mp4	0.0	221.9400351047516	2.5001418590545654
37	182.9320809841156	pulse	1	t		35.0	2.5	/experiments/AOT/AOT_stimuli/rescaled_final/0069_fw.mp4	0.0	222.32330012321472	
37	184.5323429107666	pulse	1	t		35.0	2.5	/experiments/AOT/AOT_stimuli/rescaled_final/0069_fw.mp4	0.0	223.92356204986572	
37	185.04895782470703	fix_post	2		12	35.0	2.5	/experiments/AOT/AOT_stimuli/rescaled_final/0069_fw.mp4	0.0	224.44017696380615	0.09990310668945312
38	185.14886093139648	fix_pre	0		119	36.0	2.5	/experiments/AOT/AOT_stimuli/rescaled_final/0051_fw.mp4	0.0	224.5400800704956	0.9916739463806152
38	186.13231492042542	pulse	0	t		36.0	2.5	/experiments/AOT/AOT_stimuli/rescaled_final/0051_fw.mp4	0.0	225.52353405952454	
38	186.1405348777771	movie	1		246	36.0	2.5	/experiments/AOT/AOT_stimuli/rescaled_final/0051_fw.mp4	0.0	225.53175401687622	2.5083510875701904
38	187.7322759628296	pulse	1	t		36.0	2.5	/experiments/AOT/AOT_stimuli/rescaled_final/0051_fw.mp4	0.0	227.1234951019287	
38	188.6488859653473	fix_post	2		12	36.0	2.5	/experiments/AOT/AOT_stimuli/rescaled_final/0051_fw.mp4	0.0	228.0401051044464	0.09956192970275879
39	188.74844789505005	fix_pre	0		120	37.0	2.5	/experiments/AOT/AOT_stimuli/rescaled_final/1209_fw.mp4	0.0	228.13966703414917	1.0004079341888428
39	189.33366084098816	pulse	0	t		37.0	2.5	/experiments/AOT/AOT_stimuli/rescaled_final/1209_fw.mp4	0.0	228.72487998008728	
39	189.7488558292389	movie	1		247	37.0	2.5	/experiments/AOT/AOT_stimuli/rescaled_final/1209_fw.mp4	0.0	229.140074968338	2.499986171722412
39	190.9323709011078	pulse	1	t		37.0	2.5	/experiments/AOT/AOT_stimuli/rescaled_final/1209_fw.mp4	0.0	230.3235900402069	
39	192.2488420009613	fix_post	2		12	37.0	2.5	/experiments/AOT/AOT_stimuli/rescaled_final/1209_fw.mp4	0.0	231.64006114006042	0.09996485710144043
40	192.34880685806274	fix_pre	0		120	38.0	2.5	/experiments/AOT/AOT_stimuli/rescaled_final/1530_rv.mp4	0.0	231.74002599716187	1.0001120567321777
40	192.5322539806366	pulse	0	t		38.0	2.5	/experiments/AOT/AOT_stimuli/rescaled_final/1530_rv.mp4	0.0	231.92347311973572	
40	193.34891891479492	movie	1		244	38.0	2.5	/experiments/AOT/AOT_stimuli/rescaled_final/1530_rv.mp4	0.0	232.74013805389404	2.499929904937744
40	194.13233995437622	pulse	1	t		38.0	2.5	/experiments/AOT/AOT_stimuli/rescaled_final/1530_rv.mp4	0.0	233.52355909347534	
40	195.73102402687073	pulse	1	t		38.0	2.5	/experiments/AOT/AOT_stimuli/rescaled_final/1530_rv.mp4	0.0	235.12224316596985	
40	195.84884881973267	fix_post	2		12	38.0	2.5	/experiments/AOT/AOT_stimuli/rescaled_final/1530_rv.mp4	0.0	235.2400679588318	0.09997105598449707
41	195.94881987571716	fix_pre	0		120	39.0	2.5	/experiments/AOT/AOT_stimuli/rescaled_final/0350_fw.mp4	0.0	235.34003901481628	0.9999949932098389
41	196.948814868927	movie	1		243	39.0	2.5	/experiments/AOT/AOT_stimuli/rescaled_final/0350_fw.mp4	0.0	236.34003400802612	2.499925136566162
41	197.33186888694763	pulse	1	t		39.0	2.5	/experiments/AOT/AOT_stimuli/rescaled_final/0350_fw.mp4	0.0	236.72308802604675	
41	198.93227696418762	pulse	1	t		39.0	2.5	/experiments/AOT/AOT_stimuli/rescaled_final/0350_fw.mp4	0.0	238.32349610328674	
41	199.44874000549316	fix_post	2		12	39.0	2.5	/experiments/AOT/AOT_stimuli/rescaled_final/0350_fw.mp4	0.0	238.83995914459229	0.09964299201965332
42	199.54838299751282	fix_pre	0		119	40.0	2.5	/experiments/AOT/AOT_stimuli/rescaled_final/1284_fw.mp4	0.0	238.93960213661194	0.9920928478240967
42	200.53231191635132	pulse	0	t		40.0	2.5	/experiments/AOT/AOT_stimuli/rescaled_final/1284_fw.mp4	0.0	239.92353105545044	
42	200.5404758453369	movie	1		245	40.0	2.5	/experiments/AOT/AOT_stimuli/rescaled_final/1284_fw.mp4	0.0	239.93169498443604	2.5078799724578857
42	202.1322808265686	pulse	1	t		40.0	2.5	/experiments/AOT/AOT_stimuli/rescaled_final/1284_fw.mp4	0.0	241.52349996566772	
42	203.0483558177948	fix_post	2		12	40.0	2.5	/experiments/AOT/AOT_stimuli/rescaled_final/1284_fw.mp4	0.0	242.43957495689392	0.10039901733398438
43	203.14875483512878	fix_pre	0		120	41.0	2.5	/experiments/AOT/AOT_stimuli/rescaled_final/0805_rv.mp4	0.0	242.5399739742279	1.0000619888305664
43	203.73225688934326	pulse	0	t		41.0	2.5	/experiments/AOT/AOT_stimuli/rescaled_final/0805_rv.mp4	0.0	243.12347602844238	
43	204.14881682395935	movie	1		245	41.0	2.5	/experiments/AOT/AOT_stimuli/rescaled_final/0805_rv.mp4	0.0	243.54003596305847	2.499880075454712
43	205.3323199748993	pulse	1	t		41.0	2.5	/experiments/AOT/AOT_stimuli/rescaled_final/0805_rv.mp4	0.0	244.7235391139984	
43	206.64869689941406	fix_post	2		12	41.0	2.5	/experiments/AOT/AOT_stimuli/rescaled_final/0805_rv.mp4	0.0	246.03991603851318	0.10013198852539062
44	206.74882888793945	fix_pre	0		120	42.0	2.5	blank	1.0	246.14004802703857	0.9998729228973389
44	206.93230891227722	pulse	0	t		42.0	2.5	blank	1.0	246.32352805137634	
44	207.7487018108368	movie	1		300	42.0	2.5	blank	1.0	247.1399209499359	2.500044107437134
44	208.53237295150757	pulse	1	t		42.0	2.5	blank	1.0	247.9235920906067	
44	210.13222193717957	pulse	1	t		42.0	2.5	blank	1.0	249.5234410762787	
44	210.24874591827393	fix_post	2		12	42.0	2.5	blank	1.0	249.63996505737305	0.09999489784240723
45	210.34874081611633	fix_pre	0		120	43.0	2.5	/experiments/AOT/AOT_stimuli/rescaled_final/1267_rv.mp4	0.0	249.73995995521545	0.9995410442352295
45	211.34828186035156	movie	1		247	43.0	2.5	/experiments/AOT/AOT_stimuli/rescaled_final/1267_rv.mp4	0.0	250.73950099945068	2.5003981590270996
45	211.73186898231506	pulse	1	t		43.0	2.5	/experiments/AOT/AOT_stimuli/rescaled_final/1267_rv.mp4	0.0	251.12308812141418	
45	213.3322319984436	pulse	1	t		43.0	2.5	/experiments/AOT/AOT_stimuli/rescaled_final/1267_rv.mp4	0.0	252.72345113754272	
45	213.84868001937866	fix_post	2		12	43.0	2.5	/experiments/AOT/AOT_stimuli/rescaled_final/1267_rv.mp4	0.0	253.23989915847778	0.10006093978881836
46	213.94874095916748	fix_pre	0		119	44.0	2.5	/experiments/AOT/AOT_stimuli/rescaled_final/2089_fw.mp4	0.0	253.3399600982666	0.9915690422058105
46	214.93223094940186	pulse	0	t		44.0	2.5	/experiments/AOT/AOT_stimuli/rescaled_final/2089_fw.mp4	0.0	254.32345008850098	
46	214.9403100013733	movie	1		244	44.0	2.5	/experiments/AOT/AOT_stimuli/rescaled_final/2089_fw.mp4	0.0	254.3315291404724	2.508410930633545
46	216.5316879749298	pulse	1	t		44.0	2.5	/experiments/AOT/AOT_stimuli/rescaled_final/2089_fw.mp4	0.0	255.92290711402893	
46	217.44872093200684	fix_post	2		12	44.0	2.5	/experiments/AOT/AOT_stimuli/rescaled_final/2089_fw.mp4	0.0	256.83994007110596	0.1000509262084961
47	217.54877185821533	fix_pre	0		120	45.0	2.5	/experiments/AOT/AOT_stimuli/rescaled_final/1012_fw.mp4	0.0	256.93999099731445	0.9999310970306396
47	218.1322009563446	pulse	0	t		45.0	2.5	/experiments/AOT/AOT_stimuli/rescaled_final/1012_fw.mp4	0.0	257.5234200954437	
47	218.54870295524597	movie	1		244	45.0	2.5	/experiments/AOT/AOT_stimuli/rescaled_final/1012_fw.mp4	0.0	257.9399220943451	2.4999730587005615
47	219.73225378990173	pulse	1	t		45.0	2.5	/experiments/AOT/AOT_stimuli/rescaled_final/1012_fw.mp4	0.0	259.12347292900085	
47	221.04867601394653	fix_post	2		12	45.0	2.5	/experiments/AOT/AOT_stimuli/rescaled_final/1012_fw.mp4	0.0	260.43989515304565	0.09959077835083008
48	221.14826679229736	fix_pre	0		120	46.0	2.5	/experiments/AOT/AOT_stimuli/rescaled_final/1153_fw.mp4	0.0	260.5394859313965	1.0004181861877441
48	221.33218097686768	pulse	0	t		46.0	2.5	/experiments/AOT/AOT_stimuli/rescaled_final/1153_fw.mp4	0.0	260.7234001159668	
48	222.1486849784851	movie	1		247	46.0	2.5	/experiments/AOT/AOT_stimuli/rescaled_final/1153_fw.mp4	0.0	261.53990411758423	2.4996938705444336
48	222.93216681480408	pulse	1	t		46.0	2.5	/experiments/AOT/AOT_stimuli/rescaled_final/1153_fw.mp4	0.0	262.3233859539032	
48	224.5322549343109	pulse	1	t		46.0	2.5	/experiments/AOT/AOT_stimuli/rescaled_final/1153_fw.mp4	0.0	263.92347407341003	
48	224.64837884902954	fix_post	2		12	46.0	2.5	/experiments/AOT/AOT_stimuli/rescaled_final/1153_fw.mp4	0.0	264.03959798812866	0.10001611709594727
49	224.7483949661255	fix_pre	0		120	47.0	2.5	/experiments/AOT/AOT_stimuli/rescaled_final/1974_rv.mp4	0.0	264.1396141052246	1.000148057937622
49	225.7485430240631	movie	1		244	47.0	2.5	/experiments/AOT/AOT_stimuli/rescaled_final/1974_rv.mp4	0.0	265.13976216316223	2.5001628398895264
49	226.13160490989685	pulse	1	t		47.0	2.5	/experiments/AOT/AOT_stimuli/rescaled_final/1974_rv.mp4	0.0	265.522824048996	
49	227.73206901550293	pulse	1	t		47.0	2.5	/experiments/AOT/AOT_stimuli/rescaled_final/1974_rv.mp4	0.0	267.12328815460205	
49	228.24870586395264	fix_post	2		12	47.0	2.5	/experiments/AOT/AOT_stimuli/rescaled_final/1974_rv.mp4	0.0	267.63992500305176	0.09994792938232422
50	228.34865379333496	fix_pre	0		119	48.0	2.5	blank	1.0	267.7398729324341	0.9916582107543945
50	229.33221697807312	pulse	0	t		48.0	2.5	blank	1.0	268.72343611717224	
50	229.34031200408936	movie	1		301	48.0	2.5	blank	1.0	268.7315311431885	2.5082709789276123
50	230.9321219921112	pulse	1	t		48.0	2.5	blank	1.0	270.3233411312103	
50	231.84858298301697	fix_post	2		12	48.0	2.5	blank	1.0	271.2398021221161	0.10012984275817871
51	231.94871282577515	fix_pre	0		120	49.0	2.5	/experiments/AOT/AOT_stimuli/rescaled_final/0522_rv.mp4	0.0	271.33993196487427	0.9994871616363525
51	232.5320279598236	pulse	0	t		49.0	2.5	/experiments/AOT/AOT_stimuli/rescaled_final/0522_rv.mp4	0.0	271.92324709892273	
51	232.9481999874115	movie	1		245	49.0	2.5	/experiments/AOT/AOT_stimuli/rescaled_final/0522_rv.mp4	0.0	272.3394191265106	2.500478982925415
51	234.1321029663086	pulse	1	t		49.0	2.5	/experiments/AOT/AOT_stimuli/rescaled_final/0522_rv.mp4	0.0	273.5233221054077	
51	235.4486789703369	fix_post	2		12	49.0	2.5	/experiments/AOT/AOT_stimuli/rescaled_final/0522_rv.mp4	0.0	274.83989810943604	0.099517822265625
52	235.54819679260254	fix_pre	0		120	50.0	2.5	/experiments/AOT/AOT_stimuli/rescaled_final/0577_rv.mp4	0.0	274.93941593170166	1.0005061626434326
52	235.73203587532043	pulse	0	t		50.0	2.5	/experiments/AOT/AOT_stimuli/rescaled_final/0577_rv.mp4	0.0	275.12325501441956	
52	236.54870295524597	movie	1		245	50.0	2.5	/experiments/AOT/AOT_stimuli/rescaled_final/0577_rv.mp4	0.0	275.9399220943451	2.4998879432678223
52	237.3320620059967	pulse	1	t		50.0	2.5	/experiments/AOT/AOT_stimuli/rescaled_final/0577_rv.mp4	0.0	276.7232811450958	
52	238.93067002296448	pulse	1	t		50.0	2.5	/experiments/AOT/AOT_stimuli/rescaled_final/0577_rv.mp4	0.0	278.3218891620636	
52	239.0485908985138	fix_post	2		12	50.0	2.5	/experiments/AOT/AOT_stimuli/rescaled_final/0577_rv.mp4	0.0	278.4398100376129	0.10009193420410156
53	239.1486828327179	fix_pre	0		120	51.0	2.5	/experiments/AOT/AOT_stimuli/rescaled_final/0356_fw.mp4	0.0	278.539901971817	0.9999570846557617
53	240.14863991737366	movie	1		245	51.0	2.5	/experiments/AOT/AOT_stimuli/rescaled_final/0356_fw.mp4	0.0	279.5398590564728	2.500070095062256
53	240.531574010849	pulse	1	t		51.0	2.5	/experiments/AOT/AOT_stimuli/rescaled_final/0356_fw.mp4	0.0	279.9227931499481	
53	242.13222193717957	pulse	1	t		51.0	2.5	/experiments/AOT/AOT_stimuli/rescaled_final/0356_fw.mp4	0.0	281.5234410762787	
53	242.6487100124359	fix_post	2		12	51.0	2.5	/experiments/AOT/AOT_stimuli/rescaled_final/0356_fw.mp4	0.0	282.03992915153503	0.09983181953430176
54	242.74854183197021	fix_pre	0		119	52.0	2.5	/experiments/AOT/AOT_stimuli/rescaled_final/1449_fw.mp4	0.0	282.13976097106934	0.9917709827423096
54	243.73206782341003	pulse	0	t		52.0	2.5	/experiments/AOT/AOT_stimuli/rescaled_final/1449_fw.mp4	0.0	283.12328696250916	
54	243.74031281471252	movie	1		247	52.0	2.5	/experiments/AOT/AOT_stimuli/rescaled_final/1449_fw.mp4	0.0	283.13153195381165	2.5082499980926514
54	245.33193588256836	pulse	1	t		52.0	2.5	/experiments/AOT/AOT_stimuli/rescaled_final/1449_fw.mp4	0.0	284.7231550216675	
54	246.24856281280518	fix_post	2		12	52.0	2.5	/experiments/AOT/AOT_stimuli/rescaled_final/1449_fw.mp4	0.0	285.6397819519043	0.10002708435058594
55	246.34858989715576	fix_pre	0		120	53.0	2.5	/experiments/AOT/AOT_stimuli/rescaled_final/0075_rv.mp4	0.0	285.7398090362549	0.9999649524688721
55	246.93201780319214	pulse	0	t		53.0	2.5	/experiments/AOT/AOT_stimuli/rescaled_final/0075_rv.mp4	0.0	286.32323694229126	
55	247.34855484962463	movie	1		244	53.0	2.5	/experiments/AOT/AOT_stimuli/rescaled_final/0075_rv.mp4	0.0	286.73977398872375	2.500221014022827
55	248.53204488754272	pulse	1	t		53.0	2.5	/experiments/AOT/AOT_stimuli/rescaled_final/0075_rv.mp4	0.0	287.92326402664185	
55	249.84877586364746	fix_post	2		12	53.0	2.5	/experiments/AOT/AOT_stimuli/rescaled_final/0075_rv.mp4	0.0	289.2399950027466	0.09976696968078613
56	249.94854283332825	fix_pre	0		120	54.0	2.5	blank	1.0	289.33976197242737	1.0000419616699219
56	250.13219094276428	pulse	0	t		54.0	2.5	blank	1.0	289.5234100818634	
56	250.94858479499817	movie	1		300	54.0	2.5	blank	1.0	290.3398039340973	2.4994661808013916
56	251.7319519519806	pulse	1	t		54.0	2.5	blank	1.0	291.1231710910797	
56	253.33203983306885	pulse	1	t		54.0	2.5	blank	1.0	292.72325897216797	
56	253.44805097579956	fix_post	2		12	54.0	2.5	blank	1.0	292.8392701148987	0.1000528335571289
57	253.5481038093567	fix_pre	0		120	55.0	2.5	/experiments/AOT/AOT_stimuli/rescaled_final/0115_rv.mp4	0.0	292.9393229484558	1.0005240440368652
57	254.54862785339355	movie	1		246	55.0	2.5	/experiments/AOT/AOT_stimuli/rescaled_final/0115_rv.mp4	0.0	293.9398469924927	2.5000391006469727
57	254.93158984184265	pulse	1	t		55.0	2.5	/experiments/AOT/AOT_stimuli/rescaled_final/0115_rv.mp4	0.0	294.3228089809418	
57	256.53200602531433	pulse	1	t		55.0	2.5	/experiments/AOT/AOT_stimuli/rescaled_final/0115_rv.mp4	0.0	295.92322516441345	
57	257.0486669540405	fix_post	2		12	55.0	2.5	/experiments/AOT/AOT_stimuli/rescaled_final/0115_rv.mp4	0.0	296.43988609313965	0.09986591339111328
58	257.14853286743164	fix_pre	0		119	56.0	2.5	/experiments/AOT/AOT_stimuli/rescaled_final/1260_fw.mp4	0.0	296.53975200653076	0.9916579723358154
58	258.13202691078186	pulse	0	t		56.0	2.5	/experiments/AOT/AOT_stimuli/rescaled_final/1260_fw.mp4	0.0	297.523246049881	
58	258.14019083976746	movie	1		247	56.0	2.5	/experiments/AOT/AOT_stimuli/rescaled_final/1260_fw.mp4	0.0	297.5314099788666	2.50828218460083
58	259.73162388801575	pulse	1	t		56.0	2.5	/experiments/AOT/AOT_stimuli/rescaled_final/1260_fw.mp4	0.0	299.12284302711487	
58	260.6484730243683	fix_post	2		12	56.0	2.5	/experiments/AOT/AOT_stimuli/rescaled_final/1260_fw.mp4	0.0	300.0396921634674	0.10004281997680664
59	260.7485158443451	fix_pre	0		120	57.0	2.5	/experiments/AOT/AOT_stimuli/rescaled_final/1260_rv.mp4	0.0	300.1397349834442	0.9999630451202393
59	261.33204102516174	pulse	0	t		57.0	2.5	/experiments/AOT/AOT_stimuli/rescaled_final/1260_rv.mp4	0.0	300.72326016426086	
59	261.74847888946533	movie	1		246	57.0	2.5	/experiments/AOT/AOT_stimuli/rescaled_final/1260_rv.mp4	0.0	301.13969802856445	2.499547004699707
59	262.9320228099823	pulse	1	t		57.0	2.5	/experiments/AOT/AOT_stimuli/rescaled_final/1260_rv.mp4	0.0	302.3232419490814	
59	264.24802589416504	fix_post	2		12	57.0	2.5	/experiments/AOT/AOT_stimuli/rescaled_final/1260_rv.mp4	0.0	303.63924503326416	0.10045289993286133
60	264.3484787940979	fix_pre	0		120	58.0	2.5	/experiments/AOT/AOT_stimuli/rescaled_final/0283_fw.mp4	0.0	303.739697933197	0.9999639987945557
60	264.53194880485535	pulse	0	t		58.0	2.5	/experiments/AOT/AOT_stimuli/rescaled_final/0283_fw.mp4	0.0	303.92316794395447	
60	265.34844279289246	movie	1		244	58.0	2.5	/experiments/AOT/AOT_stimuli/rescaled_final/0283_fw.mp4	0.0	304.7396619319916	2.5000061988830566
60	266.1319508552551	pulse	1	t		58.0	2.5	/experiments/AOT/AOT_stimuli/rescaled_final/0283_fw.mp4	0.0	305.52316999435425	
60	267.73087096214294	pulse	1	t		58.0	2.5	/experiments/AOT/AOT_stimuli/rescaled_final/0283_fw.mp4	0.0	307.12209010124207	
60	267.8484489917755	fix_post	2		12	58.0	2.5	/experiments/AOT/AOT_stimuli/rescaled_final/0283_fw.mp4	0.0	307.23966813087463	0.09969782829284668
61	267.94814682006836	fix_pre	0		120	59.0	2.5	/experiments/AOT/AOT_stimuli/rescaled_final/0493_fw.mp4	0.0	307.3393659591675	1.0003750324249268
61	268.9485218524933	movie	1		244	59.0	2.5	/experiments/AOT/AOT_stimuli/rescaled_final/0493_fw.mp4	0.0	308.3397409915924	2.499485969543457
61	269.33170199394226	pulse	1	t		59.0	2.5	/experiments/AOT/AOT_stimuli/rescaled_final/0493_fw.mp4	0.0	308.7229211330414	
61	270.93200397491455	pulse	1	t		59.0	2.5	/experiments/AOT/AOT_stimuli/rescaled_final/0493_fw.mp4	0.0	310.3232231140137	
61	271.44800782203674	fix_post	2		12	59.0	2.5	/experiments/AOT/AOT_stimuli/rescaled_final/0493_fw.mp4	0.0	310.83922696113586	0.10037398338317871
62	271.5483818054199	fix_pre	0		119	60.0	2.5	/experiments/AOT/AOT_stimuli/rescaled_final/0893_rv.mp4	0.0	310.93960094451904	0.9916701316833496
62	272.53187894821167	pulse	0	t		60.0	2.5	/experiments/AOT/AOT_stimuli/rescaled_final/0893_rv.mp4	0.0	311.9230980873108	
62	272.54005193710327	movie	1		244	60.0	2.5	/experiments/AOT/AOT_stimuli/rescaled_final/0893_rv.mp4	0.0	311.9312710762024	2.5083539485931396
62	274.13138484954834	pulse	1	t		60.0	2.5	/experiments/AOT/AOT_stimuli/rescaled_final/0893_rv.mp4	0.0	313.52260398864746	
62	275.0484058856964	fix_post	2		12	60.0	2.5	/experiments/AOT/AOT_stimuli/rescaled_final/0893_rv.mp4	0.0	314.43962502479553	0.09998106956481934
63	275.14838695526123	fix_pre	0		120	61.0	2.5	/experiments/AOT/AOT_stimuli/rescaled_final/0673_fw.mp4	0.0	314.53960609436035	0.999985933303833
63	275.7319209575653	pulse	0	t		61.0	2.5	/experiments/AOT/AOT_stimuli/rescaled_final/0673_fw.mp4	0.0	315.12314009666443	
63	276.14837288856506	movie	1		244	61.0	2.5	/experiments/AOT/AOT_stimuli/rescaled_final/0673_fw.mp4	0.0	315.5395920276642	2.4999639987945557
63	277.3318889141083	pulse	1	t		61.0	2.5	/experiments/AOT/AOT_stimuli/rescaled_final/0673_fw.mp4	0.0	316.7231080532074	
63	278.6483368873596	fix_post	2		12	61.0	2.5	/experiments/AOT/AOT_stimuli/rescaled_final/0673_fw.mp4	0.0	318.03955602645874	0.10003900527954102
64	278.74837589263916	fix_pre	0		120	62.0	2.5	/experiments/AOT/AOT_stimuli/rescaled_final/1609_rv.mp4	0.0	318.1395950317383	0.9999420642852783
64	278.93198585510254	pulse	0	t		62.0	2.5	/experiments/AOT/AOT_stimuli/rescaled_final/1609_rv.mp4	0.0	318.32320499420166	
64	279.74831795692444	movie	1		244	62.0	2.5	/experiments/AOT/AOT_stimuli/rescaled_final/1609_rv.mp4	0.0	319.13953709602356	2.5003600120544434
64	280.53151679039	pulse	1	t		62.0	2.5	/experiments/AOT/AOT_stimuli/rescaled_final/1609_rv.mp4	0.0	319.92273592948914	
64	282.1308238506317	pulse	1	t		62.0	2.5	/experiments/AOT/AOT_stimuli/rescaled_final/1609_rv.mp4	0.0	321.52204298973083	
64	282.2486779689789	fix_post	2		12	62.0	2.5	/experiments/AOT/AOT_stimuli/rescaled_final/1609_rv.mp4	0.0	321.639897108078	0.09963083267211914
65	282.348308801651	fix_pre	0		120	63.0	2.5	blank	1.0	321.7395279407501	1.000143051147461
65	283.34845185279846	movie	1		300	63.0	2.5	blank	1.0	322.7396709918976	2.499917984008789
65	283.73189401626587	pulse	1	t		63.0	2.5	blank	1.0	323.123113155365	
65	285.3318419456482	pulse	1	t		63.0	2.5	blank	1.0	324.7230610847473	
65	285.84836983680725	fix_post	2		12	63.0	2.5	blank	1.0	325.2395889759064	0.10000205039978027
66	285.94837188720703	fix_pre	0		119	64.0	2.5	/experiments/AOT/AOT_stimuli/rescaled_final/0749_fw.mp4	0.0	325.33959102630615	0.9916529655456543
66	286.9317967891693	pulse	0	t		64.0	2.5	/experiments/AOT/AOT_stimuli/rescaled_final/0749_fw.mp4	0.0	326.32301592826843	
66	286.9400248527527	movie	1		245	64.0	2.5	/experiments/AOT/AOT_stimuli/rescaled_final/0749_fw.mp4	0.0	326.3312439918518	2.5083651542663574
66	288.53202390670776	pulse	1	t		64.0	2.5	/experiments/AOT/AOT_stimuli/rescaled_final/0749_fw.mp4	0.0	327.9232430458069	
66	289.44839000701904	fix_post	2		12	64.0	2.5	/experiments/AOT/AOT_stimuli/rescaled_final/0749_fw.mp4	0.0	328.83960914611816	0.0995168685913086
67	289.54790687561035	fix_pre	0		120	65.0	2.5	/experiments/AOT/AOT_stimuli/rescaled_final/0090_fw.mp4	0.0	328.9391260147095	1.0004301071166992
67	290.1317939758301	pulse	0	t		65.0	2.5	/experiments/AOT/AOT_stimuli/rescaled_final/0090_fw.mp4	0.0	329.5230131149292	
67	290.54833698272705	movie	1		247	65.0	2.5	/experiments/AOT/AOT_stimuli/rescaled_final/0090_fw.mp4	0.0	329.9395561218262	2.499955892562866
67	291.7318859100342	pulse	1	t		65.0	2.5	/experiments/AOT/AOT_stimuli/rescaled_final/0090_fw.mp4	0.0	331.1231050491333	
67	293.0482928752899	fix_post	2		12	65.0	2.5	/experiments/AOT/AOT_stimuli/rescaled_final/0090_fw.mp4	0.0	332.43951201438904	0.1000370979309082
68	293.1483299732208	fix_pre	0		120	66.0	2.5	/experiments/AOT/AOT_stimuli/rescaled_final/0877_rv.mp4	0.0	332.53954911231995	1.0000228881835938
68	293.3317940235138	pulse	0	t		66.0	2.5	/experiments/AOT/AOT_stimuli/rescaled_final/0877_rv.mp4	0.0	332.7230131626129	
68	294.1483528614044	movie	1		245	66.0	2.5	/experiments/AOT/AOT_stimuli/rescaled_final/0877_rv.mp4	0.0	333.53957200050354	2.4999160766601562
68	294.931804895401	pulse	1	t		66.0	2.5	/experiments/AOT/AOT_stimuli/rescaled_final/0877_rv.mp4	0.0	334.3230240345001	
68	296.5303819179535	pulse	1	t		66.0	2.5	/experiments/AOT/AOT_stimuli/rescaled_final/0877_rv.mp4	0.0	335.9216010570526	
68	296.6482689380646	fix_post	2		12	66.0	2.5	/experiments/AOT/AOT_stimuli/rescaled_final/0877_rv.mp4	0.0	336.0394880771637	0.10006308555603027
69	296.7483320236206	fix_pre	0		120	67.0	2.5	/experiments/AOT/AOT_stimuli/rescaled_final/0702_rv.mp4	0.0	336.1395511627197	0.9995729923248291
69	297.74790501594543	movie	1		245	67.0	2.5	/experiments/AOT/AOT_stimuli/rescaled_final/0702_rv.mp4	0.0	337.13912415504456	2.5004169940948486
69	298.13176798820496	pulse	1	t		67.0	2.5	/experiments/AOT/AOT_stimuli/rescaled_final/0702_rv.mp4	0.0	337.5229871273041	
69	299.7318367958069	pulse	1	t		67.0	2.5	/experiments/AOT/AOT_stimuli/rescaled_final/0702_rv.mp4	0.0	339.123055934906	
69	300.2483220100403	fix_post	2		12	67.0	2.5	/experiments/AOT/AOT_stimuli/rescaled_final/0702_rv.mp4	0.0	339.6395411491394	0.09996294975280762
70	300.3482849597931	fix_pre	0		119	68.0	2.5	/experiments/AOT/AOT_stimuli/rescaled_final/1170_fw.mp4	0.0	339.7395040988922	0.9916589260101318
70	301.3318178653717	pulse	0	t		68.0	2.5	/experiments/AOT/AOT_stimuli/rescaled_final/1170_fw.mp4	0.0	340.7230370044708	
70	301.3399438858032	movie	1		246	68.0	2.5	/experiments/AOT/AOT_stimuli/rescaled_final/1170_fw.mp4	0.0	340.73116302490234	2.5083301067352295
70	302.9320149421692	pulse	1	t		68.0	2.5	/experiments/AOT/AOT_stimuli/rescaled_final/1170_fw.mp4	0.0	342.3232340812683	
70	303.84827399253845	fix_post	2		12	68.0	2.5	/experiments/AOT/AOT_stimuli/rescaled_final/1170_fw.mp4	0.0	343.2394931316376	0.10000085830688477
71	303.94827485084534	fix_pre	0		120	69.0	2.5	blank	1.0	343.33949398994446	0.9999561309814453
71	304.5317168235779	pulse	0	t		69.0	2.5	blank	1.0	343.922935962677	
71	304.9482309818268	movie	1		300	69.0	2.5	blank	1.0	344.3394501209259	2.4999778270721436
71	306.1317868232727	pulse	1	t		69.0	2.5	blank	1.0	345.5230059623718	
71	307.4482088088989	fix_post	2		12	69.0	2.5	blank	1.0	346.83942794799805	0.1000361442565918
72	307.5482449531555	fix_pre	0		120	70.0	2.5	/experiments/AOT/AOT_stimuli/rescaled_final/1812_rv.mp4	0.0	346.93946409225464	1.0000040531158447
72	307.7317669391632	pulse	0	t		70.0	2.5	/experiments/AOT/AOT_stimuli/rescaled_final/1812_rv.mp4	0.0	347.12298607826233	
72	308.54824900627136	movie	1		245	70.0	2.5	/experiments/AOT/AOT_stimuli/rescaled_final/1812_rv.mp4	0.0	347.9394681453705	2.499936819076538
72	309.33174991607666	pulse	1	t		70.0	2.5	/experiments/AOT/AOT_stimuli/rescaled_final/1812_rv.mp4	0.0	348.7229690551758	
72	310.930459022522	pulse	1	t		70.0	2.5	/experiments/AOT/AOT_stimuli/rescaled_final/1812_rv.mp4	0.0	350.3216781616211	
72	311.0481858253479	fix_post	2		12	70.0	2.5	/experiments/AOT/AOT_stimuli/rescaled_final/1812_rv.mp4	0.0	350.439404964447	0.10005807876586914
73	311.14824390411377	fix_pre	0		120	71.0	2.5	/experiments/AOT/AOT_stimuli/rescaled_final/0893_rv.mp4	0.0	350.5394630432129	0.9999790191650391
73	312.1482229232788	movie	1		243	71.0	2.5	/experiments/AOT/AOT_stimuli/rescaled_final/0893_rv.mp4	0.0	351.53944206237793	2.4999990463256836
73	312.53135085105896	pulse	1	t		71.0	2.5	/experiments/AOT/AOT_stimuli/rescaled_final/0893_rv.mp4	0.0	351.9225699901581	
73	314.1317629814148	pulse	1	t		71.0	2.5	/experiments/AOT/AOT_stimuli/rescaled_final/0893_rv.mp4	0.0	353.5229821205139	
73	314.6482219696045	fix_post	2		12	71.0	2.5	/experiments/AOT/AOT_stimuli/rescaled_final/0893_rv.mp4	0.0	354.0394411087036	0.10000205039978027
74	314.7482240200043	fix_pre	0		119	72.0	2.5	/experiments/AOT/AOT_stimuli/rescaled_final/0882_rv.mp4	0.0	354.1394431591034	0.9916739463806152
74	315.73172402381897	pulse	0	t		72.0	2.5	/experiments/AOT/AOT_stimuli/rescaled_final/0882_rv.mp4	0.0	355.1229431629181	
74	315.7398979663849	movie	1		249	72.0	2.5	/experiments/AOT/AOT_stimuli/rescaled_final/0882_rv.mp4	0.0	355.131117105484	2.508384943008423
74	317.33290696144104	pulse	1	t		72.0	2.5	/experiments/AOT/AOT_stimuli/rescaled_final/0882_rv.mp4	0.0	356.72412610054016	
74	318.2482829093933	fix_post	2		12	72.0	2.5	/experiments/AOT/AOT_stimuli/rescaled_final/0882_rv.mp4	0.0	357.63950204849243	0.10000991821289062
75	318.3482928276062	fix_pre	0		120	73.0	2.5	/experiments/AOT/AOT_stimuli/rescaled_final/0076_fw.mp4	0.0	357.7395119667053	0.9998791217803955
75	318.93173480033875	pulse	0	t		73.0	2.5	/experiments/AOT/AOT_stimuli/rescaled_final/0076_fw.mp4	0.0	358.32295393943787	
75	319.3481719493866	movie	1		247	73.0	2.5	/experiments/AOT/AOT_stimuli/rescaled_final/0076_fw.mp4	0.0	358.7393910884857	2.500032901763916
75	320.53179693222046	pulse	1	t		73.0	2.5	/experiments/AOT/AOT_stimuli/rescaled_final/0076_fw.mp4	0.0	359.9230160713196	
75	321.8482048511505	fix_post	2		12	73.0	2.5	/experiments/AOT/AOT_stimuli/rescaled_final/0076_fw.mp4	0.0	361.23942399024963	0.09989309310913086
76	321.94809794425964	fix_pre	0		120	74.0	2.5	/experiments/AOT/AOT_stimuli/rescaled_final/0164_fw.mp4	0.0	361.33931708335876	1.000096082687378
76	322.13165283203125	pulse	0	t		74.0	2.5	/experiments/AOT/AOT_stimuli/rescaled_final/0164_fw.mp4	0.0	361.52287197113037	
76	322.948194026947	movie	1		244	74.0	2.5	/experiments/AOT/AOT_stimuli/rescaled_final/0164_fw.mp4	0.0	362.33941316604614	2.4996039867401123
76	323.73172998428345	pulse	1	t		74.0	2.5	/experiments/AOT/AOT_stimuli/rescaled_final/0164_fw.mp4	0.0	363.12294912338257	
76	325.3300919532776	pulse	1	t		74.0	2.5	/experiments/AOT/AOT_stimuli/rescaled_final/0164_fw.mp4	0.0	364.7213110923767	
76	325.44779801368713	fix_post	2		12	74.0	2.5	/experiments/AOT/AOT_stimuli/rescaled_final/0164_fw.mp4	0.0	364.83901715278625	0.10046100616455078
77	325.5482590198517	fix_pre	0		120	75.0	2.5	/experiments/AOT/AOT_stimuli/rescaled_final/1760_rv.mp4	0.0	364.9394781589508	0.9999849796295166
77	326.5482439994812	movie	1		244	75.0	2.5	/experiments/AOT/AOT_stimuli/rescaled_final/1760_rv.mp4	0.0	365.9394631385803	2.4995479583740234
77	326.93156695365906	pulse	1	t		75.0	2.5	/experiments/AOT/AOT_stimuli/rescaled_final/1760_rv.mp4	0.0	366.3227860927582	
77	328.53164291381836	pulse	1	t		75.0	2.5	/experiments/AOT/AOT_stimuli/rescaled_final/1760_rv.mp4	0.0	367.9228620529175	
77	329.0477919578552	fix_post	2		12	75.0	2.5	/experiments/AOT/AOT_stimuli/rescaled_final/1760_rv.mp4	0.0	368.43901109695435	0.10037088394165039
78	329.1481628417969	fix_pre	0		119	76.0	2.5	/experiments/AOT/AOT_stimuli/rescaled_final/1609_fw.mp4	0.0	368.539381980896	0.9917480945587158
78	330.1317048072815	pulse	0	t		76.0	2.5	/experiments/AOT/AOT_stimuli/rescaled_final/1609_fw.mp4	0.0	369.5229239463806	
78	330.1399109363556	movie	1		245	76.0	2.5	/experiments/AOT/AOT_stimuli/rescaled_final/1609_fw.mp4	0.0	369.5311300754547	2.5078909397125244
78	331.7311849594116	pulse	1	t		76.0	2.5	/experiments/AOT/AOT_stimuli/rescaled_final/1609_fw.mp4	0.0	371.12240409851074	
78	332.6478018760681	fix_post	2		12	76.0	2.5	/experiments/AOT/AOT_stimuli/rescaled_final/1609_fw.mp4	0.0	372.03902101516724	0.10035300254821777
79	332.74815487861633	fix_pre	0		120	77.0	2.5	blank	1.0	372.13937401771545	1.000082015991211
79	333.33166885375977	pulse	0	t		77.0	2.5	blank	1.0	372.7228879928589	
79	333.74823689460754	movie	1		300	77.0	2.5	blank	1.0	373.13945603370667	2.499630928039551
79	334.9316749572754	pulse	1	t		77.0	2.5	blank	1.0	374.3228940963745	
79	336.2478678226471	fix_post	2		12	77.0	2.5	blank	1.0	375.6390869617462	0.10028600692749023
80	336.3481538295746	fix_pre	0		120	78.0	2.5	/experiments/AOT/AOT_stimuli/rescaled_final/0733_rv.mp4	0.0	375.7393729686737	1.0001580715179443
80	336.531347990036	pulse	0	t		78.0	2.5	/experiments/AOT/AOT_stimuli/rescaled_final/0733_rv.mp4	0.0	375.92256712913513	
80	337.34831190109253	movie	1		247	78.0	2.5	/experiments/AOT/AOT_stimuli/rescaled_final/0733_rv.mp4	0.0	376.73953104019165	2.499804973602295
80	338.1314308643341	pulse	1	t		78.0	2.5	/experiments/AOT/AOT_stimuli/rescaled_final/0733_rv.mp4	0.0	377.5226500034332	
80	339.73116087913513	pulse	1	t		78.0	2.5	/experiments/AOT/AOT_stimuli/rescaled_final/0733_rv.mp4	0.0	379.12238001823425	
80	339.8481168746948	fix_post	2		12	78.0	2.5	/experiments/AOT/AOT_stimuli/rescaled_final/0733_rv.mp4	0.0	379.23933601379395	0.09998106956481934
81	339.94809794425964	fix_pre	0		120	79.0	2.5	/experiments/AOT/AOT_stimuli/rescaled_final/1980_fw.mp4	0.0	379.33931708335876	1.0000638961791992
81	340.94816184043884	movie	1		246	79.0	2.5	/experiments/AOT/AOT_stimuli/rescaled_final/1980_fw.mp4	0.0	380.33938097953796	2.500005006790161
81	341.33110094070435	pulse	1	t		79.0	2.5	/experiments/AOT/AOT_stimuli/rescaled_final/1980_fw.mp4	0.0	380.72232007980347	
81	342.93158984184265	pulse	1	t		79.0	2.5	/experiments/AOT/AOT_stimuli/rescaled_final/1980_fw.mp4	0.0	382.3228089809418	
81	343.448166847229	fix_post	2		12	79.0	2.5	/experiments/AOT/AOT_stimuli/rescaled_final/1980_fw.mp4	0.0	382.8393859863281	0.09991002082824707
82	343.54807686805725	fix_pre	0		119	80.0	2.5	/experiments/AOT/AOT_stimuli/rescaled_final/1838_fw.mp4	0.0	382.9392960071564	0.9915690422058105
82	344.53154587745667	pulse	0	t		80.0	2.5	/experiments/AOT/AOT_stimuli/rescaled_final/1838_fw.mp4	0.0	383.9227650165558	
82	344.53964591026306	movie	1		247	80.0	2.5	/experiments/AOT/AOT_stimuli/rescaled_final/1838_fw.mp4	0.0	383.9308650493622	2.5084290504455566
82	346.131187915802	pulse	1	t		80.0	2.5	/experiments/AOT/AOT_stimuli/rescaled_final/1838_fw.mp4	0.0	385.5224070549011	
82	347.0480749607086	fix_post	2		12	80.0	2.5	/experiments/AOT/AOT_stimuli/rescaled_final/1838_fw.mp4	0.0	386.43929409980774	0.09961700439453125
83	347.14769196510315	fix_pre	0		120	81.0	2.5	/experiments/AOT/AOT_stimuli/rescaled_final/0805_fw.mp4	0.0	386.53891110420227	1.0003669261932373
83	347.73147892951965	pulse	0	t		81.0	2.5	/experiments/AOT/AOT_stimuli/rescaled_final/0805_fw.mp4	0.0	387.1226980686188	
83	348.1480588912964	movie	1		246	81.0	2.5	/experiments/AOT/AOT_stimuli/rescaled_final/0805_fw.mp4	0.0	387.5392780303955	2.499545097351074
83	349.33154296875	pulse	1	t		81.0	2.5	/experiments/AOT/AOT_stimuli/rescaled_final/0805_fw.mp4	0.0	388.7227621078491	
83	350.64760398864746	fix_post	2		12	81.0	2.5	/experiments/AOT/AOT_stimuli/rescaled_final/0805_fw.mp4	0.0	390.0388231277466	0.10039782524108887
84	350.74800181388855	fix_pre	0		120	82.0	2.5	blank	1.0	390.13922095298767	1.0001020431518555
84	350.931480884552	pulse	0	t		82.0	2.5	blank	1.0	390.3227000236511	
84	351.7481038570404	movie	1		300	82.0	2.5	blank	1.0	391.1393229961395	2.4999051094055176
84	352.5314509868622	pulse	1	t		82.0	2.5	blank	1.0	391.9226701259613	
84	354.1314868927002	pulse	1	t		82.0	2.5	blank	1.0	393.5227060317993	
84	354.2480089664459	fix_post	2		12	82.0	2.5	blank	1.0	393.63922810554504	0.09999394416809082
85	354.348002910614	fix_pre	0		120	83.0	2.5	/experiments/AOT/AOT_stimuli/rescaled_final/0365_fw.mp4	0.0	393.73922204971313	0.999561071395874
85	355.3475639820099	movie	1		245	83.0	2.5	/experiments/AOT/AOT_stimuli/rescaled_final/0365_fw.mp4	0.0	394.738783121109	2.5011558532714844
85	355.7314238548279	pulse	1	t		83.0	2.5	/experiments/AOT/AOT_stimuli/rescaled_final/0365_fw.mp4	0.0	395.122642993927	
85	357.3314929008484	pulse	1	t		83.0	2.5	/experiments/AOT/AOT_stimuli/rescaled_final/0365_fw.mp4	0.0	396.7227120399475	
85	357.8487198352814	fix_post	2		12	83.0	2.5	/experiments/AOT/AOT_stimuli/rescaled_final/0365_fw.mp4	0.0	397.2399389743805	0.0992281436920166
87	357.9479479789734	stim	0		1716					397.3391671180725	14.300068855285645
87	358.93153500556946	pulse	0	t						398.3227541446686	
87	360.5315008163452	pulse	0	t						399.92271995544434	
87	362.13145780563354	pulse	0	t						401.52267694473267	
87	363.7314918041229	pulse	0	t						403.12271094322205	
87	365.33144998550415	pulse	0	t						404.72266912460327	
87	366.93140292167664	pulse	0	t						406.32262206077576	
87	368.53142499923706	pulse	0	t						407.9226441383362	
87	370.13144397735596	pulse	0	t						409.5226631164551	
87	371.7314519882202	pulse	0	t						411.12267112731934	
