trial_nr	onset	event_type	phase	response	nr_frames	movie_index	movie_duration	movie_file	blank	onset_abs	duration
0	0.13323497772216797	stim	0		108					49.19446587562561	0.8999731540679932
0	1.0251779556274414	response	0	space						50.086408853530884	
1	1.0332081317901611	stim	0		11303					50.0944390296936	94.19112491607666
1	95.21757817268372	pulse	0	t						144.27880907058716	
1	95.22433304786682	stim	1		1717					144.28556394577026	14.308314085006714
1	96.81612610816956	pulse	1	t						145.877357006073	
1	98.41614103317261	pulse	1	t						147.47737193107605	
1	100.01605916023254	pulse	1	t						149.077290058136	
1	101.61613512039185	pulse	1	t						150.6773660182953	
1	103.21610617637634	pulse	1	t						152.27733707427979	
1	104.81608605384827	pulse	1	t						153.8773169517517	
1	106.41609811782837	pulse	1	t						155.4773290157318	
1	108.01612615585327	pulse	1	t						157.0773570537567	
2	109.53264713287354	fix_pre	0		11	0.0	2.5	/experiments/AOT/AOT_stimuli/rescaled_final/0738_fw.mp4	0.0	158.59387803077698	0.09157705307006836
2	109.61616706848145	pulse	0	t		0.0	2.5	/experiments/AOT/AOT_stimuli/rescaled_final/0738_fw.mp4	0.0	158.6773979663849	
2	109.6242241859436	movie	1		244	0.0	2.5	/experiments/AOT/AOT_stimuli/rescaled_final/0738_fw.mp4	0.0	158.68545508384705	2.5084309577941895
2	111.21592807769775	pulse	1	t		0.0	2.5	/experiments/AOT/AOT_stimuli/rescaled_final/0738_fw.mp4	0.0	160.2771589756012	
2	112.1326551437378	fix_post	2		12	0.0	2.5	/experiments/AOT/AOT_stimuli/rescaled_final/0738_fw.mp4	0.0	161.19388604164124	0.09992098808288574
3	112.23257613182068	fix_pre	0		120	1.0	2.5	/experiments/AOT/AOT_stimuli/rescaled_final/0666_fw.mp4	0.0	161.29380702972412	0.9997048377990723
3	112.81608200073242	pulse	0	t		1.0	2.5	/experiments/AOT/AOT_stimuli/rescaled_final/0666_fw.mp4	0.0	161.87731289863586	
3	113.23228096961975	movie	1		241	1.0	2.5	/experiments/AOT/AOT_stimuli/rescaled_final/0666_fw.mp4	0.0	162.2935118675232	2.500378131866455
3	114.4161491394043	pulse	1	t		1.0	2.5	/experiments/AOT/AOT_stimuli/rescaled_final/0666_fw.mp4	0.0	163.47738003730774	
3	115.7326591014862	fix_post	2		12	1.0	2.5	/experiments/AOT/AOT_stimuli/rescaled_final/0666_fw.mp4	0.0	164.79388999938965	0.09991097450256348
4	115.83257007598877	fix_pre	0		120	2.0	2.5	/experiments/AOT/AOT_stimuli/rescaled_final/0186_rv.mp4	0.0	164.8938009738922	0.9997029304504395
4	116.01608109474182	pulse	0	t		2.0	2.5	/experiments/AOT/AOT_stimuli/rescaled_final/0186_rv.mp4	0.0	165.07731199264526	
4	116.83227300643921	movie	1		243	2.0	2.5	/experiments/AOT/AOT_stimuli/rescaled_final/0186_rv.mp4	0.0	165.89350390434265	2.4999210834503174
4	117.61604404449463	pulse	1	t		2.0	2.5	/experiments/AOT/AOT_stimuli/rescaled_final/0186_rv.mp4	0.0	166.67727494239807	
4	119.21467709541321	pulse	1	t		2.0	2.5	/experiments/AOT/AOT_stimuli/rescaled_final/0186_rv.mp4	0.0	168.27590799331665	
4	119.33219408988953	fix_post	2		12	2.0	2.5	/experiments/AOT/AOT_stimuli/rescaled_final/0186_rv.mp4	0.0	168.39342498779297	0.10038590431213379
5	119.43257999420166	fix_pre	0		120	3.0	2.5	/experiments/AOT/AOT_stimuli/rescaled_final/0638_fw.mp4	0.0	168.4938108921051	0.9995779991149902
5	120.43215799331665	movie	1		244	3.0	2.5	/experiments/AOT/AOT_stimuli/rescaled_final/0638_fw.mp4	0.0	169.4933888912201	2.4999160766601562
5	120.81720399856567	pulse	1	t		3.0	2.5	/experiments/AOT/AOT_stimuli/rescaled_final/0638_fw.mp4	0.0	169.87843489646912	
5	122.4160749912262	pulse	1	t		3.0	2.5	/experiments/AOT/AOT_stimuli/rescaled_final/0638_fw.mp4	0.0	171.47730588912964	
5	122.9320740699768	fix_post	2		12	3.0	2.5	/experiments/AOT/AOT_stimuli/rescaled_final/0638_fw.mp4	0.0	171.99330496788025	0.10049796104431152
6	123.03257203102112	fix_pre	0		119	4.0	2.5	/experiments/AOT/AOT_stimuli/rescaled_final/1570_rv.mp4	0.0	172.09380292892456	0.9915869235992432
6	124.01601314544678	pulse	0	t		4.0	2.5	/experiments/AOT/AOT_stimuli/rescaled_final/1570_rv.mp4	0.0	173.07724404335022	
6	124.02415895462036	movie	1		246	4.0	2.5	/experiments/AOT/AOT_stimuli/rescaled_final/1570_rv.mp4	0.0	173.0853898525238	2.508009195327759
6	125.61565709114075	pulse	1	t		4.0	2.5	/experiments/AOT/AOT_stimuli/rescaled_final/1570_rv.mp4	0.0	174.6768879890442	
6	126.53216814994812	fix_post	2		12	4.0	2.5	/experiments/AOT/AOT_stimuli/rescaled_final/1570_rv.mp4	0.0	175.59339904785156	0.10035181045532227
7	126.63251996040344	fix_pre	0		120	5.0	2.5	/experiments/AOT/AOT_stimuli/rescaled_final/0063_fw.mp4	0.0	175.69375085830688	0.9997119903564453
7	127.21571612358093	pulse	0	t		5.0	2.5	/experiments/AOT/AOT_stimuli/rescaled_final/0063_fw.mp4	0.0	176.27694702148438	
7	127.63223195075989	movie	1		244	5.0	2.5	/experiments/AOT/AOT_stimuli/rescaled_final/0063_fw.mp4	0.0	176.69346284866333	2.5002551078796387
7	128.81583213806152	pulse	1	t		5.0	2.5	/experiments/AOT/AOT_stimuli/rescaled_final/0063_fw.mp4	0.0	177.87706303596497	
7	130.13248705863953	fix_post	2		12	5.0	2.5	/experiments/AOT/AOT_stimuli/rescaled_final/0063_fw.mp4	0.0	179.19371795654297	0.10004091262817383
8	130.2325279712677	fix_pre	0		120	6.0	2.5	blank	1.0	179.29375886917114	0.9999790191650391
8	130.4160511493683	pulse	0	t		6.0	2.5	blank	1.0	179.47728204727173	
8	131.23250699043274	movie	1		300	6.0	2.5	blank	1.0	180.29373788833618	2.499634027481079
8	132.01608300209045	pulse	1	t		6.0	2.5	blank	1.0	181.0773138999939	
8	133.61604595184326	pulse	1	t		6.0	2.5	blank	1.0	182.6772768497467	
8	133.73214101791382	fix_post	2		12	6.0	2.5	blank	1.0	182.79337191581726	0.10036802291870117
9	133.83250904083252	fix_pre	0		120	7.0	2.5	/experiments/AOT/AOT_stimuli/rescaled_final/1406_rv.mp4	0.0	182.89373993873596	1.0000159740447998
9	134.83252501487732	movie	1		244	7.0	2.5	/experiments/AOT/AOT_stimuli/rescaled_final/1406_rv.mp4	0.0	183.89375591278076	2.5001111030578613
9	135.21541905403137	pulse	1	t		7.0	2.5	/experiments/AOT/AOT_stimuli/rescaled_final/1406_rv.mp4	0.0	184.27664995193481	
9	136.8159191608429	pulse	1	t		7.0	2.5	/experiments/AOT/AOT_stimuli/rescaled_final/1406_rv.mp4	0.0	185.87715005874634	
9	137.33263611793518	fix_post	2		12	7.0	2.5	/experiments/AOT/AOT_stimuli/rescaled_final/1406_rv.mp4	0.0	186.39386701583862	0.09992694854736328
10	137.43256306648254	fix_pre	0		119	8.0	2.5	/experiments/AOT/AOT_stimuli/rescaled_final/1985_fw.mp4	0.0	186.493793964386	0.9915320873260498
10	138.4159541130066	pulse	0	t		8.0	2.5	/experiments/AOT/AOT_stimuli/rescaled_final/1985_fw.mp4	0.0	187.47718501091003	
10	138.4240951538086	movie	1		246	8.0	2.5	/experiments/AOT/AOT_stimuli/rescaled_final/1985_fw.mp4	0.0	187.48532605171204	2.5083179473876953
10	140.01553416252136	pulse	1	t		8.0	2.5	/experiments/AOT/AOT_stimuli/rescaled_final/1985_fw.mp4	0.0	189.0767650604248	
10	140.9324131011963	fix_post	2		12	8.0	2.5	/experiments/AOT/AOT_stimuli/rescaled_final/1985_fw.mp4	0.0	189.99364399909973	0.1000978946685791
11	141.03251099586487	fix_pre	0		120	9.0	2.5	/experiments/AOT/AOT_stimuli/rescaled_final/0303_fw.mp4	0.0	190.0937418937683	0.9999210834503174
11	141.61721014976501	pulse	0	t		9.0	2.5	/experiments/AOT/AOT_stimuli/rescaled_final/0303_fw.mp4	0.0	190.67844104766846	
11	142.03243207931519	movie	1		243	9.0	2.5	/experiments/AOT/AOT_stimuli/rescaled_final/0303_fw.mp4	0.0	191.09366297721863	2.499969959259033
11	143.216215133667	pulse	1	t		9.0	2.5	/experiments/AOT/AOT_stimuli/rescaled_final/0303_fw.mp4	0.0	192.27744603157043	
11	144.53240203857422	fix_post	2		12	9.0	2.5	/experiments/AOT/AOT_stimuli/rescaled_final/0303_fw.mp4	0.0	193.59363293647766	0.10000109672546387
12	144.63240313529968	fix_pre	0		120	10.0	2.5	/experiments/AOT/AOT_stimuli/rescaled_final/0628_fw.mp4	0.0	193.69363403320312	1.0000050067901611
12	144.8159921169281	pulse	0	t		10.0	2.5	/experiments/AOT/AOT_stimuli/rescaled_final/0628_fw.mp4	0.0	193.87722301483154	
12	145.63240814208984	movie	1		245	10.0	2.5	/experiments/AOT/AOT_stimuli/rescaled_final/0628_fw.mp4	0.0	194.6936390399933	2.5000128746032715
12	146.4158980846405	pulse	1	t		10.0	2.5	/experiments/AOT/AOT_stimuli/rescaled_final/0628_fw.mp4	0.0	195.47712898254395	
12	148.01552200317383	pulse	1	t		10.0	2.5	/experiments/AOT/AOT_stimuli/rescaled_final/0628_fw.mp4	0.0	197.07675290107727	
12	148.13242101669312	fix_post	2		12	10.0	2.5	/experiments/AOT/AOT_stimuli/rescaled_final/0628_fw.mp4	0.0	197.19365191459656	0.09996509552001953
13	148.23238611221313	fix_pre	0		120	11.0	2.5	/experiments/AOT/AOT_stimuli/rescaled_final/1555_rv.mp4	0.0	197.29361701011658	0.9999649524688721
13	149.232351064682	movie	1		246	11.0	2.5	/experiments/AOT/AOT_stimuli/rescaled_final/1555_rv.mp4	0.0	198.29358196258545	2.5000059604644775
13	149.61541604995728	pulse	1	t		11.0	2.5	/experiments/AOT/AOT_stimuli/rescaled_final/1555_rv.mp4	0.0	198.67664694786072	
13	151.2159321308136	pulse	1	t		11.0	2.5	/experiments/AOT/AOT_stimuli/rescaled_final/1555_rv.mp4	0.0	200.27716302871704	
13	151.73235702514648	fix_post	2		12	11.0	2.5	/experiments/AOT/AOT_stimuli/rescaled_final/1555_rv.mp4	0.0	200.79358792304993	0.1000051498413086
14	151.8323621749878	fix_pre	0		119	12.0	2.5	/experiments/AOT/AOT_stimuli/rescaled_final/0009_fw.mp4	0.0	200.89359307289124	0.9916419982910156
14	152.81585311889648	pulse	0	t		12.0	2.5	/experiments/AOT/AOT_stimuli/rescaled_final/0009_fw.mp4	0.0	201.87708401679993	
14	152.8240041732788	movie	1		246	12.0	2.5	/experiments/AOT/AOT_stimuli/rescaled_final/0009_fw.mp4	0.0	201.88523507118225	2.5084388256073
14	154.4154989719391	pulse	1	t		12.0	2.5	/experiments/AOT/AOT_stimuli/rescaled_final/0009_fw.mp4	0.0	203.47672986984253	
14	155.3324429988861	fix_post	2		12	12.0	2.5	/experiments/AOT/AOT_stimuli/rescaled_final/0009_fw.mp4	0.0	204.39367389678955	0.09999799728393555
15	155.43244099617004	fix_pre	0		120	13.0	2.5	/experiments/AOT/AOT_stimuli/rescaled_final/0367_rv.mp4	0.0	204.4936718940735	0.9999589920043945
15	156.01589012145996	pulse	0	t		13.0	2.5	/experiments/AOT/AOT_stimuli/rescaled_final/0367_rv.mp4	0.0	205.0771210193634	
15	156.43239998817444	movie	1		245	13.0	2.5	/experiments/AOT/AOT_stimuli/rescaled_final/0367_rv.mp4	0.0	205.49363088607788	2.499941110610962
15	157.61586213111877	pulse	1	t		13.0	2.5	/experiments/AOT/AOT_stimuli/rescaled_final/0367_rv.mp4	0.0	206.67709302902222	
15	158.9323410987854	fix_post	2		12	13.0	2.5	/experiments/AOT/AOT_stimuli/rescaled_final/0367_rv.mp4	0.0	207.99357199668884	0.09999489784240723
16	159.0323359966278	fix_pre	0		120	14.0	2.5	blank	1.0	208.09356689453125	1.0000321865081787
16	159.21589612960815	pulse	0	t		14.0	2.5	blank	1.0	208.2771270275116	
16	160.032368183136	movie	1		300	14.0	2.5	blank	1.0	209.09359908103943	2.5000009536743164
16	160.81583213806152	pulse	1	t		14.0	2.5	blank	1.0	209.87706303596497	
16	162.41591000556946	pulse	1	t		14.0	2.5	blank	1.0	211.4771409034729	
16	162.5323691368103	fix_post	2		12	14.0	2.5	blank	1.0	211.59360003471375	0.10002493858337402
17	162.63239407539368	fix_pre	0		120	15.0	2.5	/experiments/AOT/AOT_stimuli/rescaled_final/1018_fw.mp4	0.0	211.69362497329712	0.9999470710754395
17	163.63234114646912	movie	1		246	15.0	2.5	/experiments/AOT/AOT_stimuli/rescaled_final/1018_fw.mp4	0.0	212.69357204437256	2.500030994415283
17	164.0155131816864	pulse	1	t		15.0	2.5	/experiments/AOT/AOT_stimuli/rescaled_final/1018_fw.mp4	0.0	213.07674407958984	
17	165.615825176239	pulse	1	t		15.0	2.5	/experiments/AOT/AOT_stimuli/rescaled_final/1018_fw.mp4	0.0	214.67705607414246	
17	166.1323721408844	fix_post	2		12	15.0	2.5	/experiments/AOT/AOT_stimuli/rescaled_final/1018_fw.mp4	0.0	215.19360303878784	0.10001397132873535
18	166.23238611221313	fix_pre	0		119	16.0	2.5	/experiments/AOT/AOT_stimuli/rescaled_final/1716_rv.mp4	0.0	215.29361701011658	0.9916398525238037
18	167.21584296226501	pulse	0	t		16.0	2.5	/experiments/AOT/AOT_stimuli/rescaled_final/1716_rv.mp4	0.0	216.27707386016846	
18	167.22402596473694	movie	1		244	16.0	2.5	/experiments/AOT/AOT_stimuli/rescaled_final/1716_rv.mp4	0.0	216.28525686264038	2.5083491802215576
18	168.81595706939697	pulse	1	t		16.0	2.5	/experiments/AOT/AOT_stimuli/rescaled_final/1716_rv.mp4	0.0	217.87718796730042	
18	169.7323751449585	fix_post	2		12	16.0	2.5	/experiments/AOT/AOT_stimuli/rescaled_final/1716_rv.mp4	0.0	218.79360604286194	0.09998202323913574
19	169.83235716819763	fix_pre	0		120	17.0	2.5	/experiments/AOT/AOT_stimuli/rescaled_final/1747_fw.mp4	0.0	218.89358806610107	1.0000238418579102
19	170.4158651828766	pulse	0	t		17.0	2.5	/experiments/AOT/AOT_stimuli/rescaled_final/1747_fw.mp4	0.0	219.47709608078003	
19	170.83238101005554	movie	1		243	17.0	2.5	/experiments/AOT/AOT_stimuli/rescaled_final/1747_fw.mp4	0.0	219.89361190795898	2.499897003173828
19	172.01584815979004	pulse	1	t		17.0	2.5	/experiments/AOT/AOT_stimuli/rescaled_final/1747_fw.mp4	0.0	221.07707905769348	
19	173.33227801322937	fix_post	2		12	17.0	2.5	/experiments/AOT/AOT_stimuli/rescaled_final/1747_fw.mp4	0.0	222.3935089111328	0.1000051498413086
20	173.43228316307068	fix_pre	0		120	18.0	2.5	/experiments/AOT/AOT_stimuli/rescaled_final/0303_rv.mp4	0.0	222.49351406097412	0.9999659061431885
20	173.61583614349365	pulse	0	t		18.0	2.5	/experiments/AOT/AOT_stimuli/rescaled_final/0303_rv.mp4	0.0	222.6770670413971	
20	174.43224906921387	movie	1		243	18.0	2.5	/experiments/AOT/AOT_stimuli/rescaled_final/0303_rv.mp4	0.0	223.4934799671173	2.500080108642578
20	175.2157700061798	pulse	1	t		18.0	2.5	/experiments/AOT/AOT_stimuli/rescaled_final/0303_rv.mp4	0.0	224.27700090408325	
20	176.81437706947327	pulse	1	t		18.0	2.5	/experiments/AOT/AOT_stimuli/rescaled_final/0303_rv.mp4	0.0	225.8756079673767	
20	176.93232917785645	fix_post	2		12	18.0	2.5	/experiments/AOT/AOT_stimuli/rescaled_final/0303_rv.mp4	0.0	225.9935600757599	0.09996986389160156
21	177.03229904174805	fix_pre	0		120	19.0	2.5	/experiments/AOT/AOT_stimuli/rescaled_final/0350_fw.mp4	0.0	226.0935299396515	1.0000269412994385
21	178.03232598304749	movie	1		243	19.0	2.5	/experiments/AOT/AOT_stimuli/rescaled_final/0350_fw.mp4	0.0	227.09355688095093	2.499929189682007
21	178.41518998146057	pulse	1	t		19.0	2.5	/experiments/AOT/AOT_stimuli/rescaled_final/0350_fw.mp4	0.0	227.476420879364	
21	180.0157961845398	pulse	1	t		19.0	2.5	/experiments/AOT/AOT_stimuli/rescaled_final/0350_fw.mp4	0.0	229.07702708244324	
21	180.5322551727295	fix_post	2		12	19.0	2.5	/experiments/AOT/AOT_stimuli/rescaled_final/0350_fw.mp4	0.0	229.59348607063293	0.10017991065979004
22	180.63243508338928	fix_pre	0		119	20.0	2.5	/experiments/AOT/AOT_stimuli/rescaled_final/1252_fw.mp4	0.0	229.69366598129272	0.9915149211883545
22	181.6158561706543	pulse	0	t		20.0	2.5	/experiments/AOT/AOT_stimuli/rescaled_final/1252_fw.mp4	0.0	230.67708706855774	
22	181.62395000457764	movie	1		246	20.0	2.5	/experiments/AOT/AOT_stimuli/rescaled_final/1252_fw.mp4	0.0	230.68518090248108	2.5080301761627197
22	183.21492910385132	pulse	1	t		20.0	2.5	/experiments/AOT/AOT_stimuli/rescaled_final/1252_fw.mp4	0.0	232.27616000175476	
22	184.13198018074036	fix_post	2		12	20.0	2.5	/experiments/AOT/AOT_stimuli/rescaled_final/1252_fw.mp4	0.0	233.1932110786438	0.0999908447265625
23	184.23197102546692	fix_pre	0		120	21.0	2.5	blank	1.0	233.29320192337036	1.0002119541168213
23	184.81552600860596	pulse	0	t		21.0	2.5	blank	1.0	233.8767569065094	
23	185.23218297958374	movie	1		300	21.0	2.5	blank	1.0	234.29341387748718	2.5000691413879395
23	186.415785074234	pulse	1	t		21.0	2.5	blank	1.0	235.47701597213745	
23	187.73225212097168	fix_post	2		12	21.0	2.5	blank	1.0	236.79348301887512	0.09999895095825195
24	187.83225107192993	fix_pre	0		120	22.0	2.5	/experiments/AOT/AOT_stimuli/rescaled_final/0203_fw.mp4	0.0	236.89348196983337	0.9999969005584717
24	188.0158131122589	pulse	0	t		22.0	2.5	/experiments/AOT/AOT_stimuli/rescaled_final/0203_fw.mp4	0.0	237.07704401016235	
24	188.8322479724884	movie	1		244	22.0	2.5	/experiments/AOT/AOT_stimuli/rescaled_final/0203_fw.mp4	0.0	237.89347887039185	2.499904155731201
24	189.61576199531555	pulse	1	t		22.0	2.5	/experiments/AOT/AOT_stimuli/rescaled_final/0203_fw.mp4	0.0	238.676992893219	
24	191.2140941619873	pulse	1	t		22.0	2.5	/experiments/AOT/AOT_stimuli/rescaled_final/0203_fw.mp4	0.0	240.27532505989075	
24	191.3321521282196	fix_post	2		12	22.0	2.5	/experiments/AOT/AOT_stimuli/rescaled_final/0203_fw.mp4	0.0	240.39338302612305	0.10001397132873535
25	191.43216609954834	fix_pre	0		120	23.0	2.5	/experiments/AOT/AOT_stimuli/rescaled_final/0929_fw.mp4	0.0	240.49339699745178	1.0001049041748047
25	192.43227100372314	movie	1		247	23.0	2.5	/experiments/AOT/AOT_stimuli/rescaled_final/0929_fw.mp4	0.0	241.4935019016266	2.4999051094055176
25	192.81525301933289	pulse	1	t		23.0	2.5	/experiments/AOT/AOT_stimuli/rescaled_final/0929_fw.mp4	0.0	241.87648391723633	
25	194.4156470298767	pulse	1	t		23.0	2.5	/experiments/AOT/AOT_stimuli/rescaled_final/0929_fw.mp4	0.0	243.47687792778015	
25	194.93217611312866	fix_post	2		12	23.0	2.5	/experiments/AOT/AOT_stimuli/rescaled_final/0929_fw.mp4	0.0	243.9934070110321	0.10000395774841309
26	195.03218007087708	fix_pre	0		119	24.0	2.5	/experiments/AOT/AOT_stimuli/rescaled_final/1599_rv.mp4	0.0	244.09341096878052	0.991631031036377
26	196.01565408706665	pulse	0	t		24.0	2.5	/experiments/AOT/AOT_stimuli/rescaled_final/1599_rv.mp4	0.0	245.0768849849701	
26	196.02381110191345	movie	1		246	24.0	2.5	/experiments/AOT/AOT_stimuli/rescaled_final/1599_rv.mp4	0.0	245.0850419998169	2.5079429149627686
26	197.61502814292908	pulse	1	t		24.0	2.5	/experiments/AOT/AOT_stimuli/rescaled_final/1599_rv.mp4	0.0	246.67625904083252	
26	198.53175401687622	fix_post	2		12	24.0	2.5	/experiments/AOT/AOT_stimuli/rescaled_final/1599_rv.mp4	0.0	247.59298491477966	0.1004340648651123
27	198.63218808174133	fix_pre	0		120	25.0	2.5	/experiments/AOT/AOT_stimuli/rescaled_final/1970_rv.mp4	0.0	247.69341897964478	0.9999589920043945
27	199.21567916870117	pulse	0	t		25.0	2.5	/experiments/AOT/AOT_stimuli/rescaled_final/1970_rv.mp4	0.0	248.27691006660461	
27	199.63214707374573	movie	1		247	25.0	2.5	/experiments/AOT/AOT_stimuli/rescaled_final/1970_rv.mp4	0.0	248.69337797164917	2.4999380111694336
27	200.81573104858398	pulse	1	t		25.0	2.5	/experiments/AOT/AOT_stimuli/rescaled_final/1970_rv.mp4	0.0	249.87696194648743	
27	202.13208508491516	fix_post	2		12	25.0	2.5	/experiments/AOT/AOT_stimuli/rescaled_final/1970_rv.mp4	0.0	251.1933159828186	0.10002994537353516
28	202.2321150302887	fix_pre	0		120	26.0	2.5	blank	1.0	251.29334592819214	0.9999899864196777
28	202.41568899154663	pulse	0	t		26.0	2.5	blank	1.0	251.47691988945007	
28	203.23210501670837	movie	1		300	26.0	2.5	blank	1.0	252.29333591461182	2.5001020431518555
28	204.01566696166992	pulse	1	t		26.0	2.5	blank	1.0	253.07689785957336	
28	205.61554312705994	pulse	1	t		26.0	2.5	blank	1.0	254.67677402496338	
28	205.73220705986023	fix_post	2		12	26.0	2.5	blank	1.0	254.79343795776367	0.099945068359375
29	205.8321521282196	fix_pre	0		120	27.0	2.5	/experiments/AOT/AOT_stimuli/rescaled_final/1580_fw.mp4	0.0	254.89338302612305	0.9999918937683105
29	206.83214402198792	movie	1		244	27.0	2.5	/experiments/AOT/AOT_stimuli/rescaled_final/1580_fw.mp4	0.0	255.89337491989136	2.4999780654907227
29	207.21520400047302	pulse	1	t		27.0	2.5	/experiments/AOT/AOT_stimuli/rescaled_final/1580_fw.mp4	0.0	256.27643489837646	
29	208.81564211845398	pulse	1	t		27.0	2.5	/experiments/AOT/AOT_stimuli/rescaled_final/1580_fw.mp4	0.0	257.8768730163574	
29	209.33212208747864	fix_post	2		12	27.0	2.5	/experiments/AOT/AOT_stimuli/rescaled_final/1580_fw.mp4	0.0	258.3933529853821	0.09996509552001953
30	209.43208718299866	fix_pre	0		119	28.0	2.5	/experiments/AOT/AOT_stimuli/rescaled_final/0666_rv.mp4	0.0	258.4933180809021	0.9916989803314209
30	210.41574501991272	pulse	0	t		28.0	2.5	/experiments/AOT/AOT_stimuli/rescaled_final/0666_rv.mp4	0.0	259.47697591781616	
30	210.42378616333008	movie	1		243	28.0	2.5	/experiments/AOT/AOT_stimuli/rescaled_final/0666_rv.mp4	0.0	259.4850170612335	2.5083119869232178
30	212.0153031349182	pulse	1	t		28.0	2.5	/experiments/AOT/AOT_stimuli/rescaled_final/0666_rv.mp4	0.0	261.07653403282166	
30	212.9320981502533	fix_post	2		12	28.0	2.5	/experiments/AOT/AOT_stimuli/rescaled_final/0666_rv.mp4	0.0	261.99332904815674	0.09999299049377441
31	213.03209114074707	fix_pre	0		120	29.0	2.5	/experiments/AOT/AOT_stimuli/rescaled_final/0348_fw.mp4	0.0	262.0933220386505	0.999992847442627
31	213.61561512947083	pulse	0	t		29.0	2.5	/experiments/AOT/AOT_stimuli/rescaled_final/0348_fw.mp4	0.0	262.67684602737427	
31	214.0320839881897	movie	1		244	29.0	2.5	/experiments/AOT/AOT_stimuli/rescaled_final/0348_fw.mp4	0.0	263.09331488609314	2.4999921321868896
31	215.21566915512085	pulse	1	t		29.0	2.5	/experiments/AOT/AOT_stimuli/rescaled_final/0348_fw.mp4	0.0	264.2769000530243	
31	216.5320761203766	fix_post	2		12	29.0	2.5	/experiments/AOT/AOT_stimuli/rescaled_final/0348_fw.mp4	0.0	265.59330701828003	0.10003185272216797
32	216.63210797309875	fix_pre	0		120	30.0	2.5	/experiments/AOT/AOT_stimuli/rescaled_final/0006_rv.mp4	0.0	265.6933388710022	1.0000231266021729
32	216.81567907333374	pulse	0	t		30.0	2.5	/experiments/AOT/AOT_stimuli/rescaled_final/0006_rv.mp4	0.0	265.8769099712372	
32	217.63213109970093	movie	1		245	30.0	2.5	/experiments/AOT/AOT_stimuli/rescaled_final/0006_rv.mp4	0.0	266.69336199760437	2.5000860691070557
32	218.4155650138855	pulse	1	t		30.0	2.5	/experiments/AOT/AOT_stimuli/rescaled_final/0006_rv.mp4	0.0	267.47679591178894	
32	220.01394295692444	pulse	1	t		30.0	2.5	/experiments/AOT/AOT_stimuli/rescaled_final/0006_rv.mp4	0.0	269.0751738548279	
32	220.13221716880798	fix_post	2		12	30.0	2.5	/experiments/AOT/AOT_stimuli/rescaled_final/0006_rv.mp4	0.0	269.1934480667114	0.09990596771240234
33	220.23212313652039	fix_pre	0		120	31.0	2.5	/experiments/AOT/AOT_stimuli/rescaled_final/0591_rv.mp4	0.0	269.2933540344238	0.9999899864196777
33	221.23211312294006	movie	1		244	31.0	2.5	/experiments/AOT/AOT_stimuli/rescaled_final/0591_rv.mp4	0.0	270.2933440208435	2.4995369911193848
33	221.61517095565796	pulse	1	t		31.0	2.5	/experiments/AOT/AOT_stimuli/rescaled_final/0591_rv.mp4	0.0	270.6764018535614	
33	223.21554803848267	pulse	1	t		31.0	2.5	/experiments/AOT/AOT_stimuli/rescaled_final/0591_rv.mp4	0.0	272.2767789363861	
33	223.73165011405945	fix_post	2		12	31.0	2.5	/experiments/AOT/AOT_stimuli/rescaled_final/0591_rv.mp4	0.0	272.7928810119629	0.10051798820495605
34	223.8321681022644	fix_pre	0		119	32.0	2.5	/experiments/AOT/AOT_stimuli/rescaled_final/1018_fw.mp4	0.0	272.89339900016785	0.991502046585083
34	224.81553506851196	pulse	0	t		32.0	2.5	/experiments/AOT/AOT_stimuli/rescaled_final/1018_fw.mp4	0.0	273.8767659664154	
34	224.8236701488495	movie	1		247	32.0	2.5	/experiments/AOT/AOT_stimuli/rescaled_final/1018_fw.mp4	0.0	273.88490104675293	2.5083229541778564
34	226.4164719581604	pulse	1	t		32.0	2.5	/experiments/AOT/AOT_stimuli/rescaled_final/1018_fw.mp4	0.0	275.47770285606384	
34	227.33199310302734	fix_post	2		12	32.0	2.5	/experiments/AOT/AOT_stimuli/rescaled_final/1018_fw.mp4	0.0	276.3932240009308	0.10011887550354004
35	227.43211197853088	fix_pre	0		120	33.0	2.5	/experiments/AOT/AOT_stimuli/rescaled_final/0040_fw.mp4	0.0	276.4933428764343	0.9999241828918457
35	228.01557517051697	pulse	0	t		33.0	2.5	/experiments/AOT/AOT_stimuli/rescaled_final/0040_fw.mp4	0.0	277.0768060684204	
35	228.43203616142273	movie	1		246	33.0	2.5	/experiments/AOT/AOT_stimuli/rescaled_final/0040_fw.mp4	0.0	277.4932670593262	2.5000758171081543
35	229.6156520843506	pulse	1	t		33.0	2.5	/experiments/AOT/AOT_stimuli/rescaled_final/0040_fw.mp4	0.0	278.676882982254	
35	230.93211197853088	fix_post	2		12	33.0	2.5	/experiments/AOT/AOT_stimuli/rescaled_final/0040_fw.mp4	0.0	279.9933428764343	0.09989500045776367
36	231.03200697898865	fix_pre	0		120	34.0	2.5	/experiments/AOT/AOT_stimuli/rescaled_final/0249_fw.mp4	0.0	280.0932378768921	1.0000650882720947
36	231.21553111076355	pulse	0	t		34.0	2.5	/experiments/AOT/AOT_stimuli/rescaled_final/0249_fw.mp4	0.0	280.276762008667	
36	232.03207206726074	movie	1		244	34.0	2.5	/experiments/AOT/AOT_stimuli/rescaled_final/0249_fw.mp4	0.0	281.0933029651642	2.499903917312622
36	232.8155210018158	pulse	1	t		34.0	2.5	/experiments/AOT/AOT_stimuli/rescaled_final/0249_fw.mp4	0.0	281.87675189971924	
36	234.41403102874756	pulse	1	t		34.0	2.5	/experiments/AOT/AOT_stimuli/rescaled_final/0249_fw.mp4	0.0	283.475261926651	
36	234.53197598457336	fix_post	2		12	34.0	2.5	/experiments/AOT/AOT_stimuli/rescaled_final/0249_fw.mp4	0.0	283.5932068824768	0.0999751091003418
37	234.6319510936737	fix_pre	0		120	35.0	2.5	blank	1.0	283.69318199157715	1.0001940727233887
37	235.6321451663971	movie	1		300	35.0	2.5	blank	1.0	284.69337606430054	2.4994699954986572
37	236.01552605628967	pulse	1	t		35.0	2.5	blank	1.0	285.0767569541931	
37	237.61558413505554	pulse	1	t		35.0	2.5	blank	1.0	286.676815032959	
37	238.13161516189575	fix_post	2		12	35.0	2.5	blank	1.0	287.1928460597992	0.1004638671875
38	238.23207902908325	fix_pre	0		119	36.0	2.5	/experiments/AOT/AOT_stimuli/rescaled_final/2049_rv.mp4	0.0	287.2933099269867	0.991595983505249
38	239.2151210308075	pulse	0	t		36.0	2.5	/experiments/AOT/AOT_stimuli/rescaled_final/2049_rv.mp4	0.0	288.27635192871094	
38	239.2236750125885	movie	1		246	36.0	2.5	/experiments/AOT/AOT_stimuli/rescaled_final/2049_rv.mp4	0.0	288.28490591049194	2.5082991123199463
38	240.8162980079651	pulse	1	t		36.0	2.5	/experiments/AOT/AOT_stimuli/rescaled_final/2049_rv.mp4	0.0	289.87752890586853	
38	241.73197412490845	fix_post	2		12	36.0	2.5	/experiments/AOT/AOT_stimuli/rescaled_final/2049_rv.mp4	0.0	290.7932050228119	0.09999895095825195
39	241.8319730758667	fix_pre	0		120	37.0	2.5	/experiments/AOT/AOT_stimuli/rescaled_final/2064_fw.mp4	0.0	290.89320397377014	1.0000290870666504
39	242.41551113128662	pulse	0	t		37.0	2.5	/experiments/AOT/AOT_stimuli/rescaled_final/2064_fw.mp4	0.0	291.47674202919006	
39	242.83200216293335	movie	1		244	37.0	2.5	/experiments/AOT/AOT_stimuli/rescaled_final/2064_fw.mp4	0.0	291.8932330608368	2.5001039505004883
39	244.01561498641968	pulse	1	t		37.0	2.5	/experiments/AOT/AOT_stimuli/rescaled_final/2064_fw.mp4	0.0	293.0768458843231	
39	245.33210611343384	fix_post	2		12	37.0	2.5	/experiments/AOT/AOT_stimuli/rescaled_final/2064_fw.mp4	0.0	294.3933370113373	0.09984993934631348
40	245.43195605278015	fix_pre	0		120	38.0	2.5	/experiments/AOT/AOT_stimuli/rescaled_final/0006_fw.mp4	0.0	294.4931869506836	1.0000879764556885
40	245.61548399925232	pulse	0	t		38.0	2.5	/experiments/AOT/AOT_stimuli/rescaled_final/0006_fw.mp4	0.0	294.67671489715576	
40	246.43204402923584	movie	1		244	38.0	2.5	/experiments/AOT/AOT_stimuli/rescaled_final/0006_fw.mp4	0.0	295.4932749271393	2.499882936477661
40	247.21538615226746	pulse	1	t		38.0	2.5	/experiments/AOT/AOT_stimuli/rescaled_final/0006_fw.mp4	0.0	296.2766170501709	
40	248.81389498710632	pulse	1	t		38.0	2.5	/experiments/AOT/AOT_stimuli/rescaled_final/0006_fw.mp4	0.0	297.87512588500977	
40	248.9319269657135	fix_post	2		12	38.0	2.5	/experiments/AOT/AOT_stimuli/rescaled_final/0006_fw.mp4	0.0	297.99315786361694	0.10010814666748047
41	249.03203511238098	fix_pre	0		120	39.0	2.5	/experiments/AOT/AOT_stimuli/rescaled_final/0004_fw.mp4	0.0	298.0932660102844	0.9998970031738281
41	250.0319321155548	movie	1		244	39.0	2.5	/experiments/AOT/AOT_stimuli/rescaled_final/0004_fw.mp4	0.0	299.09316301345825	2.4995298385620117
41	250.41533207893372	pulse	1	t		39.0	2.5	/experiments/AOT/AOT_stimuli/rescaled_final/0004_fw.mp4	0.0	299.47656297683716	
41	252.01540207862854	pulse	1	t		39.0	2.5	/experiments/AOT/AOT_stimuli/rescaled_final/0004_fw.mp4	0.0	301.076632976532	
41	252.53146195411682	fix_post	2		12	39.0	2.5	/experiments/AOT/AOT_stimuli/rescaled_final/0004_fw.mp4	0.0	301.59269285202026	0.10040402412414551
42	252.63186597824097	fix_pre	0		119	40.0	2.5	blank	1.0	301.6930968761444	0.9916770458221436
42	253.61540508270264	pulse	0	t		40.0	2.5	blank	1.0	302.6766359806061	
42	253.6235430240631	movie	1		301	40.0	2.5	blank	1.0	302.68477392196655	2.508289098739624
42	255.21542811393738	pulse	1	t		40.0	2.5	blank	1.0	304.2766590118408	
42	256.13183212280273	fix_post	2		12	40.0	2.5	blank	1.0	305.1930630207062	0.10001587867736816
43	256.2318480014801	fix_pre	0		120	41.0	2.5	/experiments/AOT/AOT_stimuli/rescaled_final/1985_rv.mp4	0.0	305.29307889938354	1.0000791549682617
43	256.8153600692749	pulse	0	t		41.0	2.5	/experiments/AOT/AOT_stimuli/rescaled_final/1985_rv.mp4	0.0	305.87659096717834	
43	257.23192715644836	movie	1		246	41.0	2.5	/experiments/AOT/AOT_stimuli/rescaled_final/1985_rv.mp4	0.0	306.2931580543518	2.4999449253082275
43	258.41544103622437	pulse	1	t		41.0	2.5	/experiments/AOT/AOT_stimuli/rescaled_final/1985_rv.mp4	0.0	307.4766719341278	
43	259.7318720817566	fix_post	2		12	41.0	2.5	/experiments/AOT/AOT_stimuli/rescaled_final/1985_rv.mp4	0.0	308.79310297966003	0.09998893737792969
44	259.8318610191345	fix_pre	0		120	42.0	2.5	/experiments/AOT/AOT_stimuli/rescaled_final/0986_rv.mp4	0.0	308.89309191703796	1.0000121593475342
44	260.01537895202637	pulse	0	t		42.0	2.5	/experiments/AOT/AOT_stimuli/rescaled_final/0986_rv.mp4	0.0	309.0766098499298	
44	260.83187317848206	movie	1		246	42.0	2.5	/experiments/AOT/AOT_stimuli/rescaled_final/0986_rv.mp4	0.0	309.8931040763855	2.499969959259033
44	261.61531496047974	pulse	1	t		42.0	2.5	/experiments/AOT/AOT_stimuli/rescaled_final/0986_rv.mp4	0.0	310.6765458583832	
44	263.2141270637512	pulse	1	t		42.0	2.5	/experiments/AOT/AOT_stimuli/rescaled_final/0986_rv.mp4	0.0	312.27535796165466	
44	263.3318431377411	fix_post	2		12	42.0	2.5	/experiments/AOT/AOT_stimuli/rescaled_final/0986_rv.mp4	0.0	312.39307403564453	0.0999748706817627
45	263.43181800842285	fix_pre	0		120	43.0	2.5	/experiments/AOT/AOT_stimuli/rescaled_final/0193_fw.mp4	0.0	312.4930489063263	0.9999861717224121
45	264.43180418014526	movie	1		246	43.0	2.5	/experiments/AOT/AOT_stimuli/rescaled_final/0193_fw.mp4	0.0	313.4930350780487	2.4999377727508545
45	264.8149371147156	pulse	1	t		43.0	2.5	/experiments/AOT/AOT_stimuli/rescaled_final/0193_fw.mp4	0.0	313.876168012619	
45	266.4153380393982	pulse	1	t		43.0	2.5	/experiments/AOT/AOT_stimuli/rescaled_final/0193_fw.mp4	0.0	315.47656893730164	
45	266.9317419528961	fix_post	2		12	43.0	2.5	/experiments/AOT/AOT_stimuli/rescaled_final/0193_fw.mp4	0.0	315.99297285079956	0.10013222694396973
46	267.0318741798401	fix_pre	0		119	44.0	2.5	/experiments/AOT/AOT_stimuli/rescaled_final/1606_fw.mp4	0.0	316.09310507774353	0.9916179180145264
46	268.0152699947357	pulse	0	t		44.0	2.5	/experiments/AOT/AOT_stimuli/rescaled_final/1606_fw.mp4	0.0	317.07650089263916	
46	268.0234920978546	movie	1		246	44.0	2.5	/experiments/AOT/AOT_stimuli/rescaled_final/1606_fw.mp4	0.0	317.08472299575806	2.508319854736328
46	269.6152379512787	pulse	1	t		44.0	2.5	/experiments/AOT/AOT_stimuli/rescaled_final/1606_fw.mp4	0.0	318.67646884918213	
46	270.53181195259094	fix_post	2		12	44.0	2.5	/experiments/AOT/AOT_stimuli/rescaled_final/1606_fw.mp4	0.0	319.5930428504944	0.09998917579650879
47	270.63180112838745	fix_pre	0		120	45.0	2.5	/experiments/AOT/AOT_stimuli/rescaled_final/0965_fw.mp4	0.0	319.6930320262909	1.0000498294830322
47	271.2153470516205	pulse	0	t		45.0	2.5	/experiments/AOT/AOT_stimuli/rescaled_final/0965_fw.mp4	0.0	320.2765779495239	
47	271.6318509578705	movie	1		244	45.0	2.5	/experiments/AOT/AOT_stimuli/rescaled_final/0965_fw.mp4	0.0	320.6930818557739	2.499897003173828
47	272.8153860569	pulse	1	t		45.0	2.5	/experiments/AOT/AOT_stimuli/rescaled_final/0965_fw.mp4	0.0	321.87661695480347	
47	274.1317479610443	fix_post	2		12	45.0	2.5	/experiments/AOT/AOT_stimuli/rescaled_final/0965_fw.mp4	0.0	323.19297885894775	0.10001420974731445
48	274.2317621707916	fix_pre	0		120	46.0	2.5	/experiments/AOT/AOT_stimuli/rescaled_final/1010_rv.mp4	0.0	323.29299306869507	0.9999949932098389
48	274.41526913642883	pulse	0	t		46.0	2.5	/experiments/AOT/AOT_stimuli/rescaled_final/1010_rv.mp4	0.0	323.4765000343323	
48	275.23175716400146	movie	1		243	46.0	2.5	/experiments/AOT/AOT_stimuli/rescaled_final/1010_rv.mp4	0.0	324.2929880619049	2.4999887943267822
48	276.01545214653015	pulse	1	t		46.0	2.5	/experiments/AOT/AOT_stimuli/rescaled_final/1010_rv.mp4	0.0	325.0766830444336	
48	277.6136350631714	pulse	1	t		46.0	2.5	/experiments/AOT/AOT_stimuli/rescaled_final/1010_rv.mp4	0.0	326.67486596107483	
48	277.73174595832825	fix_post	2		12	46.0	2.5	/experiments/AOT/AOT_stimuli/rescaled_final/1010_rv.mp4	0.0	326.7929768562317	0.10002517700195312
49	277.8317711353302	fix_pre	0		120	47.0	2.5	/experiments/AOT/AOT_stimuli/rescaled_final/0236_rv.mp4	0.0	326.89300203323364	1.0000078678131104
49	278.8317790031433	movie	1		245	47.0	2.5	/experiments/AOT/AOT_stimuli/rescaled_final/0236_rv.mp4	0.0	327.89300990104675	2.4999899864196777
49	279.21502709388733	pulse	1	t		47.0	2.5	/experiments/AOT/AOT_stimuli/rescaled_final/0236_rv.mp4	0.0	328.27625799179077	
49	280.81526803970337	pulse	1	t		47.0	2.5	/experiments/AOT/AOT_stimuli/rescaled_final/0236_rv.mp4	0.0	329.8764989376068	
49	281.331768989563	fix_post	2		12	47.0	2.5	/experiments/AOT/AOT_stimuli/rescaled_final/0236_rv.mp4	0.0	330.39299988746643	0.10001802444458008
50	281.43178701400757	fix_pre	0		119	48.0	2.5	/experiments/AOT/AOT_stimuli/rescaled_final/1511_fw.mp4	0.0	330.493017911911	0.9916491508483887
50	282.4152879714966	pulse	0	t		48.0	2.5	/experiments/AOT/AOT_stimuli/rescaled_final/1511_fw.mp4	0.0	331.4765188694	
50	282.42343616485596	movie	1		244	48.0	2.5	/experiments/AOT/AOT_stimuli/rescaled_final/1511_fw.mp4	0.0	331.4846670627594	2.5083107948303223
50	284.0151700973511	pulse	1	t		48.0	2.5	/experiments/AOT/AOT_stimuli/rescaled_final/1511_fw.mp4	0.0	333.0764009952545	
50	284.9317469596863	fix_post	2		12	48.0	2.5	/experiments/AOT/AOT_stimuli/rescaled_final/1511_fw.mp4	0.0	333.9929778575897	0.10008502006530762
51	285.0318319797516	fix_pre	0		120	49.0	2.5	blank	1.0	334.09306287765503	0.9999639987945557
51	285.61535811424255	pulse	0	t		49.0	2.5	blank	1.0	334.676589012146	
51	286.03179597854614	movie	1		300	49.0	2.5	blank	1.0	335.0930268764496	2.4999780654907227
51	287.2152020931244	pulse	1	t		49.0	2.5	blank	1.0	336.27643299102783	
51	288.53177404403687	fix_post	2		12	49.0	2.5	blank	1.0	337.5930049419403	0.09988903999328613
52	288.63166308403015	fix_pre	0		120	50.0	2.5	/experiments/AOT/AOT_stimuli/rescaled_final/1491_fw.mp4	0.0	337.6928939819336	1.0000340938568115
52	288.8151659965515	pulse	0	t		50.0	2.5	/experiments/AOT/AOT_stimuli/rescaled_final/1491_fw.mp4	0.0	337.87639689445496	
52	289.63169717788696	movie	1		244	50.0	2.5	/experiments/AOT/AOT_stimuli/rescaled_final/1491_fw.mp4	0.0	338.6929280757904	2.5000598430633545
52	290.4154369831085	pulse	1	t		50.0	2.5	/experiments/AOT/AOT_stimuli/rescaled_final/1491_fw.mp4	0.0	339.47666788101196	
52	292.01519298553467	pulse	1	t		50.0	2.5	/experiments/AOT/AOT_stimuli/rescaled_final/1491_fw.mp4	0.0	341.0764238834381	
52	292.1317570209503	fix_post	2		12	50.0	2.5	/experiments/AOT/AOT_stimuli/rescaled_final/1491_fw.mp4	0.0	341.19298791885376	0.099945068359375
53	292.2317020893097	fix_pre	0		120	51.0	2.5	/experiments/AOT/AOT_stimuli/rescaled_final/2174_fw.mp4	0.0	341.29293298721313	1.0000159740447998
53	293.2317180633545	movie	1		246	51.0	2.5	/experiments/AOT/AOT_stimuli/rescaled_final/2174_fw.mp4	0.0	342.29294896125793	2.4996399879455566
53	293.6157810688019	pulse	1	t		51.0	2.5	/experiments/AOT/AOT_stimuli/rescaled_final/2174_fw.mp4	0.0	342.6770119667053	
53	295.21477913856506	pulse	1	t		51.0	2.5	/experiments/AOT/AOT_stimuli/rescaled_final/2174_fw.mp4	0.0	344.2760100364685	
53	295.73135805130005	fix_post	2		12	51.0	2.5	/experiments/AOT/AOT_stimuli/rescaled_final/2174_fw.mp4	0.0	344.7925889492035	0.10006999969482422
54	295.8314280509949	fix_pre	0		119	52.0	2.5	/experiments/AOT/AOT_stimuli/rescaled_final/1543_fw.mp4	0.0	344.8926589488983	0.9918570518493652
54	296.8154821395874	pulse	0	t		52.0	2.5	/experiments/AOT/AOT_stimuli/rescaled_final/1543_fw.mp4	0.0	345.87671303749084	
54	296.82328510284424	movie	1		246	52.0	2.5	/experiments/AOT/AOT_stimuli/rescaled_final/1543_fw.mp4	0.0	345.8845160007477	2.5084218978881836
54	298.4146201610565	pulse	1	t		52.0	2.5	/experiments/AOT/AOT_stimuli/rescaled_final/1543_fw.mp4	0.0	347.47585105895996	
54	299.3317070007324	fix_post	2		12	52.0	2.5	/experiments/AOT/AOT_stimuli/rescaled_final/1543_fw.mp4	0.0	348.39293789863586	0.09999203681945801
55	299.4316990375519	fix_pre	0		120	53.0	2.5	/experiments/AOT/AOT_stimuli/rescaled_final/1133_rv.mp4	0.0	348.4929299354553	1.0000410079956055
55	300.0151960849762	pulse	0	t		53.0	2.5	/experiments/AOT/AOT_stimuli/rescaled_final/1133_rv.mp4	0.0	349.07642698287964	
55	300.4317400455475	movie	1		243	53.0	2.5	/experiments/AOT/AOT_stimuli/rescaled_final/1133_rv.mp4	0.0	349.4929709434509	2.499903917312622
55	301.61535596847534	pulse	1	t		53.0	2.5	/experiments/AOT/AOT_stimuli/rescaled_final/1133_rv.mp4	0.0	350.6765868663788	
55	302.9316439628601	fix_post	2		12	53.0	2.5	/experiments/AOT/AOT_stimuli/rescaled_final/1133_rv.mp4	0.0	351.99287486076355	0.10004901885986328
56	303.03169298171997	fix_pre	0		120	54.0	2.5	/experiments/AOT/AOT_stimuli/rescaled_final/1162_rv.mp4	0.0	352.0929238796234	0.99989914894104
56	303.21515917778015	pulse	0	t		54.0	2.5	/experiments/AOT/AOT_stimuli/rescaled_final/1162_rv.mp4	0.0	352.2763900756836	
56	304.031592130661	movie	1		244	54.0	2.5	/experiments/AOT/AOT_stimuli/rescaled_final/1162_rv.mp4	0.0	353.09282302856445	2.4996118545532227
56	304.8150861263275	pulse	1	t		54.0	2.5	/experiments/AOT/AOT_stimuli/rescaled_final/1162_rv.mp4	0.0	353.87631702423096	
56	306.41379618644714	pulse	1	t		54.0	2.5	/experiments/AOT/AOT_stimuli/rescaled_final/1162_rv.mp4	0.0	355.4750270843506	
56	306.53120398521423	fix_post	2		12	54.0	2.5	/experiments/AOT/AOT_stimuli/rescaled_final/1162_rv.mp4	0.0	355.5924348831177	0.10038614273071289
57	306.63159012794495	fix_pre	0		120	55.0	2.5	/experiments/AOT/AOT_stimuli/rescaled_final/0628_rv.mp4	0.0	355.6928210258484	0.9996719360351562
57	307.6312620639801	movie	1		247	55.0	2.5	/experiments/AOT/AOT_stimuli/rescaled_final/0628_rv.mp4	0.0	356.69249296188354	2.500369071960449
57	308.01494002342224	pulse	1	t		55.0	2.5	/experiments/AOT/AOT_stimuli/rescaled_final/0628_rv.mp4	0.0	357.0761709213257	
57	309.6151280403137	pulse	1	t		55.0	2.5	/experiments/AOT/AOT_stimuli/rescaled_final/0628_rv.mp4	0.0	358.67635893821716	
57	310.13163113594055	fix_post	2		12	55.0	2.5	/experiments/AOT/AOT_stimuli/rescaled_final/0628_rv.mp4	0.0	359.192862033844	0.09995698928833008
58	310.2315881252289	fix_pre	0		119	56.0	2.5	blank	1.0	359.2928190231323	0.991649866104126
58	311.215124130249	pulse	0	t		56.0	2.5	blank	1.0	360.27635502815247	
58	311.223237991333	movie	1		301	56.0	2.5	blank	1.0	360.28446888923645	2.5085690021514893
58	312.81518602371216	pulse	1	t		56.0	2.5	blank	1.0	361.8764169216156	
58	313.7318069934845	fix_post	2		12	56.0	2.5	blank	1.0	362.79303789138794	0.09983110427856445
59	313.83163809776306	fix_pre	0		120	57.0	2.5	/experiments/AOT/AOT_stimuli/rescaled_final/1970_fw.mp4	0.0	362.8928689956665	1.0000319480895996
59	314.4151420593262	pulse	0	t		57.0	2.5	/experiments/AOT/AOT_stimuli/rescaled_final/1970_fw.mp4	0.0	363.4763729572296	
59	314.83167004585266	movie	1		246	57.0	2.5	/experiments/AOT/AOT_stimuli/rescaled_final/1970_fw.mp4	0.0	363.8929009437561	2.4999489784240723
59	316.01519417762756	pulse	1	t		57.0	2.5	/experiments/AOT/AOT_stimuli/rescaled_final/1970_fw.mp4	0.0	365.076425075531	
59	317.33161902427673	fix_post	2		12	57.0	2.5	/experiments/AOT/AOT_stimuli/rescaled_final/1970_fw.mp4	0.0	366.3928499221802	0.10000109672546387
60	317.4316201210022	fix_pre	0		120	58.0	2.5	/experiments/AOT/AOT_stimuli/rescaled_final/1517_rv.mp4	0.0	366.49285101890564	1.0000059604644775
60	317.61520409584045	pulse	0	t		58.0	2.5	/experiments/AOT/AOT_stimuli/rescaled_final/1517_rv.mp4	0.0	366.6764349937439	
60	318.4316260814667	movie	1		243	58.0	2.5	/experiments/AOT/AOT_stimuli/rescaled_final/1517_rv.mp4	0.0	367.4928569793701	2.499891996383667
60	319.21505308151245	pulse	1	t		58.0	2.5	/experiments/AOT/AOT_stimuli/rescaled_final/1517_rv.mp4	0.0	368.2762839794159	
60	320.81375098228455	pulse	1	t		58.0	2.5	/experiments/AOT/AOT_stimuli/rescaled_final/1517_rv.mp4	0.0	369.874981880188	
60	320.93151807785034	fix_post	2		12	58.0	2.5	/experiments/AOT/AOT_stimuli/rescaled_final/1517_rv.mp4	0.0	369.9927489757538	0.1000359058380127
61	321.03155398368835	fix_pre	0		120	59.0	2.5	/experiments/AOT/AOT_stimuli/rescaled_final/1595_rv.mp4	0.0	370.0927848815918	1.0000431537628174
61	322.0315971374512	movie	1		244	59.0	2.5	/experiments/AOT/AOT_stimuli/rescaled_final/1595_rv.mp4	0.0	371.0928280353546	2.499945878982544
61	322.4149560928345	pulse	1	t		59.0	2.5	/experiments/AOT/AOT_stimuli/rescaled_final/1595_rv.mp4	0.0	371.4761869907379	
61	324.01499104499817	pulse	1	t		59.0	2.5	/experiments/AOT/AOT_stimuli/rescaled_final/1595_rv.mp4	0.0	373.0762219429016	
61	324.5315430164337	fix_post	2		12	59.0	2.5	/experiments/AOT/AOT_stimuli/rescaled_final/1595_rv.mp4	0.0	373.59277391433716	0.09997010231018066
62	324.6315131187439	fix_pre	0		119	60.0	2.5	/experiments/AOT/AOT_stimuli/rescaled_final/2027_rv.mp4	0.0	373.69274401664734	0.9917459487915039
62	325.61496210098267	pulse	0	t		60.0	2.5	/experiments/AOT/AOT_stimuli/rescaled_final/2027_rv.mp4	0.0	374.6761929988861	
62	325.6232590675354	movie	1		244	60.0	2.5	/experiments/AOT/AOT_stimuli/rescaled_final/2027_rv.mp4	0.0	374.68448996543884	2.508255958557129
62	327.2146201133728	pulse	1	t		60.0	2.5	/experiments/AOT/AOT_stimuli/rescaled_final/2027_rv.mp4	0.0	376.27585101127625	
62	328.13151502609253	fix_post	2		12	60.0	2.5	/experiments/AOT/AOT_stimuli/rescaled_final/2027_rv.mp4	0.0	377.192745923996	0.09998106956481934
63	328.23149609565735	fix_pre	0		120	61.0	2.5	/experiments/AOT/AOT_stimuli/rescaled_final/0923_rv.mp4	0.0	377.2927269935608	1.0000200271606445
63	328.81501507759094	pulse	0	t		61.0	2.5	/experiments/AOT/AOT_stimuli/rescaled_final/0923_rv.mp4	0.0	377.8762459754944	
63	329.231516122818	movie	1		244	61.0	2.5	/experiments/AOT/AOT_stimuli/rescaled_final/0923_rv.mp4	0.0	378.29274702072144	2.5000200271606445
63	330.4151270389557	pulse	1	t		61.0	2.5	/experiments/AOT/AOT_stimuli/rescaled_final/0923_rv.mp4	0.0	379.47635793685913	
63	331.73153614997864	fix_post	2		12	61.0	2.5	/experiments/AOT/AOT_stimuli/rescaled_final/0923_rv.mp4	0.0	380.7927670478821	0.09999299049377441
64	331.8315291404724	fix_pre	0		120	62.0	2.5	blank	1.0	380.89276003837585	1.0000438690185547
64	332.0149881839752	pulse	0	t		62.0	2.5	blank	1.0	381.07621908187866	
64	332.83157300949097	movie	1		300	62.0	2.5	blank	1.0	381.8928039073944	2.4998929500579834
64	333.61492705345154	pulse	1	t		62.0	2.5	blank	1.0	382.676157951355	
64	335.2149419784546	pulse	1	t		62.0	2.5	blank	1.0	384.27617287635803	
64	335.33146595954895	fix_post	2		12	62.0	2.5	blank	1.0	384.3926968574524	0.09997820854187012
65	335.4314441680908	fix_pre	0		120	63.0	2.5	/experiments/AOT/AOT_stimuli/rescaled_final/0986_fw.mp4	0.0	384.49267506599426	1.000067949295044
65	336.43151211738586	movie	1		243	63.0	2.5	/experiments/AOT/AOT_stimuli/rescaled_final/0986_fw.mp4	0.0	385.4927430152893	2.4999828338623047
65	336.8146140575409	pulse	1	t		63.0	2.5	/experiments/AOT/AOT_stimuli/rescaled_final/0986_fw.mp4	0.0	385.87584495544434	
65	338.4149169921875	pulse	1	t		63.0	2.5	/experiments/AOT/AOT_stimuli/rescaled_final/0986_fw.mp4	0.0	387.47614789009094	
65	338.93149495124817	fix_post	2		12	63.0	2.5	/experiments/AOT/AOT_stimuli/rescaled_final/0986_fw.mp4	0.0	387.9927258491516	0.09992313385009766
66	339.03141808509827	fix_pre	0		119	64.0	2.5	/experiments/AOT/AOT_stimuli/rescaled_final/1395_fw.mp4	0.0	388.0926489830017	0.9916958808898926
66	340.01497197151184	pulse	0	t		64.0	2.5	/experiments/AOT/AOT_stimuli/rescaled_final/1395_fw.mp4	0.0	389.0762028694153	
66	340.02311396598816	movie	1		245	64.0	2.5	/experiments/AOT/AOT_stimuli/rescaled_final/1395_fw.mp4	0.0	389.0843448638916	2.5083529949188232
66	341.61496210098267	pulse	1	t		64.0	2.5	/experiments/AOT/AOT_stimuli/rescaled_final/1395_fw.mp4	0.0	390.6761929988861	
66	342.531466960907	fix_post	2		12	64.0	2.5	/experiments/AOT/AOT_stimuli/rescaled_final/1395_fw.mp4	0.0	391.5926978588104	0.10000014305114746
67	342.63146710395813	fix_pre	0		120	65.0	2.5	/experiments/AOT/AOT_stimuli/rescaled_final/2009_rv.mp4	0.0	391.6926980018616	0.9999239444732666
67	343.21497106552124	pulse	0	t		65.0	2.5	/experiments/AOT/AOT_stimuli/rescaled_final/2009_rv.mp4	0.0	392.2762019634247	
67	343.6313910484314	movie	1		246	65.0	2.5	/experiments/AOT/AOT_stimuli/rescaled_final/2009_rv.mp4	0.0	392.69262194633484	2.500009059906006
67	344.8150460720062	pulse	1	t		65.0	2.5	/experiments/AOT/AOT_stimuli/rescaled_final/2009_rv.mp4	0.0	393.87627696990967	
67	346.1314001083374	fix_post	2		12	65.0	2.5	/experiments/AOT/AOT_stimuli/rescaled_final/2009_rv.mp4	0.0	395.19263100624084	0.09998893737792969
68	346.23138904571533	fix_pre	0		120	66.0	2.5	/experiments/AOT/AOT_stimuli/rescaled_final/0923_fw.mp4	0.0	395.2926199436188	1.000180959701538
68	346.41489696502686	pulse	0	t		66.0	2.5	/experiments/AOT/AOT_stimuli/rescaled_final/0923_fw.mp4	0.0	395.4761278629303	
68	347.23157000541687	movie	1		245	66.0	2.5	/experiments/AOT/AOT_stimuli/rescaled_final/0923_fw.mp4	0.0	396.2928009033203	2.499484062194824
68	348.0148570537567	pulse	1	t		66.0	2.5	/experiments/AOT/AOT_stimuli/rescaled_final/0923_fw.mp4	0.0	397.07608795166016	
68	349.61284613609314	pulse	1	t		66.0	2.5	/experiments/AOT/AOT_stimuli/rescaled_final/0923_fw.mp4	0.0	398.6740770339966	
68	349.7310540676117	fix_post	2		12	66.0	2.5	/experiments/AOT/AOT_stimuli/rescaled_final/0923_fw.mp4	0.0	398.79228496551514	0.09998798370361328
69	349.8310420513153	fix_pre	0		120	67.0	2.5	/experiments/AOT/AOT_stimuli/rescaled_final/0419_rv.mp4	0.0	398.89227294921875	1.0004150867462158
69	350.8314571380615	movie	1		246	67.0	2.5	/experiments/AOT/AOT_stimuli/rescaled_final/0419_rv.mp4	0.0	399.89268803596497	2.4995579719543457
69	351.2143249511719	pulse	1	t		67.0	2.5	/experiments/AOT/AOT_stimuli/rescaled_final/0419_rv.mp4	0.0	400.2755558490753	
69	352.8147461414337	pulse	1	t		67.0	2.5	/experiments/AOT/AOT_stimuli/rescaled_final/0419_rv.mp4	0.0	401.87597703933716	
69	353.33101511001587	fix_post	2		12	67.0	2.5	/experiments/AOT/AOT_stimuli/rescaled_final/0419_rv.mp4	0.0	402.3922460079193	0.10033798217773438
70	353.4313530921936	fix_pre	0		119	68.0	2.5	/experiments/AOT/AOT_stimuli/rescaled_final/1387_rv.mp4	0.0	402.49258399009705	0.9917929172515869
70	354.41494512557983	pulse	0	t		68.0	2.5	/experiments/AOT/AOT_stimuli/rescaled_final/1387_rv.mp4	0.0	403.4761760234833	
70	354.4231460094452	movie	1		247	68.0	2.5	/experiments/AOT/AOT_stimuli/rescaled_final/1387_rv.mp4	0.0	403.48437690734863	2.5082199573516846
70	356.0144410133362	pulse	1	t		68.0	2.5	/experiments/AOT/AOT_stimuli/rescaled_final/1387_rv.mp4	0.0	405.0756719112396	
70	356.9313659667969	fix_post	2		12	68.0	2.5	/experiments/AOT/AOT_stimuli/rescaled_final/1387_rv.mp4	0.0	405.9925968647003	0.10004615783691406
71	357.0314121246338	fix_pre	0		120	69.0	2.5	/experiments/AOT/AOT_stimuli/rescaled_final/1928_rv.mp4	0.0	406.09264302253723	0.9999139308929443
71	357.6148750782013	pulse	0	t		69.0	2.5	/experiments/AOT/AOT_stimuli/rescaled_final/1928_rv.mp4	0.0	406.67610597610474	
71	358.03132605552673	movie	1		246	69.0	2.5	/experiments/AOT/AOT_stimuli/rescaled_final/1928_rv.mp4	0.0	407.0925569534302	2.5000181198120117
71	359.2149610519409	pulse	1	t		69.0	2.5	/experiments/AOT/AOT_stimuli/rescaled_final/1928_rv.mp4	0.0	408.27619194984436	
71	360.53134417533875	fix_post	2		12	69.0	2.5	/experiments/AOT/AOT_stimuli/rescaled_final/1928_rv.mp4	0.0	409.5925750732422	0.10007691383361816
72	360.63142108917236	fix_pre	0		120	70.0	2.5	blank	1.0	409.6926519870758	0.9999299049377441
72	360.81486415863037	pulse	0	t		70.0	2.5	blank	1.0	409.8760950565338	
72	361.6313509941101	movie	1		300	70.0	2.5	blank	1.0	410.69258189201355	2.5000171661376953
72	362.41492104530334	pulse	1	t		70.0	2.5	blank	1.0	411.4761519432068	
72	364.0147261619568	pulse	1	t		70.0	2.5	blank	1.0	413.07595705986023	
72	364.1313681602478	fix_post	2		12	70.0	2.5	blank	1.0	413.19259905815125	0.09993195533752441
73	364.2313001155853	fix_pre	0		120	71.0	2.5	/experiments/AOT/AOT_stimuli/rescaled_final/0534_fw.mp4	0.0	413.29253101348877	1.0000219345092773
73	365.2313220500946	movie	1		245	71.0	2.5	/experiments/AOT/AOT_stimuli/rescaled_final/0534_fw.mp4	0.0	414.29255294799805	2.4996891021728516
73	365.6148099899292	pulse	1	t		71.0	2.5	/experiments/AOT/AOT_stimuli/rescaled_final/0534_fw.mp4	0.0	414.67604088783264	
73	367.21480417251587	pulse	1	t		71.0	2.5	/experiments/AOT/AOT_stimuli/rescaled_final/0534_fw.mp4	0.0	416.2760350704193	
73	367.73101115226746	fix_post	2		12	71.0	2.5	/experiments/AOT/AOT_stimuli/rescaled_final/0534_fw.mp4	0.0	416.7922420501709	0.10030484199523926
74	367.8313159942627	fix_pre	0		119	72.0	2.5	/experiments/AOT/AOT_stimuli/rescaled_final/0367_fw.mp4	0.0	416.89254689216614	0.9916031360626221
74	368.8148150444031	pulse	0	t		72.0	2.5	/experiments/AOT/AOT_stimuli/rescaled_final/0367_fw.mp4	0.0	417.8760459423065	
74	368.8229191303253	movie	1		246	72.0	2.5	/experiments/AOT/AOT_stimuli/rescaled_final/0367_fw.mp4	0.0	417.88415002822876	2.5084149837493896
74	370.41458201408386	pulse	1	t		72.0	2.5	/experiments/AOT/AOT_stimuli/rescaled_final/0367_fw.mp4	0.0	419.4758129119873	
74	371.3313341140747	fix_post	2		12	72.0	2.5	/experiments/AOT/AOT_stimuli/rescaled_final/0367_fw.mp4	0.0	420.39256501197815	0.09999203681945801
75	371.43132615089417	fix_pre	0		120	73.0	2.5	/experiments/AOT/AOT_stimuli/rescaled_final/1640_fw.mp4	0.0	420.4925570487976	1.0000438690185547
75	372.0148301124573	pulse	0	t		73.0	2.5	/experiments/AOT/AOT_stimuli/rescaled_final/1640_fw.mp4	0.0	421.0760610103607	
75	372.4313700199127	movie	1		244	73.0	2.5	/experiments/AOT/AOT_stimuli/rescaled_final/1640_fw.mp4	0.0	421.49260091781616	2.4999310970306396
75	373.61485409736633	pulse	1	t		73.0	2.5	/experiments/AOT/AOT_stimuli/rescaled_final/1640_fw.mp4	0.0	422.6760849952698	
75	374.93130111694336	fix_post	2		12	73.0	2.5	/experiments/AOT/AOT_stimuli/rescaled_final/1640_fw.mp4	0.0	423.9925320148468	0.1000070571899414
76	375.0313081741333	fix_pre	0		120	74.0	2.5	/experiments/AOT/AOT_stimuli/rescaled_final/0724_rv.mp4	0.0	424.09253907203674	1.0000009536743164
76	375.21479296684265	pulse	0	t		74.0	2.5	/experiments/AOT/AOT_stimuli/rescaled_final/0724_rv.mp4	0.0	424.2760238647461	
76	376.0313091278076	movie	1		250	74.0	2.5	/experiments/AOT/AOT_stimuli/rescaled_final/0724_rv.mp4	0.0	425.09254002571106	2.500018835067749
76	376.81475615501404	pulse	1	t		74.0	2.5	/experiments/AOT/AOT_stimuli/rescaled_final/0724_rv.mp4	0.0	425.8759870529175	
76	378.414675951004	pulse	1	t		74.0	2.5	/experiments/AOT/AOT_stimuli/rescaled_final/0724_rv.mp4	0.0	427.47590684890747	
76	378.53132796287537	fix_post	2		12	74.0	2.5	/experiments/AOT/AOT_stimuli/rescaled_final/0724_rv.mp4	0.0	427.5925588607788	0.09992003440856934
77	378.63124799728394	fix_pre	0		120	75.0	2.5	blank	1.0	427.6924788951874	1.0000510215759277
77	379.63129901885986	movie	1		300	75.0	2.5	blank	1.0	428.6925299167633	2.5001630783081055
77	380.014808177948	pulse	1	t		75.0	2.5	blank	1.0	429.07603907585144	
77	381.61477303504944	pulse	1	t		75.0	2.5	blank	1.0	430.6760039329529	
77	382.13146209716797	fix_post	2		12	75.0	2.5	blank	1.0	431.1926929950714	0.09980297088623047
78	382.2312650680542	fix_pre	0		119	76.0	2.5	/experiments/AOT/AOT_stimuli/rescaled_final/0169_fw.mp4	0.0	431.29249596595764	0.9916460514068604
78	383.2147560119629	pulse	0	t		76.0	2.5	/experiments/AOT/AOT_stimuli/rescaled_final/0169_fw.mp4	0.0	432.27598690986633	
78	383.22291111946106	movie	1		244	76.0	2.5	/experiments/AOT/AOT_stimuli/rescaled_final/0169_fw.mp4	0.0	432.2841420173645	2.5084149837493896
78	384.8143410682678	pulse	1	t		76.0	2.5	/experiments/AOT/AOT_stimuli/rescaled_final/0169_fw.mp4	0.0	433.87557196617126	
78	385.73132610321045	fix_post	2		12	76.0	2.5	/experiments/AOT/AOT_stimuli/rescaled_final/0169_fw.mp4	0.0	434.7925570011139	0.09990906715393066
79	385.8312351703644	fix_pre	0		120	77.0	2.5	/experiments/AOT/AOT_stimuli/rescaled_final/0929_fw.mp4	0.0	434.8924660682678	1.00003981590271
79	386.41478514671326	pulse	0	t		77.0	2.5	/experiments/AOT/AOT_stimuli/rescaled_final/0929_fw.mp4	0.0	435.4760160446167	
79	386.8312749862671	movie	1		246	77.0	2.5	/experiments/AOT/AOT_stimuli/rescaled_final/0929_fw.mp4	0.0	435.89250588417053	2.4999470710754395
79	388.0148320198059	pulse	1	t		77.0	2.5	/experiments/AOT/AOT_stimuli/rescaled_final/0929_fw.mp4	0.0	437.07606291770935	
79	389.33122205734253	fix_post	2		12	77.0	2.5	/experiments/AOT/AOT_stimuli/rescaled_final/0929_fw.mp4	0.0	438.392452955246	0.1000359058380127
80	389.43125796318054	fix_pre	0		120	78.0	2.5	/experiments/AOT/AOT_stimuli/rescaled_final/0054_fw.mp4	0.0	438.492488861084	0.9999182224273682
80	389.6146831512451	pulse	0	t		78.0	2.5	/experiments/AOT/AOT_stimuli/rescaled_final/0054_fw.mp4	0.0	438.67591404914856	
80	390.4311761856079	movie	1		244	78.0	2.5	/experiments/AOT/AOT_stimuli/rescaled_final/0054_fw.mp4	0.0	439.49240708351135	2.5000298023223877
80	391.21473598480225	pulse	1	t		78.0	2.5	/experiments/AOT/AOT_stimuli/rescaled_final/0054_fw.mp4	0.0	440.2759668827057	
80	392.8147749900818	pulse	1	t		78.0	2.5	/experiments/AOT/AOT_stimuli/rescaled_final/0054_fw.mp4	0.0	441.87600588798523	
80	392.9312059879303	fix_post	2		12	78.0	2.5	/experiments/AOT/AOT_stimuli/rescaled_final/0054_fw.mp4	0.0	441.99243688583374	0.10012006759643555
81	393.03132605552673	fix_pre	0		120	79.0	2.5	/experiments/AOT/AOT_stimuli/rescaled_final/1331_fw.mp4	0.0	442.0925569534302	0.9999189376831055
81	394.03124499320984	movie	1		245	79.0	2.5	/experiments/AOT/AOT_stimuli/rescaled_final/1331_fw.mp4	0.0	443.0924758911133	2.4999451637268066
81	394.41569900512695	pulse	1	t		79.0	2.5	/experiments/AOT/AOT_stimuli/rescaled_final/1331_fw.mp4	0.0	443.4769299030304	
81	396.0146691799164	pulse	1	t		79.0	2.5	/experiments/AOT/AOT_stimuli/rescaled_final/1331_fw.mp4	0.0	445.0759000778198	
81	396.53119015693665	fix_post	2		12	79.0	2.5	/experiments/AOT/AOT_stimuli/rescaled_final/1331_fw.mp4	0.0	445.5924210548401	0.09993290901184082
82	396.6311230659485	fix_pre	0		119	80.0	2.5	/experiments/AOT/AOT_stimuli/rescaled_final/0865_rv.mp4	0.0	445.69235396385193	0.9916870594024658
82	397.6147301197052	pulse	0	t		80.0	2.5	/experiments/AOT/AOT_stimuli/rescaled_final/0865_rv.mp4	0.0	446.67596101760864	
82	397.62281012535095	movie	1		245	80.0	2.5	/experiments/AOT/AOT_stimuli/rescaled_final/0865_rv.mp4	0.0	446.6840410232544	2.508370876312256
82	399.21444606781006	pulse	1	t		80.0	2.5	/experiments/AOT/AOT_stimuli/rescaled_final/0865_rv.mp4	0.0	448.2756769657135	
82	400.1311810016632	fix_post	2		12	80.0	2.5	/experiments/AOT/AOT_stimuli/rescaled_final/0865_rv.mp4	0.0	449.19241189956665	0.10004305839538574
83	400.2312240600586	fix_pre	0		120	81.0	2.5	/experiments/AOT/AOT_stimuli/rescaled_final/0498_fw.mp4	0.0	449.29245495796204	0.9999361038208008
83	400.8146631717682	pulse	0	t		81.0	2.5	/experiments/AOT/AOT_stimuli/rescaled_final/0498_fw.mp4	0.0	449.87589406967163	
83	401.2311601638794	movie	1		244	81.0	2.5	/experiments/AOT/AOT_stimuli/rescaled_final/0498_fw.mp4	0.0	450.29239106178284	2.4999589920043945
83	402.4148199558258	pulse	1	t		81.0	2.5	/experiments/AOT/AOT_stimuli/rescaled_final/0498_fw.mp4	0.0	451.47605085372925	
83	403.7311191558838	fix_post	2		12	81.0	2.5	/experiments/AOT/AOT_stimuli/rescaled_final/0498_fw.mp4	0.0	452.79235005378723	0.0995337963104248
84	403.8306529521942	fix_pre	0		120	82.0	2.5	/experiments/AOT/AOT_stimuli/rescaled_final/1252_rv.mp4	0.0	452.89188385009766	1.0005640983581543
84	404.01471400260925	pulse	0	t		82.0	2.5	/experiments/AOT/AOT_stimuli/rescaled_final/1252_rv.mp4	0.0	453.0759449005127	
84	404.83121705055237	movie	1		244	82.0	2.5	/experiments/AOT/AOT_stimuli/rescaled_final/1252_rv.mp4	0.0	453.8924479484558	2.4995779991149902
84	405.61417508125305	pulse	1	t		82.0	2.5	/experiments/AOT/AOT_stimuli/rescaled_final/1252_rv.mp4	0.0	454.6754059791565	
84	407.2134711742401	pulse	1	t		82.0	2.5	/experiments/AOT/AOT_stimuli/rescaled_final/1252_rv.mp4	0.0	456.27470207214355	
84	407.33079504966736	fix_post	2		12	82.0	2.5	/experiments/AOT/AOT_stimuli/rescaled_final/1252_rv.mp4	0.0	456.3920259475708	0.10005307197570801
85	407.43084812164307	fix_pre	0		120	83.0	2.5	blank	1.0	456.4920790195465	1.000140905380249
85	408.4309890270233	movie	1		300	83.0	2.5	blank	1.0	457.49221992492676	2.5001511573791504
85	408.81457805633545	pulse	1	t		83.0	2.5	blank	1.0	457.8758089542389	
85	410.4146029949188	pulse	1	t		83.0	2.5	blank	1.0	459.47583389282227	
85	410.93114018440247	fix_post	2		12	83.0	2.5	blank	1.0	459.9923710823059	0.09995579719543457
87	411.0310959815979	stim	0		1716					460.09232687950134	14.30000114440918
87	412.01469802856445	pulse	0	t						461.0759289264679	
87	413.6145851612091	pulse	0	t						462.67581605911255	
87	415.2144720554352	pulse	0	t						464.2757029533386	
87	416.81450605392456	pulse	0	t						465.875736951828	
87	418.4144570827484	pulse	0	t						467.47568798065186	
87	420.0145070552826	pulse	0	t						469.07573795318604	
87	421.6144781112671	pulse	0	t						470.67570900917053	
87	423.21454405784607	pulse	0	t						472.2757749557495	
87	424.81441617012024	pulse	0	t						473.8756470680237	
