trial_nr	onset	event_type	phase	response	nr_frames	movie_index	movie_duration	movie_file	blank	onset_abs	duration
0	0.16672158241271973	stim	0		1					17.92810893058777	0.008209466934204102
0	0.11315417289733887	response	0	space						17.874541521072388	
1	0.17493104934692383	stim	0		4521					17.936318397521973	37.69337224960327
1	37.853533029556274	pulse	0	t						55.61492037773132	
1	37.868303298950195	stim	1		1714					55.629690647125244	14.29768967628479
1	39.4476215839386	pulse	1	t						57.20900893211365	
1	41.047876834869385	pulse	1	t						58.809264183044434	
1	42.648183822631836	pulse	1	t						60.409571170806885	
1	44.24836540222168	pulse	1	t						62.00975275039673	
1	45.848591566085815	pulse	1	t						63.609978914260864	
1	47.4488959312439	pulse	1	t						65.21028327941895	
1	49.04929208755493	pulse	1	t						66.81067943572998	
1	50.64948773384094	pulse	1	t						68.41087508201599	
2	52.165992975234985	fix_pre	0		11	0.0	2.5	/experiments/Knapen_AOT/AOT_stimuli/rescaled_final/0318_rv.mp4	0.0	69.92738032341003	0.10844755172729492
2	52.24992489814758	pulse	0	t		0.0	2.5	/experiments/Knapen_AOT/AOT_stimuli/rescaled_final/0318_rv.mp4	0.0	70.01131224632263	
2	52.27444052696228	movie	1		282	0.0	2.5	/experiments/Knapen_AOT/AOT_stimuli/rescaled_final/0318_rv.mp4	0.0	70.03582787513733	2.491947889328003
2	53.84833645820618	pulse	1	t		0.0	2.5	/experiments/Knapen_AOT/AOT_stimuli/rescaled_final/0318_rv.mp4	0.0	71.60972380638123	
2	54.76638841629028	fix_post	2		12	0.0	2.5	/experiments/Knapen_AOT/AOT_stimuli/rescaled_final/0318_rv.mp4	0.0	72.52777576446533	0.10001993179321289
3	54.866408348083496	fix_pre	0		120	1.0	2.5	/experiments/Knapen_AOT/AOT_stimuli/rescaled_final/1354_rv.mp4	0.0	72.62779569625854	1.0085461139678955
3	55.45021438598633	pulse	0	t		1.0	2.5	/experiments/Knapen_AOT/AOT_stimuli/rescaled_final/1354_rv.mp4	0.0	73.21160173416138	
3	55.87495446205139	movie	1		281	1.0	2.5	/experiments/Knapen_AOT/AOT_stimuli/rescaled_final/1354_rv.mp4	0.0	73.63634181022644	2.491966724395752
3	57.048431634902954	pulse	1	t		1.0	2.5	/experiments/Knapen_AOT/AOT_stimuli/rescaled_final/1354_rv.mp4	0.0	74.809818983078	
3	58.366921186447144	fix_post	2		12	1.0	2.5	/experiments/Knapen_AOT/AOT_stimuli/rescaled_final/1354_rv.mp4	0.0	76.12830853462219	0.10003042221069336
4	58.46695160865784	fix_pre	0		120	2.0	2.5	/experiments/Knapen_AOT/AOT_stimuli/rescaled_final/1319_rv.mp4	0.0	76.22833895683289	1.008519172668457
4	58.642508029937744	pulse	0	t		2.0	2.5	/experiments/Knapen_AOT/AOT_stimuli/rescaled_final/1319_rv.mp4	0.0	76.4038953781128	
4	59.475470781326294	movie	1		285	2.0	2.5	/experiments/Knapen_AOT/AOT_stimuli/rescaled_final/1319_rv.mp4	0.0	77.23685812950134	2.492006540298462
4	60.24253010749817	pulse	1	t		2.0	2.5	/experiments/Knapen_AOT/AOT_stimuli/rescaled_final/1319_rv.mp4	0.0	78.00391745567322	
4	61.84307789802551	pulse	1	t		2.0	2.5	/experiments/Knapen_AOT/AOT_stimuli/rescaled_final/1319_rv.mp4	0.0	79.60446524620056	
4	61.967477321624756	fix_post	2		12	2.0	2.5	/experiments/Knapen_AOT/AOT_stimuli/rescaled_final/1319_rv.mp4	0.0	79.7288646697998	0.10001802444458008
5	62.067495346069336	fix_pre	0		120	3.0	2.5	/experiments/Knapen_AOT/AOT_stimuli/rescaled_final/0703_rv.mp4	0.0	79.82888269424438	1.0085265636444092
5	63.076021909713745	movie	1		284	3.0	2.5	/experiments/Knapen_AOT/AOT_stimuli/rescaled_final/0703_rv.mp4	0.0	80.8374092578888	2.491997241973877
5	63.442973375320435	pulse	1	t		3.0	2.5	/experiments/Knapen_AOT/AOT_stimuli/rescaled_final/0703_rv.mp4	0.0	81.20436072349548	
5	65.04238677024841	pulse	1	t		3.0	2.5	/experiments/Knapen_AOT/AOT_stimuli/rescaled_final/0703_rv.mp4	0.0	82.80377411842346	
5	65.56801915168762	fix_post	2		12	3.0	2.5	/experiments/Knapen_AOT/AOT_stimuli/rescaled_final/0703_rv.mp4	0.0	83.32940649986267	0.10000872611999512
6	65.66802787780762	fix_pre	0		118	4.0	2.5	/experiments/Knapen_AOT/AOT_stimuli/rescaled_final/1563_fw.mp4	0.0	83.42941522598267	0.9918599128723145
6	66.64340925216675	pulse	0	t		4.0	2.5	/experiments/Knapen_AOT/AOT_stimuli/rescaled_final/1563_fw.mp4	0.0	84.4047966003418	
6	66.65988779067993	movie	1		281	4.0	2.5	/experiments/Knapen_AOT/AOT_stimuli/rescaled_final/1563_fw.mp4	0.0	84.42127513885498	2.500335454940796
6	68.24372339248657	pulse	1	t		4.0	2.5	/experiments/Knapen_AOT/AOT_stimuli/rescaled_final/1563_fw.mp4	0.0	86.00511074066162	
6	69.16022324562073	fix_post	2		12	4.0	2.5	/experiments/Knapen_AOT/AOT_stimuli/rescaled_final/1563_fw.mp4	0.0	86.92161059379578	0.10004568099975586
7	69.26026892662048	fix_pre	0		120	5.0	2.5	blank	1.0	87.02165627479553	1.0001258850097656
7	69.84390163421631	pulse	0	t		5.0	2.5	blank	1.0	87.60528898239136	
7	70.26039481163025	movie	1		300	5.0	2.5	blank	1.0	88.0217821598053	2.5003914833068848
7	71.44419598579407	pulse	1	t		5.0	2.5	blank	1.0	89.20558333396912	
7	72.76078629493713	fix_post	2		12	5.0	2.5	blank	1.0	90.52217364311218	0.10000729560852051
8	72.86079359054565	fix_pre	0		120	6.0	2.5	/experiments/Knapen_AOT/AOT_stimuli/rescaled_final/0555_fw.mp4	0.0	90.6221809387207	1.0085132122039795
8	73.04434323310852	pulse	0	t		6.0	2.5	/experiments/Knapen_AOT/AOT_stimuli/rescaled_final/0555_fw.mp4	0.0	90.80573058128357	
8	73.86930680274963	movie	1		286	6.0	2.5	/experiments/Knapen_AOT/AOT_stimuli/rescaled_final/0555_fw.mp4	0.0	91.63069415092468	2.492017984390259
8	74.64251732826233	pulse	1	t		6.0	2.5	/experiments/Knapen_AOT/AOT_stimuli/rescaled_final/0555_fw.mp4	0.0	92.40390467643738	
8	76.24312829971313	pulse	1	t		6.0	2.5	/experiments/Knapen_AOT/AOT_stimuli/rescaled_final/0555_fw.mp4	0.0	94.00451564788818	
8	76.36132478713989	fix_post	2		12	6.0	2.5	/experiments/Knapen_AOT/AOT_stimuli/rescaled_final/0555_fw.mp4	0.0	94.12271213531494	0.10000300407409668
9	76.46132779121399	fix_pre	0		120	7.0	2.5	/experiments/Knapen_AOT/AOT_stimuli/rescaled_final/1596_fw.mp4	0.0	94.22271513938904	1.0085482597351074
9	77.4698760509491	movie	1		288	7.0	2.5	/experiments/Knapen_AOT/AOT_stimuli/rescaled_final/1596_fw.mp4	0.0	95.23126339912415	2.4919795989990234
9	77.84328031539917	pulse	1	t		7.0	2.5	/experiments/Knapen_AOT/AOT_stimuli/rescaled_final/1596_fw.mp4	0.0	95.60466766357422	
9	79.44310069084167	pulse	1	t		7.0	2.5	/experiments/Knapen_AOT/AOT_stimuli/rescaled_final/1596_fw.mp4	0.0	97.20448803901672	
9	79.96185564994812	fix_post	2		12	7.0	2.5	/experiments/Knapen_AOT/AOT_stimuli/rescaled_final/1596_fw.mp4	0.0	97.72324299812317	0.10003423690795898
10	80.06188988685608	fix_pre	0		119	8.0	2.5	/experiments/Knapen_AOT/AOT_stimuli/rescaled_final/0774_fw.mp4	0.0	97.82327723503113	1.0001602172851562
10	81.04556488990784	pulse	0	t		8.0	2.5	/experiments/Knapen_AOT/AOT_stimuli/rescaled_final/0774_fw.mp4	0.0	98.80695223808289	
10	81.06205010414124	movie	1		290	8.0	2.5	/experiments/Knapen_AOT/AOT_stimuli/rescaled_final/0774_fw.mp4	0.0	98.82343745231628	2.5003442764282227
10	82.64425849914551	pulse	1	t		8.0	2.5	/experiments/Knapen_AOT/AOT_stimuli/rescaled_final/0774_fw.mp4	0.0	100.40564584732056	
10	83.56239438056946	fix_post	2		12	8.0	2.5	/experiments/Knapen_AOT/AOT_stimuli/rescaled_final/0774_fw.mp4	0.0	101.3237817287445	0.10022544860839844
11	83.66261982917786	fix_pre	0		120	9.0	2.5	/experiments/Knapen_AOT/AOT_stimuli/rescaled_final/0195_rv.mp4	0.0	101.4240071773529	1.0082988739013672
11	84.24604892730713	pulse	0	t		9.0	2.5	/experiments/Knapen_AOT/AOT_stimuli/rescaled_final/0195_rv.mp4	0.0	102.00743627548218	
11	84.67091870307922	movie	1		289	9.0	2.5	/experiments/Knapen_AOT/AOT_stimuli/rescaled_final/0195_rv.mp4	0.0	102.43230605125427	2.4920175075531006
11	85.84459328651428	pulse	1	t		9.0	2.5	/experiments/Knapen_AOT/AOT_stimuli/rescaled_final/0195_rv.mp4	0.0	103.60598063468933	
11	87.16293621063232	fix_post	2		12	9.0	2.5	/experiments/Knapen_AOT/AOT_stimuli/rescaled_final/0195_rv.mp4	0.0	104.92432355880737	0.10004162788391113
12	87.26297783851624	fix_pre	0		120	10.0	2.5	/experiments/Knapen_AOT/AOT_stimuli/rescaled_final/0931_fw.mp4	0.0	105.02436518669128	1.0086066722869873
12	87.4465754032135	pulse	0	t		10.0	2.5	/experiments/Knapen_AOT/AOT_stimuli/rescaled_final/0931_fw.mp4	0.0	105.20796275138855	
12	88.27158451080322	movie	1		287	10.0	2.5	/experiments/Knapen_AOT/AOT_stimuli/rescaled_final/0931_fw.mp4	0.0	106.03297185897827	2.4919278621673584
12	89.04469585418701	pulse	1	t		10.0	2.5	/experiments/Knapen_AOT/AOT_stimuli/rescaled_final/0931_fw.mp4	0.0	106.80608320236206	
12	90.64493465423584	pulse	1	t		10.0	2.5	/experiments/Knapen_AOT/AOT_stimuli/rescaled_final/0931_fw.mp4	0.0	108.40632200241089	
12	90.76351237297058	fix_post	2		12	10.0	2.5	/experiments/Knapen_AOT/AOT_stimuli/rescaled_final/0931_fw.mp4	0.0	108.52489972114563	0.09999513626098633
13	90.86350750923157	fix_pre	0		120	11.0	2.5	/experiments/Knapen_AOT/AOT_stimuli/rescaled_final/1085_fw.mp4	0.0	108.62489485740662	1.0085456371307373
13	91.8720531463623	movie	1		284	11.0	2.5	/experiments/Knapen_AOT/AOT_stimuli/rescaled_final/1085_fw.mp4	0.0	109.63344049453735	2.491960287094116
13	92.24605560302734	pulse	1	t		11.0	2.5	/experiments/Knapen_AOT/AOT_stimuli/rescaled_final/1085_fw.mp4	0.0	110.00744295120239	
13	93.84666681289673	pulse	1	t		11.0	2.5	/experiments/Knapen_AOT/AOT_stimuli/rescaled_final/1085_fw.mp4	0.0	111.60805416107178	
13	94.36401343345642	fix_post	2		12	11.0	2.5	/experiments/Knapen_AOT/AOT_stimuli/rescaled_final/1085_fw.mp4	0.0	112.12540078163147	0.1000986099243164
14	94.46411204338074	fix_pre	0		119	12.0	2.5	/experiments/Knapen_AOT/AOT_stimuli/rescaled_final/0552_rv.mp4	0.0	112.22549939155579	1.0000650882720947
14	95.44770860671997	pulse	0	t		12.0	2.5	/experiments/Knapen_AOT/AOT_stimuli/rescaled_final/0552_rv.mp4	0.0	113.20909595489502	
14	95.46417713165283	movie	1		284	12.0	2.5	/experiments/Knapen_AOT/AOT_stimuli/rescaled_final/0552_rv.mp4	0.0	113.22556447982788	2.5003647804260254
14	97.04646587371826	pulse	1	t		12.0	2.5	/experiments/Knapen_AOT/AOT_stimuli/rescaled_final/0552_rv.mp4	0.0	114.80785322189331	
14	97.96454191207886	fix_post	2		12	12.0	2.5	/experiments/Knapen_AOT/AOT_stimuli/rescaled_final/0552_rv.mp4	0.0	115.7259292602539	0.10003662109375
15	98.06457853317261	fix_pre	0		120	13.0	2.5	blank	1.0	115.82596588134766	1.0001294612884521
15	98.64820075035095	pulse	0	t		13.0	2.5	blank	1.0	116.409588098526	
15	99.06470799446106	movie	1		300	13.0	2.5	blank	1.0	116.82609534263611	2.500438690185547
15	100.24879837036133	pulse	1	t		13.0	2.5	blank	1.0	118.01018571853638	
15	101.5651466846466	fix_post	2		12	13.0	2.5	blank	1.0	119.32653403282166	0.1000208854675293
16	101.66516757011414	fix_pre	0		120	14.0	2.5	/experiments/Knapen_AOT/AOT_stimuli/rescaled_final/1691_rv.mp4	0.0	119.42655491828918	1.0084631443023682
16	101.8486430644989	pulse	0	t		14.0	2.5	/experiments/Knapen_AOT/AOT_stimuli/rescaled_final/1691_rv.mp4	0.0	119.61003041267395	
16	102.6736307144165	movie	1		286	14.0	2.5	/experiments/Knapen_AOT/AOT_stimuli/rescaled_final/1691_rv.mp4	0.0	120.43501806259155	2.4919965267181396
16	103.44686102867126	pulse	1	t		14.0	2.5	/experiments/Knapen_AOT/AOT_stimuli/rescaled_final/1691_rv.mp4	0.0	121.20824837684631	
16	105.04741716384888	pulse	1	t		14.0	2.5	/experiments/Knapen_AOT/AOT_stimuli/rescaled_final/1691_rv.mp4	0.0	122.80880451202393	
16	105.16562724113464	fix_post	2		12	14.0	2.5	/experiments/Knapen_AOT/AOT_stimuli/rescaled_final/1691_rv.mp4	0.0	122.92701458930969	0.10002017021179199
17	105.26564741134644	fix_pre	0		120	15.0	2.5	/experiments/Knapen_AOT/AOT_stimuli/rescaled_final/0977_rv.mp4	0.0	123.02703475952148	1.008598804473877
17	106.27424621582031	movie	1		282	15.0	2.5	/experiments/Knapen_AOT/AOT_stimuli/rescaled_final/0977_rv.mp4	0.0	124.03563356399536	2.491938829421997
17	106.64771008491516	pulse	1	t		15.0	2.5	/experiments/Knapen_AOT/AOT_stimuli/rescaled_final/0977_rv.mp4	0.0	124.40909743309021	
17	108.2473475933075	pulse	1	t		15.0	2.5	/experiments/Knapen_AOT/AOT_stimuli/rescaled_final/0977_rv.mp4	0.0	126.00873494148254	
17	108.76618504524231	fix_post	2		12	15.0	2.5	/experiments/Knapen_AOT/AOT_stimuli/rescaled_final/0977_rv.mp4	0.0	126.52757239341736	0.10014700889587402
18	108.86633205413818	fix_pre	0		119	16.0	2.5	/experiments/Knapen_AOT/AOT_stimuli/rescaled_final/1401_fw.mp4	0.0	126.62771940231323	1.0000548362731934
18	109.84989047050476	pulse	0	t		16.0	2.5	/experiments/Knapen_AOT/AOT_stimuli/rescaled_final/1401_fw.mp4	0.0	127.61127781867981	
18	109.86638689041138	movie	1		285	16.0	2.5	/experiments/Knapen_AOT/AOT_stimuli/rescaled_final/1401_fw.mp4	0.0	127.62777423858643	2.5003252029418945
18	111.44992113113403	pulse	1	t		16.0	2.5	/experiments/Knapen_AOT/AOT_stimuli/rescaled_final/1401_fw.mp4	0.0	129.21130847930908	
18	112.36671209335327	fix_post	2		12	16.0	2.5	/experiments/Knapen_AOT/AOT_stimuli/rescaled_final/1401_fw.mp4	0.0	130.12809944152832	0.10016727447509766
19	112.46687936782837	fix_pre	0		120	17.0	2.5	/experiments/Knapen_AOT/AOT_stimuli/rescaled_final/1652_rv.mp4	0.0	130.22826671600342	1.0083537101745605
19	113.04317831993103	pulse	0	t		17.0	2.5	/experiments/Knapen_AOT/AOT_stimuli/rescaled_final/1652_rv.mp4	0.0	130.80456566810608	
19	113.47523307800293	movie	1		281	17.0	2.5	/experiments/Knapen_AOT/AOT_stimuli/rescaled_final/1652_rv.mp4	0.0	131.23662042617798	2.492008924484253
19	114.64886713027954	pulse	1	t		17.0	2.5	/experiments/Knapen_AOT/AOT_stimuli/rescaled_final/1652_rv.mp4	0.0	132.4102544784546	
19	115.96724200248718	fix_post	2		12	17.0	2.5	/experiments/Knapen_AOT/AOT_stimuli/rescaled_final/1652_rv.mp4	0.0	133.72862935066223	0.10001325607299805
20	116.06725525856018	fix_pre	0		120	18.0	2.5	/experiments/Knapen_AOT/AOT_stimuli/rescaled_final/0188_fw.mp4	0.0	133.82864260673523	1.0085556507110596
20	116.24295854568481	pulse	0	t		18.0	2.5	/experiments/Knapen_AOT/AOT_stimuli/rescaled_final/0188_fw.mp4	0.0	134.00434589385986	
20	117.07581090927124	movie	1		281	18.0	2.5	/experiments/Knapen_AOT/AOT_stimuli/rescaled_final/0188_fw.mp4	0.0	134.8371982574463	2.4920194149017334
20	117.84290909767151	pulse	1	t		18.0	2.5	/experiments/Knapen_AOT/AOT_stimuli/rescaled_final/0188_fw.mp4	0.0	135.60429644584656	
20	119.44301724433899	pulse	1	t		18.0	2.5	/experiments/Knapen_AOT/AOT_stimuli/rescaled_final/0188_fw.mp4	0.0	137.20440459251404	
20	119.56783032417297	fix_post	2		12	18.0	2.5	/experiments/Knapen_AOT/AOT_stimuli/rescaled_final/0188_fw.mp4	0.0	137.32921767234802	0.10000133514404297
21	119.66783165931702	fix_pre	0		120	19.0	2.5	/experiments/Knapen_AOT/AOT_stimuli/rescaled_final/1308_rv.mp4	0.0	137.42921900749207	1.008495569229126
21	120.67632722854614	movie	1		279	19.0	2.5	/experiments/Knapen_AOT/AOT_stimuli/rescaled_final/1308_rv.mp4	0.0	138.4377145767212	2.4920194149017334
21	121.04336428642273	pulse	1	t		19.0	2.5	/experiments/Knapen_AOT/AOT_stimuli/rescaled_final/1308_rv.mp4	0.0	138.80475163459778	
21	122.64348673820496	pulse	1	t		19.0	2.5	/experiments/Knapen_AOT/AOT_stimuli/rescaled_final/1308_rv.mp4	0.0	140.40487408638	
21	123.16834664344788	fix_post	2		12	19.0	2.5	/experiments/Knapen_AOT/AOT_stimuli/rescaled_final/1308_rv.mp4	0.0	140.92973399162292	0.10001301765441895
22	123.2683596611023	fix_pre	0		118	20.0	2.5	blank	1.0	141.02974700927734	0.9835605621337891
22	124.24383926391602	pulse	0	t		20.0	2.5	blank	1.0	142.00522661209106	
22	124.25192022323608	movie	1		301	20.0	2.5	blank	1.0	142.01330757141113	2.508652448654175
22	125.84400844573975	pulse	1	t		20.0	2.5	blank	1.0	143.6053957939148	
22	126.76057267189026	fix_post	2		12	20.0	2.5	blank	1.0	144.5219600200653	0.10001802444458008
23	126.86059069633484	fix_pre	0		120	21.0	2.5	/experiments/Knapen_AOT/AOT_stimuli/rescaled_final/0569_rv.mp4	0.0	144.6219780445099	1.0084941387176514
23	127.44425106048584	pulse	0	t		21.0	2.5	/experiments/Knapen_AOT/AOT_stimuli/rescaled_final/0569_rv.mp4	0.0	145.2056384086609	
23	127.86908483505249	movie	1		289	21.0	2.5	/experiments/Knapen_AOT/AOT_stimuli/rescaled_final/0569_rv.mp4	0.0	145.63047218322754	2.4920809268951416
23	129.0429253578186	pulse	1	t		21.0	2.5	/experiments/Knapen_AOT/AOT_stimuli/rescaled_final/0569_rv.mp4	0.0	146.80431270599365	
23	130.36116576194763	fix_post	2		12	21.0	2.5	/experiments/Knapen_AOT/AOT_stimuli/rescaled_final/0569_rv.mp4	0.0	148.12255311012268	0.09997129440307617
24	130.4611370563507	fix_pre	0		120	22.0	2.5	/experiments/Knapen_AOT/AOT_stimuli/rescaled_final/0089_fw.mp4	0.0	148.22252440452576	1.0084822177886963
24	130.64501214027405	pulse	0	t		22.0	2.5	/experiments/Knapen_AOT/AOT_stimuli/rescaled_final/0089_fw.mp4	0.0	148.4063994884491	
24	131.4696192741394	movie	1		270	22.0	2.5	/experiments/Knapen_AOT/AOT_stimuli/rescaled_final/0089_fw.mp4	0.0	149.23100662231445	2.4920520782470703
24	132.24297714233398	pulse	1	t		22.0	2.5	/experiments/Knapen_AOT/AOT_stimuli/rescaled_final/0089_fw.mp4	0.0	150.00436449050903	
24	133.8433074951172	pulse	1	t		22.0	2.5	/experiments/Knapen_AOT/AOT_stimuli/rescaled_final/0089_fw.mp4	0.0	151.60469484329224	
24	133.96167135238647	fix_post	2		12	22.0	2.5	/experiments/Knapen_AOT/AOT_stimuli/rescaled_final/0089_fw.mp4	0.0	151.72305870056152	0.10000061988830566
25	134.06167197227478	fix_pre	0		120	23.0	2.5	/experiments/Knapen_AOT/AOT_stimuli/rescaled_final/0259_rv.mp4	0.0	151.82305932044983	1.0085093975067139
25	135.0701813697815	movie	1		280	23.0	2.5	/experiments/Knapen_AOT/AOT_stimuli/rescaled_final/0259_rv.mp4	0.0	152.83156871795654	2.492027759552002
25	135.44554781913757	pulse	1	t		23.0	2.5	/experiments/Knapen_AOT/AOT_stimuli/rescaled_final/0259_rv.mp4	0.0	153.20693516731262	
25	137.043625831604	pulse	1	t		23.0	2.5	/experiments/Knapen_AOT/AOT_stimuli/rescaled_final/0259_rv.mp4	0.0	154.80501317977905	
25	137.5622091293335	fix_post	2		12	23.0	2.5	/experiments/Knapen_AOT/AOT_stimuli/rescaled_final/0259_rv.mp4	0.0	155.32359647750854	0.10000181198120117
26	137.6622109413147	fix_pre	0		119	24.0	2.5	/experiments/Knapen_AOT/AOT_stimuli/rescaled_final/1337_rv.mp4	0.0	155.42359828948975	1.000359058380127
26	138.64592480659485	pulse	0	t		24.0	2.5	/experiments/Knapen_AOT/AOT_stimuli/rescaled_final/1337_rv.mp4	0.0	156.4073121547699	
26	138.66256999969482	movie	1		281	24.0	2.5	/experiments/Knapen_AOT/AOT_stimuli/rescaled_final/1337_rv.mp4	0.0	156.42395734786987	2.50014591217041
26	140.24442601203918	pulse	1	t		24.0	2.5	/experiments/Knapen_AOT/AOT_stimuli/rescaled_final/1337_rv.mp4	0.0	158.00581336021423	
26	141.16271591186523	fix_post	2		12	24.0	2.5	/experiments/Knapen_AOT/AOT_stimuli/rescaled_final/1337_rv.mp4	0.0	158.92410326004028	0.1000359058380127
27	141.26275181770325	fix_pre	0		120	25.0	2.5	/experiments/Knapen_AOT/AOT_stimuli/rescaled_final/1783_fw.mp4	0.0	159.0241391658783	1.0084927082061768
27	141.84637022018433	pulse	0	t		25.0	2.5	/experiments/Knapen_AOT/AOT_stimuli/rescaled_final/1783_fw.mp4	0.0	159.60775756835938	
27	142.27124452590942	movie	1		283	25.0	2.5	/experiments/Knapen_AOT/AOT_stimuli/rescaled_final/1783_fw.mp4	0.0	160.03263187408447	2.4920406341552734
27	143.44480991363525	pulse	1	t		25.0	2.5	/experiments/Knapen_AOT/AOT_stimuli/rescaled_final/1783_fw.mp4	0.0	161.2061972618103	
27	144.7632851600647	fix_post	2		12	25.0	2.5	/experiments/Knapen_AOT/AOT_stimuli/rescaled_final/1783_fw.mp4	0.0	162.52467250823975	0.0999901294708252
28	144.86327528953552	fix_pre	0		120	26.0	2.5	blank	1.0	162.62466263771057	1.0001461505889893
28	145.04688119888306	pulse	0	t		26.0	2.5	blank	1.0	162.8082685470581	
28	145.8634214401245	movie	1		300	26.0	2.5	blank	1.0	163.62480878829956	2.5004172325134277
28	146.64705681800842	pulse	1	t		26.0	2.5	blank	1.0	164.40844416618347	
28	148.2474386692047	pulse	1	t		26.0	2.5	blank	1.0	166.00882601737976	
28	148.36383867263794	fix_post	2		12	26.0	2.5	blank	1.0	166.125226020813	0.09998917579650879
29	148.46382784843445	fix_pre	0		120	27.0	2.5	/experiments/Knapen_AOT/AOT_stimuli/rescaled_final/0247_rv.mp4	0.0	166.2252151966095	1.0085089206695557
29	149.472336769104	movie	1		275	27.0	2.5	/experiments/Knapen_AOT/AOT_stimuli/rescaled_final/0247_rv.mp4	0.0	167.23372411727905	2.4920198917388916
29	149.847754240036	pulse	1	t		27.0	2.5	/experiments/Knapen_AOT/AOT_stimuli/rescaled_final/0247_rv.mp4	0.0	167.60914158821106	
29	151.44613361358643	pulse	1	t		27.0	2.5	/experiments/Knapen_AOT/AOT_stimuli/rescaled_final/0247_rv.mp4	0.0	169.20752096176147	
29	151.9643566608429	fix_post	2		12	27.0	2.5	/experiments/Knapen_AOT/AOT_stimuli/rescaled_final/0247_rv.mp4	0.0	169.72574400901794	0.10001277923583984
30	152.06436944007874	fix_pre	0		119	28.0	2.5	/experiments/Knapen_AOT/AOT_stimuli/rescaled_final/1310_rv.mp4	0.0	169.82575678825378	1.000157117843628
30	153.04807829856873	pulse	0	t		28.0	2.5	/experiments/Knapen_AOT/AOT_stimuli/rescaled_final/1310_rv.mp4	0.0	170.80946564674377	
30	153.06452655792236	movie	1		281	28.0	2.5	/experiments/Knapen_AOT/AOT_stimuli/rescaled_final/1310_rv.mp4	0.0	170.8259139060974	2.500365972518921
30	154.6466782093048	pulse	1	t		28.0	2.5	/experiments/Knapen_AOT/AOT_stimuli/rescaled_final/1310_rv.mp4	0.0	172.40806555747986	
30	155.56489253044128	fix_post	2		12	28.0	2.5	/experiments/Knapen_AOT/AOT_stimuli/rescaled_final/1310_rv.mp4	0.0	173.32627987861633	0.10001087188720703
31	155.6649034023285	fix_pre	0		120	29.0	2.5	/experiments/Knapen_AOT/AOT_stimuli/rescaled_final/0841_fw.mp4	0.0	173.42629075050354	1.0085034370422363
31	156.24861097335815	pulse	0	t		29.0	2.5	/experiments/Knapen_AOT/AOT_stimuli/rescaled_final/0841_fw.mp4	0.0	174.0099983215332	
31	156.67340683937073	movie	1		272	29.0	2.5	/experiments/Knapen_AOT/AOT_stimuli/rescaled_final/0841_fw.mp4	0.0	174.43479418754578	2.4920191764831543
31	157.8468177318573	pulse	1	t		29.0	2.5	/experiments/Knapen_AOT/AOT_stimuli/rescaled_final/0841_fw.mp4	0.0	175.60820508003235	
31	159.16542601585388	fix_post	2		12	29.0	2.5	/experiments/Knapen_AOT/AOT_stimuli/rescaled_final/0841_fw.mp4	0.0	176.92681336402893	0.10001659393310547
32	159.265442609787	fix_pre	0		120	30.0	2.5	/experiments/Knapen_AOT/AOT_stimuli/rescaled_final/1559_rv.mp4	0.0	177.02682995796204	1.0085053443908691
32	159.44913291931152	pulse	0	t		30.0	2.5	/experiments/Knapen_AOT/AOT_stimuli/rescaled_final/1559_rv.mp4	0.0	177.21052026748657	
32	160.27394795417786	movie	1		279	30.0	2.5	/experiments/Knapen_AOT/AOT_stimuli/rescaled_final/1559_rv.mp4	0.0	178.0353353023529	2.4920101165771484
32	161.04715204238892	pulse	1	t		30.0	2.5	/experiments/Knapen_AOT/AOT_stimuli/rescaled_final/1559_rv.mp4	0.0	178.80853939056396	
32	162.64729070663452	pulse	1	t		30.0	2.5	/experiments/Knapen_AOT/AOT_stimuli/rescaled_final/1559_rv.mp4	0.0	180.40867805480957	
32	162.765958070755	fix_post	2		12	30.0	2.5	/experiments/Knapen_AOT/AOT_stimuli/rescaled_final/1559_rv.mp4	0.0	180.52734541893005	0.10002517700195312
33	162.86598324775696	fix_pre	0		120	31.0	2.5	/experiments/Knapen_AOT/AOT_stimuli/rescaled_final/1743_fw.mp4	0.0	180.627370595932	1.0085811614990234
33	163.87456440925598	movie	1		274	31.0	2.5	/experiments/Knapen_AOT/AOT_stimuli/rescaled_final/1743_fw.mp4	0.0	181.63595175743103	2.4919345378875732
33	164.24963688850403	pulse	1	t		31.0	2.5	/experiments/Knapen_AOT/AOT_stimuli/rescaled_final/1743_fw.mp4	0.0	182.01102423667908	
33	165.84803128242493	pulse	1	t		31.0	2.5	/experiments/Knapen_AOT/AOT_stimuli/rescaled_final/1743_fw.mp4	0.0	183.60941863059998	
33	166.36649894714355	fix_post	2		12	31.0	2.5	/experiments/Knapen_AOT/AOT_stimuli/rescaled_final/1743_fw.mp4	0.0	184.1278862953186	0.10004425048828125
34	166.46654319763184	fix_pre	0		119	32.0	2.5	/experiments/Knapen_AOT/AOT_stimuli/rescaled_final/0382_rv.mp4	0.0	184.22793054580688	1.0001530647277832
34	167.45021772384644	pulse	0	t		32.0	2.5	/experiments/Knapen_AOT/AOT_stimuli/rescaled_final/0382_rv.mp4	0.0	185.21160507202148	
34	167.46669626235962	movie	1		281	32.0	2.5	/experiments/Knapen_AOT/AOT_stimuli/rescaled_final/0382_rv.mp4	0.0	185.22808361053467	2.5003502368927
34	169.05052280426025	pulse	1	t		32.0	2.5	/experiments/Knapen_AOT/AOT_stimuli/rescaled_final/0382_rv.mp4	0.0	186.8119101524353	
34	169.96704649925232	fix_post	2		12	32.0	2.5	/experiments/Knapen_AOT/AOT_stimuli/rescaled_final/0382_rv.mp4	0.0	187.72843384742737	0.10000944137573242
35	170.06705594062805	fix_pre	0		120	33.0	2.5	blank	1.0	187.8284432888031	1.0001599788665771
35	170.6508481502533	pulse	0	t		33.0	2.5	blank	1.0	188.41223549842834	
35	171.06721591949463	movie	1		300	33.0	2.5	blank	1.0	188.82860326766968	2.5003790855407715
35	172.2432804107666	pulse	1	t		33.0	2.5	blank	1.0	190.00466775894165	
35	173.5675950050354	fix_post	2		12	33.0	2.5	blank	1.0	191.32898235321045	0.10004806518554688
36	173.66764307022095	fix_pre	0		120	34.0	2.5	/experiments/Knapen_AOT/AOT_stimuli/rescaled_final/1363_rv.mp4	0.0	191.429030418396	1.008455753326416
36	173.84364128112793	pulse	0	t		34.0	2.5	/experiments/Knapen_AOT/AOT_stimuli/rescaled_final/1363_rv.mp4	0.0	191.60502862930298	
36	174.67609882354736	movie	1		282	34.0	2.5	/experiments/Knapen_AOT/AOT_stimuli/rescaled_final/1363_rv.mp4	0.0	192.4374861717224	2.492048501968384
36	175.44334435462952	pulse	1	t		34.0	2.5	/experiments/Knapen_AOT/AOT_stimuli/rescaled_final/1363_rv.mp4	0.0	193.20473170280457	
36	177.04378175735474	pulse	1	t		34.0	2.5	/experiments/Knapen_AOT/AOT_stimuli/rescaled_final/1363_rv.mp4	0.0	194.80516910552979	
36	177.16814732551575	fix_post	2		12	34.0	2.5	/experiments/Knapen_AOT/AOT_stimuli/rescaled_final/1363_rv.mp4	0.0	194.9295346736908	0.10004305839538574
37	177.26819038391113	fix_pre	0		120	35.0	2.5	/experiments/Knapen_AOT/AOT_stimuli/rescaled_final/1158_fw.mp4	0.0	195.02957773208618	1.00846529006958
37	178.2766556739807	movie	1		287	35.0	2.5	/experiments/Knapen_AOT/AOT_stimuli/rescaled_final/1158_fw.mp4	0.0	196.03804302215576	2.492025375366211
37	178.64331483840942	pulse	1	t		35.0	2.5	/experiments/Knapen_AOT/AOT_stimuli/rescaled_final/1158_fw.mp4	0.0	196.40470218658447	
37	180.24381637573242	pulse	1	t		35.0	2.5	/experiments/Knapen_AOT/AOT_stimuli/rescaled_final/1158_fw.mp4	0.0	198.00520372390747	
37	180.76868104934692	fix_post	2		12	35.0	2.5	/experiments/Knapen_AOT/AOT_stimuli/rescaled_final/1158_fw.mp4	0.0	198.53006839752197	0.10000157356262207
38	180.86868262290955	fix_pre	0		118	36.0	2.5	/experiments/Knapen_AOT/AOT_stimuli/rescaled_final/0555_fw.mp4	0.0	198.6300699710846	0.9918985366821289
38	181.84416270256042	pulse	0	t		36.0	2.5	/experiments/Knapen_AOT/AOT_stimuli/rescaled_final/0555_fw.mp4	0.0	199.60555005073547	
38	181.86058115959167	movie	1		273	36.0	2.5	/experiments/Knapen_AOT/AOT_stimuli/rescaled_final/0555_fw.mp4	0.0	199.62196850776672	2.500300407409668
38	183.442937374115	pulse	1	t		36.0	2.5	/experiments/Knapen_AOT/AOT_stimuli/rescaled_final/0555_fw.mp4	0.0	201.20432472229004	
38	184.36088156700134	fix_post	2		12	36.0	2.5	/experiments/Knapen_AOT/AOT_stimuli/rescaled_final/0555_fw.mp4	0.0	202.1222689151764	0.10016250610351562
39	184.46104407310486	fix_pre	0		120	37.0	2.5	/experiments/Knapen_AOT/AOT_stimuli/rescaled_final/0494_rv.mp4	0.0	202.2224314212799	1.008352279663086
39	185.04462361335754	pulse	0	t		37.0	2.5	/experiments/Knapen_AOT/AOT_stimuli/rescaled_final/0494_rv.mp4	0.0	202.8060109615326	
39	185.46939635276794	movie	1		282	37.0	2.5	/experiments/Knapen_AOT/AOT_stimuli/rescaled_final/0494_rv.mp4	0.0	203.230783700943	2.492034673690796
39	186.64510130882263	pulse	1	t		37.0	2.5	/experiments/Knapen_AOT/AOT_stimuli/rescaled_final/0494_rv.mp4	0.0	204.40648865699768	
39	187.96143102645874	fix_post	2		12	37.0	2.5	/experiments/Knapen_AOT/AOT_stimuli/rescaled_final/0494_rv.mp4	0.0	205.7228183746338	0.10000777244567871
40	188.06143879890442	fix_pre	0		120	38.0	2.5	/experiments/Knapen_AOT/AOT_stimuli/rescaled_final/1220_fw.mp4	0.0	205.82282614707947	1.0085093975067139
40	188.2450315952301	pulse	0	t		38.0	2.5	/experiments/Knapen_AOT/AOT_stimuli/rescaled_final/1220_fw.mp4	0.0	206.00641894340515	
40	189.06994819641113	movie	1		289	38.0	2.5	/experiments/Knapen_AOT/AOT_stimuli/rescaled_final/1220_fw.mp4	0.0	206.83133554458618	2.492048978805542
40	189.8430905342102	pulse	1	t		38.0	2.5	/experiments/Knapen_AOT/AOT_stimuli/rescaled_final/1220_fw.mp4	0.0	207.60447788238525	
40	191.44362497329712	pulse	1	t		38.0	2.5	/experiments/Knapen_AOT/AOT_stimuli/rescaled_final/1220_fw.mp4	0.0	209.20501232147217	
40	191.56199717521667	fix_post	2		12	38.0	2.5	/experiments/Knapen_AOT/AOT_stimuli/rescaled_final/1220_fw.mp4	0.0	209.32338452339172	0.10002684593200684
41	191.66202402114868	fix_pre	0		120	39.0	2.5	/experiments/Knapen_AOT/AOT_stimuli/rescaled_final/1507_fw.mp4	0.0	209.42341136932373	1.008441686630249
41	192.67046570777893	movie	1		280	39.0	2.5	/experiments/Knapen_AOT/AOT_stimuli/rescaled_final/1507_fw.mp4	0.0	210.43185305595398	2.492095470428467
41	193.04596829414368	pulse	1	t		39.0	2.5	/experiments/Knapen_AOT/AOT_stimuli/rescaled_final/1507_fw.mp4	0.0	210.80735564231873	
41	194.64394307136536	pulse	1	t		39.0	2.5	/experiments/Knapen_AOT/AOT_stimuli/rescaled_final/1507_fw.mp4	0.0	212.4053304195404	
41	195.1625611782074	fix_post	2		12	39.0	2.5	/experiments/Knapen_AOT/AOT_stimuli/rescaled_final/1507_fw.mp4	0.0	212.92394852638245	0.09996867179870605
42	195.2625298500061	fix_pre	0		119	40.0	2.5	blank	1.0	213.02391719818115	0.9917621612548828
42	196.24620604515076	pulse	0	t		40.0	2.5	blank	1.0	214.0075933933258	
42	196.254292011261	movie	1		301	40.0	2.5	blank	1.0	214.01567935943604	2.5087738037109375
42	197.8467583656311	pulse	1	t		40.0	2.5	blank	1.0	215.60814571380615	
42	198.76306581497192	fix_post	2		12	40.0	2.5	blank	1.0	216.52445316314697	0.10003447532653809
43	198.86310029029846	fix_pre	0		120	41.0	2.5	/experiments/Knapen_AOT/AOT_stimuli/rescaled_final/1095_rv.mp4	0.0	216.6244876384735	1.0085394382476807
43	199.44672846794128	pulse	0	t		41.0	2.5	/experiments/Knapen_AOT/AOT_stimuli/rescaled_final/1095_rv.mp4	0.0	217.20811581611633	
43	199.87163972854614	movie	1		264	41.0	2.5	/experiments/Knapen_AOT/AOT_stimuli/rescaled_final/1095_rv.mp4	0.0	217.6330270767212	2.491941213607788
43	201.04583740234375	pulse	1	t		41.0	2.5	/experiments/Knapen_AOT/AOT_stimuli/rescaled_final/1095_rv.mp4	0.0	218.8072247505188	
43	202.36358094215393	fix_post	2		12	41.0	2.5	/experiments/Knapen_AOT/AOT_stimuli/rescaled_final/1095_rv.mp4	0.0	220.12496829032898	0.10003161430358887
44	202.46361255645752	fix_pre	0		120	42.0	2.5	/experiments/Knapen_AOT/AOT_stimuli/rescaled_final/1377_rv.mp4	0.0	220.22499990463257	1.0085124969482422
44	202.64722275733948	pulse	0	t		42.0	2.5	/experiments/Knapen_AOT/AOT_stimuli/rescaled_final/1377_rv.mp4	0.0	220.40861010551453	
44	203.47212505340576	movie	1		272	42.0	2.5	/experiments/Knapen_AOT/AOT_stimuli/rescaled_final/1377_rv.mp4	0.0	221.2335124015808	2.492077112197876
44	204.24557733535767	pulse	1	t		42.0	2.5	/experiments/Knapen_AOT/AOT_stimuli/rescaled_final/1377_rv.mp4	0.0	222.00696468353271	
44	205.8459668159485	pulse	1	t		42.0	2.5	/experiments/Knapen_AOT/AOT_stimuli/rescaled_final/1377_rv.mp4	0.0	223.60735416412354	
44	205.96420216560364	fix_post	2		12	42.0	2.5	/experiments/Knapen_AOT/AOT_stimuli/rescaled_final/1377_rv.mp4	0.0	223.7255895137787	0.09994983673095703
45	206.0641520023346	fix_pre	0		120	43.0	2.5	/experiments/Knapen_AOT/AOT_stimuli/rescaled_final/1141_rv.mp4	0.0	223.82553935050964	1.008493185043335
45	207.07264518737793	movie	1		277	43.0	2.5	/experiments/Knapen_AOT/AOT_stimuli/rescaled_final/1141_rv.mp4	0.0	224.83403253555298	2.4920573234558105
45	207.44621920585632	pulse	1	t		43.0	2.5	/experiments/Knapen_AOT/AOT_stimuli/rescaled_final/1141_rv.mp4	0.0	225.20760655403137	
45	209.04638814926147	pulse	1	t		43.0	2.5	/experiments/Knapen_AOT/AOT_stimuli/rescaled_final/1141_rv.mp4	0.0	226.80777549743652	
45	209.56470251083374	fix_post	2		12	43.0	2.5	/experiments/Knapen_AOT/AOT_stimuli/rescaled_final/1141_rv.mp4	0.0	227.3260898590088	0.10012960433959961
46	209.66483211517334	fix_pre	0		119	44.0	2.5	/experiments/Knapen_AOT/AOT_stimuli/rescaled_final/1996_rv.mp4	0.0	227.4262194633484	1.0000560283660889
46	210.64845824241638	pulse	0	t		44.0	2.5	/experiments/Knapen_AOT/AOT_stimuli/rescaled_final/1996_rv.mp4	0.0	228.40984559059143	
46	210.66488814353943	movie	1		271	44.0	2.5	/experiments/Knapen_AOT/AOT_stimuli/rescaled_final/1996_rv.mp4	0.0	228.42627549171448	2.5003440380096436
46	212.2471423149109	pulse	1	t		44.0	2.5	/experiments/Knapen_AOT/AOT_stimuli/rescaled_final/1996_rv.mp4	0.0	230.00852966308594	
46	213.16523218154907	fix_post	2		12	44.0	2.5	/experiments/Knapen_AOT/AOT_stimuli/rescaled_final/1996_rv.mp4	0.0	230.92661952972412	0.09996724128723145
47	213.2651994228363	fix_pre	0		120	45.0	2.5	/experiments/Knapen_AOT/AOT_stimuli/rescaled_final/0027_fw.mp4	0.0	231.02658677101135	1.0085608959197998
47	213.848890542984	pulse	0	t		45.0	2.5	/experiments/Knapen_AOT/AOT_stimuli/rescaled_final/0027_fw.mp4	0.0	231.61027789115906	
47	214.2737603187561	movie	1		282	45.0	2.5	/experiments/Knapen_AOT/AOT_stimuli/rescaled_final/0027_fw.mp4	0.0	232.03514766693115	2.492002010345459
47	215.44749903678894	pulse	1	t		45.0	2.5	/experiments/Knapen_AOT/AOT_stimuli/rescaled_final/0027_fw.mp4	0.0	233.208886384964	
47	216.76576232910156	fix_post	2		12	45.0	2.5	/experiments/Knapen_AOT/AOT_stimuli/rescaled_final/0027_fw.mp4	0.0	234.5271496772766	0.10001516342163086
48	216.8657774925232	fix_pre	0		120	46.0	2.5	/experiments/Knapen_AOT/AOT_stimuli/rescaled_final/2017_rv.mp4	0.0	234.62716484069824	1.0084974765777588
48	217.04936289787292	pulse	0	t		46.0	2.5	/experiments/Knapen_AOT/AOT_stimuli/rescaled_final/2017_rv.mp4	0.0	234.81075024604797	
48	217.87427496910095	movie	1		254	46.0	2.5	/experiments/Knapen_AOT/AOT_stimuli/rescaled_final/2017_rv.mp4	0.0	235.635662317276	2.4920406341552734
48	218.6486508846283	pulse	1	t		46.0	2.5	/experiments/Knapen_AOT/AOT_stimuli/rescaled_final/2017_rv.mp4	0.0	236.41003823280334	
48	220.25018787384033	pulse	1	t		46.0	2.5	/experiments/Knapen_AOT/AOT_stimuli/rescaled_final/2017_rv.mp4	0.0	238.01157522201538	
48	220.36631560325623	fix_post	2		12	46.0	2.5	/experiments/Knapen_AOT/AOT_stimuli/rescaled_final/2017_rv.mp4	0.0	238.12770295143127	0.10000777244567871
49	220.4663233757019	fix_pre	0		120	47.0	2.5	/experiments/Knapen_AOT/AOT_stimuli/rescaled_final/1004_fw.mp4	0.0	238.22771072387695	1.0084829330444336
49	221.47480630874634	movie	1		279	47.0	2.5	/experiments/Knapen_AOT/AOT_stimuli/rescaled_final/1004_fw.mp4	0.0	239.2361936569214	2.4920296669006348
49	221.84829878807068	pulse	1	t		47.0	2.5	/experiments/Knapen_AOT/AOT_stimuli/rescaled_final/1004_fw.mp4	0.0	239.60968613624573	
49	223.4490451812744	pulse	1	t		47.0	2.5	/experiments/Knapen_AOT/AOT_stimuli/rescaled_final/1004_fw.mp4	0.0	241.21043252944946	
49	223.96683597564697	fix_post	2		12	47.0	2.5	/experiments/Knapen_AOT/AOT_stimuli/rescaled_final/1004_fw.mp4	0.0	241.72822332382202	0.1002500057220459
50	224.06708598136902	fix_pre	0		118	48.0	2.5	blank	1.0	241.82847332954407	0.9915313720703125
50	225.04309749603271	pulse	0	t		48.0	2.5	blank	1.0	242.80448484420776	
50	225.05861735343933	movie	1		301	48.0	2.5	blank	1.0	242.82000470161438	2.5088133811950684
50	226.64275455474854	pulse	1	t		48.0	2.5	blank	1.0	244.40414190292358	
50	227.5674307346344	fix_post	2		12	48.0	2.5	blank	1.0	245.32881808280945	0.09994769096374512
51	227.66737842559814	fix_pre	0		120	49.0	2.5	/experiments/Knapen_AOT/AOT_stimuli/rescaled_final/0027_rv.mp4	0.0	245.4287657737732	1.0086653232574463
51	228.24276447296143	pulse	0	t		49.0	2.5	/experiments/Knapen_AOT/AOT_stimuli/rescaled_final/0027_rv.mp4	0.0	246.00415182113647	
51	228.6760437488556	movie	1		289	49.0	2.5	/experiments/Knapen_AOT/AOT_stimuli/rescaled_final/0027_rv.mp4	0.0	246.43743109703064	2.4918720722198486
51	229.84307265281677	pulse	1	t		49.0	2.5	/experiments/Knapen_AOT/AOT_stimuli/rescaled_final/0027_rv.mp4	0.0	247.60446000099182	
51	231.16791582107544	fix_post	2		12	49.0	2.5	/experiments/Knapen_AOT/AOT_stimuli/rescaled_final/0027_rv.mp4	0.0	248.9293031692505	0.10001516342163086
52	231.26793098449707	fix_pre	0		120	50.0	2.5	/experiments/Knapen_AOT/AOT_stimuli/rescaled_final/0212_rv.mp4	0.0	249.02931833267212	1.0084869861602783
52	231.44345927238464	pulse	0	t		50.0	2.5	/experiments/Knapen_AOT/AOT_stimuli/rescaled_final/0212_rv.mp4	0.0	249.2048466205597	
52	232.27641797065735	movie	1		281	50.0	2.5	/experiments/Knapen_AOT/AOT_stimuli/rescaled_final/0212_rv.mp4	0.0	250.0378053188324	2.4920170307159424
52	233.04344701766968	pulse	1	t		50.0	2.5	/experiments/Knapen_AOT/AOT_stimuli/rescaled_final/0212_rv.mp4	0.0	250.80483436584473	
52	234.64363741874695	pulse	1	t		50.0	2.5	/experiments/Knapen_AOT/AOT_stimuli/rescaled_final/0212_rv.mp4	0.0	252.405024766922	
52	234.7684350013733	fix_post	2		12	50.0	2.5	/experiments/Knapen_AOT/AOT_stimuli/rescaled_final/0212_rv.mp4	0.0	252.52982234954834	0.10007524490356445
53	234.86851024627686	fix_pre	0		120	51.0	2.5	/experiments/Knapen_AOT/AOT_stimuli/rescaled_final/0753_rv.mp4	0.0	252.6298975944519	1.0084614753723145
53	235.87697172164917	movie	1		283	51.0	2.5	/experiments/Knapen_AOT/AOT_stimuli/rescaled_final/0753_rv.mp4	0.0	253.63835906982422	2.492039442062378
53	236.2440619468689	pulse	1	t		51.0	2.5	/experiments/Knapen_AOT/AOT_stimuli/rescaled_final/0753_rv.mp4	0.0	254.00544929504395	
53	237.8441355228424	pulse	1	t		51.0	2.5	/experiments/Knapen_AOT/AOT_stimuli/rescaled_final/0753_rv.mp4	0.0	255.60552287101746	
53	238.36901116371155	fix_post	2		12	51.0	2.5	/experiments/Knapen_AOT/AOT_stimuli/rescaled_final/0753_rv.mp4	0.0	256.1303985118866	0.10006952285766602
54	238.4690806865692	fix_pre	0		118	52.0	2.5	/experiments/Knapen_AOT/AOT_stimuli/rescaled_final/1171_fw.mp4	0.0	256.23046803474426	0.9917478561401367
54	239.44436931610107	pulse	0	t		52.0	2.5	/experiments/Knapen_AOT/AOT_stimuli/rescaled_final/1171_fw.mp4	0.0	257.2057566642761	
54	239.46082854270935	movie	1		261	52.0	2.5	/experiments/Knapen_AOT/AOT_stimuli/rescaled_final/1171_fw.mp4	0.0	257.2222158908844	2.5005247592926025
54	241.04388117790222	pulse	1	t		52.0	2.5	/experiments/Knapen_AOT/AOT_stimuli/rescaled_final/1171_fw.mp4	0.0	258.80526852607727	
54	241.96135330200195	fix_post	2		12	52.0	2.5	/experiments/Knapen_AOT/AOT_stimuli/rescaled_final/1171_fw.mp4	0.0	259.722740650177	0.09988021850585938
55	242.0612335205078	fix_pre	0		120	53.0	2.5	/experiments/Knapen_AOT/AOT_stimuli/rescaled_final/1220_rv.mp4	0.0	259.82262086868286	1.0084822177886963
55	242.64489650726318	pulse	0	t		53.0	2.5	/experiments/Knapen_AOT/AOT_stimuli/rescaled_final/1220_rv.mp4	0.0	260.40628385543823	
55	243.0697157382965	movie	1		264	53.0	2.5	/experiments/Knapen_AOT/AOT_stimuli/rescaled_final/1220_rv.mp4	0.0	260.83110308647156	2.4920427799224854
55	244.2431399822235	pulse	1	t		53.0	2.5	/experiments/Knapen_AOT/AOT_stimuli/rescaled_final/1220_rv.mp4	0.0	262.00452733039856	
55	245.561758518219	fix_post	2		12	53.0	2.5	/experiments/Knapen_AOT/AOT_stimuli/rescaled_final/1220_rv.mp4	0.0	263.32314586639404	0.1000070571899414
56	245.66176557540894	fix_pre	0		120	54.0	2.5	/experiments/Knapen_AOT/AOT_stimuli/rescaled_final/1425_fw.mp4	0.0	263.423152923584	1.0085859298706055
56	245.84539651870728	pulse	0	t		54.0	2.5	/experiments/Knapen_AOT/AOT_stimuli/rescaled_final/1425_fw.mp4	0.0	263.6067838668823	
56	246.67035150527954	movie	1		278	54.0	2.5	/experiments/Knapen_AOT/AOT_stimuli/rescaled_final/1425_fw.mp4	0.0	264.4317388534546	2.4919512271881104
56	247.4437448978424	pulse	1	t		54.0	2.5	/experiments/Knapen_AOT/AOT_stimuli/rescaled_final/1425_fw.mp4	0.0	265.20513224601746	
56	249.0436770915985	pulse	1	t		54.0	2.5	/experiments/Knapen_AOT/AOT_stimuli/rescaled_final/1425_fw.mp4	0.0	266.80506443977356	
56	249.16230273246765	fix_post	2		12	54.0	2.5	/experiments/Knapen_AOT/AOT_stimuli/rescaled_final/1425_fw.mp4	0.0	266.9236900806427	0.10001111030578613
57	249.26231384277344	fix_pre	0		120	55.0	2.5	/experiments/Knapen_AOT/AOT_stimuli/rescaled_final/1756_rv.mp4	0.0	267.0237011909485	1.0086438655853271
57	250.27095770835876	movie	1		278	55.0	2.5	/experiments/Knapen_AOT/AOT_stimuli/rescaled_final/1756_rv.mp4	0.0	268.0323450565338	2.4919021129608154
57	250.6463394165039	pulse	1	t		55.0	2.5	/experiments/Knapen_AOT/AOT_stimuli/rescaled_final/1756_rv.mp4	0.0	268.40772676467896	
57	252.2443220615387	pulse	1	t		55.0	2.5	/experiments/Knapen_AOT/AOT_stimuli/rescaled_final/1756_rv.mp4	0.0	270.00570940971375	
57	252.76285982131958	fix_post	2		12	55.0	2.5	/experiments/Knapen_AOT/AOT_stimuli/rescaled_final/1756_rv.mp4	0.0	270.52424716949463	0.10001778602600098
58	252.86287760734558	fix_pre	0		119	56.0	2.5	blank	1.0	270.62426495552063	0.9917948246002197
58	253.84676384925842	pulse	0	t		56.0	2.5	blank	1.0	271.6081511974335	
58	253.8546724319458	movie	1		301	56.0	2.5	blank	1.0	271.61605978012085	2.5086982250213623
58	255.44677209854126	pulse	1	t		56.0	2.5	blank	1.0	273.2081594467163	
58	256.36337065696716	fix_post	2		12	56.0	2.5	blank	1.0	274.1247580051422	0.10004448890686035
59	256.463415145874	fix_pre	0		120	57.0	2.5	/experiments/Knapen_AOT/AOT_stimuli/rescaled_final/1871_rv.mp4	0.0	274.2248024940491	1.0084800720214844
59	257.0470268726349	pulse	0	t		57.0	2.5	/experiments/Knapen_AOT/AOT_stimuli/rescaled_final/1871_rv.mp4	0.0	274.80841422080994	
59	257.4718952178955	movie	1		269	57.0	2.5	/experiments/Knapen_AOT/AOT_stimuli/rescaled_final/1871_rv.mp4	0.0	275.23328256607056	2.492043972015381
59	258.6458988189697	pulse	1	t		57.0	2.5	/experiments/Knapen_AOT/AOT_stimuli/rescaled_final/1871_rv.mp4	0.0	276.4072861671448	
59	259.9639391899109	fix_post	2		12	57.0	2.5	/experiments/Knapen_AOT/AOT_stimuli/rescaled_final/1871_rv.mp4	0.0	277.72532653808594	0.09999752044677734
60	260.06393671035767	fix_pre	0		120	58.0	2.5	/experiments/Knapen_AOT/AOT_stimuli/rescaled_final/0070_fw.mp4	0.0	277.8253240585327	1.0084939002990723
60	260.247487783432	pulse	0	t		58.0	2.5	/experiments/Knapen_AOT/AOT_stimuli/rescaled_final/0070_fw.mp4	0.0	278.00887513160706	
60	261.07243061065674	movie	1		287	58.0	2.5	/experiments/Knapen_AOT/AOT_stimuli/rescaled_final/0070_fw.mp4	0.0	278.8338179588318	2.492023229598999
60	261.8459839820862	pulse	1	t		58.0	2.5	/experiments/Knapen_AOT/AOT_stimuli/rescaled_final/0070_fw.mp4	0.0	279.60737133026123	
60	263.4459390640259	pulse	1	t		58.0	2.5	/experiments/Knapen_AOT/AOT_stimuli/rescaled_final/0070_fw.mp4	0.0	281.2073264122009	
60	263.56445384025574	fix_post	2		12	58.0	2.5	/experiments/Knapen_AOT/AOT_stimuli/rescaled_final/0070_fw.mp4	0.0	281.3258411884308	0.10001301765441895
61	263.66446685791016	fix_pre	0		120	59.0	2.5	/experiments/Knapen_AOT/AOT_stimuli/rescaled_final/1910_fw.mp4	0.0	281.4258542060852	1.0085041522979736
61	264.67297101020813	movie	1		275	59.0	2.5	/experiments/Knapen_AOT/AOT_stimuli/rescaled_final/1910_fw.mp4	0.0	282.4343583583832	2.492032289505005
61	265.04650378227234	pulse	1	t		59.0	2.5	/experiments/Knapen_AOT/AOT_stimuli/rescaled_final/1910_fw.mp4	0.0	282.8078911304474	
61	266.6466271877289	pulse	1	t		59.0	2.5	/experiments/Knapen_AOT/AOT_stimuli/rescaled_final/1910_fw.mp4	0.0	284.40801453590393	
61	267.16500329971313	fix_post	2		12	59.0	2.5	/experiments/Knapen_AOT/AOT_stimuli/rescaled_final/1910_fw.mp4	0.0	284.9263906478882	0.10001373291015625
62	267.2650170326233	fix_pre	0		119	60.0	2.5	/experiments/Knapen_AOT/AOT_stimuli/rescaled_final/1337_rv.mp4	0.0	285.02640438079834	1.008660078048706
62	268.2487564086914	pulse	0	t		60.0	2.5	/experiments/Knapen_AOT/AOT_stimuli/rescaled_final/1337_rv.mp4	0.0	286.01014375686646	
62	268.273677110672	movie	1		275	60.0	2.5	/experiments/Knapen_AOT/AOT_stimuli/rescaled_final/1337_rv.mp4	0.0	286.03506445884705	2.491852045059204
62	269.84772872924805	pulse	1	t		60.0	2.5	/experiments/Knapen_AOT/AOT_stimuli/rescaled_final/1337_rv.mp4	0.0	287.6091160774231	
62	270.7655291557312	fix_post	2		12	60.0	2.5	/experiments/Knapen_AOT/AOT_stimuli/rescaled_final/1337_rv.mp4	0.0	288.52691650390625	0.10002660751342773
63	270.86555576324463	fix_pre	0		120	61.0	2.5	/experiments/Knapen_AOT/AOT_stimuli/rescaled_final/1310_fw.mp4	0.0	288.6269431114197	1.0085089206695557
63	271.4492049217224	pulse	0	t		61.0	2.5	/experiments/Knapen_AOT/AOT_stimuli/rescaled_final/1310_fw.mp4	0.0	289.21059226989746	
63	271.8740646839142	movie	1		281	61.0	2.5	/experiments/Knapen_AOT/AOT_stimuli/rescaled_final/1310_fw.mp4	0.0	289.63545203208923	2.4920475482940674
63	273.0475630760193	pulse	1	t		61.0	2.5	/experiments/Knapen_AOT/AOT_stimuli/rescaled_final/1310_fw.mp4	0.0	290.80895042419434	
63	274.36611223220825	fix_post	2		12	61.0	2.5	/experiments/Knapen_AOT/AOT_stimuli/rescaled_final/1310_fw.mp4	0.0	292.1274995803833	0.09998774528503418
64	274.4660999774933	fix_pre	0		120	62.0	2.5	/experiments/Knapen_AOT/AOT_stimuli/rescaled_final/0679_fw.mp4	0.0	292.22748732566833	1.0084993839263916
64	274.64966797828674	pulse	0	t		62.0	2.5	/experiments/Knapen_AOT/AOT_stimuli/rescaled_final/0679_fw.mp4	0.0	292.4110553264618	
64	275.4745993614197	movie	1		277	62.0	2.5	/experiments/Knapen_AOT/AOT_stimuli/rescaled_final/0679_fw.mp4	0.0	293.2359867095947	2.4920005798339844
64	276.24823093414307	pulse	1	t		62.0	2.5	/experiments/Knapen_AOT/AOT_stimuli/rescaled_final/0679_fw.mp4	0.0	294.0096182823181	
64	277.8482687473297	pulse	1	t		62.0	2.5	/experiments/Knapen_AOT/AOT_stimuli/rescaled_final/0679_fw.mp4	0.0	295.60965609550476	
64	277.96659994125366	fix_post	2		12	62.0	2.5	/experiments/Knapen_AOT/AOT_stimuli/rescaled_final/0679_fw.mp4	0.0	295.7279872894287	0.10005044937133789
65	278.066650390625	fix_pre	0		120	63.0	2.5	blank	1.0	295.82803773880005	1.0001342296600342
65	279.06678462028503	movie	1		300	63.0	2.5	blank	1.0	296.8281719684601	2.5004045963287354
65	279.4503753185272	pulse	1	t		63.0	2.5	blank	1.0	297.21176266670227	
65	281.0435719490051	pulse	1	t		63.0	2.5	blank	1.0	298.8049592971802	
65	281.56718921661377	fix_post	2		12	63.0	2.5	blank	1.0	299.3285765647888	0.09999203681945801
66	281.6671812534332	fix_pre	0		119	64.0	2.5	/experiments/Knapen_AOT/AOT_stimuli/rescaled_final/1959_fw.mp4	0.0	299.4285686016083	1.0001890659332275
66	282.64332938194275	pulse	0	t		64.0	2.5	/experiments/Knapen_AOT/AOT_stimuli/rescaled_final/1959_fw.mp4	0.0	300.4047167301178	
66	282.66737031936646	movie	1		281	64.0	2.5	/experiments/Knapen_AOT/AOT_stimuli/rescaled_final/1959_fw.mp4	0.0	300.4287576675415	2.5003271102905273
66	284.2432987689972	pulse	1	t		64.0	2.5	/experiments/Knapen_AOT/AOT_stimuli/rescaled_final/1959_fw.mp4	0.0	302.00468611717224	
66	285.167697429657	fix_post	2		12	64.0	2.5	/experiments/Knapen_AOT/AOT_stimuli/rescaled_final/1959_fw.mp4	0.0	302.92908477783203	0.10001564025878906
67	285.26771306991577	fix_pre	0		119	65.0	2.5	/experiments/Knapen_AOT/AOT_stimuli/rescaled_final/0382_rv.mp4	0.0	303.0291004180908	1.0086469650268555
67	285.84338116645813	pulse	0	t		65.0	2.5	/experiments/Knapen_AOT/AOT_stimuli/rescaled_final/0382_rv.mp4	0.0	303.6047685146332	
67	286.2763600349426	movie	1		264	65.0	2.5	/experiments/Knapen_AOT/AOT_stimuli/rescaled_final/0382_rv.mp4	0.0	304.0377473831177	2.4918949604034424
67	287.4432621002197	pulse	1	t		65.0	2.5	/experiments/Knapen_AOT/AOT_stimuli/rescaled_final/0382_rv.mp4	0.0	305.2046494483948	
67	288.76825499534607	fix_post	2		12	65.0	2.5	/experiments/Knapen_AOT/AOT_stimuli/rescaled_final/0382_rv.mp4	0.0	306.5296423435211	0.1000070571899414
68	288.868262052536	fix_pre	0		120	66.0	2.5	/experiments/Knapen_AOT/AOT_stimuli/rescaled_final/0399_fw.mp4	0.0	306.62964940071106	1.0085134506225586
68	289.0435256958008	pulse	0	t		66.0	2.5	/experiments/Knapen_AOT/AOT_stimuli/rescaled_final/0399_fw.mp4	0.0	306.80491304397583	
68	289.87677550315857	movie	1		275	66.0	2.5	/experiments/Knapen_AOT/AOT_stimuli/rescaled_final/0399_fw.mp4	0.0	307.6381628513336	2.4920525550842285
68	290.64372730255127	pulse	1	t		66.0	2.5	/experiments/Knapen_AOT/AOT_stimuli/rescaled_final/0399_fw.mp4	0.0	308.4051146507263	
68	292.24416971206665	pulse	1	t		66.0	2.5	/experiments/Knapen_AOT/AOT_stimuli/rescaled_final/0399_fw.mp4	0.0	310.0055570602417	
68	292.3688280582428	fix_post	2		12	66.0	2.5	/experiments/Knapen_AOT/AOT_stimuli/rescaled_final/0399_fw.mp4	0.0	310.13021540641785	0.09999227523803711
69	292.46882033348083	fix_pre	0		120	67.0	2.5	/experiments/Knapen_AOT/AOT_stimuli/rescaled_final/1808_fw.mp4	0.0	310.2302076816559	1.0084795951843262
69	293.47729992866516	movie	1		270	67.0	2.5	/experiments/Knapen_AOT/AOT_stimuli/rescaled_final/1808_fw.mp4	0.0	311.2386872768402	2.492023229598999
69	293.8435306549072	pulse	1	t		67.0	2.5	/experiments/Knapen_AOT/AOT_stimuli/rescaled_final/1808_fw.mp4	0.0	311.6049180030823	
69	295.4445378780365	pulse	1	t		67.0	2.5	/experiments/Knapen_AOT/AOT_stimuli/rescaled_final/1808_fw.mp4	0.0	313.20592522621155	
69	295.96932315826416	fix_post	2		12	67.0	2.5	/experiments/Knapen_AOT/AOT_stimuli/rescaled_final/1808_fw.mp4	0.0	313.7307105064392	0.10000300407409668
70	296.06932616233826	fix_pre	0		118	68.0	2.5	blank	1.0	313.8307135105133	0.9834902286529541
70	297.0446972846985	pulse	0	t		68.0	2.5	blank	1.0	314.80608463287354	
70	297.0528163909912	movie	1		301	68.0	2.5	blank	1.0	314.81420373916626	2.5087101459503174
70	298.64505529403687	pulse	1	t		68.0	2.5	blank	1.0	316.4064426422119	
70	299.5615265369415	fix_post	2		12	68.0	2.5	blank	1.0	317.3229138851166	0.10002970695495605
71	299.6615562438965	fix_pre	0		120	69.0	2.5	/experiments/Knapen_AOT/AOT_stimuli/rescaled_final/1266_fw.mp4	0.0	317.42294359207153	1.0084724426269531
71	300.24524188041687	pulse	0	t		69.0	2.5	/experiments/Knapen_AOT/AOT_stimuli/rescaled_final/1266_fw.mp4	0.0	318.0066292285919	
71	300.67002868652344	movie	1		286	69.0	2.5	/experiments/Knapen_AOT/AOT_stimuli/rescaled_final/1266_fw.mp4	0.0	318.4314160346985	2.492058515548706
71	301.84397053718567	pulse	1	t		69.0	2.5	/experiments/Knapen_AOT/AOT_stimuli/rescaled_final/1266_fw.mp4	0.0	319.6053578853607	
71	303.16208720207214	fix_post	2		12	69.0	2.5	/experiments/Knapen_AOT/AOT_stimuli/rescaled_final/1266_fw.mp4	0.0	320.9234745502472	0.10009503364562988
72	303.2621822357178	fix_pre	0		120	70.0	2.5	/experiments/Knapen_AOT/AOT_stimuli/rescaled_final/0247_fw.mp4	0.0	321.0235695838928	1.00844407081604
72	303.44574880599976	pulse	0	t		70.0	2.5	/experiments/Knapen_AOT/AOT_stimuli/rescaled_final/0247_fw.mp4	0.0	321.2071361541748	
72	304.2706263065338	movie	1		283	70.0	2.5	/experiments/Knapen_AOT/AOT_stimuli/rescaled_final/0247_fw.mp4	0.0	322.03201365470886	2.4919984340667725
72	305.04525661468506	pulse	1	t		70.0	2.5	/experiments/Knapen_AOT/AOT_stimuli/rescaled_final/0247_fw.mp4	0.0	322.8066439628601	
72	306.6448347568512	pulse	1	t		70.0	2.5	/experiments/Knapen_AOT/AOT_stimuli/rescaled_final/0247_fw.mp4	0.0	324.40622210502625	
72	306.7626247406006	fix_post	2		12	70.0	2.5	/experiments/Knapen_AOT/AOT_stimuli/rescaled_final/0247_fw.mp4	0.0	324.52401208877563	0.10000014305114746
73	306.86262488365173	fix_pre	0		120	71.0	2.5	/experiments/Knapen_AOT/AOT_stimuli/rescaled_final/0122_rv.mp4	0.0	324.6240122318268	1.0085227489471436
73	307.8711476325989	movie	1		262	71.0	2.5	/experiments/Knapen_AOT/AOT_stimuli/rescaled_final/0122_rv.mp4	0.0	325.6325349807739	2.4921138286590576
73	308.24493384361267	pulse	1	t		71.0	2.5	/experiments/Knapen_AOT/AOT_stimuli/rescaled_final/0122_rv.mp4	0.0	326.0063211917877	
73	309.84622168540955	pulse	1	t		71.0	2.5	/experiments/Knapen_AOT/AOT_stimuli/rescaled_final/0122_rv.mp4	0.0	327.6076090335846	
73	310.36326146125793	fix_post	2		12	71.0	2.5	/experiments/Knapen_AOT/AOT_stimuli/rescaled_final/0122_rv.mp4	0.0	328.124648809433	0.09992170333862305
74	310.46318316459656	fix_pre	0		119	72.0	2.5	/experiments/Knapen_AOT/AOT_stimuli/rescaled_final/0919_rv.mp4	0.0	328.2245705127716	1.000147819519043
74	311.4470520019531	pulse	0	t		72.0	2.5	/experiments/Knapen_AOT/AOT_stimuli/rescaled_final/0919_rv.mp4	0.0	329.2084393501282	
74	311.4633309841156	movie	1		270	72.0	2.5	/experiments/Knapen_AOT/AOT_stimuli/rescaled_final/0919_rv.mp4	0.0	329.22471833229065	2.5005838871002197
74	313.0462284088135	pulse	1	t		72.0	2.5	/experiments/Knapen_AOT/AOT_stimuli/rescaled_final/0919_rv.mp4	0.0	330.8076157569885	
74	313.9639148712158	fix_post	2		12	72.0	2.5	/experiments/Knapen_AOT/AOT_stimuli/rescaled_final/0919_rv.mp4	0.0	331.72530221939087	0.09979534149169922
75	314.0637102127075	fix_pre	0		120	73.0	2.5	/experiments/Knapen_AOT/AOT_stimuli/rescaled_final/0993_fw.mp4	0.0	331.82509756088257	1.0087218284606934
75	314.64752769470215	pulse	0	t		73.0	2.5	/experiments/Knapen_AOT/AOT_stimuli/rescaled_final/0993_fw.mp4	0.0	332.4089150428772	
75	315.0724320411682	movie	1		265	73.0	2.5	/experiments/Knapen_AOT/AOT_stimuli/rescaled_final/0993_fw.mp4	0.0	332.83381938934326	2.4918313026428223
75	316.24556517601013	pulse	1	t		73.0	2.5	/experiments/Knapen_AOT/AOT_stimuli/rescaled_final/0993_fw.mp4	0.0	334.0069525241852	
75	317.56426334381104	fix_post	2		12	73.0	2.5	/experiments/Knapen_AOT/AOT_stimuli/rescaled_final/0993_fw.mp4	0.0	335.3256506919861	0.10001015663146973
76	317.6642735004425	fix_pre	0		120	74.0	2.5	/experiments/Knapen_AOT/AOT_stimuli/rescaled_final/0027_rv.mp4	0.0	335.42566084861755	1.0085010528564453
76	317.8478276729584	pulse	0	t		74.0	2.5	/experiments/Knapen_AOT/AOT_stimuli/rescaled_final/0027_rv.mp4	0.0	335.6092150211334	
76	318.67277455329895	movie	1		276	74.0	2.5	/experiments/Knapen_AOT/AOT_stimuli/rescaled_final/0027_rv.mp4	0.0	336.434161901474	2.492187023162842
76	319.44632148742676	pulse	1	t		74.0	2.5	/experiments/Knapen_AOT/AOT_stimuli/rescaled_final/0027_rv.mp4	0.0	337.2077088356018	
76	321.0476887226105	pulse	1	t		74.0	2.5	/experiments/Knapen_AOT/AOT_stimuli/rescaled_final/0027_rv.mp4	0.0	338.8090760707855	
76	321.1649615764618	fix_post	2		12	74.0	2.5	/experiments/Knapen_AOT/AOT_stimuli/rescaled_final/0027_rv.mp4	0.0	338.92634892463684	0.09986376762390137
77	321.2648253440857	fix_pre	0		120	75.0	2.5	blank	1.0	339.02621269226074	1.000211238861084
77	322.2650365829468	movie	1		300	75.0	2.5	blank	1.0	340.0264239311218	2.5002963542938232
77	322.64883685112	pulse	1	t		75.0	2.5	blank	1.0	340.41022419929504	
77	324.24959778785706	pulse	1	t		75.0	2.5	blank	1.0	342.0109851360321	
77	324.7653329372406	fix_post	2		12	75.0	2.5	blank	1.0	342.52672028541565	0.1000065803527832
78	324.8653395175934	fix_pre	0		119	76.0	2.5	/experiments/Knapen_AOT/AOT_stimuli/rescaled_final/0488_rv.mp4	0.0	342.62672686576843	1.0001838207244873
78	325.8491086959839	pulse	0	t		76.0	2.5	/experiments/Knapen_AOT/AOT_stimuli/rescaled_final/0488_rv.mp4	0.0	343.61049604415894	
78	325.86552333831787	movie	1		278	76.0	2.5	/experiments/Knapen_AOT/AOT_stimuli/rescaled_final/0488_rv.mp4	0.0	343.6269106864929	2.500349283218384
78	327.44808554649353	pulse	1	t		76.0	2.5	/experiments/Knapen_AOT/AOT_stimuli/rescaled_final/0488_rv.mp4	0.0	345.2094728946686	
78	328.36587262153625	fix_post	2		12	76.0	2.5	/experiments/Knapen_AOT/AOT_stimuli/rescaled_final/0488_rv.mp4	0.0	346.1272599697113	0.10002398490905762
79	328.4658966064453	fix_pre	0		120	77.0	2.5	/experiments/Knapen_AOT/AOT_stimuli/rescaled_final/1743_rv.mp4	0.0	346.22728395462036	1.0084648132324219
79	329.04977774620056	pulse	0	t		77.0	2.5	/experiments/Knapen_AOT/AOT_stimuli/rescaled_final/1743_rv.mp4	0.0	346.8111650943756	
79	329.47436141967773	movie	1		280	77.0	2.5	/experiments/Knapen_AOT/AOT_stimuli/rescaled_final/1743_rv.mp4	0.0	347.2357487678528	2.492027997970581
79	330.64810037612915	pulse	1	t		77.0	2.5	/experiments/Knapen_AOT/AOT_stimuli/rescaled_final/1743_rv.mp4	0.0	348.4094877243042	
79	331.9663894176483	fix_post	2		12	77.0	2.5	/experiments/Knapen_AOT/AOT_stimuli/rescaled_final/1743_rv.mp4	0.0	349.72777676582336	0.10003232955932617
80	332.06642174720764	fix_pre	0		120	78.0	2.5	/experiments/Knapen_AOT/AOT_stimuli/rescaled_final/0311_fw.mp4	0.0	349.8278090953827	1.0085113048553467
80	332.2499797344208	pulse	0	t		78.0	2.5	/experiments/Knapen_AOT/AOT_stimuli/rescaled_final/0311_fw.mp4	0.0	350.0113670825958	
80	333.074933052063	movie	1		265	78.0	2.5	/experiments/Knapen_AOT/AOT_stimuli/rescaled_final/0311_fw.mp4	0.0	350.83632040023804	2.4920296669006348
80	333.8483567237854	pulse	1	t		78.0	2.5	/experiments/Knapen_AOT/AOT_stimuli/rescaled_final/0311_fw.mp4	0.0	351.60974407196045	
80	335.44865131378174	pulse	1	t		78.0	2.5	/experiments/Knapen_AOT/AOT_stimuli/rescaled_final/0311_fw.mp4	0.0	353.2100386619568	
80	335.5669627189636	fix_post	2		12	78.0	2.5	/experiments/Knapen_AOT/AOT_stimuli/rescaled_final/0311_fw.mp4	0.0	353.3283500671387	0.09999799728393555
81	335.66696071624756	fix_pre	0		120	79.0	2.5	/experiments/Knapen_AOT/AOT_stimuli/rescaled_final/0302_rv.mp4	0.0	353.4283480644226	1.0085115432739258
81	336.6754722595215	movie	1		284	79.0	2.5	/experiments/Knapen_AOT/AOT_stimuli/rescaled_final/0302_rv.mp4	0.0	354.43685960769653	2.4920313358306885
81	337.049396276474	pulse	1	t		79.0	2.5	/experiments/Knapen_AOT/AOT_stimuli/rescaled_final/0302_rv.mp4	0.0	354.81078362464905	
81	338.6495614051819	pulse	1	t		79.0	2.5	/experiments/Knapen_AOT/AOT_stimuli/rescaled_final/0302_rv.mp4	0.0	356.41094875335693	
81	339.1675035953522	fix_post	2		12	79.0	2.5	/experiments/Knapen_AOT/AOT_stimuli/rescaled_final/0302_rv.mp4	0.0	356.9288909435272	0.09998345375061035
82	339.2674870491028	fix_pre	0		119	80.0	2.5	/experiments/Knapen_AOT/AOT_stimuli/rescaled_final/0207_fw.mp4	0.0	357.02887439727783	1.0004158020019531
82	340.2436616420746	pulse	0	t		80.0	2.5	/experiments/Knapen_AOT/AOT_stimuli/rescaled_final/0207_fw.mp4	0.0	358.00504899024963	
82	340.26790285110474	movie	1		270	80.0	2.5	/experiments/Knapen_AOT/AOT_stimuli/rescaled_final/0207_fw.mp4	0.0	358.0292901992798	2.5002248287200928
82	341.85016345977783	pulse	1	t		80.0	2.5	/experiments/Knapen_AOT/AOT_stimuli/rescaled_final/0207_fw.mp4	0.0	359.6115508079529	
82	342.76812767982483	fix_post	2		12	80.0	2.5	/experiments/Knapen_AOT/AOT_stimuli/rescaled_final/0207_fw.mp4	0.0	360.5295150279999	0.09989500045776367
83	342.8680226802826	fix_pre	0		120	81.0	2.5	/experiments/Knapen_AOT/AOT_stimuli/rescaled_final/0669_rv.mp4	0.0	360.62941002845764	1.0085372924804688
83	343.4439458847046	pulse	0	t		81.0	2.5	/experiments/Knapen_AOT/AOT_stimuli/rescaled_final/0669_rv.mp4	0.0	361.20533323287964	
83	343.87655997276306	movie	1		272	81.0	2.5	/experiments/Knapen_AOT/AOT_stimuli/rescaled_final/0669_rv.mp4	0.0	361.6379473209381	2.49200177192688
83	345.04362964630127	pulse	1	t		81.0	2.5	/experiments/Knapen_AOT/AOT_stimuli/rescaled_final/0669_rv.mp4	0.0	362.8050169944763	
83	346.36856174468994	fix_post	2		12	81.0	2.5	/experiments/Knapen_AOT/AOT_stimuli/rescaled_final/0669_rv.mp4	0.0	364.129949092865	0.10002303123474121
84	346.4685847759247	fix_pre	0		120	82.0	2.5	blank	1.0	364.22997212409973	1.000133752822876
84	346.64402985572815	pulse	0	t		82.0	2.5	blank	1.0	364.4054172039032	
84	347.46871852874756	movie	1		300	82.0	2.5	blank	1.0	365.2301058769226	2.5003843307495117
84	348.24424862861633	pulse	1	t		82.0	2.5	blank	1.0	366.0056359767914	
84	349.84439992904663	pulse	1	t		82.0	2.5	blank	1.0	367.6057872772217	
84	349.96910285949707	fix_post	2		12	82.0	2.5	blank	1.0	367.7304902076721	0.10002255439758301
85	350.06912541389465	fix_pre	0		120	83.0	2.5	/experiments/Knapen_AOT/AOT_stimuli/rescaled_final/0532_fw.mp4	0.0	367.8305127620697	1.0085363388061523
85	351.0776617527008	movie	1		276	83.0	2.5	/experiments/Knapen_AOT/AOT_stimuli/rescaled_final/0532_fw.mp4	0.0	368.83904910087585	2.4919838905334473
85	351.4435467720032	pulse	1	t		83.0	2.5	/experiments/Knapen_AOT/AOT_stimuli/rescaled_final/0532_fw.mp4	0.0	369.2049341201782	
85	353.0428957939148	pulse	1	t		83.0	2.5	/experiments/Knapen_AOT/AOT_stimuli/rescaled_final/0532_fw.mp4	0.0	370.80428314208984	
85	353.56964564323425	fix_post	2		12	83.0	2.5	/experiments/Knapen_AOT/AOT_stimuli/rescaled_final/0532_fw.mp4	0.0	371.3310329914093	0.09997773170471191
87	353.66962337493896	stim	0		1715					371.431010723114	14.293864250183105
87	354.6451060771942	pulse	0	t						372.40649342536926	
87	356.24520659446716	pulse	0	t						374.0065939426422	
87	357.8454568386078	pulse	0	t						375.60684418678284	
87	359.4458031654358	pulse	0	t						377.20719051361084	
87	361.04607677459717	pulse	0	t						378.8074641227722	
87	362.64640498161316	pulse	0	t						380.4077923297882	
87	364.2467544078827	pulse	0	t						382.00814175605774	
87	365.846706867218	pulse	0	t						383.60809421539307	
87	367.44710087776184	pulse	0	t						385.2084882259369	
