trial_nr	onset	event_type	phase	response	nr_frames	movie_index	movie_duration	movie_file	blank	onset_abs	duration
0	0.15002894401550293	stim	0		86					21.414695024490356	0.7165679931640625
0	0.8584599494934082	response	0	space						22.12312602996826	
1	0.8665969371795654	stim	0		4381					22.13126301765442	36.50828504562378
1	37.36937689781189	pulse	0	t						58.63404297828674	
1	37.374881982803345	stim	1		1717					58.6395480632782	14.308073043823242
1	38.96664595603943	pulse	1	t						60.23131203651428	
1	40.566149950027466	pulse	1	t						61.83081603050232	
1	42.16675400733948	pulse	1	t						63.43142008781433	
1	43.76657700538635	pulse	1	t						65.0312430858612	
1	45.3665030002594	pulse	1	t						66.63116908073425	
1	46.966500997543335	pulse	1	t						68.23116707801819	
1	48.566457986831665	pulse	1	t						69.83112406730652	
1	50.166414976119995	pulse	1	t						71.43108105659485	
2	51.68295502662659	fix_pre	0		11	0.0	2.5	/experiments/aot/S_Person_Going_Through_A_Bible.mp4	0.0	72.94762110710144	0.09167695045471191
2	51.766496896743774	pulse	0	t		0.0	2.5	/experiments/aot/S_Person_Going_Through_A_Bible.mp4	0.0	73.03116297721863	
2	51.7746319770813	movie	1		163	0.0	2.5	/experiments/aot/S_Person_Going_Through_A_Bible.mp4	0.0	73.03929805755615	2.50838303565979
2	53.36752390861511	pulse	1	t		0.0	2.5	/experiments/aot/S_Person_Going_Through_A_Bible.mp4	0.0	74.63218998908997	
2	54.28301501274109	fix_post	2		12	0.0	2.5	/experiments/aot/S_Person_Going_Through_A_Bible.mp4	0.0	75.54768109321594	0.09999799728393555
3	54.383013010025024	fix_pre	0		120	1.0	2.5	/experiments/aot/R_S_yt-lfDIg8kaXhA_169.mp4	0.0	75.64767909049988	1.000032901763916
3	54.9664888381958	pulse	0	t		1.0	2.5	/experiments/aot/R_S_yt-lfDIg8kaXhA_169.mp4	0.0	76.23115491867065	
3	55.38304591178894	movie	1		299	1.0	2.5	/experiments/aot/R_S_yt-lfDIg8kaXhA_169.mp4	0.0	76.6477119922638	2.4999239444732666
3	56.56644797325134	pulse	1	t		1.0	2.5	/experiments/aot/R_S_yt-lfDIg8kaXhA_169.mp4	0.0	77.8311140537262	
3	57.88296985626221	fix_post	2		12	1.0	2.5	/experiments/aot/R_S_yt-lfDIg8kaXhA_169.mp4	0.0	79.14763593673706	0.0999910831451416
4	57.98296093940735	fix_pre	0		120	2.0	2.5	/experiments/aot/S_yt-dO0OuozAgt0_225.mp4	0.0	79.2476270198822	1.000105857849121
4	58.16647291183472	pulse	0	t		2.0	2.5	/experiments/aot/S_yt-dO0OuozAgt0_225.mp4	0.0	79.43113899230957	
4	58.98306679725647	movie	1		299	2.0	2.5	/experiments/aot/S_yt-dO0OuozAgt0_225.mp4	0.0	80.24773287773132	2.4999890327453613
4	59.7663688659668	pulse	1	t		2.0	2.5	/experiments/aot/S_yt-dO0OuozAgt0_225.mp4	0.0	81.03103494644165	
4	61.36652493476868	pulse	1	t		2.0	2.5	/experiments/aot/S_yt-dO0OuozAgt0_225.mp4	0.0	82.63119101524353	
4	61.48305583000183	fix_post	2		12	2.0	2.5	/experiments/aot/S_yt-dO0OuozAgt0_225.mp4	0.0	82.74772191047668	0.09990215301513672
5	61.58295798301697	fix_pre	0		120	3.0	2.5	/experiments/aot/S_yt-xqjVM0Vj4mI_161.mp4	0.0	82.84762406349182	1.0000510215759277
5	62.583009004592896	movie	1		298	3.0	2.5	/experiments/aot/S_yt-xqjVM0Vj4mI_161.mp4	0.0	83.84767508506775	2.4999518394470215
5	62.966485023498535	pulse	1	t		3.0	2.5	/experiments/aot/S_yt-xqjVM0Vj4mI_161.mp4	0.0	84.23115110397339	
5	64.56644582748413	pulse	1	t		3.0	2.5	/experiments/aot/S_yt-xqjVM0Vj4mI_161.mp4	0.0	85.83111190795898	
5	65.08296084403992	fix_post	2		12	3.0	2.5	/experiments/aot/S_yt-xqjVM0Vj4mI_161.mp4	0.0	86.34762692451477	0.10001611709594727
6	65.18297696113586	fix_pre	0		119	4.0	2.5	/experiments/aot/R_S_yt-j3Sk8ZnAiEA_32.mp4	0.0	86.44764304161072	0.9915590286254883
6	66.16637301445007	pulse	0	t		4.0	2.5	/experiments/aot/R_S_yt-j3Sk8ZnAiEA_32.mp4	0.0	87.43103909492493	
6	66.17453598976135	movie	1		301	4.0	2.5	/experiments/aot/R_S_yt-j3Sk8ZnAiEA_32.mp4	0.0	87.4392020702362	2.5084359645843506
6	67.7664840221405	pulse	1	t		4.0	2.5	/experiments/aot/R_S_yt-j3Sk8ZnAiEA_32.mp4	0.0	89.03115010261536	
6	68.6829719543457	fix_post	2		12	4.0	2.5	/experiments/aot/R_S_yt-j3Sk8ZnAiEA_32.mp4	0.0	89.94763803482056	0.09997296333312988
7	68.78294491767883	fix_pre	0		120	5.0	2.5	/experiments/aot/R_S_yt-eF5J5Kjt6oY_23.mp4	0.0	90.04761099815369	1.0000810623168945
7	69.36641502380371	pulse	0	t		5.0	2.5	/experiments/aot/R_S_yt-eF5J5Kjt6oY_23.mp4	0.0	90.63108110427856	
7	69.78302597999573	movie	1		300	5.0	2.5	/experiments/aot/R_S_yt-eF5J5Kjt6oY_23.mp4	0.0	91.04769206047058	2.4999568462371826
7	70.96642780303955	pulse	1	t		5.0	2.5	/experiments/aot/R_S_yt-eF5J5Kjt6oY_23.mp4	0.0	92.2310938835144	
7	72.28298282623291	fix_post	2		12	5.0	2.5	/experiments/aot/R_S_yt-eF5J5Kjt6oY_23.mp4	0.0	93.54764890670776	0.09997200965881348
8	72.38295483589172	fix_pre	0		120	6.0	2.5	/experiments/aot/R_S_yt-cokedWwwYYs_136.mp4	0.0	93.64762091636658	0.9999401569366455
8	72.5665078163147	pulse	0	t		6.0	2.5	/experiments/aot/R_S_yt-cokedWwwYYs_136.mp4	0.0	93.83117389678955	
8	73.38289499282837	movie	1		299	6.0	2.5	/experiments/aot/R_S_yt-cokedWwwYYs_136.mp4	0.0	94.64756107330322	2.4999349117279053
8	74.16632795333862	pulse	1	t		6.0	2.5	/experiments/aot/R_S_yt-cokedWwwYYs_136.mp4	0.0	95.43099403381348	
8	75.76643180847168	pulse	1	t		6.0	2.5	/experiments/aot/R_S_yt-cokedWwwYYs_136.mp4	0.0	97.03109788894653	
8	75.88282990455627	fix_post	2		12	6.0	2.5	/experiments/aot/R_S_yt-cokedWwwYYs_136.mp4	0.0	97.14749598503113	0.10005497932434082
9	75.98288488388062	fix_pre	0		120	7.0	2.5	blank	1.0	97.24755096435547	1.000011920928955
9	76.98289680480957	movie	1		300	7.0	2.5	blank	1.0	98.24756288528442	2.499972105026245
9	77.36647081375122	pulse	1	t		7.0	2.5	blank	1.0	98.63113689422607	
9	78.96640992164612	pulse	1	t		7.0	2.5	blank	1.0	100.23107600212097	
9	79.48286890983582	fix_post	2		12	7.0	2.5	blank	1.0	100.74753499031067	0.10003399848937988
10	79.5829029083252	fix_pre	0		119	8.0	2.5	/experiments/aot/R_S_pexels-mikhail-nilov-8410084.mp4	0.0	100.84756898880005	0.99161696434021
10	80.56633496284485	pulse	0	t		8.0	2.5	/experiments/aot/R_S_pexels-mikhail-nilov-8410084.mp4	0.0	101.8310010433197	
10	80.5745198726654	movie	1		162	8.0	2.5	/experiments/aot/R_S_pexels-mikhail-nilov-8410084.mp4	0.0	101.83918595314026	2.5083370208740234
10	82.16675901412964	pulse	1	t		8.0	2.5	/experiments/aot/R_S_pexels-mikhail-nilov-8410084.mp4	0.0	103.43142509460449	
10	83.08285689353943	fix_post	2		12	8.0	2.5	/experiments/aot/R_S_pexels-mikhail-nilov-8410084.mp4	0.0	104.34752297401428	0.09996700286865234
11	83.18282389640808	fix_pre	0		120	9.0	2.5	/experiments/aot/R_S_ILSVRC2015_train_00165011.mp4	0.0	104.44748997688293	1.0001189708709717
11	83.76641488075256	pulse	0	t		9.0	2.5	/experiments/aot/R_S_ILSVRC2015_train_00165011.mp4	0.0	105.03108096122742	
11	84.18294286727905	movie	1		300	9.0	2.5	/experiments/aot/R_S_ILSVRC2015_train_00165011.mp4	0.0	105.4476089477539	2.499904155731201
11	85.36633896827698	pulse	1	t		9.0	2.5	/experiments/aot/R_S_ILSVRC2015_train_00165011.mp4	0.0	106.63100504875183	
11	86.68284702301025	fix_post	2		12	9.0	2.5	/experiments/aot/R_S_ILSVRC2015_train_00165011.mp4	0.0	107.94751310348511	0.09995698928833008
12	86.78280401229858	fix_pre	0		120	10.0	2.5	/experiments/aot/S_yt-GjFQxAklviE_25.mp4	0.0	108.04747009277344	1.0000348091125488
12	86.96635699272156	pulse	0	t		10.0	2.5	/experiments/aot/S_yt-GjFQxAklviE_25.mp4	0.0	108.23102307319641	
12	87.78283882141113	movie	1		299	10.0	2.5	/experiments/aot/S_yt-GjFQxAklviE_25.mp4	0.0	109.04750490188599	2.500030040740967
12	88.5662829875946	pulse	1	t		10.0	2.5	/experiments/aot/S_yt-GjFQxAklviE_25.mp4	0.0	109.83094906806946	
12	90.16632080078125	pulse	1	t		10.0	2.5	/experiments/aot/S_yt-GjFQxAklviE_25.mp4	0.0	111.4309868812561	
12	90.2828688621521	fix_post	2		12	10.0	2.5	/experiments/aot/S_yt-GjFQxAklviE_25.mp4	0.0	111.54753494262695	0.09999799728393555
13	90.38286685943604	fix_pre	0		120	11.0	2.5	/experiments/aot/S_yt-Bx2kLEUuN0E_456.mp4	0.0	111.64753293991089	0.9999940395355225
13	91.38286089897156	movie	1		300	11.0	2.5	/experiments/aot/S_yt-Bx2kLEUuN0E_456.mp4	0.0	112.64752697944641	2.4999029636383057
13	91.7662308216095	pulse	1	t		11.0	2.5	/experiments/aot/S_yt-Bx2kLEUuN0E_456.mp4	0.0	113.03089690208435	
13	93.36632990837097	pulse	1	t		11.0	2.5	/experiments/aot/S_yt-Bx2kLEUuN0E_456.mp4	0.0	114.63099598884583	
13	93.88276386260986	fix_post	2		12	11.0	2.5	/experiments/aot/S_yt-Bx2kLEUuN0E_456.mp4	0.0	115.14742994308472	0.10010695457458496
14	93.98287081718445	fix_pre	0		119	12.0	2.5	/experiments/aot/R_S_bing-www_dailymotion_com_video_x4kcklg_53.mp4	0.0	115.2475368976593	0.9916391372680664
14	94.96630787849426	pulse	0	t		12.0	2.5	/experiments/aot/R_S_bing-www_dailymotion_com_video_x4kcklg_53.mp4	0.0	116.23097395896912	
14	94.97450995445251	movie	1		163	12.0	2.5	/experiments/aot/R_S_bing-www_dailymotion_com_video_x4kcklg_53.mp4	0.0	116.23917603492737	2.5084469318389893
14	96.56582880020142	pulse	1	t		12.0	2.5	/experiments/aot/R_S_bing-www_dailymotion_com_video_x4kcklg_53.mp4	0.0	117.83049488067627	
14	97.4829568862915	fix_post	2		12	12.0	2.5	/experiments/aot/R_S_bing-www_dailymotion_com_video_x4kcklg_53.mp4	0.0	118.74762296676636	0.09966897964477539
15	97.58262586593628	fix_pre	0		120	13.0	2.5	blank	1.0	118.84729194641113	1.000049114227295
15	98.16610980033875	pulse	0	t		13.0	2.5	blank	1.0	119.4307758808136	
15	98.58267498016357	movie	1		300	13.0	2.5	blank	1.0	119.84734106063843	2.5001089572906494
15	99.76626586914062	pulse	1	t		13.0	2.5	blank	1.0	121.03093194961548	
15	101.08278393745422	fix_post	2		12	13.0	2.5	blank	1.0	122.34745001792908	0.10001301765441895
16	101.18279695510864	fix_pre	0		120	14.0	2.5	/experiments/aot/S_pexels-mikhail-nilov-8410084.mp4	0.0	122.4474630355835	1.0000050067901611
16	101.36631202697754	pulse	0	t		14.0	2.5	/experiments/aot/S_pexels-mikhail-nilov-8410084.mp4	0.0	122.63097810745239	
16	102.1828019618988	movie	1		164	14.0	2.5	/experiments/aot/S_pexels-mikhail-nilov-8410084.mp4	0.0	123.44746804237366	2.4999618530273438
16	102.96633791923523	pulse	1	t		14.0	2.5	/experiments/aot/S_pexels-mikhail-nilov-8410084.mp4	0.0	124.23100399971008	
16	104.56619095802307	pulse	1	t		14.0	2.5	/experiments/aot/S_pexels-mikhail-nilov-8410084.mp4	0.0	125.83085703849792	
16	104.68276381492615	fix_post	2		12	14.0	2.5	/experiments/aot/S_pexels-mikhail-nilov-8410084.mp4	0.0	125.947429895401	0.0999290943145752
17	104.78269290924072	fix_pre	0		120	15.0	2.5	/experiments/aot/S_Pexels_Videos_278654_1.mp4	0.0	126.04735898971558	1.0000839233398438
17	105.78277683258057	movie	1		161	15.0	2.5	/experiments/aot/S_Pexels_Videos_278654_1.mp4	0.0	127.04744291305542	2.4999680519104004
17	106.16623592376709	pulse	1	t		15.0	2.5	/experiments/aot/S_Pexels_Videos_278654_1.mp4	0.0	127.43090200424194	
17	107.76639580726624	pulse	1	t		15.0	2.5	/experiments/aot/S_Pexels_Videos_278654_1.mp4	0.0	129.0310618877411	
17	108.28274488449097	fix_post	2		12	15.0	2.5	/experiments/aot/S_Pexels_Videos_278654_1.mp4	0.0	129.54741096496582	0.1000220775604248
18	108.38276696205139	fix_pre	0		119	16.0	2.5	/experiments/aot/S_Pexels_Videos_2795737.mp4	0.0	129.64743304252625	0.991602897644043
18	109.3661699295044	pulse	0	t		16.0	2.5	/experiments/aot/S_Pexels_Videos_2795737.mp4	0.0	130.63083600997925	
18	109.37436985969543	movie	1		162	16.0	2.5	/experiments/aot/S_Pexels_Videos_2795737.mp4	0.0	130.6390359401703	2.508368968963623
18	110.96589994430542	pulse	1	t		16.0	2.5	/experiments/aot/S_Pexels_Videos_2795737.mp4	0.0	132.23056602478027	
18	111.88273882865906	fix_post	2		12	16.0	2.5	/experiments/aot/S_Pexels_Videos_2795737.mp4	0.0	133.1474049091339	0.09998011589050293
19	111.98271894454956	fix_pre	0		120	17.0	2.5	/experiments/aot/S_yt-22c5eZ1UNME_76.mp4	0.0	133.2473850250244	0.9999918937683105
19	112.56622886657715	pulse	0	t		17.0	2.5	/experiments/aot/S_yt-22c5eZ1UNME_76.mp4	0.0	133.830894947052	
19	112.98271083831787	movie	1		300	17.0	2.5	/experiments/aot/S_yt-22c5eZ1UNME_76.mp4	0.0	134.24737691879272	2.500080108642578
19	114.16633081436157	pulse	1	t		17.0	2.5	/experiments/aot/S_yt-22c5eZ1UNME_76.mp4	0.0	135.43099689483643	
19	115.48279094696045	fix_post	2		12	17.0	2.5	/experiments/aot/S_yt-22c5eZ1UNME_76.mp4	0.0	136.7474570274353	0.09992098808288574
20	115.58271193504333	fix_pre	0		120	18.0	2.5	/experiments/aot/R_S_yt-H45g6700wbc_159.mp4	0.0	136.8473780155182	1.0000169277191162
20	115.76624584197998	pulse	0	t		18.0	2.5	/experiments/aot/R_S_yt-H45g6700wbc_159.mp4	0.0	137.03091192245483	
20	116.58272886276245	movie	1		300	18.0	2.5	/experiments/aot/R_S_yt-H45g6700wbc_159.mp4	0.0	137.8473949432373	2.5000369548797607
20	117.36612582206726	pulse	1	t		18.0	2.5	/experiments/aot/R_S_yt-H45g6700wbc_159.mp4	0.0	138.63079190254211	
20	118.96625781059265	pulse	1	t		18.0	2.5	/experiments/aot/R_S_yt-H45g6700wbc_159.mp4	0.0	140.2309238910675	
20	119.08276581764221	fix_post	2		12	18.0	2.5	/experiments/aot/R_S_yt-H45g6700wbc_159.mp4	0.0	140.34743189811707	0.10010099411010742
21	119.18286681175232	fix_pre	0		120	19.0	2.5	blank	1.0	140.44753289222717	0.9998362064361572
21	120.18270301818848	movie	1		300	19.0	2.5	blank	1.0	141.44736909866333	2.4999117851257324
21	120.56612801551819	pulse	1	t		19.0	2.5	blank	1.0	141.83079409599304	
21	122.16621088981628	pulse	1	t		19.0	2.5	blank	1.0	143.43087697029114	
21	122.68261480331421	fix_post	2		12	19.0	2.5	blank	1.0	143.94728088378906	0.10005712509155273
22	122.78267192840576	fix_pre	0		119	20.0	2.5	/experiments/aot/S_yt-nMWqezngycw_10.mp4	0.0	144.04733800888062	0.9916179180145264
22	123.76610779762268	pulse	0	t		20.0	2.5	/experiments/aot/S_yt-nMWqezngycw_10.mp4	0.0	145.03077387809753	
22	123.77428984642029	movie	1		301	20.0	2.5	/experiments/aot/S_yt-nMWqezngycw_10.mp4	0.0	145.03895592689514	2.5083179473876953
22	125.36621189117432	pulse	1	t		20.0	2.5	/experiments/aot/S_yt-nMWqezngycw_10.mp4	0.0	146.63087797164917	
22	126.28260779380798	fix_post	2		12	20.0	2.5	/experiments/aot/S_yt-nMWqezngycw_10.mp4	0.0	147.54727387428284	0.10001420974731445
23	126.3826220035553	fix_pre	0		120	21.0	2.5	/experiments/aot/R_S_yt-n6aLw10f2Yw_317.mp4	0.0	147.64728808403015	1.0000510215759277
23	126.96629190444946	pulse	0	t		21.0	2.5	/experiments/aot/R_S_yt-n6aLw10f2Yw_317.mp4	0.0	148.23095798492432	
23	127.38267302513123	movie	1		300	21.0	2.5	/experiments/aot/R_S_yt-n6aLw10f2Yw_317.mp4	0.0	148.64733910560608	2.5000808238983154
23	128.56616592407227	pulse	1	t		21.0	2.5	/experiments/aot/R_S_yt-n6aLw10f2Yw_317.mp4	0.0	149.83083200454712	
23	129.88275384902954	fix_post	2		12	21.0	2.5	/experiments/aot/R_S_yt-n6aLw10f2Yw_317.mp4	0.0	151.1474199295044	0.0998830795288086
24	129.98263692855835	fix_pre	0		120	22.0	2.5	/experiments/aot/S_yt-n_eO-7KedAE_21.mp4	0.0	151.2473030090332	0.9999170303344727
24	130.1662139892578	pulse	0	t		22.0	2.5	/experiments/aot/S_yt-n_eO-7KedAE_21.mp4	0.0	151.43088006973267	
24	130.98255395889282	movie	1		299	22.0	2.5	/experiments/aot/S_yt-n_eO-7KedAE_21.mp4	0.0	152.24722003936768	2.5002269744873047
24	131.7661759853363	pulse	1	t		22.0	2.5	/experiments/aot/S_yt-n_eO-7KedAE_21.mp4	0.0	153.03084206581116	
24	133.3660910129547	pulse	1	t		22.0	2.5	/experiments/aot/S_yt-n_eO-7KedAE_21.mp4	0.0	154.63075709342957	
24	133.48278093338013	fix_post	2		12	22.0	2.5	/experiments/aot/S_yt-n_eO-7KedAE_21.mp4	0.0	154.74744701385498	0.09984302520751953
25	133.58262395858765	fix_pre	0		120	23.0	2.5	/experiments/aot/S_yt-_HuBzj8EPBc_62.mp4	0.0	154.8472900390625	1.0000059604644775
25	134.58262991905212	movie	1		299	23.0	2.5	/experiments/aot/S_yt-_HuBzj8EPBc_62.mp4	0.0	155.84729599952698	2.499959945678711
25	134.96615600585938	pulse	1	t		23.0	2.5	/experiments/aot/S_yt-_HuBzj8EPBc_62.mp4	0.0	156.23082208633423	
25	136.56630396842957	pulse	1	t		23.0	2.5	/experiments/aot/S_yt-_HuBzj8EPBc_62.mp4	0.0	157.83097004890442	
25	137.08258986473083	fix_post	2		12	23.0	2.5	/experiments/aot/S_yt-_HuBzj8EPBc_62.mp4	0.0	158.3472559452057	0.09997296333312988
26	137.18256282806396	fix_pre	0		119	24.0	2.5	/experiments/aot/R_S_b5-3.mp4	0.0	158.44722890853882	0.9916970729827881
26	138.16612887382507	pulse	0	t		24.0	2.5	/experiments/aot/R_S_b5-3.mp4	0.0	159.43079495429993	
26	138.17425990104675	movie	1		172	24.0	2.5	/experiments/aot/R_S_b5-3.mp4	0.0	159.4389259815216	2.508254051208496
26	139.76704001426697	pulse	1	t		24.0	2.5	/experiments/aot/R_S_b5-3.mp4	0.0	161.03170609474182	
26	140.68251395225525	fix_post	2		12	24.0	2.5	/experiments/aot/R_S_b5-3.mp4	0.0	161.9471800327301	0.1000828742980957
27	140.78259682655334	fix_pre	0		120	25.0	2.5	/experiments/aot/S_yt-VfASxEzDrvc_145.mp4	0.0	162.0472629070282	0.9999179840087891
27	141.36599683761597	pulse	0	t		25.0	2.5	/experiments/aot/S_yt-VfASxEzDrvc_145.mp4	0.0	162.63066291809082	
27	141.78251481056213	movie	1		300	25.0	2.5	/experiments/aot/S_yt-VfASxEzDrvc_145.mp4	0.0	163.047180891037	2.50004506111145
27	142.96605587005615	pulse	1	t		25.0	2.5	/experiments/aot/S_yt-VfASxEzDrvc_145.mp4	0.0	164.230721950531	
27	144.28255987167358	fix_post	2		12	25.0	2.5	/experiments/aot/S_yt-VfASxEzDrvc_145.mp4	0.0	165.54722595214844	0.10004806518554688
28	144.38260793685913	fix_pre	0		120	26.0	2.5	/experiments/aot/S_yt-R9Iabv0XgOQ_80.mp4	0.0	165.64727401733398	0.9999420642852783
28	144.56615686416626	pulse	0	t		26.0	2.5	/experiments/aot/S_yt-R9Iabv0XgOQ_80.mp4	0.0	165.8308229446411	
28	145.3825500011444	movie	1		300	26.0	2.5	/experiments/aot/S_yt-R9Iabv0XgOQ_80.mp4	0.0	166.64721608161926	2.5000808238983154
28	146.16598200798035	pulse	1	t		26.0	2.5	/experiments/aot/S_yt-R9Iabv0XgOQ_80.mp4	0.0	167.4306480884552	
28	147.76658391952515	pulse	1	t		26.0	2.5	/experiments/aot/S_yt-R9Iabv0XgOQ_80.mp4	0.0	169.03125	
28	147.88263082504272	fix_post	2		12	26.0	2.5	/experiments/aot/S_yt-R9Iabv0XgOQ_80.mp4	0.0	169.14729690551758	0.09995818138122559
29	147.98258900642395	fix_pre	0		120	27.0	2.5	/experiments/aot/R_S_yt-fQgLKiz2tuM_14.mp4	0.0	169.2472550868988	0.9999678134918213
29	148.98255681991577	movie	1		300	27.0	2.5	/experiments/aot/R_S_yt-fQgLKiz2tuM_14.mp4	0.0	170.24722290039062	2.4996070861816406
29	149.36610579490662	pulse	1	t		27.0	2.5	/experiments/aot/R_S_yt-fQgLKiz2tuM_14.mp4	0.0	170.63077187538147	
29	150.96602702140808	pulse	1	t		27.0	2.5	/experiments/aot/R_S_yt-fQgLKiz2tuM_14.mp4	0.0	172.23069310188293	
29	151.4821639060974	fix_post	2		12	27.0	2.5	/experiments/aot/R_S_yt-fQgLKiz2tuM_14.mp4	0.0	172.74682998657227	0.09992289543151855
30	151.58208680152893	fix_pre	0		119	28.0	2.5	blank	1.0	172.84675288200378	0.9921309947967529
30	152.56572580337524	pulse	0	t		28.0	2.5	blank	1.0	173.8303918838501	
30	152.57421779632568	movie	1		301	28.0	2.5	blank	1.0	173.83888387680054	2.5082972049713135
30	154.1662769317627	pulse	1	t		28.0	2.5	blank	1.0	175.43094301223755	
30	155.082515001297	fix_post	2		12	28.0	2.5	blank	1.0	176.34718108177185	0.0999917984008789
31	155.18250679969788	fix_pre	0		120	29.0	2.5	/experiments/aot/S_video-2_copy.mp4	0.0	176.44717288017273	1.0000731945037842
31	155.76604795455933	pulse	0	t		29.0	2.5	/experiments/aot/S_video-2_copy.mp4	0.0	177.03071403503418	
31	156.18257999420166	movie	1		160	29.0	2.5	/experiments/aot/S_video-2_copy.mp4	0.0	177.4472460746765	2.4999098777770996
31	157.3659749031067	pulse	1	t		29.0	2.5	/experiments/aot/S_video-2_copy.mp4	0.0	178.63064098358154	
31	158.68248987197876	fix_post	2		12	29.0	2.5	/experiments/aot/S_video-2_copy.mp4	0.0	179.9471559524536	0.10006213188171387
32	158.78255200386047	fix_pre	0		120	30.0	2.5	/experiments/aot/R_S_yt-F2x6e7e7cAE_70.mp4	0.0	180.04721808433533	0.99993896484375
32	158.96593284606934	pulse	0	t		30.0	2.5	/experiments/aot/R_S_yt-F2x6e7e7cAE_70.mp4	0.0	180.2305989265442	
32	159.78249096870422	movie	1		300	30.0	2.5	/experiments/aot/R_S_yt-F2x6e7e7cAE_70.mp4	0.0	181.04715704917908	2.49995493888855
32	160.56586480140686	pulse	1	t		30.0	2.5	/experiments/aot/R_S_yt-F2x6e7e7cAE_70.mp4	0.0	181.8305308818817	
32	162.16600894927979	pulse	1	t		30.0	2.5	/experiments/aot/R_S_yt-F2x6e7e7cAE_70.mp4	0.0	183.43067502975464	
32	162.28244590759277	fix_post	2		12	30.0	2.5	/experiments/aot/R_S_yt-F2x6e7e7cAE_70.mp4	0.0	183.54711198806763	0.0999760627746582
33	162.38242197036743	fix_pre	0		120	31.0	2.5	/experiments/aot/S_yt-zam74qlzGtQ_122.mp4	0.0	183.64708805084229	1.0001728534698486
33	163.38259482383728	movie	1		300	31.0	2.5	/experiments/aot/S_yt-zam74qlzGtQ_122.mp4	0.0	184.64726090431213	2.499798059463501
33	163.76601696014404	pulse	1	t		31.0	2.5	/experiments/aot/S_yt-zam74qlzGtQ_122.mp4	0.0	185.0306830406189	
33	165.36591482162476	pulse	1	t		31.0	2.5	/experiments/aot/S_yt-zam74qlzGtQ_122.mp4	0.0	186.6305809020996	
33	165.88239288330078	fix_post	2		12	31.0	2.5	/experiments/aot/S_yt-zam74qlzGtQ_122.mp4	0.0	187.14705896377563	0.10006499290466309
34	165.98245787620544	fix_pre	0		119	32.0	2.5	/experiments/aot/R_S_ILSVRC2015_train_00425000.mp4	0.0	187.2471239566803	0.9916701316833496
34	166.96594381332397	pulse	0	t		32.0	2.5	/experiments/aot/R_S_ILSVRC2015_train_00425000.mp4	0.0	188.23060989379883	
34	166.9741280078888	movie	1		301	32.0	2.5	/experiments/aot/R_S_ILSVRC2015_train_00425000.mp4	0.0	188.23879408836365	2.508281946182251
34	168.56600880622864	pulse	1	t		32.0	2.5	/experiments/aot/R_S_ILSVRC2015_train_00425000.mp4	0.0	189.8306748867035	
34	169.48240995407104	fix_post	2		12	32.0	2.5	/experiments/aot/R_S_ILSVRC2015_train_00425000.mp4	0.0	190.7470760345459	0.10001707077026367
35	169.5824270248413	fix_pre	0		120	33.0	2.5	/experiments/aot/R_S_yt-kYMffy4hTMo_107.mp4	0.0	190.84709310531616	1.0000479221343994
35	170.16591501235962	pulse	0	t		33.0	2.5	/experiments/aot/R_S_yt-kYMffy4hTMo_107.mp4	0.0	191.43058109283447	
35	170.5824749469757	movie	1		300	33.0	2.5	/experiments/aot/R_S_yt-kYMffy4hTMo_107.mp4	0.0	191.84714102745056	2.4999890327453613
35	171.76593279838562	pulse	1	t		33.0	2.5	/experiments/aot/R_S_yt-kYMffy4hTMo_107.mp4	0.0	193.03059887886047	
35	173.08246397972107	fix_post	2		12	33.0	2.5	/experiments/aot/R_S_yt-kYMffy4hTMo_107.mp4	0.0	194.34713006019592	0.09999299049377441
36	173.18245697021484	fix_pre	0		120	34.0	2.5	/experiments/aot/R_S_yt-cjndulbUtRc_51.mp4	0.0	194.4471230506897	1.0000109672546387
36	173.36599898338318	pulse	0	t		34.0	2.5	/experiments/aot/R_S_yt-cjndulbUtRc_51.mp4	0.0	194.63066506385803	
36	174.18246793746948	movie	1		300	34.0	2.5	/experiments/aot/R_S_yt-cjndulbUtRc_51.mp4	0.0	195.44713401794434	2.4999470710754395
36	174.96595788002014	pulse	1	t		34.0	2.5	/experiments/aot/R_S_yt-cjndulbUtRc_51.mp4	0.0	196.230623960495	
36	176.5744228363037	pulse	1	t		34.0	2.5	/experiments/aot/R_S_yt-cjndulbUtRc_51.mp4	0.0	197.83908891677856	
36	176.68241500854492	fix_post	2		12	34.0	2.5	/experiments/aot/R_S_yt-cjndulbUtRc_51.mp4	0.0	197.94708108901978	0.10001683235168457
37	176.7824318408966	fix_pre	0		120	35.0	2.5	blank	1.0	198.04709792137146	0.99993896484375
37	177.78237080574036	movie	1		300	35.0	2.5	blank	1.0	199.0470368862152	2.500049114227295
37	178.16593480110168	pulse	1	t		35.0	2.5	blank	1.0	199.43060088157654	
37	179.76594281196594	pulse	1	t		35.0	2.5	blank	1.0	201.0306088924408	
37	180.28241991996765	fix_post	2		12	35.0	2.5	blank	1.0	201.5470860004425	0.09999704360961914
38	180.38241696357727	fix_pre	0		119	36.0	2.5	/experiments/aot/S_wc-jujp1kJRHrkJ_54.mp4	0.0	201.64708304405212	0.9916038513183594
38	181.3658800125122	pulse	0	t		36.0	2.5	/experiments/aot/S_wc-jujp1kJRHrkJ_54.mp4	0.0	202.63054609298706	
38	181.37402081489563	movie	1		301	36.0	2.5	/experiments/aot/S_wc-jujp1kJRHrkJ_54.mp4	0.0	202.63868689537048	2.508376121520996
38	182.9658739566803	pulse	1	t		36.0	2.5	/experiments/aot/S_wc-jujp1kJRHrkJ_54.mp4	0.0	204.23054003715515	
38	183.88239693641663	fix_post	2		12	36.0	2.5	/experiments/aot/S_wc-jujp1kJRHrkJ_54.mp4	0.0	205.14706301689148	0.10004401206970215
39	183.98244094848633	fix_pre	0		120	37.0	2.5	/experiments/aot/S_yt-G_eNNzNB-hU_1.mp4	0.0	205.24710702896118	0.9999768733978271
39	184.56593799591064	pulse	0	t		37.0	2.5	/experiments/aot/S_yt-G_eNNzNB-hU_1.mp4	0.0	205.8306040763855	
39	184.98241782188416	movie	1		300	37.0	2.5	/experiments/aot/S_yt-G_eNNzNB-hU_1.mp4	0.0	206.247083902359	2.49985408782959
39	186.1657359600067	pulse	1	t		37.0	2.5	/experiments/aot/S_yt-G_eNNzNB-hU_1.mp4	0.0	207.43040204048157	
39	187.48227190971375	fix_post	2		12	37.0	2.5	/experiments/aot/S_yt-G_eNNzNB-hU_1.mp4	0.0	208.7469379901886	0.10004901885986328
40	187.5823209285736	fix_pre	0		120	38.0	2.5	/experiments/aot/S_video-2_copy.mp4	0.0	208.84698700904846	0.9999520778656006
40	187.7658178806305	pulse	0	t		38.0	2.5	/experiments/aot/S_video-2_copy.mp4	0.0	209.03048396110535	
40	188.5822730064392	movie	1		163	38.0	2.5	/experiments/aot/S_video-2_copy.mp4	0.0	209.84693908691406	2.500119924545288
40	189.36588788032532	pulse	1	t		38.0	2.5	/experiments/aot/S_video-2_copy.mp4	0.0	210.63055396080017	
40	190.96584796905518	pulse	1	t		38.0	2.5	/experiments/aot/S_video-2_copy.mp4	0.0	212.23051404953003	
40	191.0823929309845	fix_post	2		12	38.0	2.5	/experiments/aot/S_video-2_copy.mp4	0.0	212.34705901145935	0.09993505477905273
41	191.18232798576355	fix_pre	0		120	39.0	2.5	/experiments/aot/R_S_yt-EvKV7iY1_HM_193.mp4	0.0	212.4469940662384	1.0000050067901611
41	192.1823329925537	movie	1		299	39.0	2.5	/experiments/aot/R_S_yt-EvKV7iY1_HM_193.mp4	0.0	213.44699907302856	2.5001769065856934
41	192.56580781936646	pulse	1	t		39.0	2.5	/experiments/aot/R_S_yt-EvKV7iY1_HM_193.mp4	0.0	213.8304738998413	
41	194.1657919883728	pulse	1	t		39.0	2.5	/experiments/aot/R_S_yt-EvKV7iY1_HM_193.mp4	0.0	215.43045806884766	
41	194.6825098991394	fix_post	2		12	39.0	2.5	/experiments/aot/R_S_yt-EvKV7iY1_HM_193.mp4	0.0	215.94717597961426	0.09979510307312012
42	194.78230500221252	fix_pre	0		119	40.0	2.5	/experiments/aot/R_S_pexels-diva-plavalaguna-6985395_1.mp4	0.0	216.04697108268738	0.9916789531707764
42	195.76584601402283	pulse	0	t		40.0	2.5	/experiments/aot/R_S_pexels-diva-plavalaguna-6985395_1.mp4	0.0	217.03051209449768	
42	195.7739839553833	movie	1		168	40.0	2.5	/experiments/aot/R_S_pexels-diva-plavalaguna-6985395_1.mp4	0.0	217.03865003585815	2.5083279609680176
42	197.36557793617249	pulse	1	t		40.0	2.5	/experiments/aot/R_S_pexels-diva-plavalaguna-6985395_1.mp4	0.0	218.63024401664734	
42	198.28231191635132	fix_post	2		12	40.0	2.5	/experiments/aot/R_S_pexels-diva-plavalaguna-6985395_1.mp4	0.0	219.54697799682617	0.09999489784240723
43	198.38230681419373	fix_pre	0		120	41.0	2.5	/experiments/aot/S_yt-P8vJa4YVcGU_488.mp4	0.0	219.64697289466858	0.9999539852142334
43	198.96586084365845	pulse	0	t		41.0	2.5	/experiments/aot/S_yt-P8vJa4YVcGU_488.mp4	0.0	220.2305269241333	
43	199.38226079940796	movie	1		300	41.0	2.5	/experiments/aot/S_yt-P8vJa4YVcGU_488.mp4	0.0	220.6469268798828	2.500092029571533
43	200.56581592559814	pulse	1	t		41.0	2.5	/experiments/aot/S_yt-P8vJa4YVcGU_488.mp4	0.0	221.830482006073	
43	201.8823528289795	fix_post	2		12	41.0	2.5	/experiments/aot/S_yt-P8vJa4YVcGU_488.mp4	0.0	223.14701890945435	0.09993410110473633
44	201.98228693008423	fix_pre	0		120	42.0	2.5	blank	1.0	223.24695301055908	1.0000739097595215
44	202.1657907962799	pulse	0	t		42.0	2.5	blank	1.0	223.43045687675476	
44	202.98236083984375	movie	1		300	42.0	2.5	blank	1.0	224.2470269203186	2.499920129776001
44	203.7658088207245	pulse	1	t		42.0	2.5	blank	1.0	225.03047490119934	
44	205.36584496498108	pulse	1	t		42.0	2.5	blank	1.0	226.63051104545593	
44	205.48228096961975	fix_post	2		12	42.0	2.5	blank	1.0	226.7469470500946	0.10002684593200684
45	205.58230781555176	fix_pre	0		120	43.0	2.5	/experiments/aot/S_yt-3NMDWrZr1Z4_255.mp4	0.0	226.8469738960266	1.0000011920928955
45	206.58230900764465	movie	1		300	43.0	2.5	/experiments/aot/S_yt-3NMDWrZr1Z4_255.mp4	0.0	227.8469750881195	2.500091791152954
45	206.96568393707275	pulse	1	t		43.0	2.5	/experiments/aot/S_yt-3NMDWrZr1Z4_255.mp4	0.0	228.2303500175476	
45	208.56593585014343	pulse	1	t		43.0	2.5	/experiments/aot/S_yt-3NMDWrZr1Z4_255.mp4	0.0	229.8306019306183	
45	209.0824007987976	fix_post	2		12	43.0	2.5	/experiments/aot/S_yt-3NMDWrZr1Z4_255.mp4	0.0	230.34706687927246	0.09957408905029297
46	209.1819748878479	fix_pre	0		119	44.0	2.5	/experiments/aot/R_S_yt--I4Ggi6-QOE_23.mp4	0.0	230.44664096832275	0.9922471046447754
46	210.1660749912262	pulse	0	t		44.0	2.5	/experiments/aot/R_S_yt--I4Ggi6-QOE_23.mp4	0.0	231.43074107170105	
46	210.17422199249268	movie	1		301	44.0	2.5	/experiments/aot/R_S_yt--I4Ggi6-QOE_23.mp4	0.0	231.43888807296753	2.5080130100250244
46	211.76571202278137	pulse	1	t		44.0	2.5	/experiments/aot/R_S_yt--I4Ggi6-QOE_23.mp4	0.0	233.03037810325623	
46	212.6822350025177	fix_post	2		12	44.0	2.5	/experiments/aot/R_S_yt--I4Ggi6-QOE_23.mp4	0.0	233.94690108299255	0.10003089904785156
47	212.78226590156555	fix_pre	0		120	45.0	2.5	/experiments/aot/S_video_inspire_california_big-sur_landscape_054.1080-h264.mp4	0.0	234.0469319820404	1.0000081062316895
47	213.36581802368164	pulse	0	t		45.0	2.5	/experiments/aot/S_video_inspire_california_big-sur_landscape_054.1080-h264.mp4	0.0	234.6304841041565	
47	213.78227400779724	movie	1		171	45.0	2.5	/experiments/aot/S_video_inspire_california_big-sur_landscape_054.1080-h264.mp4	0.0	235.0469400882721	2.4999217987060547
47	214.96570301055908	pulse	1	t		45.0	2.5	/experiments/aot/S_video_inspire_california_big-sur_landscape_054.1080-h264.mp4	0.0	236.23036909103394	
47	216.2821958065033	fix_post	2		12	45.0	2.5	/experiments/aot/S_video_inspire_california_big-sur_landscape_054.1080-h264.mp4	0.0	237.54686188697815	0.09993910789489746
48	216.3821349143982	fix_pre	0		120	46.0	2.5	/experiments/aot/S_production_ID_4802710.mp4	0.0	237.64680099487305	1.0000989437103271
48	216.5656259059906	pulse	0	t		46.0	2.5	/experiments/aot/S_production_ID_4802710.mp4	0.0	237.83029198646545	
48	217.38223385810852	movie	1		163	46.0	2.5	/experiments/aot/S_production_ID_4802710.mp4	0.0	238.64689993858337	2.500066041946411
48	218.1656219959259	pulse	1	t		46.0	2.5	/experiments/aot/S_production_ID_4802710.mp4	0.0	239.43028807640076	
48	219.76566982269287	pulse	1	t		46.0	2.5	/experiments/aot/S_production_ID_4802710.mp4	0.0	241.03033590316772	
48	219.88229990005493	fix_post	2		12	46.0	2.5	/experiments/aot/S_production_ID_4802710.mp4	0.0	241.14696598052979	0.09992504119873047
49	219.98222494125366	fix_pre	0		120	47.0	2.5	blank	1.0	241.24689102172852	1.0000190734863281
49	220.98224401474	movie	1		300	47.0	2.5	blank	1.0	242.24691009521484	2.500005006790161
49	221.365651845932	pulse	1	t		47.0	2.5	blank	1.0	242.63031792640686	
49	222.9656388759613	pulse	1	t		47.0	2.5	blank	1.0	244.23030495643616	
49	223.48224902153015	fix_post	2		12	47.0	2.5	blank	1.0	244.746915102005	0.09997892379760742
50	223.58222794532776	fix_pre	0		119	48.0	2.5	/experiments/aot/S_yt-7W50lcw5FCo_37.mp4	0.0	244.8468940258026	0.991549015045166
50	224.56559586524963	pulse	0	t		48.0	2.5	/experiments/aot/S_yt-7W50lcw5FCo_37.mp4	0.0	245.8302619457245	
50	224.57377696037292	movie	1		301	48.0	2.5	/experiments/aot/S_yt-7W50lcw5FCo_37.mp4	0.0	245.83844304084778	2.5084409713745117
50	226.16565084457397	pulse	1	t		48.0	2.5	/experiments/aot/S_yt-7W50lcw5FCo_37.mp4	0.0	247.43031692504883	
50	227.08221793174744	fix_post	2		12	48.0	2.5	/experiments/aot/S_yt-7W50lcw5FCo_37.mp4	0.0	248.3468840122223	0.09993696212768555
51	227.18215489387512	fix_pre	0		120	49.0	2.5	/experiments/aot/R_S_yt-7lULOC_rSE0_747.mp4	0.0	248.44682097434998	1.0000889301300049
51	227.76556181907654	pulse	0	t		49.0	2.5	/experiments/aot/R_S_yt-7lULOC_rSE0_747.mp4	0.0	249.0302278995514	
51	228.18224382400513	movie	1		300	49.0	2.5	/experiments/aot/R_S_yt-7lULOC_rSE0_747.mp4	0.0	249.44690990447998	2.4999191761016846
51	229.36558294296265	pulse	1	t		49.0	2.5	/experiments/aot/R_S_yt-7lULOC_rSE0_747.mp4	0.0	250.6302490234375	
51	230.6821630001068	fix_post	2		12	49.0	2.5	/experiments/aot/R_S_yt-7lULOC_rSE0_747.mp4	0.0	251.94682908058167	0.10000896453857422
52	230.78217196464539	fix_pre	0		120	50.0	2.5	/experiments/aot/R_S_yt-wrfAMDCg93Y_8.mp4	0.0	252.04683804512024	0.9999949932098389
52	230.96558380126953	pulse	0	t		50.0	2.5	/experiments/aot/R_S_yt-wrfAMDCg93Y_8.mp4	0.0	252.23024988174438	
52	231.78216695785522	movie	1		300	50.0	2.5	/experiments/aot/R_S_yt-wrfAMDCg93Y_8.mp4	0.0	253.04683303833008	2.5000479221343994
52	232.56555891036987	pulse	1	t		50.0	2.5	/experiments/aot/R_S_yt-wrfAMDCg93Y_8.mp4	0.0	253.83022499084473	
52	234.16559386253357	pulse	1	t		50.0	2.5	/experiments/aot/R_S_yt-wrfAMDCg93Y_8.mp4	0.0	255.43025994300842	
52	234.28221487998962	fix_post	2		12	50.0	2.5	/experiments/aot/R_S_yt-wrfAMDCg93Y_8.mp4	0.0	255.54688096046448	0.09991312026977539
53	234.3821280002594	fix_pre	0		120	51.0	2.5	/experiments/aot/S_yt-Jo6PxivsTOg_247.mp4	0.0	255.64679408073425	1.0000998973846436
53	235.38222789764404	movie	1		300	51.0	2.5	/experiments/aot/S_yt-Jo6PxivsTOg_247.mp4	0.0	256.6468939781189	2.499951124191284
53	235.76564192771912	pulse	1	t		51.0	2.5	/experiments/aot/S_yt-Jo6PxivsTOg_247.mp4	0.0	257.03030800819397	
53	237.36560702323914	pulse	1	t		51.0	2.5	/experiments/aot/S_yt-Jo6PxivsTOg_247.mp4	0.0	258.630273103714	
53	237.88217902183533	fix_post	2		12	51.0	2.5	/experiments/aot/S_yt-Jo6PxivsTOg_247.mp4	0.0	259.1468451023102	0.09992480278015137
54	237.98210382461548	fix_pre	0		119	52.0	2.5	/experiments/aot/R_S_ILSVRC2015_train_00756000.mp4	0.0	259.24676990509033	0.9916541576385498
54	238.96561884880066	pulse	0	t		52.0	2.5	/experiments/aot/R_S_ILSVRC2015_train_00756000.mp4	0.0	260.2302849292755	
54	238.97375798225403	movie	1		301	52.0	2.5	/experiments/aot/R_S_ILSVRC2015_train_00756000.mp4	0.0	260.2384240627289	2.5079729557037354
54	240.56553888320923	pulse	1	t		52.0	2.5	/experiments/aot/R_S_ILSVRC2015_train_00756000.mp4	0.0	261.8302049636841	
54	241.48173093795776	fix_post	2		12	52.0	2.5	/experiments/aot/R_S_ILSVRC2015_train_00756000.mp4	0.0	262.7463970184326	0.1003570556640625
55	241.58208799362183	fix_pre	0		120	53.0	2.5	/experiments/aot/R_S_yt-pO5SVq-9EhU_114.mp4	0.0	262.8467540740967	1.0000088214874268
55	242.165668964386	pulse	0	t		53.0	2.5	/experiments/aot/R_S_yt-pO5SVq-9EhU_114.mp4	0.0	263.43033504486084	
55	242.58209681510925	movie	1		300	53.0	2.5	/experiments/aot/R_S_yt-pO5SVq-9EhU_114.mp4	0.0	263.8467628955841	2.4998691082000732
55	243.7656319141388	pulse	1	t		53.0	2.5	/experiments/aot/R_S_yt-pO5SVq-9EhU_114.mp4	0.0	265.03029799461365	
55	245.08196592330933	fix_post	2		12	53.0	2.5	/experiments/aot/R_S_yt-pO5SVq-9EhU_114.mp4	0.0	266.3466320037842	0.10004091262817383
56	245.1820068359375	fix_pre	0		120	54.0	2.5	/experiments/aot/R_S_b3TCugtX0h0_108.mp4	0.0	266.44667291641235	1.0000810623168945
56	245.36552095413208	pulse	0	t		54.0	2.5	/experiments/aot/R_S_b3TCugtX0h0_108.mp4	0.0	266.63018703460693	
56	246.1820878982544	movie	1		299	54.0	2.5	/experiments/aot/R_S_b3TCugtX0h0_108.mp4	0.0	267.44675397872925	2.4999561309814453
56	246.96559500694275	pulse	1	t		54.0	2.5	/experiments/aot/R_S_b3TCugtX0h0_108.mp4	0.0	268.2302610874176	
56	248.56553196907043	pulse	1	t		54.0	2.5	/experiments/aot/R_S_b3TCugtX0h0_108.mp4	0.0	269.8301980495453	
56	248.68204402923584	fix_post	2		12	54.0	2.5	/experiments/aot/R_S_b3TCugtX0h0_108.mp4	0.0	269.9467101097107	0.0999608039855957
57	248.78200483322144	fix_pre	0		120	55.0	2.5	blank	1.0	270.0466709136963	1.0001270771026611
57	249.7821319103241	movie	1		300	55.0	2.5	blank	1.0	271.04679799079895	2.4999070167541504
57	250.16555786132812	pulse	1	t		55.0	2.5	blank	1.0	271.430223941803	
57	251.7655689716339	pulse	1	t		55.0	2.5	blank	1.0	273.03023505210876	
57	252.28203892707825	fix_post	2		12	55.0	2.5	blank	1.0	273.5467050075531	0.09993195533752441
58	252.38197088241577	fix_pre	0		119	56.0	2.5	/experiments/aot/R_S_yt-6aqg1P9YqR8_38.mp4	0.0	273.6466369628906	0.9917809963226318
58	253.3655309677124	pulse	0	t		56.0	2.5	/experiments/aot/R_S_yt-6aqg1P9YqR8_38.mp4	0.0	274.63019704818726	
58	253.3737518787384	movie	1		301	56.0	2.5	/experiments/aot/R_S_yt-6aqg1P9YqR8_38.mp4	0.0	274.63841795921326	2.508219003677368
58	254.96561884880066	pulse	1	t		56.0	2.5	/experiments/aot/R_S_yt-6aqg1P9YqR8_38.mp4	0.0	276.2302849292755	
58	255.88197088241577	fix_post	2		12	56.0	2.5	/experiments/aot/R_S_yt-6aqg1P9YqR8_38.mp4	0.0	277.1466369628906	0.10004901885986328
59	255.98201990127563	fix_pre	0		120	57.0	2.5	/experiments/aot/S_yt-4wYTkhggZNM_90.mp4	0.0	277.2466859817505	1.0001170635223389
59	256.5655219554901	pulse	0	t		57.0	2.5	/experiments/aot/S_yt-4wYTkhggZNM_90.mp4	0.0	277.83018803596497	
59	256.982136964798	movie	1		300	57.0	2.5	/experiments/aot/S_yt-4wYTkhggZNM_90.mp4	0.0	278.2468030452728	2.4998838901519775
59	258.1655218601227	pulse	1	t		57.0	2.5	/experiments/aot/S_yt-4wYTkhggZNM_90.mp4	0.0	279.43018794059753	
59	259.48202085494995	fix_post	2		12	57.0	2.5	/experiments/aot/S_yt-4wYTkhggZNM_90.mp4	0.0	280.7466869354248	0.09991812705993652
60	259.5819389820099	fix_pre	0		120	58.0	2.5	/experiments/aot/R_S_yt-ebzrQh5ErI4_3.mp4	0.0	280.84660506248474	0.9999630451202393
60	259.7654550075531	pulse	0	t		58.0	2.5	/experiments/aot/R_S_yt-ebzrQh5ErI4_3.mp4	0.0	281.03012108802795	
60	260.5819020271301	movie	1		300	58.0	2.5	/experiments/aot/R_S_yt-ebzrQh5ErI4_3.mp4	0.0	281.846568107605	2.499687910079956
60	261.3654408454895	pulse	1	t		58.0	2.5	/experiments/aot/R_S_yt-ebzrQh5ErI4_3.mp4	0.0	282.63010692596436	
60	262.9650948047638	pulse	1	t		58.0	2.5	/experiments/aot/R_S_yt-ebzrQh5ErI4_3.mp4	0.0	284.22976088523865	
60	263.0815899372101	fix_post	2		12	58.0	2.5	/experiments/aot/R_S_yt-ebzrQh5ErI4_3.mp4	0.0	284.34625601768494	0.10037803649902344
61	263.1819679737091	fix_pre	0		120	59.0	2.5	/experiments/aot/R_S_production_ID_3923518.mp4	0.0	284.44663405418396	0.9996390342712402
61	264.18160700798035	movie	1		160	59.0	2.5	/experiments/aot/R_S_production_ID_3923518.mp4	0.0	285.4462730884552	2.500356912612915
61	264.5650749206543	pulse	1	t		59.0	2.5	/experiments/aot/R_S_production_ID_3923518.mp4	0.0	285.82974100112915	
61	266.16582798957825	pulse	1	t		59.0	2.5	/experiments/aot/R_S_production_ID_3923518.mp4	0.0	287.4304940700531	
61	266.68196392059326	fix_post	2		12	59.0	2.5	/experiments/aot/R_S_production_ID_3923518.mp4	0.0	287.9466300010681	0.10004806518554688
62	266.7820119857788	fix_pre	0		119	60.0	2.5	/experiments/aot/S_pexels-rodnae-productions-5993671.mp4	0.0	288.04667806625366	0.9916410446166992
62	267.765419960022	pulse	0	t		60.0	2.5	/experiments/aot/S_pexels-rodnae-productions-5993671.mp4	0.0	289.0300860404968	
62	267.7736530303955	movie	1		162	60.0	2.5	/experiments/aot/S_pexels-rodnae-productions-5993671.mp4	0.0	289.03831911087036	2.5083909034729004
62	269.36545300483704	pulse	1	t		60.0	2.5	/experiments/aot/S_pexels-rodnae-productions-5993671.mp4	0.0	290.6301190853119	
62	270.2820439338684	fix_post	2		12	60.0	2.5	/experiments/aot/S_pexels-rodnae-productions-5993671.mp4	0.0	291.54671001434326	0.09991908073425293
63	270.38196301460266	fix_pre	0		120	61.0	2.5	/experiments/aot/R_S_yt-4sSV4iIs8gQ_55.mp4	0.0	291.6466290950775	0.9998989105224609
63	270.9654788970947	pulse	0	t		61.0	2.5	/experiments/aot/R_S_yt-4sSV4iIs8gQ_55.mp4	0.0	292.2301449775696	
63	271.3818619251251	movie	1		299	61.0	2.5	/experiments/aot/R_S_yt-4sSV4iIs8gQ_55.mp4	0.0	292.6465280056	2.5001039505004883
63	272.56534481048584	pulse	1	t		61.0	2.5	/experiments/aot/R_S_yt-4sSV4iIs8gQ_55.mp4	0.0	293.8300108909607	
63	273.8819658756256	fix_post	2		12	61.0	2.5	/experiments/aot/R_S_yt-4sSV4iIs8gQ_55.mp4	0.0	295.14663195610046	0.09996199607849121
64	273.9819278717041	fix_pre	0		120	62.0	2.5	blank	1.0	295.24659395217896	1.000049114227295
64	274.1654648780823	pulse	0	t		62.0	2.5	blank	1.0	295.43013095855713	
64	274.9819769859314	movie	1		300	62.0	2.5	blank	1.0	296.24664306640625	2.4999430179595947
64	275.76535201072693	pulse	1	t		62.0	2.5	blank	1.0	297.0300180912018	
64	277.3652949333191	pulse	1	t		62.0	2.5	blank	1.0	298.62996101379395	
64	277.481920003891	fix_post	2		12	62.0	2.5	blank	1.0	298.74658608436584	0.10008096694946289
65	277.58200097084045	fix_pre	0		120	63.0	2.5	/experiments/aot/R_S_yt-uSHBdUi8_V0_24.mp4	0.0	298.8466670513153	0.9998929500579834
65	278.58189392089844	movie	1		300	63.0	2.5	/experiments/aot/R_S_yt-uSHBdUi8_V0_24.mp4	0.0	299.8465600013733	2.499969005584717
65	278.9653630256653	pulse	1	t		63.0	2.5	/experiments/aot/R_S_yt-uSHBdUi8_V0_24.mp4	0.0	300.23002910614014	
65	280.5653200149536	pulse	1	t		63.0	2.5	/experiments/aot/R_S_yt-uSHBdUi8_V0_24.mp4	0.0	301.82998609542847	
65	281.08186292648315	fix_post	2		12	63.0	2.5	/experiments/aot/R_S_yt-uSHBdUi8_V0_24.mp4	0.0	302.346529006958	0.09997892379760742
66	281.18184185028076	fix_pre	0		119	64.0	2.5	/experiments/aot/R_S_ILSVRC2015_train_00756000.mp4	0.0	302.4465079307556	0.991718053817749
66	282.16551780700684	pulse	0	t		64.0	2.5	/experiments/aot/R_S_ILSVRC2015_train_00756000.mp4	0.0	303.4301838874817	
66	282.1735599040985	movie	1		301	64.0	2.5	/experiments/aot/R_S_ILSVRC2015_train_00756000.mp4	0.0	303.43822598457336	2.5083091259002686
66	283.7653889656067	pulse	1	t		64.0	2.5	/experiments/aot/R_S_ILSVRC2015_train_00756000.mp4	0.0	305.03005504608154	
66	284.6818690299988	fix_post	2		12	64.0	2.5	/experiments/aot/R_S_ILSVRC2015_train_00756000.mp4	0.0	305.94653511047363	0.09994292259216309
67	284.78181195259094	fix_pre	0		120	65.0	2.5	/experiments/aot/R_S_yt-9EnchawJ3pA_90.mp4	0.0	306.0464780330658	1.0001270771026611
67	285.3653337955475	pulse	0	t		65.0	2.5	/experiments/aot/R_S_yt-9EnchawJ3pA_90.mp4	0.0	306.62999987602234	
67	285.7819390296936	movie	1		300	65.0	2.5	/experiments/aot/R_S_yt-9EnchawJ3pA_90.mp4	0.0	307.04660511016846	2.4998159408569336
67	286.9652190208435	pulse	1	t		65.0	2.5	/experiments/aot/R_S_yt-9EnchawJ3pA_90.mp4	0.0	308.22988510131836	
67	288.28175497055054	fix_post	2		12	65.0	2.5	/experiments/aot/R_S_yt-9EnchawJ3pA_90.mp4	0.0	309.5464210510254	0.10014200210571289
68	288.38189697265625	fix_pre	0		120	66.0	2.5	/experiments/aot/R_S_yt-wEbfIR14zZ8_7.mp4	0.0	309.6465630531311	0.9999299049377441
68	288.5653839111328	pulse	0	t		66.0	2.5	/experiments/aot/R_S_yt-wEbfIR14zZ8_7.mp4	0.0	309.83004999160767	
68	289.381826877594	movie	1		299	66.0	2.5	/experiments/aot/R_S_yt-wEbfIR14zZ8_7.mp4	0.0	310.64649295806885	2.4999780654907227
68	290.16539096832275	pulse	1	t		66.0	2.5	/experiments/aot/R_S_yt-wEbfIR14zZ8_7.mp4	0.0	311.4300570487976	
68	291.76593494415283	pulse	1	t		66.0	2.5	/experiments/aot/R_S_yt-wEbfIR14zZ8_7.mp4	0.0	313.0306010246277	
68	291.8818049430847	fix_post	2		12	66.0	2.5	/experiments/aot/R_S_yt-wEbfIR14zZ8_7.mp4	0.0	313.14647102355957	0.10004186630249023
69	291.9818468093872	fix_pre	0		120	67.0	2.5	/experiments/aot/R_S_yt-Ev39pXXfr1Y_152.mp4	0.0	313.24651288986206	1.0000181198120117
69	292.9818649291992	movie	1		300	67.0	2.5	/experiments/aot/R_S_yt-Ev39pXXfr1Y_152.mp4	0.0	314.2465310096741	2.499940872192383
69	293.3653769493103	pulse	1	t		67.0	2.5	/experiments/aot/R_S_yt-Ev39pXXfr1Y_152.mp4	0.0	314.63004302978516	
69	294.96530985832214	pulse	1	t		67.0	2.5	/experiments/aot/R_S_yt-Ev39pXXfr1Y_152.mp4	0.0	316.229975938797	
69	295.4818058013916	fix_post	2		12	67.0	2.5	/experiments/aot/R_S_yt-Ev39pXXfr1Y_152.mp4	0.0	316.74647188186646	0.0999910831451416
70	295.58179688453674	fix_pre	0		119	68.0	2.5	blank	1.0	316.8464629650116	0.9916141033172607
70	296.56523990631104	pulse	0	t		68.0	2.5	blank	1.0	317.8299059867859	
70	296.573410987854	movie	1		301	68.0	2.5	blank	1.0	317.83807706832886	2.508373975753784
70	298.1653230190277	pulse	1	t		68.0	2.5	blank	1.0	319.42998909950256	
70	299.0817849636078	fix_post	2		12	68.0	2.5	blank	1.0	320.34645104408264	0.10013890266418457
71	299.181923866272	fix_pre	0		120	69.0	2.5	/experiments/aot/S_production_ID_3944248.mp4	0.0	320.4465899467468	0.9999420642852783
71	299.7653148174286	pulse	0	t		69.0	2.5	/experiments/aot/S_production_ID_3944248.mp4	0.0	321.02998089790344	
71	300.18186593055725	movie	1		162	69.0	2.5	/experiments/aot/S_production_ID_3944248.mp4	0.0	321.4465320110321	2.5002119541168213
71	301.3737299442291	pulse	1	t		69.0	2.5	/experiments/aot/S_production_ID_3944248.mp4	0.0	322.638396024704	
71	302.6820778846741	fix_post	2		12	69.0	2.5	/experiments/aot/S_production_ID_3944248.mp4	0.0	323.9467439651489	0.09977006912231445
72	302.7818479537964	fix_pre	0		120	70.0	2.5	/experiments/aot/R_S_yt-EvKV7iY1_HM_193.mp4	0.0	324.04651403427124	1.0000109672546387
72	302.96530985832214	pulse	0	t		70.0	2.5	/experiments/aot/R_S_yt-EvKV7iY1_HM_193.mp4	0.0	324.229975938797	
72	303.781858921051	movie	1		300	70.0	2.5	/experiments/aot/R_S_yt-EvKV7iY1_HM_193.mp4	0.0	325.0465250015259	2.499871015548706
72	304.56527400016785	pulse	1	t		70.0	2.5	/experiments/aot/R_S_yt-EvKV7iY1_HM_193.mp4	0.0	325.8299400806427	
72	306.1653130054474	pulse	1	t		70.0	2.5	/experiments/aot/R_S_yt-EvKV7iY1_HM_193.mp4	0.0	327.42997908592224	
72	306.28172993659973	fix_post	2		12	70.0	2.5	/experiments/aot/R_S_yt-EvKV7iY1_HM_193.mp4	0.0	327.5463960170746	0.09998893737792969
73	306.38171887397766	fix_pre	0		120	71.0	2.5	/experiments/aot/R_S_yt-ejSzwn8tY8g_49.mp4	0.0	327.6463849544525	1.0000550746917725
73	307.38177394866943	movie	1		299	71.0	2.5	/experiments/aot/R_S_yt-ejSzwn8tY8g_49.mp4	0.0	328.6464400291443	2.5000200271606445
73	307.7652518749237	pulse	1	t		71.0	2.5	/experiments/aot/R_S_yt-ejSzwn8tY8g_49.mp4	0.0	329.02991795539856	
73	309.365238904953	pulse	1	t		71.0	2.5	/experiments/aot/R_S_yt-ejSzwn8tY8g_49.mp4	0.0	330.62990498542786	
73	309.8817939758301	fix_post	2		12	71.0	2.5	/experiments/aot/R_S_yt-ejSzwn8tY8g_49.mp4	0.0	331.14646005630493	0.09987497329711914
74	309.9816689491272	fix_pre	0		119	72.0	2.5	/experiments/aot/R_S_yt-zam74qlzGtQ_122.mp4	0.0	331.24633502960205	0.9917569160461426
74	310.9652109146118	pulse	0	t		72.0	2.5	/experiments/aot/R_S_yt-zam74qlzGtQ_122.mp4	0.0	332.22987699508667	
74	310.97342586517334	movie	1		301	72.0	2.5	/experiments/aot/R_S_yt-zam74qlzGtQ_122.mp4	0.0	332.2380919456482	2.508350133895874
74	312.56521487236023	pulse	1	t		72.0	2.5	/experiments/aot/R_S_yt-zam74qlzGtQ_122.mp4	0.0	333.8298809528351	
74	313.4817759990692	fix_post	2		12	72.0	2.5	/experiments/aot/R_S_yt-zam74qlzGtQ_122.mp4	0.0	334.74644207954407	0.09998393058776855
75	313.581759929657	fix_pre	0		120	73.0	2.5	/experiments/aot/R_S_yt--5ls65Ue1RA_52.mp4	0.0	334.84642601013184	0.9999840259552002
75	314.16524481773376	pulse	0	t		73.0	2.5	/experiments/aot/R_S_yt--5ls65Ue1RA_52.mp4	0.0	335.4299108982086	
75	314.5817439556122	movie	1		300	73.0	2.5	/experiments/aot/R_S_yt--5ls65Ue1RA_52.mp4	0.0	335.84641003608704	2.5000219345092773
75	315.76520681381226	pulse	1	t		73.0	2.5	/experiments/aot/R_S_yt--5ls65Ue1RA_52.mp4	0.0	337.0298728942871	
75	317.08176589012146	fix_post	2		12	73.0	2.5	/experiments/aot/R_S_yt--5ls65Ue1RA_52.mp4	0.0	338.3464319705963	0.09952712059020996
76	317.18129301071167	fix_pre	0		120	74.0	2.5	/experiments/aot/S_comp_DB_D002_C003_PSNK_v04_SDR_PS_20180914_SDR_2K_AVC.mp4	0.0	338.4459590911865	1.0004708766937256
76	317.36539483070374	pulse	0	t		74.0	2.5	/experiments/aot/S_comp_DB_D002_C003_PSNK_v04_SDR_PS_20180914_SDR_2K_AVC.mp4	0.0	338.6300609111786	
76	318.1817638874054	movie	1		169	74.0	2.5	/experiments/aot/S_comp_DB_D002_C003_PSNK_v04_SDR_PS_20180914_SDR_2K_AVC.mp4	0.0	339.44642996788025	2.499606132507324
76	318.96525382995605	pulse	1	t		74.0	2.5	/experiments/aot/S_comp_DB_D002_C003_PSNK_v04_SDR_PS_20180914_SDR_2K_AVC.mp4	0.0	340.2299199104309	
76	320.5653269290924	pulse	1	t		74.0	2.5	/experiments/aot/S_comp_DB_D002_C003_PSNK_v04_SDR_PS_20180914_SDR_2K_AVC.mp4	0.0	341.82999300956726	
76	320.6813700199127	fix_post	2		12	74.0	2.5	/experiments/aot/S_comp_DB_D002_C003_PSNK_v04_SDR_PS_20180914_SDR_2K_AVC.mp4	0.0	341.9460361003876	0.10044693946838379
77	320.7818169593811	fix_pre	0		120	75.0	2.5	/experiments/aot/R_S_yt-VjTiMtjdjTw_103.mp4	0.0	342.04648303985596	0.9997360706329346
77	321.78155303001404	movie	1		300	75.0	2.5	/experiments/aot/R_S_yt-VjTiMtjdjTw_103.mp4	0.0	343.0462191104889	2.500173807144165
77	322.16520595550537	pulse	1	t		75.0	2.5	/experiments/aot/R_S_yt-VjTiMtjdjTw_103.mp4	0.0	343.4298720359802	
77	323.7651278972626	pulse	1	t		75.0	2.5	/experiments/aot/R_S_yt-VjTiMtjdjTw_103.mp4	0.0	345.0297939777374	
77	324.2817268371582	fix_post	2		12	75.0	2.5	/experiments/aot/R_S_yt-VjTiMtjdjTw_103.mp4	0.0	345.54639291763306	0.10000109672546387
78	324.38172793388367	fix_pre	0		119	76.0	2.5	/experiments/aot/S_yt-RlHmMGUjT9E_130.mp4	0.0	345.6463940143585	0.9915869235992432
78	325.3652138710022	pulse	0	t		76.0	2.5	/experiments/aot/S_yt-RlHmMGUjT9E_130.mp4	0.0	346.62987995147705	
78	325.3733148574829	movie	1		301	76.0	2.5	/experiments/aot/S_yt-RlHmMGUjT9E_130.mp4	0.0	346.63798093795776	2.508289098739624
78	326.96519684791565	pulse	1	t		76.0	2.5	/experiments/aot/S_yt-RlHmMGUjT9E_130.mp4	0.0	348.2298629283905	
78	327.88160395622253	fix_post	2		12	76.0	2.5	/experiments/aot/S_yt-RlHmMGUjT9E_130.mp4	0.0	349.1462700366974	0.10003304481506348
79	327.9816370010376	fix_pre	0		120	77.0	2.5	blank	1.0	349.24630308151245	0.999992847442627
79	328.5651228427887	pulse	0	t		77.0	2.5	blank	1.0	349.82978892326355	
79	328.9816298484802	movie	1		300	77.0	2.5	blank	1.0	350.2462959289551	2.500023126602173
79	330.16602301597595	pulse	1	t		77.0	2.5	blank	1.0	351.4306890964508	
79	331.4816529750824	fix_post	2		12	77.0	2.5	blank	1.0	352.74631905555725	0.09996294975280762
80	331.5816159248352	fix_pre	0		120	78.0	2.5	/experiments/aot/S_yt-6MwA-jx56AQ_612.mp4	0.0	352.84628200531006	1.0000689029693604
80	331.765095949173	pulse	0	t		78.0	2.5	/experiments/aot/S_yt-6MwA-jx56AQ_612.mp4	0.0	353.0297620296478	
80	332.58168482780457	movie	1		300	78.0	2.5	/experiments/aot/S_yt-6MwA-jx56AQ_612.mp4	0.0	353.8463509082794	2.4999120235443115
80	333.36519479751587	pulse	1	t		78.0	2.5	/experiments/aot/S_yt-6MwA-jx56AQ_612.mp4	0.0	354.6298608779907	
80	334.96554493904114	pulse	1	t		78.0	2.5	/experiments/aot/S_yt-6MwA-jx56AQ_612.mp4	0.0	356.230211019516	
80	335.0815968513489	fix_post	2		12	78.0	2.5	/experiments/aot/S_yt-6MwA-jx56AQ_612.mp4	0.0	356.34626293182373	0.10000300407409668
81	335.181599855423	fix_pre	0		120	79.0	2.5	/experiments/aot/S_yt-7lULOC_rSE0_747.mp4	0.0	356.4462659358978	1.000046968460083
81	336.18164682388306	movie	1		300	79.0	2.5	/experiments/aot/S_yt-7lULOC_rSE0_747.mp4	0.0	357.4463129043579	2.499967098236084
81	336.56505393981934	pulse	1	t		79.0	2.5	/experiments/aot/S_yt-7lULOC_rSE0_747.mp4	0.0	357.8297200202942	
81	338.16507387161255	pulse	1	t		79.0	2.5	/experiments/aot/S_yt-7lULOC_rSE0_747.mp4	0.0	359.4297399520874	
81	338.68161392211914	fix_post	2		12	79.0	2.5	/experiments/aot/S_yt-7lULOC_rSE0_747.mp4	0.0	359.946280002594	0.10000300407409668
82	338.78161692619324	fix_pre	0		119	80.0	2.5	/experiments/aot/S_Pexels_Videos_278654_1.mp4	0.0	360.0462830066681	0.9916539192199707
82	339.7650508880615	pulse	0	t		80.0	2.5	/experiments/aot/S_Pexels_Videos_278654_1.mp4	0.0	361.0297169685364	
82	339.7732708454132	movie	1		167	80.0	2.5	/experiments/aot/S_Pexels_Videos_278654_1.mp4	0.0	361.03793692588806	2.5083160400390625
82	341.3648419380188	pulse	1	t		80.0	2.5	/experiments/aot/S_Pexels_Videos_278654_1.mp4	0.0	362.62950801849365	
82	342.28158688545227	fix_post	2		12	80.0	2.5	/experiments/aot/S_Pexels_Videos_278654_1.mp4	0.0	363.5462529659271	0.09998703002929688
83	342.38157391548157	fix_pre	0		120	81.0	2.5	/experiments/aot/S_production_ID_5139371.mp4	0.0	363.6462399959564	0.9999830722808838
83	342.965176820755	pulse	0	t		81.0	2.5	/experiments/aot/S_production_ID_5139371.mp4	0.0	364.22984290122986	
83	343.38155698776245	movie	1		162	81.0	2.5	/experiments/aot/S_production_ID_5139371.mp4	0.0	364.6462230682373	2.5000529289245605
83	344.5650279521942	pulse	1	t		81.0	2.5	/experiments/aot/S_production_ID_5139371.mp4	0.0	365.82969403266907	
83	345.881609916687	fix_post	2		12	81.0	2.5	/experiments/aot/S_production_ID_5139371.mp4	0.0	367.14627599716187	0.0999441146850586
84	345.98155403137207	fix_pre	0		120	82.0	2.5	/experiments/aot/S_yt-9EnchawJ3pA_90.mp4	0.0	367.2462201118469	0.9999628067016602
84	346.16590785980225	pulse	0	t		82.0	2.5	/experiments/aot/S_yt-9EnchawJ3pA_90.mp4	0.0	367.4305739402771	
84	346.98151683807373	movie	1		299	82.0	2.5	/experiments/aot/S_yt-9EnchawJ3pA_90.mp4	0.0	368.2461829185486	2.5000481605529785
84	347.7650668621063	pulse	1	t		82.0	2.5	/experiments/aot/S_yt-9EnchawJ3pA_90.mp4	0.0	369.0297329425812	
84	349.36526894569397	pulse	1	t		82.0	2.5	/experiments/aot/S_yt-9EnchawJ3pA_90.mp4	0.0	370.6299350261688	
84	349.4815649986267	fix_post	2		12	82.0	2.5	/experiments/aot/S_yt-9EnchawJ3pA_90.mp4	0.0	370.74623107910156	0.10007381439208984
85	349.5816388130188	fix_pre	0		120	83.0	2.5	blank	1.0	370.84630489349365	0.9998900890350342
85	350.58152890205383	movie	1		300	83.0	2.5	blank	1.0	371.8461949825287	2.499969959259033
85	350.9652009010315	pulse	1	t		83.0	2.5	blank	1.0	372.22986698150635	
85	352.5649960041046	pulse	1	t		83.0	2.5	blank	1.0	373.82966208457947	
85	353.08149886131287	fix_post	2		12	83.0	2.5	blank	1.0	374.3461649417877	0.10006308555603027
87	353.1815619468689	stim	0		1716					374.44622802734375	14.299983024597168
87	354.1651120185852	pulse	0	t						375.42977809906006	
87	355.76505494117737	pulse	0	t						377.0297210216522	
87	357.36498498916626	pulse	0	t						378.6296510696411	
87	358.9649758338928	pulse	0	t						380.2296419143677	
87	360.56494092941284	pulse	0	t						381.8296070098877	
87	362.1658308506012	pulse	0	t						383.43049693107605	
87	363.76506090164185	pulse	0	t						385.0297269821167	
87	365.36495780944824	pulse	0	t						386.6296238899231	
87	366.96500301361084	pulse	0	t						388.2296690940857	
