trial_nr	onset	event_type	phase	response	nr_frames	movie_index	movie_duration	movie_file	blank	onset_abs	duration
0	0.16646456718444824	stim	0		10					18.10818123817444	0.08319830894470215
0	0.24152660369873047	response	0	space						18.18324327468872	
1	0.2496628761291504	stim	0		4897					18.19137954711914	40.82591390609741
1	41.065531969070435	pulse	0	t						59.007248640060425	
1	41.07557678222656	stim	1		1716					59.01729345321655	14.307403087615967
1	42.65626788139343	pulse	1	t						60.59798455238342	
1	44.2565131187439	pulse	1	t						62.19822978973389	
1	45.85672092437744	pulse	1	t						63.79843759536743	
1	47.45706582069397	pulse	1	t						65.39878249168396	
1	49.057169914245605	pulse	1	t						66.9988865852356	
1	50.657487869262695	pulse	1	t						68.59920454025269	
1	52.250367164611816	pulse	1	t						70.1920838356018	
1	53.8502094745636	pulse	1	t						71.79192614555359	
2	55.38297986984253	fix_pre	0		9	0.0	2.5	/experiments/knapen_AOT/AOT_stimuli/rescaled_final/0303_fw.mp4	0.0	73.32469654083252	0.10840010643005371
2	55.450026750564575	pulse	0	t		0.0	2.5	/experiments/knapen_AOT/AOT_stimuli/rescaled_final/0303_fw.mp4	0.0	73.39174342155457	
2	55.49137997627258	movie	1		279	0.0	2.5	/experiments/knapen_AOT/AOT_stimuli/rescaled_final/0303_fw.mp4	0.0	73.43309664726257	2.4755473136901855
2	57.0501983165741	pulse	1	t		0.0	2.5	/experiments/knapen_AOT/AOT_stimuli/rescaled_final/0303_fw.mp4	0.0	74.99191498756409	
2	57.96692728996277	fix_post	2		12	0.0	2.5	/experiments/knapen_AOT/AOT_stimuli/rescaled_final/0303_fw.mp4	0.0	75.90864396095276	0.0997922420501709
3	58.06671953201294	fix_pre	0		120	1.0	2.5	/experiments/knapen_AOT/AOT_stimuli/rescaled_final/2135_rv.mp4	0.0	76.00843620300293	1.0085923671722412
3	58.650322914123535	pulse	0	t		1.0	2.5	/experiments/knapen_AOT/AOT_stimuli/rescaled_final/2135_rv.mp4	0.0	76.59203958511353	
3	59.07531189918518	movie	1		282	1.0	2.5	/experiments/knapen_AOT/AOT_stimuli/rescaled_final/2135_rv.mp4	0.0	77.01702857017517	2.4919841289520264
3	60.250576972961426	pulse	1	t		1.0	2.5	/experiments/knapen_AOT/AOT_stimuli/rescaled_final/2135_rv.mp4	0.0	78.19229364395142	
3	61.56729602813721	fix_post	2		12	1.0	2.5	/experiments/knapen_AOT/AOT_stimuli/rescaled_final/2135_rv.mp4	0.0	79.5090126991272	0.09998822212219238
4	61.6672842502594	fix_pre	0		120	2.0	2.5	/experiments/knapen_AOT/AOT_stimuli/rescaled_final/1835_fw.mp4	0.0	79.60900092124939	1.008458137512207
4	61.8509259223938	pulse	0	t		2.0	2.5	/experiments/knapen_AOT/AOT_stimuli/rescaled_final/1835_fw.mp4	0.0	79.79264259338379	
4	62.675742387771606	movie	1		277	2.0	2.5	/experiments/knapen_AOT/AOT_stimuli/rescaled_final/1835_fw.mp4	0.0	80.6174590587616	2.4922842979431152
4	63.450008153915405	pulse	1	t		2.0	2.5	/experiments/knapen_AOT/AOT_stimuli/rescaled_final/1835_fw.mp4	0.0	81.3917248249054	
4	65.05128931999207	pulse	1	t		2.0	2.5	/experiments/knapen_AOT/AOT_stimuli/rescaled_final/1835_fw.mp4	0.0	82.99300599098206	
4	65.16802668571472	fix_post	2		12	2.0	2.5	/experiments/knapen_AOT/AOT_stimuli/rescaled_final/1835_fw.mp4	0.0	83.10974335670471	0.09975457191467285
5	65.2677812576294	fix_pre	0		120	3.0	2.5	/experiments/knapen_AOT/AOT_stimuli/rescaled_final/1952_rv.mp4	0.0	83.20949792861938	1.0086345672607422
5	66.27641582489014	movie	1		285	3.0	2.5	/experiments/knapen_AOT/AOT_stimuli/rescaled_final/1952_rv.mp4	0.0	84.21813249588013	2.492100477218628
5	66.65204119682312	pulse	1	t		3.0	2.5	/experiments/knapen_AOT/AOT_stimuli/rescaled_final/1952_rv.mp4	0.0	84.59375786781311	
5	68.25171256065369	pulse	1	t		3.0	2.5	/experiments/knapen_AOT/AOT_stimuli/rescaled_final/1952_rv.mp4	0.0	86.19342923164368	
5	68.76851630210876	fix_post	2		12	3.0	2.5	/experiments/knapen_AOT/AOT_stimuli/rescaled_final/1952_rv.mp4	0.0	86.71023297309875	0.09983992576599121
6	68.86835622787476	fix_pre	0		119	4.0	2.5	/experiments/knapen_AOT/AOT_stimuli/rescaled_final/0991_rv.mp4	0.0	86.81007289886475	1.0003929138183594
6	69.85204696655273	pulse	0	t		4.0	2.5	/experiments/knapen_AOT/AOT_stimuli/rescaled_final/0991_rv.mp4	0.0	87.79376363754272	
6	69.86874914169312	movie	1		280	4.0	2.5	/experiments/knapen_AOT/AOT_stimuli/rescaled_final/0991_rv.mp4	0.0	87.8104658126831	2.500396251678467
6	71.45070004463196	pulse	1	t		4.0	2.5	/experiments/knapen_AOT/AOT_stimuli/rescaled_final/0991_rv.mp4	0.0	89.39241671562195	
6	72.36914539337158	fix_post	2		12	4.0	2.5	/experiments/knapen_AOT/AOT_stimuli/rescaled_final/0991_rv.mp4	0.0	90.31086206436157	0.09982585906982422
7	72.4689712524414	fix_pre	0		120	5.0	2.5	/experiments/knapen_AOT/AOT_stimuli/rescaled_final/0612_rv.mp4	0.0	90.4106879234314	1.0085680484771729
7	73.05247855186462	pulse	0	t		5.0	2.5	/experiments/knapen_AOT/AOT_stimuli/rescaled_final/0612_rv.mp4	0.0	90.99419522285461	
7	73.47753930091858	movie	1		274	5.0	2.5	/experiments/knapen_AOT/AOT_stimuli/rescaled_final/0612_rv.mp4	0.0	91.41925597190857	2.4919745922088623
7	74.65290331840515	pulse	1	t		5.0	2.5	/experiments/knapen_AOT/AOT_stimuli/rescaled_final/0612_rv.mp4	0.0	92.59461998939514	
7	75.96951389312744	fix_post	2		12	5.0	2.5	/experiments/knapen_AOT/AOT_stimuli/rescaled_final/0612_rv.mp4	0.0	93.91123056411743	0.10009336471557617
8	76.06960725784302	fix_pre	0		120	6.0	2.5	blank	1.0	94.01132392883301	0.9999444484710693
8	76.25318479537964	pulse	0	t		6.0	2.5	blank	1.0	94.19490146636963	
8	77.06955170631409	movie	1		300	6.0	2.5	blank	1.0	95.01126837730408	2.5003957748413086
8	77.8532452583313	pulse	1	t		6.0	2.5	blank	1.0	95.79496192932129	
8	79.45341062545776	pulse	1	t		6.0	2.5	blank	1.0	97.39512729644775	
8	79.5699474811554	fix_post	2		12	6.0	2.5	blank	1.0	97.51166415214539	0.10002446174621582
9	79.66997194290161	fix_pre	0		120	7.0	2.5	/experiments/knapen_AOT/AOT_stimuli/rescaled_final/1515_fw.mp4	0.0	97.6116886138916	1.0086219310760498
9	80.67859387397766	movie	1		258	7.0	2.5	/experiments/knapen_AOT/AOT_stimuli/rescaled_final/1515_fw.mp4	0.0	98.62031054496765	2.492055654525757
9	81.05199074745178	pulse	1	t		7.0	2.5	/experiments/knapen_AOT/AOT_stimuli/rescaled_final/1515_fw.mp4	0.0	98.99370741844177	
9	82.65351438522339	pulse	1	t		7.0	2.5	/experiments/knapen_AOT/AOT_stimuli/rescaled_final/1515_fw.mp4	0.0	100.59523105621338	
9	83.17064952850342	fix_post	2		12	7.0	2.5	/experiments/knapen_AOT/AOT_stimuli/rescaled_final/1515_fw.mp4	0.0	101.11236619949341	0.09989786148071289
10	83.27054738998413	fix_pre	0		119	8.0	2.5	/experiments/knapen_AOT/AOT_stimuli/rescaled_final/1183_fw.mp4	0.0	101.21226406097412	1.0001235008239746
10	84.2542052268982	pulse	0	t		8.0	2.5	/experiments/knapen_AOT/AOT_stimuli/rescaled_final/1183_fw.mp4	0.0	102.19592189788818	
10	84.2706708908081	movie	1		282	8.0	2.5	/experiments/knapen_AOT/AOT_stimuli/rescaled_final/1183_fw.mp4	0.0	102.2123875617981	2.500401735305786
10	85.85255289077759	pulse	1	t		8.0	2.5	/experiments/knapen_AOT/AOT_stimuli/rescaled_final/1183_fw.mp4	0.0	103.79426956176758	
10	86.77107262611389	fix_post	2		12	8.0	2.5	/experiments/knapen_AOT/AOT_stimuli/rescaled_final/1183_fw.mp4	0.0	104.71278929710388	0.09996867179870605
11	86.8710412979126	fix_pre	0		120	9.0	2.5	/experiments/knapen_AOT/AOT_stimuli/rescaled_final/0547_rv.mp4	0.0	104.81275796890259	1.0084805488586426
11	87.45471334457397	pulse	0	t		9.0	2.5	/experiments/knapen_AOT/AOT_stimuli/rescaled_final/0547_rv.mp4	0.0	105.39643001556396	
11	87.87952184677124	movie	1		281	9.0	2.5	/experiments/knapen_AOT/AOT_stimuli/rescaled_final/0547_rv.mp4	0.0	105.82123851776123	2.4920544624328613
11	89.0557746887207	pulse	1	t		9.0	2.5	/experiments/knapen_AOT/AOT_stimuli/rescaled_final/0547_rv.mp4	0.0	106.9974913597107	
11	90.3715763092041	fix_post	2		12	9.0	2.5	/experiments/knapen_AOT/AOT_stimuli/rescaled_final/0547_rv.mp4	0.0	108.31329298019409	0.10000157356262207
12	90.47157788276672	fix_pre	0		120	10.0	2.5	/experiments/knapen_AOT/AOT_stimuli/rescaled_final/1957_rv.mp4	0.0	108.41329455375671	1.0085160732269287
12	90.65515637397766	pulse	0	t		10.0	2.5	/experiments/knapen_AOT/AOT_stimuli/rescaled_final/1957_rv.mp4	0.0	108.59687304496765	
12	91.48009395599365	movie	1		284	10.0	2.5	/experiments/knapen_AOT/AOT_stimuli/rescaled_final/1957_rv.mp4	0.0	109.42181062698364	2.492015838623047
12	92.25312328338623	pulse	1	t		10.0	2.5	/experiments/knapen_AOT/AOT_stimuli/rescaled_final/1957_rv.mp4	0.0	110.19483995437622	
12	93.85446310043335	pulse	1	t		10.0	2.5	/experiments/knapen_AOT/AOT_stimuli/rescaled_final/1957_rv.mp4	0.0	111.79617977142334	
12	93.9721097946167	fix_post	2		12	10.0	2.5	/experiments/knapen_AOT/AOT_stimuli/rescaled_final/1957_rv.mp4	0.0	111.91382646560669	0.10001230239868164
13	94.07212209701538	fix_pre	0		120	11.0	2.5	/experiments/knapen_AOT/AOT_stimuli/rescaled_final/1515_rv.mp4	0.0	112.01383876800537	1.0085077285766602
13	95.08062982559204	movie	1		277	11.0	2.5	/experiments/knapen_AOT/AOT_stimuli/rescaled_final/1515_rv.mp4	0.0	113.02234649658203	2.4924468994140625
13	95.45440340042114	pulse	1	t		11.0	2.5	/experiments/knapen_AOT/AOT_stimuli/rescaled_final/1515_rv.mp4	0.0	113.39612007141113	
13	97.05398058891296	pulse	1	t		11.0	2.5	/experiments/knapen_AOT/AOT_stimuli/rescaled_final/1515_rv.mp4	0.0	114.99569725990295	
13	97.5730767250061	fix_post	2		12	11.0	2.5	/experiments/knapen_AOT/AOT_stimuli/rescaled_final/1515_rv.mp4	0.0	115.5147933959961	0.09974145889282227
14	97.67281818389893	fix_pre	0		119	12.0	2.5	/experiments/knapen_AOT/AOT_stimuli/rescaled_final/0589_rv.mp4	0.0	115.61453485488892	1.0000176429748535
14	98.65637969970703	pulse	0	t		12.0	2.5	/experiments/knapen_AOT/AOT_stimuli/rescaled_final/0589_rv.mp4	0.0	116.59809637069702	
14	98.67283582687378	movie	1		289	12.0	2.5	/experiments/knapen_AOT/AOT_stimuli/rescaled_final/0589_rv.mp4	0.0	116.61455249786377	2.5006229877471924
14	100.25489020347595	pulse	1	t		12.0	2.5	/experiments/knapen_AOT/AOT_stimuli/rescaled_final/0589_rv.mp4	0.0	118.19660687446594	
14	101.17345881462097	fix_post	2		12	12.0	2.5	/experiments/knapen_AOT/AOT_stimuli/rescaled_final/0589_rv.mp4	0.0	119.11517548561096	0.09974098205566406
15	101.27319979667664	fix_pre	0		120	13.0	2.5	blank	1.0	119.21491646766663	1.000154972076416
15	101.8568217754364	pulse	0	t		13.0	2.5	blank	1.0	119.79853844642639	
15	102.27335476875305	movie	1		300	13.0	2.5	blank	1.0	120.21507143974304	2.5004355907440186
15	103.45014643669128	pulse	1	t		13.0	2.5	blank	1.0	121.39186310768127	
15	104.77379035949707	fix_post	2		12	13.0	2.5	blank	1.0	122.71550703048706	0.0999603271484375
16	104.87375068664551	fix_pre	0		120	14.0	2.5	/experiments/knapen_AOT/AOT_stimuli/rescaled_final/0095_fw.mp4	0.0	122.8154673576355	1.0084645748138428
16	105.04973673820496	pulse	0	t		14.0	2.5	/experiments/knapen_AOT/AOT_stimuli/rescaled_final/0095_fw.mp4	0.0	122.99145340919495	
16	105.88221526145935	movie	1		267	14.0	2.5	/experiments/knapen_AOT/AOT_stimuli/rescaled_final/0095_fw.mp4	0.0	123.82393193244934	2.4922103881835938
16	106.64948463439941	pulse	1	t		14.0	2.5	/experiments/knapen_AOT/AOT_stimuli/rescaled_final/0095_fw.mp4	0.0	124.5912013053894	
16	108.24966144561768	pulse	1	t		14.0	2.5	/experiments/knapen_AOT/AOT_stimuli/rescaled_final/0095_fw.mp4	0.0	126.19137811660767	
16	108.37442564964294	fix_post	2		12	14.0	2.5	/experiments/knapen_AOT/AOT_stimuli/rescaled_final/0095_fw.mp4	0.0	126.31614232063293	0.09994840621948242
17	108.47437405586243	fix_pre	0		120	15.0	2.5	/experiments/knapen_AOT/AOT_stimuli/rescaled_final/0166_fw.mp4	0.0	126.41609072685242	1.0084831714630127
17	109.48285722732544	movie	1		263	15.0	2.5	/experiments/knapen_AOT/AOT_stimuli/rescaled_final/0166_fw.mp4	0.0	127.42457389831543	2.4923481941223145
17	109.85020422935486	pulse	1	t		15.0	2.5	/experiments/knapen_AOT/AOT_stimuli/rescaled_final/0166_fw.mp4	0.0	127.79192090034485	
17	111.45018029212952	pulse	1	t		15.0	2.5	/experiments/knapen_AOT/AOT_stimuli/rescaled_final/0166_fw.mp4	0.0	129.3918969631195	
17	111.97520542144775	fix_post	2		12	15.0	2.5	/experiments/knapen_AOT/AOT_stimuli/rescaled_final/0166_fw.mp4	0.0	129.91692209243774	0.0998239517211914
18	112.07502937316895	fix_pre	0		118	16.0	2.5	/experiments/knapen_AOT/AOT_stimuli/rescaled_final/0581_rv.mp4	0.0	130.01674604415894	0.9916441440582275
18	113.05038738250732	pulse	0	t		16.0	2.5	/experiments/knapen_AOT/AOT_stimuli/rescaled_final/0581_rv.mp4	0.0	130.99210405349731	
18	113.06667351722717	movie	1		286	16.0	2.5	/experiments/knapen_AOT/AOT_stimuli/rescaled_final/0581_rv.mp4	0.0	131.00839018821716	2.5006415843963623
18	114.650470495224	pulse	1	t		16.0	2.5	/experiments/knapen_AOT/AOT_stimuli/rescaled_final/0581_rv.mp4	0.0	132.592187166214	
18	115.56731510162354	fix_post	2		12	16.0	2.5	/experiments/knapen_AOT/AOT_stimuli/rescaled_final/0581_rv.mp4	0.0	133.50903177261353	0.099945068359375
19	115.66726016998291	fix_pre	0		120	17.0	2.5	/experiments/knapen_AOT/AOT_stimuli/rescaled_final/0152_rv.mp4	0.0	133.6089768409729	1.0083484649658203
19	116.25096225738525	pulse	0	t		17.0	2.5	/experiments/knapen_AOT/AOT_stimuli/rescaled_final/0152_rv.mp4	0.0	134.19267892837524	
19	116.67560863494873	movie	1		281	17.0	2.5	/experiments/knapen_AOT/AOT_stimuli/rescaled_final/0152_rv.mp4	0.0	134.61732530593872	2.4921414852142334
19	117.85105443000793	pulse	1	t		17.0	2.5	/experiments/knapen_AOT/AOT_stimuli/rescaled_final/0152_rv.mp4	0.0	135.79277110099792	
19	119.16775012016296	fix_post	2		12	17.0	2.5	/experiments/knapen_AOT/AOT_stimuli/rescaled_final/0152_rv.mp4	0.0	137.10946679115295	0.10021352767944336
20	119.26796364784241	fix_pre	0		120	18.0	2.5	/experiments/knapen_AOT/AOT_stimuli/rescaled_final/0608_fw.mp4	0.0	137.2096803188324	1.0082862377166748
20	119.45136713981628	pulse	0	t		18.0	2.5	/experiments/knapen_AOT/AOT_stimuli/rescaled_final/0608_fw.mp4	0.0	137.39308381080627	
20	120.27624988555908	movie	1		276	18.0	2.5	/experiments/knapen_AOT/AOT_stimuli/rescaled_final/0608_fw.mp4	0.0	138.21796655654907	2.500216007232666
20	121.04952645301819	pulse	1	t		18.0	2.5	/experiments/knapen_AOT/AOT_stimuli/rescaled_final/0608_fw.mp4	0.0	138.99124312400818	
20	122.64949893951416	pulse	1	t		18.0	2.5	/experiments/knapen_AOT/AOT_stimuli/rescaled_final/0608_fw.mp4	0.0	140.59121561050415	
20	122.77646589279175	fix_post	2		11	18.0	2.5	/experiments/knapen_AOT/AOT_stimuli/rescaled_final/0608_fw.mp4	0.0	140.71818256378174	0.09165048599243164
21	122.86811637878418	fix_pre	0		120	19.0	2.5	/experiments/knapen_AOT/AOT_stimuli/rescaled_final/0210_rv.mp4	0.0	140.80983304977417	1.0086736679077148
21	123.8767900466919	movie	1		268	19.0	2.5	/experiments/knapen_AOT/AOT_stimuli/rescaled_final/0210_rv.mp4	0.0	141.81850671768188	2.4920544624328613
21	124.25011658668518	pulse	1	t		19.0	2.5	/experiments/knapen_AOT/AOT_stimuli/rescaled_final/0210_rv.mp4	0.0	142.19183325767517	
21	125.84992957115173	pulse	1	t		19.0	2.5	/experiments/knapen_AOT/AOT_stimuli/rescaled_final/0210_rv.mp4	0.0	143.79164624214172	
21	126.36884450912476	fix_post	2		12	19.0	2.5	/experiments/knapen_AOT/AOT_stimuli/rescaled_final/0210_rv.mp4	0.0	144.31056118011475	0.09985041618347168
22	126.46869492530823	fix_pre	0		119	20.0	2.5	blank	1.0	144.41041159629822	0.9917740821838379
22	127.4523286819458	pulse	0	t		20.0	2.5	blank	1.0	145.3940453529358	
22	127.46046900749207	movie	1		301	20.0	2.5	blank	1.0	145.40218567848206	2.5087130069732666
22	129.05257153511047	pulse	1	t		20.0	2.5	blank	1.0	146.99428820610046	
22	129.96918201446533	fix_post	2		12	20.0	2.5	blank	1.0	147.91089868545532	0.1000375747680664
23	130.0692195892334	fix_pre	0		120	21.0	2.5	/experiments/knapen_AOT/AOT_stimuli/rescaled_final/0423_fw.mp4	0.0	148.0109362602234	1.0084669589996338
23	130.65287351608276	pulse	0	t		21.0	2.5	/experiments/knapen_AOT/AOT_stimuli/rescaled_final/0423_fw.mp4	0.0	148.59459018707275	
23	131.07768654823303	movie	1		272	21.0	2.5	/experiments/knapen_AOT/AOT_stimuli/rescaled_final/0423_fw.mp4	0.0	149.01940321922302	2.492161989212036
23	132.25095081329346	pulse	1	t		21.0	2.5	/experiments/knapen_AOT/AOT_stimuli/rescaled_final/0423_fw.mp4	0.0	150.19266748428345	
23	133.56984853744507	fix_post	2		12	21.0	2.5	/experiments/knapen_AOT/AOT_stimuli/rescaled_final/0423_fw.mp4	0.0	151.51156520843506	0.09989500045776367
24	133.66974353790283	fix_pre	0		120	22.0	2.5	/experiments/knapen_AOT/AOT_stimuli/rescaled_final/0292_rv.mp4	0.0	151.61146020889282	1.0088768005371094
24	133.85335493087769	pulse	0	t		22.0	2.5	/experiments/knapen_AOT/AOT_stimuli/rescaled_final/0292_rv.mp4	0.0	151.79507160186768	
24	134.67862033843994	movie	1		277	22.0	2.5	/experiments/knapen_AOT/AOT_stimuli/rescaled_final/0292_rv.mp4	0.0	152.62033700942993	2.4917750358581543
24	135.45159268379211	pulse	1	t		22.0	2.5	/experiments/knapen_AOT/AOT_stimuli/rescaled_final/0292_rv.mp4	0.0	153.3933093547821	
24	137.05176544189453	pulse	1	t		22.0	2.5	/experiments/knapen_AOT/AOT_stimuli/rescaled_final/0292_rv.mp4	0.0	154.99348211288452	
24	137.1703953742981	fix_post	2		12	22.0	2.5	/experiments/knapen_AOT/AOT_stimuli/rescaled_final/0292_rv.mp4	0.0	155.1121120452881	0.09989690780639648
25	137.2702922821045	fix_pre	0		120	23.0	2.5	/experiments/knapen_AOT/AOT_stimuli/rescaled_final/0038_fw.mp4	0.0	155.21200895309448	1.0086071491241455
25	138.27889943122864	movie	1		263	23.0	2.5	/experiments/knapen_AOT/AOT_stimuli/rescaled_final/0038_fw.mp4	0.0	156.22061610221863	2.49225115776062
25	138.6527442932129	pulse	1	t		23.0	2.5	/experiments/knapen_AOT/AOT_stimuli/rescaled_final/0038_fw.mp4	0.0	156.59446096420288	
25	140.2530119419098	pulse	1	t		23.0	2.5	/experiments/knapen_AOT/AOT_stimuli/rescaled_final/0038_fw.mp4	0.0	158.19472861289978	
25	140.77115058898926	fix_post	2		12	23.0	2.5	/experiments/knapen_AOT/AOT_stimuli/rescaled_final/0038_fw.mp4	0.0	158.71286725997925	0.09967994689941406
26	140.87083053588867	fix_pre	0		119	24.0	2.5	/experiments/knapen_AOT/AOT_stimuli/rescaled_final/0001_rv.mp4	0.0	158.81254720687866	1.0001647472381592
26	141.8545105457306	pulse	0	t		24.0	2.5	/experiments/knapen_AOT/AOT_stimuli/rescaled_final/0001_rv.mp4	0.0	159.79622721672058	
26	141.87099528312683	movie	1		269	24.0	2.5	/experiments/knapen_AOT/AOT_stimuli/rescaled_final/0001_rv.mp4	0.0	159.81271195411682	2.50044322013855
26	143.45299816131592	pulse	1	t		24.0	2.5	/experiments/knapen_AOT/AOT_stimuli/rescaled_final/0001_rv.mp4	0.0	161.3947148323059	
26	144.37143850326538	fix_post	2		12	24.0	2.5	/experiments/knapen_AOT/AOT_stimuli/rescaled_final/0001_rv.mp4	0.0	162.31315517425537	0.09992861747741699
27	144.4713671207428	fix_pre	0		120	25.0	2.5	/experiments/knapen_AOT/AOT_stimuli/rescaled_final/0932_rv.mp4	0.0	162.4130837917328	1.0086002349853516
27	145.05500888824463	pulse	0	t		25.0	2.5	/experiments/knapen_AOT/AOT_stimuli/rescaled_final/0932_rv.mp4	0.0	162.99672555923462	
27	145.47996735572815	movie	1		275	25.0	2.5	/experiments/knapen_AOT/AOT_stimuli/rescaled_final/0932_rv.mp4	0.0	163.42168402671814	2.492077112197876
27	146.65476250648499	pulse	1	t		25.0	2.5	/experiments/knapen_AOT/AOT_stimuli/rescaled_final/0932_rv.mp4	0.0	164.59647917747498	
27	147.97204446792603	fix_post	2		12	25.0	2.5	/experiments/knapen_AOT/AOT_stimuli/rescaled_final/0932_rv.mp4	0.0	165.91376113891602	0.09999418258666992
28	148.0720386505127	fix_pre	0		120	26.0	2.5	blank	1.0	166.01375532150269	1.0000066757202148
28	148.25597548484802	pulse	0	t		26.0	2.5	blank	1.0	166.197692155838	
28	149.0720453262329	movie	1		300	26.0	2.5	blank	1.0	167.0137619972229	2.500387668609619
28	149.85572791099548	pulse	1	t		26.0	2.5	blank	1.0	167.79744458198547	
28	151.45639848709106	pulse	1	t		26.0	2.5	blank	1.0	169.39811515808105	
28	151.57243299484253	fix_post	2		12	26.0	2.5	blank	1.0	169.51414966583252	0.10002923011779785
29	151.67246222496033	fix_pre	0		120	27.0	2.5	/experiments/knapen_AOT/AOT_stimuli/rescaled_final/1390_fw.mp4	0.0	169.61417889595032	1.0087649822235107
29	152.68122720718384	movie	1		280	27.0	2.5	/experiments/knapen_AOT/AOT_stimuli/rescaled_final/1390_fw.mp4	0.0	170.62294387817383	2.4917826652526855
29	153.05469155311584	pulse	1	t		27.0	2.5	/experiments/knapen_AOT/AOT_stimuli/rescaled_final/1390_fw.mp4	0.0	170.99640822410583	
29	154.65429258346558	pulse	1	t		27.0	2.5	/experiments/knapen_AOT/AOT_stimuli/rescaled_final/1390_fw.mp4	0.0	172.59600925445557	
29	155.17300987243652	fix_post	2		12	27.0	2.5	/experiments/knapen_AOT/AOT_stimuli/rescaled_final/1390_fw.mp4	0.0	173.1147265434265	0.1000971794128418
30	155.27310705184937	fix_pre	0		119	28.0	2.5	/experiments/knapen_AOT/AOT_stimuli/rescaled_final/0349_rv.mp4	0.0	173.21482372283936	1.0002598762512207
30	156.2566521167755	pulse	0	t		28.0	2.5	/experiments/knapen_AOT/AOT_stimuli/rescaled_final/0349_rv.mp4	0.0	174.1983687877655	
30	156.2733669281006	movie	1		270	28.0	2.5	/experiments/knapen_AOT/AOT_stimuli/rescaled_final/0349_rv.mp4	0.0	174.21508359909058	2.500157356262207
30	157.85523796081543	pulse	1	t		28.0	2.5	/experiments/knapen_AOT/AOT_stimuli/rescaled_final/0349_rv.mp4	0.0	175.79695463180542	
30	158.7735242843628	fix_post	2		12	28.0	2.5	/experiments/knapen_AOT/AOT_stimuli/rescaled_final/0349_rv.mp4	0.0	176.71524095535278	0.10001277923583984
31	158.87353706359863	fix_pre	0		120	29.0	2.5	/experiments/knapen_AOT/AOT_stimuli/rescaled_final/2076_rv.mp4	0.0	176.81525373458862	1.0087296962738037
31	159.4573335647583	pulse	0	t		29.0	2.5	/experiments/knapen_AOT/AOT_stimuli/rescaled_final/2076_rv.mp4	0.0	177.3990502357483	
31	159.88226675987244	movie	1		273	29.0	2.5	/experiments/knapen_AOT/AOT_stimuli/rescaled_final/2076_rv.mp4	0.0	177.82398343086243	2.491793155670166
31	161.05569696426392	pulse	1	t		29.0	2.5	/experiments/knapen_AOT/AOT_stimuli/rescaled_final/2076_rv.mp4	0.0	178.9974136352539	
31	162.3740599155426	fix_post	2		12	29.0	2.5	/experiments/knapen_AOT/AOT_stimuli/rescaled_final/2076_rv.mp4	0.0	180.3157765865326	0.1000826358795166
32	162.47414255142212	fix_pre	0		120	30.0	2.5	/experiments/knapen_AOT/AOT_stimuli/rescaled_final/1372_fw.mp4	0.0	180.4158592224121	1.0084004402160645
32	162.65014672279358	pulse	0	t		30.0	2.5	/experiments/knapen_AOT/AOT_stimuli/rescaled_final/1372_fw.mp4	0.0	180.59186339378357	
32	163.48254299163818	movie	1		265	30.0	2.5	/experiments/knapen_AOT/AOT_stimuli/rescaled_final/1372_fw.mp4	0.0	181.42425966262817	2.4922096729278564
32	164.2499234676361	pulse	1	t		30.0	2.5	/experiments/knapen_AOT/AOT_stimuli/rescaled_final/1372_fw.mp4	0.0	182.1916401386261	
32	165.84988737106323	pulse	1	t		30.0	2.5	/experiments/knapen_AOT/AOT_stimuli/rescaled_final/1372_fw.mp4	0.0	183.79160404205322	
32	165.97475266456604	fix_post	2		12	30.0	2.5	/experiments/knapen_AOT/AOT_stimuli/rescaled_final/1372_fw.mp4	0.0	183.91646933555603	0.09987020492553711
33	166.07462286949158	fix_pre	0		120	31.0	2.5	/experiments/knapen_AOT/AOT_stimuli/rescaled_final/1230_rv.mp4	0.0	184.01633954048157	1.0087840557098389
33	167.08340692520142	movie	1		275	31.0	2.5	/experiments/knapen_AOT/AOT_stimuli/rescaled_final/1230_rv.mp4	0.0	185.0251235961914	2.4919233322143555
33	167.4508502483368	pulse	1	t		31.0	2.5	/experiments/knapen_AOT/AOT_stimuli/rescaled_final/1230_rv.mp4	0.0	185.39256691932678	
33	169.05037188529968	pulse	1	t		31.0	2.5	/experiments/knapen_AOT/AOT_stimuli/rescaled_final/1230_rv.mp4	0.0	186.99208855628967	
33	169.57533025741577	fix_post	2		12	31.0	2.5	/experiments/knapen_AOT/AOT_stimuli/rescaled_final/1230_rv.mp4	0.0	187.51704692840576	0.09986424446105957
34	169.67519450187683	fix_pre	0		118	32.0	2.5	/experiments/knapen_AOT/AOT_stimuli/rescaled_final/0063_fw.mp4	0.0	187.61691117286682	0.9918086528778076
34	170.65050077438354	pulse	0	t		32.0	2.5	/experiments/knapen_AOT/AOT_stimuli/rescaled_final/0063_fw.mp4	0.0	188.59221744537354	
34	170.66700315475464	movie	1		279	32.0	2.5	/experiments/knapen_AOT/AOT_stimuli/rescaled_final/0063_fw.mp4	0.0	188.60871982574463	2.5005643367767334
34	172.25076460838318	pulse	1	t		32.0	2.5	/experiments/knapen_AOT/AOT_stimuli/rescaled_final/0063_fw.mp4	0.0	190.19248127937317	
34	173.16756749153137	fix_post	2		12	32.0	2.5	/experiments/knapen_AOT/AOT_stimuli/rescaled_final/0063_fw.mp4	0.0	191.10928416252136	0.09990096092224121
35	173.2674684524536	fix_pre	0		120	33.0	2.5	/experiments/knapen_AOT/AOT_stimuli/rescaled_final/0043_fw.mp4	0.0	191.2091851234436	1.0085880756378174
35	173.85117721557617	pulse	0	t		33.0	2.5	/experiments/knapen_AOT/AOT_stimuli/rescaled_final/0043_fw.mp4	0.0	191.79289388656616	
35	174.27605652809143	movie	1		273	33.0	2.5	/experiments/knapen_AOT/AOT_stimuli/rescaled_final/0043_fw.mp4	0.0	192.21777319908142	2.4922733306884766
35	175.4512550830841	pulse	1	t		33.0	2.5	/experiments/knapen_AOT/AOT_stimuli/rescaled_final/0043_fw.mp4	0.0	193.3929717540741	
35	176.7683298587799	fix_post	2		12	33.0	2.5	/experiments/knapen_AOT/AOT_stimuli/rescaled_final/0043_fw.mp4	0.0	194.7100465297699	0.09956145286560059
36	176.8678913116455	fix_pre	0		120	34.0	2.5	blank	1.0	194.8096079826355	1.000192403793335
36	177.05156898498535	pulse	0	t		34.0	2.5	blank	1.0	194.99328565597534	
36	177.86808371543884	movie	1		300	34.0	2.5	blank	1.0	195.80980038642883	2.500340223312378
36	178.65175080299377	pulse	1	t		34.0	2.5	blank	1.0	196.59346747398376	
36	180.25191974639893	pulse	1	t		34.0	2.5	blank	1.0	198.19363641738892	
36	180.36842393875122	fix_post	2		12	34.0	2.5	blank	1.0	198.3101406097412	0.10004401206970215
37	180.46846795082092	fix_pre	0		120	35.0	2.5	/experiments/knapen_AOT/AOT_stimuli/rescaled_final/1849_fw.mp4	0.0	198.4101846218109	1.0087289810180664
37	181.477196931839	movie	1		247	35.0	2.5	/experiments/knapen_AOT/AOT_stimuli/rescaled_final/1849_fw.mp4	0.0	199.41891360282898	2.4919955730438232
37	181.85191583633423	pulse	1	t		35.0	2.5	/experiments/knapen_AOT/AOT_stimuli/rescaled_final/1849_fw.mp4	0.0	199.79363250732422	
37	183.4526562690735	pulse	1	t		35.0	2.5	/experiments/knapen_AOT/AOT_stimuli/rescaled_final/1849_fw.mp4	0.0	201.39437294006348	
37	183.9691925048828	fix_post	2		12	35.0	2.5	/experiments/knapen_AOT/AOT_stimuli/rescaled_final/1849_fw.mp4	0.0	201.9109091758728	0.10006451606750488
38	184.06925702095032	fix_pre	0		119	36.0	2.5	/experiments/knapen_AOT/AOT_stimuli/rescaled_final/1040_fw.mp4	0.0	202.0109736919403	0.9998648166656494
38	185.05270075798035	pulse	0	t		36.0	2.5	/experiments/knapen_AOT/AOT_stimuli/rescaled_final/1040_fw.mp4	0.0	202.99441742897034	
38	185.06912183761597	movie	1		265	36.0	2.5	/experiments/knapen_AOT/AOT_stimuli/rescaled_final/1040_fw.mp4	0.0	203.01083850860596	2.5004029273986816
38	186.6530282497406	pulse	1	t		36.0	2.5	/experiments/knapen_AOT/AOT_stimuli/rescaled_final/1040_fw.mp4	0.0	204.5947449207306	
38	187.56952476501465	fix_post	2		12	36.0	2.5	/experiments/knapen_AOT/AOT_stimuli/rescaled_final/1040_fw.mp4	0.0	205.51124143600464	0.10004806518554688
39	187.6695728302002	fix_pre	0		120	37.0	2.5	/experiments/knapen_AOT/AOT_stimuli/rescaled_final/0858_rv.mp4	0.0	205.61128950119019	1.0085735321044922
39	188.253155708313	pulse	0	t		37.0	2.5	/experiments/knapen_AOT/AOT_stimuli/rescaled_final/0858_rv.mp4	0.0	206.19487237930298	
39	188.6781463623047	movie	1		263	37.0	2.5	/experiments/knapen_AOT/AOT_stimuli/rescaled_final/0858_rv.mp4	0.0	206.61986303329468	2.500246524810791
39	189.85160160064697	pulse	1	t		37.0	2.5	/experiments/knapen_AOT/AOT_stimuli/rescaled_final/0858_rv.mp4	0.0	207.79331827163696	
39	191.17839288711548	fix_post	2		11	37.0	2.5	/experiments/knapen_AOT/AOT_stimuli/rescaled_final/0858_rv.mp4	0.0	209.12010955810547	0.09169864654541016
40	191.2700915336609	fix_pre	0		119	38.0	2.5	/experiments/knapen_AOT/AOT_stimuli/rescaled_final/1792_fw.mp4	0.0	209.21180820465088	1.0084853172302246
40	191.45393133163452	pulse	0	t		38.0	2.5	/experiments/knapen_AOT/AOT_stimuli/rescaled_final/1792_fw.mp4	0.0	209.3956480026245	
40	192.2785768508911	movie	1		249	38.0	2.5	/experiments/knapen_AOT/AOT_stimuli/rescaled_final/1792_fw.mp4	0.0	210.2202935218811	2.492255687713623
40	193.05188703536987	pulse	1	t		38.0	2.5	/experiments/knapen_AOT/AOT_stimuli/rescaled_final/1792_fw.mp4	0.0	210.99360370635986	
40	194.65191841125488	pulse	1	t		38.0	2.5	/experiments/knapen_AOT/AOT_stimuli/rescaled_final/1792_fw.mp4	0.0	212.59363508224487	
40	194.77083253860474	fix_post	2		12	38.0	2.5	/experiments/knapen_AOT/AOT_stimuli/rescaled_final/1792_fw.mp4	0.0	212.71254920959473	0.10005807876586914
41	194.8708906173706	fix_pre	0		120	39.0	2.5	/experiments/knapen_AOT/AOT_stimuli/rescaled_final/1721_fw.mp4	0.0	212.8126072883606	1.0082240104675293
41	195.87911462783813	movie	1		262	39.0	2.5	/experiments/knapen_AOT/AOT_stimuli/rescaled_final/1721_fw.mp4	0.0	213.82083129882812	2.492205858230591
41	196.2546842098236	pulse	1	t		39.0	2.5	/experiments/knapen_AOT/AOT_stimuli/rescaled_final/1721_fw.mp4	0.0	214.1964008808136	
41	197.85236954689026	pulse	1	t		39.0	2.5	/experiments/knapen_AOT/AOT_stimuli/rescaled_final/1721_fw.mp4	0.0	215.79408621788025	
41	198.37132048606873	fix_post	2		12	39.0	2.5	/experiments/knapen_AOT/AOT_stimuli/rescaled_final/1721_fw.mp4	0.0	216.31303715705872	0.0999000072479248
42	198.47122049331665	fix_pre	0		119	40.0	2.5	/experiments/knapen_AOT/AOT_stimuli/rescaled_final/1891_rv.mp4	0.0	216.41293716430664	1.0000665187835693
42	199.45486760139465	pulse	0	t		40.0	2.5	/experiments/knapen_AOT/AOT_stimuli/rescaled_final/1891_rv.mp4	0.0	217.39658427238464	
42	199.47128701210022	movie	1		262	40.0	2.5	/experiments/knapen_AOT/AOT_stimuli/rescaled_final/1891_rv.mp4	0.0	217.4130036830902	2.50066876411438
42	201.0548939704895	pulse	1	t		40.0	2.5	/experiments/knapen_AOT/AOT_stimuli/rescaled_final/1891_rv.mp4	0.0	218.9966106414795	
42	201.9719557762146	fix_post	2		12	40.0	2.5	/experiments/knapen_AOT/AOT_stimuli/rescaled_final/1891_rv.mp4	0.0	219.9136724472046	0.0997474193572998
43	202.0717031955719	fix_pre	0		120	41.0	2.5	/experiments/knapen_AOT/AOT_stimuli/rescaled_final/0715_fw.mp4	0.0	220.0134198665619	1.0085139274597168
43	202.65529131889343	pulse	0	t		41.0	2.5	/experiments/knapen_AOT/AOT_stimuli/rescaled_final/0715_fw.mp4	0.0	220.59700798988342	
43	203.08021712303162	movie	1		266	41.0	2.5	/experiments/knapen_AOT/AOT_stimuli/rescaled_final/0715_fw.mp4	0.0	221.0219337940216	2.4920380115509033
43	204.2549090385437	pulse	1	t		41.0	2.5	/experiments/knapen_AOT/AOT_stimuli/rescaled_final/0715_fw.mp4	0.0	222.1966257095337	
43	205.57225513458252	fix_post	2		12	41.0	2.5	/experiments/knapen_AOT/AOT_stimuli/rescaled_final/0715_fw.mp4	0.0	223.5139718055725	0.09997677803039551
44	205.67223191261292	fix_pre	0		120	42.0	2.5	blank	1.0	223.6139485836029	1.0003080368041992
44	205.85626459121704	pulse	0	t		42.0	2.5	blank	1.0	223.79798126220703	
44	206.67253994941711	movie	1		300	42.0	2.5	blank	1.0	224.6142566204071	2.500216484069824
44	207.45610809326172	pulse	1	t		42.0	2.5	blank	1.0	225.3978247642517	
44	209.05628538131714	pulse	1	t		42.0	2.5	blank	1.0	226.99800205230713	
44	209.17275643348694	fix_post	2		12	42.0	2.5	blank	1.0	227.11447310447693	0.10002279281616211
45	209.2727792263031	fix_pre	0		120	43.0	2.5	/experiments/knapen_AOT/AOT_stimuli/rescaled_final/1702_fw.mp4	0.0	227.2144958972931	1.008697509765625
45	210.28147673606873	movie	1		258	43.0	2.5	/experiments/knapen_AOT/AOT_stimuli/rescaled_final/1702_fw.mp4	0.0	228.22319340705872	2.4922494888305664
45	210.65705561637878	pulse	1	t		43.0	2.5	/experiments/knapen_AOT/AOT_stimuli/rescaled_final/1702_fw.mp4	0.0	228.59877228736877	
45	212.2552399635315	pulse	1	t		43.0	2.5	/experiments/knapen_AOT/AOT_stimuli/rescaled_final/1702_fw.mp4	0.0	230.19695663452148	
45	212.7737262248993	fix_post	2		12	43.0	2.5	/experiments/knapen_AOT/AOT_stimuli/rescaled_final/1702_fw.mp4	0.0	230.71544289588928	0.09960603713989258
46	212.87333226203918	fix_pre	0		119	44.0	2.5	/experiments/knapen_AOT/AOT_stimuli/rescaled_final/2071_fw.mp4	0.0	230.81504893302917	1.000215768814087
46	213.85702276229858	pulse	0	t		44.0	2.5	/experiments/knapen_AOT/AOT_stimuli/rescaled_final/2071_fw.mp4	0.0	231.79873943328857	
46	213.87354803085327	movie	1		260	44.0	2.5	/experiments/knapen_AOT/AOT_stimuli/rescaled_final/2071_fw.mp4	0.0	231.81526470184326	2.5004539489746094
46	215.45629501342773	pulse	1	t		44.0	2.5	/experiments/knapen_AOT/AOT_stimuli/rescaled_final/2071_fw.mp4	0.0	233.39801168441772	
46	216.37400197982788	fix_post	2		12	44.0	2.5	/experiments/knapen_AOT/AOT_stimuli/rescaled_final/2071_fw.mp4	0.0	234.31571865081787	0.09985041618347168
47	216.47385239601135	fix_pre	0		120	45.0	2.5	/experiments/knapen_AOT/AOT_stimuli/rescaled_final/1527_fw.mp4	0.0	234.41556906700134	1.0085201263427734
47	217.0506477355957	pulse	0	t		45.0	2.5	/experiments/knapen_AOT/AOT_stimuli/rescaled_final/1527_fw.mp4	0.0	234.9923644065857	
47	217.48237252235413	movie	1		288	45.0	2.5	/experiments/knapen_AOT/AOT_stimuli/rescaled_final/1527_fw.mp4	0.0	235.42408919334412	2.4922122955322266
47	218.65571975708008	pulse	1	t		45.0	2.5	/experiments/knapen_AOT/AOT_stimuli/rescaled_final/1527_fw.mp4	0.0	236.59743642807007	
47	219.97458481788635	fix_post	2		12	45.0	2.5	/experiments/knapen_AOT/AOT_stimuli/rescaled_final/1527_fw.mp4	0.0	237.91630148887634	0.09987831115722656
48	220.07446312904358	fix_pre	0		120	46.0	2.5	/experiments/knapen_AOT/AOT_stimuli/rescaled_final/0979_rv.mp4	0.0	238.01617980003357	1.0084607601165771
48	220.25128865242004	pulse	0	t		46.0	2.5	/experiments/knapen_AOT/AOT_stimuli/rescaled_final/0979_rv.mp4	0.0	238.19300532341003	
48	221.08292388916016	movie	1		264	46.0	2.5	/experiments/knapen_AOT/AOT_stimuli/rescaled_final/0979_rv.mp4	0.0	239.02464056015015	2.492319345474243
48	221.85834097862244	pulse	1	t		46.0	2.5	/experiments/knapen_AOT/AOT_stimuli/rescaled_final/0979_rv.mp4	0.0	239.80005764961243	
48	223.45031356811523	pulse	1	t		46.0	2.5	/experiments/knapen_AOT/AOT_stimuli/rescaled_final/0979_rv.mp4	0.0	241.39203023910522	
48	223.5752432346344	fix_post	2		12	46.0	2.5	/experiments/knapen_AOT/AOT_stimuli/rescaled_final/0979_rv.mp4	0.0	241.5169599056244	0.09971785545349121
49	223.6749610900879	fix_pre	0		120	47.0	2.5	blank	1.0	241.61667776107788	1.000171184539795
49	224.67513227462769	movie	1		300	47.0	2.5	blank	1.0	242.61684894561768	2.5003459453582764
49	225.05041909217834	pulse	1	t		47.0	2.5	blank	1.0	242.99213576316833	
49	226.65070605278015	pulse	1	t		47.0	2.5	blank	1.0	244.59242272377014	
49	227.17547821998596	fix_post	2		12	47.0	2.5	blank	1.0	245.11719489097595	0.10008549690246582
50	227.27556371688843	fix_pre	0		118	48.0	2.5	/experiments/knapen_AOT/AOT_stimuli/rescaled_final/1149_fw.mp4	0.0	245.21728038787842	1.0004444122314453
50	228.25119614601135	pulse	0	t		48.0	2.5	/experiments/knapen_AOT/AOT_stimuli/rescaled_final/1149_fw.mp4	0.0	246.19291281700134	
50	228.27600812911987	movie	1		264	48.0	2.5	/experiments/knapen_AOT/AOT_stimuli/rescaled_final/1149_fw.mp4	0.0	246.21772480010986	2.5003247261047363
50	229.8511917591095	pulse	1	t		48.0	2.5	/experiments/knapen_AOT/AOT_stimuli/rescaled_final/1149_fw.mp4	0.0	247.7929084300995	
50	230.7763328552246	fix_post	2		11	48.0	2.5	/experiments/knapen_AOT/AOT_stimuli/rescaled_final/1149_fw.mp4	0.0	248.7180495262146	0.09136605262756348
51	230.86769890785217	fix_pre	0		120	49.0	2.5	/experiments/knapen_AOT/AOT_stimuli/rescaled_final/0456_fw.mp4	0.0	248.80941557884216	1.0086164474487305
51	231.45135498046875	pulse	0	t		49.0	2.5	/experiments/knapen_AOT/AOT_stimuli/rescaled_final/0456_fw.mp4	0.0	249.39307165145874	
51	231.8763153553009	movie	1		270	49.0	2.5	/experiments/knapen_AOT/AOT_stimuli/rescaled_final/0456_fw.mp4	0.0	249.8180320262909	2.49226450920105
51	233.051771402359	pulse	1	t		49.0	2.5	/experiments/knapen_AOT/AOT_stimuli/rescaled_final/0456_fw.mp4	0.0	250.993488073349	
51	234.36857986450195	fix_post	2		12	49.0	2.5	/experiments/knapen_AOT/AOT_stimuli/rescaled_final/0456_fw.mp4	0.0	252.31029653549194	0.09983587265014648
52	234.4684157371521	fix_pre	0		120	50.0	2.5	/experiments/knapen_AOT/AOT_stimuli/rescaled_final/0494_fw.mp4	0.0	252.4101324081421	1.0085985660552979
52	234.65188241004944	pulse	0	t		50.0	2.5	/experiments/knapen_AOT/AOT_stimuli/rescaled_final/0494_fw.mp4	0.0	252.59359908103943	
52	235.4770143032074	movie	1		276	50.0	2.5	/experiments/knapen_AOT/AOT_stimuli/rescaled_final/0494_fw.mp4	0.0	253.4187309741974	2.4919300079345703
52	236.2522099018097	pulse	1	t		50.0	2.5	/experiments/knapen_AOT/AOT_stimuli/rescaled_final/0494_fw.mp4	0.0	254.19392657279968	
52	237.85043287277222	pulse	1	t		50.0	2.5	/experiments/knapen_AOT/AOT_stimuli/rescaled_final/0494_fw.mp4	0.0	255.7921495437622	
52	237.96894431114197	fix_post	2		12	50.0	2.5	/experiments/knapen_AOT/AOT_stimuli/rescaled_final/0494_fw.mp4	0.0	255.91066098213196	0.09989333152770996
53	238.06883764266968	fix_pre	0		120	51.0	2.5	/experiments/knapen_AOT/AOT_stimuli/rescaled_final/1707_fw.mp4	0.0	256.01055431365967	1.0085899829864502
53	239.07742762565613	movie	1		278	51.0	2.5	/experiments/knapen_AOT/AOT_stimuli/rescaled_final/1707_fw.mp4	0.0	257.0191442966461	2.491917848587036
53	239.45130133628845	pulse	1	t		51.0	2.5	/experiments/knapen_AOT/AOT_stimuli/rescaled_final/1707_fw.mp4	0.0	257.39301800727844	
53	241.05082416534424	pulse	1	t		51.0	2.5	/experiments/knapen_AOT/AOT_stimuli/rescaled_final/1707_fw.mp4	0.0	258.99254083633423	
53	241.56934547424316	fix_post	2		12	51.0	2.5	/experiments/knapen_AOT/AOT_stimuli/rescaled_final/1707_fw.mp4	0.0	259.51106214523315	0.10000991821289062
54	241.66935539245605	fix_pre	0		119	52.0	2.5	/experiments/knapen_AOT/AOT_stimuli/rescaled_final/1580_fw.mp4	0.0	259.61107206344604	1.0001285076141357
54	242.65304017066956	pulse	0	t		52.0	2.5	/experiments/knapen_AOT/AOT_stimuli/rescaled_final/1580_fw.mp4	0.0	260.59475684165955	
54	242.6694839000702	movie	1		272	52.0	2.5	/experiments/knapen_AOT/AOT_stimuli/rescaled_final/1580_fw.mp4	0.0	260.6112005710602	2.5006163120269775
54	244.252854347229	pulse	1	t		52.0	2.5	/experiments/knapen_AOT/AOT_stimuli/rescaled_final/1580_fw.mp4	0.0	262.194571018219	
54	245.17010021209717	fix_post	2		12	52.0	2.5	/experiments/knapen_AOT/AOT_stimuli/rescaled_final/1580_fw.mp4	0.0	263.11181688308716	0.09981966018676758
55	245.26991987228394	fix_pre	0		120	53.0	2.5	/experiments/knapen_AOT/AOT_stimuli/rescaled_final/1997_rv.mp4	0.0	263.2116365432739	1.0085656642913818
55	245.85359048843384	pulse	0	t		53.0	2.5	/experiments/knapen_AOT/AOT_stimuli/rescaled_final/1997_rv.mp4	0.0	263.7953071594238	
55	246.27848553657532	movie	1		278	53.0	2.5	/experiments/knapen_AOT/AOT_stimuli/rescaled_final/1997_rv.mp4	0.0	264.2202022075653	2.4921061992645264
55	247.45272088050842	pulse	1	t		53.0	2.5	/experiments/knapen_AOT/AOT_stimuli/rescaled_final/1997_rv.mp4	0.0	265.3944375514984	
55	248.77059173583984	fix_post	2		12	53.0	2.5	/experiments/knapen_AOT/AOT_stimuli/rescaled_final/1997_rv.mp4	0.0	266.71230840682983	0.09981107711791992
56	248.87040281295776	fix_pre	0		120	54.0	2.5	/experiments/knapen_AOT/AOT_stimuli/rescaled_final/1074_rv.mp4	0.0	266.81211948394775	1.0086631774902344
56	249.0539665222168	pulse	0	t		54.0	2.5	/experiments/knapen_AOT/AOT_stimuli/rescaled_final/1074_rv.mp4	0.0	266.9956831932068	
56	249.879065990448	movie	1		281	54.0	2.5	/experiments/knapen_AOT/AOT_stimuli/rescaled_final/1074_rv.mp4	0.0	267.820782661438	2.492004156112671
56	250.65217661857605	pulse	1	t		54.0	2.5	/experiments/knapen_AOT/AOT_stimuli/rescaled_final/1074_rv.mp4	0.0	268.59389328956604	
56	252.2525351047516	pulse	1	t		54.0	2.5	/experiments/knapen_AOT/AOT_stimuli/rescaled_final/1074_rv.mp4	0.0	270.1942517757416	
56	252.37107014656067	fix_post	2		12	54.0	2.5	/experiments/knapen_AOT/AOT_stimuli/rescaled_final/1074_rv.mp4	0.0	270.31278681755066	0.1000363826751709
57	252.47110652923584	fix_pre	0		120	55.0	2.5	/experiments/knapen_AOT/AOT_stimuli/rescaled_final/1340_rv.mp4	0.0	270.41282320022583	1.008333444595337
57	253.47943997383118	movie	1		282	55.0	2.5	/experiments/knapen_AOT/AOT_stimuli/rescaled_final/1340_rv.mp4	0.0	271.42115664482117	2.4922425746917725
57	253.85563325881958	pulse	1	t		55.0	2.5	/experiments/knapen_AOT/AOT_stimuli/rescaled_final/1340_rv.mp4	0.0	271.79734992980957	
57	255.45302367210388	pulse	1	t		55.0	2.5	/experiments/knapen_AOT/AOT_stimuli/rescaled_final/1340_rv.mp4	0.0	273.3947403430939	
57	255.97168254852295	fix_post	2		12	55.0	2.5	/experiments/knapen_AOT/AOT_stimuli/rescaled_final/1340_rv.mp4	0.0	273.91339921951294	0.09976601600646973
58	256.0714485645294	fix_pre	0		119	56.0	2.5	blank	1.0	274.0131652355194	0.9918432235717773
58	257.0552432537079	pulse	0	t		56.0	2.5	blank	1.0	274.9969599246979	
58	257.0632917881012	movie	1		301	56.0	2.5	blank	1.0	275.0050084590912	2.5087473392486572
58	258.65540504455566	pulse	1	t		56.0	2.5	blank	1.0	276.59712171554565	
58	259.57203912734985	fix_post	2		12	56.0	2.5	blank	1.0	277.51375579833984	0.10003423690795898
59	259.6720733642578	fix_pre	0		120	57.0	2.5	/experiments/knapen_AOT/AOT_stimuli/rescaled_final/1194_rv.mp4	0.0	277.6137900352478	1.0084362030029297
59	260.2556447982788	pulse	0	t		57.0	2.5	/experiments/knapen_AOT/AOT_stimuli/rescaled_final/1194_rv.mp4	0.0	278.1973614692688	
59	260.68050956726074	movie	1		267	57.0	2.5	/experiments/knapen_AOT/AOT_stimuli/rescaled_final/1194_rv.mp4	0.0	278.62222623825073	2.492055892944336
59	261.85485005378723	pulse	1	t		57.0	2.5	/experiments/knapen_AOT/AOT_stimuli/rescaled_final/1194_rv.mp4	0.0	279.7965667247772	
59	263.1725654602051	fix_post	2		12	57.0	2.5	/experiments/knapen_AOT/AOT_stimuli/rescaled_final/1194_rv.mp4	0.0	281.11428213119507	0.10004281997680664
60	263.2726082801819	fix_pre	0		120	58.0	2.5	/experiments/knapen_AOT/AOT_stimuli/rescaled_final/1340_fw.mp4	0.0	281.2143249511719	1.0086123943328857
60	263.45613956451416	pulse	0	t		58.0	2.5	/experiments/knapen_AOT/AOT_stimuli/rescaled_final/1340_fw.mp4	0.0	281.39785623550415	
60	264.28122067451477	movie	1		266	58.0	2.5	/experiments/knapen_AOT/AOT_stimuli/rescaled_final/1340_fw.mp4	0.0	282.22293734550476	2.4925222396850586
60	265.0567739009857	pulse	1	t		58.0	2.5	/experiments/knapen_AOT/AOT_stimuli/rescaled_final/1340_fw.mp4	0.0	282.9984905719757	
60	266.654531955719	pulse	1	t		58.0	2.5	/experiments/knapen_AOT/AOT_stimuli/rescaled_final/1340_fw.mp4	0.0	284.596248626709	
60	266.77374291419983	fix_post	2		12	58.0	2.5	/experiments/knapen_AOT/AOT_stimuli/rescaled_final/1340_fw.mp4	0.0	284.7154595851898	0.0993492603302002
61	266.87309217453003	fix_pre	0		120	59.0	2.5	/experiments/knapen_AOT/AOT_stimuli/rescaled_final/1583_fw.mp4	0.0	284.81480884552	1.0085151195526123
61	267.88160729408264	movie	1		270	59.0	2.5	/experiments/knapen_AOT/AOT_stimuli/rescaled_final/1583_fw.mp4	0.0	285.82332396507263	2.4921791553497314
61	268.2572512626648	pulse	1	t		59.0	2.5	/experiments/knapen_AOT/AOT_stimuli/rescaled_final/1583_fw.mp4	0.0	286.1989679336548	
61	269.8555977344513	pulse	1	t		59.0	2.5	/experiments/knapen_AOT/AOT_stimuli/rescaled_final/1583_fw.mp4	0.0	287.7973144054413	
61	270.3737864494324	fix_post	2		12	59.0	2.5	/experiments/knapen_AOT/AOT_stimuli/rescaled_final/1583_fw.mp4	0.0	288.31550312042236	0.1000070571899414
62	270.4737935066223	fix_pre	0		119	60.0	2.5	/experiments/knapen_AOT/AOT_stimuli/rescaled_final/1882_rv.mp4	0.0	288.4155101776123	1.0001051425933838
62	271.4574222564697	pulse	0	t		60.0	2.5	/experiments/knapen_AOT/AOT_stimuli/rescaled_final/1882_rv.mp4	0.0	289.3991389274597	
62	271.4738986492157	movie	1		275	60.0	2.5	/experiments/knapen_AOT/AOT_stimuli/rescaled_final/1882_rv.mp4	0.0	289.4156153202057	2.5007307529449463
62	273.05582070350647	pulse	1	t		60.0	2.5	/experiments/knapen_AOT/AOT_stimuli/rescaled_final/1882_rv.mp4	0.0	290.99753737449646	
62	273.97462940216064	fix_post	2		12	60.0	2.5	/experiments/knapen_AOT/AOT_stimuli/rescaled_final/1882_rv.mp4	0.0	291.91634607315063	0.09970808029174805
63	274.0743374824524	fix_pre	0		120	61.0	2.5	/experiments/knapen_AOT/AOT_stimuli/rescaled_final/1779_fw.mp4	0.0	292.0160541534424	1.0084056854248047
63	274.6496286392212	pulse	0	t		61.0	2.5	/experiments/knapen_AOT/AOT_stimuli/rescaled_final/1779_fw.mp4	0.0	292.5913453102112	
63	275.0827431678772	movie	1		275	61.0	2.5	/experiments/knapen_AOT/AOT_stimuli/rescaled_final/1779_fw.mp4	0.0	293.0244598388672	2.49214768409729
63	276.24983048439026	pulse	1	t		61.0	2.5	/experiments/knapen_AOT/AOT_stimuli/rescaled_final/1779_fw.mp4	0.0	294.19154715538025	
63	277.5748908519745	fix_post	2		12	61.0	2.5	/experiments/knapen_AOT/AOT_stimuli/rescaled_final/1779_fw.mp4	0.0	295.5166075229645	0.10009765625
64	277.6749885082245	fix_pre	0		120	62.0	2.5	blank	1.0	295.6167051792145	0.9999198913574219
64	277.8500003814697	pulse	0	t		62.0	2.5	blank	1.0	295.7917170524597	
64	278.6749083995819	movie	1		300	62.0	2.5	blank	1.0	296.6166250705719	2.5004069805145264
64	279.45021533966064	pulse	1	t		62.0	2.5	blank	1.0	297.39193201065063	
64	281.05048871040344	pulse	1	t		62.0	2.5	blank	1.0	298.99220538139343	
64	281.17531538009644	fix_post	2		12	62.0	2.5	blank	1.0	299.1170320510864	0.10002374649047852
65	281.2753391265869	fix_pre	0		120	63.0	2.5	/experiments/knapen_AOT/AOT_stimuli/rescaled_final/2135_fw.mp4	0.0	299.2170557975769	1.0084469318389893
65	282.2837860584259	movie	1		278	63.0	2.5	/experiments/knapen_AOT/AOT_stimuli/rescaled_final/2135_fw.mp4	0.0	300.2255027294159	2.4920527935028076
65	282.6507713794708	pulse	1	t		63.0	2.5	/experiments/knapen_AOT/AOT_stimuli/rescaled_final/2135_fw.mp4	0.0	300.5924880504608	
65	284.250953912735	pulse	1	t		63.0	2.5	/experiments/knapen_AOT/AOT_stimuli/rescaled_final/2135_fw.mp4	0.0	302.192670583725	
65	284.7758388519287	fix_post	2		12	63.0	2.5	/experiments/knapen_AOT/AOT_stimuli/rescaled_final/2135_fw.mp4	0.0	302.7175555229187	0.10024833679199219
66	284.8760871887207	fix_pre	0		118	64.0	2.5	/experiments/knapen_AOT/AOT_stimuli/rescaled_final/1262_rv.mp4	0.0	302.8178038597107	0.9918830394744873
66	285.85123085975647	pulse	0	t		64.0	2.5	/experiments/knapen_AOT/AOT_stimuli/rescaled_final/1262_rv.mp4	0.0	303.79294753074646	
66	285.8679702281952	movie	1		275	64.0	2.5	/experiments/knapen_AOT/AOT_stimuli/rescaled_final/1262_rv.mp4	0.0	303.8096868991852	2.500258445739746
66	287.4501404762268	pulse	1	t		64.0	2.5	/experiments/knapen_AOT/AOT_stimuli/rescaled_final/1262_rv.mp4	0.0	305.3918571472168	
66	288.36822867393494	fix_post	2		12	64.0	2.5	/experiments/knapen_AOT/AOT_stimuli/rescaled_final/1262_rv.mp4	0.0	306.3099453449249	0.09981298446655273
67	288.4680416584015	fix_pre	0		120	65.0	2.5	/experiments/knapen_AOT/AOT_stimuli/rescaled_final/0655_fw.mp4	0.0	306.4097583293915	1.0084891319274902
67	289.0516617298126	pulse	0	t		65.0	2.5	/experiments/knapen_AOT/AOT_stimuli/rescaled_final/0655_fw.mp4	0.0	306.9933784008026	
67	289.476530790329	movie	1		288	65.0	2.5	/experiments/knapen_AOT/AOT_stimuli/rescaled_final/0655_fw.mp4	0.0	307.41824746131897	2.492161273956299
67	290.65017223358154	pulse	1	t		65.0	2.5	/experiments/knapen_AOT/AOT_stimuli/rescaled_final/0655_fw.mp4	0.0	308.59188890457153	
67	291.9686920642853	fix_post	2		12	65.0	2.5	/experiments/knapen_AOT/AOT_stimuli/rescaled_final/0655_fw.mp4	0.0	309.91040873527527	0.09989619255065918
68	292.06858825683594	fix_pre	0		120	66.0	2.5	/experiments/knapen_AOT/AOT_stimuli/rescaled_final/1562_rv.mp4	0.0	310.0103049278259	1.0084376335144043
68	292.2521643638611	pulse	0	t		66.0	2.5	/experiments/knapen_AOT/AOT_stimuli/rescaled_final/1562_rv.mp4	0.0	310.1938810348511	
68	293.07702589035034	movie	1		271	66.0	2.5	/experiments/knapen_AOT/AOT_stimuli/rescaled_final/1562_rv.mp4	0.0	311.01874256134033	2.4920566082000732
68	293.85079312324524	pulse	1	t		66.0	2.5	/experiments/knapen_AOT/AOT_stimuli/rescaled_final/1562_rv.mp4	0.0	311.79250979423523	
68	295.45061349868774	pulse	1	t		66.0	2.5	/experiments/knapen_AOT/AOT_stimuli/rescaled_final/1562_rv.mp4	0.0	313.39233016967773	
68	295.5690824985504	fix_post	2		12	66.0	2.5	/experiments/knapen_AOT/AOT_stimuli/rescaled_final/1562_rv.mp4	0.0	313.5107991695404	0.10003042221069336
69	295.6691129207611	fix_pre	0		120	67.0	2.5	/experiments/knapen_AOT/AOT_stimuli/rescaled_final/1199_fw.mp4	0.0	313.6108295917511	1.0086946487426758
69	296.6778075695038	movie	1		269	67.0	2.5	/experiments/knapen_AOT/AOT_stimuli/rescaled_final/1199_fw.mp4	0.0	314.6195242404938	2.4921278953552246
69	297.0509600639343	pulse	1	t		67.0	2.5	/experiments/knapen_AOT/AOT_stimuli/rescaled_final/1199_fw.mp4	0.0	314.9926767349243	
69	298.65270924568176	pulse	1	t		67.0	2.5	/experiments/knapen_AOT/AOT_stimuli/rescaled_final/1199_fw.mp4	0.0	316.59442591667175	
69	299.169935464859	fix_post	2		12	67.0	2.5	/experiments/knapen_AOT/AOT_stimuli/rescaled_final/1199_fw.mp4	0.0	317.111652135849	0.09983015060424805
70	299.26976561546326	fix_pre	0		119	68.0	2.5	/experiments/knapen_AOT/AOT_stimuli/rescaled_final/1952_fw.mp4	0.0	317.21148228645325	0.9999856948852539
70	300.2533555030823	pulse	0	t		68.0	2.5	/experiments/knapen_AOT/AOT_stimuli/rescaled_final/1952_fw.mp4	0.0	318.19507217407227	
70	300.2697513103485	movie	1		284	68.0	2.5	/experiments/knapen_AOT/AOT_stimuli/rescaled_final/1952_fw.mp4	0.0	318.2114679813385	2.5006980895996094
70	301.85257363319397	pulse	1	t		68.0	2.5	/experiments/knapen_AOT/AOT_stimuli/rescaled_final/1952_fw.mp4	0.0	319.79429030418396	
70	302.7704493999481	fix_post	2		12	68.0	2.5	/experiments/knapen_AOT/AOT_stimuli/rescaled_final/1952_fw.mp4	0.0	320.7121660709381	0.09996485710144043
71	302.87041425704956	fix_pre	0		120	69.0	2.5	blank	1.0	320.81213092803955	0.9999299049377441
71	303.45379543304443	pulse	0	t		69.0	2.5	blank	1.0	321.3955121040344	
71	303.8703441619873	movie	1		300	69.0	2.5	blank	1.0	321.8120608329773	2.5003628730773926
71	305.0540750026703	pulse	1	t		69.0	2.5	blank	1.0	322.9957916736603	
71	306.3707070350647	fix_post	2		12	69.0	2.5	blank	1.0	324.3124237060547	0.10003662109375
72	306.47074365615845	fix_pre	0		120	70.0	2.5	/experiments/knapen_AOT/AOT_stimuli/rescaled_final/1190_fw.mp4	0.0	324.41246032714844	1.0085747241973877
72	306.65428924560547	pulse	0	t		70.0	2.5	/experiments/knapen_AOT/AOT_stimuli/rescaled_final/1190_fw.mp4	0.0	324.59600591659546	
72	307.47931838035583	movie	1		260	70.0	2.5	/experiments/knapen_AOT/AOT_stimuli/rescaled_final/1190_fw.mp4	0.0	325.4210350513458	2.4923689365386963
72	308.25495624542236	pulse	1	t		70.0	2.5	/experiments/knapen_AOT/AOT_stimuli/rescaled_final/1190_fw.mp4	0.0	326.19667291641235	
72	309.8536353111267	pulse	1	t		70.0	2.5	/experiments/knapen_AOT/AOT_stimuli/rescaled_final/1190_fw.mp4	0.0	327.7953519821167	
72	309.97168731689453	fix_post	2		12	70.0	2.5	/experiments/knapen_AOT/AOT_stimuli/rescaled_final/1190_fw.mp4	0.0	327.9134039878845	0.09959578514099121
73	310.0712831020355	fix_pre	0		120	71.0	2.5	/experiments/knapen_AOT/AOT_stimuli/rescaled_final/1230_fw.mp4	0.0	328.0129997730255	1.0085046291351318
73	311.07978773117065	movie	1		262	71.0	2.5	/experiments/knapen_AOT/AOT_stimuli/rescaled_final/1230_fw.mp4	0.0	329.02150440216064	2.492109537124634
73	311.4546768665314	pulse	1	t		71.0	2.5	/experiments/knapen_AOT/AOT_stimuli/rescaled_final/1230_fw.mp4	0.0	329.39639353752136	
73	313.0537528991699	pulse	1	t		71.0	2.5	/experiments/knapen_AOT/AOT_stimuli/rescaled_final/1230_fw.mp4	0.0	330.9954695701599	
73	313.5718972682953	fix_post	2		12	71.0	2.5	/experiments/knapen_AOT/AOT_stimuli/rescaled_final/1230_fw.mp4	0.0	331.5136139392853	0.09992146492004395
74	313.67181873321533	fix_pre	0		119	72.0	2.5	/experiments/knapen_AOT/AOT_stimuli/rescaled_final/1792_rv.mp4	0.0	331.6135354042053	1.0002715587615967
74	314.65550446510315	pulse	0	t		72.0	2.5	/experiments/knapen_AOT/AOT_stimuli/rescaled_final/1792_rv.mp4	0.0	332.59722113609314	
74	314.67209029197693	movie	1		265	72.0	2.5	/experiments/knapen_AOT/AOT_stimuli/rescaled_final/1792_rv.mp4	0.0	332.6138069629669	2.5004491806030273
74	316.2562243938446	pulse	1	t		72.0	2.5	/experiments/knapen_AOT/AOT_stimuli/rescaled_final/1792_rv.mp4	0.0	334.1979410648346	
74	317.17253947257996	fix_post	2		12	72.0	2.5	/experiments/knapen_AOT/AOT_stimuli/rescaled_final/1792_rv.mp4	0.0	335.11425614356995	0.09993100166320801
75	317.27247047424316	fix_pre	0		120	73.0	2.5	/experiments/knapen_AOT/AOT_stimuli/rescaled_final/0316_fw.mp4	0.0	335.21418714523315	1.0085577964782715
75	317.8559696674347	pulse	0	t		73.0	2.5	/experiments/knapen_AOT/AOT_stimuli/rescaled_final/0316_fw.mp4	0.0	335.7976863384247	
75	318.28102827072144	movie	1		277	73.0	2.5	/experiments/knapen_AOT/AOT_stimuli/rescaled_final/0316_fw.mp4	0.0	336.2227449417114	2.4920849800109863
75	319.455454826355	pulse	1	t		73.0	2.5	/experiments/knapen_AOT/AOT_stimuli/rescaled_final/0316_fw.mp4	0.0	337.39717149734497	
75	320.7731132507324	fix_post	2		12	73.0	2.5	/experiments/knapen_AOT/AOT_stimuli/rescaled_final/0316_fw.mp4	0.0	338.7148299217224	0.09984755516052246
76	320.87296080589294	fix_pre	0		120	74.0	2.5	/experiments/knapen_AOT/AOT_stimuli/rescaled_final/1278_rv.mp4	0.0	338.81467747688293	1.008549451828003
76	321.0567672252655	pulse	0	t		74.0	2.5	/experiments/knapen_AOT/AOT_stimuli/rescaled_final/1278_rv.mp4	0.0	338.9984838962555	
76	321.88151025772095	movie	1		276	74.0	2.5	/experiments/knapen_AOT/AOT_stimuli/rescaled_final/1278_rv.mp4	0.0	339.82322692871094	2.492187023162842
76	322.6550211906433	pulse	1	t		74.0	2.5	/experiments/knapen_AOT/AOT_stimuli/rescaled_final/1278_rv.mp4	0.0	340.5967378616333	
76	324.25482749938965	pulse	1	t		74.0	2.5	/experiments/knapen_AOT/AOT_stimuli/rescaled_final/1278_rv.mp4	0.0	342.19654417037964	
76	324.3736972808838	fix_post	2		12	74.0	2.5	/experiments/knapen_AOT/AOT_stimuli/rescaled_final/1278_rv.mp4	0.0	342.3154139518738	0.0998537540435791
77	324.47355103492737	fix_pre	0		120	75.0	2.5	/experiments/knapen_AOT/AOT_stimuli/rescaled_final/0413_fw.mp4	0.0	342.41526770591736	1.008389949798584
77	325.48194098472595	movie	1		273	75.0	2.5	/experiments/knapen_AOT/AOT_stimuli/rescaled_final/0413_fw.mp4	0.0	343.42365765571594	2.492159128189087
77	325.8553786277771	pulse	1	t		75.0	2.5	/experiments/knapen_AOT/AOT_stimuli/rescaled_final/0413_fw.mp4	0.0	343.7970952987671	
77	327.4557056427002	pulse	1	t		75.0	2.5	/experiments/knapen_AOT/AOT_stimuli/rescaled_final/0413_fw.mp4	0.0	345.3974223136902	
77	327.97410011291504	fix_post	2		12	75.0	2.5	/experiments/knapen_AOT/AOT_stimuli/rescaled_final/0413_fw.mp4	0.0	345.91581678390503	0.10003185272216797
78	328.0741319656372	fix_pre	0		119	76.0	2.5	blank	1.0	346.0158486366272	0.9916260242462158
78	329.05757451057434	pulse	0	t		76.0	2.5	blank	1.0	346.99929118156433	
78	329.0657579898834	movie	1		301	76.0	2.5	blank	1.0	347.0074746608734	2.508741617202759
78	330.65007972717285	pulse	1	t		76.0	2.5	blank	1.0	348.59179639816284	
78	331.5744996070862	fix_post	2		12	76.0	2.5	blank	1.0	349.5162162780762	0.100067138671875
79	331.67456674575806	fix_pre	0		120	77.0	2.5	/experiments/knapen_AOT/AOT_stimuli/rescaled_final/1234_fw.mp4	0.0	349.61628341674805	1.0084521770477295
79	332.25005865097046	pulse	0	t		77.0	2.5	/experiments/knapen_AOT/AOT_stimuli/rescaled_final/1234_fw.mp4	0.0	350.19177532196045	
79	332.6830189228058	movie	1		272	77.0	2.5	/experiments/knapen_AOT/AOT_stimuli/rescaled_final/1234_fw.mp4	0.0	350.6247355937958	2.4922540187835693
79	333.8501408100128	pulse	1	t		77.0	2.5	/experiments/knapen_AOT/AOT_stimuli/rescaled_final/1234_fw.mp4	0.0	351.7918574810028	
79	335.17527294158936	fix_post	2		12	77.0	2.5	/experiments/knapen_AOT/AOT_stimuli/rescaled_final/1234_fw.mp4	0.0	353.11698961257935	0.09982657432556152
80	335.2750995159149	fix_pre	0		120	78.0	2.5	/experiments/knapen_AOT/AOT_stimuli/rescaled_final/0766_rv.mp4	0.0	353.2168161869049	1.0085968971252441
80	335.45056414604187	pulse	0	t		78.0	2.5	/experiments/knapen_AOT/AOT_stimuli/rescaled_final/0766_rv.mp4	0.0	353.39228081703186	
80	336.28369641304016	movie	1		272	78.0	2.5	/experiments/knapen_AOT/AOT_stimuli/rescaled_final/0766_rv.mp4	0.0	354.22541308403015	2.491915464401245
80	337.05064034461975	pulse	1	t		78.0	2.5	/experiments/knapen_AOT/AOT_stimuli/rescaled_final/0766_rv.mp4	0.0	354.99235701560974	
80	338.65109062194824	pulse	1	t		78.0	2.5	/experiments/knapen_AOT/AOT_stimuli/rescaled_final/0766_rv.mp4	0.0	356.59280729293823	
80	338.7756118774414	fix_post	2		12	78.0	2.5	/experiments/knapen_AOT/AOT_stimuli/rescaled_final/0766_rv.mp4	0.0	356.7173285484314	0.0999910831451416
81	338.87560296058655	fix_pre	0		120	79.0	2.5	/experiments/knapen_AOT/AOT_stimuli/rescaled_final/1891_fw.mp4	0.0	356.81731963157654	1.0087151527404785
81	339.884318113327	movie	1		285	79.0	2.5	/experiments/knapen_AOT/AOT_stimuli/rescaled_final/1891_fw.mp4	0.0	357.826034784317	2.491962194442749
81	340.25108075141907	pulse	1	t		79.0	2.5	/experiments/knapen_AOT/AOT_stimuli/rescaled_final/1891_fw.mp4	0.0	358.19279742240906	
81	341.85125708580017	pulse	1	t		79.0	2.5	/experiments/knapen_AOT/AOT_stimuli/rescaled_final/1891_fw.mp4	0.0	359.79297375679016	
81	342.3762803077698	fix_post	2		12	79.0	2.5	/experiments/knapen_AOT/AOT_stimuli/rescaled_final/1891_fw.mp4	0.0	360.31799697875977	0.10001683235168457
82	342.47629714012146	fix_pre	0		118	80.0	2.5	/experiments/knapen_AOT/AOT_stimuli/rescaled_final/1265_rv.mp4	0.0	360.41801381111145	0.991715669631958
82	343.4516181945801	pulse	0	t		80.0	2.5	/experiments/knapen_AOT/AOT_stimuli/rescaled_final/1265_rv.mp4	0.0	361.39333486557007	
82	343.4680128097534	movie	1		252	80.0	2.5	/experiments/knapen_AOT/AOT_stimuli/rescaled_final/1265_rv.mp4	0.0	361.4097294807434	2.5004591941833496
82	345.0501732826233	pulse	1	t		80.0	2.5	/experiments/knapen_AOT/AOT_stimuli/rescaled_final/1265_rv.mp4	0.0	362.9918899536133	
82	345.96847200393677	fix_post	2		12	80.0	2.5	/experiments/knapen_AOT/AOT_stimuli/rescaled_final/1265_rv.mp4	0.0	363.91018867492676	0.09986352920532227
83	346.0683355331421	fix_pre	0		120	81.0	2.5	/experiments/knapen_AOT/AOT_stimuli/rescaled_final/1693_rv.mp4	0.0	364.0100522041321	1.0084969997406006
83	346.65199303627014	pulse	0	t		81.0	2.5	/experiments/knapen_AOT/AOT_stimuli/rescaled_final/1693_rv.mp4	0.0	364.59370970726013	
83	347.0768325328827	movie	1		279	81.0	2.5	/experiments/knapen_AOT/AOT_stimuli/rescaled_final/1693_rv.mp4	0.0	365.0185492038727	2.492187976837158
83	348.2506814002991	pulse	1	t		81.0	2.5	/experiments/knapen_AOT/AOT_stimuli/rescaled_final/1693_rv.mp4	0.0	366.19239807128906	
83	349.56902050971985	fix_post	2		12	81.0	2.5	/experiments/knapen_AOT/AOT_stimuli/rescaled_final/1693_rv.mp4	0.0	367.51073718070984	0.09993553161621094
84	349.66895604133606	fix_pre	0		120	82.0	2.5	/experiments/knapen_AOT/AOT_stimuli/rescaled_final/0338_fw.mp4	0.0	367.61067271232605	1.0084924697875977
84	349.85262751579285	pulse	0	t		82.0	2.5	/experiments/knapen_AOT/AOT_stimuli/rescaled_final/0338_fw.mp4	0.0	367.79434418678284	
84	350.67744851112366	movie	1		288	82.0	2.5	/experiments/knapen_AOT/AOT_stimuli/rescaled_final/0338_fw.mp4	0.0	368.61916518211365	2.492129325866699
84	351.4523994922638	pulse	1	t		82.0	2.5	/experiments/knapen_AOT/AOT_stimuli/rescaled_final/0338_fw.mp4	0.0	369.3941161632538	
84	353.05110025405884	pulse	1	t		82.0	2.5	/experiments/knapen_AOT/AOT_stimuli/rescaled_final/0338_fw.mp4	0.0	370.9928169250488	
84	353.16957783699036	fix_post	2		12	82.0	2.5	/experiments/knapen_AOT/AOT_stimuli/rescaled_final/0338_fw.mp4	0.0	371.11129450798035	0.09986257553100586
85	353.26944041252136	fix_pre	0		120	83.0	2.5	blank	1.0	371.21115708351135	1.0001661777496338
85	354.269606590271	movie	1		300	83.0	2.5	blank	1.0	372.211323261261	2.500420570373535
85	354.65318417549133	pulse	1	t		83.0	2.5	blank	1.0	372.5949008464813	
85	356.25338912010193	pulse	1	t		83.0	2.5	blank	1.0	374.1951057910919	
85	356.77002716064453	fix_post	2		12	83.0	2.5	blank	1.0	374.7117438316345	0.12502717971801758
87	356.89505434036255	stim	0		1712					374.83677101135254	14.26877236366272
87	357.8536512851715	pulse	0	t						375.7953679561615	
87	359.4540286064148	pulse	0	t						377.3957452774048	
87	361.0541069507599	pulse	0	t						378.9958236217499	
87	362.65438055992126	pulse	0	t						380.59609723091125	
87	364.2546045780182	pulse	0	t						382.1963212490082	
87	365.85489416122437	pulse	0	t						383.79661083221436	
87	367.4550578594208	pulse	0	t						385.39677453041077	
87	369.055335521698	pulse	0	t						386.997052192688	
87	370.6555371284485	pulse	0	t						388.5972537994385	
