trial_nr	onset	event_type	phase	response	nr_frames	movie_index	movie_duration	movie_file	blank	onset_abs	duration
0	0.1587810516357422	stim	0		20					19.488409996032715	0.16615605354309082
0	0.30975794792175293	response	0	space						19.639386892318726	
1	0.324937105178833	stim	0		4822					19.654566049575806	40.191263914108276
1	40.50520300865173	pulse	0	t						59.834831953048706	
1	40.51620101928711	stim	1		1716					59.84582996368408	14.300060033798218
1	42.09996294975281	pulse	1	t						61.42959189414978	
1	43.69987607002258	pulse	1	t						63.029505014419556	
1	45.29983901977539	pulse	1	t						64.62946796417236	
1	46.89974403381348	pulse	1	t						66.22937297821045	
1	48.499829053878784	pulse	1	t						67.82945799827576	
1	50.09968304634094	pulse	1	t						69.42931199073792	
1	51.699695110321045	pulse	1	t						71.02932405471802	
1	53.299700021743774	pulse	1	t						72.62932896614075	
2	54.81626105308533	fix_pre	0		11	0.0	2.5	/experiments/AOT/AOT_stimuli/rescaled_final/1610_rv.mp4	0.0	74.1458899974823	0.0916910171508789
2	54.89977216720581	pulse	0	t		0.0	2.5	/experiments/AOT/AOT_stimuli/rescaled_final/1610_rv.mp4	0.0	74.22940111160278	
2	54.907952070236206	movie	1		242	0.0	2.5	/experiments/AOT/AOT_stimuli/rescaled_final/1610_rv.mp4	0.0	74.23758101463318	2.5083279609680176
2	56.499529123306274	pulse	1	t		0.0	2.5	/experiments/AOT/AOT_stimuli/rescaled_final/1610_rv.mp4	0.0	75.82915806770325	
2	57.416280031204224	fix_post	2		12	0.0	2.5	/experiments/AOT/AOT_stimuli/rescaled_final/1610_rv.mp4	0.0	76.7459089756012	0.09993815422058105
3	57.516218185424805	fix_pre	0		120	1.0	2.5	/experiments/AOT/AOT_stimuli/rescaled_final/1999_rv.mp4	0.0	76.84584712982178	1.0000717639923096
3	58.09985113143921	pulse	0	t		1.0	2.5	/experiments/AOT/AOT_stimuli/rescaled_final/1999_rv.mp4	0.0	77.42948007583618	
3	58.516289949417114	movie	1		245	1.0	2.5	/experiments/AOT/AOT_stimuli/rescaled_final/1999_rv.mp4	0.0	77.84591889381409	2.4996471405029297
3	59.69979810714722	pulse	1	t		1.0	2.5	/experiments/AOT/AOT_stimuli/rescaled_final/1999_rv.mp4	0.0	79.02942705154419	
3	61.015937089920044	fix_post	2		12	1.0	2.5	/experiments/AOT/AOT_stimuli/rescaled_final/1999_rv.mp4	0.0	80.34556603431702	0.10029792785644531
4	61.11623501777649	fix_pre	0		120	2.0	2.5	/experiments/AOT/AOT_stimuli/rescaled_final/1558_rv.mp4	0.0	80.44586396217346	1.0001420974731445
4	61.29967904090881	pulse	0	t		2.0	2.5	/experiments/AOT/AOT_stimuli/rescaled_final/1558_rv.mp4	0.0	80.62930798530579	
4	62.116377115249634	movie	1		247	2.0	2.5	/experiments/AOT/AOT_stimuli/rescaled_final/1558_rv.mp4	0.0	81.4460060596466	2.499814987182617
4	62.8997540473938	pulse	1	t		2.0	2.5	/experiments/AOT/AOT_stimuli/rescaled_final/1558_rv.mp4	0.0	82.22938299179077	
4	64.49925208091736	pulse	1	t		2.0	2.5	/experiments/AOT/AOT_stimuli/rescaled_final/1558_rv.mp4	0.0	83.82888102531433	
4	64.61619210243225	fix_post	2		12	2.0	2.5	/experiments/AOT/AOT_stimuli/rescaled_final/1558_rv.mp4	0.0	83.94582104682922	0.10007405281066895
5	64.71626615524292	fix_pre	0		120	3.0	2.5	/experiments/AOT/AOT_stimuli/rescaled_final/0449_rv.mp4	0.0	84.04589509963989	0.9999170303344727
5	65.71618318557739	movie	1		245	3.0	2.5	/experiments/AOT/AOT_stimuli/rescaled_final/0449_rv.mp4	0.0	85.04581212997437	2.5000579357147217
5	66.09920310974121	pulse	1	t		3.0	2.5	/experiments/AOT/AOT_stimuli/rescaled_final/0449_rv.mp4	0.0	85.42883205413818	
5	67.70056796073914	pulse	1	t		3.0	2.5	/experiments/AOT/AOT_stimuli/rescaled_final/0449_rv.mp4	0.0	87.03019690513611	
5	68.21624112129211	fix_post	2		12	3.0	2.5	/experiments/AOT/AOT_stimuli/rescaled_final/0449_rv.mp4	0.0	87.54587006568909	0.09992694854736328
6	68.31616806983948	fix_pre	0		119	4.0	2.5	/experiments/AOT/AOT_stimuli/rescaled_final/0883_fw.mp4	0.0	87.64579701423645	0.9917609691619873
6	69.29977297782898	pulse	0	t		4.0	2.5	/experiments/AOT/AOT_stimuli/rescaled_final/0883_fw.mp4	0.0	88.62940192222595	
6	69.30792903900146	movie	1		245	4.0	2.5	/experiments/AOT/AOT_stimuli/rescaled_final/0883_fw.mp4	0.0	88.63755798339844	2.50823712348938
6	70.90002202987671	pulse	1	t		4.0	2.5	/experiments/AOT/AOT_stimuli/rescaled_final/0883_fw.mp4	0.0	90.22965097427368	
6	71.81616616249084	fix_post	2		12	4.0	2.5	/experiments/AOT/AOT_stimuli/rescaled_final/0883_fw.mp4	0.0	91.14579510688782	0.1000518798828125
7	71.91621804237366	fix_pre	0		120	5.0	2.5	/experiments/AOT/AOT_stimuli/rescaled_final/0496_rv.mp4	0.0	91.24584698677063	0.9999890327453613
7	72.49970412254333	pulse	0	t		5.0	2.5	/experiments/AOT/AOT_stimuli/rescaled_final/0496_rv.mp4	0.0	91.82933306694031	
7	72.91620707511902	movie	1		243	5.0	2.5	/experiments/AOT/AOT_stimuli/rescaled_final/0496_rv.mp4	0.0	92.24583601951599	2.4999589920043945
7	74.09976100921631	pulse	1	t		5.0	2.5	/experiments/AOT/AOT_stimuli/rescaled_final/0496_rv.mp4	0.0	93.42938995361328	
7	75.41616606712341	fix_post	2		12	5.0	2.5	/experiments/AOT/AOT_stimuli/rescaled_final/0496_rv.mp4	0.0	94.74579501152039	0.10009098052978516
8	75.5162570476532	fix_pre	0		120	6.0	2.5	/experiments/AOT/AOT_stimuli/rescaled_final/1146_rv.mp4	0.0	94.84588599205017	0.9999549388885498
8	75.69965100288391	pulse	0	t		6.0	2.5	/experiments/AOT/AOT_stimuli/rescaled_final/1146_rv.mp4	0.0	95.02927994728088	
8	76.51621198654175	movie	1		244	6.0	2.5	/experiments/AOT/AOT_stimuli/rescaled_final/1146_rv.mp4	0.0	95.84584093093872	2.500051975250244
8	77.29970097541809	pulse	1	t		6.0	2.5	/experiments/AOT/AOT_stimuli/rescaled_final/1146_rv.mp4	0.0	96.62932991981506	
8	78.90811014175415	pulse	1	t		6.0	2.5	/experiments/AOT/AOT_stimuli/rescaled_final/1146_rv.mp4	0.0	98.23773908615112	
8	79.01626396179199	fix_post	2		12	6.0	2.5	/experiments/AOT/AOT_stimuli/rescaled_final/1146_rv.mp4	0.0	98.34589290618896	0.0998680591583252
9	79.11613202095032	fix_pre	0		120	7.0	2.5	blank	1.0	98.44576096534729	1.000082015991211
9	80.11621403694153	movie	1		300	7.0	2.5	blank	1.0	99.4458429813385	2.499980926513672
9	80.49976706504822	pulse	1	t		7.0	2.5	blank	1.0	99.82939600944519	
9	82.09962606430054	pulse	1	t		7.0	2.5	blank	1.0	101.42925500869751	
9	82.6161949634552	fix_post	2		12	7.0	2.5	blank	1.0	101.94582390785217	0.09996199607849121
10	82.71615695953369	fix_pre	0		120	8.0	2.5	/experiments/AOT/AOT_stimuli/rescaled_final/0589_rv.mp4	0.0	102.04578590393066	1.0000500679016113
10	83.70047807693481	pulse	0	t		8.0	2.5	/experiments/AOT/AOT_stimuli/rescaled_final/0589_rv.mp4	0.0	103.03010702133179	
10	83.7162070274353	movie	1		247	8.0	2.5	/experiments/AOT/AOT_stimuli/rescaled_final/0589_rv.mp4	0.0	103.04583597183228	2.5082640647888184
10	85.29970908164978	pulse	1	t		8.0	2.5	/experiments/AOT/AOT_stimuli/rescaled_final/0589_rv.mp4	0.0	104.62933802604675	
10	86.22447109222412	fix_post	2		12	8.0	2.5	/experiments/AOT/AOT_stimuli/rescaled_final/0589_rv.mp4	0.0	105.5541000366211	0.09997296333312988
11	86.32444405555725	fix_pre	0		120	9.0	2.5	/experiments/AOT/AOT_stimuli/rescaled_final/1848_fw.mp4	0.0	105.65407299995422	1.0000970363616943
11	86.89968800544739	pulse	0	t		9.0	2.5	/experiments/AOT/AOT_stimuli/rescaled_final/1848_fw.mp4	0.0	106.22931694984436	
11	87.32454109191895	movie	1		242	9.0	2.5	/experiments/AOT/AOT_stimuli/rescaled_final/1848_fw.mp4	0.0	106.65417003631592	2.4998888969421387
11	88.50809097290039	pulse	1	t		9.0	2.5	/experiments/AOT/AOT_stimuli/rescaled_final/1848_fw.mp4	0.0	107.83771991729736	
11	89.82442998886108	fix_post	2		12	9.0	2.5	/experiments/AOT/AOT_stimuli/rescaled_final/1848_fw.mp4	0.0	109.15405893325806	0.10001707077026367
12	89.92444705963135	fix_pre	0		120	10.0	2.5	/experiments/AOT/AOT_stimuli/rescaled_final/1918_fw.mp4	0.0	109.25407600402832	0.9999239444732666
12	90.10039496421814	pulse	0	t		10.0	2.5	/experiments/AOT/AOT_stimuli/rescaled_final/1918_fw.mp4	0.0	109.43002390861511	
12	90.92437100410461	movie	1		243	10.0	2.5	/experiments/AOT/AOT_stimuli/rescaled_final/1918_fw.mp4	0.0	110.25399994850159	2.5001120567321777
12	91.699627161026	pulse	1	t		10.0	2.5	/experiments/AOT/AOT_stimuli/rescaled_final/1918_fw.mp4	0.0	111.02925610542297	
12	93.29961514472961	pulse	1	t		10.0	2.5	/experiments/AOT/AOT_stimuli/rescaled_final/1918_fw.mp4	0.0	112.62924408912659	
12	93.42448306083679	fix_post	2		12	10.0	2.5	/experiments/AOT/AOT_stimuli/rescaled_final/1918_fw.mp4	0.0	112.75411200523376	0.09990191459655762
13	93.52438497543335	fix_pre	0		120	11.0	2.5	/experiments/AOT/AOT_stimuli/rescaled_final/0854_rv.mp4	0.0	112.85401391983032	0.99965500831604
13	94.52403998374939	movie	1		245	11.0	2.5	/experiments/AOT/AOT_stimuli/rescaled_final/0854_rv.mp4	0.0	113.85366892814636	2.500319004058838
13	94.89911317825317	pulse	1	t		11.0	2.5	/experiments/AOT/AOT_stimuli/rescaled_final/0854_rv.mp4	0.0	114.22874212265015	
13	96.49936318397522	pulse	1	t		11.0	2.5	/experiments/AOT/AOT_stimuli/rescaled_final/0854_rv.mp4	0.0	115.82899212837219	
13	97.02435898780823	fix_post	2		12	11.0	2.5	/experiments/AOT/AOT_stimuli/rescaled_final/0854_rv.mp4	0.0	116.3539879322052	0.09996199607849121
14	97.12432098388672	fix_pre	0		118	12.0	2.5	/experiments/AOT/AOT_stimuli/rescaled_final/1076_fw.mp4	0.0	116.45394992828369	0.9834740161895752
14	98.09969210624695	pulse	0	t		12.0	2.5	/experiments/AOT/AOT_stimuli/rescaled_final/1076_fw.mp4	0.0	117.42932105064392	
14	98.1077950000763	movie	1		243	12.0	2.5	/experiments/AOT/AOT_stimuli/rescaled_final/1076_fw.mp4	0.0	117.43742394447327	2.5082831382751465
14	99.70792007446289	pulse	1	t		12.0	2.5	/experiments/AOT/AOT_stimuli/rescaled_final/1076_fw.mp4	0.0	119.03754901885986	
14	100.61607813835144	fix_post	2		12	12.0	2.5	/experiments/AOT/AOT_stimuli/rescaled_final/1076_fw.mp4	0.0	119.94570708274841	0.10000801086425781
15	100.7160861492157	fix_pre	0		120	13.0	2.5	blank	1.0	120.04571509361267	0.9999649524688721
15	101.30035614967346	pulse	0	t		13.0	2.5	blank	1.0	120.62998509407043	
15	101.71605110168457	movie	1		300	13.0	2.5	blank	1.0	121.04568004608154	2.5000410079956055
15	102.90032315254211	pulse	1	t		13.0	2.5	blank	1.0	122.22995209693909	
15	104.21609210968018	fix_post	2		12	13.0	2.5	blank	1.0	123.54572105407715	0.09990286827087402
16	104.31599497795105	fix_pre	0		120	14.0	2.5	/experiments/AOT/AOT_stimuli/rescaled_final/0549_rv.mp4	0.0	123.64562392234802	1.0000970363616943
16	104.50030016899109	pulse	0	t		14.0	2.5	/experiments/AOT/AOT_stimuli/rescaled_final/0549_rv.mp4	0.0	123.82992911338806	
16	105.31609201431274	movie	1		243	14.0	2.5	/experiments/AOT/AOT_stimuli/rescaled_final/0549_rv.mp4	0.0	124.64572095870972	2.500375986099243
16	106.09952807426453	pulse	1	t		14.0	2.5	/experiments/AOT/AOT_stimuli/rescaled_final/0549_rv.mp4	0.0	125.4291570186615	
16	107.70789408683777	pulse	1	t		14.0	2.5	/experiments/AOT/AOT_stimuli/rescaled_final/0549_rv.mp4	0.0	127.03752303123474	
16	107.81646800041199	fix_post	2		12	14.0	2.5	/experiments/AOT/AOT_stimuli/rescaled_final/0549_rv.mp4	0.0	127.14609694480896	0.09957504272460938
17	107.9160430431366	fix_pre	0		120	15.0	2.5	/experiments/AOT/AOT_stimuli/rescaled_final/1763_fw.mp4	0.0	127.24567198753357	0.9999649524688721
17	108.91600799560547	movie	1		244	15.0	2.5	/experiments/AOT/AOT_stimuli/rescaled_final/1763_fw.mp4	0.0	128.24563694000244	2.5000200271606445
17	109.3079481124878	pulse	1	t		15.0	2.5	/experiments/AOT/AOT_stimuli/rescaled_final/1763_fw.mp4	0.0	128.63757705688477	
17	110.89944195747375	pulse	1	t		15.0	2.5	/experiments/AOT/AOT_stimuli/rescaled_final/1763_fw.mp4	0.0	130.22907090187073	
17	111.41602802276611	fix_post	2		12	15.0	2.5	/experiments/AOT/AOT_stimuli/rescaled_final/1763_fw.mp4	0.0	130.7456569671631	0.09998297691345215
18	111.51601099967957	fix_pre	0		119	16.0	2.5	/experiments/AOT/AOT_stimuli/rescaled_final/0043_fw.mp4	0.0	130.84563994407654	0.991685152053833
18	112.49947500228882	pulse	0	t		16.0	2.5	/experiments/AOT/AOT_stimuli/rescaled_final/0043_fw.mp4	0.0	131.8291039466858	
18	112.5076961517334	movie	1		245	16.0	2.5	/experiments/AOT/AOT_stimuli/rescaled_final/0043_fw.mp4	0.0	131.83732509613037	2.5083329677581787
18	114.09926795959473	pulse	1	t		16.0	2.5	/experiments/AOT/AOT_stimuli/rescaled_final/0043_fw.mp4	0.0	133.4288969039917	
18	115.01602911949158	fix_post	2		12	16.0	2.5	/experiments/AOT/AOT_stimuli/rescaled_final/0043_fw.mp4	0.0	134.34565806388855	0.10002684593200684
19	115.11605596542358	fix_pre	0		120	17.0	2.5	/experiments/AOT/AOT_stimuli/rescaled_final/0208_rv.mp4	0.0	134.44568490982056	0.9996421337127686
19	115.69945001602173	pulse	0	t		17.0	2.5	/experiments/AOT/AOT_stimuli/rescaled_final/0208_rv.mp4	0.0	135.0290789604187	
19	116.11569809913635	movie	1		246	17.0	2.5	/experiments/AOT/AOT_stimuli/rescaled_final/0208_rv.mp4	0.0	135.44532704353333	2.4998669624328613
19	117.30061101913452	pulse	1	t		17.0	2.5	/experiments/AOT/AOT_stimuli/rescaled_final/0208_rv.mp4	0.0	136.6302399635315	
19	118.61556506156921	fix_post	2		12	17.0	2.5	/experiments/AOT/AOT_stimuli/rescaled_final/0208_rv.mp4	0.0	137.9451940059662	0.10045909881591797
20	118.71602416038513	fix_pre	0		120	18.0	2.5	/experiments/AOT/AOT_stimuli/rescaled_final/2001_fw.mp4	0.0	138.0456531047821	0.9999439716339111
20	118.90028715133667	pulse	0	t		18.0	2.5	/experiments/AOT/AOT_stimuli/rescaled_final/2001_fw.mp4	0.0	138.22991609573364	
20	119.71596813201904	movie	1		243	18.0	2.5	/experiments/AOT/AOT_stimuli/rescaled_final/2001_fw.mp4	0.0	139.04559707641602	2.499919891357422
20	120.50035405158997	pulse	1	t		18.0	2.5	/experiments/AOT/AOT_stimuli/rescaled_final/2001_fw.mp4	0.0	139.82998299598694	
20	122.10781002044678	pulse	1	t		18.0	2.5	/experiments/AOT/AOT_stimuli/rescaled_final/2001_fw.mp4	0.0	141.43743896484375	
20	122.21588802337646	fix_post	2		12	18.0	2.5	/experiments/AOT/AOT_stimuli/rescaled_final/2001_fw.mp4	0.0	141.54551696777344	0.10010409355163574
21	122.3159921169281	fix_pre	0		120	19.0	2.5	blank	1.0	141.64562106132507	0.999932050704956
21	123.31592416763306	movie	1		300	19.0	2.5	blank	1.0	142.64555311203003	2.499987840652466
21	123.69947004318237	pulse	1	t		19.0	2.5	blank	1.0	143.02909898757935	
21	125.29937601089478	pulse	1	t		19.0	2.5	blank	1.0	144.62900495529175	
21	125.81591200828552	fix_post	2		12	19.0	2.5	blank	1.0	145.1455409526825	0.10003900527954102
22	125.91595101356506	fix_pre	0		119	20.0	2.5	/experiments/AOT/AOT_stimuli/rescaled_final/0595_rv.mp4	0.0	145.24557995796204	0.9916300773620605
22	126.89945006370544	pulse	0	t		20.0	2.5	/experiments/AOT/AOT_stimuli/rescaled_final/0595_rv.mp4	0.0	146.22907900810242	
22	126.90758109092712	movie	1		244	20.0	2.5	/experiments/AOT/AOT_stimuli/rescaled_final/0595_rv.mp4	0.0	146.2372100353241	2.507930040359497
22	128.5006639957428	pulse	1	t		20.0	2.5	/experiments/AOT/AOT_stimuli/rescaled_final/0595_rv.mp4	0.0	147.83029294013977	
22	129.41551113128662	fix_post	2		12	20.0	2.5	/experiments/AOT/AOT_stimuli/rescaled_final/0595_rv.mp4	0.0	148.7451400756836	0.10043787956237793
23	129.515949010849	fix_pre	0		120	21.0	2.5	/experiments/AOT/AOT_stimuli/rescaled_final/0741_fw.mp4	0.0	148.84557795524597	1.0000171661376953
23	130.09943008422852	pulse	0	t		21.0	2.5	/experiments/AOT/AOT_stimuli/rescaled_final/0741_fw.mp4	0.0	149.4290590286255	
23	130.5159661769867	movie	1		245	21.0	2.5	/experiments/AOT/AOT_stimuli/rescaled_final/0741_fw.mp4	0.0	149.84559512138367	2.499508857727051
23	131.70103216171265	pulse	1	t		21.0	2.5	/experiments/AOT/AOT_stimuli/rescaled_final/0741_fw.mp4	0.0	151.03066110610962	
23	133.01547503471375	fix_post	2		12	21.0	2.5	/experiments/AOT/AOT_stimuli/rescaled_final/0741_fw.mp4	0.0	152.34510397911072	0.10041213035583496
24	133.11588716506958	fix_pre	0		120	22.0	2.5	/experiments/AOT/AOT_stimuli/rescaled_final/2052_rv.mp4	0.0	152.44551610946655	0.9999558925628662
24	133.30018997192383	pulse	0	t		22.0	2.5	/experiments/AOT/AOT_stimuli/rescaled_final/2052_rv.mp4	0.0	152.6298189163208	
24	134.11584305763245	movie	1		246	22.0	2.5	/experiments/AOT/AOT_stimuli/rescaled_final/2052_rv.mp4	0.0	153.44547200202942	2.4996039867401123
24	134.9003610610962	pulse	1	t		22.0	2.5	/experiments/AOT/AOT_stimuli/rescaled_final/2052_rv.mp4	0.0	154.22999000549316	
24	136.50788116455078	pulse	1	t		22.0	2.5	/experiments/AOT/AOT_stimuli/rescaled_final/2052_rv.mp4	0.0	155.83751010894775	
24	136.61544704437256	fix_post	2		12	22.0	2.5	/experiments/AOT/AOT_stimuli/rescaled_final/2052_rv.mp4	0.0	155.94507598876953	0.10040497779846191
25	136.71585202217102	fix_pre	0		120	23.0	2.5	/experiments/AOT/AOT_stimuli/rescaled_final/0228_rv.mp4	0.0	156.045480966568	1.000020980834961
25	137.71587300300598	movie	1		243	23.0	2.5	/experiments/AOT/AOT_stimuli/rescaled_final/0228_rv.mp4	0.0	157.04550194740295	2.5000510215759277
25	138.0995330810547	pulse	1	t		23.0	2.5	/experiments/AOT/AOT_stimuli/rescaled_final/0228_rv.mp4	0.0	157.42916202545166	
25	139.6993169784546	pulse	1	t		23.0	2.5	/experiments/AOT/AOT_stimuli/rescaled_final/0228_rv.mp4	0.0	159.02894592285156	
25	140.2159240245819	fix_post	2		12	23.0	2.5	/experiments/AOT/AOT_stimuli/rescaled_final/0228_rv.mp4	0.0	159.54555296897888	0.09993600845336914
26	140.31586003303528	fix_pre	0		119	24.0	2.5	/experiments/AOT/AOT_stimuli/rescaled_final/1843_rv.mp4	0.0	159.64548897743225	0.9916880130767822
26	141.29935717582703	pulse	0	t		24.0	2.5	/experiments/AOT/AOT_stimuli/rescaled_final/1843_rv.mp4	0.0	160.628986120224	
26	141.30754804611206	movie	1		246	24.0	2.5	/experiments/AOT/AOT_stimuli/rescaled_final/1843_rv.mp4	0.0	160.63717699050903	2.5078580379486084
26	142.90773701667786	pulse	1	t		24.0	2.5	/experiments/AOT/AOT_stimuli/rescaled_final/1843_rv.mp4	0.0	162.23736596107483	
26	143.81540608406067	fix_post	2		12	24.0	2.5	/experiments/AOT/AOT_stimuli/rescaled_final/1843_rv.mp4	0.0	163.14503502845764	0.10047602653503418
27	143.9158821105957	fix_pre	0		120	25.0	2.5	/experiments/AOT/AOT_stimuli/rescaled_final/0965_rv.mp4	0.0	163.24551105499268	0.9995059967041016
27	144.4993360042572	pulse	0	t		25.0	2.5	/experiments/AOT/AOT_stimuli/rescaled_final/0965_rv.mp4	0.0	163.82896494865417	
27	144.9153881072998	movie	1		243	25.0	2.5	/experiments/AOT/AOT_stimuli/rescaled_final/0965_rv.mp4	0.0	164.24501705169678	2.500062942504883
27	146.0993890762329	pulse	1	t		25.0	2.5	/experiments/AOT/AOT_stimuli/rescaled_final/0965_rv.mp4	0.0	165.42901802062988	
27	147.4154510498047	fix_post	2		12	25.0	2.5	/experiments/AOT/AOT_stimuli/rescaled_final/0965_rv.mp4	0.0	166.74507999420166	0.10044598579406738
28	147.51589703559875	fix_pre	0		120	26.0	2.5	/experiments/AOT/AOT_stimuli/rescaled_final/1325_fw.mp4	0.0	166.84552597999573	0.9999871253967285
28	147.70024800300598	pulse	0	t		26.0	2.5	/experiments/AOT/AOT_stimuli/rescaled_final/1325_fw.mp4	0.0	167.02987694740295	
28	148.51588416099548	movie	1		244	26.0	2.5	/experiments/AOT/AOT_stimuli/rescaled_final/1325_fw.mp4	0.0	167.84551310539246	2.4995999336242676
28	149.300124168396	pulse	1	t		26.0	2.5	/experiments/AOT/AOT_stimuli/rescaled_final/1325_fw.mp4	0.0	168.62975311279297	
28	150.90025210380554	pulse	1	t		26.0	2.5	/experiments/AOT/AOT_stimuli/rescaled_final/1325_fw.mp4	0.0	170.22988104820251	
28	151.01548409461975	fix_post	2		12	26.0	2.5	/experiments/AOT/AOT_stimuli/rescaled_final/1325_fw.mp4	0.0	170.34511303901672	0.10007500648498535
29	151.11555910110474	fix_pre	0		120	27.0	2.5	blank	1.0	170.4451880455017	1.0000629425048828
29	152.11562204360962	movie	1		300	27.0	2.5	blank	1.0	171.4452509880066	2.5002050399780273
29	152.49955010414124	pulse	1	t		27.0	2.5	blank	1.0	171.8291790485382	
29	154.09929394721985	pulse	1	t		27.0	2.5	blank	1.0	173.42892289161682	
29	154.61582708358765	fix_post	2		12	27.0	2.5	blank	1.0	173.94545602798462	0.10005688667297363
30	154.71588397026062	fix_pre	0		120	28.0	2.5	/experiments/AOT/AOT_stimuli/rescaled_final/0930_fw.mp4	0.0	174.0455129146576	0.9999921321868896
30	155.70005297660828	pulse	0	t		28.0	2.5	/experiments/AOT/AOT_stimuli/rescaled_final/0930_fw.mp4	0.0	175.02968192100525	
30	155.7158761024475	movie	1		245	28.0	2.5	/experiments/AOT/AOT_stimuli/rescaled_final/0930_fw.mp4	0.0	175.04550504684448	2.5082759857177734
30	157.2993130683899	pulse	1	t		28.0	2.5	/experiments/AOT/AOT_stimuli/rescaled_final/0930_fw.mp4	0.0	176.62894201278687	
30	158.22415208816528	fix_post	2		12	28.0	2.5	/experiments/AOT/AOT_stimuli/rescaled_final/0930_fw.mp4	0.0	177.55378103256226	0.09994006156921387
31	158.3240921497345	fix_pre	0		120	29.0	2.5	/experiments/AOT/AOT_stimuli/rescaled_final/0716_fw.mp4	0.0	177.65372109413147	0.9996030330657959
31	158.89922714233398	pulse	0	t		29.0	2.5	/experiments/AOT/AOT_stimuli/rescaled_final/0716_fw.mp4	0.0	178.22885608673096	
31	159.3236951828003	movie	1		245	29.0	2.5	/experiments/AOT/AOT_stimuli/rescaled_final/0716_fw.mp4	0.0	178.65332412719727	2.500377893447876
31	160.50040817260742	pulse	1	t		29.0	2.5	/experiments/AOT/AOT_stimuli/rescaled_final/0716_fw.mp4	0.0	179.8300371170044	
31	161.82407307624817	fix_post	2		12	29.0	2.5	/experiments/AOT/AOT_stimuli/rescaled_final/0716_fw.mp4	0.0	181.15370202064514	0.10001492500305176
32	161.92408800125122	fix_pre	0		120	30.0	2.5	/experiments/AOT/AOT_stimuli/rescaled_final/2057_fw.mp4	0.0	181.2537169456482	1.000025987625122
32	162.09935808181763	pulse	0	t		30.0	2.5	/experiments/AOT/AOT_stimuli/rescaled_final/2057_fw.mp4	0.0	181.4289870262146	
32	162.92411398887634	movie	1		243	30.0	2.5	/experiments/AOT/AOT_stimuli/rescaled_final/2057_fw.mp4	0.0	182.25374293327332	2.4999141693115234
32	163.6992130279541	pulse	1	t		30.0	2.5	/experiments/AOT/AOT_stimuli/rescaled_final/2057_fw.mp4	0.0	183.02884197235107	
32	165.3060290813446	pulse	1	t		30.0	2.5	/experiments/AOT/AOT_stimuli/rescaled_final/2057_fw.mp4	0.0	184.63565802574158	
32	165.42402815818787	fix_post	2		12	30.0	2.5	/experiments/AOT/AOT_stimuli/rescaled_final/2057_fw.mp4	0.0	184.75365710258484	0.10004997253417969
33	165.52407813072205	fix_pre	0		120	31.0	2.5	/experiments/AOT/AOT_stimuli/rescaled_final/0716_rv.mp4	0.0	184.85370707511902	1.0000040531158447
33	166.5240821838379	movie	1		243	31.0	2.5	/experiments/AOT/AOT_stimuli/rescaled_final/0716_rv.mp4	0.0	185.85371112823486	2.499976873397827
33	166.90729117393494	pulse	1	t		31.0	2.5	/experiments/AOT/AOT_stimuli/rescaled_final/0716_rv.mp4	0.0	186.2369201183319	
33	168.50023913383484	pulse	1	t		31.0	2.5	/experiments/AOT/AOT_stimuli/rescaled_final/0716_rv.mp4	0.0	187.8298680782318	
33	169.02405905723572	fix_post	2		12	31.0	2.5	/experiments/AOT/AOT_stimuli/rescaled_final/0716_rv.mp4	0.0	188.3536880016327	0.09996199607849121
34	169.1240210533142	fix_pre	0		119	32.0	2.5	/experiments/AOT/AOT_stimuli/rescaled_final/1648_rv.mp4	0.0	188.45364999771118	0.9916610717773438
34	170.0999400615692	pulse	0	t		32.0	2.5	/experiments/AOT/AOT_stimuli/rescaled_final/1648_rv.mp4	0.0	189.4295690059662	
34	170.11568212509155	movie	1		244	32.0	2.5	/experiments/AOT/AOT_stimuli/rescaled_final/1648_rv.mp4	0.0	189.44531106948853	2.5083799362182617
34	171.7072901725769	pulse	1	t		32.0	2.5	/experiments/AOT/AOT_stimuli/rescaled_final/1648_rv.mp4	0.0	191.03691911697388	
34	172.62406206130981	fix_post	2		12	32.0	2.5	/experiments/AOT/AOT_stimuli/rescaled_final/1648_rv.mp4	0.0	191.9536910057068	0.09995007514953613
35	172.72401213645935	fix_pre	0		120	33.0	2.5	/experiments/AOT/AOT_stimuli/rescaled_final/0474_rv.mp4	0.0	192.05364108085632	1.000053882598877
35	173.30002212524414	pulse	0	t		33.0	2.5	/experiments/AOT/AOT_stimuli/rescaled_final/0474_rv.mp4	0.0	192.6296510696411	
35	173.72406601905823	movie	1		243	33.0	2.5	/experiments/AOT/AOT_stimuli/rescaled_final/0474_rv.mp4	0.0	193.0536949634552	2.500028133392334
35	174.90760612487793	pulse	1	t		33.0	2.5	/experiments/AOT/AOT_stimuli/rescaled_final/0474_rv.mp4	0.0	194.2372350692749	
35	176.22409415245056	fix_post	2		12	33.0	2.5	/experiments/AOT/AOT_stimuli/rescaled_final/0474_rv.mp4	0.0	195.55372309684753	0.09981489181518555
36	176.32390904426575	fix_pre	0		120	34.0	2.5	blank	1.0	195.65353798866272	1.000162124633789
36	176.499183177948	pulse	0	t		34.0	2.5	blank	1.0	195.82881212234497	
36	177.32407116889954	movie	1		300	34.0	2.5	blank	1.0	196.6537001132965	2.4999289512634277
36	178.0991871356964	pulse	1	t		34.0	2.5	blank	1.0	197.42881608009338	
36	179.6991410255432	pulse	1	t		34.0	2.5	blank	1.0	199.02876996994019	
36	179.82400012016296	fix_post	2		12	34.0	2.5	blank	1.0	199.15362906455994	0.10010099411010742
37	179.92410111427307	fix_pre	0		120	35.0	2.5	/experiments/AOT/AOT_stimuli/rescaled_final/0713_rv.mp4	0.0	199.25373005867004	0.9994199275970459
37	180.92352104187012	movie	1		246	35.0	2.5	/experiments/AOT/AOT_stimuli/rescaled_final/0713_rv.mp4	0.0	200.2531499862671	2.5003910064697266
37	181.3069190979004	pulse	1	t		35.0	2.5	/experiments/AOT/AOT_stimuli/rescaled_final/0713_rv.mp4	0.0	200.63654804229736	
37	182.9002401828766	pulse	1	t		35.0	2.5	/experiments/AOT/AOT_stimuli/rescaled_final/0713_rv.mp4	0.0	202.22986912727356	
37	183.42391204833984	fix_post	2		12	35.0	2.5	/experiments/AOT/AOT_stimuli/rescaled_final/0713_rv.mp4	0.0	202.75354099273682	0.10002303123474121
38	183.52393507957458	fix_pre	0		119	36.0	2.5	/experiments/AOT/AOT_stimuli/rescaled_final/0037_rv.mp4	0.0	202.85356402397156	0.9916520118713379
38	184.4999270439148	pulse	0	t		36.0	2.5	/experiments/AOT/AOT_stimuli/rescaled_final/0037_rv.mp4	0.0	203.82955598831177	
38	184.51558709144592	movie	1		246	36.0	2.5	/experiments/AOT/AOT_stimuli/rescaled_final/0037_rv.mp4	0.0	203.8452160358429	2.508436918258667
38	186.10703110694885	pulse	1	t		36.0	2.5	/experiments/AOT/AOT_stimuli/rescaled_final/0037_rv.mp4	0.0	205.43666005134583	
38	187.0240240097046	fix_post	2		12	36.0	2.5	/experiments/AOT/AOT_stimuli/rescaled_final/0037_rv.mp4	0.0	206.35365295410156	0.10003805160522461
39	187.12406206130981	fix_pre	0		120	37.0	2.5	/experiments/AOT/AOT_stimuli/rescaled_final/0339_fw.mp4	0.0	206.4536910057068	1.000014066696167
39	187.69987106323242	pulse	0	t		37.0	2.5	/experiments/AOT/AOT_stimuli/rescaled_final/0339_fw.mp4	0.0	207.0295000076294	
39	188.12407612800598	movie	1		245	37.0	2.5	/experiments/AOT/AOT_stimuli/rescaled_final/0339_fw.mp4	0.0	207.45370507240295	2.4994699954986572
39	189.30747413635254	pulse	1	t		37.0	2.5	/experiments/AOT/AOT_stimuli/rescaled_final/0339_fw.mp4	0.0	208.6371030807495	
39	190.62354612350464	fix_post	2		12	37.0	2.5	/experiments/AOT/AOT_stimuli/rescaled_final/0339_fw.mp4	0.0	209.9531750679016	0.10047698020935059
40	190.724023103714	fix_pre	0		120	38.0	2.5	/experiments/AOT/AOT_stimuli/rescaled_final/1410_rv.mp4	0.0	210.05365204811096	1.0000240802764893
40	190.89990997314453	pulse	0	t		38.0	2.5	/experiments/AOT/AOT_stimuli/rescaled_final/1410_rv.mp4	0.0	210.2295389175415	
40	191.72404718399048	movie	1		244	38.0	2.5	/experiments/AOT/AOT_stimuli/rescaled_final/1410_rv.mp4	0.0	211.05367612838745	2.500020980834961
40	192.4991819858551	pulse	1	t		38.0	2.5	/experiments/AOT/AOT_stimuli/rescaled_final/1410_rv.mp4	0.0	211.82881093025208	
40	194.0991621017456	pulse	1	t		38.0	2.5	/experiments/AOT/AOT_stimuli/rescaled_final/1410_rv.mp4	0.0	213.42879104614258	
40	194.22406816482544	fix_post	2		12	38.0	2.5	/experiments/AOT/AOT_stimuli/rescaled_final/1410_rv.mp4	0.0	213.5536971092224	0.09984183311462402
41	194.32390999794006	fix_pre	0		120	39.0	2.5	/experiments/AOT/AOT_stimuli/rescaled_final/0208_rv.mp4	0.0	213.65353894233704	1.0000560283660889
41	195.32396602630615	movie	1		244	39.0	2.5	/experiments/AOT/AOT_stimuli/rescaled_final/0208_rv.mp4	0.0	214.65359497070312	2.4999260902404785
41	195.707013130188	pulse	1	t		39.0	2.5	/experiments/AOT/AOT_stimuli/rescaled_final/0208_rv.mp4	0.0	215.03664207458496	
41	197.30004596710205	pulse	1	t		39.0	2.5	/experiments/AOT/AOT_stimuli/rescaled_final/0208_rv.mp4	0.0	216.62967491149902	
41	197.82389211654663	fix_post	2		12	39.0	2.5	/experiments/AOT/AOT_stimuli/rescaled_final/0208_rv.mp4	0.0	217.1535210609436	0.099578857421875
42	197.9234709739685	fix_pre	0		119	40.0	2.5	blank	1.0	217.25309991836548	0.9920971393585205
42	198.89986395835876	pulse	0	t		40.0	2.5	blank	1.0	218.22949290275574	
42	198.91556811332703	movie	1		301	40.0	2.5	blank	1.0	218.245197057724	2.5083889961242676
42	200.49986910820007	pulse	1	t		40.0	2.5	blank	1.0	219.82949805259705	
42	201.4239571094513	fix_post	2		12	40.0	2.5	blank	1.0	220.75358605384827	0.09955692291259766
43	201.5235140323639	fix_pre	0		120	41.0	2.5	/experiments/AOT/AOT_stimuli/rescaled_final/0285_rv.mp4	0.0	220.85314297676086	1.0004141330718994
43	202.09986400604248	pulse	0	t		41.0	2.5	/experiments/AOT/AOT_stimuli/rescaled_final/0285_rv.mp4	0.0	221.42949295043945	
43	202.5239281654358	movie	1		242	41.0	2.5	/experiments/AOT/AOT_stimuli/rescaled_final/0285_rv.mp4	0.0	221.85355710983276	2.4995439052581787
43	203.7074739933014	pulse	1	t		41.0	2.5	/experiments/AOT/AOT_stimuli/rescaled_final/0285_rv.mp4	0.0	223.03710293769836	
43	205.02347207069397	fix_post	2		12	41.0	2.5	/experiments/AOT/AOT_stimuli/rescaled_final/0285_rv.mp4	0.0	224.35310101509094	0.10044407844543457
44	205.1239161491394	fix_pre	0		120	42.0	2.5	/experiments/AOT/AOT_stimuli/rescaled_final/1848_rv.mp4	0.0	224.45354509353638	0.9995989799499512
44	205.29998517036438	pulse	0	t		42.0	2.5	/experiments/AOT/AOT_stimuli/rescaled_final/1848_rv.mp4	0.0	224.62961411476135	
44	206.12351512908936	movie	1		243	42.0	2.5	/experiments/AOT/AOT_stimuli/rescaled_final/1848_rv.mp4	0.0	225.45314407348633	2.5002028942108154
44	206.89947199821472	pulse	1	t		42.0	2.5	/experiments/AOT/AOT_stimuli/rescaled_final/1848_rv.mp4	0.0	226.2291009426117	
44	208.4992389678955	pulse	1	t		42.0	2.5	/experiments/AOT/AOT_stimuli/rescaled_final/1848_rv.mp4	0.0	227.82886791229248	
44	208.62371802330017	fix_post	2		12	42.0	2.5	/experiments/AOT/AOT_stimuli/rescaled_final/1848_rv.mp4	0.0	227.95334696769714	0.10004115104675293
45	208.72375917434692	fix_pre	0		120	43.0	2.5	/experiments/AOT/AOT_stimuli/rescaled_final/1567_rv.mp4	0.0	228.0533881187439	1.0001227855682373
45	209.72388195991516	movie	1		246	43.0	2.5	/experiments/AOT/AOT_stimuli/rescaled_final/1567_rv.mp4	0.0	229.05351090431213	2.499608039855957
45	210.09909009933472	pulse	1	t		43.0	2.5	/experiments/AOT/AOT_stimuli/rescaled_final/1567_rv.mp4	0.0	229.4287190437317	
45	211.70733904838562	pulse	1	t		43.0	2.5	/experiments/AOT/AOT_stimuli/rescaled_final/1567_rv.mp4	0.0	231.0369679927826	
45	212.22348999977112	fix_post	2		12	43.0	2.5	/experiments/AOT/AOT_stimuli/rescaled_final/1567_rv.mp4	0.0	231.5531189441681	0.10038304328918457
46	212.3238730430603	fix_pre	0		119	44.0	2.5	/experiments/AOT/AOT_stimuli/rescaled_final/1918_rv.mp4	0.0	231.65350198745728	0.9916219711303711
46	213.30730295181274	pulse	0	t		44.0	2.5	/experiments/AOT/AOT_stimuli/rescaled_final/1918_rv.mp4	0.0	232.63693189620972	
46	213.31549501419067	movie	1		244	44.0	2.5	/experiments/AOT/AOT_stimuli/rescaled_final/1918_rv.mp4	0.0	232.64512395858765	2.5083751678466797
46	214.9067361354828	pulse	1	t		44.0	2.5	/experiments/AOT/AOT_stimuli/rescaled_final/1918_rv.mp4	0.0	234.23636507987976	
46	215.82387018203735	fix_post	2		12	44.0	2.5	/experiments/AOT/AOT_stimuli/rescaled_final/1918_rv.mp4	0.0	235.15349912643433	0.09997391700744629
47	215.9238440990448	fix_pre	0		120	45.0	2.5	/experiments/AOT/AOT_stimuli/rescaled_final/0625_rv.mp4	0.0	235.25347304344177	0.9999358654022217
47	216.49988508224487	pulse	0	t		45.0	2.5	/experiments/AOT/AOT_stimuli/rescaled_final/0625_rv.mp4	0.0	235.82951402664185	
47	216.92377996444702	movie	1		243	45.0	2.5	/experiments/AOT/AOT_stimuli/rescaled_final/0625_rv.mp4	0.0	236.253408908844	2.499613046646118
47	218.10732507705688	pulse	1	t		45.0	2.5	/experiments/AOT/AOT_stimuli/rescaled_final/0625_rv.mp4	0.0	237.43695402145386	
47	219.42339301109314	fix_post	2		12	45.0	2.5	/experiments/AOT/AOT_stimuli/rescaled_final/0625_rv.mp4	0.0	238.7530219554901	0.10032105445861816
48	219.52371406555176	fix_pre	0		120	46.0	2.5	/experiments/AOT/AOT_stimuli/rescaled_final/1100_rv.mp4	0.0	238.85334300994873	1.0001161098480225
48	219.6996660232544	pulse	0	t		46.0	2.5	/experiments/AOT/AOT_stimuli/rescaled_final/1100_rv.mp4	0.0	239.02929496765137	
48	220.52383017539978	movie	1		243	46.0	2.5	/experiments/AOT/AOT_stimuli/rescaled_final/1100_rv.mp4	0.0	239.85345911979675	2.499941825866699
48	221.29967617988586	pulse	1	t		46.0	2.5	/experiments/AOT/AOT_stimuli/rescaled_final/1100_rv.mp4	0.0	240.62930512428284	
48	222.9057490825653	pulse	1	t		46.0	2.5	/experiments/AOT/AOT_stimuli/rescaled_final/1100_rv.mp4	0.0	242.23537802696228	
48	223.02377200126648	fix_post	2		12	46.0	2.5	/experiments/AOT/AOT_stimuli/rescaled_final/1100_rv.mp4	0.0	242.35340094566345	0.10000896453857422
49	223.12378096580505	fix_pre	0		120	47.0	2.5	/experiments/AOT/AOT_stimuli/rescaled_final/1659_rv.mp4	0.0	242.45340991020203	0.9999191761016846
49	224.12370014190674	movie	1		247	47.0	2.5	/experiments/AOT/AOT_stimuli/rescaled_final/1659_rv.mp4	0.0	243.4533290863037	2.499661922454834
49	224.5067319869995	pulse	1	t		47.0	2.5	/experiments/AOT/AOT_stimuli/rescaled_final/1659_rv.mp4	0.0	243.83636093139648	
49	226.09979510307312	pulse	1	t		47.0	2.5	/experiments/AOT/AOT_stimuli/rescaled_final/1659_rv.mp4	0.0	245.4294240474701	
49	226.62336206436157	fix_post	2		12	47.0	2.5	/experiments/AOT/AOT_stimuli/rescaled_final/1659_rv.mp4	0.0	245.95299100875854	0.1003580093383789
50	226.72372007369995	fix_pre	0		118	48.0	2.5	blank	1.0	246.05334901809692	0.9833641052246094
50	227.69896817207336	pulse	0	t		48.0	2.5	blank	1.0	247.02859711647034	
50	227.70708417892456	movie	1		301	48.0	2.5	blank	1.0	247.03671312332153	2.5083818435668945
50	229.30726504325867	pulse	1	t		48.0	2.5	blank	1.0	248.63689398765564	
50	230.21546602249146	fix_post	2		12	48.0	2.5	blank	1.0	249.54509496688843	0.09994912147521973
51	230.31541514396667	fix_pre	0		120	49.0	2.5	/experiments/AOT/AOT_stimuli/rescaled_final/1567_fw.mp4	0.0	249.64504408836365	1.000108003616333
51	230.90726494789124	pulse	0	t		49.0	2.5	/experiments/AOT/AOT_stimuli/rescaled_final/1567_fw.mp4	0.0	250.2368938922882	
51	231.315523147583	movie	1		244	49.0	2.5	/experiments/AOT/AOT_stimuli/rescaled_final/1567_fw.mp4	0.0	250.64515209197998	2.499917984008789
51	232.49986100196838	pulse	1	t		49.0	2.5	/experiments/AOT/AOT_stimuli/rescaled_final/1567_fw.mp4	0.0	251.82948994636536	
51	233.8154411315918	fix_post	2		12	49.0	2.5	/experiments/AOT/AOT_stimuli/rescaled_final/1567_fw.mp4	0.0	253.14507007598877	0.0999598503112793
52	233.91540098190308	fix_pre	0		120	50.0	2.5	/experiments/AOT/AOT_stimuli/rescaled_final/0481_fw.mp4	0.0	253.24502992630005	0.9999630451202393
52	234.09965801239014	pulse	0	t		50.0	2.5	/experiments/AOT/AOT_stimuli/rescaled_final/0481_fw.mp4	0.0	253.4292869567871	
52	234.91536402702332	movie	1		244	50.0	2.5	/experiments/AOT/AOT_stimuli/rescaled_final/0481_fw.mp4	0.0	254.2449929714203	2.500002145767212
52	235.69980216026306	pulse	1	t		50.0	2.5	/experiments/AOT/AOT_stimuli/rescaled_final/0481_fw.mp4	0.0	255.02943110466003	
52	237.30381608009338	pulse	1	t		50.0	2.5	/experiments/AOT/AOT_stimuli/rescaled_final/0481_fw.mp4	0.0	256.63344502449036	
52	237.41536617279053	fix_post	2		12	50.0	2.5	/experiments/AOT/AOT_stimuli/rescaled_final/0481_fw.mp4	0.0	256.7449951171875	0.10003781318664551
53	237.51540398597717	fix_pre	0		120	51.0	2.5	/experiments/AOT/AOT_stimuli/rescaled_final/0944_fw.mp4	0.0	256.84503293037415	0.9999361038208008
53	238.51534008979797	movie	1		243	51.0	2.5	/experiments/AOT/AOT_stimuli/rescaled_final/0944_fw.mp4	0.0	257.84496903419495	2.499983072280884
53	238.90726709365845	pulse	1	t		51.0	2.5	/experiments/AOT/AOT_stimuli/rescaled_final/0944_fw.mp4	0.0	258.2368960380554	
53	240.49970507621765	pulse	1	t		51.0	2.5	/experiments/AOT/AOT_stimuli/rescaled_final/0944_fw.mp4	0.0	259.8293340206146	
53	241.01532316207886	fix_post	2		12	51.0	2.5	/experiments/AOT/AOT_stimuli/rescaled_final/0944_fw.mp4	0.0	260.34495210647583	0.10000181198120117
54	241.11532497406006	fix_pre	0		120	52.0	2.5	/experiments/AOT/AOT_stimuli/rescaled_final/0339_rv.mp4	0.0	260.44495391845703	1.000054121017456
54	242.09962105751038	pulse	0	t		52.0	2.5	/experiments/AOT/AOT_stimuli/rescaled_final/0339_rv.mp4	0.0	261.42925000190735	
54	242.11537909507751	movie	1		246	52.0	2.5	/experiments/AOT/AOT_stimuli/rescaled_final/0339_rv.mp4	0.0	261.4450080394745	2.508362054824829
54	243.70661306381226	pulse	1	t		52.0	2.5	/experiments/AOT/AOT_stimuli/rescaled_final/0339_rv.mp4	0.0	263.03624200820923	
54	244.62374114990234	fix_post	2		12	52.0	2.5	/experiments/AOT/AOT_stimuli/rescaled_final/0339_rv.mp4	0.0	263.9533700942993	0.09992194175720215
55	244.72366309165955	fix_pre	0		120	53.0	2.5	/experiments/AOT/AOT_stimuli/rescaled_final/1549_rv.mp4	0.0	264.0532920360565	1.0000650882720947
55	245.30715918540955	pulse	0	t		53.0	2.5	/experiments/AOT/AOT_stimuli/rescaled_final/1549_rv.mp4	0.0	264.6367881298065	
55	245.72372817993164	movie	1		246	53.0	2.5	/experiments/AOT/AOT_stimuli/rescaled_final/1549_rv.mp4	0.0	265.0533571243286	2.4998998641967773
55	246.9073131084442	pulse	1	t		53.0	2.5	/experiments/AOT/AOT_stimuli/rescaled_final/1549_rv.mp4	0.0	266.2369420528412	
55	248.22362804412842	fix_post	2		12	53.0	2.5	/experiments/AOT/AOT_stimuli/rescaled_final/1549_rv.mp4	0.0	267.5532569885254	0.09997010231018066
56	248.3235981464386	fix_pre	0		120	54.0	2.5	/experiments/AOT/AOT_stimuli/rescaled_final/0491_fw.mp4	0.0	267.65322709083557	1.0000858306884766
56	248.50710797309875	pulse	0	t		54.0	2.5	/experiments/AOT/AOT_stimuli/rescaled_final/0491_fw.mp4	0.0	267.8367369174957	
56	249.32368397712708	movie	1		244	54.0	2.5	/experiments/AOT/AOT_stimuli/rescaled_final/0491_fw.mp4	0.0	268.65331292152405	2.49957013130188
56	250.09969997406006	pulse	1	t		54.0	2.5	/experiments/AOT/AOT_stimuli/rescaled_final/0491_fw.mp4	0.0	269.42932891845703	
56	251.7056930065155	pulse	1	t		54.0	2.5	/experiments/AOT/AOT_stimuli/rescaled_final/0491_fw.mp4	0.0	271.0353219509125	
56	251.82325410842896	fix_post	2		12	54.0	2.5	/experiments/AOT/AOT_stimuli/rescaled_final/0491_fw.mp4	0.0	271.1528830528259	0.10042691230773926
57	251.9236810207367	fix_pre	0		120	55.0	2.5	blank	1.0	271.25330996513367	1.0000889301300049
57	252.9237699508667	movie	1		300	55.0	2.5	blank	1.0	272.2533988952637	2.499932050704956
57	253.29978108406067	pulse	1	t		55.0	2.5	blank	1.0	272.62941002845764	
57	254.89958310127258	pulse	1	t		55.0	2.5	blank	1.0	274.22921204566956	
57	255.42370200157166	fix_post	2		12	55.0	2.5	blank	1.0	274.7533309459686	0.0999300479888916
58	255.52363204956055	fix_pre	0		119	56.0	2.5	/experiments/AOT/AOT_stimuli/rescaled_final/1531_fw.mp4	0.0	274.8532609939575	0.991724967956543
58	256.4995641708374	pulse	0	t		56.0	2.5	/experiments/AOT/AOT_stimuli/rescaled_final/1531_fw.mp4	0.0	275.8291931152344	
58	256.5153570175171	movie	1		245	56.0	2.5	/experiments/AOT/AOT_stimuli/rescaled_final/1531_fw.mp4	0.0	275.84498596191406	2.5082430839538574
58	258.10656809806824	pulse	1	t		56.0	2.5	/experiments/AOT/AOT_stimuli/rescaled_final/1531_fw.mp4	0.0	277.4361970424652	
58	259.02360010147095	fix_post	2		12	56.0	2.5	/experiments/AOT/AOT_stimuli/rescaled_final/1531_fw.mp4	0.0	278.3532290458679	0.10001087188720703
59	259.12361097335815	fix_pre	0		120	57.0	2.5	/experiments/AOT/AOT_stimuli/rescaled_final/1843_fw.mp4	0.0	278.4532399177551	1.0001239776611328
59	259.7071659564972	pulse	0	t		57.0	2.5	/experiments/AOT/AOT_stimuli/rescaled_final/1843_fw.mp4	0.0	279.03679490089417	
59	260.1237349510193	movie	1		244	57.0	2.5	/experiments/AOT/AOT_stimuli/rescaled_final/1843_fw.mp4	0.0	279.45336389541626	2.4994962215423584
59	261.30716013908386	pulse	1	t		57.0	2.5	/experiments/AOT/AOT_stimuli/rescaled_final/1843_fw.mp4	0.0	280.63678908348083	
59	262.62323117256165	fix_post	2		12	57.0	2.5	/experiments/AOT/AOT_stimuli/rescaled_final/1843_fw.mp4	0.0	281.9528601169586	0.10000300407409668
60	262.72323417663574	fix_pre	0		120	58.0	2.5	/experiments/AOT/AOT_stimuli/rescaled_final/1523_fw.mp4	0.0	282.0528631210327	1.0005099773406982
60	262.9071500301361	pulse	0	t		58.0	2.5	/experiments/AOT/AOT_stimuli/rescaled_final/1523_fw.mp4	0.0	282.2367789745331	
60	263.72374415397644	movie	1		244	58.0	2.5	/experiments/AOT/AOT_stimuli/rescaled_final/1523_fw.mp4	0.0	283.0533730983734	2.499866008758545
60	264.50696897506714	pulse	1	t		58.0	2.5	/experiments/AOT/AOT_stimuli/rescaled_final/1523_fw.mp4	0.0	283.8365979194641	
60	266.10567808151245	pulse	1	t		58.0	2.5	/experiments/AOT/AOT_stimuli/rescaled_final/1523_fw.mp4	0.0	285.4353070259094	
60	266.223610162735	fix_post	2		12	58.0	2.5	/experiments/AOT/AOT_stimuli/rescaled_final/1523_fw.mp4	0.0	285.55323910713196	0.09998583793640137
61	266.3235960006714	fix_pre	0		120	59.0	2.5	/experiments/AOT/AOT_stimuli/rescaled_final/1745_rv.mp4	0.0	285.65322494506836	1.0001320838928223
61	267.3237280845642	movie	1		244	59.0	2.5	/experiments/AOT/AOT_stimuli/rescaled_final/1745_rv.mp4	0.0	286.6533570289612	2.4994609355926514
61	267.7068660259247	pulse	1	t		59.0	2.5	/experiments/AOT/AOT_stimuli/rescaled_final/1745_rv.mp4	0.0	287.03649497032166	
61	269.29979705810547	pulse	1	t		59.0	2.5	/experiments/AOT/AOT_stimuli/rescaled_final/1745_rv.mp4	0.0	288.62942600250244	
61	269.82318902015686	fix_post	2		12	59.0	2.5	/experiments/AOT/AOT_stimuli/rescaled_final/1745_rv.mp4	0.0	289.15281796455383	0.10044693946838379
62	269.92363595962524	fix_pre	0		119	60.0	2.5	/experiments/AOT/AOT_stimuli/rescaled_final/1625_rv.mp4	0.0	289.2532649040222	0.9915111064910889
62	270.8994870185852	pulse	0	t		60.0	2.5	/experiments/AOT/AOT_stimuli/rescaled_final/1625_rv.mp4	0.0	290.2291159629822	
62	270.91514706611633	movie	1		247	60.0	2.5	/experiments/AOT/AOT_stimuli/rescaled_final/1625_rv.mp4	0.0	290.2447760105133	2.5080559253692627
62	272.50690817832947	pulse	1	t		60.0	2.5	/experiments/AOT/AOT_stimuli/rescaled_final/1625_rv.mp4	0.0	291.83653712272644	
62	273.4232029914856	fix_post	2		12	60.0	2.5	/experiments/AOT/AOT_stimuli/rescaled_final/1625_rv.mp4	0.0	292.75283193588257	0.10030913352966309
63	273.52351212501526	fix_pre	0		120	61.0	2.5	blank	1.0	292.85314106941223	0.999992847442627
63	274.0994110107422	pulse	0	t		61.0	2.5	blank	1.0	293.42903995513916	
63	274.5235049724579	movie	1		300	61.0	2.5	blank	1.0	293.85313391685486	2.499983072280884
63	275.7070071697235	pulse	1	t		61.0	2.5	blank	1.0	295.0366361141205	
63	277.02348804473877	fix_post	2		12	61.0	2.5	blank	1.0	296.35311698913574	0.10018396377563477
64	277.1236720085144	fix_pre	0		120	62.0	2.5	/experiments/AOT/AOT_stimuli/rescaled_final/0698_rv.mp4	0.0	296.4533009529114	0.9998769760131836
64	277.3070659637451	pulse	0	t		62.0	2.5	/experiments/AOT/AOT_stimuli/rescaled_final/0698_rv.mp4	0.0	296.6366949081421	
64	278.1235489845276	movie	1		244	62.0	2.5	/experiments/AOT/AOT_stimuli/rescaled_final/0698_rv.mp4	0.0	297.45317792892456	2.499974012374878
64	278.90695095062256	pulse	1	t		62.0	2.5	/experiments/AOT/AOT_stimuli/rescaled_final/0698_rv.mp4	0.0	298.23657989501953	
64	280.5053060054779	pulse	1	t		62.0	2.5	/experiments/AOT/AOT_stimuli/rescaled_final/0698_rv.mp4	0.0	299.8349349498749	
64	280.62352299690247	fix_post	2		12	62.0	2.5	/experiments/AOT/AOT_stimuli/rescaled_final/0698_rv.mp4	0.0	299.95315194129944	0.09997797012329102
65	280.72350096702576	fix_pre	0		120	63.0	2.5	/experiments/AOT/AOT_stimuli/rescaled_final/0549_fw.mp4	0.0	300.05312991142273	0.9999971389770508
65	281.7234981060028	movie	1		243	63.0	2.5	/experiments/AOT/AOT_stimuli/rescaled_final/0549_fw.mp4	0.0	301.0531270503998	2.4995009899139404
65	282.10806703567505	pulse	1	t		63.0	2.5	/experiments/AOT/AOT_stimuli/rescaled_final/0549_fw.mp4	0.0	301.437695980072	
65	283.69954800605774	pulse	1	t		63.0	2.5	/experiments/AOT/AOT_stimuli/rescaled_final/0549_fw.mp4	0.0	303.0291769504547	
65	284.22299909591675	fix_post	2		12	63.0	2.5	/experiments/AOT/AOT_stimuli/rescaled_final/0549_fw.mp4	0.0	303.5526280403137	0.10054898262023926
66	284.323548078537	fix_pre	0		119	64.0	2.5	/experiments/AOT/AOT_stimuli/rescaled_final/1561_rv.mp4	0.0	303.65317702293396	0.9915680885314941
66	285.29952812194824	pulse	0	t		64.0	2.5	/experiments/AOT/AOT_stimuli/rescaled_final/1561_rv.mp4	0.0	304.6291570663452	
66	285.3151161670685	movie	1		245	64.0	2.5	/experiments/AOT/AOT_stimuli/rescaled_final/1561_rv.mp4	0.0	304.64474511146545	2.5079548358917236
66	286.9081120491028	pulse	1	t		64.0	2.5	/experiments/AOT/AOT_stimuli/rescaled_final/1561_rv.mp4	0.0	306.23774099349976	
66	287.8230710029602	fix_post	2		12	64.0	2.5	/experiments/AOT/AOT_stimuli/rescaled_final/1561_rv.mp4	0.0	307.1526999473572	0.1003270149230957
67	287.9233980178833	fix_pre	0		120	65.0	2.5	/experiments/AOT/AOT_stimuli/rescaled_final/0883_fw.mp4	0.0	307.2530269622803	1.0001029968261719
67	288.4993779659271	pulse	0	t		65.0	2.5	/experiments/AOT/AOT_stimuli/rescaled_final/0883_fw.mp4	0.0	307.8290069103241	
67	288.9235010147095	movie	1		245	65.0	2.5	/experiments/AOT/AOT_stimuli/rescaled_final/0883_fw.mp4	0.0	308.25312995910645	2.4998719692230225
67	290.09989404678345	pulse	1	t		65.0	2.5	/experiments/AOT/AOT_stimuli/rescaled_final/0883_fw.mp4	0.0	309.4295229911804	
67	291.4233729839325	fix_post	2		12	65.0	2.5	/experiments/AOT/AOT_stimuli/rescaled_final/0883_fw.mp4	0.0	310.75300192832947	0.10001301765441895
68	291.5233860015869	fix_pre	0		120	66.0	2.5	/experiments/AOT/AOT_stimuli/rescaled_final/0284_rv.mp4	0.0	310.8530149459839	1.0000081062316895
68	291.7069251537323	pulse	0	t		66.0	2.5	/experiments/AOT/AOT_stimuli/rescaled_final/0284_rv.mp4	0.0	311.0365540981293	
68	292.5233941078186	movie	1		244	66.0	2.5	/experiments/AOT/AOT_stimuli/rescaled_final/0284_rv.mp4	0.0	311.8530230522156	2.4996159076690674
68	293.3069269657135	pulse	1	t		66.0	2.5	/experiments/AOT/AOT_stimuli/rescaled_final/0284_rv.mp4	0.0	312.6365559101105	
68	294.9051511287689	pulse	1	t		66.0	2.5	/experiments/AOT/AOT_stimuli/rescaled_final/0284_rv.mp4	0.0	314.2347800731659	
68	295.02301001548767	fix_post	2		12	66.0	2.5	/experiments/AOT/AOT_stimuli/rescaled_final/0284_rv.mp4	0.0	314.35263895988464	0.10050702095031738
69	295.123517036438	fix_pre	0		120	67.0	2.5	/experiments/AOT/AOT_stimuli/rescaled_final/1999_fw.mp4	0.0	314.45314598083496	0.999845027923584
69	296.1233620643616	movie	1		243	67.0	2.5	/experiments/AOT/AOT_stimuli/rescaled_final/1999_fw.mp4	0.0	315.45299100875854	2.499643087387085
69	296.50644302368164	pulse	1	t		67.0	2.5	/experiments/AOT/AOT_stimuli/rescaled_final/1999_fw.mp4	0.0	315.8360719680786	
69	298.10696816444397	pulse	1	t		67.0	2.5	/experiments/AOT/AOT_stimuli/rescaled_final/1999_fw.mp4	0.0	317.43659710884094	
69	298.62300515174866	fix_post	2		12	67.0	2.5	/experiments/AOT/AOT_stimuli/rescaled_final/1999_fw.mp4	0.0	317.95263409614563	0.10036993026733398
70	298.723375082016	fix_pre	0		119	68.0	2.5	/experiments/AOT/AOT_stimuli/rescaled_final/1355_fw.mp4	0.0	318.05300402641296	0.9916620254516602
70	299.7070059776306	pulse	0	t		68.0	2.5	/experiments/AOT/AOT_stimuli/rescaled_final/1355_fw.mp4	0.0	319.0366349220276	
70	299.71503710746765	movie	1		244	68.0	2.5	/experiments/AOT/AOT_stimuli/rescaled_final/1355_fw.mp4	0.0	319.0446660518646	2.5078768730163574
70	301.3064000606537	pulse	1	t		68.0	2.5	/experiments/AOT/AOT_stimuli/rescaled_final/1355_fw.mp4	0.0	320.63602900505066	
70	302.222913980484	fix_post	2		12	68.0	2.5	/experiments/AOT/AOT_stimuli/rescaled_final/1355_fw.mp4	0.0	321.552542924881	0.10048699378967285
71	302.3234009742737	fix_pre	0		120	69.0	2.5	/experiments/AOT/AOT_stimuli/rescaled_final/0285_fw.mp4	0.0	321.65302991867065	0.9999661445617676
71	302.90691018104553	pulse	0	t		69.0	2.5	/experiments/AOT/AOT_stimuli/rescaled_final/0285_fw.mp4	0.0	322.2365391254425	
71	303.32336711883545	movie	1		244	69.0	2.5	/experiments/AOT/AOT_stimuli/rescaled_final/0285_fw.mp4	0.0	322.6529960632324	2.4999840259552
71	304.50715017318726	pulse	1	t		69.0	2.5	/experiments/AOT/AOT_stimuli/rescaled_final/0285_fw.mp4	0.0	323.83677911758423	
71	305.82335114479065	fix_post	2		12	69.0	2.5	/experiments/AOT/AOT_stimuli/rescaled_final/0285_fw.mp4	0.0	325.1529800891876	0.10004901885986328
72	305.9234001636505	fix_pre	0		120	70.0	2.5	blank	1.0	325.2530291080475	0.9999589920043945
72	306.099436044693	pulse	0	t		70.0	2.5	blank	1.0	325.42906498908997	
72	306.9233591556549	movie	1		300	70.0	2.5	blank	1.0	326.2529881000519	2.500016927719116
72	307.70690512657166	pulse	1	t		70.0	2.5	blank	1.0	327.0365340709686	
72	309.3068389892578	pulse	1	t		70.0	2.5	blank	1.0	328.6364679336548	
72	309.423376083374	fix_post	2		12	70.0	2.5	blank	1.0	328.753005027771	0.10001492500305176
73	309.5233910083771	fix_pre	0		120	71.0	2.5	/experiments/AOT/AOT_stimuli/rescaled_final/1196_fw.mp4	0.0	328.85301995277405	1.0000309944152832
73	310.52342200279236	movie	1		244	71.0	2.5	/experiments/AOT/AOT_stimuli/rescaled_final/1196_fw.mp4	0.0	329.85305094718933	2.4998161792755127
73	310.90651416778564	pulse	1	t		71.0	2.5	/experiments/AOT/AOT_stimuli/rescaled_final/1196_fw.mp4	0.0	330.2361431121826	
73	312.5068471431732	pulse	1	t		71.0	2.5	/experiments/AOT/AOT_stimuli/rescaled_final/1196_fw.mp4	0.0	331.8364760875702	
73	313.02323818206787	fix_post	2		12	71.0	2.5	/experiments/AOT/AOT_stimuli/rescaled_final/1196_fw.mp4	0.0	332.35286712646484	0.10007190704345703
74	313.1233100891113	fix_pre	0		119	72.0	2.5	/experiments/AOT/AOT_stimuli/rescaled_final/0598_fw.mp4	0.0	332.4529390335083	0.9916548728942871
74	314.1069450378418	pulse	0	t		72.0	2.5	/experiments/AOT/AOT_stimuli/rescaled_final/0598_fw.mp4	0.0	333.43657398223877	
74	314.1149649620056	movie	1		248	72.0	2.5	/experiments/AOT/AOT_stimuli/rescaled_final/0598_fw.mp4	0.0	333.4445939064026	2.5079731941223145
74	315.7065131664276	pulse	1	t		72.0	2.5	/experiments/AOT/AOT_stimuli/rescaled_final/0598_fw.mp4	0.0	335.0361421108246	
74	316.62293815612793	fix_post	2		12	72.0	2.5	/experiments/AOT/AOT_stimuli/rescaled_final/0598_fw.mp4	0.0	335.9525671005249	0.10042190551757812
75	316.7233600616455	fix_pre	0		120	73.0	2.5	/experiments/AOT/AOT_stimuli/rescaled_final/0162_fw.mp4	0.0	336.0529890060425	0.9995579719543457
75	317.306401014328	pulse	0	t		73.0	2.5	/experiments/AOT/AOT_stimuli/rescaled_final/0162_fw.mp4	0.0	336.636029958725	
75	317.72291803359985	movie	1		246	73.0	2.5	/experiments/AOT/AOT_stimuli/rescaled_final/0162_fw.mp4	0.0	337.0525469779968	2.5002081394195557
75	318.90645694732666	pulse	1	t		73.0	2.5	/experiments/AOT/AOT_stimuli/rescaled_final/0162_fw.mp4	0.0	338.23608589172363	
75	320.2231261730194	fix_post	2		12	73.0	2.5	/experiments/AOT/AOT_stimuli/rescaled_final/0162_fw.mp4	0.0	339.5527551174164	0.10002779960632324
76	320.32315397262573	fix_pre	0		120	74.0	2.5	/experiments/AOT/AOT_stimuli/rescaled_final/1941_fw.mp4	0.0	339.6527829170227	1.0001940727233887
76	320.5067231655121	pulse	0	t		74.0	2.5	/experiments/AOT/AOT_stimuli/rescaled_final/1941_fw.mp4	0.0	339.83635210990906	
76	321.3233480453491	movie	1		243	74.0	2.5	/experiments/AOT/AOT_stimuli/rescaled_final/1941_fw.mp4	0.0	340.6529769897461	2.499498128890991
76	322.0999131202698	pulse	1	t		74.0	2.5	/experiments/AOT/AOT_stimuli/rescaled_final/1941_fw.mp4	0.0	341.42954206466675	
76	323.7049310207367	pulse	1	t		74.0	2.5	/experiments/AOT/AOT_stimuli/rescaled_final/1941_fw.mp4	0.0	343.03455996513367	
76	323.8228461742401	fix_post	2		12	74.0	2.5	/experiments/AOT/AOT_stimuli/rescaled_final/1941_fw.mp4	0.0	343.1524751186371	0.10003089904785156
77	323.92287707328796	fix_pre	0		120	75.0	2.5	blank	1.0	343.25250601768494	1.0000550746917725
77	324.92293214797974	movie	1		300	75.0	2.5	blank	1.0	344.2525610923767	2.500325918197632
77	325.3068301677704	pulse	1	t		75.0	2.5	blank	1.0	344.63645911216736	
77	326.9066741466522	pulse	1	t		75.0	2.5	blank	1.0	346.2363030910492	
77	327.42325806617737	fix_post	2		12	75.0	2.5	blank	1.0	346.75288701057434	0.10000205039978027
78	327.52326011657715	fix_pre	0		119	76.0	2.5	/experiments/AOT/AOT_stimuli/rescaled_final/0788_rv.mp4	0.0	346.8528890609741	0.9916419982910156
78	328.5067050457001	pulse	0	t		76.0	2.5	/experiments/AOT/AOT_stimuli/rescaled_final/0788_rv.mp4	0.0	347.83633399009705	
78	328.51490211486816	movie	1		246	76.0	2.5	/experiments/AOT/AOT_stimuli/rescaled_final/0788_rv.mp4	0.0	347.84453105926514	2.5079050064086914
78	330.10622096061707	pulse	1	t		76.0	2.5	/experiments/AOT/AOT_stimuli/rescaled_final/0788_rv.mp4	0.0	349.43584990501404	
78	331.02280712127686	fix_post	2		12	76.0	2.5	/experiments/AOT/AOT_stimuli/rescaled_final/0788_rv.mp4	0.0	350.3524360656738	0.10045599937438965
79	331.12326312065125	fix_pre	0		120	77.0	2.5	/experiments/AOT/AOT_stimuli/rescaled_final/1410_fw.mp4	0.0	350.4528920650482	0.9995899200439453
79	331.7068691253662	pulse	0	t		77.0	2.5	/experiments/AOT/AOT_stimuli/rescaled_final/1410_fw.mp4	0.0	351.0364980697632	
79	332.1228530406952	movie	1		245	77.0	2.5	/experiments/AOT/AOT_stimuli/rescaled_final/1410_fw.mp4	0.0	351.45248198509216	2.5003609657287598
79	333.30678606033325	pulse	1	t		77.0	2.5	/experiments/AOT/AOT_stimuli/rescaled_final/1410_fw.mp4	0.0	352.6364150047302	
79	334.62321400642395	fix_post	2		12	77.0	2.5	/experiments/AOT/AOT_stimuli/rescaled_final/1410_fw.mp4	0.0	353.9528429508209	0.09997701644897461
80	334.7231910228729	fix_pre	0		120	78.0	2.5	/experiments/AOT/AOT_stimuli/rescaled_final/1384_fw.mp4	0.0	354.0528199672699	0.9999830722808838
80	334.906699180603	pulse	0	t		78.0	2.5	/experiments/AOT/AOT_stimuli/rescaled_final/1384_fw.mp4	0.0	354.236328125	
80	335.7231740951538	movie	1		244	78.0	2.5	/experiments/AOT/AOT_stimuli/rescaled_final/1384_fw.mp4	0.0	355.0528030395508	2.4996049404144287
80	336.50669717788696	pulse	1	t		78.0	2.5	/experiments/AOT/AOT_stimuli/rescaled_final/1384_fw.mp4	0.0	355.83632612228394	
80	338.1050109863281	pulse	1	t		78.0	2.5	/experiments/AOT/AOT_stimuli/rescaled_final/1384_fw.mp4	0.0	357.4346399307251	
80	338.22277903556824	fix_post	2		12	78.0	2.5	/experiments/AOT/AOT_stimuli/rescaled_final/1384_fw.mp4	0.0	357.5524079799652	0.10033798217773438
81	338.323117017746	fix_pre	0		120	79.0	2.5	/experiments/AOT/AOT_stimuli/rescaled_final/1171_fw.mp4	0.0	357.65274596214294	1.000082015991211
81	339.3231990337372	movie	1		244	79.0	2.5	/experiments/AOT/AOT_stimuli/rescaled_final/1171_fw.mp4	0.0	358.65282797813416	2.4995391368865967
81	339.7064321041107	pulse	1	t		79.0	2.5	/experiments/AOT/AOT_stimuli/rescaled_final/1171_fw.mp4	0.0	359.0360610485077	
81	341.30676913261414	pulse	1	t		79.0	2.5	/experiments/AOT/AOT_stimuli/rescaled_final/1171_fw.mp4	0.0	360.6363980770111	
81	341.8227381706238	fix_post	2		12	79.0	2.5	/experiments/AOT/AOT_stimuli/rescaled_final/1171_fw.mp4	0.0	361.15236711502075	0.10050296783447266
82	341.92324113845825	fix_pre	0		119	80.0	2.5	/experiments/AOT/AOT_stimuli/rescaled_final/1517_rv.mp4	0.0	361.2528700828552	0.9916558265686035
82	342.90673303604126	pulse	0	t		80.0	2.5	/experiments/AOT/AOT_stimuli/rescaled_final/1517_rv.mp4	0.0	362.23636198043823	
82	342.91489696502686	movie	1		246	80.0	2.5	/experiments/AOT/AOT_stimuli/rescaled_final/1517_rv.mp4	0.0	362.2445259094238	2.5081980228424072
82	344.5064480304718	pulse	1	t		80.0	2.5	/experiments/AOT/AOT_stimuli/rescaled_final/1517_rv.mp4	0.0	363.8360769748688	
82	345.42309498786926	fix_post	2		12	80.0	2.5	/experiments/AOT/AOT_stimuli/rescaled_final/1517_rv.mp4	0.0	364.75272393226624	0.10010004043579102
83	345.52319502830505	fix_pre	0		120	81.0	2.5	/experiments/AOT/AOT_stimuli/rescaled_final/1245_rv.mp4	0.0	364.852823972702	1.0000200271606445
83	346.1067371368408	pulse	0	t		81.0	2.5	/experiments/AOT/AOT_stimuli/rescaled_final/1245_rv.mp4	0.0	365.4363660812378	
83	346.5232150554657	movie	1		243	81.0	2.5	/experiments/AOT/AOT_stimuli/rescaled_final/1245_rv.mp4	0.0	365.85284399986267	2.499969959259033
83	347.70667004585266	pulse	1	t		81.0	2.5	/experiments/AOT/AOT_stimuli/rescaled_final/1245_rv.mp4	0.0	367.03629899024963	
83	349.02318501472473	fix_post	2		12	81.0	2.5	/experiments/AOT/AOT_stimuli/rescaled_final/1245_rv.mp4	0.0	368.3528139591217	0.09991312026977539
84	349.1230981349945	fix_pre	0		120	82.0	2.5	/experiments/AOT/AOT_stimuli/rescaled_final/1562_fw.mp4	0.0	368.4527270793915	1.0000109672546387
84	349.3066689968109	pulse	0	t		82.0	2.5	/experiments/AOT/AOT_stimuli/rescaled_final/1562_fw.mp4	0.0	368.6362979412079	
84	350.12310910224915	movie	1		244	82.0	2.5	/experiments/AOT/AOT_stimuli/rescaled_final/1562_fw.mp4	0.0	369.4527380466461	2.4996068477630615
84	350.90652799606323	pulse	1	t		82.0	2.5	/experiments/AOT/AOT_stimuli/rescaled_final/1562_fw.mp4	0.0	370.2361569404602	
84	352.5053150653839	pulse	1	t		82.0	2.5	/experiments/AOT/AOT_stimuli/rescaled_final/1562_fw.mp4	0.0	371.8349440097809	
84	352.6227159500122	fix_post	2		12	82.0	2.5	/experiments/AOT/AOT_stimuli/rescaled_final/1562_fw.mp4	0.0	371.9523448944092	0.09998917579650879
85	352.7227051258087	fix_pre	0		120	83.0	2.5	blank	1.0	372.0523340702057	1.0000998973846436
85	353.72280502319336	movie	1		300	83.0	2.5	blank	1.0	373.05243396759033	2.5003340244293213
85	354.1067180633545	pulse	1	t		83.0	2.5	blank	1.0	373.43634700775146	
85	355.7066481113434	pulse	1	t		83.0	2.5	blank	1.0	375.03627705574036	
85	356.2231390476227	fix_post	2		12	83.0	2.5	blank	1.0	375.55276799201965	0.10001993179321289
87	356.3231589794159	stim	0		1716					375.65278792381287	14.29994797706604
87	357.3067240715027	pulse	0	t						376.63635301589966	
87	358.90657806396484	pulse	0	t						378.2362070083618	
87	360.50655603408813	pulse	0	t						379.8361849784851	
87	362.10664796829224	pulse	0	t						381.4362769126892	
87	363.706582069397	pulse	0	t						383.03621101379395	
87	365.3065459728241	pulse	0	t						384.63617491722107	
87	366.90654611587524	pulse	0	t						386.2361750602722	
87	368.5065519809723	pulse	0	t						387.83618092536926	
87	370.10655212402344	pulse	0	t						389.4361810684204	
