trial_nr	onset	event_type	phase	response	nr_frames	movie_index	movie_duration	movie_file	blank	onset_abs	duration
0	0.1498279571533203	stim	0		155					22.340739965438843	1.2915871143341064
0	1.4335510730743408	response	0	space						23.624463081359863	
1	1.4414150714874268	stim	0		4312					23.63232707977295	35.93333101272583
1	37.3704149723053	pulse	0	t						59.56132698059082	
1	37.37474608421326	stim	1		1717					59.56565809249878	14.30812692642212
1	38.966411113739014	pulse	1	t						61.157323122024536	
1	40.566478967666626	pulse	1	t						62.75739097595215	
1	42.166402101516724	pulse	1	t						64.35731410980225	
1	43.7665810585022	pulse	1	t						65.95749306678772	
1	45.36637997627258	pulse	1	t						67.5572919845581	
1	46.96650195121765	pulse	1	t						69.15741395950317	
1	48.56646394729614	pulse	1	t						70.75737595558167	
1	50.166439056396484	pulse	1	t						72.357351064682	
2	51.682873010635376	fix_pre	0		11	0.0	2.5	/experiments/AOT/AOT_stimuli/rescaled_final/1585_rv.mp4	0.0	73.8737850189209	0.09179210662841797
2	51.76646113395691	pulse	0	t		0.0	2.5	/experiments/AOT/AOT_stimuli/rescaled_final/1585_rv.mp4	0.0	73.95737314224243	
2	51.774665117263794	movie	1		244	0.0	2.5	/experiments/AOT/AOT_stimuli/rescaled_final/1585_rv.mp4	0.0	73.96557712554932	2.508307933807373
2	53.366085052490234	pulse	1	t		0.0	2.5	/experiments/AOT/AOT_stimuli/rescaled_final/1585_rv.mp4	0.0	75.55699706077576	
2	54.28297305107117	fix_post	2		12	0.0	2.5	/experiments/AOT/AOT_stimuli/rescaled_final/1585_rv.mp4	0.0	76.47388505935669	0.10000896453857422
3	54.38298201560974	fix_pre	0		120	1.0	2.5	/experiments/AOT/AOT_stimuli/rescaled_final/1371_fw.mp4	0.0	76.57389402389526	0.9998838901519775
3	54.966367959976196	pulse	0	t		1.0	2.5	/experiments/AOT/AOT_stimuli/rescaled_final/1371_fw.mp4	0.0	77.15727996826172	
3	55.38286590576172	movie	1		244	1.0	2.5	/experiments/AOT/AOT_stimuli/rescaled_final/1371_fw.mp4	0.0	77.57377791404724	2.5000131130218506
3	56.56646394729614	pulse	1	t		1.0	2.5	/experiments/AOT/AOT_stimuli/rescaled_final/1371_fw.mp4	0.0	78.75737595558167	
3	57.88287901878357	fix_post	2		12	1.0	2.5	/experiments/AOT/AOT_stimuli/rescaled_final/1371_fw.mp4	0.0	80.07379102706909	0.09999489784240723
4	57.98287391662598	fix_pre	0		120	2.0	2.5	/experiments/AOT/AOT_stimuli/rescaled_final/1854_fw.mp4	0.0	80.1737859249115	0.9996070861816406
4	58.16644811630249	pulse	0	t		2.0	2.5	/experiments/AOT/AOT_stimuli/rescaled_final/1854_fw.mp4	0.0	80.35736012458801	
4	58.98248100280762	movie	1		242	2.0	2.5	/experiments/AOT/AOT_stimuli/rescaled_final/1854_fw.mp4	0.0	81.17339301109314	2.499953031539917
4	59.766343116760254	pulse	1	t		2.0	2.5	/experiments/AOT/AOT_stimuli/rescaled_final/1854_fw.mp4	0.0	81.95725512504578	
4	61.364686012268066	pulse	1	t		2.0	2.5	/experiments/AOT/AOT_stimuli/rescaled_final/1854_fw.mp4	0.0	83.55559802055359	
4	61.482434034347534	fix_post	2		12	2.0	2.5	/experiments/AOT/AOT_stimuli/rescaled_final/1854_fw.mp4	0.0	83.67334604263306	0.10046696662902832
5	61.58290100097656	fix_pre	0		120	3.0	2.5	/experiments/AOT/AOT_stimuli/rescaled_final/0529_fw.mp4	0.0	83.77381300926208	1.0000619888305664
5	62.58296298980713	movie	1		244	3.0	2.5	/experiments/AOT/AOT_stimuli/rescaled_final/0529_fw.mp4	0.0	84.77387499809265	2.4999749660491943
5	62.96650505065918	pulse	1	t		3.0	2.5	/experiments/AOT/AOT_stimuli/rescaled_final/0529_fw.mp4	0.0	85.1574170589447	
5	64.56653499603271	pulse	1	t		3.0	2.5	/experiments/AOT/AOT_stimuli/rescaled_final/0529_fw.mp4	0.0	86.75744700431824	
5	65.08293795585632	fix_post	2		12	3.0	2.5	/experiments/AOT/AOT_stimuli/rescaled_final/0529_fw.mp4	0.0	87.27384996414185	0.09997701644897461
6	65.1829149723053	fix_pre	0		119	4.0	2.5	/experiments/AOT/AOT_stimuli/rescaled_final/1310_rv.mp4	0.0	87.37382698059082	0.991642951965332
6	66.16637992858887	pulse	0	t		4.0	2.5	/experiments/AOT/AOT_stimuli/rescaled_final/1310_rv.mp4	0.0	88.35729193687439	
6	66.17455792427063	movie	1		247	4.0	2.5	/experiments/AOT/AOT_stimuli/rescaled_final/1310_rv.mp4	0.0	88.36546993255615	2.5079410076141357
6	67.76775693893433	pulse	1	t		4.0	2.5	/experiments/AOT/AOT_stimuli/rescaled_final/1310_rv.mp4	0.0	89.95866894721985	
6	68.68249893188477	fix_post	2		12	4.0	2.5	/experiments/AOT/AOT_stimuli/rescaled_final/1310_rv.mp4	0.0	90.87341094017029	0.1003561019897461
7	68.78285503387451	fix_pre	0		120	5.0	2.5	/experiments/AOT/AOT_stimuli/rescaled_final/2094_fw.mp4	0.0	90.97376704216003	1.0
7	69.36637711524963	pulse	0	t		5.0	2.5	/experiments/AOT/AOT_stimuli/rescaled_final/2094_fw.mp4	0.0	91.55728912353516	
7	69.78285503387451	movie	1		244	5.0	2.5	/experiments/AOT/AOT_stimuli/rescaled_final/2094_fw.mp4	0.0	91.97376704216003	2.500098943710327
7	70.96643400192261	pulse	1	t		5.0	2.5	/experiments/AOT/AOT_stimuli/rescaled_final/2094_fw.mp4	0.0	93.15734601020813	
7	72.28295397758484	fix_post	2		12	5.0	2.5	/experiments/AOT/AOT_stimuli/rescaled_final/2094_fw.mp4	0.0	94.47386598587036	0.09990406036376953
8	72.38285803794861	fix_pre	0		120	6.0	2.5	/experiments/AOT/AOT_stimuli/rescaled_final/1642_rv.mp4	0.0	94.57377004623413	1.0001039505004883
8	72.5662829875946	pulse	0	t		6.0	2.5	/experiments/AOT/AOT_stimuli/rescaled_final/1642_rv.mp4	0.0	94.75719499588013	
8	73.3829619884491	movie	1		245	6.0	2.5	/experiments/AOT/AOT_stimuli/rescaled_final/1642_rv.mp4	0.0	95.57387399673462	2.499876022338867
8	74.16628193855286	pulse	1	t		6.0	2.5	/experiments/AOT/AOT_stimuli/rescaled_final/1642_rv.mp4	0.0	96.35719394683838	
8	75.76587891578674	pulse	1	t		6.0	2.5	/experiments/AOT/AOT_stimuli/rescaled_final/1642_rv.mp4	0.0	97.95679092407227	
8	75.88283801078796	fix_post	2		12	6.0	2.5	/experiments/AOT/AOT_stimuli/rescaled_final/1642_rv.mp4	0.0	98.07375001907349	0.10002994537353516
9	75.9828679561615	fix_pre	0		120	7.0	2.5	blank	1.0	98.17377996444702	0.9999690055847168
9	76.98283696174622	movie	1		300	7.0	2.5	blank	1.0	99.17374897003174	2.499986171722412
9	77.36628198623657	pulse	1	t		7.0	2.5	blank	1.0	99.5571939945221	
9	78.96633005142212	pulse	1	t		7.0	2.5	blank	1.0	101.15724205970764	
9	79.48282313346863	fix_post	2		12	7.0	2.5	blank	1.0	101.67373514175415	0.0999147891998291
10	79.58273792266846	fix_pre	0		119	8.0	2.5	/experiments/AOT/AOT_stimuli/rescaled_final/2028_rv.mp4	0.0	101.77364993095398	0.9917070865631104
10	80.56631302833557	pulse	0	t		8.0	2.5	/experiments/AOT/AOT_stimuli/rescaled_final/2028_rv.mp4	0.0	102.7572250366211	
10	80.57444500923157	movie	1		244	8.0	2.5	/experiments/AOT/AOT_stimuli/rescaled_final/2028_rv.mp4	0.0	102.76535701751709	2.5083210468292236
10	82.16588497161865	pulse	1	t		8.0	2.5	/experiments/AOT/AOT_stimuli/rescaled_final/2028_rv.mp4	0.0	104.35679697990417	
10	83.08276605606079	fix_post	2		12	8.0	2.5	/experiments/AOT/AOT_stimuli/rescaled_final/2028_rv.mp4	0.0	105.27367806434631	0.10003805160522461
11	83.18280410766602	fix_pre	0		120	9.0	2.5	/experiments/AOT/AOT_stimuli/rescaled_final/1795_fw.mp4	0.0	105.37371611595154	1.0000109672546387
11	83.76624798774719	pulse	0	t		9.0	2.5	/experiments/AOT/AOT_stimuli/rescaled_final/1795_fw.mp4	0.0	105.95715999603271	
11	84.18281507492065	movie	1		247	9.0	2.5	/experiments/AOT/AOT_stimuli/rescaled_final/1795_fw.mp4	0.0	106.37372708320618	2.4999518394470215
11	85.365807056427	pulse	1	t		9.0	2.5	/experiments/AOT/AOT_stimuli/rescaled_final/1795_fw.mp4	0.0	107.55671906471252	
11	86.68276691436768	fix_post	2		12	9.0	2.5	/experiments/AOT/AOT_stimuli/rescaled_final/1795_fw.mp4	0.0	108.8736789226532	0.09998202323913574
12	86.78274893760681	fix_pre	0		120	10.0	2.5	/experiments/AOT/AOT_stimuli/rescaled_final/0998_rv.mp4	0.0	108.97366094589233	1.000256061553955
12	86.96622490882874	pulse	0	t		10.0	2.5	/experiments/AOT/AOT_stimuli/rescaled_final/0998_rv.mp4	0.0	109.15713691711426	
12	87.78300499916077	movie	1		245	10.0	2.5	/experiments/AOT/AOT_stimuli/rescaled_final/0998_rv.mp4	0.0	109.97391700744629	2.499783992767334
12	88.56606411933899	pulse	1	t		10.0	2.5	/experiments/AOT/AOT_stimuli/rescaled_final/0998_rv.mp4	0.0	110.75697612762451	
12	90.17462611198425	pulse	1	t		10.0	2.5	/experiments/AOT/AOT_stimuli/rescaled_final/0998_rv.mp4	0.0	112.36553812026978	
12	90.2827889919281	fix_post	2		12	10.0	2.5	/experiments/AOT/AOT_stimuli/rescaled_final/0998_rv.mp4	0.0	112.47370100021362	0.09997797012329102
13	90.38276696205139	fix_pre	0		120	11.0	2.5	/experiments/AOT/AOT_stimuli/rescaled_final/1812_rv.mp4	0.0	112.57367897033691	0.9996609687805176
13	91.38242793083191	movie	1		245	11.0	2.5	/experiments/AOT/AOT_stimuli/rescaled_final/1812_rv.mp4	0.0	113.57333993911743	2.5004591941833496
13	91.7658429145813	pulse	1	t		11.0	2.5	/experiments/AOT/AOT_stimuli/rescaled_final/1812_rv.mp4	0.0	113.95675492286682	
13	93.36620306968689	pulse	1	t		11.0	2.5	/experiments/AOT/AOT_stimuli/rescaled_final/1812_rv.mp4	0.0	115.55711507797241	
13	93.88288712501526	fix_post	2		12	11.0	2.5	/experiments/AOT/AOT_stimuli/rescaled_final/1812_rv.mp4	0.0	116.07379913330078	0.09978985786437988
14	93.98267698287964	fix_pre	0		119	12.0	2.5	/experiments/AOT/AOT_stimuli/rescaled_final/0037_rv.mp4	0.0	116.17358899116516	0.9916701316833496
14	94.96619009971619	pulse	0	t		12.0	2.5	/experiments/AOT/AOT_stimuli/rescaled_final/0037_rv.mp4	0.0	117.15710210800171	
14	94.97434711456299	movie	1		246	12.0	2.5	/experiments/AOT/AOT_stimuli/rescaled_final/0037_rv.mp4	0.0	117.16525912284851	2.508349895477295
14	96.5677011013031	pulse	1	t		12.0	2.5	/experiments/AOT/AOT_stimuli/rescaled_final/0037_rv.mp4	0.0	118.75861310958862	
14	97.48269701004028	fix_post	2		12	12.0	2.5	/experiments/AOT/AOT_stimuli/rescaled_final/0037_rv.mp4	0.0	119.6736090183258	0.09995508193969727
15	97.58265209197998	fix_pre	0		120	13.0	2.5	blank	1.0	119.7735641002655	1.0000150203704834
15	98.16619205474854	pulse	0	t		13.0	2.5	blank	1.0	120.35710406303406	
15	98.58266711235046	movie	1		300	13.0	2.5	blank	1.0	120.77357912063599	2.4999959468841553
15	99.76615905761719	pulse	1	t		13.0	2.5	blank	1.0	121.95707106590271	
15	101.08266305923462	fix_post	2		12	13.0	2.5	blank	1.0	123.27357506752014	0.09961390495300293
16	101.18227696418762	fix_pre	0		120	14.0	2.5	/experiments/AOT/AOT_stimuli/rescaled_final/1655_fw.mp4	0.0	123.37318897247314	1.0003550052642822
16	101.36614203453064	pulse	0	t		14.0	2.5	/experiments/AOT/AOT_stimuli/rescaled_final/1655_fw.mp4	0.0	123.55705404281616	
16	102.1826319694519	movie	1		242	14.0	2.5	/experiments/AOT/AOT_stimuli/rescaled_final/1655_fw.mp4	0.0	124.37354397773743	2.5001139640808105
16	102.96614098548889	pulse	1	t		14.0	2.5	/experiments/AOT/AOT_stimuli/rescaled_final/1655_fw.mp4	0.0	125.15705299377441	
16	104.57459092140198	pulse	1	t		14.0	2.5	/experiments/AOT/AOT_stimuli/rescaled_final/1655_fw.mp4	0.0	126.7655029296875	
16	104.68274593353271	fix_post	2		12	14.0	2.5	/experiments/AOT/AOT_stimuli/rescaled_final/1655_fw.mp4	0.0	126.87365794181824	0.0998990535736084
17	104.78264498710632	fix_pre	0		120	15.0	2.5	/experiments/AOT/AOT_stimuli/rescaled_final/0271_rv.mp4	0.0	126.97355699539185	1.0000889301300049
17	105.78273391723633	movie	1		245	15.0	2.5	/experiments/AOT/AOT_stimuli/rescaled_final/0271_rv.mp4	0.0	127.97364592552185	2.4999351501464844
17	106.16707301139832	pulse	1	t		15.0	2.5	/experiments/AOT/AOT_stimuli/rescaled_final/0271_rv.mp4	0.0	128.35798501968384	
17	107.76610493659973	pulse	1	t		15.0	2.5	/experiments/AOT/AOT_stimuli/rescaled_final/0271_rv.mp4	0.0	129.95701694488525	
17	108.28266906738281	fix_post	2		12	15.0	2.5	/experiments/AOT/AOT_stimuli/rescaled_final/0271_rv.mp4	0.0	130.47358107566833	0.09997296333312988
18	108.38264203071594	fix_pre	0		119	16.0	2.5	/experiments/AOT/AOT_stimuli/rescaled_final/0959_fw.mp4	0.0	130.57355403900146	0.9916799068450928
18	109.36617803573608	pulse	0	t		16.0	2.5	/experiments/AOT/AOT_stimuli/rescaled_final/0959_fw.mp4	0.0	131.5570900440216	
18	109.37432193756104	movie	1		246	16.0	2.5	/experiments/AOT/AOT_stimuli/rescaled_final/0959_fw.mp4	0.0	131.56523394584656	2.508427143096924
18	110.9657850265503	pulse	1	t		16.0	2.5	/experiments/AOT/AOT_stimuli/rescaled_final/0959_fw.mp4	0.0	133.15669703483582	
18	111.88274908065796	fix_post	2		12	16.0	2.5	/experiments/AOT/AOT_stimuli/rescaled_final/0959_fw.mp4	0.0	134.07366108894348	0.09991097450256348
19	111.98266005516052	fix_pre	0		120	17.0	2.5	/experiments/AOT/AOT_stimuli/rescaled_final/0281_fw.mp4	0.0	134.17357206344604	1.0000219345092773
19	112.56607103347778	pulse	0	t		17.0	2.5	/experiments/AOT/AOT_stimuli/rescaled_final/0281_fw.mp4	0.0	134.7569830417633	
19	112.9826819896698	movie	1		245	17.0	2.5	/experiments/AOT/AOT_stimuli/rescaled_final/0281_fw.mp4	0.0	135.17359399795532	2.499925136566162
19	114.16619896888733	pulse	1	t		17.0	2.5	/experiments/AOT/AOT_stimuli/rescaled_final/0281_fw.mp4	0.0	136.35711097717285	
19	115.48260712623596	fix_post	2		12	17.0	2.5	/experiments/AOT/AOT_stimuli/rescaled_final/0281_fw.mp4	0.0	137.67351913452148	0.10002899169921875
20	115.58263611793518	fix_pre	0		120	18.0	2.5	/experiments/AOT/AOT_stimuli/rescaled_final/0215_rv.mp4	0.0	137.7735481262207	1.0000410079956055
20	115.76613306999207	pulse	0	t		18.0	2.5	/experiments/AOT/AOT_stimuli/rescaled_final/0215_rv.mp4	0.0	137.9570450782776	
20	116.58267712593079	movie	1		244	18.0	2.5	/experiments/AOT/AOT_stimuli/rescaled_final/0215_rv.mp4	0.0	138.7735891342163	2.4999258518218994
20	117.3660900592804	pulse	1	t		18.0	2.5	/experiments/AOT/AOT_stimuli/rescaled_final/0215_rv.mp4	0.0	139.55700206756592	
20	118.96560311317444	pulse	1	t		18.0	2.5	/experiments/AOT/AOT_stimuli/rescaled_final/0215_rv.mp4	0.0	141.15651512145996	
20	119.08260297775269	fix_post	2		12	18.0	2.5	/experiments/AOT/AOT_stimuli/rescaled_final/0215_rv.mp4	0.0	141.2735149860382	0.09994316101074219
21	119.18254613876343	fix_pre	0		120	19.0	2.5	blank	1.0	141.37345814704895	1.000086784362793
21	120.18263292312622	movie	1		300	19.0	2.5	blank	1.0	142.37354493141174	2.500030994415283
21	120.5660879611969	pulse	1	t		19.0	2.5	blank	1.0	142.75699996948242	
21	122.1659939289093	pulse	1	t		19.0	2.5	blank	1.0	144.35690593719482	
21	122.6826639175415	fix_post	2		12	19.0	2.5	blank	1.0	144.87357592582703	0.09999203681945801
22	122.78265595436096	fix_pre	0		119	20.0	2.5	/experiments/AOT/AOT_stimuli/rescaled_final/2094_rv.mp4	0.0	144.97356796264648	0.9916231632232666
22	123.76602101325989	pulse	0	t		20.0	2.5	/experiments/AOT/AOT_stimuli/rescaled_final/2094_rv.mp4	0.0	145.9569330215454	
22	123.77427911758423	movie	1		243	20.0	2.5	/experiments/AOT/AOT_stimuli/rescaled_final/2094_rv.mp4	0.0	145.96519112586975	2.5078928470611572
22	125.3657591342926	pulse	1	t		20.0	2.5	/experiments/AOT/AOT_stimuli/rescaled_final/2094_rv.mp4	0.0	147.55667114257812	
22	126.28217196464539	fix_post	2		12	20.0	2.5	/experiments/AOT/AOT_stimuli/rescaled_final/2094_rv.mp4	0.0	148.4730839729309	0.10033512115478516
23	126.38250708580017	fix_pre	0		120	21.0	2.5	/experiments/AOT/AOT_stimuli/rescaled_final/1268_fw.mp4	0.0	148.5734190940857	1.0000410079956055
23	126.96603608131409	pulse	0	t		21.0	2.5	/experiments/AOT/AOT_stimuli/rescaled_final/1268_fw.mp4	0.0	149.1569480895996	
23	127.38254809379578	movie	1		247	21.0	2.5	/experiments/AOT/AOT_stimuli/rescaled_final/1268_fw.mp4	0.0	149.5734601020813	2.500056028366089
23	128.56615710258484	pulse	1	t		21.0	2.5	/experiments/AOT/AOT_stimuli/rescaled_final/1268_fw.mp4	0.0	150.75706911087036	
23	129.88260412216187	fix_post	2		12	21.0	2.5	/experiments/AOT/AOT_stimuli/rescaled_final/1268_fw.mp4	0.0	152.0735161304474	0.09993290901184082
24	129.9825370311737	fix_pre	0		120	22.0	2.5	/experiments/AOT/AOT_stimuli/rescaled_final/0062_rv.mp4	0.0	152.17344903945923	1.0001699924468994
24	130.16609692573547	pulse	0	t		22.0	2.5	/experiments/AOT/AOT_stimuli/rescaled_final/0062_rv.mp4	0.0	152.357008934021	
24	130.9827070236206	movie	1		243	22.0	2.5	/experiments/AOT/AOT_stimuli/rescaled_final/0062_rv.mp4	0.0	153.17361903190613	2.4998130798339844
24	131.76605200767517	pulse	1	t		22.0	2.5	/experiments/AOT/AOT_stimuli/rescaled_final/0062_rv.mp4	0.0	153.9569640159607	
24	133.3744080066681	pulse	1	t		22.0	2.5	/experiments/AOT/AOT_stimuli/rescaled_final/0062_rv.mp4	0.0	155.5653200149536	
24	133.4825201034546	fix_post	2		12	22.0	2.5	/experiments/AOT/AOT_stimuli/rescaled_final/0062_rv.mp4	0.0	155.6734321117401	0.10001587867736816
25	133.58253598213196	fix_pre	0		120	23.0	2.5	/experiments/AOT/AOT_stimuli/rescaled_final/1556_rv.mp4	0.0	155.77344799041748	0.9999980926513672
25	134.58253407478333	movie	1		245	23.0	2.5	/experiments/AOT/AOT_stimuli/rescaled_final/1556_rv.mp4	0.0	156.77344608306885	2.4999170303344727
25	134.96547198295593	pulse	1	t		23.0	2.5	/experiments/AOT/AOT_stimuli/rescaled_final/1556_rv.mp4	0.0	157.15638399124146	
25	136.56600904464722	pulse	1	t		23.0	2.5	/experiments/AOT/AOT_stimuli/rescaled_final/1556_rv.mp4	0.0	158.75692105293274	
25	137.0824511051178	fix_post	2		12	23.0	2.5	/experiments/AOT/AOT_stimuli/rescaled_final/1556_rv.mp4	0.0	159.27336311340332	0.10011482238769531
26	137.1825659275055	fix_pre	0		119	24.0	2.5	/experiments/AOT/AOT_stimuli/rescaled_final/1645_rv.mp4	0.0	159.37347793579102	0.9915781021118164
26	138.16597890853882	pulse	0	t		24.0	2.5	/experiments/AOT/AOT_stimuli/rescaled_final/1645_rv.mp4	0.0	160.35689091682434	
26	138.1741440296173	movie	1		246	24.0	2.5	/experiments/AOT/AOT_stimuli/rescaled_final/1645_rv.mp4	0.0	160.36505603790283	2.508357048034668
26	139.7657549381256	pulse	1	t		24.0	2.5	/experiments/AOT/AOT_stimuli/rescaled_final/1645_rv.mp4	0.0	161.95666694641113	
26	140.68250107765198	fix_post	2		12	24.0	2.5	/experiments/AOT/AOT_stimuli/rescaled_final/1645_rv.mp4	0.0	162.8734130859375	0.09998583793640137
27	140.78248691558838	fix_pre	0		120	25.0	2.5	/experiments/AOT/AOT_stimuli/rescaled_final/0281_fw.mp4	0.0	162.9733989238739	0.9995911121368408
27	141.36674904823303	pulse	0	t		25.0	2.5	/experiments/AOT/AOT_stimuli/rescaled_final/0281_fw.mp4	0.0	163.55766105651855	
27	141.78207802772522	movie	1		245	25.0	2.5	/experiments/AOT/AOT_stimuli/rescaled_final/0281_fw.mp4	0.0	163.97299003601074	2.500624895095825
27	142.96602606773376	pulse	1	t		25.0	2.5	/experiments/AOT/AOT_stimuli/rescaled_final/0281_fw.mp4	0.0	165.1569380760193	
27	144.28270292282104	fix_post	2		12	25.0	2.5	/experiments/AOT/AOT_stimuli/rescaled_final/0281_fw.mp4	0.0	166.47361493110657	0.1000971794128418
28	144.3828001022339	fix_pre	0		120	26.0	2.5	/experiments/AOT/AOT_stimuli/rescaled_final/0776_fw.mp4	0.0	166.5737121105194	0.9996700286865234
28	144.5659511089325	pulse	0	t		26.0	2.5	/experiments/AOT/AOT_stimuli/rescaled_final/0776_fw.mp4	0.0	166.75686311721802	
28	145.3824701309204	movie	1		244	26.0	2.5	/experiments/AOT/AOT_stimuli/rescaled_final/0776_fw.mp4	0.0	167.57338213920593	2.500013828277588
28	146.1659209728241	pulse	1	t		26.0	2.5	/experiments/AOT/AOT_stimuli/rescaled_final/0776_fw.mp4	0.0	168.35683298110962	
28	147.77437090873718	pulse	1	t		26.0	2.5	/experiments/AOT/AOT_stimuli/rescaled_final/0776_fw.mp4	0.0	169.9652829170227	
28	147.882483959198	fix_post	2		12	26.0	2.5	/experiments/AOT/AOT_stimuli/rescaled_final/0776_fw.mp4	0.0	170.07339596748352	0.10003209114074707
29	147.98251605033875	fix_pre	0		120	27.0	2.5	/experiments/AOT/AOT_stimuli/rescaled_final/1280_fw.mp4	0.0	170.17342805862427	0.9999790191650391
29	148.98249506950378	movie	1		246	27.0	2.5	/experiments/AOT/AOT_stimuli/rescaled_final/1280_fw.mp4	0.0	171.1734070777893	2.4995970726013184
29	149.3656439781189	pulse	1	t		27.0	2.5	/experiments/AOT/AOT_stimuli/rescaled_final/1280_fw.mp4	0.0	171.55655598640442	
29	150.96591711044312	pulse	1	t		27.0	2.5	/experiments/AOT/AOT_stimuli/rescaled_final/1280_fw.mp4	0.0	173.15682911872864	
29	151.4820921421051	fix_post	2		12	27.0	2.5	/experiments/AOT/AOT_stimuli/rescaled_final/1280_fw.mp4	0.0	173.67300415039062	0.10001897811889648
30	151.582111120224	fix_pre	0		119	28.0	2.5	blank	1.0	173.77302312850952	0.9920048713684082
30	152.5659589767456	pulse	0	t		28.0	2.5	blank	1.0	174.75687098503113	
30	152.5741159915924	movie	1		301	28.0	2.5	blank	1.0	174.76502799987793	2.508342981338501
30	154.16590094566345	pulse	1	t		28.0	2.5	blank	1.0	176.35681295394897	
30	155.0824589729309	fix_post	2		12	28.0	2.5	blank	1.0	177.27337098121643	0.09998893737792969
31	155.18244791030884	fix_pre	0		120	29.0	2.5	/experiments/AOT/AOT_stimuli/rescaled_final/0479_rv.mp4	0.0	177.37335991859436	0.9999890327453613
31	155.76590013504028	pulse	0	t		29.0	2.5	/experiments/AOT/AOT_stimuli/rescaled_final/0479_rv.mp4	0.0	177.9568121433258	
31	156.1824369430542	movie	1		243	29.0	2.5	/experiments/AOT/AOT_stimuli/rescaled_final/0479_rv.mp4	0.0	178.37334895133972	2.499988079071045
31	157.36593794822693	pulse	1	t		29.0	2.5	/experiments/AOT/AOT_stimuli/rescaled_final/0479_rv.mp4	0.0	179.55684995651245	
31	158.68242502212524	fix_post	2		12	29.0	2.5	/experiments/AOT/AOT_stimuli/rescaled_final/0479_rv.mp4	0.0	180.87333703041077	0.09999299049377441
32	158.78241801261902	fix_pre	0		120	30.0	2.5	/experiments/AOT/AOT_stimuli/rescaled_final/1897_fw.mp4	0.0	180.97333002090454	1.0000081062316895
32	158.96595692634583	pulse	0	t		30.0	2.5	/experiments/AOT/AOT_stimuli/rescaled_final/1897_fw.mp4	0.0	181.15686893463135	
32	159.7824261188507	movie	1		246	30.0	2.5	/experiments/AOT/AOT_stimuli/rescaled_final/1897_fw.mp4	0.0	181.97333812713623	2.4999799728393555
32	160.5658609867096	pulse	1	t		30.0	2.5	/experiments/AOT/AOT_stimuli/rescaled_final/1897_fw.mp4	0.0	182.75677299499512	
32	162.16586709022522	pulse	1	t		30.0	2.5	/experiments/AOT/AOT_stimuli/rescaled_final/1897_fw.mp4	0.0	184.35677909851074	
32	162.28240609169006	fix_post	2		12	30.0	2.5	/experiments/AOT/AOT_stimuli/rescaled_final/1897_fw.mp4	0.0	184.4733180999756	0.10001587867736816
33	162.38242197036743	fix_pre	0		120	31.0	2.5	/experiments/AOT/AOT_stimuli/rescaled_final/1830_rv.mp4	0.0	184.57333397865295	0.9999821186065674
33	163.382404088974	movie	1		244	31.0	2.5	/experiments/AOT/AOT_stimuli/rescaled_final/1830_rv.mp4	0.0	185.57331609725952	2.500208854675293
33	163.7659890651703	pulse	1	t		31.0	2.5	/experiments/AOT/AOT_stimuli/rescaled_final/1830_rv.mp4	0.0	185.9569010734558	
33	165.36591291427612	pulse	1	t		31.0	2.5	/experiments/AOT/AOT_stimuli/rescaled_final/1830_rv.mp4	0.0	187.55682492256165	
33	165.8826129436493	fix_post	2		12	31.0	2.5	/experiments/AOT/AOT_stimuli/rescaled_final/1830_rv.mp4	0.0	188.07352495193481	0.09978103637695312
34	165.98239398002625	fix_pre	0		119	32.0	2.5	/experiments/AOT/AOT_stimuli/rescaled_final/0302_fw.mp4	0.0	188.17330598831177	0.9916150569915771
34	166.96592497825623	pulse	0	t		32.0	2.5	/experiments/AOT/AOT_stimuli/rescaled_final/0302_fw.mp4	0.0	189.15683698654175	
34	166.97400903701782	movie	1		244	32.0	2.5	/experiments/AOT/AOT_stimuli/rescaled_final/0302_fw.mp4	0.0	189.16492104530334	2.5082650184631348
34	168.56547498703003	pulse	1	t		32.0	2.5	/experiments/AOT/AOT_stimuli/rescaled_final/0302_fw.mp4	0.0	190.75638699531555	
34	169.48227405548096	fix_post	2		12	32.0	2.5	/experiments/AOT/AOT_stimuli/rescaled_final/0302_fw.mp4	0.0	191.67318606376648	0.10002589225769043
35	169.58229994773865	fix_pre	0		120	33.0	2.5	/experiments/AOT/AOT_stimuli/rescaled_final/1769_rv.mp4	0.0	191.77321195602417	1.0000090599060059
35	170.16585898399353	pulse	0	t		33.0	2.5	/experiments/AOT/AOT_stimuli/rescaled_final/1769_rv.mp4	0.0	192.35677099227905	
35	170.58230900764465	movie	1		243	33.0	2.5	/experiments/AOT/AOT_stimuli/rescaled_final/1769_rv.mp4	0.0	192.77322101593018	2.5000619888305664
35	171.7659149169922	pulse	1	t		33.0	2.5	/experiments/AOT/AOT_stimuli/rescaled_final/1769_rv.mp4	0.0	193.9568269252777	
35	173.08237099647522	fix_post	2		12	33.0	2.5	/experiments/AOT/AOT_stimuli/rescaled_final/1769_rv.mp4	0.0	195.27328300476074	0.09995794296264648
36	173.18232893943787	fix_pre	0		120	34.0	2.5	blank	1.0	195.3732409477234	0.9999651908874512
36	173.36586093902588	pulse	0	t		34.0	2.5	blank	1.0	195.5567729473114	
36	174.18229413032532	movie	1		300	34.0	2.5	blank	1.0	196.37320613861084	2.5000457763671875
36	174.9658179283142	pulse	1	t		34.0	2.5	blank	1.0	197.15672993659973	
36	176.5657241344452	pulse	1	t		34.0	2.5	blank	1.0	198.7566361427307	
36	176.6823399066925	fix_post	2		12	34.0	2.5	blank	1.0	198.87325191497803	0.09999823570251465
37	176.78233814239502	fix_pre	0		120	35.0	2.5	/experiments/AOT/AOT_stimuli/rescaled_final/2025_fw.mp4	0.0	198.97325015068054	1.0000379085540771
37	177.7823760509491	movie	1		246	35.0	2.5	/experiments/AOT/AOT_stimuli/rescaled_final/2025_fw.mp4	0.0	199.97328805923462	2.4999868869781494
37	178.16612696647644	pulse	1	t		35.0	2.5	/experiments/AOT/AOT_stimuli/rescaled_final/2025_fw.mp4	0.0	200.35703897476196	
37	179.76571702957153	pulse	1	t		35.0	2.5	/experiments/AOT/AOT_stimuli/rescaled_final/2025_fw.mp4	0.0	201.95662903785706	
37	180.28236293792725	fix_post	2		12	35.0	2.5	/experiments/AOT/AOT_stimuli/rescaled_final/2025_fw.mp4	0.0	202.47327494621277	0.10005998611450195
38	180.38242292404175	fix_pre	0		119	36.0	2.5	/experiments/AOT/AOT_stimuli/rescaled_final/0910_rv.mp4	0.0	202.57333493232727	0.991549015045166
38	181.36581301689148	pulse	0	t		36.0	2.5	/experiments/AOT/AOT_stimuli/rescaled_final/0910_rv.mp4	0.0	203.556725025177	
38	181.3739719390869	movie	1		244	36.0	2.5	/experiments/AOT/AOT_stimuli/rescaled_final/0910_rv.mp4	0.0	203.56488394737244	2.5082671642303467
38	182.96546006202698	pulse	1	t		36.0	2.5	/experiments/AOT/AOT_stimuli/rescaled_final/0910_rv.mp4	0.0	205.1563720703125	
38	183.88223910331726	fix_post	2		12	36.0	2.5	/experiments/AOT/AOT_stimuli/rescaled_final/0910_rv.mp4	0.0	206.07315111160278	0.10001087188720703
39	183.98224997520447	fix_pre	0		120	37.0	2.5	/experiments/AOT/AOT_stimuli/rescaled_final/0530_fw.mp4	0.0	206.17316198349	0.9999749660491943
39	184.56586003303528	pulse	0	t		37.0	2.5	/experiments/AOT/AOT_stimuli/rescaled_final/0530_fw.mp4	0.0	206.7567720413208	
39	184.98222494125366	movie	1		242	37.0	2.5	/experiments/AOT/AOT_stimuli/rescaled_final/0530_fw.mp4	0.0	207.17313694953918	2.500059127807617
39	186.16593313217163	pulse	1	t		37.0	2.5	/experiments/AOT/AOT_stimuli/rescaled_final/0530_fw.mp4	0.0	208.35684514045715	
39	187.48228406906128	fix_post	2		12	37.0	2.5	/experiments/AOT/AOT_stimuli/rescaled_final/0530_fw.mp4	0.0	209.6731960773468	0.09996891021728516
40	187.58225297927856	fix_pre	0		120	38.0	2.5	/experiments/AOT/AOT_stimuli/rescaled_final/1347_fw.mp4	0.0	209.7731649875641	1.0000989437103271
40	187.76585006713867	pulse	0	t		38.0	2.5	/experiments/AOT/AOT_stimuli/rescaled_final/1347_fw.mp4	0.0	209.9567620754242	
40	188.5823519229889	movie	1		244	38.0	2.5	/experiments/AOT/AOT_stimuli/rescaled_final/1347_fw.mp4	0.0	210.7732639312744	2.499962091445923
40	189.36574506759644	pulse	1	t		38.0	2.5	/experiments/AOT/AOT_stimuli/rescaled_final/1347_fw.mp4	0.0	211.55665707588196	
40	190.97413396835327	pulse	1	t		38.0	2.5	/experiments/AOT/AOT_stimuli/rescaled_final/1347_fw.mp4	0.0	213.1650459766388	
40	191.08231401443481	fix_post	2		12	38.0	2.5	/experiments/AOT/AOT_stimuli/rescaled_final/1347_fw.mp4	0.0	213.27322602272034	0.09995412826538086
41	191.1822681427002	fix_pre	0		120	39.0	2.5	/experiments/AOT/AOT_stimuli/rescaled_final/1475_fw.mp4	0.0	213.37318015098572	0.9999399185180664
41	192.18220806121826	movie	1		244	39.0	2.5	/experiments/AOT/AOT_stimuli/rescaled_final/1475_fw.mp4	0.0	214.37312006950378	2.4999799728393555
41	192.56552505493164	pulse	1	t		39.0	2.5	/experiments/AOT/AOT_stimuli/rescaled_final/1475_fw.mp4	0.0	214.75643706321716	
41	194.16570806503296	pulse	1	t		39.0	2.5	/experiments/AOT/AOT_stimuli/rescaled_final/1475_fw.mp4	0.0	216.35662007331848	
41	194.68218803405762	fix_post	2		12	39.0	2.5	/experiments/AOT/AOT_stimuli/rescaled_final/1475_fw.mp4	0.0	216.87310004234314	0.10006093978881836
42	194.78224897384644	fix_pre	0		119	40.0	2.5	blank	1.0	216.97316098213196	0.9916810989379883
42	195.76566100120544	pulse	0	t		40.0	2.5	blank	1.0	217.95657300949097	
42	195.77393007278442	movie	1		301	40.0	2.5	blank	1.0	217.96484208106995	2.507906913757324
42	197.36577105522156	pulse	1	t		40.0	2.5	blank	1.0	219.55668306350708	
42	198.28183698654175	fix_post	2		12	40.0	2.5	blank	1.0	220.47274899482727	0.10001492500305176
43	198.3818519115448	fix_pre	0		120	41.0	2.5	/experiments/AOT/AOT_stimuli/rescaled_final/1677_rv.mp4	0.0	220.57276391983032	1.0000710487365723
43	198.96541905403137	pulse	0	t		41.0	2.5	/experiments/AOT/AOT_stimuli/rescaled_final/1677_rv.mp4	0.0	221.1563310623169	
43	199.38192296028137	movie	1		246	41.0	2.5	/experiments/AOT/AOT_stimuli/rescaled_final/1677_rv.mp4	0.0	221.5728349685669	2.500296115875244
43	200.5660219192505	pulse	1	t		41.0	2.5	/experiments/AOT/AOT_stimuli/rescaled_final/1677_rv.mp4	0.0	222.756933927536	
43	201.88221907615662	fix_post	2		12	41.0	2.5	/experiments/AOT/AOT_stimuli/rescaled_final/1677_rv.mp4	0.0	224.07313108444214	0.09996199607849121
44	201.9821810722351	fix_pre	0		120	42.0	2.5	/experiments/AOT/AOT_stimuli/rescaled_final/1482_rv.mp4	0.0	224.17309308052063	1.000087022781372
44	202.1656699180603	pulse	0	t		42.0	2.5	/experiments/AOT/AOT_stimuli/rescaled_final/1482_rv.mp4	0.0	224.35658192634583	
44	202.98226809501648	movie	1		244	42.0	2.5	/experiments/AOT/AOT_stimuli/rescaled_final/1482_rv.mp4	0.0	225.173180103302	2.499950885772705
44	203.76558303833008	pulse	1	t		42.0	2.5	/experiments/AOT/AOT_stimuli/rescaled_final/1482_rv.mp4	0.0	225.9564950466156	
44	205.36565399169922	pulse	1	t		42.0	2.5	/experiments/AOT/AOT_stimuli/rescaled_final/1482_rv.mp4	0.0	227.55656599998474	
44	205.48221898078918	fix_post	2		12	42.0	2.5	/experiments/AOT/AOT_stimuli/rescaled_final/1482_rv.mp4	0.0	227.6731309890747	0.10001492500305176
45	205.58223390579224	fix_pre	0		120	43.0	2.5	/experiments/AOT/AOT_stimuli/rescaled_final/2025_rv.mp4	0.0	227.77314591407776	0.9999291896820068
45	206.58216309547424	movie	1		245	43.0	2.5	/experiments/AOT/AOT_stimuli/rescaled_final/2025_rv.mp4	0.0	228.77307510375977	2.5000009536743164
45	206.9652280807495	pulse	1	t		43.0	2.5	/experiments/AOT/AOT_stimuli/rescaled_final/2025_rv.mp4	0.0	229.15614008903503	
45	208.5655710697174	pulse	1	t		43.0	2.5	/experiments/AOT/AOT_stimuli/rescaled_final/2025_rv.mp4	0.0	230.75648307800293	
45	209.08216404914856	fix_post	2		12	43.0	2.5	/experiments/AOT/AOT_stimuli/rescaled_final/2025_rv.mp4	0.0	231.27307605743408	0.09998393058776855
46	209.18214797973633	fix_pre	0		119	44.0	2.5	/experiments/AOT/AOT_stimuli/rescaled_final/0703_rv.mp4	0.0	231.37305998802185	0.9916300773620605
46	210.1655309200287	pulse	0	t		44.0	2.5	/experiments/AOT/AOT_stimuli/rescaled_final/0703_rv.mp4	0.0	232.3564429283142	
46	210.1737780570984	movie	1		245	44.0	2.5	/experiments/AOT/AOT_stimuli/rescaled_final/0703_rv.mp4	0.0	232.3646900653839	2.5084099769592285
46	211.7654950618744	pulse	1	t		44.0	2.5	/experiments/AOT/AOT_stimuli/rescaled_final/0703_rv.mp4	0.0	233.9564070701599	
46	212.68218803405762	fix_post	2		12	44.0	2.5	/experiments/AOT/AOT_stimuli/rescaled_final/0703_rv.mp4	0.0	234.87310004234314	0.09994888305664062
47	212.78213691711426	fix_pre	0		120	45.0	2.5	/experiments/AOT/AOT_stimuli/rescaled_final/2011_fw.mp4	0.0	234.97304892539978	0.9999730587005615
47	213.36565399169922	pulse	0	t		45.0	2.5	/experiments/AOT/AOT_stimuli/rescaled_final/2011_fw.mp4	0.0	235.55656599998474	
47	213.78210997581482	movie	1		245	45.0	2.5	/experiments/AOT/AOT_stimuli/rescaled_final/2011_fw.mp4	0.0	235.97302198410034	2.49997615814209
47	214.96564102172852	pulse	1	t		45.0	2.5	/experiments/AOT/AOT_stimuli/rescaled_final/2011_fw.mp4	0.0	237.15655303001404	
47	216.2820861339569	fix_post	2		12	45.0	2.5	/experiments/AOT/AOT_stimuli/rescaled_final/2011_fw.mp4	0.0	238.47299814224243	0.10001397132873535
48	216.38210010528564	fix_pre	0		120	46.0	2.5	/experiments/AOT/AOT_stimuli/rescaled_final/1192_fw.mp4	0.0	238.57301211357117	1.0000228881835938
48	216.56567907333374	pulse	0	t		46.0	2.5	/experiments/AOT/AOT_stimuli/rescaled_final/1192_fw.mp4	0.0	238.75659108161926	
48	217.38212299346924	movie	1		243	46.0	2.5	/experiments/AOT/AOT_stimuli/rescaled_final/1192_fw.mp4	0.0	239.57303500175476	2.4999520778656006
48	218.16561913490295	pulse	1	t		46.0	2.5	/experiments/AOT/AOT_stimuli/rescaled_final/1192_fw.mp4	0.0	240.35653114318848	
48	219.77399492263794	pulse	1	t		46.0	2.5	/experiments/AOT/AOT_stimuli/rescaled_final/1192_fw.mp4	0.0	241.96490693092346	
48	219.88207507133484	fix_post	2		12	46.0	2.5	/experiments/AOT/AOT_stimuli/rescaled_final/1192_fw.mp4	0.0	242.07298707962036	0.10009193420410156
49	219.98216700553894	fix_pre	0		120	47.0	2.5	/experiments/AOT/AOT_stimuli/rescaled_final/2102_fw.mp4	0.0	242.17307901382446	0.9994990825653076
49	220.98166608810425	movie	1		244	47.0	2.5	/experiments/AOT/AOT_stimuli/rescaled_final/2102_fw.mp4	0.0	243.17257809638977	2.500398874282837
49	221.36531805992126	pulse	1	t		47.0	2.5	/experiments/AOT/AOT_stimuli/rescaled_final/2102_fw.mp4	0.0	243.5562300682068	
49	222.96580696105957	pulse	1	t		47.0	2.5	/experiments/AOT/AOT_stimuli/rescaled_final/2102_fw.mp4	0.0	245.1567189693451	
49	223.48206496238708	fix_post	2		12	47.0	2.5	/experiments/AOT/AOT_stimuli/rescaled_final/2102_fw.mp4	0.0	245.6729769706726	0.09998202323913574
50	223.58204698562622	fix_pre	0		119	48.0	2.5	/experiments/AOT/AOT_stimuli/rescaled_final/0660_fw.mp4	0.0	245.77295899391174	0.991689920425415
50	224.56565594673157	pulse	0	t		48.0	2.5	/experiments/AOT/AOT_stimuli/rescaled_final/0660_fw.mp4	0.0	246.7565679550171	
50	224.57373690605164	movie	1		245	48.0	2.5	/experiments/AOT/AOT_stimuli/rescaled_final/0660_fw.mp4	0.0	246.76464891433716	2.5083811283111572
50	226.1650710105896	pulse	1	t		48.0	2.5	/experiments/AOT/AOT_stimuli/rescaled_final/0660_fw.mp4	0.0	248.35598301887512	
50	227.0821180343628	fix_post	2		12	48.0	2.5	/experiments/AOT/AOT_stimuli/rescaled_final/0660_fw.mp4	0.0	249.27303004264832	0.09992098808288574
51	227.18203902244568	fix_pre	0		120	49.0	2.5	blank	1.0	249.3729510307312	1.000014066696167
51	227.7655861377716	pulse	0	t		49.0	2.5	blank	1.0	249.95649814605713	
51	228.18205308914185	movie	1		300	49.0	2.5	blank	1.0	250.37296509742737	2.5000648498535156
51	229.36559510231018	pulse	1	t		49.0	2.5	blank	1.0	251.5565071105957	
51	230.68211793899536	fix_post	2		12	49.0	2.5	blank	1.0	252.87302994728088	0.09994697570800781
52	230.78206491470337	fix_pre	0		120	50.0	2.5	/experiments/AOT/AOT_stimuli/rescaled_final/0281_rv.mp4	0.0	252.9729769229889	0.9999990463256836
52	230.96564102172852	pulse	0	t		50.0	2.5	/experiments/AOT/AOT_stimuli/rescaled_final/0281_rv.mp4	0.0	253.15655303001404	
52	231.78206396102905	movie	1		244	50.0	2.5	/experiments/AOT/AOT_stimuli/rescaled_final/0281_rv.mp4	0.0	253.97297596931458	2.5000181198120117
52	232.5654821395874	pulse	1	t		50.0	2.5	/experiments/AOT/AOT_stimuli/rescaled_final/0281_rv.mp4	0.0	254.75639414787292	
52	234.17394399642944	pulse	1	t		50.0	2.5	/experiments/AOT/AOT_stimuli/rescaled_final/0281_rv.mp4	0.0	256.36485600471497	
52	234.28208208084106	fix_post	2		12	50.0	2.5	/experiments/AOT/AOT_stimuli/rescaled_final/0281_rv.mp4	0.0	256.4729940891266	0.10002589225769043
53	234.38210797309875	fix_pre	0		120	51.0	2.5	/experiments/AOT/AOT_stimuli/rescaled_final/1088_rv.mp4	0.0	256.5730199813843	0.9999239444732666
53	235.38203191757202	movie	1		246	51.0	2.5	/experiments/AOT/AOT_stimuli/rescaled_final/1088_rv.mp4	0.0	257.57294392585754	2.5000550746917725
53	235.76530408859253	pulse	1	t		51.0	2.5	/experiments/AOT/AOT_stimuli/rescaled_final/1088_rv.mp4	0.0	257.95621609687805	
53	237.36550092697144	pulse	1	t		51.0	2.5	/experiments/AOT/AOT_stimuli/rescaled_final/1088_rv.mp4	0.0	259.55641293525696	
53	237.8820869922638	fix_post	2		12	51.0	2.5	/experiments/AOT/AOT_stimuli/rescaled_final/1088_rv.mp4	0.0	260.0729990005493	0.09997797012329102
54	237.98206496238708	fix_pre	0		119	52.0	2.5	/experiments/AOT/AOT_stimuli/rescaled_final/0647_rv.mp4	0.0	260.1729769706726	0.9915590286254883
54	238.96545100212097	pulse	0	t		52.0	2.5	/experiments/AOT/AOT_stimuli/rescaled_final/0647_rv.mp4	0.0	261.1563630104065	
54	238.97362399101257	movie	1		246	52.0	2.5	/experiments/AOT/AOT_stimuli/rescaled_final/0647_rv.mp4	0.0	261.1645359992981	2.508432149887085
54	240.5650029182434	pulse	1	t		52.0	2.5	/experiments/AOT/AOT_stimuli/rescaled_final/0647_rv.mp4	0.0	262.75591492652893	
54	241.48205614089966	fix_post	2		12	52.0	2.5	/experiments/AOT/AOT_stimuli/rescaled_final/0647_rv.mp4	0.0	263.6729681491852	0.09994697570800781
55	241.58200311660767	fix_pre	0		120	53.0	2.5	/experiments/AOT/AOT_stimuli/rescaled_final/1268_rv.mp4	0.0	263.7729151248932	0.9999408721923828
55	242.1666579246521	pulse	0	t		53.0	2.5	/experiments/AOT/AOT_stimuli/rescaled_final/1268_rv.mp4	0.0	264.3575699329376	
55	242.58194398880005	movie	1		246	53.0	2.5	/experiments/AOT/AOT_stimuli/rescaled_final/1268_rv.mp4	0.0	264.77285599708557	2.5001120567321777
55	243.76555800437927	pulse	1	t		53.0	2.5	/experiments/AOT/AOT_stimuli/rescaled_final/1268_rv.mp4	0.0	265.9564700126648	
55	245.08205604553223	fix_post	2		12	53.0	2.5	/experiments/AOT/AOT_stimuli/rescaled_final/1268_rv.mp4	0.0	267.27296805381775	0.09999299049377441
56	245.182049036026	fix_pre	0		120	54.0	2.5	/experiments/AOT/AOT_stimuli/rescaled_final/1242_fw.mp4	0.0	267.3729610443115	0.9995589256286621
56	245.36554312705994	pulse	0	t		54.0	2.5	/experiments/AOT/AOT_stimuli/rescaled_final/1242_fw.mp4	0.0	267.55645513534546	
56	246.18160796165466	movie	1		244	54.0	2.5	/experiments/AOT/AOT_stimuli/rescaled_final/1242_fw.mp4	0.0	268.3725199699402	2.500425100326538
56	246.96543097496033	pulse	1	t		54.0	2.5	/experiments/AOT/AOT_stimuli/rescaled_final/1242_fw.mp4	0.0	269.15634298324585	
56	248.57393097877502	pulse	1	t		54.0	2.5	/experiments/AOT/AOT_stimuli/rescaled_final/1242_fw.mp4	0.0	270.76484298706055	
56	248.6820330619812	fix_post	2		12	54.0	2.5	/experiments/AOT/AOT_stimuli/rescaled_final/1242_fw.mp4	0.0	270.8729450702667	0.0998990535736084
57	248.7819321155548	fix_pre	0		120	55.0	2.5	blank	1.0	270.97284412384033	1.0000498294830322
57	249.78198194503784	movie	1		300	55.0	2.5	blank	1.0	271.97289395332336	2.5000081062316895
57	250.16568899154663	pulse	1	t		55.0	2.5	blank	1.0	272.35660099983215	
57	251.76550602912903	pulse	1	t		55.0	2.5	blank	1.0	273.95641803741455	
57	252.28199005126953	fix_post	2		12	55.0	2.5	blank	1.0	274.47290205955505	0.10017204284667969
58	252.3821620941162	fix_pre	0		119	56.0	2.5	/experiments/AOT/AOT_stimuli/rescaled_final/1371_rv.mp4	0.0	274.57307410240173	0.9914209842681885
58	253.36545991897583	pulse	0	t		56.0	2.5	/experiments/AOT/AOT_stimuli/rescaled_final/1371_rv.mp4	0.0	275.55637192726135	
58	253.3735830783844	movie	1		246	56.0	2.5	/experiments/AOT/AOT_stimuli/rescaled_final/1371_rv.mp4	0.0	275.5644950866699	2.5085768699645996
58	254.97345304489136	pulse	1	t		56.0	2.5	/experiments/AOT/AOT_stimuli/rescaled_final/1371_rv.mp4	0.0	277.1643650531769	
58	255.882159948349	fix_post	2		12	56.0	2.5	/experiments/AOT/AOT_stimuli/rescaled_final/1371_rv.mp4	0.0	278.0730719566345	0.09998512268066406
59	255.98214507102966	fix_pre	0		120	57.0	2.5	/experiments/AOT/AOT_stimuli/rescaled_final/1554_fw.mp4	0.0	278.1730570793152	0.9997959136962891
59	256.5653409957886	pulse	0	t		57.0	2.5	/experiments/AOT/AOT_stimuli/rescaled_final/1554_fw.mp4	0.0	278.7562530040741	
59	256.98194098472595	movie	1		244	57.0	2.5	/experiments/AOT/AOT_stimuli/rescaled_final/1554_fw.mp4	0.0	279.1728529930115	2.4999139308929443
59	258.1654419898987	pulse	1	t		57.0	2.5	/experiments/AOT/AOT_stimuli/rescaled_final/1554_fw.mp4	0.0	280.3563539981842	
59	259.4818549156189	fix_post	2		12	57.0	2.5	/experiments/AOT/AOT_stimuli/rescaled_final/1554_fw.mp4	0.0	281.6727669239044	0.10002899169921875
60	259.5818839073181	fix_pre	0		120	58.0	2.5	/experiments/AOT/AOT_stimuli/rescaled_final/1011_rv.mp4	0.0	281.77279591560364	1.000042200088501
60	259.7661941051483	pulse	0	t		58.0	2.5	/experiments/AOT/AOT_stimuli/rescaled_final/1011_rv.mp4	0.0	281.95710611343384	
60	260.5819261074066	movie	1		244	58.0	2.5	/experiments/AOT/AOT_stimuli/rescaled_final/1011_rv.mp4	0.0	282.77283811569214	2.499552011489868
60	261.36614298820496	pulse	1	t		58.0	2.5	/experiments/AOT/AOT_stimuli/rescaled_final/1011_rv.mp4	0.0	283.5570549964905	
60	262.9738280773163	pulse	1	t		58.0	2.5	/experiments/AOT/AOT_stimuli/rescaled_final/1011_rv.mp4	0.0	285.1647400856018	
60	263.0814781188965	fix_post	2		12	58.0	2.5	/experiments/AOT/AOT_stimuli/rescaled_final/1011_rv.mp4	0.0	285.272390127182	0.10041379928588867
61	263.1818919181824	fix_pre	0		120	59.0	2.5	/experiments/AOT/AOT_stimuli/rescaled_final/0215_fw.mp4	0.0	285.3728039264679	0.9996252059936523
61	264.181517124176	movie	1		244	59.0	2.5	/experiments/AOT/AOT_stimuli/rescaled_final/0215_fw.mp4	0.0	286.37242913246155	2.500347852706909
61	264.5737750530243	pulse	1	t		59.0	2.5	/experiments/AOT/AOT_stimuli/rescaled_final/0215_fw.mp4	0.0	286.7646870613098	
61	266.16526913642883	pulse	1	t		59.0	2.5	/experiments/AOT/AOT_stimuli/rescaled_final/0215_fw.mp4	0.0	288.35618114471436	
61	266.68186497688293	fix_post	2		12	59.0	2.5	/experiments/AOT/AOT_stimuli/rescaled_final/0215_fw.mp4	0.0	288.87277698516846	0.10010600090026855
62	266.7819709777832	fix_pre	0		119	60.0	2.5	/experiments/AOT/AOT_stimuli/rescaled_final/0314_fw.mp4	0.0	288.9728829860687	0.991523027420044
62	267.7653639316559	pulse	0	t		60.0	2.5	/experiments/AOT/AOT_stimuli/rescaled_final/0314_fw.mp4	0.0	289.9562759399414	
62	267.77349400520325	movie	1		246	60.0	2.5	/experiments/AOT/AOT_stimuli/rescaled_final/0314_fw.mp4	0.0	289.96440601348877	2.508352041244507
62	269.36527013778687	pulse	1	t		60.0	2.5	/experiments/AOT/AOT_stimuli/rescaled_final/0314_fw.mp4	0.0	291.5561821460724	
62	270.28184604644775	fix_post	2		12	60.0	2.5	/experiments/AOT/AOT_stimuli/rescaled_final/0314_fw.mp4	0.0	292.4727580547333	0.09996795654296875
63	270.3818140029907	fix_pre	0		120	61.0	2.5	blank	1.0	292.57272601127625	0.9999570846557617
63	270.965371131897	pulse	0	t		61.0	2.5	blank	1.0	293.1562831401825	
63	271.3817710876465	movie	1		298	61.0	2.5	blank	1.0	293.572683095932	2.500195026397705
63	272.565269947052	pulse	1	t		61.0	2.5	blank	1.0	294.7561819553375	
63	273.8819661140442	fix_post	2		12	61.0	2.5	blank	1.0	296.0728781223297	0.0998079776763916
64	273.9817740917206	fix_pre	0		120	62.0	2.5	/experiments/AOT/AOT_stimuli/rescaled_final/0035_rv.mp4	0.0	296.1726861000061	0.9996418952941895
64	274.1653699874878	pulse	0	t		62.0	2.5	/experiments/AOT/AOT_stimuli/rescaled_final/0035_rv.mp4	0.0	296.3562819957733	
64	274.98141598701477	movie	1		243	62.0	2.5	/experiments/AOT/AOT_stimuli/rescaled_final/0035_rv.mp4	0.0	297.1723279953003	2.500023126602173
64	275.7662479877472	pulse	1	t		62.0	2.5	/experiments/AOT/AOT_stimuli/rescaled_final/0035_rv.mp4	0.0	297.9571599960327	
64	277.37374806404114	pulse	1	t		62.0	2.5	/experiments/AOT/AOT_stimuli/rescaled_final/0035_rv.mp4	0.0	299.56466007232666	
64	277.48143911361694	fix_post	2		12	62.0	2.5	/experiments/AOT/AOT_stimuli/rescaled_final/0035_rv.mp4	0.0	299.67235112190247	0.10035991668701172
65	277.58179903030396	fix_pre	0		120	63.0	2.5	/experiments/AOT/AOT_stimuli/rescaled_final/1749_rv.mp4	0.0	299.7727110385895	1.0000579357147217
65	278.5818569660187	movie	1		244	63.0	2.5	/experiments/AOT/AOT_stimuli/rescaled_final/1749_rv.mp4	0.0	300.7727689743042	2.4999561309814453
65	278.97374296188354	pulse	1	t		63.0	2.5	/experiments/AOT/AOT_stimuli/rescaled_final/1749_rv.mp4	0.0	301.16465497016907	
65	280.5653119087219	pulse	1	t		63.0	2.5	/experiments/AOT/AOT_stimuli/rescaled_final/1749_rv.mp4	0.0	302.75622391700745	
65	281.0818130970001	fix_post	2		12	63.0	2.5	/experiments/AOT/AOT_stimuli/rescaled_final/1749_rv.mp4	0.0	303.27272510528564	0.10000801086425781
66	281.1818211078644	fix_pre	0		119	64.0	2.5	/experiments/AOT/AOT_stimuli/rescaled_final/1012_fw.mp4	0.0	303.3727331161499	0.9916448593139648
66	282.1652789115906	pulse	0	t		64.0	2.5	/experiments/AOT/AOT_stimuli/rescaled_final/1012_fw.mp4	0.0	304.3561909198761	
66	282.17346596717834	movie	1		244	64.0	2.5	/experiments/AOT/AOT_stimuli/rescaled_final/1012_fw.mp4	0.0	304.36437797546387	2.508347988128662
66	283.77372002601624	pulse	1	t		64.0	2.5	/experiments/AOT/AOT_stimuli/rescaled_final/1012_fw.mp4	0.0	305.96463203430176	
66	284.681813955307	fix_post	2		12	64.0	2.5	/experiments/AOT/AOT_stimuli/rescaled_final/1012_fw.mp4	0.0	306.87272596359253	0.09992098808288574
67	284.7817349433899	fix_pre	0		120	65.0	2.5	/experiments/AOT/AOT_stimuli/rescaled_final/1854_rv.mp4	0.0	306.9726469516754	1.0000040531158447
67	285.36523604393005	pulse	0	t		65.0	2.5	/experiments/AOT/AOT_stimuli/rescaled_final/1854_rv.mp4	0.0	307.5561480522156	
67	285.78173899650574	movie	1		245	65.0	2.5	/experiments/AOT/AOT_stimuli/rescaled_final/1854_rv.mp4	0.0	307.97265100479126	2.500033140182495
67	286.965292930603	pulse	1	t		65.0	2.5	/experiments/AOT/AOT_stimuli/rescaled_final/1854_rv.mp4	0.0	309.15620493888855	
67	288.28177213668823	fix_post	2		12	65.0	2.5	/experiments/AOT/AOT_stimuli/rescaled_final/1854_rv.mp4	0.0	310.47268414497375	0.09998178482055664
68	288.3817539215088	fix_pre	0		120	66.0	2.5	/experiments/AOT/AOT_stimuli/rescaled_final/0777_fw.mp4	0.0	310.5726659297943	0.9999480247497559
68	288.5652949810028	pulse	0	t		66.0	2.5	/experiments/AOT/AOT_stimuli/rescaled_final/0777_fw.mp4	0.0	310.75620698928833	
68	289.38170194625854	movie	1		246	66.0	2.5	/experiments/AOT/AOT_stimuli/rescaled_final/0777_fw.mp4	0.0	311.57261395454407	2.5000240802764893
68	290.1652159690857	pulse	1	t		66.0	2.5	/experiments/AOT/AOT_stimuli/rescaled_final/0777_fw.mp4	0.0	312.3561279773712	
68	291.76583909988403	pulse	1	t		66.0	2.5	/experiments/AOT/AOT_stimuli/rescaled_final/0777_fw.mp4	0.0	313.95675110816956	
68	291.88172602653503	fix_post	2		12	66.0	2.5	/experiments/AOT/AOT_stimuli/rescaled_final/0777_fw.mp4	0.0	314.07263803482056	0.10005998611450195
69	291.98178601264954	fix_pre	0		120	67.0	2.5	/experiments/AOT/AOT_stimuli/rescaled_final/0870_fw.mp4	0.0	314.17269802093506	0.9999980926513672
69	292.9817841053009	movie	1		245	67.0	2.5	/experiments/AOT/AOT_stimuli/rescaled_final/0870_fw.mp4	0.0	315.1726961135864	2.4995439052581787
69	293.37372398376465	pulse	1	t		67.0	2.5	/experiments/AOT/AOT_stimuli/rescaled_final/0870_fw.mp4	0.0	315.56463599205017	
69	294.9660289287567	pulse	1	t		67.0	2.5	/experiments/AOT/AOT_stimuli/rescaled_final/0870_fw.mp4	0.0	317.15694093704224	
69	295.4813280105591	fix_post	2		12	67.0	2.5	/experiments/AOT/AOT_stimuli/rescaled_final/0870_fw.mp4	0.0	317.6722400188446	0.10038399696350098
70	295.5817120075226	fix_pre	0		119	68.0	2.5	blank	1.0	317.7726240158081	0.9916770458221436
70	296.56519508361816	pulse	0	t		68.0	2.5	blank	1.0	318.7561070919037	
70	296.5733890533447	movie	1		301	68.0	2.5	blank	1.0	318.76430106163025	2.5083320140838623
70	298.1652400493622	pulse	1	t		68.0	2.5	blank	1.0	320.3561520576477	
70	299.0817210674286	fix_post	2		12	68.0	2.5	blank	1.0	321.2726330757141	0.10004591941833496
71	299.1817669868469	fix_pre	0		120	69.0	2.5	/experiments/AOT/AOT_stimuli/rescaled_final/0751_fw.mp4	0.0	321.37267899513245	0.9999251365661621
71	299.76516008377075	pulse	0	t		69.0	2.5	/experiments/AOT/AOT_stimuli/rescaled_final/0751_fw.mp4	0.0	321.9560720920563	
71	300.1816921234131	movie	1		246	69.0	2.5	/experiments/AOT/AOT_stimuli/rescaled_final/0751_fw.mp4	0.0	322.3726041316986	2.5000479221343994
71	301.36523699760437	pulse	1	t		69.0	2.5	/experiments/AOT/AOT_stimuli/rescaled_final/0751_fw.mp4	0.0	323.5561490058899	
71	302.6817400455475	fix_post	2		12	69.0	2.5	/experiments/AOT/AOT_stimuli/rescaled_final/0751_fw.mp4	0.0	324.872652053833	0.0999610424041748
72	302.78170108795166	fix_pre	0		120	70.0	2.5	/experiments/AOT/AOT_stimuli/rescaled_final/0696_fw.mp4	0.0	324.9726130962372	1.0000419616699219
72	302.9650890827179	pulse	0	t		70.0	2.5	/experiments/AOT/AOT_stimuli/rescaled_final/0696_fw.mp4	0.0	325.1560010910034	
72	303.7817430496216	movie	1		243	70.0	2.5	/experiments/AOT/AOT_stimuli/rescaled_final/0696_fw.mp4	0.0	325.9726550579071	2.4999210834503174
72	304.56519198417664	pulse	1	t		70.0	2.5	/experiments/AOT/AOT_stimuli/rescaled_final/0696_fw.mp4	0.0	326.75610399246216	
72	306.17363691329956	pulse	1	t		70.0	2.5	/experiments/AOT/AOT_stimuli/rescaled_final/0696_fw.mp4	0.0	328.3645489215851	
72	306.2816641330719	fix_post	2		12	70.0	2.5	/experiments/AOT/AOT_stimuli/rescaled_final/0696_fw.mp4	0.0	328.4725761413574	0.10007786750793457
73	306.38174200057983	fix_pre	0		120	71.0	2.5	/experiments/AOT/AOT_stimuli/rescaled_final/1069_fw.mp4	0.0	328.57265400886536	0.9999480247497559
73	307.3816900253296	movie	1		245	71.0	2.5	/experiments/AOT/AOT_stimuli/rescaled_final/1069_fw.mp4	0.0	329.5726020336151	2.5000100135803223
73	307.77361011505127	pulse	1	t		71.0	2.5	/experiments/AOT/AOT_stimuli/rescaled_final/1069_fw.mp4	0.0	329.9645221233368	
73	309.365571975708	pulse	1	t		71.0	2.5	/experiments/AOT/AOT_stimuli/rescaled_final/1069_fw.mp4	0.0	331.55648398399353	
73	309.8817000389099	fix_post	2		12	71.0	2.5	/experiments/AOT/AOT_stimuli/rescaled_final/1069_fw.mp4	0.0	332.07261204719543	0.0995481014251709
74	309.9812481403351	fix_pre	0		120	72.0	2.5	/experiments/AOT/AOT_stimuli/rescaled_final/0594_rv.mp4	0.0	332.1721601486206	1.0005478858947754
74	310.9662010669708	pulse	0	t		72.0	2.5	/experiments/AOT/AOT_stimuli/rescaled_final/0594_rv.mp4	0.0	333.15711307525635	
74	310.98179602622986	movie	1		246	72.0	2.5	/experiments/AOT/AOT_stimuli/rescaled_final/0594_rv.mp4	0.0	333.1727080345154	2.5082080364227295
74	312.57344794273376	pulse	1	t		72.0	2.5	/experiments/AOT/AOT_stimuli/rescaled_final/0594_rv.mp4	0.0	334.7643599510193	
74	313.4900040626526	fix_post	2		12	72.0	2.5	/experiments/AOT/AOT_stimuli/rescaled_final/0594_rv.mp4	0.0	335.6809160709381	0.10004806518554688
75	313.59005212783813	fix_pre	0		120	73.0	2.5	/experiments/AOT/AOT_stimuli/rescaled_final/0541_fw.mp4	0.0	335.78096413612366	0.999910831451416
75	314.1651921272278	pulse	0	t		73.0	2.5	/experiments/AOT/AOT_stimuli/rescaled_final/0541_fw.mp4	0.0	336.3561041355133	
75	314.58996295928955	movie	1		247	73.0	2.5	/experiments/AOT/AOT_stimuli/rescaled_final/0541_fw.mp4	0.0	336.7808749675751	2.4995810985565186
75	315.7735710144043	pulse	1	t		73.0	2.5	/experiments/AOT/AOT_stimuli/rescaled_final/0541_fw.mp4	0.0	337.9644830226898	
75	317.08954405784607	fix_post	2		12	73.0	2.5	/experiments/AOT/AOT_stimuli/rescaled_final/0541_fw.mp4	0.0	339.2804560661316	0.1003730297088623
76	317.18991708755493	fix_pre	0		120	74.0	2.5	/experiments/AOT/AOT_stimuli/rescaled_final/2011_rv.mp4	0.0	339.38082909584045	1.0000288486480713
76	317.36503410339355	pulse	0	t		74.0	2.5	/experiments/AOT/AOT_stimuli/rescaled_final/2011_rv.mp4	0.0	339.5559461116791	
76	318.189945936203	movie	1		247	74.0	2.5	/experiments/AOT/AOT_stimuli/rescaled_final/2011_rv.mp4	0.0	340.3808579444885	2.5000240802764893
76	318.9650831222534	pulse	1	t		74.0	2.5	/experiments/AOT/AOT_stimuli/rescaled_final/2011_rv.mp4	0.0	341.15599513053894	
76	320.56519198417664	pulse	1	t		74.0	2.5	/experiments/AOT/AOT_stimuli/rescaled_final/2011_rv.mp4	0.0	342.75610399246216	
76	320.6899700164795	fix_post	2		12	74.0	2.5	/experiments/AOT/AOT_stimuli/rescaled_final/2011_rv.mp4	0.0	342.880882024765	0.09991693496704102
77	320.78988695144653	fix_pre	0		120	75.0	2.5	/experiments/AOT/AOT_stimuli/rescaled_final/1113_rv.mp4	0.0	342.98079895973206	1.0000059604644775
77	321.789892911911	movie	1		242	75.0	2.5	/experiments/AOT/AOT_stimuli/rescaled_final/1113_rv.mp4	0.0	343.98080492019653	2.499606132507324
77	322.1650469303131	pulse	1	t		75.0	2.5	/experiments/AOT/AOT_stimuli/rescaled_final/1113_rv.mp4	0.0	344.35595893859863	
77	323.7660081386566	pulse	1	t		75.0	2.5	/experiments/AOT/AOT_stimuli/rescaled_final/1113_rv.mp4	0.0	345.95692014694214	
77	324.28949904441833	fix_post	2		12	75.0	2.5	/experiments/AOT/AOT_stimuli/rescaled_final/1113_rv.mp4	0.0	346.48041105270386	0.10038304328918457
78	324.3898820877075	fix_pre	0		119	76.0	2.5	/experiments/AOT/AOT_stimuli/rescaled_final/0659_fw.mp4	0.0	346.58079409599304	0.9916839599609375
78	325.36605501174927	pulse	0	t		76.0	2.5	/experiments/AOT/AOT_stimuli/rescaled_final/0659_fw.mp4	0.0	347.5569670200348	
78	325.38156604766846	movie	1		244	76.0	2.5	/experiments/AOT/AOT_stimuli/rescaled_final/0659_fw.mp4	0.0	347.572478055954	2.508405923843384
78	326.9730279445648	pulse	1	t		76.0	2.5	/experiments/AOT/AOT_stimuli/rescaled_final/0659_fw.mp4	0.0	349.16393995285034	
78	327.88997197151184	fix_post	2		12	76.0	2.5	/experiments/AOT/AOT_stimuli/rescaled_final/0659_fw.mp4	0.0	350.08088397979736	0.09994196891784668
79	327.9899139404297	fix_pre	0		120	77.0	2.5	blank	1.0	350.1808259487152	1.0000560283660889
79	328.5659251213074	pulse	0	t		77.0	2.5	blank	1.0	350.7568371295929	
79	328.9899699687958	movie	1		300	77.0	2.5	blank	1.0	351.1808819770813	2.500005006790161
79	330.16588497161865	pulse	1	t		77.0	2.5	blank	1.0	352.3567969799042	
79	331.48997497558594	fix_post	2		12	77.0	2.5	blank	1.0	353.68088698387146	0.09994697570800781
80	331.58992195129395	fix_pre	0		120	78.0	2.5	/experiments/AOT/AOT_stimuli/rescaled_final/1897_rv.mp4	0.0	353.78083395957947	1.0000851154327393
80	331.76588797569275	pulse	0	t		78.0	2.5	/experiments/AOT/AOT_stimuli/rescaled_final/1897_rv.mp4	0.0	353.95679998397827	
80	332.5900070667267	movie	1		248	78.0	2.5	/experiments/AOT/AOT_stimuli/rescaled_final/1897_rv.mp4	0.0	354.7809190750122	2.499861001968384
80	333.3650529384613	pulse	1	t		78.0	2.5	/experiments/AOT/AOT_stimuli/rescaled_final/1897_rv.mp4	0.0	355.5559649467468	
80	334.96547293663025	pulse	1	t		78.0	2.5	/experiments/AOT/AOT_stimuli/rescaled_final/1897_rv.mp4	0.0	357.15638494491577	
80	335.08986806869507	fix_post	2		12	78.0	2.5	/experiments/AOT/AOT_stimuli/rescaled_final/1897_rv.mp4	0.0	357.2807800769806	0.10002589225769043
81	335.18989396095276	fix_pre	0		120	79.0	2.5	/experiments/AOT/AOT_stimuli/rescaled_final/1140_rv.mp4	0.0	357.3808059692383	0.9999880790710449
81	336.1898820400238	movie	1		245	79.0	2.5	/experiments/AOT/AOT_stimuli/rescaled_final/1140_rv.mp4	0.0	358.3807940483093	2.499959945678711
81	336.5650110244751	pulse	1	t		79.0	2.5	/experiments/AOT/AOT_stimuli/rescaled_final/1140_rv.mp4	0.0	358.7559230327606	
81	338.1650469303131	pulse	1	t		79.0	2.5	/experiments/AOT/AOT_stimuli/rescaled_final/1140_rv.mp4	0.0	360.35595893859863	
81	338.6898419857025	fix_post	2		12	79.0	2.5	/experiments/AOT/AOT_stimuli/rescaled_final/1140_rv.mp4	0.0	360.88075399398804	0.1000211238861084
82	338.7898631095886	fix_pre	0		119	80.0	2.5	/experiments/AOT/AOT_stimuli/rescaled_final/0493_rv.mp4	0.0	360.98077511787415	0.9916419982910156
82	339.7658281326294	pulse	0	t		80.0	2.5	/experiments/AOT/AOT_stimuli/rescaled_final/0493_rv.mp4	0.0	361.9567401409149	
82	339.78150510787964	movie	1		245	80.0	2.5	/experiments/AOT/AOT_stimuli/rescaled_final/0493_rv.mp4	0.0	361.97241711616516	2.5082168579101562
82	341.37307810783386	pulse	1	t		80.0	2.5	/experiments/AOT/AOT_stimuli/rescaled_final/0493_rv.mp4	0.0	363.5639901161194	
82	342.2897219657898	fix_post	2		12	80.0	2.5	/experiments/AOT/AOT_stimuli/rescaled_final/0493_rv.mp4	0.0	364.4806339740753	0.10011696815490723
83	342.3898389339447	fix_pre	0		120	81.0	2.5	/experiments/AOT/AOT_stimuli/rescaled_final/0215_rv.mp4	0.0	364.5807509422302	0.9999840259552002
83	342.9657919406891	pulse	0	t		81.0	2.5	/experiments/AOT/AOT_stimuli/rescaled_final/0215_rv.mp4	0.0	365.1567039489746	
83	343.3898229598999	movie	1		243	81.0	2.5	/experiments/AOT/AOT_stimuli/rescaled_final/0215_rv.mp4	0.0	365.5807349681854	2.499997138977051
83	344.5734131336212	pulse	1	t		81.0	2.5	/experiments/AOT/AOT_stimuli/rescaled_final/0215_rv.mp4	0.0	366.76432514190674	
83	345.88982009887695	fix_post	2		12	81.0	2.5	/experiments/AOT/AOT_stimuli/rescaled_final/0215_rv.mp4	0.0	368.0807321071625	0.0999460220336914
84	345.98976612091064	fix_pre	0		120	82.0	2.5	/experiments/AOT/AOT_stimuli/rescaled_final/1113_rv.mp4	0.0	368.18067812919617	1.000046968460083
84	346.1658070087433	pulse	0	t		82.0	2.5	/experiments/AOT/AOT_stimuli/rescaled_final/1113_rv.mp4	0.0	368.3567190170288	
84	346.9898130893707	movie	1		243	82.0	2.5	/experiments/AOT/AOT_stimuli/rescaled_final/1113_rv.mp4	0.0	369.18072509765625	2.5000150203704834
84	347.765811920166	pulse	1	t		82.0	2.5	/experiments/AOT/AOT_stimuli/rescaled_final/1113_rv.mp4	0.0	369.95672392845154	
84	349.37165212631226	pulse	1	t		82.0	2.5	/experiments/AOT/AOT_stimuli/rescaled_final/1113_rv.mp4	0.0	371.5625641345978	
84	349.4898281097412	fix_post	2		12	82.0	2.5	/experiments/AOT/AOT_stimuli/rescaled_final/1113_rv.mp4	0.0	371.68074011802673	0.09991693496704102
85	349.58974504470825	fix_pre	0		120	83.0	2.5	blank	1.0	371.7806570529938	1.0000319480895996
85	350.58977699279785	movie	1		300	83.0	2.5	blank	1.0	372.7806890010834	2.500005006790161
85	350.9649839401245	pulse	1	t		83.0	2.5	blank	1.0	373.15589594841003	
85	352.5649130344391	pulse	1	t		83.0	2.5	blank	1.0	374.7558250427246	
85	353.089781999588	fix_post	2		12	83.0	2.5	blank	1.0	375.28069400787354	0.09995102882385254
87	353.18973302841187	stim	0		1716					375.3806450366974	14.299810886383057
87	354.1649329662323	pulse	0	t						376.3558449745178	
87	355.7659430503845	pulse	0	t						377.95685505867004	
87	357.36596512794495	pulse	0	t						379.55687713623047	
87	358.96595001220703	pulse	0	t						381.15686202049255	
87	360.56588411331177	pulse	0	t						382.7567961215973	
87	362.16584610939026	pulse	0	t						384.3567581176758	
87	363.7658679485321	pulse	0	t						385.9567799568176	
87	365.36545491218567	pulse	0	t						387.5563669204712	
87	366.96551513671875	pulse	0	t						389.1564271450043	
