trial_nr	onset	event_type	phase	response	nr_frames	movie_index	movie_duration	movie_file	blank	onset_abs	duration
0	0.18320584297180176	stim	0		78					27.962024927139282	0.6500320434570312
0	0.8251068592071533	response	0	space						28.603925943374634	
1	0.833237886428833	stim	0		5939					28.612056970596313	49.508273124694824
1	50.331676959991455	pulse	0	t						78.11049604415894	
1	50.34151101112366	stim	1		1716					78.12033009529114	14.301292896270752
1	51.9244658946991	pulse	1	t						79.70328497886658	
1	53.52465486526489	pulse	1	t						81.30347394943237	
1	55.124918937683105	pulse	1	t						82.90373802185059	
1	56.725106954574585	pulse	1	t						84.50392603874207	
1	58.32533597946167	pulse	1	t						86.10415506362915	
1	59.92560291290283	pulse	1	t						87.70442199707031	
1	61.52583980560303	pulse	1	t						89.30465888977051	
1	63.126075983047485	pulse	1	t						90.90489506721497	
2	64.64280390739441	fix_pre	0		11	0.0	2.5	/experiments/knapen_AOT/AOT_stimuli/rescaled_final/0410_fw.mp4	0.0	92.42162299156189	0.09164309501647949
2	64.72628688812256	pulse	0	t		0.0	2.5	/experiments/knapen_AOT/AOT_stimuli/rescaled_final/0410_fw.mp4	0.0	92.50510597229004	
2	64.73444700241089	movie	1		243	0.0	2.5	/experiments/knapen_AOT/AOT_stimuli/rescaled_final/0410_fw.mp4	0.0	92.51326608657837	2.508852958679199
2	66.32711601257324	pulse	1	t		0.0	2.5	/experiments/knapen_AOT/AOT_stimuli/rescaled_final/0410_fw.mp4	0.0	94.10593509674072	
2	67.24329996109009	fix_post	2		12	0.0	2.5	/experiments/knapen_AOT/AOT_stimuli/rescaled_final/0410_fw.mp4	0.0	95.02211904525757	0.09999394416809082
3	67.34329390525818	fix_pre	0		120	1.0	2.5	/experiments/knapen_AOT/AOT_stimuli/rescaled_final/0164_rv.mp4	0.0	95.12211298942566	1.0000979900360107
3	67.9268229007721	pulse	0	t		1.0	2.5	/experiments/knapen_AOT/AOT_stimuli/rescaled_final/0164_rv.mp4	0.0	95.70564198493958	
3	68.34339189529419	movie	1		242	1.0	2.5	/experiments/knapen_AOT/AOT_stimuli/rescaled_final/0164_rv.mp4	0.0	96.12221097946167	2.5004560947418213
3	69.5270848274231	pulse	1	t		1.0	2.5	/experiments/knapen_AOT/AOT_stimuli/rescaled_final/0164_rv.mp4	0.0	97.30590391159058	
3	70.84384799003601	fix_post	2		12	1.0	2.5	/experiments/knapen_AOT/AOT_stimuli/rescaled_final/0164_rv.mp4	0.0	98.62266707420349	0.09987688064575195
4	70.94372487068176	fix_pre	0		120	2.0	2.5	/experiments/knapen_AOT/AOT_stimuli/rescaled_final/0307_fw.mp4	0.0	98.72254395484924	1.0001940727233887
4	71.12728786468506	pulse	0	t		2.0	2.5	/experiments/knapen_AOT/AOT_stimuli/rescaled_final/0307_fw.mp4	0.0	98.90610694885254	
4	71.94391894340515	movie	1		242	2.0	2.5	/experiments/knapen_AOT/AOT_stimuli/rescaled_final/0307_fw.mp4	0.0	99.72273802757263	2.5004189014434814
4	72.7276349067688	pulse	1	t		2.0	2.5	/experiments/knapen_AOT/AOT_stimuli/rescaled_final/0307_fw.mp4	0.0	100.50645399093628	
4	74.32898688316345	pulse	1	t		2.0	2.5	/experiments/knapen_AOT/AOT_stimuli/rescaled_final/0307_fw.mp4	0.0	102.10780596733093	
4	74.44433784484863	fix_post	2		12	2.0	2.5	/experiments/knapen_AOT/AOT_stimuli/rescaled_final/0307_fw.mp4	0.0	102.22315692901611	0.09992504119873047
5	74.54426288604736	fix_pre	0		120	3.0	2.5	/experiments/knapen_AOT/AOT_stimuli/rescaled_final/1822_rv.mp4	0.0	102.32308197021484	1.0001659393310547
5	75.54442882537842	movie	1		241	3.0	2.5	/experiments/knapen_AOT/AOT_stimuli/rescaled_final/1822_rv.mp4	0.0	103.3232479095459	2.4922831058502197
5	75.92886686325073	pulse	1	t		3.0	2.5	/experiments/knapen_AOT/AOT_stimuli/rescaled_final/1822_rv.mp4	0.0	103.70768594741821	
5	77.52815198898315	pulse	1	t		3.0	2.5	/experiments/knapen_AOT/AOT_stimuli/rescaled_final/1822_rv.mp4	0.0	105.30697107315063	
5	78.03671193122864	fix_post	2		12	3.0	2.5	/experiments/knapen_AOT/AOT_stimuli/rescaled_final/1822_rv.mp4	0.0	105.81553101539612	0.09981203079223633
6	78.13652396202087	fix_pre	0		120	4.0	2.5	/experiments/knapen_AOT/AOT_stimuli/rescaled_final/0739_rv.mp4	0.0	105.91534304618835	1.0001089572906494
6	79.12853002548218	pulse	0	t		4.0	2.5	/experiments/knapen_AOT/AOT_stimuli/rescaled_final/0739_rv.mp4	0.0	106.90734910964966	
6	79.13663291931152	movie	1		244	4.0	2.5	/experiments/knapen_AOT/AOT_stimuli/rescaled_final/0739_rv.mp4	0.0	106.915452003479	2.5087780952453613
6	80.72941184043884	pulse	1	t		4.0	2.5	/experiments/knapen_AOT/AOT_stimuli/rescaled_final/0739_rv.mp4	0.0	108.50823092460632	
6	81.64541101455688	fix_post	2		12	4.0	2.5	/experiments/knapen_AOT/AOT_stimuli/rescaled_final/0739_rv.mp4	0.0	109.42423009872437	0.09993481636047363
7	81.74534583091736	fix_pre	0		120	5.0	2.5	/experiments/knapen_AOT/AOT_stimuli/rescaled_final/0557_fw.mp4	0.0	109.52416491508484	1.0001630783081055
7	82.3214418888092	pulse	0	t		5.0	2.5	/experiments/knapen_AOT/AOT_stimuli/rescaled_final/0557_fw.mp4	0.0	110.10026097297668	
7	82.74550890922546	movie	1		242	5.0	2.5	/experiments/knapen_AOT/AOT_stimuli/rescaled_final/0557_fw.mp4	0.0	110.52432799339294	2.5004680156707764
7	83.92580080032349	pulse	1	t		5.0	2.5	/experiments/knapen_AOT/AOT_stimuli/rescaled_final/0557_fw.mp4	0.0	111.70461988449097	
7	85.24597692489624	fix_post	2		12	5.0	2.5	/experiments/knapen_AOT/AOT_stimuli/rescaled_final/0557_fw.mp4	0.0	113.02479600906372	0.09990692138671875
8	85.34588384628296	fix_pre	0		120	6.0	2.5	blank	1.0	113.12470293045044	1.000143051147461
8	85.52191686630249	pulse	0	t		6.0	2.5	blank	1.0	113.30073595046997	
8	86.34602689743042	movie	1		298	6.0	2.5	blank	1.0	114.1248459815979	2.500404119491577
8	87.12138199806213	pulse	1	t		6.0	2.5	blank	1.0	114.90020108222961	
8	88.72144389152527	pulse	1	t		6.0	2.5	blank	1.0	116.50026297569275	
8	88.846431016922	fix_post	2		12	6.0	2.5	blank	1.0	116.62525010108948	0.10003089904785156
9	88.94646191596985	fix_pre	0		120	7.0	2.5	/experiments/knapen_AOT/AOT_stimuli/rescaled_final/0430_rv.mp4	0.0	116.72528100013733	1.000096082687378
9	89.94655799865723	movie	1		242	7.0	2.5	/experiments/knapen_AOT/AOT_stimuli/rescaled_final/0430_rv.mp4	0.0	117.7253770828247	2.492266893386841
9	90.32175493240356	pulse	1	t		7.0	2.5	/experiments/knapen_AOT/AOT_stimuli/rescaled_final/0430_rv.mp4	0.0	118.10057401657104	
9	91.92213892936707	pulse	1	t		7.0	2.5	/experiments/knapen_AOT/AOT_stimuli/rescaled_final/0430_rv.mp4	0.0	119.70095801353455	
9	92.43882489204407	fix_post	2		12	7.0	2.5	/experiments/knapen_AOT/AOT_stimuli/rescaled_final/0430_rv.mp4	0.0	120.21764397621155	0.09984993934631348
10	92.53867483139038	fix_pre	0		119	8.0	2.5	/experiments/knapen_AOT/AOT_stimuli/rescaled_final/1347_rv.mp4	0.0	120.31749391555786	0.9917850494384766
10	93.52227592468262	pulse	0	t		8.0	2.5	/experiments/knapen_AOT/AOT_stimuli/rescaled_final/1347_rv.mp4	0.0	121.3010950088501	
10	93.53045988082886	movie	1		244	8.0	2.5	/experiments/knapen_AOT/AOT_stimuli/rescaled_final/1347_rv.mp4	0.0	121.30927896499634	2.508718967437744
10	95.12692880630493	pulse	1	t		8.0	2.5	/experiments/knapen_AOT/AOT_stimuli/rescaled_final/1347_rv.mp4	0.0	122.90574789047241	
10	96.0391788482666	fix_post	2		12	8.0	2.5	/experiments/knapen_AOT/AOT_stimuli/rescaled_final/1347_rv.mp4	0.0	123.81799793243408	0.1000511646270752
11	96.13923001289368	fix_pre	0		120	9.0	2.5	/experiments/knapen_AOT/AOT_stimuli/rescaled_final/1394_rv.mp4	0.0	123.91804909706116	1.0001308917999268
11	96.72273802757263	pulse	0	t		9.0	2.5	/experiments/knapen_AOT/AOT_stimuli/rescaled_final/1394_rv.mp4	0.0	124.50155711174011	
11	97.1393609046936	movie	1		242	9.0	2.5	/experiments/knapen_AOT/AOT_stimuli/rescaled_final/1394_rv.mp4	0.0	124.91817998886108	2.5005149841308594
11	98.32307982444763	pulse	1	t		9.0	2.5	/experiments/knapen_AOT/AOT_stimuli/rescaled_final/1394_rv.mp4	0.0	126.10189890861511	
11	99.63987588882446	fix_post	2		12	9.0	2.5	/experiments/knapen_AOT/AOT_stimuli/rescaled_final/1394_rv.mp4	0.0	127.41869497299194	0.09983396530151367
12	99.73970985412598	fix_pre	0		120	10.0	2.5	/experiments/knapen_AOT/AOT_stimuli/rescaled_final/1341_fw.mp4	0.0	127.51852893829346	1.0001251697540283
12	99.92317199707031	pulse	0	t		10.0	2.5	/experiments/knapen_AOT/AOT_stimuli/rescaled_final/1341_fw.mp4	0.0	127.7019910812378	
12	100.73983502388	movie	1		243	10.0	2.5	/experiments/knapen_AOT/AOT_stimuli/rescaled_final/1341_fw.mp4	0.0	128.51865410804749	2.5005528926849365
12	101.52357697486877	pulse	1	t		10.0	2.5	/experiments/knapen_AOT/AOT_stimuli/rescaled_final/1341_fw.mp4	0.0	129.30239605903625	
12	103.12364387512207	pulse	1	t		10.0	2.5	/experiments/knapen_AOT/AOT_stimuli/rescaled_final/1341_fw.mp4	0.0	130.90246295928955	
12	103.24038791656494	fix_post	2		12	10.0	2.5	/experiments/knapen_AOT/AOT_stimuli/rescaled_final/1341_fw.mp4	0.0	131.01920700073242	0.09987497329711914
13	103.34026288986206	fix_pre	0		120	11.0	2.5	/experiments/knapen_AOT/AOT_stimuli/rescaled_final/0276_rv.mp4	0.0	131.11908197402954	1.000140905380249
13	104.34040379524231	movie	1		241	11.0	2.5	/experiments/knapen_AOT/AOT_stimuli/rescaled_final/0276_rv.mp4	0.0	132.1192228794098	2.4922502040863037
13	104.72446489334106	pulse	1	t		11.0	2.5	/experiments/knapen_AOT/AOT_stimuli/rescaled_final/0276_rv.mp4	0.0	132.50328397750854	
13	106.32420182228088	pulse	1	t		11.0	2.5	/experiments/knapen_AOT/AOT_stimuli/rescaled_final/0276_rv.mp4	0.0	134.10302090644836	
13	106.83265399932861	fix_post	2		12	11.0	2.5	/experiments/knapen_AOT/AOT_stimuli/rescaled_final/0276_rv.mp4	0.0	134.6114730834961	0.09978079795837402
14	106.93243479728699	fix_pre	0		120	12.0	2.5	blank	1.0	134.71125388145447	1.0002100467681885
14	107.92452597618103	pulse	0	t		12.0	2.5	blank	1.0	135.7033450603485	
14	107.93264484405518	movie	1		301	12.0	2.5	blank	1.0	135.71146392822266	2.508721113204956
14	109.52479195594788	pulse	1	t		12.0	2.5	blank	1.0	137.30361104011536	
14	110.44136595726013	fix_post	2		12	12.0	2.5	blank	1.0	138.2201850414276	0.09998202323913574
15	110.54134798049927	fix_pre	0		120	13.0	2.5	/experiments/knapen_AOT/AOT_stimuli/rescaled_final/0678_fw.mp4	0.0	138.32016706466675	1.000108003616333
15	111.1250958442688	pulse	0	t		13.0	2.5	/experiments/knapen_AOT/AOT_stimuli/rescaled_final/0678_fw.mp4	0.0	138.90391492843628	
15	111.5414559841156	movie	1		243	13.0	2.5	/experiments/knapen_AOT/AOT_stimuli/rescaled_final/0678_fw.mp4	0.0	139.32027506828308	2.5005438327789307
15	112.72125291824341	pulse	1	t		13.0	2.5	/experiments/knapen_AOT/AOT_stimuli/rescaled_final/0678_fw.mp4	0.0	140.5000720024109	
15	114.04199981689453	fix_post	2		12	13.0	2.5	/experiments/knapen_AOT/AOT_stimuli/rescaled_final/0678_fw.mp4	0.0	141.820818901062	0.09986400604248047
16	114.14186382293701	fix_pre	0		120	14.0	2.5	/experiments/knapen_AOT/AOT_stimuli/rescaled_final/1929_fw.mp4	0.0	141.9206829071045	1.0001261234283447
16	114.32548785209656	pulse	0	t		14.0	2.5	/experiments/knapen_AOT/AOT_stimuli/rescaled_final/1929_fw.mp4	0.0	142.10430693626404	
16	115.14198994636536	movie	1		243	14.0	2.5	/experiments/knapen_AOT/AOT_stimuli/rescaled_final/1929_fw.mp4	0.0	142.92080903053284	2.5005359649658203
16	115.92576885223389	pulse	1	t		14.0	2.5	/experiments/knapen_AOT/AOT_stimuli/rescaled_final/1929_fw.mp4	0.0	143.70458793640137	
16	117.52579998970032	pulse	1	t		14.0	2.5	/experiments/knapen_AOT/AOT_stimuli/rescaled_final/1929_fw.mp4	0.0	145.3046190738678	
16	117.64252591133118	fix_post	2		12	14.0	2.5	/experiments/knapen_AOT/AOT_stimuli/rescaled_final/1929_fw.mp4	0.0	145.42134499549866	0.09987211227416992
17	117.74239802360535	fix_pre	0		120	15.0	2.5	/experiments/knapen_AOT/AOT_stimuli/rescaled_final/1634_fw.mp4	0.0	145.52121710777283	1.00016188621521
17	118.74255990982056	movie	1		243	15.0	2.5	/experiments/knapen_AOT/AOT_stimuli/rescaled_final/1634_fw.mp4	0.0	146.52137899398804	2.4920589923858643
17	119.13056588172913	pulse	1	t		15.0	2.5	/experiments/knapen_AOT/AOT_stimuli/rescaled_final/1634_fw.mp4	0.0	146.9093849658966	
17	120.72633194923401	pulse	1	t		15.0	2.5	/experiments/knapen_AOT/AOT_stimuli/rescaled_final/1634_fw.mp4	0.0	148.5051510334015	
17	121.23461890220642	fix_post	2		12	15.0	2.5	/experiments/knapen_AOT/AOT_stimuli/rescaled_final/1634_fw.mp4	0.0	149.0134379863739	0.10000896453857422
18	121.334627866745	fix_pre	0		120	16.0	2.5	/experiments/knapen_AOT/AOT_stimuli/rescaled_final/1804_rv.mp4	0.0	149.11344695091248	1.0000770092010498
18	122.32661700248718	pulse	0	t		16.0	2.5	/experiments/knapen_AOT/AOT_stimuli/rescaled_final/1804_rv.mp4	0.0	150.10543608665466	
18	122.33470487594604	movie	1		245	16.0	2.5	/experiments/knapen_AOT/AOT_stimuli/rescaled_final/1804_rv.mp4	0.0	150.11352396011353	2.5088069438934326
18	123.92731881141663	pulse	1	t		16.0	2.5	/experiments/knapen_AOT/AOT_stimuli/rescaled_final/1804_rv.mp4	0.0	151.7061378955841	
18	124.84351181983948	fix_post	2		12	16.0	2.5	/experiments/knapen_AOT/AOT_stimuli/rescaled_final/1804_rv.mp4	0.0	152.62233090400696	0.10002708435058594
19	124.94353890419006	fix_pre	0		120	17.0	2.5	/experiments/knapen_AOT/AOT_stimuli/rescaled_final/0797_rv.mp4	0.0	152.72235798835754	1.0001049041748047
19	125.52715992927551	pulse	0	t		17.0	2.5	/experiments/knapen_AOT/AOT_stimuli/rescaled_final/0797_rv.mp4	0.0	153.305979013443	
19	125.94364380836487	movie	1		243	17.0	2.5	/experiments/knapen_AOT/AOT_stimuli/rescaled_final/0797_rv.mp4	0.0	153.72246289253235	2.5004050731658936
19	127.1229088306427	pulse	1	t		17.0	2.5	/experiments/knapen_AOT/AOT_stimuli/rescaled_final/0797_rv.mp4	0.0	154.90172791481018	
19	128.44404888153076	fix_post	2		12	17.0	2.5	/experiments/knapen_AOT/AOT_stimuli/rescaled_final/0797_rv.mp4	0.0	156.22286796569824	0.09996199607849121
20	128.54401087760925	fix_pre	0		120	18.0	2.5	/experiments/knapen_AOT/AOT_stimuli/rescaled_final/1371_rv.mp4	0.0	156.32282996177673	1.0001189708709717
20	128.7275938987732	pulse	0	t		18.0	2.5	/experiments/knapen_AOT/AOT_stimuli/rescaled_final/1371_rv.mp4	0.0	156.50641298294067	
20	129.54412984848022	movie	1		242	18.0	2.5	/experiments/knapen_AOT/AOT_stimuli/rescaled_final/1371_rv.mp4	0.0	157.3229489326477	2.50058913230896
20	130.32791996002197	pulse	1	t		18.0	2.5	/experiments/knapen_AOT/AOT_stimuli/rescaled_final/1371_rv.mp4	0.0	158.10673904418945	
20	131.92864894866943	pulse	1	t		18.0	2.5	/experiments/knapen_AOT/AOT_stimuli/rescaled_final/1371_rv.mp4	0.0	159.7074680328369	
20	132.04471898078918	fix_post	2		12	18.0	2.5	/experiments/knapen_AOT/AOT_stimuli/rescaled_final/1371_rv.mp4	0.0	159.82353806495667	0.09981894493103027
21	132.14453792572021	fix_pre	0		120	19.0	2.5	/experiments/knapen_AOT/AOT_stimuli/rescaled_final/0797_fw.mp4	0.0	159.9233570098877	1.000201940536499
21	133.1447398662567	movie	1		242	19.0	2.5	/experiments/knapen_AOT/AOT_stimuli/rescaled_final/0797_fw.mp4	0.0	160.9235589504242	2.492125988006592
21	133.5289978981018	pulse	1	t		19.0	2.5	/experiments/knapen_AOT/AOT_stimuli/rescaled_final/0797_fw.mp4	0.0	161.3078169822693	
21	135.1212718486786	pulse	1	t		19.0	2.5	/experiments/knapen_AOT/AOT_stimuli/rescaled_final/0797_fw.mp4	0.0	162.90009093284607	
21	135.6368658542633	fix_post	2		12	19.0	2.5	/experiments/knapen_AOT/AOT_stimuli/rescaled_final/0797_fw.mp4	0.0	163.4156849384308	0.09992098808288574
22	135.7367868423462	fix_pre	0		120	20.0	2.5	/experiments/knapen_AOT/AOT_stimuli/rescaled_final/0608_fw.mp4	0.0	163.51560592651367	1.0000901222229004
22	136.7211458683014	pulse	0	t		20.0	2.5	/experiments/knapen_AOT/AOT_stimuli/rescaled_final/0608_fw.mp4	0.0	164.49996495246887	
22	136.7368769645691	movie	1		243	20.0	2.5	/experiments/knapen_AOT/AOT_stimuli/rescaled_final/0608_fw.mp4	0.0	164.51569604873657	2.508802890777588
22	138.3337550163269	pulse	1	t		20.0	2.5	/experiments/knapen_AOT/AOT_stimuli/rescaled_final/0608_fw.mp4	0.0	166.11257410049438	
22	139.24567985534668	fix_post	2		12	20.0	2.5	/experiments/knapen_AOT/AOT_stimuli/rescaled_final/0608_fw.mp4	0.0	167.02449893951416	0.09997200965881348
23	139.3456518650055	fix_pre	0		120	21.0	2.5	blank	1.0	167.12447094917297	1.0001590251922607
23	139.92170095443726	pulse	0	t		21.0	2.5	blank	1.0	167.70052003860474	
23	140.34581089019775	movie	1		300	21.0	2.5	blank	1.0	168.12462997436523	2.500356912612915
23	141.5211968421936	pulse	1	t		21.0	2.5	blank	1.0	169.30001592636108	
23	142.84616780281067	fix_post	2		12	21.0	2.5	blank	1.0	170.62498688697815	0.09999203681945801
24	142.94615983963013	fix_pre	0		120	22.0	2.5	/experiments/knapen_AOT/AOT_stimuli/rescaled_final/1551_fw.mp4	0.0	170.7249789237976	1.0001420974731445
24	143.12129998207092	pulse	0	t		22.0	2.5	/experiments/knapen_AOT/AOT_stimuli/rescaled_final/1551_fw.mp4	0.0	170.9001190662384	
24	143.94630193710327	movie	1		243	22.0	2.5	/experiments/knapen_AOT/AOT_stimuli/rescaled_final/1551_fw.mp4	0.0	171.72512102127075	2.5004918575286865
24	144.72158479690552	pulse	1	t		22.0	2.5	/experiments/knapen_AOT/AOT_stimuli/rescaled_final/1551_fw.mp4	0.0	172.500403881073	
24	146.32186698913574	pulse	1	t		22.0	2.5	/experiments/knapen_AOT/AOT_stimuli/rescaled_final/1551_fw.mp4	0.0	174.10068607330322	
24	146.44679379463196	fix_post	2		9	22.0	2.5	/experiments/knapen_AOT/AOT_stimuli/rescaled_final/1551_fw.mp4	0.0	174.22561287879944	0.09991812705993652
25	146.5467119216919	fix_pre	0		120	23.0	2.5	/experiments/knapen_AOT/AOT_stimuli/rescaled_final/0522_fw.mp4	0.0	174.32553100585938	1.0001699924468994
25	147.5468819141388	movie	1		242	23.0	2.5	/experiments/knapen_AOT/AOT_stimuli/rescaled_final/0522_fw.mp4	0.0	175.32570099830627	2.4922049045562744
25	147.9220848083496	pulse	1	t		23.0	2.5	/experiments/knapen_AOT/AOT_stimuli/rescaled_final/0522_fw.mp4	0.0	175.7009038925171	
25	149.5223548412323	pulse	1	t		23.0	2.5	/experiments/knapen_AOT/AOT_stimuli/rescaled_final/0522_fw.mp4	0.0	177.30117392539978	
25	150.03908681869507	fix_post	2		12	23.0	2.5	/experiments/knapen_AOT/AOT_stimuli/rescaled_final/0522_fw.mp4	0.0	177.81790590286255	0.0997931957244873
26	150.13888001441956	fix_pre	0		119	24.0	2.5	/experiments/knapen_AOT/AOT_stimuli/rescaled_final/0161_fw.mp4	0.0	177.91769909858704	0.9917819499969482
26	151.12256288528442	pulse	0	t		24.0	2.5	/experiments/knapen_AOT/AOT_stimuli/rescaled_final/0161_fw.mp4	0.0	178.9013819694519	
26	151.1306619644165	movie	1		243	24.0	2.5	/experiments/knapen_AOT/AOT_stimuli/rescaled_final/0161_fw.mp4	0.0	178.90948104858398	2.508875846862793
26	152.72352385520935	pulse	1	t		24.0	2.5	/experiments/knapen_AOT/AOT_stimuli/rescaled_final/0161_fw.mp4	0.0	180.50234293937683	
26	153.6395378112793	fix_post	2		12	24.0	2.5	/experiments/knapen_AOT/AOT_stimuli/rescaled_final/0161_fw.mp4	0.0	181.41835689544678	0.09991812705993652
27	153.73945593833923	fix_pre	0		120	25.0	2.5	/experiments/knapen_AOT/AOT_stimuli/rescaled_final/0633_fw.mp4	0.0	181.5182750225067	1.0001330375671387
27	154.3230209350586	pulse	0	t		25.0	2.5	/experiments/knapen_AOT/AOT_stimuli/rescaled_final/0633_fw.mp4	0.0	182.10184001922607	
27	154.73958897590637	movie	1		242	25.0	2.5	/experiments/knapen_AOT/AOT_stimuli/rescaled_final/0633_fw.mp4	0.0	182.51840806007385	2.500469923019409
27	155.9232518672943	pulse	1	t		25.0	2.5	/experiments/knapen_AOT/AOT_stimuli/rescaled_final/0633_fw.mp4	0.0	183.7020709514618	
27	157.24005889892578	fix_post	2		12	25.0	2.5	/experiments/knapen_AOT/AOT_stimuli/rescaled_final/0633_fw.mp4	0.0	185.01887798309326	0.09991693496704102
28	157.33997583389282	fix_pre	0		120	26.0	2.5	/experiments/knapen_AOT/AOT_stimuli/rescaled_final/0025_fw.mp4	0.0	185.1187949180603	1.0001301765441895
28	157.52358889579773	pulse	0	t		26.0	2.5	/experiments/knapen_AOT/AOT_stimuli/rescaled_final/0025_fw.mp4	0.0	185.3024079799652	
28	158.340106010437	movie	1		243	26.0	2.5	/experiments/knapen_AOT/AOT_stimuli/rescaled_final/0025_fw.mp4	0.0	186.1189250946045	2.500581979751587
28	159.12369179725647	pulse	1	t		26.0	2.5	/experiments/knapen_AOT/AOT_stimuli/rescaled_final/0025_fw.mp4	0.0	186.90251088142395	
28	160.72362184524536	pulse	1	t		26.0	2.5	/experiments/knapen_AOT/AOT_stimuli/rescaled_final/0025_fw.mp4	0.0	188.50244092941284	
28	160.8406879901886	fix_post	2		12	26.0	2.5	/experiments/knapen_AOT/AOT_stimuli/rescaled_final/0025_fw.mp4	0.0	188.61950707435608	0.09984087944030762
29	160.9405288696289	fix_pre	0		120	27.0	2.5	/experiments/knapen_AOT/AOT_stimuli/rescaled_final/1325_rv.mp4	0.0	188.7193479537964	1.0001330375671387
29	161.94066190719604	movie	1		241	27.0	2.5	/experiments/knapen_AOT/AOT_stimuli/rescaled_final/1325_rv.mp4	0.0	189.71948099136353	2.492105007171631
29	162.32486200332642	pulse	1	t		27.0	2.5	/experiments/knapen_AOT/AOT_stimuli/rescaled_final/1325_rv.mp4	0.0	190.1036810874939	
29	163.92458987236023	pulse	1	t		27.0	2.5	/experiments/knapen_AOT/AOT_stimuli/rescaled_final/1325_rv.mp4	0.0	191.7034089565277	
29	164.43276691436768	fix_post	2		12	27.0	2.5	/experiments/knapen_AOT/AOT_stimuli/rescaled_final/1325_rv.mp4	0.0	192.21158599853516	0.09995198249816895
30	164.53271889686584	fix_pre	0		120	28.0	2.5	blank	1.0	192.31153798103333	1.0001931190490723
30	165.52480292320251	pulse	0	t		28.0	2.5	blank	1.0	193.30362200737	
30	165.53291201591492	movie	1		301	28.0	2.5	blank	1.0	193.3117311000824	2.508697986602783
30	167.12493801116943	pulse	1	t		28.0	2.5	blank	1.0	194.9037570953369	
30	168.0416100025177	fix_post	2		12	28.0	2.5	blank	1.0	195.82042908668518	0.09998679161071777
31	168.14159679412842	fix_pre	0		120	29.0	2.5	/experiments/knapen_AOT/AOT_stimuli/rescaled_final/1924_rv.mp4	0.0	195.9204158782959	1.0001220703125
31	168.72515487670898	pulse	0	t		29.0	2.5	/experiments/knapen_AOT/AOT_stimuli/rescaled_final/1924_rv.mp4	0.0	196.50397396087646	
31	169.14171886444092	movie	1		243	29.0	2.5	/experiments/knapen_AOT/AOT_stimuli/rescaled_final/1924_rv.mp4	0.0	196.9205379486084	2.50055193901062
31	170.3255159854889	pulse	1	t		29.0	2.5	/experiments/knapen_AOT/AOT_stimuli/rescaled_final/1924_rv.mp4	0.0	198.10433506965637	
31	171.64227080345154	fix_post	2		12	29.0	2.5	/experiments/knapen_AOT/AOT_stimuli/rescaled_final/1924_rv.mp4	0.0	199.42108988761902	0.09984111785888672
32	171.74211192131042	fix_pre	0		120	30.0	2.5	/experiments/knapen_AOT/AOT_stimuli/rescaled_final/0947_rv.mp4	0.0	199.5209310054779	1.0001928806304932
32	171.9258120059967	pulse	0	t		30.0	2.5	/experiments/knapen_AOT/AOT_stimuli/rescaled_final/0947_rv.mp4	0.0	199.70463109016418	
32	172.74230480194092	movie	1		243	30.0	2.5	/experiments/knapen_AOT/AOT_stimuli/rescaled_final/0947_rv.mp4	0.0	200.5211238861084	2.5005900859832764
32	173.52595400810242	pulse	1	t		30.0	2.5	/experiments/knapen_AOT/AOT_stimuli/rescaled_final/0947_rv.mp4	0.0	201.3047730922699	
32	175.12603402137756	pulse	1	t		30.0	2.5	/experiments/knapen_AOT/AOT_stimuli/rescaled_final/0947_rv.mp4	0.0	202.90485310554504	
32	175.2428948879242	fix_post	2		12	30.0	2.5	/experiments/knapen_AOT/AOT_stimuli/rescaled_final/0947_rv.mp4	0.0	203.02171397209167	0.0998239517211914
33	175.34271883964539	fix_pre	0		120	31.0	2.5	/experiments/knapen_AOT/AOT_stimuli/rescaled_final/0584_fw.mp4	0.0	203.12153792381287	1.0001029968261719
33	176.34282183647156	movie	1		242	31.0	2.5	/experiments/knapen_AOT/AOT_stimuli/rescaled_final/0584_fw.mp4	0.0	204.12164092063904	2.492138147354126
33	176.72678589820862	pulse	1	t		31.0	2.5	/experiments/knapen_AOT/AOT_stimuli/rescaled_final/0584_fw.mp4	0.0	204.5056049823761	
33	178.3267068862915	pulse	1	t		31.0	2.5	/experiments/knapen_AOT/AOT_stimuli/rescaled_final/0584_fw.mp4	0.0	206.10552597045898	
33	178.83495998382568	fix_post	2		12	31.0	2.5	/experiments/knapen_AOT/AOT_stimuli/rescaled_final/0584_fw.mp4	0.0	206.61377906799316	0.09989595413208008
34	178.93485593795776	fix_pre	0		120	32.0	2.5	/experiments/knapen_AOT/AOT_stimuli/rescaled_final/1651_fw.mp4	0.0	206.71367502212524	1.0001769065856934
34	179.92698693275452	pulse	0	t		32.0	2.5	/experiments/knapen_AOT/AOT_stimuli/rescaled_final/1651_fw.mp4	0.0	207.705806016922	
34	179.93503284454346	movie	1		243	32.0	2.5	/experiments/knapen_AOT/AOT_stimuli/rescaled_final/1651_fw.mp4	0.0	207.71385192871094	2.5087361335754395
34	181.53232192993164	pulse	1	t		32.0	2.5	/experiments/knapen_AOT/AOT_stimuli/rescaled_final/1651_fw.mp4	0.0	209.31114101409912	
34	182.4437689781189	fix_post	2		12	32.0	2.5	/experiments/knapen_AOT/AOT_stimuli/rescaled_final/1651_fw.mp4	0.0	210.22258806228638	0.09997296333312988
35	182.54374194145203	fix_pre	0		120	33.0	2.5	/experiments/knapen_AOT/AOT_stimuli/rescaled_final/0596_fw.mp4	0.0	210.3225610256195	1.0001518726348877
35	183.127338886261	pulse	0	t		33.0	2.5	/experiments/knapen_AOT/AOT_stimuli/rescaled_final/0596_fw.mp4	0.0	210.90615797042847	
35	183.5438938140869	movie	1		243	33.0	2.5	/experiments/knapen_AOT/AOT_stimuli/rescaled_final/0596_fw.mp4	0.0	211.3227128982544	2.5005171298980713
35	184.7277548313141	pulse	1	t		33.0	2.5	/experiments/knapen_AOT/AOT_stimuli/rescaled_final/0596_fw.mp4	0.0	212.50657391548157	
35	186.04441094398499	fix_post	2		12	33.0	2.5	/experiments/knapen_AOT/AOT_stimuli/rescaled_final/0596_fw.mp4	0.0	213.82323002815247	0.09985899925231934
36	186.1442699432373	fix_pre	0		120	34.0	2.5	blank	1.0	213.92308902740479	1.000227928161621
36	186.32793283462524	pulse	0	t		34.0	2.5	blank	1.0	214.10675191879272	
36	187.14449787139893	movie	1		300	34.0	2.5	blank	1.0	214.9233169555664	2.500326156616211
36	187.92808890342712	pulse	1	t		34.0	2.5	blank	1.0	215.7069079875946	
36	189.52827095985413	pulse	1	t		34.0	2.5	blank	1.0	217.3070900440216	
36	189.64482402801514	fix_post	2		12	34.0	2.5	blank	1.0	217.42364311218262	0.10003089904785156
37	189.744854927063	fix_pre	0		120	35.0	2.5	/experiments/knapen_AOT/AOT_stimuli/rescaled_final/1189_fw.mp4	0.0	217.52367401123047	1.0000910758972168
37	190.7449460029602	movie	1		241	35.0	2.5	/experiments/knapen_AOT/AOT_stimuli/rescaled_final/1189_fw.mp4	0.0	218.52376508712769	2.4921200275421143
37	191.1290979385376	pulse	1	t		35.0	2.5	/experiments/knapen_AOT/AOT_stimuli/rescaled_final/1189_fw.mp4	0.0	218.90791702270508	
37	192.72886180877686	pulse	1	t		35.0	2.5	/experiments/knapen_AOT/AOT_stimuli/rescaled_final/1189_fw.mp4	0.0	220.50768089294434	
37	193.23706603050232	fix_post	2		12	35.0	2.5	/experiments/knapen_AOT/AOT_stimuli/rescaled_final/1189_fw.mp4	0.0	221.0158851146698	0.09993577003479004
38	193.3370018005371	fix_pre	0		120	36.0	2.5	/experiments/knapen_AOT/AOT_stimuli/rescaled_final/0055_fw.mp4	0.0	221.1158208847046	1.0001840591430664
38	194.32160687446594	pulse	0	t		36.0	2.5	/experiments/knapen_AOT/AOT_stimuli/rescaled_final/0055_fw.mp4	0.0	222.10042595863342	
38	194.33718585968018	movie	1		244	36.0	2.5	/experiments/knapen_AOT/AOT_stimuli/rescaled_final/0055_fw.mp4	0.0	222.11600494384766	2.508664131164551
38	195.92978382110596	pulse	1	t		36.0	2.5	/experiments/knapen_AOT/AOT_stimuli/rescaled_final/0055_fw.mp4	0.0	223.70860290527344	
38	196.84584999084473	fix_post	2		12	36.0	2.5	/experiments/knapen_AOT/AOT_stimuli/rescaled_final/0055_fw.mp4	0.0	224.6246690750122	0.10005688667297363
39	196.9459068775177	fix_pre	0		120	37.0	2.5	/experiments/knapen_AOT/AOT_stimuli/rescaled_final/0529_rv.mp4	0.0	224.72472596168518	1.0001230239868164
39	197.52194380760193	pulse	0	t		37.0	2.5	/experiments/knapen_AOT/AOT_stimuli/rescaled_final/0529_rv.mp4	0.0	225.3007628917694	
39	197.94602990150452	movie	1		242	37.0	2.5	/experiments/knapen_AOT/AOT_stimuli/rescaled_final/0529_rv.mp4	0.0	225.724848985672	2.5005860328674316
39	199.12213587760925	pulse	1	t		37.0	2.5	/experiments/knapen_AOT/AOT_stimuli/rescaled_final/0529_rv.mp4	0.0	226.90095496177673	
39	200.44661593437195	fix_post	2		12	37.0	2.5	/experiments/knapen_AOT/AOT_stimuli/rescaled_final/0529_rv.mp4	0.0	228.22543501853943	0.09986686706542969
40	200.54648280143738	fix_pre	0		120	38.0	2.5	/experiments/knapen_AOT/AOT_stimuli/rescaled_final/1394_fw.mp4	0.0	228.32530188560486	1.0001342296600342
40	200.72173500061035	pulse	0	t		38.0	2.5	/experiments/knapen_AOT/AOT_stimuli/rescaled_final/1394_fw.mp4	0.0	228.50055408477783	
40	201.5466170310974	movie	1		242	38.0	2.5	/experiments/knapen_AOT/AOT_stimuli/rescaled_final/1394_fw.mp4	0.0	229.3254361152649	2.5004379749298096
40	202.32196688652039	pulse	1	t		38.0	2.5	/experiments/knapen_AOT/AOT_stimuli/rescaled_final/1394_fw.mp4	0.0	230.10078597068787	
40	203.9221019744873	pulse	1	t		38.0	2.5	/experiments/knapen_AOT/AOT_stimuli/rescaled_final/1394_fw.mp4	0.0	231.70092105865479	
40	204.04705500602722	fix_post	2		12	38.0	2.5	/experiments/knapen_AOT/AOT_stimuli/rescaled_final/1394_fw.mp4	0.0	231.8258740901947	0.09991002082824707
41	204.14696502685547	fix_pre	0		119	39.0	2.5	/experiments/knapen_AOT/AOT_stimuli/rescaled_final/0233_rv.mp4	0.0	231.92578411102295	0.9918429851531982
41	205.13880801200867	movie	1		242	39.0	2.5	/experiments/knapen_AOT/AOT_stimuli/rescaled_final/0233_rv.mp4	0.0	232.91762709617615	2.50044584274292
41	205.52362895011902	pulse	1	t		39.0	2.5	/experiments/knapen_AOT/AOT_stimuli/rescaled_final/0233_rv.mp4	0.0	233.3024480342865	
41	207.12268495559692	pulse	1	t		39.0	2.5	/experiments/knapen_AOT/AOT_stimuli/rescaled_final/0233_rv.mp4	0.0	234.9015040397644	
41	207.6392538547516	fix_post	2		9	39.0	2.5	/experiments/knapen_AOT/AOT_stimuli/rescaled_final/0233_rv.mp4	0.0	235.41807293891907	0.09992504119873047
42	207.73917889595032	fix_pre	0		119	40.0	2.5	blank	1.0	235.5179979801178	0.991818904876709
42	208.72295379638672	pulse	0	t		40.0	2.5	blank	1.0	236.5017728805542	
42	208.73099780082703	movie	1		301	40.0	2.5	blank	1.0	236.5098168849945	2.508761167526245
42	210.32315802574158	pulse	1	t		40.0	2.5	blank	1.0	238.10197710990906	
42	211.23975896835327	fix_post	2		12	40.0	2.5	blank	1.0	239.01857805252075	0.09994101524353027
43	211.3396999835968	fix_pre	0		120	41.0	2.5	/experiments/knapen_AOT/AOT_stimuli/rescaled_final/1189_rv.mp4	0.0	239.11851906776428	1.0001978874206543
43	211.92325592041016	pulse	0	t		41.0	2.5	/experiments/knapen_AOT/AOT_stimuli/rescaled_final/1189_rv.mp4	0.0	239.70207500457764	
43	212.33989787101746	movie	1		242	41.0	2.5	/experiments/knapen_AOT/AOT_stimuli/rescaled_final/1189_rv.mp4	0.0	240.11871695518494	2.5004401206970215
43	213.52365589141846	pulse	1	t		41.0	2.5	/experiments/knapen_AOT/AOT_stimuli/rescaled_final/1189_rv.mp4	0.0	241.30247497558594	
43	214.84033799171448	fix_post	2		12	41.0	2.5	/experiments/knapen_AOT/AOT_stimuli/rescaled_final/1189_rv.mp4	0.0	242.61915707588196	0.09990191459655762
44	214.94023990631104	fix_pre	0		120	42.0	2.5	/experiments/knapen_AOT/AOT_stimuli/rescaled_final/0649_fw.mp4	0.0	242.71905899047852	1.0002350807189941
44	215.12388586997986	pulse	0	t		42.0	2.5	/experiments/knapen_AOT/AOT_stimuli/rescaled_final/0649_fw.mp4	0.0	242.90270495414734	
44	215.94047498703003	movie	1		243	42.0	2.5	/experiments/knapen_AOT/AOT_stimuli/rescaled_final/0649_fw.mp4	0.0	243.7192940711975	2.500514030456543
44	216.72415280342102	pulse	1	t		42.0	2.5	/experiments/knapen_AOT/AOT_stimuli/rescaled_final/0649_fw.mp4	0.0	244.5029718875885	
44	218.32419395446777	pulse	1	t		42.0	2.5	/experiments/knapen_AOT/AOT_stimuli/rescaled_final/0649_fw.mp4	0.0	246.10301303863525	
44	218.44098901748657	fix_post	2		12	42.0	2.5	/experiments/knapen_AOT/AOT_stimuli/rescaled_final/0649_fw.mp4	0.0	246.21980810165405	0.09981894493103027
45	218.5408079624176	fix_pre	0		120	43.0	2.5	/experiments/knapen_AOT/AOT_stimuli/rescaled_final/1734_fw.mp4	0.0	246.31962704658508	1.0001170635223389
45	219.54092502593994	movie	1		241	43.0	2.5	/experiments/knapen_AOT/AOT_stimuli/rescaled_final/1734_fw.mp4	0.0	247.31974411010742	2.4921209812164307
45	219.92502999305725	pulse	1	t		43.0	2.5	/experiments/knapen_AOT/AOT_stimuli/rescaled_final/1734_fw.mp4	0.0	247.70384907722473	
45	221.5248339176178	pulse	1	t		43.0	2.5	/experiments/knapen_AOT/AOT_stimuli/rescaled_final/1734_fw.mp4	0.0	249.30365300178528	
45	222.03304600715637	fix_post	2		12	43.0	2.5	/experiments/knapen_AOT/AOT_stimuli/rescaled_final/1734_fw.mp4	0.0	249.81186509132385	0.09990882873535156
46	222.13295483589172	fix_pre	0		120	44.0	2.5	/experiments/knapen_AOT/AOT_stimuli/rescaled_final/1010_rv.mp4	0.0	249.9117739200592	1.0001640319824219
46	223.125079870224	pulse	0	t		44.0	2.5	/experiments/knapen_AOT/AOT_stimuli/rescaled_final/1010_rv.mp4	0.0	250.90389895439148	
46	223.13311886787415	movie	1		243	44.0	2.5	/experiments/knapen_AOT/AOT_stimuli/rescaled_final/1010_rv.mp4	0.0	250.91193795204163	2.5088069438934326
46	224.72600889205933	pulse	1	t		44.0	2.5	/experiments/knapen_AOT/AOT_stimuli/rescaled_final/1010_rv.mp4	0.0	252.5048279762268	
46	225.64192581176758	fix_post	2		12	44.0	2.5	/experiments/knapen_AOT/AOT_stimuli/rescaled_final/1010_rv.mp4	0.0	253.42074489593506	0.10000801086425781
47	225.74193382263184	fix_pre	0		120	45.0	2.5	/experiments/knapen_AOT/AOT_stimuli/rescaled_final/1019_fw.mp4	0.0	253.52075290679932	1.000075101852417
47	226.32548785209656	pulse	0	t		45.0	2.5	/experiments/knapen_AOT/AOT_stimuli/rescaled_final/1019_fw.mp4	0.0	254.10430693626404	
47	226.74200892448425	movie	1		244	45.0	2.5	/experiments/knapen_AOT/AOT_stimuli/rescaled_final/1019_fw.mp4	0.0	254.52082800865173	2.500382900238037
47	227.92586398124695	pulse	1	t		45.0	2.5	/experiments/knapen_AOT/AOT_stimuli/rescaled_final/1019_fw.mp4	0.0	255.70468306541443	
47	229.2423918247223	fix_post	2		12	45.0	2.5	/experiments/knapen_AOT/AOT_stimuli/rescaled_final/1019_fw.mp4	0.0	257.02121090888977	0.10001802444458008
48	229.34240984916687	fix_pre	0		120	46.0	2.5	/experiments/knapen_AOT/AOT_stimuli/rescaled_final/0736_fw.mp4	0.0	257.12122893333435	1.000169038772583
48	229.52607989311218	pulse	0	t		46.0	2.5	/experiments/knapen_AOT/AOT_stimuli/rescaled_final/0736_fw.mp4	0.0	257.30489897727966	
48	230.34257888793945	movie	1		243	46.0	2.5	/experiments/knapen_AOT/AOT_stimuli/rescaled_final/0736_fw.mp4	0.0	258.12139797210693	2.5004780292510986
48	231.1262068748474	pulse	1	t		46.0	2.5	/experiments/knapen_AOT/AOT_stimuli/rescaled_final/0736_fw.mp4	0.0	258.9050259590149	
48	232.72624802589417	pulse	1	t		46.0	2.5	/experiments/knapen_AOT/AOT_stimuli/rescaled_final/0736_fw.mp4	0.0	260.50506711006165	
48	232.84305691719055	fix_post	2		12	46.0	2.5	/experiments/knapen_AOT/AOT_stimuli/rescaled_final/0736_fw.mp4	0.0	260.62187600135803	0.0998539924621582
49	232.9429109096527	fix_pre	0		120	47.0	2.5	/experiments/knapen_AOT/AOT_stimuli/rescaled_final/0164_fw.mp4	0.0	260.7217299938202	1.0001580715179443
49	233.94306898117065	movie	1		241	47.0	2.5	/experiments/knapen_AOT/AOT_stimuli/rescaled_final/0164_fw.mp4	0.0	261.72188806533813	2.4921159744262695
49	234.32741379737854	pulse	1	t		47.0	2.5	/experiments/knapen_AOT/AOT_stimuli/rescaled_final/0164_fw.mp4	0.0	262.106232881546	
49	235.92700791358948	pulse	1	t		47.0	2.5	/experiments/knapen_AOT/AOT_stimuli/rescaled_final/0164_fw.mp4	0.0	263.70582699775696	
49	236.43518495559692	fix_post	2		12	47.0	2.5	/experiments/knapen_AOT/AOT_stimuli/rescaled_final/0164_fw.mp4	0.0	264.2140040397644	0.10002303123474121
50	236.53520798683167	fix_pre	0		120	48.0	2.5	/experiments/knapen_AOT/AOT_stimuli/rescaled_final/1135_fw.mp4	0.0	264.31402707099915	1.0000898838043213
50	237.5270869731903	pulse	0	t		48.0	2.5	/experiments/knapen_AOT/AOT_stimuli/rescaled_final/1135_fw.mp4	0.0	265.3059060573578	
50	237.535297870636	movie	1		245	48.0	2.5	/experiments/knapen_AOT/AOT_stimuli/rescaled_final/1135_fw.mp4	0.0	265.31411695480347	2.5086920261383057
50	239.12815284729004	pulse	1	t		48.0	2.5	/experiments/knapen_AOT/AOT_stimuli/rescaled_final/1135_fw.mp4	0.0	266.9069719314575	
50	240.0439898967743	fix_post	2		12	48.0	2.5	/experiments/knapen_AOT/AOT_stimuli/rescaled_final/1135_fw.mp4	0.0	267.8228089809418	0.10001897811889648
51	240.1440088748932	fix_pre	0		120	49.0	2.5	blank	1.0	267.92282795906067	1.0002329349517822
51	240.72761702537537	pulse	0	t		49.0	2.5	blank	1.0	268.50643610954285	
51	241.14424180984497	movie	1		300	49.0	2.5	blank	1.0	268.92306089401245	2.500282049179077
51	242.32787680625916	pulse	1	t		49.0	2.5	blank	1.0	270.10669589042664	
51	243.64452385902405	fix_post	2		12	49.0	2.5	blank	1.0	271.4233429431915	0.10010313987731934
52	243.74462699890137	fix_pre	0		120	50.0	2.5	/experiments/knapen_AOT/AOT_stimuli/rescaled_final/0496_fw.mp4	0.0	271.52344608306885	1.0000908374786377
52	243.9280469417572	pulse	0	t		50.0	2.5	/experiments/knapen_AOT/AOT_stimuli/rescaled_final/0496_fw.mp4	0.0	271.7068660259247	
52	244.74471783638	movie	1		243	50.0	2.5	/experiments/knapen_AOT/AOT_stimuli/rescaled_final/0496_fw.mp4	0.0	272.5235369205475	2.5004830360412598
52	245.52832698822021	pulse	1	t		50.0	2.5	/experiments/knapen_AOT/AOT_stimuli/rescaled_final/0496_fw.mp4	0.0	273.3071460723877	
52	247.12837386131287	pulse	1	t		50.0	2.5	/experiments/knapen_AOT/AOT_stimuli/rescaled_final/0496_fw.mp4	0.0	274.90719294548035	
52	247.24520087242126	fix_post	2		12	50.0	2.5	/experiments/knapen_AOT/AOT_stimuli/rescaled_final/0496_fw.mp4	0.0	275.02401995658875	0.09986710548400879
53	247.34506797790527	fix_pre	0		119	51.0	2.5	/experiments/knapen_AOT/AOT_stimuli/rescaled_final/1866_fw.mp4	0.0	275.12388706207275	0.9918220043182373
53	248.3368899822235	movie	1		243	51.0	2.5	/experiments/knapen_AOT/AOT_stimuli/rescaled_final/1866_fw.mp4	0.0	276.115709066391	2.5005509853363037
53	248.7288839817047	pulse	1	t		51.0	2.5	/experiments/knapen_AOT/AOT_stimuli/rescaled_final/1866_fw.mp4	0.0	276.5077030658722	
53	250.32161688804626	pulse	1	t		51.0	2.5	/experiments/knapen_AOT/AOT_stimuli/rescaled_final/1866_fw.mp4	0.0	278.10043597221375	
53	250.83744096755981	fix_post	2		12	51.0	2.5	/experiments/knapen_AOT/AOT_stimuli/rescaled_final/1866_fw.mp4	0.0	278.6162600517273	0.09985685348510742
54	250.93729782104492	fix_pre	0		120	52.0	2.5	/experiments/knapen_AOT/AOT_stimuli/rescaled_final/2143_rv.mp4	0.0	278.7161169052124	1.0001490116119385
54	251.92175388336182	pulse	0	t		52.0	2.5	/experiments/knapen_AOT/AOT_stimuli/rescaled_final/2143_rv.mp4	0.0	279.7005729675293	
54	251.93744683265686	movie	1		243	52.0	2.5	/experiments/knapen_AOT/AOT_stimuli/rescaled_final/2143_rv.mp4	0.0	279.71626591682434	2.508803129196167
54	253.5338499546051	pulse	1	t		52.0	2.5	/experiments/knapen_AOT/AOT_stimuli/rescaled_final/2143_rv.mp4	0.0	281.3126690387726	
54	254.44624996185303	fix_post	2		12	52.0	2.5	/experiments/knapen_AOT/AOT_stimuli/rescaled_final/2143_rv.mp4	0.0	282.2250690460205	0.0999300479888916
55	254.54618000984192	fix_pre	0		120	53.0	2.5	/experiments/knapen_AOT/AOT_stimuli/rescaled_final/1590_rv.mp4	0.0	282.3249990940094	1.0001258850097656
55	255.12136697769165	pulse	0	t		53.0	2.5	/experiments/knapen_AOT/AOT_stimuli/rescaled_final/1590_rv.mp4	0.0	282.90018606185913	
55	255.54630589485168	movie	1		242	53.0	2.5	/experiments/knapen_AOT/AOT_stimuli/rescaled_final/1590_rv.mp4	0.0	283.32512497901917	2.5005619525909424
55	256.72224497795105	pulse	1	t		53.0	2.5	/experiments/knapen_AOT/AOT_stimuli/rescaled_final/1590_rv.mp4	0.0	284.50106406211853	
55	258.0468678474426	fix_post	2		12	53.0	2.5	/experiments/knapen_AOT/AOT_stimuli/rescaled_final/1590_rv.mp4	0.0	285.8256869316101	0.09986996650695801
56	258.1467378139496	fix_pre	0		120	54.0	2.5	blank	1.0	285.92555689811707	1.0001552104949951
56	258.3219029903412	pulse	0	t		54.0	2.5	blank	1.0	286.10072207450867	
56	259.1468930244446	movie	1		300	54.0	2.5	blank	1.0	286.92571210861206	2.500394821166992
56	259.9220929145813	pulse	1	t		54.0	2.5	blank	1.0	287.7009119987488	
56	261.52244782447815	pulse	1	t		54.0	2.5	blank	1.0	289.30126690864563	
56	261.6472878456116	fix_post	2		12	54.0	2.5	blank	1.0	289.42610692977905	0.0999901294708252
57	261.7472779750824	fix_pre	0		119	55.0	2.5	/experiments/knapen_AOT/AOT_stimuli/rescaled_final/1336_fw.mp4	0.0	289.5260970592499	0.9917418956756592
57	262.73901987075806	movie	1		243	55.0	2.5	/experiments/knapen_AOT/AOT_stimuli/rescaled_final/1336_fw.mp4	0.0	290.51783895492554	2.500401020050049
57	263.122820854187	pulse	1	t		55.0	2.5	/experiments/knapen_AOT/AOT_stimuli/rescaled_final/1336_fw.mp4	0.0	290.9016399383545	
57	264.7228648662567	pulse	1	t		55.0	2.5	/experiments/knapen_AOT/AOT_stimuli/rescaled_final/1336_fw.mp4	0.0	292.5016839504242	
57	265.2394208908081	fix_post	2		12	55.0	2.5	/experiments/knapen_AOT/AOT_stimuli/rescaled_final/1336_fw.mp4	0.0	293.0182399749756	0.10004711151123047
58	265.33946800231934	fix_pre	0		119	56.0	2.5	/experiments/knapen_AOT/AOT_stimuli/rescaled_final/0698_rv.mp4	0.0	293.1182870864868	0.9917628765106201
58	266.3231108188629	pulse	0	t		56.0	2.5	/experiments/knapen_AOT/AOT_stimuli/rescaled_final/0698_rv.mp4	0.0	294.1019299030304	
58	266.33123087882996	movie	1		244	56.0	2.5	/experiments/knapen_AOT/AOT_stimuli/rescaled_final/0698_rv.mp4	0.0	294.11004996299744	2.508826971054077
58	267.92406702041626	pulse	1	t		56.0	2.5	/experiments/knapen_AOT/AOT_stimuli/rescaled_final/0698_rv.mp4	0.0	295.70288610458374	
58	268.84005784988403	fix_post	2		12	56.0	2.5	/experiments/knapen_AOT/AOT_stimuli/rescaled_final/0698_rv.mp4	0.0	296.6188769340515	0.09993815422058105
59	268.9399960041046	fix_pre	0		117	57.0	2.5	/experiments/knapen_AOT/AOT_stimuli/rescaled_final/0679_fw.mp4	0.0	296.7188150882721	1.0001628398895264
59	269.52369594573975	pulse	0	t		57.0	2.5	/experiments/knapen_AOT/AOT_stimuli/rescaled_final/0679_fw.mp4	0.0	297.3025150299072	
59	269.94015884399414	movie	1		243	57.0	2.5	/experiments/knapen_AOT/AOT_stimuli/rescaled_final/0679_fw.mp4	0.0	297.7189779281616	2.500530958175659
59	271.1240348815918	pulse	1	t		57.0	2.5	/experiments/knapen_AOT/AOT_stimuli/rescaled_final/0679_fw.mp4	0.0	298.9028539657593	
59	272.4406898021698	fix_post	2		12	57.0	2.5	/experiments/knapen_AOT/AOT_stimuli/rescaled_final/0679_fw.mp4	0.0	300.2195088863373	0.09988212585449219
60	272.5405719280243	fix_pre	0		120	58.0	2.5	/experiments/knapen_AOT/AOT_stimuli/rescaled_final/0338_fw.mp4	0.0	300.3193910121918	1.0001590251922607
60	272.72406697273254	pulse	0	t		58.0	2.5	/experiments/knapen_AOT/AOT_stimuli/rescaled_final/0338_fw.mp4	0.0	300.5028860569	
60	273.54073095321655	movie	1		243	58.0	2.5	/experiments/knapen_AOT/AOT_stimuli/rescaled_final/0338_fw.mp4	0.0	301.31955003738403	2.5003418922424316
60	274.3243088722229	pulse	1	t		58.0	2.5	/experiments/knapen_AOT/AOT_stimuli/rescaled_final/0338_fw.mp4	0.0	302.1031279563904	
60	275.9243178367615	pulse	1	t		58.0	2.5	/experiments/knapen_AOT/AOT_stimuli/rescaled_final/0338_fw.mp4	0.0	303.70313692092896	
60	276.041072845459	fix_post	2		12	58.0	2.5	/experiments/knapen_AOT/AOT_stimuli/rescaled_final/0338_fw.mp4	0.0	303.81989192962646	0.10005402565002441
61	276.141126871109	fix_pre	0		120	59.0	2.5	/experiments/knapen_AOT/AOT_stimuli/rescaled_final/1916_rv.mp4	0.0	303.9199459552765	1.0000889301300049
61	277.141215801239	movie	1		241	59.0	2.5	/experiments/knapen_AOT/AOT_stimuli/rescaled_final/1916_rv.mp4	0.0	304.9200348854065	2.492180109024048
61	277.5254030227661	pulse	1	t		59.0	2.5	/experiments/knapen_AOT/AOT_stimuli/rescaled_final/1916_rv.mp4	0.0	305.3042221069336	
61	279.12503695487976	pulse	1	t		59.0	2.5	/experiments/knapen_AOT/AOT_stimuli/rescaled_final/1916_rv.mp4	0.0	306.90385603904724	
61	279.63339591026306	fix_post	2		12	59.0	2.5	/experiments/knapen_AOT/AOT_stimuli/rescaled_final/1916_rv.mp4	0.0	307.41221499443054	0.09988689422607422
62	279.73328280448914	fix_pre	0		120	60.0	2.5	/experiments/knapen_AOT/AOT_stimuli/rescaled_final/1929_rv.mp4	0.0	307.5121018886566	1.000087022781372
62	280.72527599334717	pulse	0	t		60.0	2.5	/experiments/knapen_AOT/AOT_stimuli/rescaled_final/1929_rv.mp4	0.0	308.50409507751465	
62	280.7333698272705	movie	1		244	60.0	2.5	/experiments/knapen_AOT/AOT_stimuli/rescaled_final/1929_rv.mp4	0.0	308.512188911438	2.5087850093841553
62	282.3260979652405	pulse	1	t		60.0	2.5	/experiments/knapen_AOT/AOT_stimuli/rescaled_final/1929_rv.mp4	0.0	310.10491704940796	
62	283.24215483665466	fix_post	2		12	60.0	2.5	/experiments/knapen_AOT/AOT_stimuli/rescaled_final/1929_rv.mp4	0.0	311.02097392082214	0.10008811950683594
63	283.3422429561615	fix_pre	0		120	61.0	2.5	blank	1.0	311.121062040329	1.000114917755127
63	283.9258599281311	pulse	0	t		61.0	2.5	blank	1.0	311.7046790122986	
63	284.3423578739166	movie	1		300	61.0	2.5	blank	1.0	312.1211769580841	2.500282049179077
63	285.52599000930786	pulse	1	t		61.0	2.5	blank	1.0	313.30480909347534	
63	286.8426399230957	fix_post	2		12	61.0	2.5	blank	1.0	314.6214590072632	0.10004901885986328
64	286.94268894195557	fix_pre	0		120	62.0	2.5	/experiments/knapen_AOT/AOT_stimuli/rescaled_final/1203_fw.mp4	0.0	314.72150802612305	1.0001490116119385
64	287.12620282173157	pulse	0	t		62.0	2.5	/experiments/knapen_AOT/AOT_stimuli/rescaled_final/1203_fw.mp4	0.0	314.90502190589905	
64	287.9428379535675	movie	1		243	62.0	2.5	/experiments/knapen_AOT/AOT_stimuli/rescaled_final/1203_fw.mp4	0.0	315.721657037735	2.5005319118499756
64	288.7265348434448	pulse	1	t		62.0	2.5	/experiments/knapen_AOT/AOT_stimuli/rescaled_final/1203_fw.mp4	0.0	316.5053539276123	
64	290.3264570236206	pulse	1	t		62.0	2.5	/experiments/knapen_AOT/AOT_stimuli/rescaled_final/1203_fw.mp4	0.0	318.1052761077881	
64	290.4433698654175	fix_post	2		12	62.0	2.5	/experiments/knapen_AOT/AOT_stimuli/rescaled_final/1203_fw.mp4	0.0	318.22218894958496	0.09990215301513672
65	290.5432720184326	fix_pre	0		120	63.0	2.5	/experiments/knapen_AOT/AOT_stimuli/rescaled_final/0096_fw.mp4	0.0	318.3220911026001	1.0001227855682373
65	291.54339480400085	movie	1		242	63.0	2.5	/experiments/knapen_AOT/AOT_stimuli/rescaled_final/0096_fw.mp4	0.0	319.32221388816833	2.5006680488586426
65	291.9275679588318	pulse	1	t		63.0	2.5	/experiments/knapen_AOT/AOT_stimuli/rescaled_final/0096_fw.mp4	0.0	319.70638704299927	
65	293.52716398239136	pulse	1	t		63.0	2.5	/experiments/knapen_AOT/AOT_stimuli/rescaled_final/0096_fw.mp4	0.0	321.30598306655884	
65	294.0440628528595	fix_post	2		12	63.0	2.5	/experiments/knapen_AOT/AOT_stimuli/rescaled_final/0096_fw.mp4	0.0	321.822881937027	0.09980297088623047
66	294.1438658237457	fix_pre	0		119	64.0	2.5	/experiments/knapen_AOT/AOT_stimuli/rescaled_final/1916_fw.mp4	0.0	321.9226849079132	0.9917449951171875
66	295.12749695777893	pulse	0	t		64.0	2.5	/experiments/knapen_AOT/AOT_stimuli/rescaled_final/1916_fw.mp4	0.0	322.9063160419464	
66	295.1356108188629	movie	1		243	64.0	2.5	/experiments/knapen_AOT/AOT_stimuli/rescaled_final/1916_fw.mp4	0.0	322.9144299030304	2.5088441371917725
66	296.7280578613281	pulse	1	t		64.0	2.5	/experiments/knapen_AOT/AOT_stimuli/rescaled_final/1916_fw.mp4	0.0	324.5068769454956	
66	297.6444549560547	fix_post	2		12	64.0	2.5	/experiments/knapen_AOT/AOT_stimuli/rescaled_final/1916_fw.mp4	0.0	325.42327404022217	0.09988784790039062
67	297.7443428039551	fix_pre	0		120	65.0	2.5	/experiments/knapen_AOT/AOT_stimuli/rescaled_final/1114_fw.mp4	0.0	325.52316188812256	1.0001230239868164
67	298.327996969223	pulse	0	t		65.0	2.5	/experiments/knapen_AOT/AOT_stimuli/rescaled_final/1114_fw.mp4	0.0	326.1068160533905	
67	298.7444658279419	movie	1		242	65.0	2.5	/experiments/knapen_AOT/AOT_stimuli/rescaled_final/1114_fw.mp4	0.0	326.5232849121094	2.500549077987671
67	299.9281499385834	pulse	1	t		65.0	2.5	/experiments/knapen_AOT/AOT_stimuli/rescaled_final/1114_fw.mp4	0.0	327.70696902275085	
67	301.24501490592957	fix_post	2		12	65.0	2.5	/experiments/knapen_AOT/AOT_stimuli/rescaled_final/1114_fw.mp4	0.0	329.02383399009705	0.09980010986328125
68	301.34481501579285	fix_pre	0		120	66.0	2.5	/experiments/knapen_AOT/AOT_stimuli/rescaled_final/2143_rv.mp4	0.0	329.1236340999603	1.000140905380249
68	301.52840089797974	pulse	0	t		66.0	2.5	/experiments/knapen_AOT/AOT_stimuli/rescaled_final/2143_rv.mp4	0.0	329.3072199821472	
68	302.3449559211731	movie	1		242	66.0	2.5	/experiments/knapen_AOT/AOT_stimuli/rescaled_final/2143_rv.mp4	0.0	330.1237750053406	2.5004680156707764
68	303.1212508678436	pulse	1	t		66.0	2.5	/experiments/knapen_AOT/AOT_stimuli/rescaled_final/2143_rv.mp4	0.0	330.9000699520111	
68	304.72866702079773	pulse	1	t		66.0	2.5	/experiments/knapen_AOT/AOT_stimuli/rescaled_final/2143_rv.mp4	0.0	332.5074861049652	
68	304.8454239368439	fix_post	2		12	66.0	2.5	/experiments/knapen_AOT/AOT_stimuli/rescaled_final/2143_rv.mp4	0.0	332.62424302101135	0.09996795654296875
69	304.94539189338684	fix_pre	0		120	67.0	2.5	/experiments/knapen_AOT/AOT_stimuli/rescaled_final/0045_fw.mp4	0.0	332.7242109775543	1.0001709461212158
69	305.94556283950806	movie	1		241	67.0	2.5	/experiments/knapen_AOT/AOT_stimuli/rescaled_final/0045_fw.mp4	0.0	333.72438192367554	2.49208402633667
69	306.32960295677185	pulse	1	t		67.0	2.5	/experiments/knapen_AOT/AOT_stimuli/rescaled_final/0045_fw.mp4	0.0	334.10842204093933	
69	307.92135190963745	pulse	1	t		67.0	2.5	/experiments/knapen_AOT/AOT_stimuli/rescaled_final/0045_fw.mp4	0.0	335.70017099380493	
69	308.4376468658447	fix_post	2		12	67.0	2.5	/experiments/knapen_AOT/AOT_stimuli/rescaled_final/0045_fw.mp4	0.0	336.2164659500122	0.10002493858337402
70	308.5376718044281	fix_pre	0		119	68.0	2.5	/experiments/knapen_AOT/AOT_stimuli/rescaled_final/1551_fw.mp4	0.0	336.3164908885956	0.9916980266571045
70	309.5212068557739	pulse	0	t		68.0	2.5	/experiments/knapen_AOT/AOT_stimuli/rescaled_final/1551_fw.mp4	0.0	337.3000259399414	
70	309.5293698310852	movie	1		245	68.0	2.5	/experiments/knapen_AOT/AOT_stimuli/rescaled_final/1551_fw.mp4	0.0	337.3081889152527	2.508697032928467
70	311.1219928264618	pulse	1	t		68.0	2.5	/experiments/knapen_AOT/AOT_stimuli/rescaled_final/1551_fw.mp4	0.0	338.9008119106293	
70	312.0380668640137	fix_post	2		12	68.0	2.5	/experiments/knapen_AOT/AOT_stimuli/rescaled_final/1551_fw.mp4	0.0	339.81688594818115	0.10006904602050781
71	312.1381359100342	fix_pre	0		120	69.0	2.5	/experiments/knapen_AOT/AOT_stimuli/rescaled_final/1745_fw.mp4	0.0	339.91695499420166	1.0001869201660156
71	312.721795797348	pulse	0	t		69.0	2.5	/experiments/knapen_AOT/AOT_stimuli/rescaled_final/1745_fw.mp4	0.0	340.5006148815155	
71	313.1383228302002	movie	1		242	69.0	2.5	/experiments/knapen_AOT/AOT_stimuli/rescaled_final/1745_fw.mp4	0.0	340.9171419143677	2.5005290508270264
71	314.32209396362305	pulse	1	t		69.0	2.5	/experiments/knapen_AOT/AOT_stimuli/rescaled_final/1745_fw.mp4	0.0	342.1009130477905	
71	315.6388518810272	fix_post	2		12	69.0	2.5	/experiments/knapen_AOT/AOT_stimuli/rescaled_final/1745_fw.mp4	0.0	343.4176709651947	0.09980297088623047
72	315.73865485191345	fix_pre	0		120	70.0	2.5	blank	1.0	343.51747393608093	1.0001411437988281
72	315.9221339225769	pulse	0	t		70.0	2.5	blank	1.0	343.7009530067444	
72	316.7387959957123	movie	1		300	70.0	2.5	blank	1.0	344.51761507987976	2.5003769397735596
72	317.52246499061584	pulse	1	t		70.0	2.5	blank	1.0	345.3012840747833	
72	319.1226909160614	pulse	1	t		70.0	2.5	blank	1.0	346.9015100002289	
72	319.23917293548584	fix_post	2		12	70.0	2.5	blank	1.0	347.0179920196533	0.10005688667297363
73	319.3392298221588	fix_pre	0		120	71.0	2.5	/experiments/knapen_AOT/AOT_stimuli/rescaled_final/2096_rv.mp4	0.0	347.1180489063263	1.0001020431518555
73	320.33933186531067	movie	1		243	71.0	2.5	/experiments/knapen_AOT/AOT_stimuli/rescaled_final/2096_rv.mp4	0.0	348.11815094947815	2.4920520782470703
73	320.72349786758423	pulse	1	t		71.0	2.5	/experiments/knapen_AOT/AOT_stimuli/rescaled_final/2096_rv.mp4	0.0	348.5023169517517	
73	322.3231158256531	pulse	1	t		71.0	2.5	/experiments/knapen_AOT/AOT_stimuli/rescaled_final/2096_rv.mp4	0.0	350.10193490982056	
73	322.83138394355774	fix_post	2		12	71.0	2.5	/experiments/knapen_AOT/AOT_stimuli/rescaled_final/2096_rv.mp4	0.0	350.6102030277252	0.10004091262817383
74	322.9314248561859	fix_pre	0		120	72.0	2.5	/experiments/knapen_AOT/AOT_stimuli/rescaled_final/0184_fw.mp4	0.0	350.7102439403534	1.0000979900360107
74	323.9233729839325	pulse	0	t		72.0	2.5	/experiments/knapen_AOT/AOT_stimuli/rescaled_final/0184_fw.mp4	0.0	351.7021920681	
74	323.9315228462219	movie	1		244	72.0	2.5	/experiments/knapen_AOT/AOT_stimuli/rescaled_final/0184_fw.mp4	0.0	351.7103419303894	2.508833169937134
74	325.52419090270996	pulse	1	t		72.0	2.5	/experiments/knapen_AOT/AOT_stimuli/rescaled_final/0184_fw.mp4	0.0	353.30300998687744	
74	326.44035601615906	fix_post	2		12	72.0	2.5	/experiments/knapen_AOT/AOT_stimuli/rescaled_final/0184_fw.mp4	0.0	354.21917510032654	0.09990096092224121
75	326.5402569770813	fix_pre	0		120	73.0	2.5	/experiments/knapen_AOT/AOT_stimuli/rescaled_final/1087_fw.mp4	0.0	354.3190760612488	1.0002119541168213
75	327.12381887435913	pulse	0	t		73.0	2.5	/experiments/knapen_AOT/AOT_stimuli/rescaled_final/1087_fw.mp4	0.0	354.9026379585266	
75	327.5404689311981	movie	1		243	73.0	2.5	/experiments/knapen_AOT/AOT_stimuli/rescaled_final/1087_fw.mp4	0.0	355.3192880153656	2.500501871109009
75	328.72416281700134	pulse	1	t		73.0	2.5	/experiments/knapen_AOT/AOT_stimuli/rescaled_final/1087_fw.mp4	0.0	356.5029819011688	
75	330.04097080230713	fix_post	2		12	73.0	2.5	/experiments/knapen_AOT/AOT_stimuli/rescaled_final/1087_fw.mp4	0.0	357.8197898864746	0.09991717338562012
76	330.14088797569275	fix_pre	0		120	74.0	2.5	/experiments/knapen_AOT/AOT_stimuli/rescaled_final/0666_fw.mp4	0.0	357.91970705986023	1.0000519752502441
76	330.3243567943573	pulse	0	t		74.0	2.5	/experiments/knapen_AOT/AOT_stimuli/rescaled_final/0666_fw.mp4	0.0	358.1031758785248	
76	331.140939950943	movie	1		242	74.0	2.5	/experiments/knapen_AOT/AOT_stimuli/rescaled_final/0666_fw.mp4	0.0	358.9197590351105	2.500586986541748
76	331.9245939254761	pulse	1	t		74.0	2.5	/experiments/knapen_AOT/AOT_stimuli/rescaled_final/0666_fw.mp4	0.0	359.70341300964355	
76	333.5251088142395	pulse	1	t		74.0	2.5	/experiments/knapen_AOT/AOT_stimuli/rescaled_final/0666_fw.mp4	0.0	361.303927898407	
76	333.64152693748474	fix_post	2		10	74.0	2.5	/experiments/knapen_AOT/AOT_stimuli/rescaled_final/0666_fw.mp4	0.0	361.4203460216522	0.09987092018127441
77	333.741397857666	fix_pre	0		120	75.0	2.5	/experiments/knapen_AOT/AOT_stimuli/rescaled_final/1309_rv.mp4	0.0	361.5202169418335	1.0001411437988281
77	334.74153900146484	movie	1		242	75.0	2.5	/experiments/knapen_AOT/AOT_stimuli/rescaled_final/1309_rv.mp4	0.0	362.5203580856323	2.492149829864502
77	335.1255929470062	pulse	1	t		75.0	2.5	/experiments/knapen_AOT/AOT_stimuli/rescaled_final/1309_rv.mp4	0.0	362.9044120311737	
77	336.7253739833832	pulse	1	t		75.0	2.5	/experiments/knapen_AOT/AOT_stimuli/rescaled_final/1309_rv.mp4	0.0	364.50419306755066	
77	337.23368883132935	fix_post	2		12	75.0	2.5	/experiments/knapen_AOT/AOT_stimuli/rescaled_final/1309_rv.mp4	0.0	365.0125079154968	0.09986019134521484
78	337.33354902267456	fix_pre	0		120	76.0	2.5	/experiments/knapen_AOT/AOT_stimuli/rescaled_final/1098_fw.mp4	0.0	365.11236810684204	1.0001637935638428
78	338.32561683654785	pulse	0	t		76.0	2.5	/experiments/knapen_AOT/AOT_stimuli/rescaled_final/1098_fw.mp4	0.0	366.10443592071533	
78	338.3337128162384	movie	1		245	76.0	2.5	/experiments/knapen_AOT/AOT_stimuli/rescaled_final/1098_fw.mp4	0.0	366.1125319004059	2.5087220668792725
78	339.92641496658325	pulse	1	t		76.0	2.5	/experiments/knapen_AOT/AOT_stimuli/rescaled_final/1098_fw.mp4	0.0	367.70523405075073	
78	340.8424348831177	fix_post	2		12	76.0	2.5	/experiments/knapen_AOT/AOT_stimuli/rescaled_final/1098_fw.mp4	0.0	368.62125396728516	0.09999299049377441
79	340.94242787361145	fix_pre	0		120	77.0	2.5	blank	1.0	368.72124695777893	1.0001511573791504
79	341.5259749889374	pulse	0	t		77.0	2.5	blank	1.0	369.30479407310486	
79	341.9425790309906	movie	1		300	77.0	2.5	blank	1.0	369.7213981151581	2.5003249645233154
79	343.1262469291687	pulse	1	t		77.0	2.5	blank	1.0	370.9050660133362	
79	344.4429039955139	fix_post	2		12	77.0	2.5	blank	1.0	372.2217230796814	0.10004401206970215
80	344.5429480075836	fix_pre	0		120	78.0	2.5	/experiments/knapen_AOT/AOT_stimuli/rescaled_final/1624_rv.mp4	0.0	372.3217670917511	1.0001699924468994
80	344.7265999317169	pulse	0	t		78.0	2.5	/experiments/knapen_AOT/AOT_stimuli/rescaled_final/1624_rv.mp4	0.0	372.5054190158844	
80	345.5431180000305	movie	1		243	78.0	2.5	/experiments/knapen_AOT/AOT_stimuli/rescaled_final/1624_rv.mp4	0.0	373.321937084198	2.500572919845581
80	346.32679200172424	pulse	1	t		78.0	2.5	/experiments/knapen_AOT/AOT_stimuli/rescaled_final/1624_rv.mp4	0.0	374.1056110858917	
80	347.92680382728577	pulse	1	t		78.0	2.5	/experiments/knapen_AOT/AOT_stimuli/rescaled_final/1624_rv.mp4	0.0	375.70562291145325	
80	348.0436909198761	fix_post	2		12	78.0	2.5	/experiments/knapen_AOT/AOT_stimuli/rescaled_final/1624_rv.mp4	0.0	375.8225100040436	0.09981894493103027
81	348.14350986480713	fix_pre	0		120	79.0	2.5	/experiments/knapen_AOT/AOT_stimuli/rescaled_final/2030_rv.mp4	0.0	375.9223289489746	1.0001330375671387
81	349.14364290237427	movie	1		241	79.0	2.5	/experiments/knapen_AOT/AOT_stimuli/rescaled_final/2030_rv.mp4	0.0	376.92246198654175	2.4921751022338867
81	349.5278778076172	pulse	1	t		79.0	2.5	/experiments/knapen_AOT/AOT_stimuli/rescaled_final/2030_rv.mp4	0.0	377.30669689178467	
81	351.1274428367615	pulse	1	t		79.0	2.5	/experiments/knapen_AOT/AOT_stimuli/rescaled_final/2030_rv.mp4	0.0	378.90626192092896	
81	351.63581800460815	fix_post	2		12	79.0	2.5	/experiments/knapen_AOT/AOT_stimuli/rescaled_final/2030_rv.mp4	0.0	379.41463708877563	0.09988784790039062
82	351.73570585250854	fix_pre	0		120	80.0	2.5	/experiments/knapen_AOT/AOT_stimuli/rescaled_final/0423_fw.mp4	0.0	379.514524936676	1.0001120567321777
82	352.7277739048004	pulse	0	t		80.0	2.5	/experiments/knapen_AOT/AOT_stimuli/rescaled_final/0423_fw.mp4	0.0	380.5065929889679	
82	352.7358179092407	movie	1		244	80.0	2.5	/experiments/knapen_AOT/AOT_stimuli/rescaled_final/0423_fw.mp4	0.0	380.5146369934082	2.5088140964508057
82	354.32852387428284	pulse	1	t		80.0	2.5	/experiments/knapen_AOT/AOT_stimuli/rescaled_final/0423_fw.mp4	0.0	382.1073429584503	
82	355.2446320056915	fix_post	2		12	80.0	2.5	/experiments/knapen_AOT/AOT_stimuli/rescaled_final/0423_fw.mp4	0.0	383.023451089859	0.09990692138671875
83	355.34453892707825	fix_pre	0		120	81.0	2.5	/experiments/knapen_AOT/AOT_stimuli/rescaled_final/0520_fw.mp4	0.0	383.1233580112457	1.0001509189605713
83	355.9281008243561	pulse	0	t		81.0	2.5	/experiments/knapen_AOT/AOT_stimuli/rescaled_final/0520_fw.mp4	0.0	383.70691990852356	
83	356.3446898460388	movie	1		243	81.0	2.5	/experiments/knapen_AOT/AOT_stimuli/rescaled_final/0520_fw.mp4	0.0	384.1235089302063	2.5005199909210205
83	357.525043964386	pulse	1	t		81.0	2.5	/experiments/knapen_AOT/AOT_stimuli/rescaled_final/0520_fw.mp4	0.0	385.30386304855347	
83	358.84520983695984	fix_post	2		12	81.0	2.5	/experiments/knapen_AOT/AOT_stimuli/rescaled_final/0520_fw.mp4	0.0	386.6240289211273	0.09989500045776367
84	358.9451048374176	fix_pre	0		120	82.0	2.5	/experiments/knapen_AOT/AOT_stimuli/rescaled_final/1822_rv.mp4	0.0	386.7239239215851	1.0002360343933105
84	359.12875390052795	pulse	0	t		82.0	2.5	/experiments/knapen_AOT/AOT_stimuli/rescaled_final/1822_rv.mp4	0.0	386.90757298469543	
84	359.9453408718109	movie	1		242	82.0	2.5	/experiments/knapen_AOT/AOT_stimuli/rescaled_final/1822_rv.mp4	0.0	387.7241599559784	2.5003199577331543
84	360.72886085510254	pulse	1	t		82.0	2.5	/experiments/knapen_AOT/AOT_stimuli/rescaled_final/1822_rv.mp4	0.0	388.50767993927	
84	362.32888889312744	pulse	1	t		82.0	2.5	/experiments/knapen_AOT/AOT_stimuli/rescaled_final/1822_rv.mp4	0.0	390.1077079772949	
84	362.44566082954407	fix_post	2		12	82.0	2.5	/experiments/knapen_AOT/AOT_stimuli/rescaled_final/1822_rv.mp4	0.0	390.22447991371155	0.1000070571899414
85	362.545667886734	fix_pre	0		120	83.0	2.5	blank	1.0	390.3244869709015	1.0001051425933838
85	363.5457730293274	movie	1		299	83.0	2.5	blank	1.0	391.3245921134949	2.492060899734497
85	363.9218490123749	pulse	1	t		83.0	2.5	blank	1.0	391.70066809654236	
85	365.52196884155273	pulse	1	t		83.0	2.5	blank	1.0	393.3007879257202	
85	366.0378339290619	fix_post	2		12	83.0	2.5	blank	1.0	393.81665301322937	0.10006904602050781
87	366.1379029750824	stim	0		1716					393.9167220592499	14.302098035812378
87	367.12242102622986	pulse	0	t						394.90124011039734	
87	368.7219498157501	pulse	0	t						396.5007688999176	
87	370.32186698913574	pulse	0	t						398.1006860733032	
87	371.9220929145813	pulse	0	t						399.7009119987488	
87	373.5224118232727	pulse	0	t						401.3012309074402	
87	375.1226840019226	pulse	0	t						402.9015030860901	
87	376.7230179309845	pulse	0	t						404.501837015152	
87	378.32308888435364	pulse	0	t						406.1019079685211	
87	379.92335987091064	pulse	0	t						407.7021789550781	
