trial_nr	onset	event_type	phase	response	nr_frames	movie_index	movie_duration	movie_file	blank	onset_abs	duration
0	0.20836496353149414	stim	0		6017					28.493116855621338	50.149075984954834
0	50.349385023117065	response	0	space						78.63413691520691	
1	50.35744094848633	stim	0		4642					78.64219284057617	38.694199085235596
1	89.03835797309875	pulse	0	t						117.3231098651886	
1	89.05164003372192	stim	1		1714					117.33639192581177	14.296992063522339
1	90.63874793052673	pulse	1	t						118.92349982261658	
1	92.23881793022156	pulse	1	t						120.5235698223114	
1	93.83894801139832	pulse	1	t						122.12369990348816	
1	95.43935108184814	pulse	1	t						123.72410297393799	
1	97.03948307037354	pulse	1	t						125.32423496246338	
1	98.63974595069885	pulse	1	t						126.9244978427887	
1	100.23994302749634	pulse	1	t						128.52469491958618	
1	101.84022188186646	pulse	1	t						130.1249737739563	
2	103.34863209724426	fix_pre	0		12	0.0	2.5	/experiments/knapen_AOT/AOT_stimuli/rescaled_final/0257_rv.mp4	0.0	131.6333839893341	0.13344979286193848
2	103.44064092636108	pulse	0	t		0.0	2.5	/experiments/knapen_AOT/AOT_stimuli/rescaled_final/0257_rv.mp4	0.0	131.72539281845093	
2	103.4820818901062	movie	1		239	0.0	2.5	/experiments/knapen_AOT/AOT_stimuli/rescaled_final/0257_rv.mp4	0.0	131.76683378219604	2.4752280712127686
2	105.04128789901733	pulse	1	t		0.0	2.5	/experiments/knapen_AOT/AOT_stimuli/rescaled_final/0257_rv.mp4	0.0	133.32603979110718	
2	105.95730996131897	fix_post	2		11	0.0	2.5	/experiments/knapen_AOT/AOT_stimuli/rescaled_final/0257_rv.mp4	0.0	134.2420618534088	0.10012197494506836
3	106.05743193626404	fix_pre	0		120	1.0	2.5	/experiments/knapen_AOT/AOT_stimuli/rescaled_final/0556_fw.mp4	0.0	134.34218382835388	1.000049114227295
3	106.64090895652771	pulse	0	t		1.0	2.5	/experiments/knapen_AOT/AOT_stimuli/rescaled_final/0556_fw.mp4	0.0	134.92566084861755	
3	107.05748105049133	movie	1		244	1.0	2.5	/experiments/knapen_AOT/AOT_stimuli/rescaled_final/0556_fw.mp4	0.0	135.34223294258118	2.5003678798675537
3	108.24123787879944	pulse	1	t		1.0	2.5	/experiments/knapen_AOT/AOT_stimuli/rescaled_final/0556_fw.mp4	0.0	136.52598977088928	
3	109.55784893035889	fix_post	2		12	1.0	2.5	/experiments/knapen_AOT/AOT_stimuli/rescaled_final/0556_fw.mp4	0.0	137.84260082244873	0.09999608993530273
4	109.65784502029419	fix_pre	0		120	2.0	2.5	/experiments/knapen_AOT/AOT_stimuli/rescaled_final/1700_rv.mp4	0.0	137.94259691238403	1.000182867050171
4	109.84148907661438	pulse	0	t		2.0	2.5	/experiments/knapen_AOT/AOT_stimuli/rescaled_final/1700_rv.mp4	0.0	138.12624096870422	
4	110.65802788734436	movie	1		243	2.0	2.5	/experiments/knapen_AOT/AOT_stimuli/rescaled_final/1700_rv.mp4	0.0	138.9427797794342	2.500364065170288
4	111.44178891181946	pulse	1	t		2.0	2.5	/experiments/knapen_AOT/AOT_stimuli/rescaled_final/1700_rv.mp4	0.0	139.7265408039093	
4	113.04189491271973	pulse	1	t		2.0	2.5	/experiments/knapen_AOT/AOT_stimuli/rescaled_final/1700_rv.mp4	0.0	141.32664680480957	
4	113.15839195251465	fix_post	2		12	2.0	2.5	/experiments/knapen_AOT/AOT_stimuli/rescaled_final/1700_rv.mp4	0.0	141.4431438446045	0.09999513626098633
5	113.25838708877563	fix_pre	0		120	3.0	2.5	/experiments/knapen_AOT/AOT_stimuli/rescaled_final/1094_rv.mp4	0.0	141.54313898086548	1.0001628398895264
5	114.25854992866516	movie	1		242	3.0	2.5	/experiments/knapen_AOT/AOT_stimuli/rescaled_final/1094_rv.mp4	0.0	142.543301820755	2.4920461177825928
5	114.64261198043823	pulse	1	t		3.0	2.5	/experiments/knapen_AOT/AOT_stimuli/rescaled_final/1094_rv.mp4	0.0	142.92736387252808	
5	116.24243807792664	pulse	1	t		3.0	2.5	/experiments/knapen_AOT/AOT_stimuli/rescaled_final/1094_rv.mp4	0.0	144.52718997001648	
5	116.75059604644775	fix_post	2		12	3.0	2.5	/experiments/knapen_AOT/AOT_stimuli/rescaled_final/1094_rv.mp4	0.0	145.0353479385376	0.10003495216369629
6	116.85063099861145	fix_pre	0		120	4.0	2.5	/experiments/knapen_AOT/AOT_stimuli/rescaled_final/1972_rv.mp4	0.0	145.1353828907013	1.0001280307769775
6	117.84281396865845	pulse	0	t		4.0	2.5	/experiments/knapen_AOT/AOT_stimuli/rescaled_final/1972_rv.mp4	0.0	146.1275658607483	
6	117.85075902938843	movie	1		247	4.0	2.5	/experiments/knapen_AOT/AOT_stimuli/rescaled_final/1972_rv.mp4	0.0	146.13551092147827	2.508697032928467
6	119.44399690628052	pulse	1	t		4.0	2.5	/experiments/knapen_AOT/AOT_stimuli/rescaled_final/1972_rv.mp4	0.0	147.72874879837036	
6	120.3594560623169	fix_post	2		12	4.0	2.5	/experiments/knapen_AOT/AOT_stimuli/rescaled_final/1972_rv.mp4	0.0	148.64420795440674	0.10010194778442383
7	120.45955801010132	fix_pre	0		120	5.0	2.5	blank	1.0	148.74430990219116	1.0000760555267334
7	121.04310607910156	pulse	0	t		5.0	2.5	blank	1.0	149.3278579711914	
7	121.45963406562805	movie	1		300	5.0	2.5	blank	1.0	149.7443859577179	2.5003929138183594
7	122.64333009719849	pulse	1	t		5.0	2.5	blank	1.0	150.92808198928833	
7	123.96002697944641	fix_post	2		12	5.0	2.5	blank	1.0	152.24477887153625	0.09996700286865234
8	124.05999398231506	fix_pre	0		120	6.0	2.5	/experiments/knapen_AOT/AOT_stimuli/rescaled_final/1460_fw.mp4	0.0	152.3447458744049	1.0001819133758545
8	124.24363994598389	pulse	0	t		6.0	2.5	/experiments/knapen_AOT/AOT_stimuli/rescaled_final/1460_fw.mp4	0.0	152.52839183807373	
8	125.06017589569092	movie	1		245	6.0	2.5	/experiments/knapen_AOT/AOT_stimuli/rescaled_final/1460_fw.mp4	0.0	153.34492778778076	2.500378131866455
8	125.84382009506226	pulse	1	t		6.0	2.5	/experiments/knapen_AOT/AOT_stimuli/rescaled_final/1460_fw.mp4	0.0	154.1285719871521	
8	127.44417190551758	pulse	1	t		6.0	2.5	/experiments/knapen_AOT/AOT_stimuli/rescaled_final/1460_fw.mp4	0.0	155.72892379760742	
8	127.56055402755737	fix_post	2		12	6.0	2.5	/experiments/knapen_AOT/AOT_stimuli/rescaled_final/1460_fw.mp4	0.0	155.84530591964722	0.10006284713745117
9	127.66061687469482	fix_pre	0		120	7.0	2.5	/experiments/knapen_AOT/AOT_stimuli/rescaled_final/1856_fw.mp4	0.0	155.94536876678467	1.000103235244751
9	128.66072010993958	movie	1		242	7.0	2.5	/experiments/knapen_AOT/AOT_stimuli/rescaled_final/1856_fw.mp4	0.0	156.94547200202942	2.492006778717041
9	129.04490303993225	pulse	1	t		7.0	2.5	/experiments/knapen_AOT/AOT_stimuli/rescaled_final/1856_fw.mp4	0.0	157.3296549320221	
9	130.63722705841064	pulse	1	t		7.0	2.5	/experiments/knapen_AOT/AOT_stimuli/rescaled_final/1856_fw.mp4	0.0	158.9219789505005	
9	131.15272688865662	fix_post	2		12	7.0	2.5	/experiments/knapen_AOT/AOT_stimuli/rescaled_final/1856_fw.mp4	0.0	159.43747878074646	0.10001420974731445
10	131.25274109840393	fix_pre	0		120	8.0	2.5	/experiments/knapen_AOT/AOT_stimuli/rescaled_final/0035_fw.mp4	0.0	159.53749299049377	1.0001718997955322
10	132.23739099502563	pulse	0	t		8.0	2.5	/experiments/knapen_AOT/AOT_stimuli/rescaled_final/0035_fw.mp4	0.0	160.52214288711548	
10	132.25291299819946	movie	1		246	8.0	2.5	/experiments/knapen_AOT/AOT_stimuli/rescaled_final/0035_fw.mp4	0.0	160.5376648902893	2.5087010860443115
10	133.84636402130127	pulse	1	t		8.0	2.5	/experiments/knapen_AOT/AOT_stimuli/rescaled_final/0035_fw.mp4	0.0	162.1311159133911	
10	134.76161408424377	fix_post	2		12	8.0	2.5	/experiments/knapen_AOT/AOT_stimuli/rescaled_final/0035_fw.mp4	0.0	163.04636597633362	0.10000085830688477
11	134.86161494255066	fix_pre	0		120	9.0	2.5	/experiments/knapen_AOT/AOT_stimuli/rescaled_final/0201_rv.mp4	0.0	163.1463668346405	1.0001699924468994
11	135.43703508377075	pulse	0	t		9.0	2.5	/experiments/knapen_AOT/AOT_stimuli/rescaled_final/0201_rv.mp4	0.0	163.7217869758606	
11	135.86178493499756	movie	1		244	9.0	2.5	/experiments/knapen_AOT/AOT_stimuli/rescaled_final/0201_rv.mp4	0.0	164.1465368270874	2.5003750324249268
11	137.04134106636047	pulse	1	t		9.0	2.5	/experiments/knapen_AOT/AOT_stimuli/rescaled_final/0201_rv.mp4	0.0	165.32609295845032	
11	138.36215996742249	fix_post	2		12	9.0	2.5	/experiments/knapen_AOT/AOT_stimuli/rescaled_final/0201_rv.mp4	0.0	166.64691185951233	0.09999608993530273
12	138.4621560573578	fix_pre	0		120	10.0	2.5	/experiments/knapen_AOT/AOT_stimuli/rescaled_final/1091_rv.mp4	0.0	166.74690794944763	1.0001609325408936
12	138.63730788230896	pulse	0	t		10.0	2.5	/experiments/knapen_AOT/AOT_stimuli/rescaled_final/1091_rv.mp4	0.0	166.9220597743988	
12	139.46231698989868	movie	1		244	10.0	2.5	/experiments/knapen_AOT/AOT_stimuli/rescaled_final/1091_rv.mp4	0.0	167.74706888198853	2.5003459453582764
12	140.23765397071838	pulse	1	t		10.0	2.5	/experiments/knapen_AOT/AOT_stimuli/rescaled_final/1091_rv.mp4	0.0	168.52240586280823	
12	141.83780598640442	pulse	1	t		10.0	2.5	/experiments/knapen_AOT/AOT_stimuli/rescaled_final/1091_rv.mp4	0.0	170.12255787849426	
12	141.96266293525696	fix_post	2		12	10.0	2.5	/experiments/knapen_AOT/AOT_stimuli/rescaled_final/1091_rv.mp4	0.0	170.2474148273468	0.1000361442565918
13	142.06269907951355	fix_pre	0		120	11.0	2.5	/experiments/knapen_AOT/AOT_stimuli/rescaled_final/1486_rv.mp4	0.0	170.3474509716034	1.0001859664916992
13	143.06288504600525	movie	1		243	11.0	2.5	/experiments/knapen_AOT/AOT_stimuli/rescaled_final/1486_rv.mp4	0.0	171.3476369380951	2.4919910430908203
13	143.4381458759308	pulse	1	t		11.0	2.5	/experiments/knapen_AOT/AOT_stimuli/rescaled_final/1486_rv.mp4	0.0	171.72289776802063	
13	145.03850889205933	pulse	1	t		11.0	2.5	/experiments/knapen_AOT/AOT_stimuli/rescaled_final/1486_rv.mp4	0.0	173.32326078414917	
13	145.55487608909607	fix_post	2		12	11.0	2.5	/experiments/knapen_AOT/AOT_stimuli/rescaled_final/1486_rv.mp4	0.0	173.8396279811859	0.10008001327514648
14	145.65495610237122	fix_pre	0		119	12.0	2.5	/experiments/knapen_AOT/AOT_stimuli/rescaled_final/1054_rv.mp4	0.0	173.93970799446106	0.9917747974395752
14	146.63856601715088	pulse	0	t		12.0	2.5	/experiments/knapen_AOT/AOT_stimuli/rescaled_final/1054_rv.mp4	0.0	174.92331790924072	
14	146.6467308998108	movie	1		244	12.0	2.5	/experiments/knapen_AOT/AOT_stimuli/rescaled_final/1054_rv.mp4	0.0	174.93148279190063	2.50870418548584
14	148.24370098114014	pulse	1	t		12.0	2.5	/experiments/knapen_AOT/AOT_stimuli/rescaled_final/1054_rv.mp4	0.0	176.52845287322998	
14	149.15543508529663	fix_post	2		12	12.0	2.5	/experiments/knapen_AOT/AOT_stimuli/rescaled_final/1054_rv.mp4	0.0	177.44018697738647	0.1000058650970459
15	149.25544095039368	fix_pre	0		120	13.0	2.5	/experiments/knapen_AOT/AOT_stimuli/rescaled_final/1621_rv.mp4	0.0	177.54019284248352	1.0001530647277832
15	149.83910989761353	pulse	0	t		13.0	2.5	/experiments/knapen_AOT/AOT_stimuli/rescaled_final/1621_rv.mp4	0.0	178.12386178970337	
15	150.25559401512146	movie	1		243	13.0	2.5	/experiments/knapen_AOT/AOT_stimuli/rescaled_final/1621_rv.mp4	0.0	178.5403459072113	2.5004069805145264
15	151.43944311141968	pulse	1	t		13.0	2.5	/experiments/knapen_AOT/AOT_stimuli/rescaled_final/1621_rv.mp4	0.0	179.72419500350952	
15	152.756000995636	fix_post	2		12	13.0	2.5	/experiments/knapen_AOT/AOT_stimuli/rescaled_final/1621_rv.mp4	0.0	181.04075288772583	0.09995603561401367
16	152.85595703125	fix_pre	0		120	14.0	2.5	blank	1.0	181.14070892333984	1.000180959701538
16	153.03955006599426	pulse	0	t		14.0	2.5	blank	1.0	181.3243019580841	
16	153.85613799095154	movie	1		300	14.0	2.5	blank	1.0	182.14088988304138	2.500369071960449
16	154.6397829055786	pulse	1	t		14.0	2.5	blank	1.0	182.92453479766846	
16	156.24004697799683	pulse	1	t		14.0	2.5	blank	1.0	184.52479887008667	
16	156.356507062912	fix_post	2		12	14.0	2.5	blank	1.0	184.64125895500183	0.09999895095825195
17	156.45650601387024	fix_pre	0		119	15.0	2.5	/experiments/knapen_AOT/AOT_stimuli/rescaled_final/0425_rv.mp4	0.0	184.74125790596008	0.9917988777160645
17	157.4483048915863	movie	1		244	15.0	2.5	/experiments/knapen_AOT/AOT_stimuli/rescaled_final/0425_rv.mp4	0.0	185.73305678367615	2.500411033630371
17	157.8404459953308	pulse	1	t		15.0	2.5	/experiments/knapen_AOT/AOT_stimuli/rescaled_final/0425_rv.mp4	0.0	186.12519788742065	
17	159.440603017807	pulse	1	t		15.0	2.5	/experiments/knapen_AOT/AOT_stimuli/rescaled_final/0425_rv.mp4	0.0	187.72535490989685	
17	159.94871592521667	fix_post	2		12	15.0	2.5	/experiments/knapen_AOT/AOT_stimuli/rescaled_final/0425_rv.mp4	0.0	188.23346781730652	0.10001397132873535
18	160.0487298965454	fix_pre	0		120	16.0	2.5	/experiments/knapen_AOT/AOT_stimuli/rescaled_final/0868_rv.mp4	0.0	188.33348178863525	1.000150203704834
18	161.0407199859619	pulse	0	t		16.0	2.5	/experiments/knapen_AOT/AOT_stimuli/rescaled_final/0868_rv.mp4	0.0	189.32547187805176	
18	161.04888010025024	movie	1		245	16.0	2.5	/experiments/knapen_AOT/AOT_stimuli/rescaled_final/0868_rv.mp4	0.0	189.3336319923401	2.5087199211120605
18	162.64155793190002	pulse	1	t		16.0	2.5	/experiments/knapen_AOT/AOT_stimuli/rescaled_final/0868_rv.mp4	0.0	190.92630982398987	
18	163.5576000213623	fix_post	2		12	16.0	2.5	/experiments/knapen_AOT/AOT_stimuli/rescaled_final/0868_rv.mp4	0.0	191.84235191345215	0.09997797012329102
19	163.6575779914856	fix_pre	0		120	17.0	2.5	/experiments/knapen_AOT/AOT_stimuli/rescaled_final/1723_rv.mp4	0.0	191.94232988357544	1.000175952911377
19	164.24126410484314	pulse	0	t		17.0	2.5	/experiments/knapen_AOT/AOT_stimuli/rescaled_final/1723_rv.mp4	0.0	192.52601599693298	
19	164.65775394439697	movie	1		241	17.0	2.5	/experiments/knapen_AOT/AOT_stimuli/rescaled_final/1723_rv.mp4	0.0	192.94250583648682	2.5004141330718994
19	165.84161496162415	pulse	1	t		17.0	2.5	/experiments/knapen_AOT/AOT_stimuli/rescaled_final/1723_rv.mp4	0.0	194.126366853714	
19	167.15816807746887	fix_post	2		12	17.0	2.5	/experiments/knapen_AOT/AOT_stimuli/rescaled_final/1723_rv.mp4	0.0	195.44291996955872	0.09995794296264648
20	167.25812602043152	fix_pre	0		120	18.0	2.5	/experiments/knapen_AOT/AOT_stimuli/rescaled_final/0138_fw.mp4	0.0	195.54287791252136	1.0001659393310547
20	167.44170093536377	pulse	0	t		18.0	2.5	/experiments/knapen_AOT/AOT_stimuli/rescaled_final/0138_fw.mp4	0.0	195.7264528274536	
20	168.25829195976257	movie	1		243	18.0	2.5	/experiments/knapen_AOT/AOT_stimuli/rescaled_final/0138_fw.mp4	0.0	196.54304385185242	2.5003390312194824
20	169.04191708564758	pulse	1	t		18.0	2.5	/experiments/knapen_AOT/AOT_stimuli/rescaled_final/0138_fw.mp4	0.0	197.32666897773743	
20	170.64205408096313	pulse	1	t		18.0	2.5	/experiments/knapen_AOT/AOT_stimuli/rescaled_final/0138_fw.mp4	0.0	198.92680597305298	
20	170.75863099098206	fix_post	2		12	18.0	2.5	/experiments/knapen_AOT/AOT_stimuli/rescaled_final/0138_fw.mp4	0.0	199.0433828830719	0.10003495216369629
21	170.85866594314575	fix_pre	0		120	19.0	2.5	blank	1.0	199.1434178352356	1.000154972076416
21	171.85882091522217	movie	1		299	19.0	2.5	blank	1.0	200.143572807312	2.4921321868896484
21	172.24252200126648	pulse	1	t		19.0	2.5	blank	1.0	200.52727389335632	
21	173.8427050113678	pulse	1	t		19.0	2.5	blank	1.0	202.12745690345764	
21	174.35095310211182	fix_post	2		12	19.0	2.5	blank	1.0	202.63570499420166	0.09994292259216309
22	174.45089602470398	fix_pre	0		120	20.0	2.5	/experiments/knapen_AOT/AOT_stimuli/rescaled_final/0038_rv.mp4	0.0	202.73564791679382	1.0001299381256104
22	175.44280910491943	pulse	0	t		20.0	2.5	/experiments/knapen_AOT/AOT_stimuli/rescaled_final/0038_rv.mp4	0.0	203.72756099700928	
22	175.4510259628296	movie	1		244	20.0	2.5	/experiments/knapen_AOT/AOT_stimuli/rescaled_final/0038_rv.mp4	0.0	203.73577785491943	2.5086920261383057
22	177.04431700706482	pulse	1	t		20.0	2.5	/experiments/knapen_AOT/AOT_stimuli/rescaled_final/0038_rv.mp4	0.0	205.32906889915466	
22	177.9597179889679	fix_post	2		12	20.0	2.5	/experiments/knapen_AOT/AOT_stimuli/rescaled_final/0038_rv.mp4	0.0	206.24446988105774	0.09999895095825195
23	178.05971693992615	fix_pre	0		120	21.0	2.5	/experiments/knapen_AOT/AOT_stimuli/rescaled_final/0805_fw.mp4	0.0	206.344468832016	1.0002059936523438
23	178.64351391792297	pulse	0	t		21.0	2.5	/experiments/knapen_AOT/AOT_stimuli/rescaled_final/0805_fw.mp4	0.0	206.92826581001282	
23	179.0599229335785	movie	1		244	21.0	2.5	/experiments/knapen_AOT/AOT_stimuli/rescaled_final/0805_fw.mp4	0.0	207.34467482566833	2.50032901763916
23	180.24362587928772	pulse	1	t		21.0	2.5	/experiments/knapen_AOT/AOT_stimuli/rescaled_final/0805_fw.mp4	0.0	208.52837777137756	
23	181.56025195121765	fix_post	2		12	21.0	2.5	/experiments/knapen_AOT/AOT_stimuli/rescaled_final/0805_fw.mp4	0.0	209.8450038433075	0.10001897811889648
24	181.66027092933655	fix_pre	0		120	22.0	2.5	/experiments/knapen_AOT/AOT_stimuli/rescaled_final/1820_fw.mp4	0.0	209.9450228214264	1.0001540184020996
24	181.84376192092896	pulse	0	t		22.0	2.5	/experiments/knapen_AOT/AOT_stimuli/rescaled_final/1820_fw.mp4	0.0	210.1285138130188	
24	182.66042494773865	movie	1		244	22.0	2.5	/experiments/knapen_AOT/AOT_stimuli/rescaled_final/1820_fw.mp4	0.0	210.9451768398285	2.500352144241333
24	183.44405603408813	pulse	1	t		22.0	2.5	/experiments/knapen_AOT/AOT_stimuli/rescaled_final/1820_fw.mp4	0.0	211.72880792617798	
24	185.04616689682007	pulse	1	t		22.0	2.5	/experiments/knapen_AOT/AOT_stimuli/rescaled_final/1820_fw.mp4	0.0	213.3309187889099	
24	185.16077709197998	fix_post	2		12	22.0	2.5	/experiments/knapen_AOT/AOT_stimuli/rescaled_final/1820_fw.mp4	0.0	213.44552898406982	0.1000208854675293
25	185.2607979774475	fix_pre	0		119	23.0	2.5	/experiments/knapen_AOT/AOT_stimuli/rescaled_final/0017_fw.mp4	0.0	213.54554986953735	0.9918210506439209
25	186.25261902809143	movie	1		245	23.0	2.5	/experiments/knapen_AOT/AOT_stimuli/rescaled_final/0017_fw.mp4	0.0	214.53737092018127	2.5003929138183594
25	186.6447470188141	pulse	1	t		23.0	2.5	/experiments/knapen_AOT/AOT_stimuli/rescaled_final/0017_fw.mp4	0.0	214.92949891090393	
25	188.24489402770996	pulse	1	t		23.0	2.5	/experiments/knapen_AOT/AOT_stimuli/rescaled_final/0017_fw.mp4	0.0	216.5296459197998	
25	188.7530119419098	fix_post	2		12	23.0	2.5	/experiments/knapen_AOT/AOT_stimuli/rescaled_final/0017_fw.mp4	0.0	217.03776383399963	0.10001206398010254
26	188.8530240058899	fix_pre	0		120	24.0	2.5	/experiments/knapen_AOT/AOT_stimuli/rescaled_final/1460_rv.mp4	0.0	217.13777589797974	1.000154972076416
26	189.8376190662384	pulse	0	t		24.0	2.5	/experiments/knapen_AOT/AOT_stimuli/rescaled_final/1460_rv.mp4	0.0	218.12237095832825	
26	189.8531789779663	movie	1		246	24.0	2.5	/experiments/knapen_AOT/AOT_stimuli/rescaled_final/1460_rv.mp4	0.0	218.13793087005615	2.508671998977661
26	191.44576597213745	pulse	1	t		24.0	2.5	/experiments/knapen_AOT/AOT_stimuli/rescaled_final/1460_rv.mp4	0.0	219.7305178642273	
26	192.36185097694397	fix_post	2		12	24.0	2.5	/experiments/knapen_AOT/AOT_stimuli/rescaled_final/1460_rv.mp4	0.0	220.6466028690338	0.10001707077026367
27	192.46186804771423	fix_pre	0		120	25.0	2.5	/experiments/knapen_AOT/AOT_stimuli/rescaled_final/0888_rv.mp4	0.0	220.74661993980408	1.0001678466796875
27	193.03797698020935	pulse	0	t		25.0	2.5	/experiments/knapen_AOT/AOT_stimuli/rescaled_final/0888_rv.mp4	0.0	221.3227288722992	
27	193.46203589439392	movie	1		243	25.0	2.5	/experiments/knapen_AOT/AOT_stimuli/rescaled_final/0888_rv.mp4	0.0	221.74678778648376	2.5003840923309326
27	194.6459460258484	pulse	1	t		25.0	2.5	/experiments/knapen_AOT/AOT_stimuli/rescaled_final/0888_rv.mp4	0.0	222.93069791793823	
27	195.96241998672485	fix_post	2		12	25.0	2.5	/experiments/knapen_AOT/AOT_stimuli/rescaled_final/0888_rv.mp4	0.0	224.2471718788147	0.10005807876586914
28	196.06247806549072	fix_pre	0		120	26.0	2.5	blank	1.0	224.34722995758057	1.0000829696655273
28	196.23773503303528	pulse	0	t		26.0	2.5	blank	1.0	224.52248692512512	
28	197.06256103515625	movie	1		299	26.0	2.5	blank	1.0	225.3473129272461	2.4920618534088135
28	197.83789896965027	pulse	1	t		26.0	2.5	blank	1.0	226.1226508617401	
28	199.43816304206848	pulse	1	t		26.0	2.5	blank	1.0	227.72291493415833	
28	199.55462288856506	fix_post	2		12	26.0	2.5	blank	1.0	227.8393747806549	0.10000920295715332
29	199.65463209152222	fix_pre	0		120	27.0	2.5	/experiments/knapen_AOT/AOT_stimuli/rescaled_final/0457_rv.mp4	0.0	227.93938398361206	1.0001540184020996
29	200.65478610992432	movie	1		244	27.0	2.5	/experiments/knapen_AOT/AOT_stimuli/rescaled_final/0457_rv.mp4	0.0	228.93953800201416	2.500356912612915
29	201.03951692581177	pulse	1	t		27.0	2.5	/experiments/knapen_AOT/AOT_stimuli/rescaled_final/0457_rv.mp4	0.0	229.3242688179016	
29	202.63869404792786	pulse	1	t		27.0	2.5	/experiments/knapen_AOT/AOT_stimuli/rescaled_final/0457_rv.mp4	0.0	230.9234459400177	
29	203.15514302253723	fix_post	2		12	27.0	2.5	/experiments/knapen_AOT/AOT_stimuli/rescaled_final/0457_rv.mp4	0.0	231.43989491462708	0.10002589225769043
30	203.25516891479492	fix_pre	0		119	28.0	2.5	/experiments/knapen_AOT/AOT_stimuli/rescaled_final/1700_rv.mp4	0.0	231.53992080688477	0.9918191432952881
30	204.23883199691772	pulse	0	t		28.0	2.5	/experiments/knapen_AOT/AOT_stimuli/rescaled_final/1700_rv.mp4	0.0	232.52358388900757	
30	204.2469880580902	movie	1		244	28.0	2.5	/experiments/knapen_AOT/AOT_stimuli/rescaled_final/1700_rv.mp4	0.0	232.53173995018005	2.50869083404541
30	205.84057307243347	pulse	1	t		28.0	2.5	/experiments/knapen_AOT/AOT_stimuli/rescaled_final/1700_rv.mp4	0.0	234.12532496452332	
30	206.75567889213562	fix_post	2		12	28.0	2.5	/experiments/knapen_AOT/AOT_stimuli/rescaled_final/1700_rv.mp4	0.0	235.04043078422546	0.10000109672546387
31	206.85567998886108	fix_pre	0		120	29.0	2.5	/experiments/knapen_AOT/AOT_stimuli/rescaled_final/1449_fw.mp4	0.0	235.14043188095093	1.000201940536499
31	207.4393219947815	pulse	0	t		29.0	2.5	/experiments/knapen_AOT/AOT_stimuli/rescaled_final/1449_fw.mp4	0.0	235.72407388687134	
31	207.85588192939758	movie	1		245	29.0	2.5	/experiments/knapen_AOT/AOT_stimuli/rescaled_final/1449_fw.mp4	0.0	236.14063382148743	2.5003600120544434
31	209.03965592384338	pulse	1	t		29.0	2.5	/experiments/knapen_AOT/AOT_stimuli/rescaled_final/1449_fw.mp4	0.0	237.32440781593323	
31	210.35624194145203	fix_post	2		12	29.0	2.5	/experiments/knapen_AOT/AOT_stimuli/rescaled_final/1449_fw.mp4	0.0	238.64099383354187	0.10001301765441895
32	210.45625495910645	fix_pre	0		120	30.0	2.5	/experiments/knapen_AOT/AOT_stimuli/rescaled_final/1656_fw.mp4	0.0	238.7410068511963	1.0001161098480225
32	210.6399049758911	pulse	0	t		30.0	2.5	/experiments/knapen_AOT/AOT_stimuli/rescaled_final/1656_fw.mp4	0.0	238.92465686798096	
32	211.45637106895447	movie	1		243	30.0	2.5	/experiments/knapen_AOT/AOT_stimuli/rescaled_final/1656_fw.mp4	0.0	239.7411229610443	2.5003838539123535
32	212.24005103111267	pulse	1	t		30.0	2.5	/experiments/knapen_AOT/AOT_stimuli/rescaled_final/1656_fw.mp4	0.0	240.52480292320251	
32	213.84014296531677	pulse	1	t		30.0	2.5	/experiments/knapen_AOT/AOT_stimuli/rescaled_final/1656_fw.mp4	0.0	242.12489485740662	
32	213.95675492286682	fix_post	2		12	30.0	2.5	/experiments/knapen_AOT/AOT_stimuli/rescaled_final/1656_fw.mp4	0.0	242.24150681495667	0.10003304481506348
33	214.05678796768188	fix_pre	0		119	31.0	2.5	/experiments/knapen_AOT/AOT_stimuli/rescaled_final/1876_fw.mp4	0.0	242.34153985977173	0.9918620586395264
33	215.0486500263214	movie	1		244	31.0	2.5	/experiments/knapen_AOT/AOT_stimuli/rescaled_final/1876_fw.mp4	0.0	243.33340191841125	2.500330924987793
33	215.4406189918518	pulse	1	t		31.0	2.5	/experiments/knapen_AOT/AOT_stimuli/rescaled_final/1876_fw.mp4	0.0	243.72537088394165	
33	217.04077291488647	pulse	1	t		31.0	2.5	/experiments/knapen_AOT/AOT_stimuli/rescaled_final/1876_fw.mp4	0.0	245.32552480697632	
33	217.5489809513092	fix_post	2		12	31.0	2.5	/experiments/knapen_AOT/AOT_stimuli/rescaled_final/1876_fw.mp4	0.0	245.83373284339905	0.09999513626098633
34	217.6489760875702	fix_pre	0		120	32.0	2.5	/experiments/knapen_AOT/AOT_stimuli/rescaled_final/1485_fw.mp4	0.0	245.93372797966003	1.0001327991485596
34	218.640939950943	pulse	0	t		32.0	2.5	/experiments/knapen_AOT/AOT_stimuli/rescaled_final/1485_fw.mp4	0.0	246.92569184303284	
34	218.64910888671875	movie	1		245	32.0	2.5	/experiments/knapen_AOT/AOT_stimuli/rescaled_final/1485_fw.mp4	0.0	246.9338607788086	2.508721113204956
34	220.2418110370636	pulse	1	t		32.0	2.5	/experiments/knapen_AOT/AOT_stimuli/rescaled_final/1485_fw.mp4	0.0	248.52656292915344	
34	221.1578299999237	fix_post	2		12	32.0	2.5	/experiments/knapen_AOT/AOT_stimuli/rescaled_final/1485_fw.mp4	0.0	249.44258189201355	0.10001111030578613
35	221.2578411102295	fix_pre	0		120	33.0	2.5	/experiments/knapen_AOT/AOT_stimuli/rescaled_final/1093_fw.mp4	0.0	249.54259300231934	1.0001938343048096
35	221.84154796600342	pulse	0	t		33.0	2.5	/experiments/knapen_AOT/AOT_stimuli/rescaled_final/1093_fw.mp4	0.0	250.12629985809326	
35	222.2580349445343	movie	1		242	33.0	2.5	/experiments/knapen_AOT/AOT_stimuli/rescaled_final/1093_fw.mp4	0.0	250.54278683662415	2.50032114982605
35	223.44191908836365	pulse	1	t		33.0	2.5	/experiments/knapen_AOT/AOT_stimuli/rescaled_final/1093_fw.mp4	0.0	251.7266709804535	
35	224.75835609436035	fix_post	2		12	33.0	2.5	/experiments/knapen_AOT/AOT_stimuli/rescaled_final/1093_fw.mp4	0.0	253.0431079864502	0.10001993179321289
36	224.85837602615356	fix_pre	0		120	34.0	2.5	blank	1.0	253.1431279182434	1.0001630783081055
36	225.04196000099182	pulse	0	t		34.0	2.5	blank	1.0	253.32671189308167	
36	225.85853910446167	movie	1		300	34.0	2.5	blank	1.0	254.1432909965515	2.500377893447876
36	226.6422278881073	pulse	1	t		34.0	2.5	blank	1.0	254.92697978019714	
36	228.24241304397583	pulse	1	t		34.0	2.5	blank	1.0	256.5271649360657	
36	228.35891699790955	fix_post	2		12	34.0	2.5	blank	1.0	256.6436688899994	0.10007405281066895
37	228.45899105072021	fix_pre	0		120	35.0	2.5	/experiments/knapen_AOT/AOT_stimuli/rescaled_final/2052_fw.mp4	0.0	256.74374294281006	1.000114917755127
37	229.45910596847534	movie	1		243	35.0	2.5	/experiments/knapen_AOT/AOT_stimuli/rescaled_final/2052_fw.mp4	0.0	257.7438578605652	2.492043972015381
37	229.84782195091248	pulse	1	t		35.0	2.5	/experiments/knapen_AOT/AOT_stimuli/rescaled_final/2052_fw.mp4	0.0	258.1325738430023	
37	231.44287490844727	pulse	1	t		35.0	2.5	/experiments/knapen_AOT/AOT_stimuli/rescaled_final/2052_fw.mp4	0.0	259.7276268005371	
37	231.95114994049072	fix_post	2		12	35.0	2.5	/experiments/knapen_AOT/AOT_stimuli/rescaled_final/2052_fw.mp4	0.0	260.23590183258057	0.09999704360961914
38	232.05114698410034	fix_pre	0		120	36.0	2.5	/experiments/knapen_AOT/AOT_stimuli/rescaled_final/1375_fw.mp4	0.0	260.3358988761902	1.0001220703125
38	233.04318809509277	pulse	0	t		36.0	2.5	/experiments/knapen_AOT/AOT_stimuli/rescaled_final/1375_fw.mp4	0.0	261.3279399871826	
38	233.05126905441284	movie	1		244	36.0	2.5	/experiments/knapen_AOT/AOT_stimuli/rescaled_final/1375_fw.mp4	0.0	261.3360209465027	2.508687973022461
38	234.64489793777466	pulse	1	t		36.0	2.5	/experiments/knapen_AOT/AOT_stimuli/rescaled_final/1375_fw.mp4	0.0	262.9296498298645	
38	235.5599570274353	fix_post	2		12	36.0	2.5	/experiments/knapen_AOT/AOT_stimuli/rescaled_final/1375_fw.mp4	0.0	263.84470891952515	0.10004186630249023
39	235.6599988937378	fix_pre	0		120	37.0	2.5	/experiments/knapen_AOT/AOT_stimuli/rescaled_final/1750_rv.mp4	0.0	263.94475078582764	1.0001811981201172
39	236.2436239719391	pulse	0	t		37.0	2.5	/experiments/knapen_AOT/AOT_stimuli/rescaled_final/1750_rv.mp4	0.0	264.52837586402893	
39	236.6601800918579	movie	1		245	37.0	2.5	/experiments/knapen_AOT/AOT_stimuli/rescaled_final/1750_rv.mp4	0.0	264.94493198394775	2.500335931777954
39	237.84393405914307	pulse	1	t		37.0	2.5	/experiments/knapen_AOT/AOT_stimuli/rescaled_final/1750_rv.mp4	0.0	266.1286859512329	
39	239.16051602363586	fix_post	2		12	37.0	2.5	/experiments/knapen_AOT/AOT_stimuli/rescaled_final/1750_rv.mp4	0.0	267.4452679157257	0.10005402565002441
40	239.2605700492859	fix_pre	0		120	38.0	2.5	/experiments/knapen_AOT/AOT_stimuli/rescaled_final/1826_rv.mp4	0.0	267.54532194137573	1.000140905380249
40	239.44413900375366	pulse	0	t		38.0	2.5	/experiments/knapen_AOT/AOT_stimuli/rescaled_final/1826_rv.mp4	0.0	267.7288908958435	
40	240.26071095466614	movie	1		244	38.0	2.5	/experiments/knapen_AOT/AOT_stimuli/rescaled_final/1826_rv.mp4	0.0	268.545462846756	2.5003480911254883
40	241.04446005821228	pulse	1	t		38.0	2.5	/experiments/knapen_AOT/AOT_stimuli/rescaled_final/1826_rv.mp4	0.0	269.3292119503021	
40	242.64211106300354	pulse	1	t		38.0	2.5	/experiments/knapen_AOT/AOT_stimuli/rescaled_final/1826_rv.mp4	0.0	270.9268629550934	
40	242.76105904579163	fix_post	2		12	38.0	2.5	/experiments/knapen_AOT/AOT_stimuli/rescaled_final/1826_rv.mp4	0.0	271.04581093788147	0.10001087188720703
41	242.86106991767883	fix_pre	0		120	39.0	2.5	/experiments/knapen_AOT/AOT_stimuli/rescaled_final/1688_fw.mp4	0.0	271.1458218097687	1.0001561641693115
41	243.86122608184814	movie	1		243	39.0	2.5	/experiments/knapen_AOT/AOT_stimuli/rescaled_final/1688_fw.mp4	0.0	272.145977973938	2.4920248985290527
41	244.24951910972595	pulse	1	t		39.0	2.5	/experiments/knapen_AOT/AOT_stimuli/rescaled_final/1688_fw.mp4	0.0	272.5342710018158	
41	245.8376669883728	pulse	1	t		39.0	2.5	/experiments/knapen_AOT/AOT_stimuli/rescaled_final/1688_fw.mp4	0.0	274.12241888046265	
41	246.3532509803772	fix_post	2		12	39.0	2.5	/experiments/knapen_AOT/AOT_stimuli/rescaled_final/1688_fw.mp4	0.0	274.63800287246704	0.10005998611450195
42	246.4533109664917	fix_pre	0		120	40.0	2.5	blank	1.0	274.73806285858154	1.0000910758972168
42	247.43773889541626	pulse	0	t		40.0	2.5	blank	1.0	275.7224907875061	
42	247.45340204238892	movie	1		301	40.0	2.5	blank	1.0	275.73815393447876	2.508769989013672
42	249.0379660129547	pulse	1	t		40.0	2.5	blank	1.0	277.32271790504456	
42	249.9621720314026	fix_post	2		12	40.0	2.5	blank	1.0	278.24692392349243	0.09996700286865234
43	250.06213903427124	fix_pre	0		120	41.0	2.5	/experiments/knapen_AOT/AOT_stimuli/rescaled_final/0311_fw.mp4	0.0	278.3468909263611	1.0001800060272217
43	250.6375970840454	pulse	0	t		41.0	2.5	/experiments/knapen_AOT/AOT_stimuli/rescaled_final/0311_fw.mp4	0.0	278.92234897613525	
43	251.06231904029846	movie	1		243	41.0	2.5	/experiments/knapen_AOT/AOT_stimuli/rescaled_final/0311_fw.mp4	0.0	279.3470709323883	2.5003440380096436
43	252.23845195770264	pulse	1	t		41.0	2.5	/experiments/knapen_AOT/AOT_stimuli/rescaled_final/0311_fw.mp4	0.0	280.5232038497925	
43	253.5626630783081	fix_post	2		12	41.0	2.5	/experiments/knapen_AOT/AOT_stimuli/rescaled_final/0311_fw.mp4	0.0	281.84741497039795	0.10001492500305176
44	253.66267800331116	fix_pre	0		120	42.0	2.5	/experiments/knapen_AOT/AOT_stimuli/rescaled_final/0433_fw.mp4	0.0	281.947429895401	1.0001490116119385
44	253.83791589736938	pulse	0	t		42.0	2.5	/experiments/knapen_AOT/AOT_stimuli/rescaled_final/0433_fw.mp4	0.0	282.12266778945923	
44	254.6628270149231	movie	1		244	42.0	2.5	/experiments/knapen_AOT/AOT_stimuli/rescaled_final/0433_fw.mp4	0.0	282.94757890701294	2.5003740787506104
44	255.43812203407288	pulse	1	t		42.0	2.5	/experiments/knapen_AOT/AOT_stimuli/rescaled_final/0433_fw.mp4	0.0	283.7228739261627	
44	257.0384340286255	pulse	1	t		42.0	2.5	/experiments/knapen_AOT/AOT_stimuli/rescaled_final/0433_fw.mp4	0.0	285.32318592071533	
44	257.1632010936737	fix_post	2		12	42.0	2.5	/experiments/knapen_AOT/AOT_stimuli/rescaled_final/0433_fw.mp4	0.0	285.44795298576355	0.10001778602600098
45	257.2632188796997	fix_pre	0		120	43.0	2.5	/experiments/knapen_AOT/AOT_stimuli/rescaled_final/1972_fw.mp4	0.0	285.54797077178955	1.00018310546875
45	258.26340198516846	movie	1		244	43.0	2.5	/experiments/knapen_AOT/AOT_stimuli/rescaled_final/1972_fw.mp4	0.0	286.5481538772583	2.4920361042022705
45	258.638689994812	pulse	1	t		43.0	2.5	/experiments/knapen_AOT/AOT_stimuli/rescaled_final/1972_fw.mp4	0.0	286.92344188690186	
45	260.2389249801636	pulse	1	t		43.0	2.5	/experiments/knapen_AOT/AOT_stimuli/rescaled_final/1972_fw.mp4	0.0	288.5236768722534	
45	260.7554380893707	fix_post	2		12	43.0	2.5	/experiments/knapen_AOT/AOT_stimuli/rescaled_final/1972_fw.mp4	0.0	289.04018998146057	0.09999799728393555
46	260.85543608665466	fix_pre	0		119	44.0	2.5	/experiments/knapen_AOT/AOT_stimuli/rescaled_final/0017_rv.mp4	0.0	289.1401879787445	0.9918179512023926
46	261.83919310569763	pulse	0	t		44.0	2.5	/experiments/knapen_AOT/AOT_stimuli/rescaled_final/0017_rv.mp4	0.0	290.1239449977875	
46	261.84725403785706	movie	1		246	44.0	2.5	/experiments/knapen_AOT/AOT_stimuli/rescaled_final/0017_rv.mp4	0.0	290.1320059299469	2.5087718963623047
46	263.4398400783539	pulse	1	t		44.0	2.5	/experiments/knapen_AOT/AOT_stimuli/rescaled_final/0017_rv.mp4	0.0	291.7245919704437	
46	264.35602593421936	fix_post	2		12	44.0	2.5	/experiments/knapen_AOT/AOT_stimuli/rescaled_final/0017_rv.mp4	0.0	292.6407778263092	0.0999600887298584
47	264.4559860229492	fix_pre	0		120	45.0	2.5	/experiments/knapen_AOT/AOT_stimuli/rescaled_final/0139_rv.mp4	0.0	292.74073791503906	1.0001659393310547
47	265.03966307640076	pulse	0	t		45.0	2.5	/experiments/knapen_AOT/AOT_stimuli/rescaled_final/0139_rv.mp4	0.0	293.3244149684906	
47	265.4561519622803	movie	1		243	45.0	2.5	/experiments/knapen_AOT/AOT_stimuli/rescaled_final/0139_rv.mp4	0.0	293.7409038543701	2.500312089920044
47	266.6399550437927	pulse	1	t		45.0	2.5	/experiments/knapen_AOT/AOT_stimuli/rescaled_final/0139_rv.mp4	0.0	294.92470693588257	
47	267.9564640522003	fix_post	2		12	45.0	2.5	/experiments/knapen_AOT/AOT_stimuli/rescaled_final/0139_rv.mp4	0.0	296.24121594429016	0.10005497932434082
48	268.05651903152466	fix_pre	0		120	46.0	2.5	/experiments/knapen_AOT/AOT_stimuli/rescaled_final/1750_fw.mp4	0.0	296.3412709236145	1.0001029968261719
48	268.24006700515747	pulse	0	t		46.0	2.5	/experiments/knapen_AOT/AOT_stimuli/rescaled_final/1750_fw.mp4	0.0	296.5248188972473	
48	269.05662202835083	movie	1		245	46.0	2.5	/experiments/knapen_AOT/AOT_stimuli/rescaled_final/1750_fw.mp4	0.0	297.3413739204407	2.5004220008850098
48	269.8404219150543	pulse	1	t		46.0	2.5	/experiments/knapen_AOT/AOT_stimuli/rescaled_final/1750_fw.mp4	0.0	298.12517380714417	
48	271.44066309928894	pulse	1	t		46.0	2.5	/experiments/knapen_AOT/AOT_stimuli/rescaled_final/1750_fw.mp4	0.0	299.7254149913788	
48	271.55704402923584	fix_post	2		12	46.0	2.5	/experiments/knapen_AOT/AOT_stimuli/rescaled_final/1750_fw.mp4	0.0	299.8417959213257	0.10001492500305176
49	271.6570589542389	fix_pre	0		120	47.0	2.5	/experiments/knapen_AOT/AOT_stimuli/rescaled_final/1970_rv.mp4	0.0	299.94181084632874	1.000119924545288
49	272.6571788787842	movie	1		244	47.0	2.5	/experiments/knapen_AOT/AOT_stimuli/rescaled_final/1970_rv.mp4	0.0	300.941930770874	2.4920361042022705
49	273.045373916626	pulse	1	t		47.0	2.5	/experiments/knapen_AOT/AOT_stimuli/rescaled_final/1970_rv.mp4	0.0	301.3301258087158	
49	274.64095997810364	pulse	1	t		47.0	2.5	/experiments/knapen_AOT/AOT_stimuli/rescaled_final/1970_rv.mp4	0.0	302.9257118701935	
49	275.14921498298645	fix_post	2		12	47.0	2.5	/experiments/knapen_AOT/AOT_stimuli/rescaled_final/1970_rv.mp4	0.0	303.4339668750763	0.10002493858337402
50	275.2492399215698	fix_pre	0		120	48.0	2.5	blank	1.0	303.53399181365967	1.0001239776611328
50	276.2412838935852	pulse	0	t		48.0	2.5	blank	1.0	304.52603578567505	
50	276.24936389923096	movie	1		301	48.0	2.5	blank	1.0	304.5341157913208	2.5087411403656006
50	277.84163093566895	pulse	1	t		48.0	2.5	blank	1.0	306.1263828277588	
50	278.75810503959656	fix_post	2		12	48.0	2.5	blank	1.0	307.0428569316864	0.10001897811889648
51	278.85812401771545	fix_pre	0		120	49.0	2.5	/experiments/knapen_AOT/AOT_stimuli/rescaled_final/1170_rv.mp4	0.0	307.1428759098053	1.000133991241455
51	279.44177198410034	pulse	0	t		49.0	2.5	/experiments/knapen_AOT/AOT_stimuli/rescaled_final/1170_rv.mp4	0.0	307.7265238761902	
51	279.8582580089569	movie	1		244	49.0	2.5	/experiments/knapen_AOT/AOT_stimuli/rescaled_final/1170_rv.mp4	0.0	308.14300990104675	2.5003769397735596
51	281.04200506210327	pulse	1	t		49.0	2.5	/experiments/knapen_AOT/AOT_stimuli/rescaled_final/1170_rv.mp4	0.0	309.3267569541931	
51	282.35863494873047	fix_post	2		12	49.0	2.5	/experiments/knapen_AOT/AOT_stimuli/rescaled_final/1170_rv.mp4	0.0	310.6433868408203	0.10002493858337402
52	282.45865988731384	fix_pre	0		120	50.0	2.5	/experiments/knapen_AOT/AOT_stimuli/rescaled_final/0770_rv.mp4	0.0	310.7434117794037	1.0001370906829834
52	282.64219188690186	pulse	0	t		50.0	2.5	/experiments/knapen_AOT/AOT_stimuli/rescaled_final/0770_rv.mp4	0.0	310.9269437789917	
52	283.4587969779968	movie	1		242	50.0	2.5	/experiments/knapen_AOT/AOT_stimuli/rescaled_final/0770_rv.mp4	0.0	311.74354887008667	2.5003480911254883
52	284.2426130771637	pulse	1	t		50.0	2.5	/experiments/knapen_AOT/AOT_stimuli/rescaled_final/0770_rv.mp4	0.0	312.52736496925354	
52	285.842649936676	pulse	1	t		50.0	2.5	/experiments/knapen_AOT/AOT_stimuli/rescaled_final/0770_rv.mp4	0.0	314.12740182876587	
52	285.9591450691223	fix_post	2		12	50.0	2.5	/experiments/knapen_AOT/AOT_stimuli/rescaled_final/0770_rv.mp4	0.0	314.24389696121216	0.10008883476257324
53	286.0592339038849	fix_pre	0		120	51.0	2.5	/experiments/knapen_AOT/AOT_stimuli/rescaled_final/0162_fw.mp4	0.0	314.34398579597473	1.0001051425933838
53	287.05933904647827	movie	1		243	51.0	2.5	/experiments/knapen_AOT/AOT_stimuli/rescaled_final/0162_fw.mp4	0.0	315.3440909385681	2.492025852203369
53	287.4442689418793	pulse	1	t		51.0	2.5	/experiments/knapen_AOT/AOT_stimuli/rescaled_final/0162_fw.mp4	0.0	315.7290208339691	
53	289.04321789741516	pulse	1	t		51.0	2.5	/experiments/knapen_AOT/AOT_stimuli/rescaled_final/0162_fw.mp4	0.0	317.327969789505	
53	289.55136489868164	fix_post	2		12	51.0	2.5	/experiments/knapen_AOT/AOT_stimuli/rescaled_final/0162_fw.mp4	0.0	317.8361167907715	0.09999704360961914
54	289.65136194229126	fix_pre	0		120	52.0	2.5	/experiments/knapen_AOT/AOT_stimuli/rescaled_final/1283_rv.mp4	0.0	317.9361138343811	1.0001461505889893
54	290.64353799819946	pulse	0	t		52.0	2.5	/experiments/knapen_AOT/AOT_stimuli/rescaled_final/1283_rv.mp4	0.0	318.9282898902893	
54	290.65150809288025	movie	1		244	52.0	2.5	/experiments/knapen_AOT/AOT_stimuli/rescaled_final/1283_rv.mp4	0.0	318.9362599849701	2.50875186920166
54	292.2441339492798	pulse	1	t		52.0	2.5	/experiments/knapen_AOT/AOT_stimuli/rescaled_final/1283_rv.mp4	0.0	320.52888584136963	
54	293.1602599620819	fix_post	2		12	52.0	2.5	/experiments/knapen_AOT/AOT_stimuli/rescaled_final/1283_rv.mp4	0.0	321.44501185417175	0.09997797012329102
55	293.2602379322052	fix_pre	0		120	53.0	2.5	/experiments/knapen_AOT/AOT_stimuli/rescaled_final/1621_fw.mp4	0.0	321.54498982429504	1.0001521110534668
55	293.8438398838043	pulse	0	t		53.0	2.5	/experiments/knapen_AOT/AOT_stimuli/rescaled_final/1621_fw.mp4	0.0	322.12859177589417	
55	294.26039004325867	movie	1		243	53.0	2.5	/experiments/knapen_AOT/AOT_stimuli/rescaled_final/1621_fw.mp4	0.0	322.5451419353485	2.500398874282837
55	295.4371008872986	pulse	1	t		53.0	2.5	/experiments/knapen_AOT/AOT_stimuli/rescaled_final/1621_fw.mp4	0.0	323.7218527793884	
55	296.7607889175415	fix_post	2		12	53.0	2.5	/experiments/knapen_AOT/AOT_stimuli/rescaled_final/1621_fw.mp4	0.0	325.04554080963135	0.10002899169921875
56	296.8608179092407	fix_pre	0		120	54.0	2.5	blank	1.0	325.14556980133057	1.0001170635223389
56	297.04430508613586	pulse	0	t		54.0	2.5	blank	1.0	325.3290569782257	
56	297.86093497276306	movie	1		300	54.0	2.5	blank	1.0	326.1456868648529	2.5003819465637207
56	298.6372330188751	pulse	1	t		54.0	2.5	blank	1.0	326.92198491096497	
56	300.2373809814453	pulse	1	t		54.0	2.5	blank	1.0	328.52213287353516	
56	300.3613169193268	fix_post	2		12	54.0	2.5	blank	1.0	328.6460688114166	0.10004210472106934
57	300.46135902404785	fix_pre	0		120	55.0	2.5	/experiments/knapen_AOT/AOT_stimuli/rescaled_final/1329_rv.mp4	0.0	328.7461109161377	1.0000879764556885
57	301.46144700050354	movie	1		242	55.0	2.5	/experiments/knapen_AOT/AOT_stimuli/rescaled_final/1329_rv.mp4	0.0	329.7461988925934	2.492053985595703
57	301.8456039428711	pulse	1	t		55.0	2.5	/experiments/knapen_AOT/AOT_stimuli/rescaled_final/1329_rv.mp4	0.0	330.13035583496094	
57	303.437952041626	pulse	1	t		55.0	2.5	/experiments/knapen_AOT/AOT_stimuli/rescaled_final/1329_rv.mp4	0.0	331.7227039337158	
57	303.95350098609924	fix_post	2		12	55.0	2.5	/experiments/knapen_AOT/AOT_stimuli/rescaled_final/1329_rv.mp4	0.0	332.2382528781891	0.10001993179321289
58	304.05352091789246	fix_pre	0		119	56.0	2.5	/experiments/knapen_AOT/AOT_stimuli/rescaled_final/0770_fw.mp4	0.0	332.3382728099823	0.9918370246887207
58	305.03712606430054	pulse	0	t		56.0	2.5	/experiments/knapen_AOT/AOT_stimuli/rescaled_final/0770_fw.mp4	0.0	333.3218779563904	
58	305.0453579425812	movie	1		245	56.0	2.5	/experiments/knapen_AOT/AOT_stimuli/rescaled_final/0770_fw.mp4	0.0	333.330109834671	2.508665084838867
58	306.64198899269104	pulse	1	t		56.0	2.5	/experiments/knapen_AOT/AOT_stimuli/rescaled_final/0770_fw.mp4	0.0	334.9267408847809	
58	307.55402302742004	fix_post	2		12	56.0	2.5	/experiments/knapen_AOT/AOT_stimuli/rescaled_final/0770_fw.mp4	0.0	335.8387749195099	0.10004591941833496
59	307.6540689468384	fix_pre	0		120	57.0	2.5	/experiments/knapen_AOT/AOT_stimuli/rescaled_final/2114_fw.mp4	0.0	335.9388208389282	1.0001540184020996
59	308.2377769947052	pulse	0	t		57.0	2.5	/experiments/knapen_AOT/AOT_stimuli/rescaled_final/2114_fw.mp4	0.0	336.52252888679504	
59	308.6542229652405	movie	1		245	57.0	2.5	/experiments/knapen_AOT/AOT_stimuli/rescaled_final/2114_fw.mp4	0.0	336.9389748573303	2.50039005279541
59	309.8379919528961	pulse	1	t		57.0	2.5	/experiments/knapen_AOT/AOT_stimuli/rescaled_final/2114_fw.mp4	0.0	338.12274384498596	
59	311.1546130180359	fix_post	2		12	57.0	2.5	/experiments/knapen_AOT/AOT_stimuli/rescaled_final/2114_fw.mp4	0.0	339.43936491012573	0.09997987747192383
60	311.2545928955078	fix_pre	0		120	58.0	2.5	/experiments/knapen_AOT/AOT_stimuli/rescaled_final/1889_rv.mp4	0.0	339.53934478759766	1.0001840591430664
60	311.43825697898865	pulse	0	t		58.0	2.5	/experiments/knapen_AOT/AOT_stimuli/rescaled_final/1889_rv.mp4	0.0	339.7230088710785	
60	312.2547769546509	movie	1		244	58.0	2.5	/experiments/knapen_AOT/AOT_stimuli/rescaled_final/1889_rv.mp4	0.0	340.5395288467407	2.5004260540008545
60	313.0383999347687	pulse	1	t		58.0	2.5	/experiments/knapen_AOT/AOT_stimuli/rescaled_final/1889_rv.mp4	0.0	341.3231518268585	
60	314.6388339996338	pulse	1	t		58.0	2.5	/experiments/knapen_AOT/AOT_stimuli/rescaled_final/1889_rv.mp4	0.0	342.92358589172363	
60	314.75520300865173	fix_post	2		12	58.0	2.5	/experiments/knapen_AOT/AOT_stimuli/rescaled_final/1889_rv.mp4	0.0	343.0399549007416	0.09990692138671875
61	314.85510993003845	fix_pre	0		120	59.0	2.5	/experiments/knapen_AOT/AOT_stimuli/rescaled_final/0830_rv.mp4	0.0	343.1398618221283	1.0001859664916992
61	315.85529589653015	movie	1		243	59.0	2.5	/experiments/knapen_AOT/AOT_stimuli/rescaled_final/0830_rv.mp4	0.0	344.14004778862	2.4920191764831543
61	316.23944091796875	pulse	1	t		59.0	2.5	/experiments/knapen_AOT/AOT_stimuli/rescaled_final/0830_rv.mp4	0.0	344.5241928100586	
61	317.83916306495667	pulse	1	t		59.0	2.5	/experiments/knapen_AOT/AOT_stimuli/rescaled_final/0830_rv.mp4	0.0	346.1239149570465	
61	318.3473150730133	fix_post	2		12	59.0	2.5	/experiments/knapen_AOT/AOT_stimuli/rescaled_final/0830_rv.mp4	0.0	346.63206696510315	0.10003900527954102
62	318.44735407829285	fix_pre	0		120	60.0	2.5	/experiments/knapen_AOT/AOT_stimuli/rescaled_final/0512_rv.mp4	0.0	346.7321059703827	1.0001559257507324
62	319.4393789768219	pulse	0	t		60.0	2.5	/experiments/knapen_AOT/AOT_stimuli/rescaled_final/0512_rv.mp4	0.0	347.72413086891174	
62	319.4475100040436	movie	1		245	60.0	2.5	/experiments/knapen_AOT/AOT_stimuli/rescaled_final/0512_rv.mp4	0.0	347.7322618961334	2.5086750984191895
62	321.04022002220154	pulse	1	t		60.0	2.5	/experiments/knapen_AOT/AOT_stimuli/rescaled_final/0512_rv.mp4	0.0	349.3249719142914	
62	321.95618510246277	fix_post	2		12	60.0	2.5	/experiments/knapen_AOT/AOT_stimuli/rescaled_final/0512_rv.mp4	0.0	350.2409369945526	0.10001683235168457
63	322.05620193481445	fix_pre	0		120	61.0	2.5	/experiments/knapen_AOT/AOT_stimuli/rescaled_final/1842_fw.mp4	0.0	350.3409538269043	1.0001630783081055
63	322.6398310661316	pulse	0	t		61.0	2.5	/experiments/knapen_AOT/AOT_stimuli/rescaled_final/1842_fw.mp4	0.0	350.92458295822144	
63	323.05636501312256	movie	1		243	61.0	2.5	/experiments/knapen_AOT/AOT_stimuli/rescaled_final/1842_fw.mp4	0.0	351.3411169052124	2.5003650188446045
63	324.2402079105377	pulse	1	t		61.0	2.5	/experiments/knapen_AOT/AOT_stimuli/rescaled_final/1842_fw.mp4	0.0	352.52495980262756	
63	325.55673003196716	fix_post	2		12	61.0	2.5	/experiments/knapen_AOT/AOT_stimuli/rescaled_final/1842_fw.mp4	0.0	353.841481924057	0.10004901885986328
64	325.656779050827	fix_pre	0		120	62.0	2.5	/experiments/knapen_AOT/AOT_stimuli/rescaled_final/1007_fw.mp4	0.0	353.94153094291687	1.0001168251037598
64	325.84036588668823	pulse	0	t		62.0	2.5	/experiments/knapen_AOT/AOT_stimuli/rescaled_final/1007_fw.mp4	0.0	354.1251177787781	
64	326.6568958759308	movie	1		245	62.0	2.5	/experiments/knapen_AOT/AOT_stimuli/rescaled_final/1007_fw.mp4	0.0	354.94164776802063	2.5004000663757324
64	327.4405550956726	pulse	1	t		62.0	2.5	/experiments/knapen_AOT/AOT_stimuli/rescaled_final/1007_fw.mp4	0.0	355.72530698776245	
64	329.0383679866791	pulse	1	t		62.0	2.5	/experiments/knapen_AOT/AOT_stimuli/rescaled_final/1007_fw.mp4	0.0	357.3231198787689	
64	329.1572959423065	fix_post	2		12	62.0	2.5	/experiments/knapen_AOT/AOT_stimuli/rescaled_final/1007_fw.mp4	0.0	357.44204783439636	0.10004401206970215
65	329.2573399543762	fix_pre	0		120	63.0	2.5	blank	1.0	357.54209184646606	1.000101089477539
65	330.25744104385376	movie	1		299	63.0	2.5	blank	1.0	358.5421929359436	2.492086887359619
65	330.6410210132599	pulse	1	t		63.0	2.5	blank	1.0	358.92577290534973	
65	332.2412860393524	pulse	1	t		63.0	2.5	blank	1.0	360.52603793144226	
65	332.7495279312134	fix_post	2		12	63.0	2.5	blank	1.0	361.0342798233032	0.09996414184570312
66	332.8494920730591	fix_pre	0		120	64.0	2.5	/experiments/knapen_AOT/AOT_stimuli/rescaled_final/0234_rv.mp4	0.0	361.1342439651489	1.000152826309204
66	333.84155201911926	pulse	0	t		64.0	2.5	/experiments/knapen_AOT/AOT_stimuli/rescaled_final/0234_rv.mp4	0.0	362.1263039112091	
66	333.8496448993683	movie	1		245	64.0	2.5	/experiments/knapen_AOT/AOT_stimuli/rescaled_final/0234_rv.mp4	0.0	362.13439679145813	2.5086700916290283
66	335.44629287719727	pulse	1	t		64.0	2.5	/experiments/knapen_AOT/AOT_stimuli/rescaled_final/0234_rv.mp4	0.0	363.7310447692871	
66	336.3583149909973	fix_post	2		12	64.0	2.5	/experiments/knapen_AOT/AOT_stimuli/rescaled_final/0234_rv.mp4	0.0	364.64306688308716	0.10007309913635254
67	336.45838809013367	fix_pre	0		120	65.0	2.5	/experiments/knapen_AOT/AOT_stimuli/rescaled_final/0955_rv.mp4	0.0	364.7431399822235	1.000121831893921
67	337.04202795028687	pulse	0	t		65.0	2.5	/experiments/knapen_AOT/AOT_stimuli/rescaled_final/0955_rv.mp4	0.0	365.3267798423767	
67	337.4585099220276	movie	1		243	65.0	2.5	/experiments/knapen_AOT/AOT_stimuli/rescaled_final/0955_rv.mp4	0.0	365.74326181411743	2.5003600120544434
67	338.6381061077118	pulse	1	t		65.0	2.5	/experiments/knapen_AOT/AOT_stimuli/rescaled_final/0955_rv.mp4	0.0	366.92285799980164	
67	339.95886993408203	fix_post	2		12	65.0	2.5	/experiments/knapen_AOT/AOT_stimuli/rescaled_final/0955_rv.mp4	0.0	368.2436218261719	0.10001802444458008
68	340.0588879585266	fix_pre	0		120	66.0	2.5	/experiments/knapen_AOT/AOT_stimuli/rescaled_final/0413_rv.mp4	0.0	368.34363985061646	1.0001699924468994
68	340.2425570487976	pulse	0	t		66.0	2.5	/experiments/knapen_AOT/AOT_stimuli/rescaled_final/0413_rv.mp4	0.0	368.52730894088745	
68	341.0590579509735	movie	1		241	66.0	2.5	/experiments/knapen_AOT/AOT_stimuli/rescaled_final/0413_rv.mp4	0.0	369.34380984306335	2.4921720027923584
68	341.8427140712738	pulse	1	t		66.0	2.5	/experiments/knapen_AOT/AOT_stimuli/rescaled_final/0413_rv.mp4	0.0	370.12746596336365	
68	343.4444749355316	pulse	1	t		66.0	2.5	/experiments/knapen_AOT/AOT_stimuli/rescaled_final/0413_rv.mp4	0.0	371.72922682762146	
68	343.55122995376587	fix_post	2		13	66.0	2.5	/experiments/knapen_AOT/AOT_stimuli/rescaled_final/0413_rv.mp4	0.0	371.8359818458557	0.10820293426513672
69	343.659432888031	fix_pre	0		120	67.0	2.5	/experiments/knapen_AOT/AOT_stimuli/rescaled_final/0035_fw.mp4	0.0	371.94418478012085	1.0001490116119385
69	344.65958189964294	movie	1		243	67.0	2.5	/experiments/knapen_AOT/AOT_stimuli/rescaled_final/0035_fw.mp4	0.0	372.9443337917328	2.492056131362915
69	345.0435800552368	pulse	1	t		67.0	2.5	/experiments/knapen_AOT/AOT_stimuli/rescaled_final/0035_fw.mp4	0.0	373.32833194732666	
69	346.64344596862793	pulse	1	t		67.0	2.5	/experiments/knapen_AOT/AOT_stimuli/rescaled_final/0035_fw.mp4	0.0	374.9281978607178	
69	347.15163803100586	fix_post	2		12	67.0	2.5	/experiments/knapen_AOT/AOT_stimuli/rescaled_final/0035_fw.mp4	0.0	375.4363899230957	0.1000070571899414
70	347.2516450881958	fix_pre	0		120	68.0	2.5	blank	1.0	375.53639698028564	1.000133991241455
70	348.243684053421	pulse	0	t		68.0	2.5	blank	1.0	376.52843594551086	
70	348.25177907943726	movie	1		301	68.0	2.5	blank	1.0	376.5365309715271	2.5087368488311768
70	349.84385800361633	pulse	1	t		68.0	2.5	blank	1.0	378.1286098957062	
70	350.76051592826843	fix_post	2		12	68.0	2.5	blank	1.0	379.0452678203583	0.09999513626098633
71	350.8605110645294	fix_pre	0		120	69.0	2.5	/experiments/knapen_AOT/AOT_stimuli/rescaled_final/0414_rv.mp4	0.0	379.14526295661926	1.0001568794250488
71	351.44429302215576	pulse	0	t		69.0	2.5	/experiments/knapen_AOT/AOT_stimuli/rescaled_final/0414_rv.mp4	0.0	379.7290449142456	
71	351.86066794395447	movie	1		243	69.0	2.5	/experiments/knapen_AOT/AOT_stimuli/rescaled_final/0414_rv.mp4	0.0	380.1454198360443	2.5004241466522217
71	353.040158033371	pulse	1	t		69.0	2.5	/experiments/knapen_AOT/AOT_stimuli/rescaled_final/0414_rv.mp4	0.0	381.3249099254608	
71	354.3610920906067	fix_post	2		12	69.0	2.5	/experiments/knapen_AOT/AOT_stimuli/rescaled_final/0414_rv.mp4	0.0	382.64584398269653	0.0999898910522461
72	354.46108198165894	fix_pre	0		120	70.0	2.5	/experiments/knapen_AOT/AOT_stimuli/rescaled_final/1544_fw.mp4	0.0	382.7458338737488	1.0001399517059326
72	354.6446669101715	pulse	0	t		70.0	2.5	/experiments/knapen_AOT/AOT_stimuli/rescaled_final/1544_fw.mp4	0.0	382.92941880226135	
72	355.46122193336487	movie	1		244	70.0	2.5	/experiments/knapen_AOT/AOT_stimuli/rescaled_final/1544_fw.mp4	0.0	383.7459738254547	2.500375986099243
72	356.2447910308838	pulse	1	t		70.0	2.5	/experiments/knapen_AOT/AOT_stimuli/rescaled_final/1544_fw.mp4	0.0	384.52954292297363	
72	357.84713792800903	pulse	1	t		70.0	2.5	/experiments/knapen_AOT/AOT_stimuli/rescaled_final/1544_fw.mp4	0.0	386.1318898200989	
72	357.9615979194641	fix_post	2		12	70.0	2.5	/experiments/knapen_AOT/AOT_stimuli/rescaled_final/1544_fw.mp4	0.0	386.24634981155396	0.10000109672546387
73	358.0615990161896	fix_pre	0		119	71.0	2.5	/experiments/knapen_AOT/AOT_stimuli/rescaled_final/1979_fw.mp4	0.0	386.3463509082794	0.9918239116668701
73	359.05342292785645	movie	1		243	71.0	2.5	/experiments/knapen_AOT/AOT_stimuli/rescaled_final/1979_fw.mp4	0.0	387.3381748199463	2.500308036804199
73	359.4386339187622	pulse	1	t		71.0	2.5	/experiments/knapen_AOT/AOT_stimuli/rescaled_final/1979_fw.mp4	0.0	387.72338581085205	
73	361.0384318828583	pulse	1	t		71.0	2.5	/experiments/knapen_AOT/AOT_stimuli/rescaled_final/1979_fw.mp4	0.0	389.3231837749481	
73	361.55373096466064	fix_post	2		12	71.0	2.5	/experiments/knapen_AOT/AOT_stimuli/rescaled_final/1979_fw.mp4	0.0	389.8384828567505	0.10003900527954102
74	361.6537699699402	fix_pre	0		120	72.0	2.5	/experiments/knapen_AOT/AOT_stimuli/rescaled_final/1185_fw.mp4	0.0	389.93852186203003	1.0002129077911377
74	362.6382830142975	pulse	0	t		72.0	2.5	/experiments/knapen_AOT/AOT_stimuli/rescaled_final/1185_fw.mp4	0.0	390.92303490638733	
74	362.6539828777313	movie	1		245	72.0	2.5	/experiments/knapen_AOT/AOT_stimuli/rescaled_final/1185_fw.mp4	0.0	390.93873476982117	2.5086300373077393
74	364.24651193618774	pulse	1	t		72.0	2.5	/experiments/knapen_AOT/AOT_stimuli/rescaled_final/1185_fw.mp4	0.0	392.5312638282776	
74	365.16261291503906	fix_post	2		12	72.0	2.5	/experiments/knapen_AOT/AOT_stimuli/rescaled_final/1185_fw.mp4	0.0	393.4473648071289	0.10005402565002441
75	365.2626669406891	fix_pre	0		120	73.0	2.5	/experiments/knapen_AOT/AOT_stimuli/rescaled_final/0404_fw.mp4	0.0	393.54741883277893	1.0001349449157715
75	365.83788990974426	pulse	0	t		73.0	2.5	/experiments/knapen_AOT/AOT_stimuli/rescaled_final/0404_fw.mp4	0.0	394.1226418018341	
75	366.26280188560486	movie	1		243	73.0	2.5	/experiments/knapen_AOT/AOT_stimuli/rescaled_final/0404_fw.mp4	0.0	394.5475537776947	2.5003621578216553
75	367.43856406211853	pulse	1	t		73.0	2.5	/experiments/knapen_AOT/AOT_stimuli/rescaled_final/0404_fw.mp4	0.0	395.7233159542084	
75	368.7631640434265	fix_post	2		12	73.0	2.5	/experiments/knapen_AOT/AOT_stimuli/rescaled_final/0404_fw.mp4	0.0	397.04791593551636	0.10011792182922363
76	368.86328196525574	fix_pre	0		120	74.0	2.5	/experiments/knapen_AOT/AOT_stimuli/rescaled_final/1860_fw.mp4	0.0	397.1480338573456	1.0000710487365723
76	369.03848099708557	pulse	0	t		74.0	2.5	/experiments/knapen_AOT/AOT_stimuli/rescaled_final/1860_fw.mp4	0.0	397.3232328891754	
76	369.8633530139923	movie	1		245	74.0	2.5	/experiments/knapen_AOT/AOT_stimuli/rescaled_final/1860_fw.mp4	0.0	398.14810490608215	2.5003530979156494
76	370.63866901397705	pulse	1	t		74.0	2.5	/experiments/knapen_AOT/AOT_stimuli/rescaled_final/1860_fw.mp4	0.0	398.9234209060669	
76	372.2389190196991	pulse	1	t		74.0	2.5	/experiments/knapen_AOT/AOT_stimuli/rescaled_final/1860_fw.mp4	0.0	400.52367091178894	
76	372.36370611190796	fix_post	2		12	74.0	2.5	/experiments/knapen_AOT/AOT_stimuli/rescaled_final/1860_fw.mp4	0.0	400.6484580039978	0.10001587867736816
77	372.4637219905853	fix_pre	0		119	75.0	2.5	/experiments/knapen_AOT/AOT_stimuli/rescaled_final/0622_rv.mp4	0.0	400.74847388267517	0.9918160438537598
77	373.4555380344391	movie	1		243	75.0	2.5	/experiments/knapen_AOT/AOT_stimuli/rescaled_final/0622_rv.mp4	0.0	401.74028992652893	2.500364065170288
77	373.8397309780121	pulse	1	t		75.0	2.5	/experiments/knapen_AOT/AOT_stimuli/rescaled_final/0622_rv.mp4	0.0	402.12448287010193	
77	375.4393229484558	pulse	1	t		75.0	2.5	/experiments/knapen_AOT/AOT_stimuli/rescaled_final/0622_rv.mp4	0.0	403.72407484054565	
77	375.9559020996094	fix_post	2		12	75.0	2.5	/experiments/knapen_AOT/AOT_stimuli/rescaled_final/0622_rv.mp4	0.0	404.2406539916992	0.10004878044128418
78	376.05595088005066	fix_pre	0		119	76.0	2.5	/experiments/knapen_AOT/AOT_stimuli/rescaled_final/2078_fw.mp4	0.0	404.3407027721405	0.991793155670166
78	377.0396521091461	pulse	0	t		76.0	2.5	/experiments/knapen_AOT/AOT_stimuli/rescaled_final/2078_fw.mp4	0.0	405.32440400123596	
78	377.0477440357208	movie	1		244	76.0	2.5	/experiments/knapen_AOT/AOT_stimuli/rescaled_final/2078_fw.mp4	0.0	405.33249592781067	2.50872802734375
78	378.64108991622925	pulse	1	t		76.0	2.5	/experiments/knapen_AOT/AOT_stimuli/rescaled_final/2078_fw.mp4	0.0	406.9258418083191	
78	379.5564720630646	fix_post	2		12	76.0	2.5	/experiments/knapen_AOT/AOT_stimuli/rescaled_final/2078_fw.mp4	0.0	407.8412239551544	0.09997892379760742
79	379.6564509868622	fix_pre	0		120	77.0	2.5	blank	1.0	407.941202878952	1.0002000331878662
79	380.24003291130066	pulse	0	t		77.0	2.5	blank	1.0	408.5247848033905	
79	380.65665102005005	movie	1		300	77.0	2.5	blank	1.0	408.9414029121399	2.5003368854522705
79	381.84029507637024	pulse	1	t		77.0	2.5	blank	1.0	410.1250469684601	
79	383.1569879055023	fix_post	2		12	77.0	2.5	blank	1.0	411.44173979759216	0.10000920295715332
80	383.2569971084595	fix_pre	0		120	78.0	2.5	/experiments/knapen_AOT/AOT_stimuli/rescaled_final/1170_fw.mp4	0.0	411.5417490005493	1.0001847743988037
80	383.4406809806824	pulse	0	t		78.0	2.5	/experiments/knapen_AOT/AOT_stimuli/rescaled_final/1170_fw.mp4	0.0	411.7254328727722	
80	384.2571818828583	movie	1		244	78.0	2.5	/experiments/knapen_AOT/AOT_stimuli/rescaled_final/1170_fw.mp4	0.0	412.5419337749481	2.500349998474121
80	385.0407769680023	pulse	1	t		78.0	2.5	/experiments/knapen_AOT/AOT_stimuli/rescaled_final/1170_fw.mp4	0.0	413.32552886009216	
80	386.64127492904663	pulse	1	t		78.0	2.5	/experiments/knapen_AOT/AOT_stimuli/rescaled_final/1170_fw.mp4	0.0	414.9260268211365	
80	386.7575318813324	fix_post	2		12	78.0	2.5	/experiments/knapen_AOT/AOT_stimuli/rescaled_final/1170_fw.mp4	0.0	415.04228377342224	0.10000014305114746
81	386.85753202438354	fix_pre	0		120	79.0	2.5	/experiments/knapen_AOT/AOT_stimuli/rescaled_final/0413_rv.mp4	0.0	415.1422839164734	1.0001749992370605
81	387.8577070236206	movie	1		244	79.0	2.5	/experiments/knapen_AOT/AOT_stimuli/rescaled_final/0413_rv.mp4	0.0	416.14245891571045	2.492037057876587
81	388.24186611175537	pulse	1	t		79.0	2.5	/experiments/knapen_AOT/AOT_stimuli/rescaled_final/0413_rv.mp4	0.0	416.5266180038452	
81	389.84170293807983	pulse	1	t		79.0	2.5	/experiments/knapen_AOT/AOT_stimuli/rescaled_final/0413_rv.mp4	0.0	418.1264548301697	
81	390.3497440814972	fix_post	2		12	79.0	2.5	/experiments/knapen_AOT/AOT_stimuli/rescaled_final/0413_rv.mp4	0.0	418.63449597358704	0.09999585151672363
82	390.4497399330139	fix_pre	0		120	80.0	2.5	/experiments/knapen_AOT/AOT_stimuli/rescaled_final/0888_fw.mp4	0.0	418.73449182510376	1.0001740455627441
82	391.4417550563812	pulse	0	t		80.0	2.5	/experiments/knapen_AOT/AOT_stimuli/rescaled_final/0888_fw.mp4	0.0	419.72650694847107	
82	391.44991397857666	movie	1		244	80.0	2.5	/experiments/knapen_AOT/AOT_stimuli/rescaled_final/0888_fw.mp4	0.0	419.7346658706665	2.508697986602783
82	393.04617190361023	pulse	1	t		80.0	2.5	/experiments/knapen_AOT/AOT_stimuli/rescaled_final/0888_fw.mp4	0.0	421.3309237957001	
82	393.95861196517944	fix_post	2		12	80.0	2.5	/experiments/knapen_AOT/AOT_stimuli/rescaled_final/0888_fw.mp4	0.0	422.2433638572693	0.09999203681945801
83	394.0586040019989	fix_pre	0		120	81.0	2.5	/experiments/knapen_AOT/AOT_stimuli/rescaled_final/0599_fw.mp4	0.0	422.34335589408875	1.0001680850982666
83	394.6422441005707	pulse	0	t		81.0	2.5	/experiments/knapen_AOT/AOT_stimuli/rescaled_final/0599_fw.mp4	0.0	422.9269959926605	
83	395.05877208709717	movie	1		244	81.0	2.5	/experiments/knapen_AOT/AOT_stimuli/rescaled_final/0599_fw.mp4	0.0	423.343523979187	2.500410795211792
83	396.23863101005554	pulse	1	t		81.0	2.5	/experiments/knapen_AOT/AOT_stimuli/rescaled_final/0599_fw.mp4	0.0	424.5233829021454	
83	397.55918288230896	fix_post	2		12	81.0	2.5	/experiments/knapen_AOT/AOT_stimuli/rescaled_final/0599_fw.mp4	0.0	425.8439347743988	0.0999751091003418
84	397.6591579914093	fix_pre	0		120	82.0	2.5	/experiments/knapen_AOT/AOT_stimuli/rescaled_final/1688_rv.mp4	0.0	425.94390988349915	1.0002210140228271
84	397.8427219390869	pulse	0	t		82.0	2.5	/experiments/knapen_AOT/AOT_stimuli/rescaled_final/1688_rv.mp4	0.0	426.12747383117676	
84	398.65937900543213	movie	1		243	82.0	2.5	/experiments/knapen_AOT/AOT_stimuli/rescaled_final/1688_rv.mp4	0.0	426.944130897522	2.5002810955047607
84	399.44284892082214	pulse	1	t		82.0	2.5	/experiments/knapen_AOT/AOT_stimuli/rescaled_final/1688_rv.mp4	0.0	427.727600812912	
84	401.0442850589752	pulse	1	t		82.0	2.5	/experiments/knapen_AOT/AOT_stimuli/rescaled_final/1688_rv.mp4	0.0	429.32903695106506	
84	401.1596601009369	fix_post	2		12	82.0	2.5	/experiments/knapen_AOT/AOT_stimuli/rescaled_final/1688_rv.mp4	0.0	429.44441199302673	0.10001897811889648
85	401.2596790790558	fix_pre	0		120	83.0	2.5	blank	1.0	429.54443097114563	1.0001788139343262
85	402.2598578929901	movie	1		299	83.0	2.5	blank	1.0	430.54460978507996	2.4920101165771484
85	402.6433939933777	pulse	1	t		83.0	2.5	blank	1.0	430.92814588546753	
85	404.2437279224396	pulse	1	t		83.0	2.5	blank	1.0	432.5284798145294	
85	404.75186800956726	fix_post	2		12	83.0	2.5	blank	1.0	433.0366199016571	0.10003995895385742
87	404.8519079685211	stim	0		1713					433.13665986061096	14.302220106124878
87	405.84381794929504	pulse	0	t						434.1285698413849	
87	407.44418597221375	pulse	0	t						435.7289378643036	
87	409.04430508613586	pulse	0	t						437.3290569782257	
87	410.6372718811035	pulse	0	t						438.92202377319336	
87	412.23750710487366	pulse	0	t						440.5222589969635	
87	413.8376610279083	pulse	0	t						442.12241291999817	
87	415.43787002563477	pulse	0	t						443.7226219177246	
87	417.0381019115448	pulse	0	t						445.32285380363464	
87	418.63737201690674	pulse	0	t						446.9221239089966	
