trial_nr	onset	event_type	phase	response	nr_frames	movie_index	movie_duration	movie_file	blank	onset_abs	duration
0	0.132843017578125	stim	0		15					37.342769145965576	0.12526893615722656
0	0.2501101493835449	response	0	space						37.460036277770996	
1	0.25811195373535156	stim	0		4730					37.4680380821228	39.41652512550354
1	39.670520067214966	pulse	0	t						76.88044619560242	
1	39.67463707923889	stim	1		1717					76.88456320762634	14.308403015136719
1	41.26656413078308	pulse	1	t						78.47649025917053	
1	42.86652898788452	pulse	1	t						80.07645511627197	
1	44.46652412414551	pulse	1	t						81.67645025253296	
1	46.06654906272888	pulse	1	t						83.27647519111633	
1	47.666457176208496	pulse	1	t						84.87638330459595	
1	49.26661515235901	pulse	1	t						86.47654128074646	
1	50.866456031799316	pulse	1	t						88.07638216018677	
1	52.46644616127014	pulse	1	t						89.67637228965759	
2	53.98304009437561	fix_pre	0		11	0.0	2.5	/experiments/AOT/AOT_stimuli/rescaled_final/1884_rv.mp4	0.0	91.19296622276306	0.09166407585144043
2	54.06644296646118	pulse	0	t		0.0	2.5	/experiments/AOT/AOT_stimuli/rescaled_final/1884_rv.mp4	0.0	91.27636909484863	
2	54.07470417022705	movie	1		244	0.0	2.5	/experiments/AOT/AOT_stimuli/rescaled_final/1884_rv.mp4	0.0	91.2846302986145	2.507723808288574
2	55.66598916053772	pulse	1	t		0.0	2.5	/experiments/AOT/AOT_stimuli/rescaled_final/1884_rv.mp4	0.0	92.87591528892517	
2	56.582427978515625	fix_post	2		12	0.0	2.5	/experiments/AOT/AOT_stimuli/rescaled_final/1884_rv.mp4	0.0	93.79235410690308	0.1000821590423584
3	56.68251013755798	fix_pre	0		120	1.0	2.5	/experiments/AOT/AOT_stimuli/rescaled_final/1347_rv.mp4	0.0	93.89243626594543	1.0000429153442383
3	57.26648998260498	pulse	0	t		1.0	2.5	/experiments/AOT/AOT_stimuli/rescaled_final/1347_rv.mp4	0.0	94.47641611099243	
3	57.68255305290222	movie	1		245	1.0	2.5	/experiments/AOT/AOT_stimuli/rescaled_final/1347_rv.mp4	0.0	94.89247918128967	2.500370979309082
3	58.86654305458069	pulse	1	t		1.0	2.5	/experiments/AOT/AOT_stimuli/rescaled_final/1347_rv.mp4	0.0	96.07646918296814	
3	60.182924032211304	fix_post	2		12	1.0	2.5	/experiments/AOT/AOT_stimuli/rescaled_final/1347_rv.mp4	0.0	97.39285016059875	0.10003113746643066
4	60.282955169677734	fix_pre	0		120	2.0	2.5	/experiments/AOT/AOT_stimuli/rescaled_final/0964_fw.mp4	0.0	97.49288129806519	0.9999439716339111
4	60.46639108657837	pulse	0	t		2.0	2.5	/experiments/AOT/AOT_stimuli/rescaled_final/0964_fw.mp4	0.0	97.67631721496582	
4	61.282899141311646	movie	1		243	2.0	2.5	/experiments/AOT/AOT_stimuli/rescaled_final/0964_fw.mp4	0.0	98.4928252696991	2.5000369548797607
4	62.066450119018555	pulse	1	t		2.0	2.5	/experiments/AOT/AOT_stimuli/rescaled_final/0964_fw.mp4	0.0	99.276376247406	
4	63.66471600532532	pulse	1	t		2.0	2.5	/experiments/AOT/AOT_stimuli/rescaled_final/0964_fw.mp4	0.0	100.87464213371277	
4	63.782936096191406	fix_post	2		12	2.0	2.5	/experiments/AOT/AOT_stimuli/rescaled_final/0964_fw.mp4	0.0	100.99286222457886	0.09990286827087402
5	63.88283896446228	fix_pre	0		120	3.0	2.5	/experiments/AOT/AOT_stimuli/rescaled_final/0292_fw.mp4	0.0	101.09276509284973	1.0000951290130615
5	64.88293409347534	movie	1		245	3.0	2.5	/experiments/AOT/AOT_stimuli/rescaled_final/0292_fw.mp4	0.0	102.0928602218628	2.49995493888855
5	65.26624202728271	pulse	1	t		3.0	2.5	/experiments/AOT/AOT_stimuli/rescaled_final/0292_fw.mp4	0.0	102.47616815567017	
5	66.86631202697754	pulse	1	t		3.0	2.5	/experiments/AOT/AOT_stimuli/rescaled_final/0292_fw.mp4	0.0	104.07623815536499	
5	67.38288903236389	fix_post	2		12	3.0	2.5	/experiments/AOT/AOT_stimuli/rescaled_final/0292_fw.mp4	0.0	104.59281516075134	0.10009193420410156
6	67.482980966568	fix_pre	0		119	4.0	2.5	/experiments/AOT/AOT_stimuli/rescaled_final/0375_rv.mp4	0.0	104.69290709495544	0.9915289878845215
6	68.46637010574341	pulse	0	t		4.0	2.5	/experiments/AOT/AOT_stimuli/rescaled_final/0375_rv.mp4	0.0	105.67629623413086	
6	68.47450995445251	movie	1		245	4.0	2.5	/experiments/AOT/AOT_stimuli/rescaled_final/0375_rv.mp4	0.0	105.68443608283997	2.507930040359497
6	70.06732296943665	pulse	1	t		4.0	2.5	/experiments/AOT/AOT_stimuli/rescaled_final/0375_rv.mp4	0.0	107.2772490978241	
6	70.98243999481201	fix_post	2		12	4.0	2.5	/experiments/AOT/AOT_stimuli/rescaled_final/0375_rv.mp4	0.0	108.19236612319946	0.10043001174926758
7	71.08287000656128	fix_pre	0		120	5.0	2.5	/experiments/AOT/AOT_stimuli/rescaled_final/0657_fw.mp4	0.0	108.29279613494873	1.0000369548797607
7	71.66652798652649	pulse	0	t		5.0	2.5	/experiments/AOT/AOT_stimuli/rescaled_final/0657_fw.mp4	0.0	108.87645411491394	
7	72.08290696144104	movie	1		245	5.0	2.5	/experiments/AOT/AOT_stimuli/rescaled_final/0657_fw.mp4	0.0	109.29283308982849	2.4996910095214844
7	73.26601696014404	pulse	1	t		5.0	2.5	/experiments/AOT/AOT_stimuli/rescaled_final/0657_fw.mp4	0.0	110.4759430885315	
7	74.58259797096252	fix_post	2		12	5.0	2.5	/experiments/AOT/AOT_stimuli/rescaled_final/0657_fw.mp4	0.0	111.79252409934998	0.10003399848937988
8	74.6826319694519	fix_pre	0		120	6.0	2.5	/experiments/AOT/AOT_stimuli/rescaled_final/1483_rv.mp4	0.0	111.89255809783936	1.0001490116119385
8	74.86612105369568	pulse	0	t		6.0	2.5	/experiments/AOT/AOT_stimuli/rescaled_final/1483_rv.mp4	0.0	112.07604718208313	
8	75.68278098106384	movie	1		244	6.0	2.5	/experiments/AOT/AOT_stimuli/rescaled_final/1483_rv.mp4	0.0	112.8927071094513	2.5000200271606445
8	76.46630215644836	pulse	1	t		6.0	2.5	/experiments/AOT/AOT_stimuli/rescaled_final/1483_rv.mp4	0.0	113.67622828483582	
8	78.0648181438446	pulse	1	t		6.0	2.5	/experiments/AOT/AOT_stimuli/rescaled_final/1483_rv.mp4	0.0	115.27474427223206	
8	78.18280100822449	fix_post	2		12	6.0	2.5	/experiments/AOT/AOT_stimuli/rescaled_final/1483_rv.mp4	0.0	115.39272713661194	0.09963607788085938
9	78.28243708610535	fix_pre	0		120	7.0	2.5	blank	1.0	115.4923632144928	1.0003859996795654
9	79.28282308578491	movie	1		300	7.0	2.5	blank	1.0	116.49274921417236	2.4999420642852783
9	79.66641306877136	pulse	1	t		7.0	2.5	blank	1.0	116.87633919715881	
9	81.26621794700623	pulse	1	t		7.0	2.5	blank	1.0	118.47614407539368	
9	81.78276515007019	fix_post	2		12	7.0	2.5	blank	1.0	118.99269127845764	0.09995102882385254
10	81.88271617889404	fix_pre	0		119	8.0	2.5	/experiments/AOT/AOT_stimuli/rescaled_final/1652_fw.mp4	0.0	119.0926423072815	0.9917118549346924
10	82.8662781715393	pulse	0	t		8.0	2.5	/experiments/AOT/AOT_stimuli/rescaled_final/1652_fw.mp4	0.0	120.07620429992676	
10	82.87442803382874	movie	1		246	8.0	2.5	/experiments/AOT/AOT_stimuli/rescaled_final/1652_fw.mp4	0.0	120.08435416221619	2.507951021194458
10	84.46600914001465	pulse	1	t		8.0	2.5	/experiments/AOT/AOT_stimuli/rescaled_final/1652_fw.mp4	0.0	121.6759352684021	
10	85.3823790550232	fix_post	2		12	8.0	2.5	/experiments/AOT/AOT_stimuli/rescaled_final/1652_fw.mp4	0.0	122.59230518341064	0.10031390190124512
11	85.48269295692444	fix_pre	0		120	9.0	2.5	/experiments/AOT/AOT_stimuli/rescaled_final/1889_fw.mp4	0.0	122.69261908531189	1.000150203704834
11	86.06617903709412	pulse	0	t		9.0	2.5	/experiments/AOT/AOT_stimuli/rescaled_final/1889_fw.mp4	0.0	123.27610516548157	
11	86.48284316062927	movie	1		245	9.0	2.5	/experiments/AOT/AOT_stimuli/rescaled_final/1889_fw.mp4	0.0	123.69276928901672	2.499992847442627
11	87.66636300086975	pulse	1	t		9.0	2.5	/experiments/AOT/AOT_stimuli/rescaled_final/1889_fw.mp4	0.0	124.8762891292572	
11	88.9828360080719	fix_post	2		12	9.0	2.5	/experiments/AOT/AOT_stimuli/rescaled_final/1889_fw.mp4	0.0	126.19276213645935	0.10006499290466309
12	89.08290100097656	fix_pre	0		120	10.0	2.5	/experiments/AOT/AOT_stimuli/rescaled_final/0128_fw.mp4	0.0	126.29282712936401	0.9998569488525391
12	89.26620101928711	pulse	0	t		10.0	2.5	/experiments/AOT/AOT_stimuli/rescaled_final/0128_fw.mp4	0.0	126.47612714767456	
12	90.0827579498291	movie	1		244	10.0	2.5	/experiments/AOT/AOT_stimuli/rescaled_final/0128_fw.mp4	0.0	127.29268407821655	2.500007152557373
12	90.86615896224976	pulse	1	t		10.0	2.5	/experiments/AOT/AOT_stimuli/rescaled_final/0128_fw.mp4	0.0	128.0760850906372	
12	92.464674949646	pulse	1	t		10.0	2.5	/experiments/AOT/AOT_stimuli/rescaled_final/0128_fw.mp4	0.0	129.67460107803345	
12	92.58276510238647	fix_post	2		12	10.0	2.5	/experiments/AOT/AOT_stimuli/rescaled_final/0128_fw.mp4	0.0	129.79269123077393	0.09996199607849121
13	92.68272709846497	fix_pre	0		120	11.0	2.5	/experiments/AOT/AOT_stimuli/rescaled_final/1189_rv.mp4	0.0	129.89265322685242	0.999600887298584
13	93.68232798576355	movie	1		244	11.0	2.5	/experiments/AOT/AOT_stimuli/rescaled_final/1189_rv.mp4	0.0	130.892254114151	2.500394105911255
13	94.06585502624512	pulse	1	t		11.0	2.5	/experiments/AOT/AOT_stimuli/rescaled_final/1189_rv.mp4	0.0	131.27578115463257	
13	95.66626596450806	pulse	1	t		11.0	2.5	/experiments/AOT/AOT_stimuli/rescaled_final/1189_rv.mp4	0.0	132.8761920928955	
13	96.1827220916748	fix_post	2		12	11.0	2.5	/experiments/AOT/AOT_stimuli/rescaled_final/1189_rv.mp4	0.0	133.39264822006226	0.09995388984680176
14	96.2826759815216	fix_pre	0		119	12.0	2.5	/experiments/AOT/AOT_stimuli/rescaled_final/1725_rv.mp4	0.0	133.49260210990906	0.9917001724243164
14	97.26620197296143	pulse	0	t		12.0	2.5	/experiments/AOT/AOT_stimuli/rescaled_final/1725_rv.mp4	0.0	134.47612810134888	
14	97.27437615394592	movie	1		246	12.0	2.5	/experiments/AOT/AOT_stimuli/rescaled_final/1725_rv.mp4	0.0	134.48430228233337	2.508307933807373
14	98.86581897735596	pulse	1	t		12.0	2.5	/experiments/AOT/AOT_stimuli/rescaled_final/1725_rv.mp4	0.0	136.0757451057434	
14	99.7826840877533	fix_post	2		12	12.0	2.5	/experiments/AOT/AOT_stimuli/rescaled_final/1725_rv.mp4	0.0	136.99261021614075	0.09992790222167969
15	99.88261198997498	fix_pre	0		120	13.0	2.5	blank	1.0	137.09253811836243	1.0001089572906494
15	100.4661340713501	pulse	0	t		13.0	2.5	blank	1.0	137.67606019973755	
15	100.88272094726562	movie	1		300	13.0	2.5	blank	1.0	138.09264707565308	2.499948024749756
15	102.06626296043396	pulse	1	t		13.0	2.5	blank	1.0	139.2761890888214	
15	103.38266897201538	fix_post	2		12	13.0	2.5	blank	1.0	140.59259510040283	0.09994697570800781
16	103.48261594772339	fix_pre	0		120	14.0	2.5	/experiments/AOT/AOT_stimuli/rescaled_final/1249_rv.mp4	0.0	140.69254207611084	1.000028133392334
16	103.66612005233765	pulse	0	t		14.0	2.5	/experiments/AOT/AOT_stimuli/rescaled_final/1249_rv.mp4	0.0	140.8760461807251	
16	104.48264408111572	movie	1		247	14.0	2.5	/experiments/AOT/AOT_stimuli/rescaled_final/1249_rv.mp4	0.0	141.69257020950317	2.4999818801879883
16	105.26620101928711	pulse	1	t		14.0	2.5	/experiments/AOT/AOT_stimuli/rescaled_final/1249_rv.mp4	0.0	142.47612714767456	
16	106.86228203773499	pulse	1	t		14.0	2.5	/experiments/AOT/AOT_stimuli/rescaled_final/1249_rv.mp4	0.0	144.07220816612244	
16	106.98262596130371	fix_post	2		12	14.0	2.5	/experiments/AOT/AOT_stimuli/rescaled_final/1249_rv.mp4	0.0	144.19255208969116	0.10003805160522461
17	107.08266401290894	fix_pre	0		120	15.0	2.5	/experiments/AOT/AOT_stimuli/rescaled_final/1850_rv.mp4	0.0	144.2925901412964	0.9996140003204346
17	108.08227801322937	movie	1		243	15.0	2.5	/experiments/AOT/AOT_stimuli/rescaled_final/1850_rv.mp4	0.0	145.29220414161682	2.4999070167541504
17	108.46586012840271	pulse	1	t		15.0	2.5	/experiments/AOT/AOT_stimuli/rescaled_final/1850_rv.mp4	0.0	145.67578625679016	
17	110.06615996360779	pulse	1	t		15.0	2.5	/experiments/AOT/AOT_stimuli/rescaled_final/1850_rv.mp4	0.0	147.27608609199524	
17	110.58218502998352	fix_post	2		12	15.0	2.5	/experiments/AOT/AOT_stimuli/rescaled_final/1850_rv.mp4	0.0	147.79211115837097	0.10005593299865723
18	110.68224096298218	fix_pre	0		119	16.0	2.5	/experiments/AOT/AOT_stimuli/rescaled_final/0639_fw.mp4	0.0	147.89216709136963	0.9921021461486816
18	111.66620397567749	pulse	0	t		16.0	2.5	/experiments/AOT/AOT_stimuli/rescaled_final/0639_fw.mp4	0.0	148.87613010406494	
18	111.67434310913086	movie	1		246	16.0	2.5	/experiments/AOT/AOT_stimuli/rescaled_final/0639_fw.mp4	0.0	148.8842692375183	2.507904052734375
18	113.26598000526428	pulse	1	t		16.0	2.5	/experiments/AOT/AOT_stimuli/rescaled_final/0639_fw.mp4	0.0	150.47590613365173	
18	114.18224716186523	fix_post	2		12	16.0	2.5	/experiments/AOT/AOT_stimuli/rescaled_final/0639_fw.mp4	0.0	151.39217329025269	0.10041999816894531
19	114.28266716003418	fix_pre	0		120	17.0	2.5	/experiments/AOT/AOT_stimuli/rescaled_final/1263_rv.mp4	0.0	151.49259328842163	1.0000009536743164
19	114.86605215072632	pulse	0	t		17.0	2.5	/experiments/AOT/AOT_stimuli/rescaled_final/1263_rv.mp4	0.0	152.07597827911377	
19	115.2826681137085	movie	1		245	17.0	2.5	/experiments/AOT/AOT_stimuli/rescaled_final/1263_rv.mp4	0.0	152.49259424209595	2.499901056289673
19	116.46621203422546	pulse	1	t		17.0	2.5	/experiments/AOT/AOT_stimuli/rescaled_final/1263_rv.mp4	0.0	153.67613816261292	
19	117.78256916999817	fix_post	2		12	17.0	2.5	/experiments/AOT/AOT_stimuli/rescaled_final/1263_rv.mp4	0.0	154.99249529838562	0.10025691986083984
20	117.88282608985901	fix_pre	0		120	18.0	2.5	/experiments/AOT/AOT_stimuli/rescaled_final/1537_fw.mp4	0.0	155.09275221824646	0.9994299411773682
20	118.06605505943298	pulse	0	t		18.0	2.5	/experiments/AOT/AOT_stimuli/rescaled_final/1537_fw.mp4	0.0	155.27598118782043	
20	118.88225603103638	movie	1		243	18.0	2.5	/experiments/AOT/AOT_stimuli/rescaled_final/1537_fw.mp4	0.0	156.09218215942383	2.500352144241333
20	119.66612100601196	pulse	1	t		18.0	2.5	/experiments/AOT/AOT_stimuli/rescaled_final/1537_fw.mp4	0.0	156.8760471343994	
20	121.26461815834045	pulse	1	t		18.0	2.5	/experiments/AOT/AOT_stimuli/rescaled_final/1537_fw.mp4	0.0	158.4745442867279	
20	121.38260817527771	fix_post	2		12	18.0	2.5	/experiments/AOT/AOT_stimuli/rescaled_final/1537_fw.mp4	0.0	158.59253430366516	0.0996088981628418
21	121.48221707344055	fix_pre	0		120	19.0	2.5	blank	1.0	158.692143201828	0.9999730587005615
21	122.48219013214111	movie	1		300	19.0	2.5	blank	1.0	159.69211626052856	2.50039005279541
21	122.86607599258423	pulse	1	t		19.0	2.5	blank	1.0	160.07600212097168	
21	124.46598196029663	pulse	1	t		19.0	2.5	blank	1.0	161.67590808868408	
21	124.98258018493652	fix_post	2		12	19.0	2.5	blank	1.0	162.19250631332397	0.10005879402160645
22	125.08263897895813	fix_pre	0		119	20.0	2.5	/experiments/AOT/AOT_stimuli/rescaled_final/0692_rv.mp4	0.0	162.29256510734558	0.9915800094604492
22	126.0662031173706	pulse	0	t		20.0	2.5	/experiments/AOT/AOT_stimuli/rescaled_final/0692_rv.mp4	0.0	163.27612924575806	
22	126.07421898841858	movie	1		245	20.0	2.5	/experiments/AOT/AOT_stimuli/rescaled_final/0692_rv.mp4	0.0	163.28414511680603	2.5083580017089844
22	127.66571307182312	pulse	1	t		20.0	2.5	/experiments/AOT/AOT_stimuli/rescaled_final/0692_rv.mp4	0.0	164.87563920021057	
22	128.58257699012756	fix_post	2		12	20.0	2.5	/experiments/AOT/AOT_stimuli/rescaled_final/0692_rv.mp4	0.0	165.79250311851501	0.09956097602844238
23	128.682137966156	fix_pre	0		120	21.0	2.5	/experiments/AOT/AOT_stimuli/rescaled_final/1359_fw.mp4	0.0	165.89206409454346	0.999953031539917
23	129.2657129764557	pulse	0	t		21.0	2.5	/experiments/AOT/AOT_stimuli/rescaled_final/1359_fw.mp4	0.0	166.47563910484314	
23	129.68209099769592	movie	1		244	21.0	2.5	/experiments/AOT/AOT_stimuli/rescaled_final/1359_fw.mp4	0.0	166.89201712608337	2.500465154647827
23	130.86630201339722	pulse	1	t		21.0	2.5	/experiments/AOT/AOT_stimuli/rescaled_final/1359_fw.mp4	0.0	168.07622814178467	
23	132.18255615234375	fix_post	2		12	21.0	2.5	/experiments/AOT/AOT_stimuli/rescaled_final/1359_fw.mp4	0.0	169.3924822807312	0.09994101524353027
24	132.28249716758728	fix_pre	0		120	22.0	2.5	/experiments/AOT/AOT_stimuli/rescaled_final/0831_fw.mp4	0.0	169.49242329597473	1.0000879764556885
24	132.46618509292603	pulse	0	t		22.0	2.5	/experiments/AOT/AOT_stimuli/rescaled_final/0831_fw.mp4	0.0	169.67611122131348	
24	133.28258514404297	movie	1		244	22.0	2.5	/experiments/AOT/AOT_stimuli/rescaled_final/0831_fw.mp4	0.0	170.49251127243042	2.499966859817505
24	134.06607604026794	pulse	1	t		22.0	2.5	/experiments/AOT/AOT_stimuli/rescaled_final/0831_fw.mp4	0.0	171.2760021686554	
24	135.66497015953064	pulse	1	t		22.0	2.5	/experiments/AOT/AOT_stimuli/rescaled_final/0831_fw.mp4	0.0	172.8748962879181	
24	135.78255200386047	fix_post	2		12	22.0	2.5	/experiments/AOT/AOT_stimuli/rescaled_final/0831_fw.mp4	0.0	172.99247813224792	0.09997415542602539
25	135.8825261592865	fix_pre	0		120	23.0	2.5	/experiments/AOT/AOT_stimuli/rescaled_final/2011_fw.mp4	0.0	173.09245228767395	1.0000159740447998
25	136.8825421333313	movie	1		245	23.0	2.5	/experiments/AOT/AOT_stimuli/rescaled_final/2011_fw.mp4	0.0	174.09246826171875	2.499958038330078
25	137.26569414138794	pulse	1	t		23.0	2.5	/experiments/AOT/AOT_stimuli/rescaled_final/2011_fw.mp4	0.0	174.4756202697754	
25	138.8660831451416	pulse	1	t		23.0	2.5	/experiments/AOT/AOT_stimuli/rescaled_final/2011_fw.mp4	0.0	176.07600927352905	
25	139.38250017166138	fix_post	2		12	23.0	2.5	/experiments/AOT/AOT_stimuli/rescaled_final/2011_fw.mp4	0.0	176.59242630004883	0.09999489784240723
26	139.48249506950378	fix_pre	0		119	24.0	2.5	/experiments/AOT/AOT_stimuli/rescaled_final/1492_rv.mp4	0.0	176.69242119789124	0.9916179180145264
26	140.4659869670868	pulse	0	t		24.0	2.5	/experiments/AOT/AOT_stimuli/rescaled_final/1492_rv.mp4	0.0	177.67591309547424	
26	140.4741129875183	movie	1		246	24.0	2.5	/experiments/AOT/AOT_stimuli/rescaled_final/1492_rv.mp4	0.0	177.68403911590576	2.5083630084991455
26	142.06590294837952	pulse	1	t		24.0	2.5	/experiments/AOT/AOT_stimuli/rescaled_final/1492_rv.mp4	0.0	179.27582907676697	
26	142.98247599601746	fix_post	2		12	24.0	2.5	/experiments/AOT/AOT_stimuli/rescaled_final/1492_rv.mp4	0.0	180.1924021244049	0.10008907318115234
27	143.0825650691986	fix_pre	0		120	25.0	2.5	/experiments/AOT/AOT_stimuli/rescaled_final/0295_fw.mp4	0.0	180.29249119758606	0.9995410442352295
27	143.6660771369934	pulse	0	t		25.0	2.5	/experiments/AOT/AOT_stimuli/rescaled_final/0295_fw.mp4	0.0	180.87600326538086	
27	144.08210611343384	movie	1		243	25.0	2.5	/experiments/AOT/AOT_stimuli/rescaled_final/0295_fw.mp4	0.0	181.2920322418213	2.500333070755005
27	145.26602411270142	pulse	1	t		25.0	2.5	/experiments/AOT/AOT_stimuli/rescaled_final/0295_fw.mp4	0.0	182.47595024108887	
27	146.58243918418884	fix_post	2		12	25.0	2.5	/experiments/AOT/AOT_stimuli/rescaled_final/0295_fw.mp4	0.0	183.7923653125763	0.10001397132873535
28	146.68245315551758	fix_pre	0		120	26.0	2.5	blank	1.0	183.89237928390503	1.0002260208129883
28	146.86589813232422	pulse	0	t		26.0	2.5	blank	1.0	184.07582426071167	
28	147.68267917633057	movie	1		300	26.0	2.5	blank	1.0	184.89260530471802	2.4998178482055664
28	148.46602296829224	pulse	1	t		26.0	2.5	blank	1.0	185.6759490966797	
28	150.06592917442322	pulse	1	t		26.0	2.5	blank	1.0	187.27585530281067	
28	150.18249702453613	fix_post	2		12	26.0	2.5	blank	1.0	187.39242315292358	0.1000680923461914
29	150.28256511688232	fix_pre	0		120	27.0	2.5	/experiments/AOT/AOT_stimuli/rescaled_final/1696_rv.mp4	0.0	187.49249124526978	0.9998419284820557
29	151.28240704536438	movie	1		246	27.0	2.5	/experiments/AOT/AOT_stimuli/rescaled_final/1696_rv.mp4	0.0	188.49233317375183	2.499974012374878
29	151.6655580997467	pulse	1	t		27.0	2.5	/experiments/AOT/AOT_stimuli/rescaled_final/1696_rv.mp4	0.0	188.87548422813416	
29	153.26601600646973	pulse	1	t		27.0	2.5	/experiments/AOT/AOT_stimuli/rescaled_final/1696_rv.mp4	0.0	190.47594213485718	
29	153.78238105773926	fix_post	2		12	27.0	2.5	/experiments/AOT/AOT_stimuli/rescaled_final/1696_rv.mp4	0.0	190.9923071861267	0.09966611862182617
30	153.88204717636108	fix_pre	0		119	28.0	2.5	/experiments/AOT/AOT_stimuli/rescaled_final/0705_fw.mp4	0.0	191.09197330474854	0.9921720027923584
30	154.86597108840942	pulse	0	t		28.0	2.5	/experiments/AOT/AOT_stimuli/rescaled_final/0705_fw.mp4	0.0	192.07589721679688	
30	154.87421917915344	movie	1		246	28.0	2.5	/experiments/AOT/AOT_stimuli/rescaled_final/0705_fw.mp4	0.0	192.0841453075409	2.508197784423828
30	156.46549797058105	pulse	1	t		28.0	2.5	/experiments/AOT/AOT_stimuli/rescaled_final/0705_fw.mp4	0.0	193.6754240989685	
30	157.38241696357727	fix_post	2		12	28.0	2.5	/experiments/AOT/AOT_stimuli/rescaled_final/0705_fw.mp4	0.0	194.59234309196472	0.09991717338562012
31	157.4823341369629	fix_pre	0		120	29.0	2.5	/experiments/AOT/AOT_stimuli/rescaled_final/0502_fw.mp4	0.0	194.69226026535034	1.000190019607544
31	158.0658450126648	pulse	0	t		29.0	2.5	/experiments/AOT/AOT_stimuli/rescaled_final/0502_fw.mp4	0.0	195.27577114105225	
31	158.48252415657043	movie	1		243	29.0	2.5	/experiments/AOT/AOT_stimuli/rescaled_final/0502_fw.mp4	0.0	195.69245028495789	2.4998538494110107
31	159.6659059524536	pulse	1	t		29.0	2.5	/experiments/AOT/AOT_stimuli/rescaled_final/0502_fw.mp4	0.0	196.87583208084106	
31	160.98237800598145	fix_post	2		12	29.0	2.5	/experiments/AOT/AOT_stimuli/rescaled_final/0502_fw.mp4	0.0	198.1923041343689	0.09995603561401367
32	161.08233404159546	fix_pre	0		120	30.0	2.5	/experiments/AOT/AOT_stimuli/rescaled_final/0887_fw.mp4	0.0	198.2922601699829	1.000014066696167
32	161.2659251689911	pulse	0	t		30.0	2.5	/experiments/AOT/AOT_stimuli/rescaled_final/0887_fw.mp4	0.0	198.47585129737854	
32	162.08234810829163	movie	1		243	30.0	2.5	/experiments/AOT/AOT_stimuli/rescaled_final/0887_fw.mp4	0.0	199.29227423667908	2.500072956085205
32	162.8659269809723	pulse	1	t		30.0	2.5	/experiments/AOT/AOT_stimuli/rescaled_final/0887_fw.mp4	0.0	200.07585310935974	
32	164.46438002586365	pulse	1	t		30.0	2.5	/experiments/AOT/AOT_stimuli/rescaled_final/0887_fw.mp4	0.0	201.6743061542511	
32	164.58242106437683	fix_post	2		12	30.0	2.5	/experiments/AOT/AOT_stimuli/rescaled_final/0887_fw.mp4	0.0	201.79234719276428	0.09998893737792969
33	164.68241000175476	fix_pre	0		120	31.0	2.5	/experiments/AOT/AOT_stimuli/rescaled_final/1259_fw.mp4	0.0	201.8923361301422	0.999981164932251
33	165.682391166687	movie	1		244	31.0	2.5	/experiments/AOT/AOT_stimuli/rescaled_final/1259_fw.mp4	0.0	202.89231729507446	2.4995739459991455
33	166.0657501220703	pulse	1	t		31.0	2.5	/experiments/AOT/AOT_stimuli/rescaled_final/1259_fw.mp4	0.0	203.27567625045776	
33	167.66595101356506	pulse	1	t		31.0	2.5	/experiments/AOT/AOT_stimuli/rescaled_final/1259_fw.mp4	0.0	204.87587714195251	
33	168.18196511268616	fix_post	2		12	31.0	2.5	/experiments/AOT/AOT_stimuli/rescaled_final/1259_fw.mp4	0.0	205.3918912410736	0.10039687156677246
34	168.28236198425293	fix_pre	0		119	32.0	2.5	/experiments/AOT/AOT_stimuli/rescaled_final/1144_fw.mp4	0.0	205.49228811264038	0.991718053817749
34	169.26598000526428	pulse	0	t		32.0	2.5	/experiments/AOT/AOT_stimuli/rescaled_final/1144_fw.mp4	0.0	206.47590613365173	
34	169.27408003807068	movie	1		244	32.0	2.5	/experiments/AOT/AOT_stimuli/rescaled_final/1144_fw.mp4	0.0	206.48400616645813	2.507858991622925
34	170.8654820919037	pulse	1	t		32.0	2.5	/experiments/AOT/AOT_stimuli/rescaled_final/1144_fw.mp4	0.0	208.07540822029114	
34	171.7819390296936	fix_post	2		12	32.0	2.5	/experiments/AOT/AOT_stimuli/rescaled_final/1144_fw.mp4	0.0	208.99186515808105	0.10048198699951172
35	171.88242101669312	fix_pre	0		120	33.0	2.5	blank	1.0	209.09234714508057	0.9998960494995117
35	172.46594214439392	pulse	0	t		33.0	2.5	blank	1.0	209.67586827278137	
35	172.88231706619263	movie	1		300	33.0	2.5	blank	1.0	210.09224319458008	2.500044107437134
35	174.06591701507568	pulse	1	t		33.0	2.5	blank	1.0	211.27584314346313	
35	175.38236117362976	fix_post	2		12	33.0	2.5	blank	1.0	212.5922873020172	0.0996088981628418
36	175.4819700717926	fix_pre	0		120	34.0	2.5	/experiments/AOT/AOT_stimuli/rescaled_final/2107_fw.mp4	0.0	212.69189620018005	1.0003290176391602
36	175.66594409942627	pulse	0	t		34.0	2.5	/experiments/AOT/AOT_stimuli/rescaled_final/2107_fw.mp4	0.0	212.87587022781372	
36	176.48229908943176	movie	1		247	34.0	2.5	/experiments/AOT/AOT_stimuli/rescaled_final/2107_fw.mp4	0.0	213.6922252178192	2.49959397315979
36	177.26590514183044	pulse	1	t		34.0	2.5	/experiments/AOT/AOT_stimuli/rescaled_final/2107_fw.mp4	0.0	214.4758312702179	
36	178.86591815948486	pulse	1	t		34.0	2.5	/experiments/AOT/AOT_stimuli/rescaled_final/2107_fw.mp4	0.0	216.07584428787231	
36	178.98189306259155	fix_post	2		12	34.0	2.5	/experiments/AOT/AOT_stimuli/rescaled_final/2107_fw.mp4	0.0	216.191819190979	0.10045289993286133
37	179.0823459625244	fix_pre	0		120	35.0	2.5	/experiments/AOT/AOT_stimuli/rescaled_final/0847_rv.mp4	0.0	216.29227209091187	1.0000131130218506
37	180.08235907554626	movie	1		244	35.0	2.5	/experiments/AOT/AOT_stimuli/rescaled_final/0847_rv.mp4	0.0	217.29228520393372	2.4994659423828125
37	180.46555995941162	pulse	1	t		35.0	2.5	/experiments/AOT/AOT_stimuli/rescaled_final/0847_rv.mp4	0.0	217.67548608779907	
37	182.06584215164185	pulse	1	t		35.0	2.5	/experiments/AOT/AOT_stimuli/rescaled_final/0847_rv.mp4	0.0	219.2757682800293	
37	182.58182501792908	fix_post	2		12	35.0	2.5	/experiments/AOT/AOT_stimuli/rescaled_final/0847_rv.mp4	0.0	219.79175114631653	0.10007309913635254
38	182.68189811706543	fix_pre	0		119	36.0	2.5	/experiments/AOT/AOT_stimuli/rescaled_final/0314_fw.mp4	0.0	219.89182424545288	0.9920568466186523
38	183.66589498519897	pulse	0	t		36.0	2.5	/experiments/AOT/AOT_stimuli/rescaled_final/0314_fw.mp4	0.0	220.87582111358643	
38	183.67395496368408	movie	1		248	36.0	2.5	/experiments/AOT/AOT_stimuli/rescaled_final/0314_fw.mp4	0.0	220.88388109207153	2.508082151412964
38	185.2650489807129	pulse	1	t		36.0	2.5	/experiments/AOT/AOT_stimuli/rescaled_final/0314_fw.mp4	0.0	222.47497510910034	
38	186.18203711509705	fix_post	2		12	36.0	2.5	/experiments/AOT/AOT_stimuli/rescaled_final/0314_fw.mp4	0.0	223.3919632434845	0.09997797012329102
39	186.28201508522034	fix_pre	0		120	37.0	2.5	/experiments/AOT/AOT_stimuli/rescaled_final/1233_rv.mp4	0.0	223.4919412136078	1.0005450248718262
39	186.86596202850342	pulse	0	t		37.0	2.5	/experiments/AOT/AOT_stimuli/rescaled_final/1233_rv.mp4	0.0	224.07588815689087	
39	187.28256011009216	movie	1		244	37.0	2.5	/experiments/AOT/AOT_stimuli/rescaled_final/1233_rv.mp4	0.0	224.49248623847961	2.4996750354766846
39	188.46578407287598	pulse	1	t		37.0	2.5	/experiments/AOT/AOT_stimuli/rescaled_final/1233_rv.mp4	0.0	225.67571020126343	
39	189.78223514556885	fix_post	2		12	37.0	2.5	/experiments/AOT/AOT_stimuli/rescaled_final/1233_rv.mp4	0.0	226.9921612739563	0.10016393661499023
40	189.88239908218384	fix_pre	0		120	38.0	2.5	/experiments/AOT/AOT_stimuli/rescaled_final/0358_rv.mp4	0.0	227.0923252105713	0.9999310970306396
40	190.0657570362091	pulse	0	t		38.0	2.5	/experiments/AOT/AOT_stimuli/rescaled_final/0358_rv.mp4	0.0	227.27568316459656	
40	190.88233017921448	movie	1		244	38.0	2.5	/experiments/AOT/AOT_stimuli/rescaled_final/0358_rv.mp4	0.0	228.09225630760193	2.4998879432678223
40	191.66572213172913	pulse	1	t		38.0	2.5	/experiments/AOT/AOT_stimuli/rescaled_final/0358_rv.mp4	0.0	228.87564826011658	
40	193.26421904563904	pulse	1	t		38.0	2.5	/experiments/AOT/AOT_stimuli/rescaled_final/0358_rv.mp4	0.0	230.4741451740265	
40	193.3822181224823	fix_post	2		12	38.0	2.5	/experiments/AOT/AOT_stimuli/rescaled_final/0358_rv.mp4	0.0	230.59214425086975	0.1000669002532959
41	193.4822850227356	fix_pre	0		120	39.0	2.5	/experiments/AOT/AOT_stimuli/rescaled_final/1607_rv.mp4	0.0	230.69221115112305	0.9995830059051514
41	194.48186802864075	movie	1		245	39.0	2.5	/experiments/AOT/AOT_stimuli/rescaled_final/1607_rv.mp4	0.0	231.6917941570282	2.50032114982605
41	194.86540603637695	pulse	1	t		39.0	2.5	/experiments/AOT/AOT_stimuli/rescaled_final/1607_rv.mp4	0.0	232.0753321647644	
41	196.46567296981812	pulse	1	t		39.0	2.5	/experiments/AOT/AOT_stimuli/rescaled_final/1607_rv.mp4	0.0	233.67559909820557	
41	196.9821891784668	fix_post	2		12	39.0	2.5	/experiments/AOT/AOT_stimuli/rescaled_final/1607_rv.mp4	0.0	234.19211530685425	0.0999748706817627
42	197.08216404914856	fix_pre	0		119	40.0	2.5	/experiments/AOT/AOT_stimuli/rescaled_final/1893_rv.mp4	0.0	234.292090177536	0.991786003112793
42	198.0656340122223	pulse	0	t		40.0	2.5	/experiments/AOT/AOT_stimuli/rescaled_final/1893_rv.mp4	0.0	235.27556014060974	
42	198.07395005226135	movie	1		247	40.0	2.5	/experiments/AOT/AOT_stimuli/rescaled_final/1893_rv.mp4	0.0	235.2838761806488	2.5083799362182617
42	199.6658420562744	pulse	1	t		40.0	2.5	/experiments/AOT/AOT_stimuli/rescaled_final/1893_rv.mp4	0.0	236.87576818466187	
42	200.58232998847961	fix_post	2		12	40.0	2.5	/experiments/AOT/AOT_stimuli/rescaled_final/1893_rv.mp4	0.0	237.79225611686707	0.09984397888183594
43	200.68217396736145	fix_pre	0		120	41.0	2.5	blank	1.0	237.8921000957489	0.9999711513519287
43	201.2657070159912	pulse	0	t		41.0	2.5	blank	1.0	238.47563314437866	
43	201.68214511871338	movie	1		300	41.0	2.5	blank	1.0	238.89207124710083	2.500079870223999
43	202.8657500743866	pulse	1	t		41.0	2.5	blank	1.0	240.07567620277405	
43	204.18222498893738	fix_post	2		12	41.0	2.5	blank	1.0	241.39215111732483	0.09992599487304688
44	204.28215098381042	fix_pre	0		120	42.0	2.5	/experiments/AOT/AOT_stimuli/rescaled_final/2173_rv.mp4	0.0	241.49207711219788	0.9996020793914795
44	204.46567296981812	pulse	0	t		42.0	2.5	/experiments/AOT/AOT_stimuli/rescaled_final/2173_rv.mp4	0.0	241.67559909820557	
44	205.2817530632019	movie	1		247	42.0	2.5	/experiments/AOT/AOT_stimuli/rescaled_final/2173_rv.mp4	0.0	242.49167919158936	2.5003418922424316
44	206.0656270980835	pulse	1	t		42.0	2.5	/experiments/AOT/AOT_stimuli/rescaled_final/2173_rv.mp4	0.0	243.27555322647095	
44	207.66542601585388	pulse	1	t		42.0	2.5	/experiments/AOT/AOT_stimuli/rescaled_final/2173_rv.mp4	0.0	244.87535214424133	
44	207.78209495544434	fix_post	2		12	42.0	2.5	/experiments/AOT/AOT_stimuli/rescaled_final/2173_rv.mp4	0.0	244.9920210838318	0.10004019737243652
45	207.88213515281677	fix_pre	0		120	43.0	2.5	/experiments/AOT/AOT_stimuli/rescaled_final/0039_fw.mp4	0.0	245.09206128120422	0.9996910095214844
45	208.88182616233826	movie	1		246	43.0	2.5	/experiments/AOT/AOT_stimuli/rescaled_final/0039_fw.mp4	0.0	246.0917522907257	2.5001578330993652
45	209.2669711112976	pulse	1	t		43.0	2.5	/experiments/AOT/AOT_stimuli/rescaled_final/0039_fw.mp4	0.0	246.47689723968506	
45	210.8657100200653	pulse	1	t		43.0	2.5	/experiments/AOT/AOT_stimuli/rescaled_final/0039_fw.mp4	0.0	248.07563614845276	
45	211.38198399543762	fix_post	2		12	43.0	2.5	/experiments/AOT/AOT_stimuli/rescaled_final/0039_fw.mp4	0.0	248.59191012382507	0.1001741886138916
46	211.4821581840515	fix_pre	0		119	44.0	2.5	/experiments/AOT/AOT_stimuli/rescaled_final/0657_fw.mp4	0.0	248.69208431243896	0.9916799068450928
46	212.46574711799622	pulse	0	t		44.0	2.5	/experiments/AOT/AOT_stimuli/rescaled_final/0657_fw.mp4	0.0	249.67567324638367	
46	212.4738380908966	movie	1		243	44.0	2.5	/experiments/AOT/AOT_stimuli/rescaled_final/0657_fw.mp4	0.0	249.68376421928406	2.5083649158477783
46	214.06523203849792	pulse	1	t		44.0	2.5	/experiments/AOT/AOT_stimuli/rescaled_final/0657_fw.mp4	0.0	251.27515816688538	
46	214.98220300674438	fix_post	2		12	44.0	2.5	/experiments/AOT/AOT_stimuli/rescaled_final/0657_fw.mp4	0.0	252.19212913513184	0.09991908073425293
47	215.08212208747864	fix_pre	0		120	45.0	2.5	/experiments/AOT/AOT_stimuli/rescaled_final/0375_fw.mp4	0.0	252.2920482158661	0.9999699592590332
47	215.66568613052368	pulse	0	t		45.0	2.5	/experiments/AOT/AOT_stimuli/rescaled_final/0375_fw.mp4	0.0	252.87561225891113	
47	216.08209204673767	movie	1		244	45.0	2.5	/experiments/AOT/AOT_stimuli/rescaled_final/0375_fw.mp4	0.0	253.29201817512512	2.499814987182617
47	217.26570510864258	pulse	1	t		45.0	2.5	/experiments/AOT/AOT_stimuli/rescaled_final/0375_fw.mp4	0.0	254.47563123703003	
47	218.5819070339203	fix_post	2		12	45.0	2.5	/experiments/AOT/AOT_stimuli/rescaled_final/0375_fw.mp4	0.0	255.79183316230774	0.10016798973083496
48	218.68207502365112	fix_pre	0		120	46.0	2.5	/experiments/AOT/AOT_stimuli/rescaled_final/1675_fw.mp4	0.0	255.89200115203857	1.0001909732818604
48	218.86567306518555	pulse	0	t		46.0	2.5	/experiments/AOT/AOT_stimuli/rescaled_final/1675_fw.mp4	0.0	256.075599193573	
48	219.68226599693298	movie	1		245	46.0	2.5	/experiments/AOT/AOT_stimuli/rescaled_final/1675_fw.mp4	0.0	256.89219212532043	2.49983811378479
48	220.465646982193	pulse	1	t		46.0	2.5	/experiments/AOT/AOT_stimuli/rescaled_final/1675_fw.mp4	0.0	257.67557311058044	
48	222.06390810012817	pulse	1	t		46.0	2.5	/experiments/AOT/AOT_stimuli/rescaled_final/1675_fw.mp4	0.0	259.2738342285156	
48	222.18210411071777	fix_post	2		12	46.0	2.5	/experiments/AOT/AOT_stimuli/rescaled_final/1675_fw.mp4	0.0	259.3920302391052	0.09968805313110352
49	222.28179216384888	fix_pre	0		120	47.0	2.5	blank	1.0	259.4917182922363	1.0003819465637207
49	223.2821741104126	movie	1		300	47.0	2.5	blank	1.0	260.49210023880005	2.499927043914795
49	223.66567015647888	pulse	1	t		47.0	2.5	blank	1.0	260.87559628486633	
49	225.26563096046448	pulse	1	t		47.0	2.5	blank	1.0	262.47555708885193	
49	225.7821011543274	fix_post	2		12	47.0	2.5	blank	1.0	262.99202728271484	0.09956097602844238
50	225.88166213035583	fix_pre	0		119	48.0	2.5	/experiments/AOT/AOT_stimuli/rescaled_final/1457_rv.mp4	0.0	263.0915882587433	0.9921460151672363
50	226.8656451702118	pulse	0	t		48.0	2.5	/experiments/AOT/AOT_stimuli/rescaled_final/1457_rv.mp4	0.0	264.07557129859924	
50	226.87380814552307	movie	1		245	48.0	2.5	/experiments/AOT/AOT_stimuli/rescaled_final/1457_rv.mp4	0.0	264.0837342739105	2.5078649520874023
50	228.46526217460632	pulse	1	t		48.0	2.5	/experiments/AOT/AOT_stimuli/rescaled_final/1457_rv.mp4	0.0	265.6751883029938	
50	229.38167309761047	fix_post	2		12	48.0	2.5	/experiments/AOT/AOT_stimuli/rescaled_final/1457_rv.mp4	0.0	266.5915992259979	0.10041308403015137
51	229.48208618164062	fix_pre	0		120	49.0	2.5	/experiments/AOT/AOT_stimuli/rescaled_final/1691_fw.mp4	0.0	266.6920123100281	0.9999327659606934
51	230.06558513641357	pulse	0	t		49.0	2.5	/experiments/AOT/AOT_stimuli/rescaled_final/1691_fw.mp4	0.0	267.275511264801	
51	230.48201894760132	movie	1		244	49.0	2.5	/experiments/AOT/AOT_stimuli/rescaled_final/1691_fw.mp4	0.0	267.69194507598877	2.4995741844177246
51	231.6656050682068	pulse	1	t		49.0	2.5	/experiments/AOT/AOT_stimuli/rescaled_final/1691_fw.mp4	0.0	268.87553119659424	
51	232.98159313201904	fix_post	2		12	49.0	2.5	/experiments/AOT/AOT_stimuli/rescaled_final/1691_fw.mp4	0.0	270.1915192604065	0.10041189193725586
52	233.0820050239563	fix_pre	0		120	50.0	2.5	/experiments/AOT/AOT_stimuli/rescaled_final/0182_rv.mp4	0.0	270.29193115234375	0.9996371269226074
52	233.2655851840973	pulse	0	t		50.0	2.5	/experiments/AOT/AOT_stimuli/rescaled_final/0182_rv.mp4	0.0	270.47551131248474	
52	234.0816421508789	movie	1		243	50.0	2.5	/experiments/AOT/AOT_stimuli/rescaled_final/0182_rv.mp4	0.0	271.29156827926636	2.4999189376831055
52	234.8655300140381	pulse	1	t		50.0	2.5	/experiments/AOT/AOT_stimuli/rescaled_final/0182_rv.mp4	0.0	272.07545614242554	
52	236.46375918388367	pulse	1	t		50.0	2.5	/experiments/AOT/AOT_stimuli/rescaled_final/0182_rv.mp4	0.0	273.6736853122711	
52	236.581561088562	fix_post	2		12	50.0	2.5	/experiments/AOT/AOT_stimuli/rescaled_final/0182_rv.mp4	0.0	273.79148721694946	0.1000978946685791
53	236.6816589832306	fix_pre	0		120	51.0	2.5	/experiments/AOT/AOT_stimuli/rescaled_final/0200_fw.mp4	0.0	273.89158511161804	0.9999241828918457
53	237.68158316612244	movie	1		246	51.0	2.5	/experiments/AOT/AOT_stimuli/rescaled_final/0200_fw.mp4	0.0	274.8915092945099	2.5000219345092773
53	238.06525015830994	pulse	1	t		51.0	2.5	/experiments/AOT/AOT_stimuli/rescaled_final/0200_fw.mp4	0.0	275.2751762866974	
53	239.66550517082214	pulse	1	t		51.0	2.5	/experiments/AOT/AOT_stimuli/rescaled_final/0200_fw.mp4	0.0	276.8754312992096	
53	240.1816051006317	fix_post	2		12	51.0	2.5	/experiments/AOT/AOT_stimuli/rescaled_final/0200_fw.mp4	0.0	277.39153122901917	0.10046195983886719
54	240.28206706047058	fix_pre	0		119	52.0	2.5	/experiments/AOT/AOT_stimuli/rescaled_final/0751_fw.mp4	0.0	277.49199318885803	0.9916329383850098
54	241.26519107818604	pulse	0	t		52.0	2.5	/experiments/AOT/AOT_stimuli/rescaled_final/0751_fw.mp4	0.0	278.4751172065735	
54	241.2736999988556	movie	1		249	52.0	2.5	/experiments/AOT/AOT_stimuli/rescaled_final/0751_fw.mp4	0.0	278.48362612724304	2.5083060264587402
54	242.86479210853577	pulse	1	t		52.0	2.5	/experiments/AOT/AOT_stimuli/rescaled_final/0751_fw.mp4	0.0	280.0747182369232	
54	243.78200602531433	fix_post	2		12	52.0	2.5	/experiments/AOT/AOT_stimuli/rescaled_final/0751_fw.mp4	0.0	280.9919321537018	0.0999751091003418
55	243.88198113441467	fix_pre	0		120	53.0	2.5	/experiments/AOT/AOT_stimuli/rescaled_final/0295_fw.mp4	0.0	281.0919072628021	1.000011920928955
55	244.46678495407104	pulse	0	t		53.0	2.5	/experiments/AOT/AOT_stimuli/rescaled_final/0295_fw.mp4	0.0	281.6767110824585	
55	244.88199305534363	movie	1		246	53.0	2.5	/experiments/AOT/AOT_stimuli/rescaled_final/0295_fw.mp4	0.0	282.0919191837311	2.500123977661133
55	246.065612077713	pulse	1	t		53.0	2.5	/experiments/AOT/AOT_stimuli/rescaled_final/0295_fw.mp4	0.0	283.27553820610046	
55	247.38211703300476	fix_post	2		12	53.0	2.5	/experiments/AOT/AOT_stimuli/rescaled_final/0295_fw.mp4	0.0	284.5920431613922	0.09992694854736328
56	247.48204398155212	fix_pre	0		120	54.0	2.5	/experiments/AOT/AOT_stimuli/rescaled_final/1846_fw.mp4	0.0	284.6919701099396	0.9998431205749512
56	247.66545605659485	pulse	0	t		54.0	2.5	/experiments/AOT/AOT_stimuli/rescaled_final/1846_fw.mp4	0.0	284.8753821849823	
56	248.48188710212708	movie	1		243	54.0	2.5	/experiments/AOT/AOT_stimuli/rescaled_final/1846_fw.mp4	0.0	285.6918132305145	2.5000240802764893
56	249.26534509658813	pulse	1	t		54.0	2.5	/experiments/AOT/AOT_stimuli/rescaled_final/1846_fw.mp4	0.0	286.4752712249756	
56	250.86394000053406	pulse	1	t		54.0	2.5	/experiments/AOT/AOT_stimuli/rescaled_final/1846_fw.mp4	0.0	288.0738661289215	
56	250.98191118240356	fix_post	2		12	54.0	2.5	/experiments/AOT/AOT_stimuli/rescaled_final/1846_fw.mp4	0.0	288.191837310791	0.10008597373962402
57	251.0819971561432	fix_pre	0		120	55.0	2.5	blank	1.0	288.29192328453064	0.9999589920043945
57	252.08195614814758	movie	1		300	55.0	2.5	blank	1.0	289.29188227653503	2.4996299743652344
57	252.46542811393738	pulse	1	t		55.0	2.5	blank	1.0	289.67535424232483	
57	254.0654079914093	pulse	1	t		55.0	2.5	blank	1.0	291.27533411979675	
57	254.58158612251282	fix_post	2		12	55.0	2.5	blank	1.0	291.79151225090027	0.10031485557556152
58	254.68190097808838	fix_pre	0		119	56.0	2.5	/experiments/AOT/AOT_stimuli/rescaled_final/2119_rv.mp4	0.0	291.89182710647583	0.9917721748352051
58	255.6653859615326	pulse	0	t		56.0	2.5	/experiments/AOT/AOT_stimuli/rescaled_final/2119_rv.mp4	0.0	292.87531208992004	
58	255.67367315292358	movie	1		250	56.0	2.5	/experiments/AOT/AOT_stimuli/rescaled_final/2119_rv.mp4	0.0	292.88359928131104	2.507891893386841
58	257.2649040222168	pulse	1	t		56.0	2.5	/experiments/AOT/AOT_stimuli/rescaled_final/2119_rv.mp4	0.0	294.47483015060425	
58	258.1815650463104	fix_post	2		12	56.0	2.5	/experiments/AOT/AOT_stimuli/rescaled_final/2119_rv.mp4	0.0	295.3914911746979	0.10035109519958496
59	258.28191614151	fix_pre	0		120	57.0	2.5	/experiments/AOT/AOT_stimuli/rescaled_final/1730_rv.mp4	0.0	295.49184226989746	1.000006914138794
59	258.86539006233215	pulse	0	t		57.0	2.5	/experiments/AOT/AOT_stimuli/rescaled_final/1730_rv.mp4	0.0	296.0753161907196	
59	259.2819230556488	movie	1		244	57.0	2.5	/experiments/AOT/AOT_stimuli/rescaled_final/1730_rv.mp4	0.0	296.49184918403625	2.500059127807617
59	260.4654541015625	pulse	1	t		57.0	2.5	/experiments/AOT/AOT_stimuli/rescaled_final/1730_rv.mp4	0.0	297.67538022994995	
59	261.7819821834564	fix_post	2		12	57.0	2.5	/experiments/AOT/AOT_stimuli/rescaled_final/1730_rv.mp4	0.0	298.9919083118439	0.09990596771240234
60	261.8818881511688	fix_pre	0		120	58.0	2.5	/experiments/AOT/AOT_stimuli/rescaled_final/0182_fw.mp4	0.0	299.0918142795563	0.9996168613433838
60	262.06541204452515	pulse	0	t		58.0	2.5	/experiments/AOT/AOT_stimuli/rescaled_final/0182_fw.mp4	0.0	299.2753381729126	
60	262.8815050125122	movie	1		244	58.0	2.5	/experiments/AOT/AOT_stimuli/rescaled_final/0182_fw.mp4	0.0	300.09143114089966	2.5003809928894043
60	263.6654760837555	pulse	1	t		58.0	2.5	/experiments/AOT/AOT_stimuli/rescaled_final/0182_fw.mp4	0.0	300.87540221214294	
60	265.2640390396118	pulse	1	t		58.0	2.5	/experiments/AOT/AOT_stimuli/rescaled_final/0182_fw.mp4	0.0	302.47396516799927	
60	265.3818860054016	fix_post	2		12	58.0	2.5	/experiments/AOT/AOT_stimuli/rescaled_final/0182_fw.mp4	0.0	302.59181213378906	0.09985017776489258
61	265.4817361831665	fix_pre	0		120	59.0	2.5	/experiments/AOT/AOT_stimuli/rescaled_final/1420_rv.mp4	0.0	302.69166231155396	1.0002448558807373
61	266.48198103904724	movie	1		246	59.0	2.5	/experiments/AOT/AOT_stimuli/rescaled_final/1420_rv.mp4	0.0	303.6919071674347	2.49991512298584
61	266.86508202552795	pulse	1	t		59.0	2.5	/experiments/AOT/AOT_stimuli/rescaled_final/1420_rv.mp4	0.0	304.0750081539154	
61	268.4653170108795	pulse	1	t		59.0	2.5	/experiments/AOT/AOT_stimuli/rescaled_final/1420_rv.mp4	0.0	305.67524313926697	
61	268.9818961620331	fix_post	2		12	59.0	2.5	/experiments/AOT/AOT_stimuli/rescaled_final/1420_rv.mp4	0.0	306.19182229042053	0.0996389389038086
62	269.0815351009369	fix_pre	0		119	60.0	2.5	/experiments/AOT/AOT_stimuli/rescaled_final/1893_rv.mp4	0.0	306.29146122932434	0.9919919967651367
62	270.0654001235962	pulse	0	t		60.0	2.5	/experiments/AOT/AOT_stimuli/rescaled_final/1893_rv.mp4	0.0	307.27532625198364	
62	270.073527097702	movie	1		244	60.0	2.5	/experiments/AOT/AOT_stimuli/rescaled_final/1893_rv.mp4	0.0	307.2834532260895	2.5083749294281006
62	271.6651101112366	pulse	1	t		60.0	2.5	/experiments/AOT/AOT_stimuli/rescaled_final/1893_rv.mp4	0.0	308.875036239624	
62	272.5819020271301	fix_post	2		12	60.0	2.5	/experiments/AOT/AOT_stimuli/rescaled_final/1893_rv.mp4	0.0	309.7918281555176	0.09991192817687988
63	272.681813955307	fix_pre	0		120	61.0	2.5	blank	1.0	309.89174008369446	1.0000150203704834
63	273.26539301872253	pulse	0	t		61.0	2.5	blank	1.0	310.47531914711	
63	273.6818289756775	movie	1		300	61.0	2.5	blank	1.0	310.89175510406494	2.5000081062316895
63	274.8653349876404	pulse	1	t		61.0	2.5	blank	1.0	312.07526111602783	
63	276.1818370819092	fix_post	2		12	61.0	2.5	blank	1.0	313.39176321029663	0.1000070571899414
64	276.2818441390991	fix_pre	0		120	62.0	2.5	/experiments/AOT/AOT_stimuli/rescaled_final/0354_fw.mp4	0.0	313.4917702674866	1.0000150203704834
64	276.4653971195221	pulse	0	t		62.0	2.5	/experiments/AOT/AOT_stimuli/rescaled_final/0354_fw.mp4	0.0	313.67532324790955	
64	277.2818591594696	movie	1		244	62.0	2.5	/experiments/AOT/AOT_stimuli/rescaled_final/0354_fw.mp4	0.0	314.49178528785706	2.5000219345092773
64	278.0653371810913	pulse	1	t		62.0	2.5	/experiments/AOT/AOT_stimuli/rescaled_final/0354_fw.mp4	0.0	315.27526330947876	
64	279.66411995887756	pulse	1	t		62.0	2.5	/experiments/AOT/AOT_stimuli/rescaled_final/0354_fw.mp4	0.0	316.874046087265	
64	279.7818810939789	fix_post	2		12	62.0	2.5	/experiments/AOT/AOT_stimuli/rescaled_final/0354_fw.mp4	0.0	316.99180722236633	0.09990906715393066
65	279.8817901611328	fix_pre	0		120	63.0	2.5	/experiments/AOT/AOT_stimuli/rescaled_final/0314_rv.mp4	0.0	317.09171628952026	1.0001108646392822
65	280.8819010257721	movie	1		244	63.0	2.5	/experiments/AOT/AOT_stimuli/rescaled_final/0314_rv.mp4	0.0	318.09182715415955	2.499936103820801
65	281.2663221359253	pulse	1	t		63.0	2.5	/experiments/AOT/AOT_stimuli/rescaled_final/0314_rv.mp4	0.0	318.47624826431274	
65	282.86537313461304	pulse	1	t		63.0	2.5	/experiments/AOT/AOT_stimuli/rescaled_final/0314_rv.mp4	0.0	320.0752992630005	
65	283.3818371295929	fix_post	2		12	63.0	2.5	/experiments/AOT/AOT_stimuli/rescaled_final/0314_rv.mp4	0.0	320.59176325798035	0.09992504119873047
66	283.4817621707916	fix_pre	0		119	64.0	2.5	/experiments/AOT/AOT_stimuli/rescaled_final/2129_rv.mp4	0.0	320.6916882991791	0.9917118549346924
66	284.4654760360718	pulse	0	t		64.0	2.5	/experiments/AOT/AOT_stimuli/rescaled_final/2129_rv.mp4	0.0	321.67540216445923	
66	284.4734740257263	movie	1		244	64.0	2.5	/experiments/AOT/AOT_stimuli/rescaled_final/2129_rv.mp4	0.0	321.68340015411377	2.5083510875701904
66	286.0650429725647	pulse	1	t		64.0	2.5	/experiments/AOT/AOT_stimuli/rescaled_final/2129_rv.mp4	0.0	323.27496910095215	
66	286.9818251132965	fix_post	2		12	64.0	2.5	/experiments/AOT/AOT_stimuli/rescaled_final/2129_rv.mp4	0.0	324.19175124168396	0.09996294975280762
67	287.0817880630493	fix_pre	0		120	65.0	2.5	/experiments/AOT/AOT_stimuli/rescaled_final/0279_fw.mp4	0.0	324.29171419143677	1.0000779628753662
67	287.66543197631836	pulse	0	t		65.0	2.5	/experiments/AOT/AOT_stimuli/rescaled_final/0279_fw.mp4	0.0	324.8753581047058	
67	288.0818660259247	movie	1		244	65.0	2.5	/experiments/AOT/AOT_stimuli/rescaled_final/0279_fw.mp4	0.0	325.29179215431213	2.4994759559631348
67	289.2653319835663	pulse	1	t		65.0	2.5	/experiments/AOT/AOT_stimuli/rescaled_final/0279_fw.mp4	0.0	326.47525811195374	
67	290.5813419818878	fix_post	2		12	65.0	2.5	/experiments/AOT/AOT_stimuli/rescaled_final/0279_fw.mp4	0.0	327.79126811027527	0.10050797462463379
68	290.68184995651245	fix_pre	0		120	66.0	2.5	/experiments/AOT/AOT_stimuli/rescaled_final/1934_fw.mp4	0.0	327.8917760848999	0.9998950958251953
68	290.8653140068054	pulse	0	t		66.0	2.5	/experiments/AOT/AOT_stimuli/rescaled_final/1934_fw.mp4	0.0	328.07524013519287	
68	291.68174505233765	movie	1		242	66.0	2.5	/experiments/AOT/AOT_stimuli/rescaled_final/1934_fw.mp4	0.0	328.8916711807251	2.499988079071045
68	292.46530199050903	pulse	1	t		66.0	2.5	/experiments/AOT/AOT_stimuli/rescaled_final/1934_fw.mp4	0.0	329.6752281188965	
68	294.06388306617737	pulse	1	t		66.0	2.5	/experiments/AOT/AOT_stimuli/rescaled_final/1934_fw.mp4	0.0	331.2738091945648	
68	294.1817331314087	fix_post	2		12	66.0	2.5	/experiments/AOT/AOT_stimuli/rescaled_final/1934_fw.mp4	0.0	331.39165925979614	0.09965205192565918
69	294.28138518333435	fix_pre	0		120	67.0	2.5	/experiments/AOT/AOT_stimuli/rescaled_final/0035_rv.mp4	0.0	331.4913113117218	1.000403881072998
69	295.28178906440735	movie	1		246	67.0	2.5	/experiments/AOT/AOT_stimuli/rescaled_final/0035_rv.mp4	0.0	332.4917151927948	2.499756097793579
69	295.66497802734375	pulse	1	t		67.0	2.5	/experiments/AOT/AOT_stimuli/rescaled_final/0035_rv.mp4	0.0	332.8749041557312	
69	297.2649281024933	pulse	1	t		67.0	2.5	/experiments/AOT/AOT_stimuli/rescaled_final/0035_rv.mp4	0.0	334.47485423088074	
69	297.7815451622009	fix_post	2		12	67.0	2.5	/experiments/AOT/AOT_stimuli/rescaled_final/0035_rv.mp4	0.0	334.9914712905884	0.0999147891998291
70	297.88145995140076	fix_pre	0		119	68.0	2.5	/experiments/AOT/AOT_stimuli/rescaled_final/1725_fw.mp4	0.0	335.0913860797882	0.9922580718994141
70	298.86505818367004	pulse	0	t		68.0	2.5	/experiments/AOT/AOT_stimuli/rescaled_final/1725_fw.mp4	0.0	336.0749843120575	
70	298.87371802330017	movie	1		244	68.0	2.5	/experiments/AOT/AOT_stimuli/rescaled_final/1725_fw.mp4	0.0	336.0836441516876	2.507538080215454
70	300.46490502357483	pulse	1	t		68.0	2.5	/experiments/AOT/AOT_stimuli/rescaled_final/1725_fw.mp4	0.0	337.6748311519623	
70	301.3812561035156	fix_post	2		12	68.0	2.5	/experiments/AOT/AOT_stimuli/rescaled_final/1725_fw.mp4	0.0	338.5911822319031	0.10008096694946289
71	301.4813370704651	fix_pre	0		120	69.0	2.5	blank	1.0	338.69126319885254	1.0004239082336426
71	302.06526708602905	pulse	0	t		69.0	2.5	blank	1.0	339.2751932144165	
71	302.48176097869873	movie	1		300	69.0	2.5	blank	1.0	339.6916871070862	2.4999451637268066
71	303.6653079986572	pulse	1	t		69.0	2.5	blank	1.0	340.8752341270447	
71	304.98170614242554	fix_post	2		12	69.0	2.5	blank	1.0	342.191632270813	0.10007190704345703
72	305.081778049469	fix_pre	0		120	70.0	2.5	/experiments/AOT/AOT_stimuli/rescaled_final/2119_fw.mp4	0.0	342.29170417785645	1.0000951290130615
72	305.2651960849762	pulse	0	t		70.0	2.5	/experiments/AOT/AOT_stimuli/rescaled_final/2119_fw.mp4	0.0	342.47512221336365	
72	306.08187317848206	movie	1		252	70.0	2.5	/experiments/AOT/AOT_stimuli/rescaled_final/2119_fw.mp4	0.0	343.2917993068695	2.4998397827148438
72	306.86518716812134	pulse	1	t		70.0	2.5	/experiments/AOT/AOT_stimuli/rescaled_final/2119_fw.mp4	0.0	344.0751132965088	
72	308.4652190208435	pulse	1	t		70.0	2.5	/experiments/AOT/AOT_stimuli/rescaled_final/2119_fw.mp4	0.0	345.67514514923096	
72	308.5817129611969	fix_post	2		12	70.0	2.5	/experiments/AOT/AOT_stimuli/rescaled_final/2119_fw.mp4	0.0	345.79163908958435	0.09998202323913574
73	308.68169498443604	fix_pre	0		120	71.0	2.5	/experiments/AOT/AOT_stimuli/rescaled_final/0089_fw.mp4	0.0	345.8916211128235	0.999981164932251
73	309.6816761493683	movie	1		247	71.0	2.5	/experiments/AOT/AOT_stimuli/rescaled_final/0089_fw.mp4	0.0	346.89160227775574	2.499969005584717
73	310.06510400772095	pulse	1	t		71.0	2.5	/experiments/AOT/AOT_stimuli/rescaled_final/0089_fw.mp4	0.0	347.2750301361084	
73	311.66519713401794	pulse	1	t		71.0	2.5	/experiments/AOT/AOT_stimuli/rescaled_final/0089_fw.mp4	0.0	348.8751232624054	
73	312.181645154953	fix_post	2		12	71.0	2.5	/experiments/AOT/AOT_stimuli/rescaled_final/0089_fw.mp4	0.0	349.39157128334045	0.09990596771240234
74	312.2815511226654	fix_pre	0		119	72.0	2.5	/experiments/AOT/AOT_stimuli/rescaled_final/1047_rv.mp4	0.0	349.49147725105286	0.9918699264526367
74	313.26520013809204	pulse	0	t		72.0	2.5	/experiments/AOT/AOT_stimuli/rescaled_final/1047_rv.mp4	0.0	350.4751262664795	
74	313.27342104911804	movie	1		246	72.0	2.5	/experiments/AOT/AOT_stimuli/rescaled_final/1047_rv.mp4	0.0	350.4833471775055	2.5081660747528076
74	314.8647201061249	pulse	1	t		72.0	2.5	/experiments/AOT/AOT_stimuli/rescaled_final/1047_rv.mp4	0.0	352.07464623451233	
74	315.78158712387085	fix_post	2		12	72.0	2.5	/experiments/AOT/AOT_stimuli/rescaled_final/1047_rv.mp4	0.0	352.9915132522583	0.1000669002532959
75	315.88165402412415	fix_pre	0		120	73.0	2.5	/experiments/AOT/AOT_stimuli/rescaled_final/0867_fw.mp4	0.0	353.0915801525116	0.9996600151062012
75	316.4652211666107	pulse	0	t		73.0	2.5	/experiments/AOT/AOT_stimuli/rescaled_final/0867_fw.mp4	0.0	353.67514729499817	
75	316.88131403923035	movie	1		243	73.0	2.5	/experiments/AOT/AOT_stimuli/rescaled_final/0867_fw.mp4	0.0	354.0912401676178	2.5003421306610107
75	318.06525707244873	pulse	1	t		73.0	2.5	/experiments/AOT/AOT_stimuli/rescaled_final/0867_fw.mp4	0.0	355.2751832008362	
75	319.38165616989136	fix_post	2		12	73.0	2.5	/experiments/AOT/AOT_stimuli/rescaled_final/0867_fw.mp4	0.0	356.5915822982788	0.09999394416809082
76	319.48165011405945	fix_pre	0		120	74.0	2.5	/experiments/AOT/AOT_stimuli/rescaled_final/0295_rv.mp4	0.0	356.6915762424469	1.0000529289245605
76	319.66518998146057	pulse	0	t		74.0	2.5	/experiments/AOT/AOT_stimuli/rescaled_final/0295_rv.mp4	0.0	356.875116109848	
76	320.481703042984	movie	1		244	74.0	2.5	/experiments/AOT/AOT_stimuli/rescaled_final/0295_rv.mp4	0.0	357.69162917137146	2.4999959468841553
76	321.2650351524353	pulse	1	t		74.0	2.5	/experiments/AOT/AOT_stimuli/rescaled_final/0295_rv.mp4	0.0	358.47496128082275	
76	322.86355996131897	pulse	1	t		74.0	2.5	/experiments/AOT/AOT_stimuli/rescaled_final/0295_rv.mp4	0.0	360.0734860897064	
76	322.98169898986816	fix_post	2		12	74.0	2.5	/experiments/AOT/AOT_stimuli/rescaled_final/0295_rv.mp4	0.0	360.1916251182556	0.0999290943145752
77	323.08162808418274	fix_pre	0		120	75.0	2.5	/experiments/AOT/AOT_stimuli/rescaled_final/0054_rv.mp4	0.0	360.2915542125702	0.9999310970306396
77	324.0815591812134	movie	1		244	75.0	2.5	/experiments/AOT/AOT_stimuli/rescaled_final/0054_rv.mp4	0.0	361.29148530960083	2.500105857849121
77	324.46613907814026	pulse	1	t		75.0	2.5	/experiments/AOT/AOT_stimuli/rescaled_final/0054_rv.mp4	0.0	361.6760652065277	
77	326.06513500213623	pulse	1	t		75.0	2.5	/experiments/AOT/AOT_stimuli/rescaled_final/0054_rv.mp4	0.0	363.2750611305237	
77	326.5816650390625	fix_post	2		12	75.0	2.5	/experiments/AOT/AOT_stimuli/rescaled_final/0054_rv.mp4	0.0	363.79159116744995	0.09999394416809082
78	326.6816589832306	fix_pre	0		119	76.0	2.5	blank	1.0	363.89158511161804	0.9916219711303711
78	327.66513299942017	pulse	0	t		76.0	2.5	blank	1.0	364.8750591278076	
78	327.67328095436096	movie	1		301	76.0	2.5	blank	1.0	364.8832070827484	2.507958173751831
78	329.2652530670166	pulse	1	t		76.0	2.5	blank	1.0	366.47517919540405	
78	330.1812391281128	fix_post	2		12	76.0	2.5	blank	1.0	367.39116525650024	0.10035490989685059
79	330.28159403800964	fix_pre	0		120	77.0	2.5	/experiments/AOT/AOT_stimuli/rescaled_final/1725_fw.mp4	0.0	367.4915201663971	1.0000450611114502
79	330.86514496803284	pulse	0	t		77.0	2.5	/experiments/AOT/AOT_stimuli/rescaled_final/1725_fw.mp4	0.0	368.0750710964203	
79	331.2816390991211	movie	1		243	77.0	2.5	/experiments/AOT/AOT_stimuli/rescaled_final/1725_fw.mp4	0.0	368.49156522750854	2.4995830059051514
79	332.46524310112	pulse	1	t		77.0	2.5	/experiments/AOT/AOT_stimuli/rescaled_final/1725_fw.mp4	0.0	369.67516922950745	
79	333.78122210502625	fix_post	2		12	77.0	2.5	/experiments/AOT/AOT_stimuli/rescaled_final/1725_fw.mp4	0.0	370.9911482334137	0.09991598129272461
80	333.88113808631897	fix_pre	0		120	78.0	2.5	/experiments/AOT/AOT_stimuli/rescaled_final/2160_fw.mp4	0.0	371.0910642147064	1.0005440711975098
80	334.0651340484619	pulse	0	t		78.0	2.5	/experiments/AOT/AOT_stimuli/rescaled_final/2160_fw.mp4	0.0	371.27506017684937	
80	334.8816821575165	movie	1		246	78.0	2.5	/experiments/AOT/AOT_stimuli/rescaled_final/2160_fw.mp4	0.0	372.09160828590393	2.499492883682251
80	335.6651260852814	pulse	1	t		78.0	2.5	/experiments/AOT/AOT_stimuli/rescaled_final/2160_fw.mp4	0.0	372.8750522136688	
80	337.26391100883484	pulse	1	t		78.0	2.5	/experiments/AOT/AOT_stimuli/rescaled_final/2160_fw.mp4	0.0	374.4738371372223	
80	337.38117504119873	fix_post	2		12	78.0	2.5	/experiments/AOT/AOT_stimuli/rescaled_final/2160_fw.mp4	0.0	374.5911011695862	0.10041499137878418
81	337.4815900325775	fix_pre	0		120	79.0	2.5	/experiments/AOT/AOT_stimuli/rescaled_final/1318_rv.mp4	0.0	374.69151616096497	1.0000009536743164
81	338.48159098625183	movie	1		245	79.0	2.5	/experiments/AOT/AOT_stimuli/rescaled_final/1318_rv.mp4	0.0	375.6915171146393	2.4995861053466797
81	338.86494302749634	pulse	1	t		79.0	2.5	/experiments/AOT/AOT_stimuli/rescaled_final/1318_rv.mp4	0.0	376.0748691558838	
81	340.465056180954	pulse	1	t		79.0	2.5	/experiments/AOT/AOT_stimuli/rescaled_final/1318_rv.mp4	0.0	377.67498230934143	
81	340.9811770915985	fix_post	2		12	79.0	2.5	/experiments/AOT/AOT_stimuli/rescaled_final/1318_rv.mp4	0.0	378.19110321998596	0.10040998458862305
82	341.08158707618713	fix_pre	0		119	80.0	2.5	/experiments/AOT/AOT_stimuli/rescaled_final/0325_rv.mp4	0.0	378.2915132045746	0.9916799068450928
82	342.0651431083679	pulse	0	t		80.0	2.5	/experiments/AOT/AOT_stimuli/rescaled_final/0325_rv.mp4	0.0	379.27506923675537	
82	342.0732669830322	movie	1		244	80.0	2.5	/experiments/AOT/AOT_stimuli/rescaled_final/0325_rv.mp4	0.0	379.2831931114197	2.5082831382751465
82	343.6653251647949	pulse	1	t		80.0	2.5	/experiments/AOT/AOT_stimuli/rescaled_final/0325_rv.mp4	0.0	380.8752512931824	
82	344.5815501213074	fix_post	2		12	80.0	2.5	/experiments/AOT/AOT_stimuli/rescaled_final/0325_rv.mp4	0.0	381.7914762496948	0.09998297691345215
83	344.6815330982208	fix_pre	0		120	81.0	2.5	/experiments/AOT/AOT_stimuli/rescaled_final/2169_fw.mp4	0.0	381.8914592266083	1.000014066696167
83	345.2651209831238	pulse	0	t		81.0	2.5	/experiments/AOT/AOT_stimuli/rescaled_final/2169_fw.mp4	0.0	382.47504711151123	
83	345.681547164917	movie	1		243	81.0	2.5	/experiments/AOT/AOT_stimuli/rescaled_final/2169_fw.mp4	0.0	382.89147329330444	2.5000247955322266
83	346.86519598960876	pulse	1	t		81.0	2.5	/experiments/AOT/AOT_stimuli/rescaled_final/2169_fw.mp4	0.0	384.0751221179962	
83	348.1815719604492	fix_post	2		12	81.0	2.5	/experiments/AOT/AOT_stimuli/rescaled_final/2169_fw.mp4	0.0	385.39149808883667	0.09958600997924805
84	348.28115797042847	fix_pre	0		120	82.0	2.5	/experiments/AOT/AOT_stimuli/rescaled_final/0156_rv.mp4	0.0	385.4910840988159	1.000352144241333
84	348.46520495414734	pulse	0	t		82.0	2.5	/experiments/AOT/AOT_stimuli/rescaled_final/0156_rv.mp4	0.0	385.6751310825348	
84	349.2815101146698	movie	1		244	82.0	2.5	/experiments/AOT/AOT_stimuli/rescaled_final/0156_rv.mp4	0.0	386.49143624305725	2.4997129440307617
84	350.0650420188904	pulse	1	t		82.0	2.5	/experiments/AOT/AOT_stimuli/rescaled_final/0156_rv.mp4	0.0	387.27496814727783	
84	351.66355895996094	pulse	1	t		82.0	2.5	/experiments/AOT/AOT_stimuli/rescaled_final/0156_rv.mp4	0.0	388.8734850883484	
84	351.78122305870056	fix_post	2		12	82.0	2.5	/experiments/AOT/AOT_stimuli/rescaled_final/0156_rv.mp4	0.0	388.991149187088	0.09995794296264648
85	351.8811810016632	fix_pre	0		120	83.0	2.5	blank	1.0	389.09110713005066	1.0003230571746826
85	352.8815040588379	movie	1		300	83.0	2.5	blank	1.0	390.09143018722534	2.500498056411743
85	353.26466512680054	pulse	1	t		83.0	2.5	blank	1.0	390.474591255188	
85	354.86528611183167	pulse	1	t		83.0	2.5	blank	1.0	392.0752122402191	
85	355.38200211524963	fix_post	2		12	83.0	2.5	blank	1.0	392.5919282436371	0.09949898719787598
87	355.4815011024475	stim	0		1716					392.69142723083496	14.3000328540802
87	356.46511006355286	pulse	0	t						393.6750361919403	
87	358.06503105163574	pulse	0	t						395.2749571800232	
87	359.66499614715576	pulse	0	t						396.8749222755432	
87	361.2649531364441	pulse	0	t						398.47487926483154	
87	362.8649740219116	pulse	0	t						400.0749001502991	
87	364.46504402160645	pulse	0	t						401.6749701499939	
87	366.06496715545654	pulse	0	t						403.274893283844	
87	367.66499495506287	pulse	0	t						404.8749210834503	
87	369.26495695114136	pulse	0	t						406.4748830795288	
