trial_nr	onset	event_type	phase	response	nr_frames	movie_index	movie_duration	movie_file	blank	onset_abs	duration
0	0.17489910125732422	stim	0		46					17.59482979774475	0.3833296298980713
0	0.5502955913543701	response	0	space						17.970226287841797	
1	0.5582287311553955	stim	0		4735					17.978159427642822	39.474607706069946
1	40.02308797836304	pulse	0	t						57.443018674850464	
1	40.03283643722534	stim	1		1715					57.45276713371277	14.300149202346802
1	41.60688495635986	pulse	1	t						59.02681565284729	
1	43.20701217651367	pulse	1	t						60.6269428730011	
1	44.80691695213318	pulse	1	t						62.226847648620605	
1	46.40707015991211	pulse	1	t						63.827000856399536	
1	48.00737762451172	pulse	1	t						65.42730832099915	
1	49.607516050338745	pulse	1	t						67.02744674682617	
1	51.20774459838867	pulse	1	t						68.6276752948761	
1	52.807942390441895	pulse	1	t						70.22787308692932	
2	54.332985639572144	fix_pre	0		10	0.0	2.5	/experiments/knapen_AOT/AOT_stimuli/rescaled_final/1642_fw.mp4	0.0	71.75291633605957	0.10010957717895508
2	54.408307790756226	pulse	0	t		0.0	2.5	/experiments/knapen_AOT/AOT_stimuli/rescaled_final/1642_fw.mp4	0.0	71.82823848724365	
2	54.4330952167511	movie	1		282	0.0	2.5	/experiments/knapen_AOT/AOT_stimuli/rescaled_final/1642_fw.mp4	0.0	71.85302591323853	2.491980791091919
2	56.00695872306824	pulse	1	t		0.0	2.5	/experiments/knapen_AOT/AOT_stimuli/rescaled_final/1642_fw.mp4	0.0	73.42688941955566	
2	56.92507600784302	fix_post	2		12	0.0	2.5	/experiments/knapen_AOT/AOT_stimuli/rescaled_final/1642_fw.mp4	0.0	74.34500670433044	0.10001134872436523
3	57.02508735656738	fix_pre	0		120	1.0	2.5	/experiments/knapen_AOT/AOT_stimuli/rescaled_final/1405_fw.mp4	0.0	74.44501805305481	1.008476734161377
3	57.608664989471436	pulse	0	t		1.0	2.5	/experiments/knapen_AOT/AOT_stimuli/rescaled_final/1405_fw.mp4	0.0	75.02859568595886	
3	58.03356409072876	movie	1		286	1.0	2.5	/experiments/knapen_AOT/AOT_stimuli/rescaled_final/1405_fw.mp4	0.0	75.45349478721619	2.4920241832733154
3	59.208927154541016	pulse	1	t		1.0	2.5	/experiments/knapen_AOT/AOT_stimuli/rescaled_final/1405_fw.mp4	0.0	76.62885785102844	
3	60.525588274002075	fix_post	2		12	1.0	2.5	/experiments/knapen_AOT/AOT_stimuli/rescaled_final/1405_fw.mp4	0.0	77.9455189704895	0.10001754760742188
4	60.6256058216095	fix_pre	0		120	2.0	2.5	/experiments/knapen_AOT/AOT_stimuli/rescaled_final/0293_fw.mp4	0.0	78.04553651809692	1.008518934249878
4	60.8091938495636	pulse	0	t		2.0	2.5	/experiments/knapen_AOT/AOT_stimuli/rescaled_final/0293_fw.mp4	0.0	78.22912454605103	
4	61.634124755859375	movie	1		280	2.0	2.5	/experiments/knapen_AOT/AOT_stimuli/rescaled_final/0293_fw.mp4	0.0	79.0540554523468	2.5004477500915527
4	62.40720224380493	pulse	1	t		2.0	2.5	/experiments/knapen_AOT/AOT_stimuli/rescaled_final/0293_fw.mp4	0.0	79.82713294029236	
4	64.00867319107056	pulse	1	t		2.0	2.5	/experiments/knapen_AOT/AOT_stimuli/rescaled_final/0293_fw.mp4	0.0	81.42860388755798	
4	64.13457250595093	fix_post	2		11	2.0	2.5	/experiments/knapen_AOT/AOT_stimuli/rescaled_final/0293_fw.mp4	0.0	81.55450320243835	0.09179186820983887
5	64.22636437416077	fix_pre	0		120	3.0	2.5	/experiments/knapen_AOT/AOT_stimuli/rescaled_final/0756_rv.mp4	0.0	81.6462950706482	1.0082886219024658
5	65.23465299606323	movie	1		285	3.0	2.5	/experiments/knapen_AOT/AOT_stimuli/rescaled_final/0756_rv.mp4	0.0	82.65458369255066	2.4920783042907715
5	65.60810947418213	pulse	1	t		3.0	2.5	/experiments/knapen_AOT/AOT_stimuli/rescaled_final/0756_rv.mp4	0.0	83.02804017066956	
5	67.20827579498291	pulse	1	t		3.0	2.5	/experiments/knapen_AOT/AOT_stimuli/rescaled_final/0756_rv.mp4	0.0	84.62820649147034	
5	67.726731300354	fix_post	2		12	3.0	2.5	/experiments/knapen_AOT/AOT_stimuli/rescaled_final/0756_rv.mp4	0.0	85.14666199684143	0.09998536109924316
6	67.82671666145325	fix_pre	0		119	4.0	2.5	/experiments/knapen_AOT/AOT_stimuli/rescaled_final/1774_rv.mp4	0.0	85.24664735794067	1.0001752376556396
6	68.81041240692139	pulse	0	t		4.0	2.5	/experiments/knapen_AOT/AOT_stimuli/rescaled_final/1774_rv.mp4	0.0	86.23034310340881	
6	68.82689189910889	movie	1		289	4.0	2.5	/experiments/knapen_AOT/AOT_stimuli/rescaled_final/1774_rv.mp4	0.0	86.24682259559631	2.5003342628479004
6	70.40910196304321	pulse	1	t		4.0	2.5	/experiments/knapen_AOT/AOT_stimuli/rescaled_final/1774_rv.mp4	0.0	87.82903265953064	
6	71.32722616195679	fix_post	2		12	4.0	2.5	/experiments/knapen_AOT/AOT_stimuli/rescaled_final/1774_rv.mp4	0.0	88.74715685844421	0.10003232955932617
7	71.42725849151611	fix_pre	0		120	5.0	2.5	/experiments/knapen_AOT/AOT_stimuli/rescaled_final/0237_fw.mp4	0.0	88.84718918800354	1.0084788799285889
7	72.01085042953491	pulse	0	t		5.0	2.5	/experiments/knapen_AOT/AOT_stimuli/rescaled_final/0237_fw.mp4	0.0	89.43078112602234	
7	72.4357373714447	movie	1		282	5.0	2.5	/experiments/knapen_AOT/AOT_stimuli/rescaled_final/0237_fw.mp4	0.0	89.85566806793213	2.492027521133423
7	73.60994267463684	pulse	1	t		5.0	2.5	/experiments/knapen_AOT/AOT_stimuli/rescaled_final/0237_fw.mp4	0.0	91.02987337112427	
7	74.92776489257812	fix_post	2		12	5.0	2.5	/experiments/knapen_AOT/AOT_stimuli/rescaled_final/0237_fw.mp4	0.0	92.34769558906555	0.09998893737792969
8	75.02775382995605	fix_pre	0		120	6.0	2.5	blank	1.0	92.44768452644348	1.0001800060272217
8	75.21132683753967	pulse	0	t		6.0	2.5	blank	1.0	92.6312575340271	
8	76.02793383598328	movie	1		300	6.0	2.5	blank	1.0	93.4478645324707	2.500408887863159
8	76.81157755851746	pulse	1	t		6.0	2.5	blank	1.0	94.23150825500488	
8	78.4118103981018	pulse	1	t		6.0	2.5	blank	1.0	95.83174109458923	
8	78.52834272384644	fix_post	2		12	6.0	2.5	blank	1.0	95.94827342033386	0.09997725486755371
9	78.62831997871399	fix_pre	0		120	7.0	2.5	/experiments/knapen_AOT/AOT_stimuli/rescaled_final/1895_fw.mp4	0.0	96.04825067520142	1.0085039138793945
9	79.63682389259338	movie	1		284	7.0	2.5	/experiments/knapen_AOT/AOT_stimuli/rescaled_final/1895_fw.mp4	0.0	97.05675458908081	2.4920217990875244
9	80.01035690307617	pulse	1	t		7.0	2.5	/experiments/knapen_AOT/AOT_stimuli/rescaled_final/1895_fw.mp4	0.0	97.4302875995636	
9	81.61011695861816	pulse	1	t		7.0	2.5	/experiments/knapen_AOT/AOT_stimuli/rescaled_final/1895_fw.mp4	0.0	99.03004765510559	
9	82.12884569168091	fix_post	2		12	7.0	2.5	/experiments/knapen_AOT/AOT_stimuli/rescaled_final/1895_fw.mp4	0.0	99.54877638816833	0.10005021095275879
10	82.22889590263367	fix_pre	0		119	8.0	2.5	/experiments/knapen_AOT/AOT_stimuli/rescaled_final/0930_rv.mp4	0.0	99.6488265991211	1.0001170635223389
10	83.21253442764282	pulse	0	t		8.0	2.5	/experiments/knapen_AOT/AOT_stimuli/rescaled_final/0930_rv.mp4	0.0	100.63246512413025	
10	83.229012966156	movie	1		276	8.0	2.5	/experiments/knapen_AOT/AOT_stimuli/rescaled_final/0930_rv.mp4	0.0	100.64894366264343	2.500394821166992
10	84.81095004081726	pulse	1	t		8.0	2.5	/experiments/knapen_AOT/AOT_stimuli/rescaled_final/0930_rv.mp4	0.0	102.23088073730469	
10	85.729407787323	fix_post	2		12	8.0	2.5	/experiments/knapen_AOT/AOT_stimuli/rescaled_final/0930_rv.mp4	0.0	103.14933848381042	0.1000971794128418
11	85.82950496673584	fix_pre	0		120	9.0	2.5	/experiments/knapen_AOT/AOT_stimuli/rescaled_final/1002_fw.mp4	0.0	103.24943566322327	1.0084052085876465
11	86.41305232048035	pulse	0	t		9.0	2.5	/experiments/knapen_AOT/AOT_stimuli/rescaled_final/1002_fw.mp4	0.0	103.83298301696777	
11	86.83791017532349	movie	1		272	9.0	2.5	/experiments/knapen_AOT/AOT_stimuli/rescaled_final/1002_fw.mp4	0.0	104.25784087181091	2.4920129776000977
11	88.01196074485779	pulse	1	t		9.0	2.5	/experiments/knapen_AOT/AOT_stimuli/rescaled_final/1002_fw.mp4	0.0	105.43189144134521	
11	89.32992315292358	fix_post	2		12	9.0	2.5	/experiments/knapen_AOT/AOT_stimuli/rescaled_final/1002_fw.mp4	0.0	106.74985384941101	0.10007834434509277
12	89.43000149726868	fix_pre	0		120	10.0	2.5	/experiments/knapen_AOT/AOT_stimuli/rescaled_final/0084_rv.mp4	0.0	106.8499321937561	1.008479118347168
12	89.613516330719	pulse	0	t		10.0	2.5	/experiments/knapen_AOT/AOT_stimuli/rescaled_final/0084_rv.mp4	0.0	107.03344702720642	
12	90.43848061561584	movie	1		285	10.0	2.5	/experiments/knapen_AOT/AOT_stimuli/rescaled_final/0084_rv.mp4	0.0	107.85841131210327	2.492013931274414
12	91.21167159080505	pulse	1	t		10.0	2.5	/experiments/knapen_AOT/AOT_stimuli/rescaled_final/0084_rv.mp4	0.0	108.63160228729248	
12	92.81196308135986	pulse	1	t		10.0	2.5	/experiments/knapen_AOT/AOT_stimuli/rescaled_final/0084_rv.mp4	0.0	110.23189377784729	
12	92.93049454689026	fix_post	2		12	10.0	2.5	/experiments/knapen_AOT/AOT_stimuli/rescaled_final/0084_rv.mp4	0.0	110.35042524337769	0.09999752044677734
13	93.03049206733704	fix_pre	0		120	11.0	2.5	/experiments/knapen_AOT/AOT_stimuli/rescaled_final/1793_fw.mp4	0.0	110.45042276382446	1.0085132122039795
13	94.03900527954102	movie	1		286	11.0	2.5	/experiments/knapen_AOT/AOT_stimuli/rescaled_final/1793_fw.mp4	0.0	111.45893597602844	2.4919803142547607
13	94.41250252723694	pulse	1	t		11.0	2.5	/experiments/knapen_AOT/AOT_stimuli/rescaled_final/1793_fw.mp4	0.0	111.83243322372437	
13	96.01232981681824	pulse	1	t		11.0	2.5	/experiments/knapen_AOT/AOT_stimuli/rescaled_final/1793_fw.mp4	0.0	113.43226051330566	
13	96.53098559379578	fix_post	2		12	11.0	2.5	/experiments/knapen_AOT/AOT_stimuli/rescaled_final/1793_fw.mp4	0.0	113.9509162902832	0.10001707077026367
14	96.63100266456604	fix_pre	0		119	12.0	2.5	/experiments/knapen_AOT/AOT_stimuli/rescaled_final/1834_rv.mp4	0.0	114.05093336105347	1.0002024173736572
14	97.6147735118866	pulse	0	t		12.0	2.5	/experiments/knapen_AOT/AOT_stimuli/rescaled_final/1834_rv.mp4	0.0	115.03470420837402	
14	97.6312050819397	movie	1		284	12.0	2.5	/experiments/knapen_AOT/AOT_stimuli/rescaled_final/1834_rv.mp4	0.0	115.05113577842712	2.5003294944763184
14	99.21315121650696	pulse	1	t		12.0	2.5	/experiments/knapen_AOT/AOT_stimuli/rescaled_final/1834_rv.mp4	0.0	116.63308191299438	
14	100.13153457641602	fix_post	2		12	12.0	2.5	/experiments/knapen_AOT/AOT_stimuli/rescaled_final/1834_rv.mp4	0.0	117.55146527290344	0.1000208854675293
15	100.23155546188354	fix_pre	0		120	13.0	2.5	/experiments/knapen_AOT/AOT_stimuli/rescaled_final/1708_fw.mp4	0.0	117.65148615837097	1.008531093597412
15	100.80751848220825	pulse	0	t		13.0	2.5	/experiments/knapen_AOT/AOT_stimuli/rescaled_final/1708_fw.mp4	0.0	118.22744917869568	
15	101.24008655548096	movie	1		279	13.0	2.5	/experiments/knapen_AOT/AOT_stimuli/rescaled_final/1708_fw.mp4	0.0	118.66001725196838	2.500356674194336
15	102.40745449066162	pulse	1	t		13.0	2.5	/experiments/knapen_AOT/AOT_stimuli/rescaled_final/1708_fw.mp4	0.0	119.82738518714905	
15	103.7404432296753	fix_post	2		11	13.0	2.5	/experiments/knapen_AOT/AOT_stimuli/rescaled_final/1708_fw.mp4	0.0	121.16037392616272	0.09170842170715332
16	103.83215165138245	fix_pre	0		120	14.0	2.5	blank	1.0	121.25208234786987	1.0001111030578613
16	104.00747203826904	pulse	0	t		14.0	2.5	blank	1.0	121.42740273475647	
16	104.83226275444031	movie	1		300	14.0	2.5	blank	1.0	122.25219345092773	2.5003607273101807
16	105.6076147556305	pulse	1	t		14.0	2.5	blank	1.0	123.02754545211792	
16	107.20787024497986	pulse	1	t		14.0	2.5	blank	1.0	124.62780094146729	
16	107.33262348175049	fix_post	2		12	14.0	2.5	blank	1.0	124.75255417823792	0.1000218391418457
17	107.43264532089233	fix_pre	0		120	15.0	2.5	/experiments/knapen_AOT/AOT_stimuli/rescaled_final/1936_fw.mp4	0.0	124.85257601737976	1.0086429119110107
17	108.44128823280334	movie	1		278	15.0	2.5	/experiments/knapen_AOT/AOT_stimuli/rescaled_final/1936_fw.mp4	0.0	125.86121892929077	2.491964817047119
17	108.80931067466736	pulse	1	t		15.0	2.5	/experiments/knapen_AOT/AOT_stimuli/rescaled_final/1936_fw.mp4	0.0	126.22924137115479	
17	110.40761423110962	pulse	1	t		15.0	2.5	/experiments/knapen_AOT/AOT_stimuli/rescaled_final/1936_fw.mp4	0.0	127.82754492759705	
17	110.93325304985046	fix_post	2		12	15.0	2.5	/experiments/knapen_AOT/AOT_stimuli/rescaled_final/1936_fw.mp4	0.0	128.3531837463379	0.09993886947631836
18	111.03319191932678	fix_pre	0		118	16.0	2.5	/experiments/knapen_AOT/AOT_stimuli/rescaled_final/1619_rv.mp4	0.0	128.4531226158142	0.991851806640625
18	112.00883030891418	pulse	0	t		16.0	2.5	/experiments/knapen_AOT/AOT_stimuli/rescaled_final/1619_rv.mp4	0.0	129.4287610054016	
18	112.02504372596741	movie	1		279	16.0	2.5	/experiments/knapen_AOT/AOT_stimuli/rescaled_final/1619_rv.mp4	0.0	129.44497442245483	2.5003373622894287
18	113.608966588974	pulse	1	t		16.0	2.5	/experiments/knapen_AOT/AOT_stimuli/rescaled_final/1619_rv.mp4	0.0	131.02889728546143	
18	114.52538108825684	fix_post	2		12	16.0	2.5	/experiments/knapen_AOT/AOT_stimuli/rescaled_final/1619_rv.mp4	0.0	131.94531178474426	0.10005044937133789
19	114.62543153762817	fix_pre	0		120	17.0	2.5	/experiments/knapen_AOT/AOT_stimuli/rescaled_final/0970_rv.mp4	0.0	132.0453622341156	1.008474349975586
19	115.20913100242615	pulse	0	t		17.0	2.5	/experiments/knapen_AOT/AOT_stimuli/rescaled_final/0970_rv.mp4	0.0	132.62906169891357	
19	115.63390588760376	movie	1		281	17.0	2.5	/experiments/knapen_AOT/AOT_stimuli/rescaled_final/0970_rv.mp4	0.0	133.0538365840912	2.4920873641967773
19	116.807443857193	pulse	1	t		17.0	2.5	/experiments/knapen_AOT/AOT_stimuli/rescaled_final/0970_rv.mp4	0.0	134.22737455368042	
19	118.12599325180054	fix_post	2		12	17.0	2.5	/experiments/knapen_AOT/AOT_stimuli/rescaled_final/0970_rv.mp4	0.0	135.54592394828796	0.0999605655670166
20	118.22595381736755	fix_pre	0		120	18.0	2.5	/experiments/knapen_AOT/AOT_stimuli/rescaled_final/0143_fw.mp4	0.0	135.64588451385498	1.0084693431854248
20	118.40962147712708	pulse	0	t		18.0	2.5	/experiments/knapen_AOT/AOT_stimuli/rescaled_final/0143_fw.mp4	0.0	135.8295521736145	
20	119.23442316055298	movie	1		275	18.0	2.5	/experiments/knapen_AOT/AOT_stimuli/rescaled_final/0143_fw.mp4	0.0	136.6543538570404	2.492047071456909
20	120.00749158859253	pulse	1	t		18.0	2.5	/experiments/knapen_AOT/AOT_stimuli/rescaled_final/0143_fw.mp4	0.0	137.42742228507996	
20	121.60772609710693	pulse	1	t		18.0	2.5	/experiments/knapen_AOT/AOT_stimuli/rescaled_final/0143_fw.mp4	0.0	139.02765679359436	
20	121.72647023200989	fix_post	2		12	18.0	2.5	/experiments/knapen_AOT/AOT_stimuli/rescaled_final/0143_fw.mp4	0.0	139.14640092849731	0.10002684593200684
21	121.8264970779419	fix_pre	0		120	19.0	2.5	/experiments/knapen_AOT/AOT_stimuli/rescaled_final/0730_fw.mp4	0.0	139.24642777442932	1.0084936618804932
21	122.83499073982239	movie	1		283	19.0	2.5	/experiments/knapen_AOT/AOT_stimuli/rescaled_final/0730_fw.mp4	0.0	140.25492143630981	2.49202561378479
21	123.20874190330505	pulse	1	t		19.0	2.5	/experiments/knapen_AOT/AOT_stimuli/rescaled_final/0730_fw.mp4	0.0	140.62867259979248	
21	124.8084065914154	pulse	1	t		19.0	2.5	/experiments/knapen_AOT/AOT_stimuli/rescaled_final/0730_fw.mp4	0.0	142.22833728790283	
21	125.32701635360718	fix_post	2		12	19.0	2.5	/experiments/knapen_AOT/AOT_stimuli/rescaled_final/0730_fw.mp4	0.0	142.7469470500946	0.10002970695495605
22	125.42704606056213	fix_pre	0		119	20.0	2.5	/experiments/knapen_AOT/AOT_stimuli/rescaled_final/0410_fw.mp4	0.0	142.84697675704956	1.000171422958374
22	126.41072535514832	pulse	0	t		20.0	2.5	/experiments/knapen_AOT/AOT_stimuli/rescaled_final/0410_fw.mp4	0.0	143.83065605163574	
22	126.42721748352051	movie	1		285	20.0	2.5	/experiments/knapen_AOT/AOT_stimuli/rescaled_final/0410_fw.mp4	0.0	143.84714818000793	2.500333070755005
22	128.0111060142517	pulse	1	t		20.0	2.5	/experiments/knapen_AOT/AOT_stimuli/rescaled_final/0410_fw.mp4	0.0	145.43103671073914	
22	128.9275505542755	fix_post	2		12	20.0	2.5	/experiments/knapen_AOT/AOT_stimuli/rescaled_final/0410_fw.mp4	0.0	146.34748125076294	0.10013842582702637
23	129.02768898010254	fix_pre	0		120	21.0	2.5	blank	1.0	146.44761967658997	1.000028371810913
23	129.6111946105957	pulse	0	t		21.0	2.5	blank	1.0	147.03112530708313	
23	130.02771735191345	movie	1		300	21.0	2.5	blank	1.0	147.44764804840088	2.5003926753997803
23	131.2114851474762	pulse	1	t		21.0	2.5	blank	1.0	148.63141584396362	
23	132.52811002731323	fix_post	2		12	21.0	2.5	blank	1.0	149.94804072380066	0.10003185272216797
24	132.6281418800354	fix_pre	0		120	22.0	2.5	/experiments/knapen_AOT/AOT_stimuli/rescaled_final/0794_fw.mp4	0.0	150.04807257652283	1.0084726810455322
24	132.81172132492065	pulse	0	t		22.0	2.5	/experiments/knapen_AOT/AOT_stimuli/rescaled_final/0794_fw.mp4	0.0	150.23165202140808	
24	133.63661456108093	movie	1		281	22.0	2.5	/experiments/knapen_AOT/AOT_stimuli/rescaled_final/0794_fw.mp4	0.0	151.05654525756836	2.492018461227417
24	134.41059923171997	pulse	1	t		22.0	2.5	/experiments/knapen_AOT/AOT_stimuli/rescaled_final/0794_fw.mp4	0.0	151.8305299282074	
24	136.01140642166138	pulse	1	t		22.0	2.5	/experiments/knapen_AOT/AOT_stimuli/rescaled_final/0794_fw.mp4	0.0	153.4313371181488	
24	136.12863302230835	fix_post	2		12	22.0	2.5	/experiments/knapen_AOT/AOT_stimuli/rescaled_final/0794_fw.mp4	0.0	153.54856371879578	0.10002827644348145
25	136.22866129875183	fix_pre	0		120	23.0	2.5	/experiments/knapen_AOT/AOT_stimuli/rescaled_final/1310_rv.mp4	0.0	153.64859199523926	1.0084826946258545
25	137.23714399337769	movie	1		276	23.0	2.5	/experiments/knapen_AOT/AOT_stimuli/rescaled_final/1310_rv.mp4	0.0	154.6570746898651	2.4920623302459717
25	137.610759973526	pulse	1	t		23.0	2.5	/experiments/knapen_AOT/AOT_stimuli/rescaled_final/1310_rv.mp4	0.0	155.03069067001343	
25	139.2126750946045	pulse	1	t		23.0	2.5	/experiments/knapen_AOT/AOT_stimuli/rescaled_final/1310_rv.mp4	0.0	156.63260579109192	
25	139.72920632362366	fix_post	2		12	23.0	2.5	/experiments/knapen_AOT/AOT_stimuli/rescaled_final/1310_rv.mp4	0.0	157.14913702011108	0.10004568099975586
26	139.8292520046234	fix_pre	0		119	24.0	2.5	/experiments/knapen_AOT/AOT_stimuli/rescaled_final/0317_fw.mp4	0.0	157.24918270111084	1.0000927448272705
26	140.81289219856262	pulse	0	t		24.0	2.5	/experiments/knapen_AOT/AOT_stimuli/rescaled_final/0317_fw.mp4	0.0	158.23282289505005	
26	140.82934474945068	movie	1		283	24.0	2.5	/experiments/knapen_AOT/AOT_stimuli/rescaled_final/0317_fw.mp4	0.0	158.2492754459381	2.5003650188446045
26	142.4112470149994	pulse	1	t		24.0	2.5	/experiments/knapen_AOT/AOT_stimuli/rescaled_final/0317_fw.mp4	0.0	159.83117771148682	
26	143.3297097682953	fix_post	2		12	24.0	2.5	/experiments/knapen_AOT/AOT_stimuli/rescaled_final/0317_fw.mp4	0.0	160.74964046478271	0.10001730918884277
27	143.42972707748413	fix_pre	0		120	25.0	2.5	/experiments/knapen_AOT/AOT_stimuli/rescaled_final/1976_fw.mp4	0.0	160.84965777397156	1.0085186958312988
27	144.01336359977722	pulse	0	t		25.0	2.5	/experiments/knapen_AOT/AOT_stimuli/rescaled_final/1976_fw.mp4	0.0	161.43329429626465	
27	144.43824577331543	movie	1		284	25.0	2.5	/experiments/knapen_AOT/AOT_stimuli/rescaled_final/1976_fw.mp4	0.0	161.85817646980286	2.4920318126678467
27	145.61163067817688	pulse	1	t		25.0	2.5	/experiments/knapen_AOT/AOT_stimuli/rescaled_final/1976_fw.mp4	0.0	163.0315613746643	
27	146.93027758598328	fix_post	2		12	25.0	2.5	/experiments/knapen_AOT/AOT_stimuli/rescaled_final/1976_fw.mp4	0.0	164.3502082824707	0.1000206470489502
28	147.03029823303223	fix_pre	0		120	26.0	2.5	/experiments/knapen_AOT/AOT_stimuli/rescaled_final/1002_rv.mp4	0.0	164.45022892951965	1.0085053443908691
28	147.2138488292694	pulse	0	t		26.0	2.5	/experiments/knapen_AOT/AOT_stimuli/rescaled_final/1002_rv.mp4	0.0	164.63377952575684	
28	148.0388035774231	movie	1		283	26.0	2.5	/experiments/knapen_AOT/AOT_stimuli/rescaled_final/1002_rv.mp4	0.0	165.45873427391052	2.4919848442077637
28	148.81334042549133	pulse	1	t		26.0	2.5	/experiments/knapen_AOT/AOT_stimuli/rescaled_final/1002_rv.mp4	0.0	166.23327112197876	
28	150.4122986793518	pulse	1	t		26.0	2.5	/experiments/knapen_AOT/AOT_stimuli/rescaled_final/1002_rv.mp4	0.0	167.83222937583923	
28	150.53078842163086	fix_post	2		12	26.0	2.5	/experiments/knapen_AOT/AOT_stimuli/rescaled_final/1002_rv.mp4	0.0	167.9507191181183	0.10009384155273438
29	150.6308822631836	fix_pre	0		120	27.0	2.5	/experiments/knapen_AOT/AOT_stimuli/rescaled_final/1315_fw.mp4	0.0	168.05081295967102	1.0085482597351074
29	151.6394305229187	movie	1		278	27.0	2.5	/experiments/knapen_AOT/AOT_stimuli/rescaled_final/1315_fw.mp4	0.0	169.05936121940613	2.4919302463531494
29	152.0147943496704	pulse	1	t		27.0	2.5	/experiments/knapen_AOT/AOT_stimuli/rescaled_final/1315_fw.mp4	0.0	169.43472504615784	
29	153.61266112327576	pulse	1	t		27.0	2.5	/experiments/knapen_AOT/AOT_stimuli/rescaled_final/1315_fw.mp4	0.0	171.03259181976318	
29	154.13136076927185	fix_post	2		12	27.0	2.5	/experiments/knapen_AOT/AOT_stimuli/rescaled_final/1315_fw.mp4	0.0	171.55129146575928	0.10001158714294434
30	154.2313723564148	fix_pre	0		119	28.0	2.5	blank	1.0	171.65130305290222	0.9918010234832764
30	155.21507811546326	pulse	0	t		28.0	2.5	blank	1.0	172.63500881195068	
30	155.22317337989807	movie	1		301	28.0	2.5	blank	1.0	172.6431040763855	2.508695125579834
30	156.81531357765198	pulse	1	t		28.0	2.5	blank	1.0	174.2352442741394	
30	157.7318685054779	fix_post	2		12	28.0	2.5	blank	1.0	175.15179920196533	0.10002660751342773
31	157.83189511299133	fix_pre	0		120	29.0	2.5	/experiments/knapen_AOT/AOT_stimuli/rescaled_final/1566_rv.mp4	0.0	175.25182580947876	1.0085210800170898
31	158.40761280059814	pulse	0	t		29.0	2.5	/experiments/knapen_AOT/AOT_stimuli/rescaled_final/1566_rv.mp4	0.0	175.82754349708557	
31	158.84041619300842	movie	1		285	29.0	2.5	/experiments/knapen_AOT/AOT_stimuli/rescaled_final/1566_rv.mp4	0.0	176.26034688949585	2.491987705230713
31	160.00790929794312	pulse	1	t		29.0	2.5	/experiments/knapen_AOT/AOT_stimuli/rescaled_final/1566_rv.mp4	0.0	177.42783999443054	
31	161.33240389823914	fix_post	2		12	29.0	2.5	/experiments/knapen_AOT/AOT_stimuli/rescaled_final/1566_rv.mp4	0.0	178.75233459472656	0.10016584396362305
32	161.43256974220276	fix_pre	0		120	30.0	2.5	/experiments/knapen_AOT/AOT_stimuli/rescaled_final/1915_rv.mp4	0.0	178.85250043869019	1.0083692073822021
32	161.60831713676453	pulse	0	t		30.0	2.5	/experiments/knapen_AOT/AOT_stimuli/rescaled_final/1915_rv.mp4	0.0	179.02824783325195	
32	162.44093894958496	movie	1		287	30.0	2.5	/experiments/knapen_AOT/AOT_stimuli/rescaled_final/1915_rv.mp4	0.0	179.8608696460724	2.4920127391815186
32	163.20787262916565	pulse	1	t		30.0	2.5	/experiments/knapen_AOT/AOT_stimuli/rescaled_final/1915_rv.mp4	0.0	180.62780332565308	
32	164.8081250190735	pulse	1	t		30.0	2.5	/experiments/knapen_AOT/AOT_stimuli/rescaled_final/1915_rv.mp4	0.0	182.2280557155609	
32	164.93295168876648	fix_post	2		12	30.0	2.5	/experiments/knapen_AOT/AOT_stimuli/rescaled_final/1915_rv.mp4	0.0	182.3528823852539	0.10006403923034668
33	165.03301572799683	fix_pre	0		120	31.0	2.5	/experiments/knapen_AOT/AOT_stimuli/rescaled_final/1218_rv.mp4	0.0	182.45294642448425	1.0084924697875977
33	166.04150819778442	movie	1		286	31.0	2.5	/experiments/knapen_AOT/AOT_stimuli/rescaled_final/1218_rv.mp4	0.0	183.46143889427185	2.491973876953125
33	166.4085578918457	pulse	1	t		31.0	2.5	/experiments/knapen_AOT/AOT_stimuli/rescaled_final/1218_rv.mp4	0.0	183.82848858833313	
33	168.0086121559143	pulse	1	t		31.0	2.5	/experiments/knapen_AOT/AOT_stimuli/rescaled_final/1218_rv.mp4	0.0	185.42854285240173	
33	168.53348207473755	fix_post	2		12	31.0	2.5	/experiments/knapen_AOT/AOT_stimuli/rescaled_final/1218_rv.mp4	0.0	185.95341277122498	0.10003066062927246
34	168.63351273536682	fix_pre	0		118	32.0	2.5	/experiments/knapen_AOT/AOT_stimuli/rescaled_final/0491_fw.mp4	0.0	186.05344343185425	0.9918313026428223
34	169.60894298553467	pulse	0	t		32.0	2.5	/experiments/knapen_AOT/AOT_stimuli/rescaled_final/0491_fw.mp4	0.0	187.0288736820221	
34	169.62534403800964	movie	1		292	32.0	2.5	/experiments/knapen_AOT/AOT_stimuli/rescaled_final/0491_fw.mp4	0.0	187.04527473449707	2.5003669261932373
34	171.20916628837585	pulse	1	t		32.0	2.5	/experiments/knapen_AOT/AOT_stimuli/rescaled_final/0491_fw.mp4	0.0	188.62909698486328	
34	172.12571096420288	fix_post	2		12	32.0	2.5	/experiments/knapen_AOT/AOT_stimuli/rescaled_final/0491_fw.mp4	0.0	189.5456416606903	0.10001897811889648
35	172.22572994232178	fix_pre	0		120	33.0	2.5	/experiments/knapen_AOT/AOT_stimuli/rescaled_final/0427_rv.mp4	0.0	189.6456606388092	1.0085797309875488
35	172.8095738887787	pulse	0	t		33.0	2.5	/experiments/knapen_AOT/AOT_stimuli/rescaled_final/0427_rv.mp4	0.0	190.2295045852661	
35	173.23430967330933	movie	1		281	33.0	2.5	/experiments/knapen_AOT/AOT_stimuli/rescaled_final/0427_rv.mp4	0.0	190.65424036979675	2.491938352584839
35	174.40986967086792	pulse	1	t		33.0	2.5	/experiments/knapen_AOT/AOT_stimuli/rescaled_final/0427_rv.mp4	0.0	191.82980036735535	
35	175.72624802589417	fix_post	2		12	33.0	2.5	/experiments/knapen_AOT/AOT_stimuli/rescaled_final/0427_rv.mp4	0.0	193.1461787223816	0.10004663467407227
36	175.82629466056824	fix_pre	0		120	34.0	2.5	/experiments/knapen_AOT/AOT_stimuli/rescaled_final/0138_rv.mp4	0.0	193.24622535705566	1.0084998607635498
36	176.00985550880432	pulse	0	t		34.0	2.5	/experiments/knapen_AOT/AOT_stimuli/rescaled_final/0138_rv.mp4	0.0	193.42978620529175	
36	176.8347945213318	movie	1		283	34.0	2.5	/experiments/knapen_AOT/AOT_stimuli/rescaled_final/0138_rv.mp4	0.0	194.2547252178192	2.4920265674591064
36	177.60984444618225	pulse	1	t		34.0	2.5	/experiments/knapen_AOT/AOT_stimuli/rescaled_final/0138_rv.mp4	0.0	195.02977514266968	
36	179.2084836959839	pulse	1	t		34.0	2.5	/experiments/knapen_AOT/AOT_stimuli/rescaled_final/0138_rv.mp4	0.0	196.6284143924713	
36	179.3268210887909	fix_post	2		12	34.0	2.5	/experiments/knapen_AOT/AOT_stimuli/rescaled_final/0138_rv.mp4	0.0	196.74675178527832	0.10003113746643066
37	179.42685222625732	fix_pre	0		120	35.0	2.5	blank	1.0	196.84678292274475	1.0001277923583984
37	180.42698001861572	movie	1		300	35.0	2.5	blank	1.0	197.84691071510315	2.500335216522217
37	180.8105435371399	pulse	1	t		35.0	2.5	blank	1.0	198.23047423362732	
37	182.41075944900513	pulse	1	t		35.0	2.5	blank	1.0	199.83069014549255	
37	182.92731523513794	fix_post	2		12	35.0	2.5	blank	1.0	200.34724593162537	0.10009551048278809
38	183.02741074562073	fix_pre	0		119	36.0	2.5	/experiments/knapen_AOT/AOT_stimuli/rescaled_final/1870_fw.mp4	0.0	200.44734144210815	1.0000898838043213
38	184.0110378265381	pulse	0	t		36.0	2.5	/experiments/knapen_AOT/AOT_stimuli/rescaled_final/1870_fw.mp4	0.0	201.4309685230255	
38	184.02750062942505	movie	1		276	36.0	2.5	/experiments/knapen_AOT/AOT_stimuli/rescaled_final/1870_fw.mp4	0.0	201.44743132591248	2.5003883838653564
38	185.60960459709167	pulse	1	t		36.0	2.5	/experiments/knapen_AOT/AOT_stimuli/rescaled_final/1870_fw.mp4	0.0	203.0295352935791	
38	186.5278890132904	fix_post	2		12	36.0	2.5	/experiments/knapen_AOT/AOT_stimuli/rescaled_final/1870_fw.mp4	0.0	203.94781970977783	0.10002875328063965
39	186.62791776657104	fix_pre	0		120	37.0	2.5	/experiments/knapen_AOT/AOT_stimuli/rescaled_final/1204_fw.mp4	0.0	204.04784846305847	1.0084953308105469
39	187.21150708198547	pulse	0	t		37.0	2.5	/experiments/knapen_AOT/AOT_stimuli/rescaled_final/1204_fw.mp4	0.0	204.6314377784729	
39	187.6364130973816	movie	1		287	37.0	2.5	/experiments/knapen_AOT/AOT_stimuli/rescaled_final/1204_fw.mp4	0.0	205.05634379386902	2.4920060634613037
39	188.80976247787476	pulse	1	t		37.0	2.5	/experiments/knapen_AOT/AOT_stimuli/rescaled_final/1204_fw.mp4	0.0	206.22969317436218	
39	190.1284191608429	fix_post	2		12	37.0	2.5	/experiments/knapen_AOT/AOT_stimuli/rescaled_final/1204_fw.mp4	0.0	207.54834985733032	0.10002517700195312
40	190.22844433784485	fix_pre	0		120	38.0	2.5	/experiments/knapen_AOT/AOT_stimuli/rescaled_final/1004_rv.mp4	0.0	207.64837503433228	1.0084993839263916
40	190.4119610786438	pulse	0	t		38.0	2.5	/experiments/knapen_AOT/AOT_stimuli/rescaled_final/1004_rv.mp4	0.0	207.83189177513123	
40	191.23694372177124	movie	1		290	38.0	2.5	/experiments/knapen_AOT/AOT_stimuli/rescaled_final/1004_rv.mp4	0.0	208.65687441825867	2.492030620574951
40	192.01019549369812	pulse	1	t		38.0	2.5	/experiments/knapen_AOT/AOT_stimuli/rescaled_final/1004_rv.mp4	0.0	209.43012619018555	
40	193.61024594306946	pulse	1	t		38.0	2.5	/experiments/knapen_AOT/AOT_stimuli/rescaled_final/1004_rv.mp4	0.0	211.03017663955688	
40	193.7289743423462	fix_post	2		12	38.0	2.5	/experiments/knapen_AOT/AOT_stimuli/rescaled_final/1004_rv.mp4	0.0	211.14890503883362	0.10004043579101562
41	193.8290147781372	fix_pre	0		120	39.0	2.5	/experiments/knapen_AOT/AOT_stimuli/rescaled_final/1858_rv.mp4	0.0	211.24894547462463	1.008483648300171
41	194.83749842643738	movie	1		282	39.0	2.5	/experiments/knapen_AOT/AOT_stimuli/rescaled_final/1858_rv.mp4	0.0	212.2574291229248	2.4920432567596436
41	195.21225333213806	pulse	1	t		39.0	2.5	/experiments/knapen_AOT/AOT_stimuli/rescaled_final/1858_rv.mp4	0.0	212.6321840286255	
41	196.81173586845398	pulse	1	t		39.0	2.5	/experiments/knapen_AOT/AOT_stimuli/rescaled_final/1858_rv.mp4	0.0	214.2316665649414	
41	197.32954168319702	fix_post	2		12	39.0	2.5	/experiments/knapen_AOT/AOT_stimuli/rescaled_final/1858_rv.mp4	0.0	214.74947237968445	0.10003352165222168
42	197.42957520484924	fix_pre	0		119	40.0	2.5	/experiments/knapen_AOT/AOT_stimuli/rescaled_final/2012_rv.mp4	0.0	214.84950590133667	1.000117540359497
42	198.413241147995	pulse	0	t		40.0	2.5	/experiments/knapen_AOT/AOT_stimuli/rescaled_final/2012_rv.mp4	0.0	215.83317184448242	
42	198.42969274520874	movie	1		289	40.0	2.5	/experiments/knapen_AOT/AOT_stimuli/rescaled_final/2012_rv.mp4	0.0	215.84962344169617	2.5003743171691895
42	200.01170182228088	pulse	1	t		40.0	2.5	/experiments/knapen_AOT/AOT_stimuli/rescaled_final/2012_rv.mp4	0.0	217.4316325187683	
42	200.93006706237793	fix_post	2		12	40.0	2.5	/experiments/knapen_AOT/AOT_stimuli/rescaled_final/2012_rv.mp4	0.0	218.34999775886536	0.10000205039978027
43	201.0300691127777	fix_pre	0		120	41.0	2.5	blank	1.0	218.44999980926514	1.000166654586792
43	201.61369705200195	pulse	0	t		41.0	2.5	blank	1.0	219.03362774848938	
43	202.0302357673645	movie	1		300	41.0	2.5	blank	1.0	219.45016646385193	2.500351905822754
43	203.2141251564026	pulse	1	t		41.0	2.5	blank	1.0	220.63405585289001	
43	204.53058767318726	fix_post	2		12	41.0	2.5	blank	1.0	221.95051836967468	0.10003900527954102
44	204.6306266784668	fix_pre	0		120	42.0	2.5	/experiments/knapen_AOT/AOT_stimuli/rescaled_final/1638_fw.mp4	0.0	222.05055737495422	1.0084900856018066
44	204.80764412879944	pulse	0	t		42.0	2.5	/experiments/knapen_AOT/AOT_stimuli/rescaled_final/1638_fw.mp4	0.0	222.22757482528687	
44	205.6391167640686	movie	1		283	42.0	2.5	/experiments/knapen_AOT/AOT_stimuli/rescaled_final/1638_fw.mp4	0.0	223.05904746055603	2.4920730590820312
44	206.4123237133026	pulse	1	t		42.0	2.5	/experiments/knapen_AOT/AOT_stimuli/rescaled_final/1638_fw.mp4	0.0	223.83225440979004	
44	208.0125756263733	pulse	1	t		42.0	2.5	/experiments/knapen_AOT/AOT_stimuli/rescaled_final/1638_fw.mp4	0.0	225.43250632286072	
44	208.13118982315063	fix_post	2		12	42.0	2.5	/experiments/knapen_AOT/AOT_stimuli/rescaled_final/1638_fw.mp4	0.0	225.55112051963806	0.09997701644897461
45	208.2311668395996	fix_pre	0		120	43.0	2.5	/experiments/knapen_AOT/AOT_stimuli/rescaled_final/1915_fw.mp4	0.0	225.65109753608704	1.0085015296936035
45	209.2396683692932	movie	1		285	43.0	2.5	/experiments/knapen_AOT/AOT_stimuli/rescaled_final/1915_fw.mp4	0.0	226.65959906578064	2.492004156112671
45	209.61353087425232	pulse	1	t		43.0	2.5	/experiments/knapen_AOT/AOT_stimuli/rescaled_final/1915_fw.mp4	0.0	227.03346157073975	
45	211.20710062980652	pulse	1	t		43.0	2.5	/experiments/knapen_AOT/AOT_stimuli/rescaled_final/1915_fw.mp4	0.0	228.62703132629395	
45	211.73167252540588	fix_post	2		12	43.0	2.5	/experiments/knapen_AOT/AOT_stimuli/rescaled_final/1915_fw.mp4	0.0	229.1516032218933	0.10002493858337402
46	211.83169746398926	fix_pre	0		118	44.0	2.5	/experiments/knapen_AOT/AOT_stimuli/rescaled_final/1629_rv.mp4	0.0	229.25162816047668	0.9918131828308105
46	212.8071732521057	pulse	0	t		44.0	2.5	/experiments/knapen_AOT/AOT_stimuli/rescaled_final/1629_rv.mp4	0.0	230.22710394859314	
46	212.82351064682007	movie	1		280	44.0	2.5	/experiments/knapen_AOT/AOT_stimuli/rescaled_final/1629_rv.mp4	0.0	230.2434413433075	2.500371217727661
46	214.4074409008026	pulse	1	t		44.0	2.5	/experiments/knapen_AOT/AOT_stimuli/rescaled_final/1629_rv.mp4	0.0	231.82737159729004	
46	215.32388186454773	fix_post	2		12	44.0	2.5	/experiments/knapen_AOT/AOT_stimuli/rescaled_final/1629_rv.mp4	0.0	232.74381256103516	0.10006546974182129
47	215.42394733428955	fix_pre	0		120	45.0	2.5	/experiments/knapen_AOT/AOT_stimuli/rescaled_final/1177_rv.mp4	0.0	232.84387803077698	1.008469581604004
47	216.00757837295532	pulse	0	t		45.0	2.5	/experiments/knapen_AOT/AOT_stimuli/rescaled_final/1177_rv.mp4	0.0	233.42750906944275	
47	216.43241691589355	movie	1		267	45.0	2.5	/experiments/knapen_AOT/AOT_stimuli/rescaled_final/1177_rv.mp4	0.0	233.85234761238098	2.4920036792755127
47	217.60778093338013	pulse	1	t		45.0	2.5	/experiments/knapen_AOT/AOT_stimuli/rescaled_final/1177_rv.mp4	0.0	235.02771162986755	
47	218.92442059516907	fix_post	2		12	45.0	2.5	/experiments/knapen_AOT/AOT_stimuli/rescaled_final/1177_rv.mp4	0.0	236.3443512916565	0.10002422332763672
48	219.0244448184967	fix_pre	0		120	46.0	2.5	/experiments/knapen_AOT/AOT_stimuli/rescaled_final/0002_rv.mp4	0.0	236.44437551498413	1.0084917545318604
48	219.20801782608032	pulse	0	t		46.0	2.5	/experiments/knapen_AOT/AOT_stimuli/rescaled_final/0002_rv.mp4	0.0	236.62794852256775	
48	220.03293657302856	movie	1		279	46.0	2.5	/experiments/knapen_AOT/AOT_stimuli/rescaled_final/0002_rv.mp4	0.0	237.452867269516	2.492015838623047
48	220.80825209617615	pulse	1	t		46.0	2.5	/experiments/knapen_AOT/AOT_stimuli/rescaled_final/0002_rv.mp4	0.0	238.22818279266357	
48	222.4085247516632	pulse	1	t		46.0	2.5	/experiments/knapen_AOT/AOT_stimuli/rescaled_final/0002_rv.mp4	0.0	239.82845544815063	
48	222.5249524116516	fix_post	2		12	46.0	2.5	/experiments/knapen_AOT/AOT_stimuli/rescaled_final/0002_rv.mp4	0.0	239.94488310813904	0.10002994537353516
49	222.62498235702515	fix_pre	0		120	47.0	2.5	blank	1.0	240.04491305351257	1.0001685619354248
49	223.62515091896057	movie	1		300	47.0	2.5	blank	1.0	241.045081615448	2.500364303588867
49	224.0087423324585	pulse	1	t		47.0	2.5	blank	1.0	241.42867302894592	
49	225.60896182060242	pulse	1	t		47.0	2.5	blank	1.0	243.02889251708984	
49	226.12551522254944	fix_post	2		12	47.0	2.5	blank	1.0	243.54544591903687	0.10001373291015625
50	226.2255289554596	fix_pre	0		119	48.0	2.5	/experiments/knapen_AOT/AOT_stimuli/rescaled_final/1569_fw.mp4	0.0	243.64545965194702	1.0001468658447266
50	227.20917463302612	pulse	0	t		48.0	2.5	/experiments/knapen_AOT/AOT_stimuli/rescaled_final/1569_fw.mp4	0.0	244.62910532951355	
50	227.22567582130432	movie	1		290	48.0	2.5	/experiments/knapen_AOT/AOT_stimuli/rescaled_final/1569_fw.mp4	0.0	244.64560651779175	2.5003697872161865
50	228.80774235725403	pulse	1	t		48.0	2.5	/experiments/knapen_AOT/AOT_stimuli/rescaled_final/1569_fw.mp4	0.0	246.22767305374146	
50	229.7260456085205	fix_post	2		12	48.0	2.5	/experiments/knapen_AOT/AOT_stimuli/rescaled_final/1569_fw.mp4	0.0	247.14597630500793	0.10002946853637695
51	229.82607507705688	fix_pre	0		120	49.0	2.5	/experiments/knapen_AOT/AOT_stimuli/rescaled_final/1501_fw.mp4	0.0	247.2460057735443	1.0085203647613525
51	230.40974497795105	pulse	0	t		49.0	2.5	/experiments/knapen_AOT/AOT_stimuli/rescaled_final/1501_fw.mp4	0.0	247.82967567443848	
51	230.83459544181824	movie	1		293	49.0	2.5	/experiments/knapen_AOT/AOT_stimuli/rescaled_final/1501_fw.mp4	0.0	248.25452613830566	2.4919960498809814
51	232.00793051719666	pulse	1	t		49.0	2.5	/experiments/knapen_AOT/AOT_stimuli/rescaled_final/1501_fw.mp4	0.0	249.42786121368408	
51	233.32659149169922	fix_post	2		12	49.0	2.5	/experiments/knapen_AOT/AOT_stimuli/rescaled_final/1501_fw.mp4	0.0	250.74652218818665	0.10001063346862793
52	233.42660212516785	fix_pre	0		120	50.0	2.5	/experiments/knapen_AOT/AOT_stimuli/rescaled_final/1594_rv.mp4	0.0	250.84653282165527	1.0086164474487305
52	233.6101713180542	pulse	0	t		50.0	2.5	/experiments/knapen_AOT/AOT_stimuli/rescaled_final/1594_rv.mp4	0.0	251.03010201454163	
52	234.43521857261658	movie	1		287	50.0	2.5	/experiments/knapen_AOT/AOT_stimuli/rescaled_final/1594_rv.mp4	0.0	251.855149269104	2.4919021129608154
52	235.2084846496582	pulse	1	t		50.0	2.5	/experiments/knapen_AOT/AOT_stimuli/rescaled_final/1594_rv.mp4	0.0	252.62841534614563	
52	236.8085687160492	pulse	1	t		50.0	2.5	/experiments/knapen_AOT/AOT_stimuli/rescaled_final/1594_rv.mp4	0.0	254.22849941253662	
52	236.9271206855774	fix_post	2		12	50.0	2.5	/experiments/knapen_AOT/AOT_stimuli/rescaled_final/1594_rv.mp4	0.0	254.34705138206482	0.10003232955932617
53	237.02715301513672	fix_pre	0		120	51.0	2.5	/experiments/knapen_AOT/AOT_stimuli/rescaled_final/2161_rv.mp4	0.0	254.44708371162415	1.0085020065307617
53	238.03565502166748	movie	1		279	51.0	2.5	/experiments/knapen_AOT/AOT_stimuli/rescaled_final/2161_rv.mp4	0.0	255.4555857181549	2.492004871368408
53	238.40928506851196	pulse	1	t		51.0	2.5	/experiments/knapen_AOT/AOT_stimuli/rescaled_final/2161_rv.mp4	0.0	255.8292157649994	
53	240.0087468624115	pulse	1	t		51.0	2.5	/experiments/knapen_AOT/AOT_stimuli/rescaled_final/2161_rv.mp4	0.0	257.4286775588989	
53	240.5276598930359	fix_post	2		12	51.0	2.5	/experiments/knapen_AOT/AOT_stimuli/rescaled_final/2161_rv.mp4	0.0	257.9475905895233	0.10003089904785156
54	240.62769079208374	fix_pre	0		119	52.0	2.5	/experiments/knapen_AOT/AOT_stimuli/rescaled_final/0099_fw.mp4	0.0	258.04762148857117	1.0085656642913818
54	241.61140871047974	pulse	0	t		52.0	2.5	/experiments/knapen_AOT/AOT_stimuli/rescaled_final/0099_fw.mp4	0.0	259.03133940696716	
54	241.63625645637512	movie	1		283	52.0	2.5	/experiments/knapen_AOT/AOT_stimuli/rescaled_final/0099_fw.mp4	0.0	259.05618715286255	2.4919753074645996
54	243.21020364761353	pulse	1	t		52.0	2.5	/experiments/knapen_AOT/AOT_stimuli/rescaled_final/0099_fw.mp4	0.0	260.63013434410095	
54	244.12823176383972	fix_post	2		12	52.0	2.5	/experiments/knapen_AOT/AOT_stimuli/rescaled_final/0099_fw.mp4	0.0	261.54816246032715	0.10001921653747559
55	244.2282509803772	fix_pre	0		120	53.0	2.5	/experiments/knapen_AOT/AOT_stimuli/rescaled_final/1500_fw.mp4	0.0	261.6481816768646	1.0084483623504639
55	244.81189346313477	pulse	0	t		53.0	2.5	/experiments/knapen_AOT/AOT_stimuli/rescaled_final/1500_fw.mp4	0.0	262.2318241596222	
55	245.23669934272766	movie	1		289	53.0	2.5	/experiments/knapen_AOT/AOT_stimuli/rescaled_final/1500_fw.mp4	0.0	262.6566300392151	2.4920461177825928
55	246.41041135787964	pulse	1	t		53.0	2.5	/experiments/knapen_AOT/AOT_stimuli/rescaled_final/1500_fw.mp4	0.0	263.83034205436707	
55	247.72874546051025	fix_post	2		12	53.0	2.5	/experiments/knapen_AOT/AOT_stimuli/rescaled_final/1500_fw.mp4	0.0	265.1486761569977	0.10001349449157715
56	247.82875895500183	fix_pre	0		120	54.0	2.5	/experiments/knapen_AOT/AOT_stimuli/rescaled_final/1708_rv.mp4	0.0	265.24868965148926	1.0084939002990723
56	248.01233434677124	pulse	0	t		54.0	2.5	/experiments/knapen_AOT/AOT_stimuli/rescaled_final/1708_rv.mp4	0.0	265.43226504325867	
56	248.8372528553009	movie	1		283	54.0	2.5	/experiments/knapen_AOT/AOT_stimuli/rescaled_final/1708_rv.mp4	0.0	266.25718355178833	2.4920766353607178
56	249.61024689674377	pulse	1	t		54.0	2.5	/experiments/knapen_AOT/AOT_stimuli/rescaled_final/1708_rv.mp4	0.0	267.0301775932312	
56	251.2109990119934	pulse	1	t		54.0	2.5	/experiments/knapen_AOT/AOT_stimuli/rescaled_final/1708_rv.mp4	0.0	268.63092970848083	
56	251.32932949066162	fix_post	2		12	54.0	2.5	/experiments/knapen_AOT/AOT_stimuli/rescaled_final/1708_rv.mp4	0.0	268.74926018714905	0.09999632835388184
57	251.4293258190155	fix_pre	0		120	55.0	2.5	blank	1.0	268.84925651550293	1.0001192092895508
57	252.42944502830505	movie	1		300	55.0	2.5	blank	1.0	269.8493757247925	2.5004827976226807
57	252.813059091568	pulse	1	t		55.0	2.5	blank	1.0	270.2329897880554	
57	254.41327667236328	pulse	1	t		55.0	2.5	blank	1.0	271.8332073688507	
57	254.92992782592773	fix_post	2		12	55.0	2.5	blank	1.0	272.34985852241516	0.0999300479888916
58	255.02985787391663	fix_pre	0		119	56.0	2.5	/experiments/knapen_AOT/AOT_stimuli/rescaled_final/0804_rv.mp4	0.0	272.44978857040405	1.0001542568206787
58	256.0135805606842	pulse	0	t		56.0	2.5	/experiments/knapen_AOT/AOT_stimuli/rescaled_final/0804_rv.mp4	0.0	273.43351125717163	
58	256.0300121307373	movie	1		279	56.0	2.5	/experiments/knapen_AOT/AOT_stimuli/rescaled_final/0804_rv.mp4	0.0	273.44994282722473	2.500363349914551
58	257.6131613254547	pulse	1	t		56.0	2.5	/experiments/knapen_AOT/AOT_stimuli/rescaled_final/0804_rv.mp4	0.0	275.03309202194214	
58	258.53037548065186	fix_post	2		12	56.0	2.5	/experiments/knapen_AOT/AOT_stimuli/rescaled_final/0804_rv.mp4	0.0	275.9503061771393	0.10001754760742188
59	258.6303930282593	fix_pre	0		120	57.0	2.5	/experiments/knapen_AOT/AOT_stimuli/rescaled_final/1239_rv.mp4	0.0	276.0503237247467	1.008509635925293
59	259.21410751342773	pulse	0	t		57.0	2.5	/experiments/knapen_AOT/AOT_stimuli/rescaled_final/1239_rv.mp4	0.0	276.63403820991516	
59	259.63890266418457	movie	1		282	57.0	2.5	/experiments/knapen_AOT/AOT_stimuli/rescaled_final/1239_rv.mp4	0.0	277.058833360672	2.4920034408569336
59	260.81263422966003	pulse	1	t		57.0	2.5	/experiments/knapen_AOT/AOT_stimuli/rescaled_final/1239_rv.mp4	0.0	278.23256492614746	
59	262.1309061050415	fix_post	2		12	57.0	2.5	/experiments/knapen_AOT/AOT_stimuli/rescaled_final/1239_rv.mp4	0.0	279.55083680152893	0.1000206470489502
60	262.23092675209045	fix_pre	0		120	58.0	2.5	/experiments/knapen_AOT/AOT_stimuli/rescaled_final/1793_rv.mp4	0.0	279.6508574485779	1.0085172653198242
60	262.41453099250793	pulse	0	t		58.0	2.5	/experiments/knapen_AOT/AOT_stimuli/rescaled_final/1793_rv.mp4	0.0	279.83446168899536	
60	263.2394440174103	movie	1		281	58.0	2.5	/experiments/knapen_AOT/AOT_stimuli/rescaled_final/1793_rv.mp4	0.0	280.6593747138977	2.4920153617858887
60	264.0128700733185	pulse	1	t		58.0	2.5	/experiments/knapen_AOT/AOT_stimuli/rescaled_final/1793_rv.mp4	0.0	281.4328007698059	
60	265.6128976345062	pulse	1	t		58.0	2.5	/experiments/knapen_AOT/AOT_stimuli/rescaled_final/1793_rv.mp4	0.0	283.03282833099365	
60	265.73145937919617	fix_post	2		12	58.0	2.5	/experiments/knapen_AOT/AOT_stimuli/rescaled_final/1793_rv.mp4	0.0	283.1513900756836	0.1000373363494873
61	265.83149671554565	fix_pre	0		120	59.0	2.5	/experiments/knapen_AOT/AOT_stimuli/rescaled_final/1218_fw.mp4	0.0	283.2514274120331	1.0084693431854248
61	266.8399660587311	movie	1		280	59.0	2.5	/experiments/knapen_AOT/AOT_stimuli/rescaled_final/1218_fw.mp4	0.0	284.2598967552185	2.4920260906219482
61	267.21494698524475	pulse	1	t		59.0	2.5	/experiments/knapen_AOT/AOT_stimuli/rescaled_final/1218_fw.mp4	0.0	284.6348776817322	
61	268.81344056129456	pulse	1	t		59.0	2.5	/experiments/knapen_AOT/AOT_stimuli/rescaled_final/1218_fw.mp4	0.0	286.233371257782	
61	269.331992149353	fix_post	2		12	59.0	2.5	/experiments/knapen_AOT/AOT_stimuli/rescaled_final/1218_fw.mp4	0.0	286.75192284584045	0.1000521183013916
62	269.4320442676544	fix_pre	0		118	60.0	2.5	/experiments/knapen_AOT/AOT_stimuli/rescaled_final/2067_rv.mp4	0.0	286.85197496414185	0.9919002056121826
62	270.4076533317566	pulse	0	t		60.0	2.5	/experiments/knapen_AOT/AOT_stimuli/rescaled_final/2067_rv.mp4	0.0	287.827584028244	
62	270.4239444732666	movie	1		289	60.0	2.5	/experiments/knapen_AOT/AOT_stimuli/rescaled_final/2067_rv.mp4	0.0	287.843875169754	2.5002498626708984
62	272.0077772140503	pulse	1	t		60.0	2.5	/experiments/knapen_AOT/AOT_stimuli/rescaled_final/2067_rv.mp4	0.0	289.4277079105377	
62	272.9241943359375	fix_post	2		12	60.0	2.5	/experiments/knapen_AOT/AOT_stimuli/rescaled_final/2067_rv.mp4	0.0	290.3441250324249	0.10003185272216797
63	273.02422618865967	fix_pre	0		120	61.0	2.5	/experiments/knapen_AOT/AOT_stimuli/rescaled_final/1594_rv.mp4	0.0	290.4441568851471	1.0086069107055664
63	273.60820484161377	pulse	0	t		61.0	2.5	/experiments/knapen_AOT/AOT_stimuli/rescaled_final/1594_rv.mp4	0.0	291.0281355381012	
63	274.03283309936523	movie	1		278	61.0	2.5	/experiments/knapen_AOT/AOT_stimuli/rescaled_final/1594_rv.mp4	0.0	291.45276379585266	2.491908073425293
63	275.208571434021	pulse	1	t		61.0	2.5	/experiments/knapen_AOT/AOT_stimuli/rescaled_final/1594_rv.mp4	0.0	292.6285021305084	
63	276.5247411727905	fix_post	2		12	61.0	2.5	/experiments/knapen_AOT/AOT_stimuli/rescaled_final/1594_rv.mp4	0.0	293.94467186927795	0.10007619857788086
64	276.6248173713684	fix_pre	0		120	62.0	2.5	blank	1.0	294.04474806785583	1.0000996589660645
64	276.80846667289734	pulse	0	t		62.0	2.5	blank	1.0	294.22839736938477	
64	277.6249170303345	movie	1		300	62.0	2.5	blank	1.0	295.0448477268219	2.500370979309082
64	278.40856528282166	pulse	1	t		62.0	2.5	blank	1.0	295.8284959793091	
64	280.0088438987732	pulse	1	t		62.0	2.5	blank	1.0	297.4287745952606	
64	280.12528800964355	fix_post	2		12	62.0	2.5	blank	1.0	297.545218706131	0.10008740425109863
65	280.22537541389465	fix_pre	0		120	63.0	2.5	/experiments/knapen_AOT/AOT_stimuli/rescaled_final/0993_fw.mp4	0.0	297.6453061103821	1.0085463523864746
65	281.2339217662811	movie	1		287	63.0	2.5	/experiments/knapen_AOT/AOT_stimuli/rescaled_final/0993_fw.mp4	0.0	298.65385246276855	2.4919040203094482
65	281.6091628074646	pulse	1	t		63.0	2.5	/experiments/knapen_AOT/AOT_stimuli/rescaled_final/0993_fw.mp4	0.0	299.029093503952	
65	283.20931482315063	pulse	1	t		63.0	2.5	/experiments/knapen_AOT/AOT_stimuli/rescaled_final/0993_fw.mp4	0.0	300.62924551963806	
65	283.7258257865906	fix_post	2		12	63.0	2.5	/experiments/knapen_AOT/AOT_stimuli/rescaled_final/0993_fw.mp4	0.0	301.145756483078	0.10001373291015625
66	283.82583951950073	fix_pre	0		119	64.0	2.5	/experiments/knapen_AOT/AOT_stimuli/rescaled_final/2092_rv.mp4	0.0	301.24577021598816	1.0002050399780273
66	284.809579372406	pulse	0	t		64.0	2.5	/experiments/knapen_AOT/AOT_stimuli/rescaled_final/2092_rv.mp4	0.0	302.22951006889343	
66	284.82604455947876	movie	1		281	64.0	2.5	/experiments/knapen_AOT/AOT_stimuli/rescaled_final/2092_rv.mp4	0.0	302.2459752559662	2.5003232955932617
66	286.4084539413452	pulse	1	t		64.0	2.5	/experiments/knapen_AOT/AOT_stimuli/rescaled_final/2092_rv.mp4	0.0	303.82838463783264	
66	287.326367855072	fix_post	2		12	64.0	2.5	/experiments/knapen_AOT/AOT_stimuli/rescaled_final/2092_rv.mp4	0.0	304.74629855155945	0.10001659393310547
67	287.4263844490051	fix_pre	0		120	65.0	2.5	/experiments/knapen_AOT/AOT_stimuli/rescaled_final/0112_rv.mp4	0.0	304.84631514549255	1.0084998607635498
67	288.01002526283264	pulse	0	t		65.0	2.5	/experiments/knapen_AOT/AOT_stimuli/rescaled_final/0112_rv.mp4	0.0	305.42995595932007	
67	288.4348843097687	movie	1		287	65.0	2.5	/experiments/knapen_AOT/AOT_stimuli/rescaled_final/0112_rv.mp4	0.0	305.8548150062561	2.4920244216918945
67	289.60811710357666	pulse	1	t		65.0	2.5	/experiments/knapen_AOT/AOT_stimuli/rescaled_final/0112_rv.mp4	0.0	307.0280478000641	
67	290.92690873146057	fix_post	2		12	65.0	2.5	/experiments/knapen_AOT/AOT_stimuli/rescaled_final/0112_rv.mp4	0.0	308.346839427948	0.09998512268066406
68	291.02689385414124	fix_pre	0		120	66.0	2.5	/experiments/knapen_AOT/AOT_stimuli/rescaled_final/0525_fw.mp4	0.0	308.44682455062866	1.008533000946045
68	291.21048164367676	pulse	0	t		66.0	2.5	/experiments/knapen_AOT/AOT_stimuli/rescaled_final/0525_fw.mp4	0.0	308.6304123401642	
68	292.0354268550873	movie	1		280	66.0	2.5	/experiments/knapen_AOT/AOT_stimuli/rescaled_final/0525_fw.mp4	0.0	309.4553575515747	2.49202036857605
68	292.80989813804626	pulse	1	t		66.0	2.5	/experiments/knapen_AOT/AOT_stimuli/rescaled_final/0525_fw.mp4	0.0	310.2298288345337	
68	294.4091320037842	pulse	1	t		66.0	2.5	/experiments/knapen_AOT/AOT_stimuli/rescaled_final/0525_fw.mp4	0.0	311.8290627002716	
68	294.52744722366333	fix_post	2		12	66.0	2.5	/experiments/knapen_AOT/AOT_stimuli/rescaled_final/0525_fw.mp4	0.0	311.94737792015076	0.10004663467407227
69	294.6274938583374	fix_pre	0		120	67.0	2.5	/experiments/knapen_AOT/AOT_stimuli/rescaled_final/0625_fw.mp4	0.0	312.04742455482483	1.0084800720214844
69	295.6359739303589	movie	1		271	67.0	2.5	/experiments/knapen_AOT/AOT_stimuli/rescaled_final/0625_fw.mp4	0.0	313.0559046268463	2.492021083831787
69	296.00975799560547	pulse	1	t		67.0	2.5	/experiments/knapen_AOT/AOT_stimuli/rescaled_final/0625_fw.mp4	0.0	313.4296886920929	
69	297.6094512939453	pulse	1	t		67.0	2.5	/experiments/knapen_AOT/AOT_stimuli/rescaled_final/0625_fw.mp4	0.0	315.02938199043274	
69	298.1279950141907	fix_post	2		12	67.0	2.5	/experiments/knapen_AOT/AOT_stimuli/rescaled_final/0625_fw.mp4	0.0	315.5479257106781	0.10005807876586914
70	298.22805309295654	fix_pre	0		119	68.0	2.5	/experiments/knapen_AOT/AOT_stimuli/rescaled_final/1629_rv.mp4	0.0	315.64798378944397	1.0085113048553467
70	299.21174335479736	pulse	0	t		68.0	2.5	/experiments/knapen_AOT/AOT_stimuli/rescaled_final/1629_rv.mp4	0.0	316.6316740512848	
70	299.2365643978119	movie	1		280	68.0	2.5	/experiments/knapen_AOT/AOT_stimuli/rescaled_final/1629_rv.mp4	0.0	316.6564950942993	2.4919843673706055
70	300.8104405403137	pulse	1	t		68.0	2.5	/experiments/knapen_AOT/AOT_stimuli/rescaled_final/1629_rv.mp4	0.0	318.23037123680115	
70	301.7285487651825	fix_post	2		12	68.0	2.5	/experiments/knapen_AOT/AOT_stimuli/rescaled_final/1629_rv.mp4	0.0	319.1484794616699	0.10000467300415039
71	301.82855343818665	fix_pre	0		120	69.0	2.5	blank	1.0	319.2484841346741	1.00026273727417
71	302.4121823310852	pulse	0	t		69.0	2.5	blank	1.0	319.83211302757263	
71	302.8288161754608	movie	1		300	69.0	2.5	blank	1.0	320.24874687194824	2.5003349781036377
71	304.01271986961365	pulse	1	t		69.0	2.5	blank	1.0	321.4326505661011	
71	305.32915115356445	fix_post	2		12	69.0	2.5	blank	1.0	322.7490818500519	0.09995698928833008
72	305.4291081428528	fix_pre	0		120	70.0	2.5	/experiments/knapen_AOT/AOT_stimuli/rescaled_final/0428_rv.mp4	0.0	322.8490388393402	1.0084881782531738
72	305.6126892566681	pulse	0	t		70.0	2.5	/experiments/knapen_AOT/AOT_stimuli/rescaled_final/0428_rv.mp4	0.0	323.0326199531555	
72	306.43759632110596	movie	1		284	70.0	2.5	/experiments/knapen_AOT/AOT_stimuli/rescaled_final/0428_rv.mp4	0.0	323.8575270175934	2.492044448852539
72	307.2109682559967	pulse	1	t		70.0	2.5	/experiments/knapen_AOT/AOT_stimuli/rescaled_final/0428_rv.mp4	0.0	324.63089895248413	
72	308.8112168312073	pulse	1	t		70.0	2.5	/experiments/knapen_AOT/AOT_stimuli/rescaled_final/0428_rv.mp4	0.0	326.2311475276947	
72	308.9296407699585	fix_post	2		12	70.0	2.5	/experiments/knapen_AOT/AOT_stimuli/rescaled_final/0428_rv.mp4	0.0	326.3495714664459	0.10002970695495605
73	309.02967047691345	fix_pre	0		120	71.0	2.5	/experiments/knapen_AOT/AOT_stimuli/rescaled_final/0663_rv.mp4	0.0	326.4496011734009	1.0085351467132568
73	310.0382056236267	movie	1		277	71.0	2.5	/experiments/knapen_AOT/AOT_stimuli/rescaled_final/0663_rv.mp4	0.0	327.45813632011414	2.491961717605591
73	310.41158628463745	pulse	1	t		71.0	2.5	/experiments/knapen_AOT/AOT_stimuli/rescaled_final/0663_rv.mp4	0.0	327.8315169811249	
73	312.0117645263672	pulse	1	t		71.0	2.5	/experiments/knapen_AOT/AOT_stimuli/rescaled_final/0663_rv.mp4	0.0	329.4316952228546	
73	312.5301673412323	fix_post	2		12	71.0	2.5	/experiments/knapen_AOT/AOT_stimuli/rescaled_final/0663_rv.mp4	0.0	329.9500980377197	0.10000038146972656
74	312.630167722702	fix_pre	0		119	72.0	2.5	/experiments/knapen_AOT/AOT_stimuli/rescaled_final/1714_fw.mp4	0.0	330.05009841918945	1.000194787979126
74	313.61386489868164	pulse	0	t		72.0	2.5	/experiments/knapen_AOT/AOT_stimuli/rescaled_final/1714_fw.mp4	0.0	331.03379559516907	
74	313.63036251068115	movie	1		289	72.0	2.5	/experiments/knapen_AOT/AOT_stimuli/rescaled_final/1714_fw.mp4	0.0	331.0502932071686	2.5003392696380615
74	315.212543964386	pulse	1	t		72.0	2.5	/experiments/knapen_AOT/AOT_stimuli/rescaled_final/1714_fw.mp4	0.0	332.6324746608734	
74	316.1307017803192	fix_post	2		12	72.0	2.5	/experiments/knapen_AOT/AOT_stimuli/rescaled_final/1714_fw.mp4	0.0	333.55063247680664	0.10002374649047852
75	316.2307255268097	fix_pre	0		120	73.0	2.5	/experiments/knapen_AOT/AOT_stimuli/rescaled_final/0237_rv.mp4	0.0	333.6506562232971	1.0085198879241943
75	316.8143689632416	pulse	0	t		73.0	2.5	/experiments/knapen_AOT/AOT_stimuli/rescaled_final/0237_rv.mp4	0.0	334.234299659729	
75	317.2392454147339	movie	1		273	73.0	2.5	/experiments/knapen_AOT/AOT_stimuli/rescaled_final/0237_rv.mp4	0.0	334.6591761112213	2.491992712020874
75	318.4133400917053	pulse	1	t		73.0	2.5	/experiments/knapen_AOT/AOT_stimuli/rescaled_final/0237_rv.mp4	0.0	335.83327078819275	
75	319.73123812675476	fix_post	2		12	73.0	2.5	/experiments/knapen_AOT/AOT_stimuli/rescaled_final/0237_rv.mp4	0.0	337.1511688232422	0.1000204086303711
76	319.83125853538513	fix_pre	0		120	74.0	2.5	/experiments/knapen_AOT/AOT_stimuli/rescaled_final/0387_rv.mp4	0.0	337.25118923187256	1.0084867477416992
76	320.01479601860046	pulse	0	t		74.0	2.5	/experiments/knapen_AOT/AOT_stimuli/rescaled_final/0387_rv.mp4	0.0	337.4347267150879	
76	320.83974528312683	movie	1		279	74.0	2.5	/experiments/knapen_AOT/AOT_stimuli/rescaled_final/0387_rv.mp4	0.0	338.25967597961426	2.4921512603759766
76	321.61313104629517	pulse	1	t		74.0	2.5	/experiments/knapen_AOT/AOT_stimuli/rescaled_final/0387_rv.mp4	0.0	339.0330617427826	
76	323.21429109573364	pulse	1	t		74.0	2.5	/experiments/knapen_AOT/AOT_stimuli/rescaled_final/0387_rv.mp4	0.0	340.63422179222107	
76	323.3318965435028	fix_post	2		12	74.0	2.5	/experiments/knapen_AOT/AOT_stimuli/rescaled_final/0387_rv.mp4	0.0	340.75182723999023	0.09997820854187012
77	323.4318747520447	fix_pre	0		120	75.0	2.5	blank	1.0	340.8518054485321	1.000103235244751
77	324.43197798728943	movie	1		300	75.0	2.5	blank	1.0	341.85190868377686	2.500372886657715
77	324.807902097702	pulse	1	t		75.0	2.5	blank	1.0	342.22783279418945	
77	326.4078586101532	pulse	1	t		75.0	2.5	blank	1.0	343.8277893066406	
77	326.93235087394714	fix_post	2		12	75.0	2.5	blank	1.0	344.35228157043457	0.10001754760742188
78	327.03236842155457	fix_pre	0		118	76.0	2.5	/experiments/knapen_AOT/AOT_stimuli/rescaled_final/0504_fw.mp4	0.0	344.452299118042	0.9918129444122314
78	328.0079462528229	pulse	0	t		76.0	2.5	/experiments/knapen_AOT/AOT_stimuli/rescaled_final/0504_fw.mp4	0.0	345.4278769493103	
78	328.0241813659668	movie	1		282	76.0	2.5	/experiments/knapen_AOT/AOT_stimuli/rescaled_final/0504_fw.mp4	0.0	345.4441120624542	2.500366449356079
78	329.6079947948456	pulse	1	t		76.0	2.5	/experiments/knapen_AOT/AOT_stimuli/rescaled_final/0504_fw.mp4	0.0	347.027925491333	
78	330.5245478153229	fix_post	2		12	76.0	2.5	/experiments/knapen_AOT/AOT_stimuli/rescaled_final/0504_fw.mp4	0.0	347.9444785118103	0.1000223159790039
79	330.6245701313019	fix_pre	0		120	77.0	2.5	/experiments/knapen_AOT/AOT_stimuli/rescaled_final/0426_rv.mp4	0.0	348.0445008277893	1.0084657669067383
79	331.2081847190857	pulse	0	t		77.0	2.5	/experiments/knapen_AOT/AOT_stimuli/rescaled_final/0426_rv.mp4	0.0	348.6281154155731	
79	331.6330358982086	movie	1		287	77.0	2.5	/experiments/knapen_AOT/AOT_stimuli/rescaled_final/0426_rv.mp4	0.0	349.05296659469604	2.4922282695770264
79	332.80845499038696	pulse	1	t		77.0	2.5	/experiments/knapen_AOT/AOT_stimuli/rescaled_final/0426_rv.mp4	0.0	350.2283856868744	
79	334.12526416778564	fix_post	2		12	77.0	2.5	/experiments/knapen_AOT/AOT_stimuli/rescaled_final/0426_rv.mp4	0.0	351.54519486427307	0.09988117218017578
80	334.2251453399658	fix_pre	0		120	78.0	2.5	/experiments/knapen_AOT/AOT_stimuli/rescaled_final/1533_rv.mp4	0.0	351.64507603645325	1.0084702968597412
80	334.408793926239	pulse	0	t		78.0	2.5	/experiments/knapen_AOT/AOT_stimuli/rescaled_final/1533_rv.mp4	0.0	351.82872462272644	
80	335.23361563682556	movie	1		289	78.0	2.5	/experiments/knapen_AOT/AOT_stimuli/rescaled_final/1533_rv.mp4	0.0	352.653546333313	2.4920132160186768
80	336.008944272995	pulse	1	t		78.0	2.5	/experiments/knapen_AOT/AOT_stimuli/rescaled_final/1533_rv.mp4	0.0	353.4288749694824	
80	337.60912895202637	pulse	1	t		78.0	2.5	/experiments/knapen_AOT/AOT_stimuli/rescaled_final/1533_rv.mp4	0.0	355.0290596485138	
80	337.72562885284424	fix_post	2		12	78.0	2.5	/experiments/knapen_AOT/AOT_stimuli/rescaled_final/1533_rv.mp4	0.0	355.14555954933167	0.1000068187713623
81	337.8256356716156	fix_pre	0		120	79.0	2.5	/experiments/knapen_AOT/AOT_stimuli/rescaled_final/0756_rv.mp4	0.0	355.245566368103	1.0085275173187256
81	338.8341631889343	movie	1		274	79.0	2.5	/experiments/knapen_AOT/AOT_stimuli/rescaled_final/0756_rv.mp4	0.0	356.25409388542175	2.4920082092285156
81	339.209016084671	pulse	1	t		79.0	2.5	/experiments/knapen_AOT/AOT_stimuli/rescaled_final/0756_rv.mp4	0.0	356.62894678115845	
81	340.8099648952484	pulse	1	t		79.0	2.5	/experiments/knapen_AOT/AOT_stimuli/rescaled_final/0756_rv.mp4	0.0	358.22989559173584	
81	341.32617139816284	fix_post	2		12	79.0	2.5	/experiments/knapen_AOT/AOT_stimuli/rescaled_final/0756_rv.mp4	0.0	358.74610209465027	0.09998345375061035
82	341.42615485191345	fix_pre	0		119	80.0	2.5	/experiments/knapen_AOT/AOT_stimuli/rescaled_final/2161_fw.mp4	0.0	358.8460855484009	1.0001873970031738
82	342.40990805625916	pulse	0	t		80.0	2.5	/experiments/knapen_AOT/AOT_stimuli/rescaled_final/2161_fw.mp4	0.0	359.8298387527466	
82	342.4263422489166	movie	1		287	80.0	2.5	/experiments/knapen_AOT/AOT_stimuli/rescaled_final/2161_fw.mp4	0.0	359.84627294540405	2.500422716140747
82	344.010005235672	pulse	1	t		80.0	2.5	/experiments/knapen_AOT/AOT_stimuli/rescaled_final/2161_fw.mp4	0.0	361.4299359321594	
82	344.9267649650574	fix_post	2		12	80.0	2.5	/experiments/knapen_AOT/AOT_stimuli/rescaled_final/2161_fw.mp4	0.0	362.3466956615448	0.10000967979431152
83	345.0267746448517	fix_pre	0		120	81.0	2.5	/experiments/knapen_AOT/AOT_stimuli/rescaled_final/1500_rv.mp4	0.0	362.4467053413391	1.0084822177886963
83	345.6103355884552	pulse	0	t		81.0	2.5	/experiments/knapen_AOT/AOT_stimuli/rescaled_final/1500_rv.mp4	0.0	363.0302662849426	
83	346.0352568626404	movie	1		288	81.0	2.5	/experiments/knapen_AOT/AOT_stimuli/rescaled_final/1500_rv.mp4	0.0	363.4551875591278	2.4919748306274414
83	347.2102689743042	pulse	1	t		81.0	2.5	/experiments/knapen_AOT/AOT_stimuli/rescaled_final/1500_rv.mp4	0.0	364.6301996707916	
83	348.5272316932678	fix_post	2		12	81.0	2.5	/experiments/knapen_AOT/AOT_stimuli/rescaled_final/1500_rv.mp4	0.0	365.94716238975525	0.10001420974731445
84	348.62724590301514	fix_pre	0		120	82.0	2.5	/experiments/knapen_AOT/AOT_stimuli/rescaled_final/0428_rv.mp4	0.0	366.04717659950256	1.0085532665252686
84	348.81083369255066	pulse	0	t		82.0	2.5	/experiments/knapen_AOT/AOT_stimuli/rescaled_final/0428_rv.mp4	0.0	366.2307643890381	
84	349.6357991695404	movie	1		283	82.0	2.5	/experiments/knapen_AOT/AOT_stimuli/rescaled_final/0428_rv.mp4	0.0	367.05572986602783	2.4919722080230713
84	350.40907859802246	pulse	1	t		82.0	2.5	/experiments/knapen_AOT/AOT_stimuli/rescaled_final/0428_rv.mp4	0.0	367.8290092945099	
84	352.0091109275818	pulse	1	t		82.0	2.5	/experiments/knapen_AOT/AOT_stimuli/rescaled_final/0428_rv.mp4	0.0	369.4290416240692	
84	352.1277713775635	fix_post	2		12	82.0	2.5	/experiments/knapen_AOT/AOT_stimuli/rescaled_final/0428_rv.mp4	0.0	369.5477020740509	0.10008120536804199
85	352.2278525829315	fix_pre	0		120	83.0	2.5	blank	1.0	369.64778327941895	1.0001423358917236
85	353.22799491882324	movie	1		300	83.0	2.5	blank	1.0	370.64792561531067	2.5003228187561035
85	353.61152482032776	pulse	1	t		83.0	2.5	blank	1.0	371.0314555168152	
85	355.2117977142334	pulse	1	t		83.0	2.5	blank	1.0	372.6317284107208	
85	355.72831773757935	fix_post	2		12	83.0	2.5	blank	1.0	373.1482484340668	0.10001730918884277
87	355.8283350467682	stim	0		1716					373.2482657432556	14.302170753479004
87	356.81202507019043	pulse	0	t						374.23195576667786	
87	358.41223073005676	pulse	0	t						375.8321614265442	
87	360.0125389099121	pulse	0	t						377.43246960639954	
87	361.61275339126587	pulse	0	t						379.0326840877533	
87	363.2130546569824	pulse	0	t						380.63298535346985	
87	364.8133020401001	pulse	0	t						382.2332327365875	
87	366.41342639923096	pulse	0	t						383.8333570957184	
87	368.0136992931366	pulse	0	t						385.433629989624	
87	369.6139123439789	pulse	0	t						387.0338430404663	
