trial_nr	onset	event_type	phase	response	nr_frames	movie_index	movie_duration	movie_file	blank	onset_abs	duration
0	0.17493104934692383	stim	0		1					16.3721706867218	0.008135795593261719
0	0.14194297790527344	response	0	space						16.33918261528015	
1	0.18306684494018555	stim	0		4117					16.380306482315063	34.32356882095337
1	34.48690414428711	pulse	0	t						50.68414378166199	
1	34.506635665893555	stim	1		1715					50.70387530326843	14.300421953201294
1	36.08056330680847	pulse	1	t						52.27780294418335	
1	37.68069529533386	pulse	1	t						53.87793493270874	
1	39.280956745147705	pulse	1	t						55.47819638252258	
1	40.88111996650696	pulse	1	t						57.078359603881836	
1	42.48136806488037	pulse	1	t						58.67860770225525	
1	44.081897020339966	pulse	1	t						60.279136657714844	
1	45.681859254837036	pulse	1	t						61.879098892211914	
1	47.28204846382141	pulse	1	t						63.47928810119629	
2	48.80705761909485	fix_pre	0		10	0.0	2.5	/experiments/Knapen_AOT/AOT_stimuli/rescaled_final/1850_rv.mp4	0.0	65.00429725646973	0.10004138946533203
2	48.882293939590454	pulse	0	t		0.0	2.5	/experiments/Knapen_AOT/AOT_stimuli/rescaled_final/1850_rv.mp4	0.0	65.07953357696533	
2	48.90709900856018	movie	1		277	0.0	2.5	/experiments/Knapen_AOT/AOT_stimuli/rescaled_final/1850_rv.mp4	0.0	65.10433864593506	2.492025136947632
2	50.48118758201599	pulse	1	t		0.0	2.5	/experiments/Knapen_AOT/AOT_stimuli/rescaled_final/1850_rv.mp4	0.0	66.67842721939087	
2	51.39912414550781	fix_post	2		12	0.0	2.5	/experiments/Knapen_AOT/AOT_stimuli/rescaled_final/1850_rv.mp4	0.0	67.59636378288269	0.10004973411560059
3	51.49917387962341	fix_pre	0		120	1.0	2.5	/experiments/Knapen_AOT/AOT_stimuli/rescaled_final/0874_rv.mp4	0.0	67.69641351699829	1.0084993839263916
3	52.08293652534485	pulse	0	t		1.0	2.5	/experiments/Knapen_AOT/AOT_stimuli/rescaled_final/0874_rv.mp4	0.0	68.28017616271973	
3	52.507673263549805	movie	1		290	1.0	2.5	/experiments/Knapen_AOT/AOT_stimuli/rescaled_final/0874_rv.mp4	0.0	68.70491290092468	2.4920294284820557
3	53.68234086036682	pulse	1	t		1.0	2.5	/experiments/Knapen_AOT/AOT_stimuli/rescaled_final/0874_rv.mp4	0.0	69.8795804977417	
3	54.99970269203186	fix_post	2		12	1.0	2.5	/experiments/Knapen_AOT/AOT_stimuli/rescaled_final/0874_rv.mp4	0.0	71.19694232940674	0.09998083114624023
4	55.0996835231781	fix_pre	0		120	2.0	2.5	/experiments/Knapen_AOT/AOT_stimuli/rescaled_final/1090_fw.mp4	0.0	71.29692316055298	1.0085010528564453
4	55.28331398963928	pulse	0	t		2.0	2.5	/experiments/Knapen_AOT/AOT_stimuli/rescaled_final/1090_fw.mp4	0.0	71.48055362701416	
4	56.108184576034546	movie	1		274	2.0	2.5	/experiments/Knapen_AOT/AOT_stimuli/rescaled_final/1090_fw.mp4	0.0	72.30542421340942	2.492016553878784
4	56.88340902328491	pulse	1	t		2.0	2.5	/experiments/Knapen_AOT/AOT_stimuli/rescaled_final/1090_fw.mp4	0.0	73.08064866065979	
4	58.48198747634888	pulse	1	t		2.0	2.5	/experiments/Knapen_AOT/AOT_stimuli/rescaled_final/1090_fw.mp4	0.0	74.67922711372375	
4	58.60020112991333	fix_post	2		12	2.0	2.5	/experiments/Knapen_AOT/AOT_stimuli/rescaled_final/1090_fw.mp4	0.0	74.79744076728821	0.10002636909484863
5	58.70022749900818	fix_pre	0		120	3.0	2.5	/experiments/Knapen_AOT/AOT_stimuli/rescaled_final/1939_rv.mp4	0.0	74.89746713638306	1.008545160293579
5	59.70877265930176	movie	1		271	3.0	2.5	/experiments/Knapen_AOT/AOT_stimuli/rescaled_final/1939_rv.mp4	0.0	75.90601229667664	2.4920127391815186
5	60.08251738548279	pulse	1	t		3.0	2.5	/experiments/Knapen_AOT/AOT_stimuli/rescaled_final/1939_rv.mp4	0.0	76.27975702285767	
5	61.6843843460083	pulse	1	t		3.0	2.5	/experiments/Knapen_AOT/AOT_stimuli/rescaled_final/1939_rv.mp4	0.0	77.88162398338318	
5	62.200785398483276	fix_post	2		12	3.0	2.5	/experiments/Knapen_AOT/AOT_stimuli/rescaled_final/1939_rv.mp4	0.0	78.39802503585815	0.10009932518005371
6	62.30088472366333	fix_pre	0		119	4.0	2.5	/experiments/Knapen_AOT/AOT_stimuli/rescaled_final/0455_fw.mp4	0.0	78.49812436103821	1.000030517578125
6	63.28444004058838	pulse	0	t		4.0	2.5	/experiments/Knapen_AOT/AOT_stimuli/rescaled_final/0455_fw.mp4	0.0	79.48167967796326	
6	63.300915241241455	movie	1		287	4.0	2.5	/experiments/Knapen_AOT/AOT_stimuli/rescaled_final/0455_fw.mp4	0.0	79.49815487861633	2.5003738403320312
6	64.8831205368042	pulse	1	t		4.0	2.5	/experiments/Knapen_AOT/AOT_stimuli/rescaled_final/0455_fw.mp4	0.0	81.08036017417908	
6	65.80128908157349	fix_post	2		12	4.0	2.5	/experiments/Knapen_AOT/AOT_stimuli/rescaled_final/0455_fw.mp4	0.0	81.99852871894836	0.10002517700195312
7	65.90131425857544	fix_pre	0		120	5.0	2.5	blank	1.0	82.09855389595032	1.0001380443572998
7	66.48507857322693	pulse	0	t		5.0	2.5	blank	1.0	82.6823182106018	
7	66.90145230293274	movie	1		300	5.0	2.5	blank	1.0	83.09869194030762	2.500392198562622
7	68.0851833820343	pulse	1	t		5.0	2.5	blank	1.0	84.28242301940918	
7	69.40184450149536	fix_post	2		12	5.0	2.5	blank	1.0	85.59908413887024	0.10001683235168457
8	69.50186133384705	fix_pre	0		120	6.0	2.5	/experiments/Knapen_AOT/AOT_stimuli/rescaled_final/1311_fw.mp4	0.0	85.69910097122192	1.0085117816925049
8	69.68539786338806	pulse	0	t		6.0	2.5	/experiments/Knapen_AOT/AOT_stimuli/rescaled_final/1311_fw.mp4	0.0	85.88263750076294	
8	70.51037311553955	movie	1		277	6.0	2.5	/experiments/Knapen_AOT/AOT_stimuli/rescaled_final/1311_fw.mp4	0.0	86.70761275291443	2.492009162902832
8	71.28382635116577	pulse	1	t		6.0	2.5	/experiments/Knapen_AOT/AOT_stimuli/rescaled_final/1311_fw.mp4	0.0	87.48106598854065	
8	72.88437151908875	pulse	1	t		6.0	2.5	/experiments/Knapen_AOT/AOT_stimuli/rescaled_final/1311_fw.mp4	0.0	89.08161115646362	
8	73.00238227844238	fix_post	2		12	6.0	2.5	/experiments/Knapen_AOT/AOT_stimuli/rescaled_final/1311_fw.mp4	0.0	89.19962191581726	0.10001969337463379
9	73.10240197181702	fix_pre	0		120	7.0	2.5	/experiments/Knapen_AOT/AOT_stimuli/rescaled_final/1211_rv.mp4	0.0	89.2996416091919	1.0084786415100098
9	74.11088061332703	movie	1		282	7.0	2.5	/experiments/Knapen_AOT/AOT_stimuli/rescaled_final/1211_rv.mp4	0.0	90.3081202507019	2.4920337200164795
9	74.48477864265442	pulse	1	t		7.0	2.5	/experiments/Knapen_AOT/AOT_stimuli/rescaled_final/1211_rv.mp4	0.0	90.6820182800293	
9	76.08435773849487	pulse	1	t		7.0	2.5	/experiments/Knapen_AOT/AOT_stimuli/rescaled_final/1211_rv.mp4	0.0	92.28159737586975	
9	76.6029143333435	fix_post	2		12	7.0	2.5	/experiments/Knapen_AOT/AOT_stimuli/rescaled_final/1211_rv.mp4	0.0	92.80015397071838	0.10007882118225098
10	76.70299315452576	fix_pre	0		119	8.0	2.5	/experiments/Knapen_AOT/AOT_stimuli/rescaled_final/0645_fw.mp4	0.0	92.90023279190063	1.0000896453857422
10	77.68663096427917	pulse	0	t		8.0	2.5	/experiments/Knapen_AOT/AOT_stimuli/rescaled_final/0645_fw.mp4	0.0	93.88387060165405	
10	77.7030827999115	movie	1		287	8.0	2.5	/experiments/Knapen_AOT/AOT_stimuli/rescaled_final/0645_fw.mp4	0.0	93.90032243728638	2.5003724098205566
10	79.28533577919006	pulse	1	t		8.0	2.5	/experiments/Knapen_AOT/AOT_stimuli/rescaled_final/0645_fw.mp4	0.0	95.48257541656494	
10	80.20345520973206	fix_post	2		12	8.0	2.5	/experiments/Knapen_AOT/AOT_stimuli/rescaled_final/0645_fw.mp4	0.0	96.40069484710693	0.10008120536804199
11	80.3035364151001	fix_pre	0		120	9.0	2.5	/experiments/Knapen_AOT/AOT_stimuli/rescaled_final/1789_fw.mp4	0.0	96.50077605247498	1.008476734161377
11	80.88711595535278	pulse	0	t		9.0	2.5	/experiments/Knapen_AOT/AOT_stimuli/rescaled_final/1789_fw.mp4	0.0	97.08435559272766	
11	81.31201314926147	movie	1		295	9.0	2.5	/experiments/Knapen_AOT/AOT_stimuli/rescaled_final/1789_fw.mp4	0.0	97.50925278663635	2.4920125007629395
11	82.48561692237854	pulse	1	t		9.0	2.5	/experiments/Knapen_AOT/AOT_stimuli/rescaled_final/1789_fw.mp4	0.0	98.68285655975342	
11	83.80402565002441	fix_post	2		12	9.0	2.5	/experiments/Knapen_AOT/AOT_stimuli/rescaled_final/1789_fw.mp4	0.0	100.00126528739929	0.09999442100524902
12	83.90402007102966	fix_pre	0		120	10.0	2.5	/experiments/Knapen_AOT/AOT_stimuli/rescaled_final/1278_fw.mp4	0.0	100.10125970840454	1.0084867477416992
12	84.0877685546875	pulse	0	t		10.0	2.5	/experiments/Knapen_AOT/AOT_stimuli/rescaled_final/1278_fw.mp4	0.0	100.28500819206238	
12	84.91250681877136	movie	1		281	10.0	2.5	/experiments/Knapen_AOT/AOT_stimuli/rescaled_final/1278_fw.mp4	0.0	101.10974645614624	2.4920334815979004
12	85.68600273132324	pulse	1	t		10.0	2.5	/experiments/Knapen_AOT/AOT_stimuli/rescaled_final/1278_fw.mp4	0.0	101.88324236869812	
12	87.28598976135254	pulse	1	t		10.0	2.5	/experiments/Knapen_AOT/AOT_stimuli/rescaled_final/1278_fw.mp4	0.0	103.48322939872742	
12	87.40454030036926	fix_post	2		12	10.0	2.5	/experiments/Knapen_AOT/AOT_stimuli/rescaled_final/1278_fw.mp4	0.0	103.60177993774414	0.10001349449157715
13	87.50455379486084	fix_pre	0		120	11.0	2.5	/experiments/Knapen_AOT/AOT_stimuli/rescaled_final/0980_rv.mp4	0.0	103.70179343223572	1.008545160293579
13	88.51309895515442	movie	1		271	11.0	2.5	/experiments/Knapen_AOT/AOT_stimuli/rescaled_final/0980_rv.mp4	0.0	104.7103385925293	2.49198842048645
13	88.88663578033447	pulse	1	t		11.0	2.5	/experiments/Knapen_AOT/AOT_stimuli/rescaled_final/0980_rv.mp4	0.0	105.08387541770935	
13	90.48652267456055	pulse	1	t		11.0	2.5	/experiments/Knapen_AOT/AOT_stimuli/rescaled_final/0980_rv.mp4	0.0	106.68376231193542	
13	91.00508737564087	fix_post	2		12	11.0	2.5	/experiments/Knapen_AOT/AOT_stimuli/rescaled_final/0980_rv.mp4	0.0	107.20232701301575	0.10002636909484863
14	91.10511374473572	fix_pre	0		119	12.0	2.5	/experiments/Knapen_AOT/AOT_stimuli/rescaled_final/1201_rv.mp4	0.0	107.3023533821106	1.0001602172851562
14	92.08134269714355	pulse	0	t		12.0	2.5	/experiments/Knapen_AOT/AOT_stimuli/rescaled_final/1201_rv.mp4	0.0	108.27858233451843	
14	92.10527396202087	movie	1		276	12.0	2.5	/experiments/Knapen_AOT/AOT_stimuli/rescaled_final/1201_rv.mp4	0.0	108.30251359939575	2.5003433227539062
14	93.6811170578003	pulse	1	t		12.0	2.5	/experiments/Knapen_AOT/AOT_stimuli/rescaled_final/1201_rv.mp4	0.0	109.87835669517517	
14	94.60561728477478	fix_post	2		12	12.0	2.5	/experiments/Knapen_AOT/AOT_stimuli/rescaled_final/1201_rv.mp4	0.0	110.80285692214966	0.10002613067626953
15	94.70564341545105	fix_pre	0		120	13.0	2.5	blank	1.0	110.90288305282593	1.0002155303955078
15	95.2813868522644	pulse	0	t		13.0	2.5	blank	1.0	111.47862648963928	
15	95.70585894584656	movie	1		300	13.0	2.5	blank	1.0	111.90309858322144	2.500335693359375
15	96.88149738311768	pulse	1	t		13.0	2.5	blank	1.0	113.07873702049255	
15	98.20619463920593	fix_post	2		12	13.0	2.5	blank	1.0	114.40343427658081	0.10002374649047852
16	98.30621838569641	fix_pre	0		120	14.0	2.5	/experiments/Knapen_AOT/AOT_stimuli/rescaled_final/1887_rv.mp4	0.0	114.50345802307129	1.0084710121154785
16	98.48158526420593	pulse	0	t		14.0	2.5	/experiments/Knapen_AOT/AOT_stimuli/rescaled_final/1887_rv.mp4	0.0	114.67882490158081	
16	99.31468939781189	movie	1		278	14.0	2.5	/experiments/Knapen_AOT/AOT_stimuli/rescaled_final/1887_rv.mp4	0.0	115.51192903518677	2.4920754432678223
16	100.08167815208435	pulse	1	t		14.0	2.5	/experiments/Knapen_AOT/AOT_stimuli/rescaled_final/1887_rv.mp4	0.0	116.27891778945923	
16	101.68200445175171	pulse	1	t		14.0	2.5	/experiments/Knapen_AOT/AOT_stimuli/rescaled_final/1887_rv.mp4	0.0	117.87924408912659	
16	101.80676484107971	fix_post	2		12	14.0	2.5	/experiments/Knapen_AOT/AOT_stimuli/rescaled_final/1887_rv.mp4	0.0	118.00400447845459	0.09997367858886719
17	101.90673851966858	fix_pre	0		120	15.0	2.5	/experiments/Knapen_AOT/AOT_stimuli/rescaled_final/1270_fw.mp4	0.0	118.10397815704346	1.008493423461914
17	102.9152319431305	movie	1		281	15.0	2.5	/experiments/Knapen_AOT/AOT_stimuli/rescaled_final/1270_fw.mp4	0.0	119.11247158050537	2.4920222759246826
17	103.28214597702026	pulse	1	t		15.0	2.5	/experiments/Knapen_AOT/AOT_stimuli/rescaled_final/1270_fw.mp4	0.0	119.47938561439514	
17	104.88236832618713	pulse	1	t		15.0	2.5	/experiments/Knapen_AOT/AOT_stimuli/rescaled_final/1270_fw.mp4	0.0	121.07960796356201	
17	105.40725421905518	fix_post	2		12	15.0	2.5	/experiments/Knapen_AOT/AOT_stimuli/rescaled_final/1270_fw.mp4	0.0	121.60449385643005	0.1000213623046875
18	105.50727558135986	fix_pre	0		118	16.0	2.5	/experiments/Knapen_AOT/AOT_stimuli/rescaled_final/0747_rv.mp4	0.0	121.70451521873474	0.9918160438537598
18	106.48267889022827	pulse	0	t		16.0	2.5	/experiments/Knapen_AOT/AOT_stimuli/rescaled_final/0747_rv.mp4	0.0	122.67991852760315	
18	106.49909162521362	movie	1		281	16.0	2.5	/experiments/Knapen_AOT/AOT_stimuli/rescaled_final/0747_rv.mp4	0.0	122.6963312625885	2.500582456588745
18	108.08318543434143	pulse	1	t		16.0	2.5	/experiments/Knapen_AOT/AOT_stimuli/rescaled_final/0747_rv.mp4	0.0	124.28042507171631	
18	108.99967408180237	fix_post	2		12	16.0	2.5	/experiments/Knapen_AOT/AOT_stimuli/rescaled_final/0747_rv.mp4	0.0	125.19691371917725	0.09987759590148926
19	109.09955167770386	fix_pre	0		120	17.0	2.5	/experiments/Knapen_AOT/AOT_stimuli/rescaled_final/0811_rv.mp4	0.0	125.29679131507874	1.0083911418914795
19	109.68310832977295	pulse	0	t		17.0	2.5	/experiments/Knapen_AOT/AOT_stimuli/rescaled_final/0811_rv.mp4	0.0	125.88034796714783	
19	110.10794281959534	movie	1		272	17.0	2.5	/experiments/Knapen_AOT/AOT_stimuli/rescaled_final/0811_rv.mp4	0.0	126.30518245697021	2.4920482635498047
19	111.28323936462402	pulse	1	t		17.0	2.5	/experiments/Knapen_AOT/AOT_stimuli/rescaled_final/0811_rv.mp4	0.0	127.4804790019989	
19	112.59999108314514	fix_post	2		12	17.0	2.5	/experiments/Knapen_AOT/AOT_stimuli/rescaled_final/0811_rv.mp4	0.0	128.79723072052002	0.10001420974731445
20	112.70000529289246	fix_pre	0		120	18.0	2.5	/experiments/Knapen_AOT/AOT_stimuli/rescaled_final/0321_fw.mp4	0.0	128.89724493026733	1.008570671081543
20	112.88362145423889	pulse	0	t		18.0	2.5	/experiments/Knapen_AOT/AOT_stimuli/rescaled_final/0321_fw.mp4	0.0	129.08086109161377	
20	113.708575963974	movie	1		276	18.0	2.5	/experiments/Knapen_AOT/AOT_stimuli/rescaled_final/0321_fw.mp4	0.0	129.90581560134888	2.4919655323028564
20	114.48185729980469	pulse	1	t		18.0	2.5	/experiments/Knapen_AOT/AOT_stimuli/rescaled_final/0321_fw.mp4	0.0	130.67909693717957	
20	116.08212494850159	pulse	1	t		18.0	2.5	/experiments/Knapen_AOT/AOT_stimuli/rescaled_final/0321_fw.mp4	0.0	132.27936458587646	
20	116.20054149627686	fix_post	2		12	18.0	2.5	/experiments/Knapen_AOT/AOT_stimuli/rescaled_final/0321_fw.mp4	0.0	132.39778113365173	0.10007739067077637
21	116.30061888694763	fix_pre	0		120	19.0	2.5	/experiments/Knapen_AOT/AOT_stimuli/rescaled_final/0980_fw.mp4	0.0	132.4978585243225	1.0084311962127686
21	117.3090500831604	movie	1		273	19.0	2.5	/experiments/Knapen_AOT/AOT_stimuli/rescaled_final/0980_fw.mp4	0.0	133.50628972053528	2.4920387268066406
21	117.68318963050842	pulse	1	t		19.0	2.5	/experiments/Knapen_AOT/AOT_stimuli/rescaled_final/0980_fw.mp4	0.0	133.8804292678833	
21	119.28258228302002	pulse	1	t		19.0	2.5	/experiments/Knapen_AOT/AOT_stimuli/rescaled_final/0980_fw.mp4	0.0	135.4798219203949	
21	119.80108880996704	fix_post	2		12	19.0	2.5	/experiments/Knapen_AOT/AOT_stimuli/rescaled_final/0980_fw.mp4	0.0	135.99832844734192	0.10019946098327637
22	119.90128827095032	fix_pre	0		119	20.0	2.5	/experiments/Knapen_AOT/AOT_stimuli/rescaled_final/1887_fw.mp4	0.0	136.0985279083252	0.9999911785125732
22	120.88486576080322	pulse	0	t		20.0	2.5	/experiments/Knapen_AOT/AOT_stimuli/rescaled_final/1887_fw.mp4	0.0	137.0821053981781	
22	120.90127944946289	movie	1		284	20.0	2.5	/experiments/Knapen_AOT/AOT_stimuli/rescaled_final/1887_fw.mp4	0.0	137.09851908683777	2.500354766845703
22	122.48346424102783	pulse	1	t		20.0	2.5	/experiments/Knapen_AOT/AOT_stimuli/rescaled_final/1887_fw.mp4	0.0	138.6807038784027	
22	123.4016342163086	fix_post	2		12	20.0	2.5	/experiments/Knapen_AOT/AOT_stimuli/rescaled_final/1887_fw.mp4	0.0	139.59887385368347	0.10004186630249023
23	123.50167608261108	fix_pre	0		120	21.0	2.5	blank	1.0	139.69891571998596	1.000126600265503
23	124.08525681495667	pulse	0	t		21.0	2.5	blank	1.0	140.28249645233154	
23	124.50180268287659	movie	1		300	21.0	2.5	blank	1.0	140.69904232025146	2.5003931522369385
23	125.68557691574097	pulse	1	t		21.0	2.5	blank	1.0	141.88281655311584	
23	127.00219583511353	fix_post	2		12	21.0	2.5	blank	1.0	143.1994354724884	0.09998607635498047
24	127.1021819114685	fix_pre	0		120	22.0	2.5	/experiments/Knapen_AOT/AOT_stimuli/rescaled_final/0019_rv.mp4	0.0	143.29942154884338	1.0085160732269287
24	127.28579330444336	pulse	0	t		22.0	2.5	/experiments/Knapen_AOT/AOT_stimuli/rescaled_final/0019_rv.mp4	0.0	143.48303294181824	
24	128.11069798469543	movie	1		277	22.0	2.5	/experiments/Knapen_AOT/AOT_stimuli/rescaled_final/0019_rv.mp4	0.0	144.3079376220703	2.492036819458008
24	128.88416981697083	pulse	1	t		22.0	2.5	/experiments/Knapen_AOT/AOT_stimuli/rescaled_final/0019_rv.mp4	0.0	145.0814094543457	
24	130.4845507144928	pulse	1	t		22.0	2.5	/experiments/Knapen_AOT/AOT_stimuli/rescaled_final/0019_rv.mp4	0.0	146.68179035186768	
24	130.60273480415344	fix_post	2		12	22.0	2.5	/experiments/Knapen_AOT/AOT_stimuli/rescaled_final/0019_rv.mp4	0.0	146.79997444152832	0.10023045539855957
25	130.702965259552	fix_pre	0		120	23.0	2.5	/experiments/Knapen_AOT/AOT_stimuli/rescaled_final/0402_rv.mp4	0.0	146.90020489692688	1.0082669258117676
25	131.71123218536377	movie	1		280	23.0	2.5	/experiments/Knapen_AOT/AOT_stimuli/rescaled_final/0402_rv.mp4	0.0	147.90847182273865	2.492014169692993
25	132.084951877594	pulse	1	t		23.0	2.5	/experiments/Knapen_AOT/AOT_stimuli/rescaled_final/0402_rv.mp4	0.0	148.28219151496887	
25	133.68484473228455	pulse	1	t		23.0	2.5	/experiments/Knapen_AOT/AOT_stimuli/rescaled_final/0402_rv.mp4	0.0	149.88208436965942	
25	134.20324635505676	fix_post	2		12	23.0	2.5	/experiments/Knapen_AOT/AOT_stimuli/rescaled_final/0402_rv.mp4	0.0	150.40048599243164	0.1000211238861084
26	134.30326747894287	fix_pre	0		119	24.0	2.5	/experiments/Knapen_AOT/AOT_stimuli/rescaled_final/1254_rv.mp4	0.0	150.50050711631775	1.0001626014709473
26	135.28704643249512	pulse	0	t		24.0	2.5	/experiments/Knapen_AOT/AOT_stimuli/rescaled_final/1254_rv.mp4	0.0	151.48428606987	
26	135.30343008041382	movie	1		284	24.0	2.5	/experiments/Knapen_AOT/AOT_stimuli/rescaled_final/1254_rv.mp4	0.0	151.5006697177887	2.500394344329834
26	136.88565874099731	pulse	1	t		24.0	2.5	/experiments/Knapen_AOT/AOT_stimuli/rescaled_final/1254_rv.mp4	0.0	153.0828983783722	
26	137.80382442474365	fix_post	2		12	24.0	2.5	/experiments/Knapen_AOT/AOT_stimuli/rescaled_final/1254_rv.mp4	0.0	154.00106406211853	0.1000220775604248
27	137.90384650230408	fix_pre	0		120	25.0	2.5	/experiments/Knapen_AOT/AOT_stimuli/rescaled_final/0120_rv.mp4	0.0	154.10108613967896	1.0084855556488037
27	138.4875876903534	pulse	0	t		25.0	2.5	/experiments/Knapen_AOT/AOT_stimuli/rescaled_final/0120_rv.mp4	0.0	154.68482732772827	
27	138.91233205795288	movie	1		278	25.0	2.5	/experiments/Knapen_AOT/AOT_stimuli/rescaled_final/0120_rv.mp4	0.0	155.10957169532776	2.492077589035034
27	140.08586192131042	pulse	1	t		25.0	2.5	/experiments/Knapen_AOT/AOT_stimuli/rescaled_final/0120_rv.mp4	0.0	156.2831015586853	
27	141.40440964698792	fix_post	2		12	25.0	2.5	/experiments/Knapen_AOT/AOT_stimuli/rescaled_final/0120_rv.mp4	0.0	157.6016492843628	0.09993672370910645
28	141.50434637069702	fix_pre	0		120	26.0	2.5	blank	1.0	157.7015860080719	1.0001273155212402
28	141.68796348571777	pulse	0	t		26.0	2.5	blank	1.0	157.88520312309265	
28	142.50447368621826	movie	1		300	26.0	2.5	blank	1.0	158.70171332359314	2.500460386276245
28	143.28829979896545	pulse	1	t		26.0	2.5	blank	1.0	159.48553943634033	
28	144.88848495483398	pulse	1	t		26.0	2.5	blank	1.0	161.08572459220886	
28	145.0049340724945	fix_post	2		12	26.0	2.5	blank	1.0	161.20217370986938	0.10001969337463379
29	145.10495376586914	fix_pre	0		120	27.0	2.5	/experiments/Knapen_AOT/AOT_stimuli/rescaled_final/1065_fw.mp4	0.0	161.30219340324402	1.0084195137023926
29	146.11337327957153	movie	1		272	27.0	2.5	/experiments/Knapen_AOT/AOT_stimuli/rescaled_final/1065_fw.mp4	0.0	162.3106129169464	2.4920458793640137
29	146.4871928691864	pulse	1	t		27.0	2.5	/experiments/Knapen_AOT/AOT_stimuli/rescaled_final/1065_fw.mp4	0.0	162.68443250656128	
29	148.08733487129211	pulse	1	t		27.0	2.5	/experiments/Knapen_AOT/AOT_stimuli/rescaled_final/1065_fw.mp4	0.0	164.284574508667	
29	148.60541915893555	fix_post	2		12	27.0	2.5	/experiments/Knapen_AOT/AOT_stimuli/rescaled_final/1065_fw.mp4	0.0	164.80265879631042	0.10000824928283691
30	148.70542740821838	fix_pre	0		119	28.0	2.5	/experiments/Knapen_AOT/AOT_stimuli/rescaled_final/0509_rv.mp4	0.0	164.90266704559326	1.0085721015930176
30	149.6893424987793	pulse	0	t		28.0	2.5	/experiments/Knapen_AOT/AOT_stimuli/rescaled_final/0509_rv.mp4	0.0	165.88658213615417	
30	149.7139995098114	movie	1		281	28.0	2.5	/experiments/Knapen_AOT/AOT_stimuli/rescaled_final/0509_rv.mp4	0.0	165.91123914718628	2.4919633865356445
30	151.28141117095947	pulse	1	t		28.0	2.5	/experiments/Knapen_AOT/AOT_stimuli/rescaled_final/0509_rv.mp4	0.0	167.47865080833435	
30	152.20596289634705	fix_post	2		12	28.0	2.5	/experiments/Knapen_AOT/AOT_stimuli/rescaled_final/0509_rv.mp4	0.0	168.40320253372192	0.1002814769744873
31	152.30624437332153	fix_pre	0		120	29.0	2.5	/experiments/Knapen_AOT/AOT_stimuli/rescaled_final/0013_fw.mp4	0.0	168.5034840106964	1.0082166194915771
31	152.88142728805542	pulse	0	t		29.0	2.5	/experiments/Knapen_AOT/AOT_stimuli/rescaled_final/0013_fw.mp4	0.0	169.0786669254303	
31	153.3144609928131	movie	1		267	29.0	2.5	/experiments/Knapen_AOT/AOT_stimuli/rescaled_final/0013_fw.mp4	0.0	169.511700630188	2.4920475482940674
31	154.48163771629333	pulse	1	t		29.0	2.5	/experiments/Knapen_AOT/AOT_stimuli/rescaled_final/0013_fw.mp4	0.0	170.6788773536682	
31	155.80650854110718	fix_post	2		12	29.0	2.5	/experiments/Knapen_AOT/AOT_stimuli/rescaled_final/0013_fw.mp4	0.0	172.00374817848206	0.1000051498413086
32	155.9065136909485	fix_pre	0		120	30.0	2.5	/experiments/Knapen_AOT/AOT_stimuli/rescaled_final/2075_rv.mp4	0.0	172.10375332832336	1.0084917545318604
32	156.0818793773651	pulse	0	t		30.0	2.5	/experiments/Knapen_AOT/AOT_stimuli/rescaled_final/2075_rv.mp4	0.0	172.27911901474	
32	156.91500544548035	movie	1		268	30.0	2.5	/experiments/Knapen_AOT/AOT_stimuli/rescaled_final/2075_rv.mp4	0.0	173.11224508285522	2.492053985595703
32	157.68217015266418	pulse	1	t		30.0	2.5	/experiments/Knapen_AOT/AOT_stimuli/rescaled_final/2075_rv.mp4	0.0	173.87940979003906	
32	159.2823805809021	pulse	1	t		30.0	2.5	/experiments/Knapen_AOT/AOT_stimuli/rescaled_final/2075_rv.mp4	0.0	175.47962021827698	
32	159.40705943107605	fix_post	2		12	30.0	2.5	/experiments/Knapen_AOT/AOT_stimuli/rescaled_final/2075_rv.mp4	0.0	175.60429906845093	0.10000061988830566
33	159.50706005096436	fix_pre	0		120	31.0	2.5	/experiments/Knapen_AOT/AOT_stimuli/rescaled_final/2096_rv.mp4	0.0	175.70429968833923	1.0085296630859375
33	160.5155897140503	movie	1		275	31.0	2.5	/experiments/Knapen_AOT/AOT_stimuli/rescaled_final/2096_rv.mp4	0.0	176.71282935142517	2.49202299118042
33	160.882981300354	pulse	1	t		31.0	2.5	/experiments/Knapen_AOT/AOT_stimuli/rescaled_final/2096_rv.mp4	0.0	177.08022093772888	
33	162.48196816444397	pulse	1	t		31.0	2.5	/experiments/Knapen_AOT/AOT_stimuli/rescaled_final/2096_rv.mp4	0.0	178.67920780181885	
33	163.0076127052307	fix_post	2		12	31.0	2.5	/experiments/Knapen_AOT/AOT_stimuli/rescaled_final/2096_rv.mp4	0.0	179.2048523426056	0.0999913215637207
34	163.10760402679443	fix_pre	0		118	32.0	2.5	/experiments/Knapen_AOT/AOT_stimuli/rescaled_final/0874_fw.mp4	0.0	179.3048436641693	0.9917902946472168
34	164.08295607566833	pulse	0	t		32.0	2.5	/experiments/Knapen_AOT/AOT_stimuli/rescaled_final/0874_fw.mp4	0.0	180.2801957130432	
34	164.09939432144165	movie	1		275	32.0	2.5	/experiments/Knapen_AOT/AOT_stimuli/rescaled_final/0874_fw.mp4	0.0	180.29663395881653	2.5004360675811768
34	165.681720495224	pulse	1	t		32.0	2.5	/experiments/Knapen_AOT/AOT_stimuli/rescaled_final/0874_fw.mp4	0.0	181.87896013259888	
34	166.59983038902283	fix_post	2		12	32.0	2.5	/experiments/Knapen_AOT/AOT_stimuli/rescaled_final/0874_fw.mp4	0.0	182.7970700263977	0.09999680519104004
35	166.69982719421387	fix_pre	0		120	33.0	2.5	/experiments/Knapen_AOT/AOT_stimuli/rescaled_final/0473_rv.mp4	0.0	182.89706683158875	1.0084714889526367
35	167.28348684310913	pulse	0	t		33.0	2.5	/experiments/Knapen_AOT/AOT_stimuli/rescaled_final/0473_rv.mp4	0.0	183.480726480484	
35	167.7082986831665	movie	1		285	33.0	2.5	/experiments/Knapen_AOT/AOT_stimuli/rescaled_final/0473_rv.mp4	0.0	183.90553832054138	2.492039203643799
35	168.88191556930542	pulse	1	t		33.0	2.5	/experiments/Knapen_AOT/AOT_stimuli/rescaled_final/0473_rv.mp4	0.0	185.0791552066803	
35	170.2003378868103	fix_post	2		12	33.0	2.5	/experiments/Knapen_AOT/AOT_stimuli/rescaled_final/0473_rv.mp4	0.0	186.39757752418518	0.1000216007232666
36	170.30035948753357	fix_pre	0		120	34.0	2.5	blank	1.0	186.49759912490845	1.000152826309204
36	170.48392844200134	pulse	0	t		34.0	2.5	blank	1.0	186.68116807937622	
36	171.30051231384277	movie	1		300	34.0	2.5	blank	1.0	187.49775195121765	2.500371217727661
36	172.08413863182068	pulse	1	t		34.0	2.5	blank	1.0	188.28137826919556	
36	173.68435215950012	pulse	1	t		34.0	2.5	blank	1.0	189.881591796875	
36	173.80088353157043	fix_post	2		12	34.0	2.5	blank	1.0	189.9981231689453	0.10001826286315918
37	173.9009017944336	fix_pre	0		120	35.0	2.5	/experiments/Knapen_AOT/AOT_stimuli/rescaled_final/1717_rv.mp4	0.0	190.09814143180847	1.0085866451263428
37	174.90948843955994	movie	1		274	35.0	2.5	/experiments/Knapen_AOT/AOT_stimuli/rescaled_final/1717_rv.mp4	0.0	191.10672807693481	2.4919371604919434
37	175.28314089775085	pulse	1	t		35.0	2.5	/experiments/Knapen_AOT/AOT_stimuli/rescaled_final/1717_rv.mp4	0.0	191.48038053512573	
37	176.88335490226746	pulse	1	t		35.0	2.5	/experiments/Knapen_AOT/AOT_stimuli/rescaled_final/1717_rv.mp4	0.0	193.08059453964233	
37	177.40142560005188	fix_post	2		12	35.0	2.5	/experiments/Knapen_AOT/AOT_stimuli/rescaled_final/1717_rv.mp4	0.0	193.59866523742676	0.10001420974731445
38	177.5014398097992	fix_pre	0		119	36.0	2.5	/experiments/Knapen_AOT/AOT_stimuli/rescaled_final/1415_rv.mp4	0.0	193.69867944717407	1.0001649856567383
38	178.48520803451538	pulse	0	t		36.0	2.5	/experiments/Knapen_AOT/AOT_stimuli/rescaled_final/1415_rv.mp4	0.0	194.68244767189026	
38	178.50160479545593	movie	1		268	36.0	2.5	/experiments/Knapen_AOT/AOT_stimuli/rescaled_final/1415_rv.mp4	0.0	194.6988444328308	2.5003726482391357
38	180.08440399169922	pulse	1	t		36.0	2.5	/experiments/Knapen_AOT/AOT_stimuli/rescaled_final/1415_rv.mp4	0.0	196.2816436290741	
38	181.00197744369507	fix_post	2		12	36.0	2.5	/experiments/Knapen_AOT/AOT_stimuli/rescaled_final/1415_rv.mp4	0.0	197.19921708106995	0.10001707077026367
39	181.10199451446533	fix_pre	0		120	37.0	2.5	/experiments/Knapen_AOT/AOT_stimuli/rescaled_final/0777_rv.mp4	0.0	197.2992341518402	1.0084865093231201
39	181.68581557273865	pulse	0	t		37.0	2.5	/experiments/Knapen_AOT/AOT_stimuli/rescaled_final/0777_rv.mp4	0.0	197.88305521011353	
39	182.11048102378845	movie	1		279	37.0	2.5	/experiments/Knapen_AOT/AOT_stimuli/rescaled_final/0777_rv.mp4	0.0	198.30772066116333	2.4920079708099365
39	183.28431487083435	pulse	1	t		37.0	2.5	/experiments/Knapen_AOT/AOT_stimuli/rescaled_final/0777_rv.mp4	0.0	199.48155450820923	
39	184.6024889945984	fix_post	2		12	37.0	2.5	/experiments/Knapen_AOT/AOT_stimuli/rescaled_final/0777_rv.mp4	0.0	200.79972863197327	0.10009765625
40	184.7025866508484	fix_pre	0		120	38.0	2.5	/experiments/Knapen_AOT/AOT_stimuli/rescaled_final/1090_fw.mp4	0.0	200.89982628822327	1.0084469318389893
40	184.88608503341675	pulse	0	t		38.0	2.5	/experiments/Knapen_AOT/AOT_stimuli/rescaled_final/1090_fw.mp4	0.0	201.08332467079163	
40	185.71103358268738	movie	1		270	38.0	2.5	/experiments/Knapen_AOT/AOT_stimuli/rescaled_final/1090_fw.mp4	0.0	201.90827322006226	2.492014169692993
40	186.4867856502533	pulse	1	t		38.0	2.5	/experiments/Knapen_AOT/AOT_stimuli/rescaled_final/1090_fw.mp4	0.0	202.68402528762817	
40	188.0848217010498	pulse	1	t		38.0	2.5	/experiments/Knapen_AOT/AOT_stimuli/rescaled_final/1090_fw.mp4	0.0	204.28206133842468	
40	188.20304775238037	fix_post	2		12	38.0	2.5	/experiments/Knapen_AOT/AOT_stimuli/rescaled_final/1090_fw.mp4	0.0	204.40028738975525	0.10001969337463379
41	188.303067445755	fix_pre	0		120	39.0	2.5	/experiments/Knapen_AOT/AOT_stimuli/rescaled_final/0649_fw.mp4	0.0	204.50030708312988	1.0084843635559082
41	189.3115518093109	movie	1		275	39.0	2.5	/experiments/Knapen_AOT/AOT_stimuli/rescaled_final/0649_fw.mp4	0.0	205.5087914466858	2.4920847415924072
41	189.68520998954773	pulse	1	t		39.0	2.5	/experiments/Knapen_AOT/AOT_stimuli/rescaled_final/0649_fw.mp4	0.0	205.8824496269226	
41	191.2855682373047	pulse	1	t		39.0	2.5	/experiments/Knapen_AOT/AOT_stimuli/rescaled_final/0649_fw.mp4	0.0	207.48280787467957	
41	191.80363655090332	fix_post	2		12	39.0	2.5	/experiments/Knapen_AOT/AOT_stimuli/rescaled_final/0649_fw.mp4	0.0	208.0008761882782	0.10005879402160645
42	191.90369534492493	fix_pre	0		119	40.0	2.5	/experiments/Knapen_AOT/AOT_stimuli/rescaled_final/1162_rv.mp4	0.0	208.1009349822998	1.0000941753387451
42	192.8874363899231	pulse	0	t		40.0	2.5	/experiments/Knapen_AOT/AOT_stimuli/rescaled_final/1162_rv.mp4	0.0	209.08467602729797	
42	192.90378952026367	movie	1		276	40.0	2.5	/experiments/Knapen_AOT/AOT_stimuli/rescaled_final/1162_rv.mp4	0.0	209.10102915763855	2.5003833770751953
42	194.48639464378357	pulse	1	t		40.0	2.5	/experiments/Knapen_AOT/AOT_stimuli/rescaled_final/1162_rv.mp4	0.0	210.68363428115845	
42	195.40417289733887	fix_post	2		12	40.0	2.5	/experiments/Knapen_AOT/AOT_stimuli/rescaled_final/1162_rv.mp4	0.0	211.60141253471375	0.10003209114074707
43	195.50420498847961	fix_pre	0		120	41.0	2.5	blank	1.0	211.7014446258545	1.0000884532928467
43	196.0880742073059	pulse	0	t		41.0	2.5	blank	1.0	212.2853138446808	
43	196.50429344177246	movie	1		300	41.0	2.5	blank	1.0	212.70153307914734	2.5004003047943115
43	197.68130135536194	pulse	1	t		41.0	2.5	blank	1.0	213.87854099273682	
43	199.00469374656677	fix_post	2		12	41.0	2.5	blank	1.0	215.20193338394165	0.09999871253967285
44	199.10469245910645	fix_pre	0		120	42.0	2.5	/experiments/Knapen_AOT/AOT_stimuli/rescaled_final/1388_rv.mp4	0.0	215.30193209648132	1.0084953308105469
44	199.2882788181305	pulse	0	t		42.0	2.5	/experiments/Knapen_AOT/AOT_stimuli/rescaled_final/1388_rv.mp4	0.0	215.48551845550537	
44	200.113187789917	movie	1		263	42.0	2.5	/experiments/Knapen_AOT/AOT_stimuli/rescaled_final/1388_rv.mp4	0.0	216.31042742729187	2.4920575618743896
44	200.8867769241333	pulse	1	t		42.0	2.5	/experiments/Knapen_AOT/AOT_stimuli/rescaled_final/1388_rv.mp4	0.0	217.08401656150818	
44	202.48720479011536	pulse	1	t		42.0	2.5	/experiments/Knapen_AOT/AOT_stimuli/rescaled_final/1388_rv.mp4	0.0	218.68444442749023	
44	202.60524535179138	fix_post	2		12	42.0	2.5	/experiments/Knapen_AOT/AOT_stimuli/rescaled_final/1388_rv.mp4	0.0	218.80248498916626	0.09998631477355957
45	202.70523166656494	fix_pre	0		120	43.0	2.5	/experiments/Knapen_AOT/AOT_stimuli/rescaled_final/1940_rv.mp4	0.0	218.90247130393982	1.008530616760254
45	203.7137622833252	movie	1		266	43.0	2.5	/experiments/Knapen_AOT/AOT_stimuli/rescaled_final/1940_rv.mp4	0.0	219.91100192070007	2.4919915199279785
45	204.0816626548767	pulse	1	t		43.0	2.5	/experiments/Knapen_AOT/AOT_stimuli/rescaled_final/1940_rv.mp4	0.0	220.2789022922516	
45	205.68130803108215	pulse	1	t		43.0	2.5	/experiments/Knapen_AOT/AOT_stimuli/rescaled_final/1940_rv.mp4	0.0	221.87854766845703	
45	206.20575380325317	fix_post	2		12	43.0	2.5	/experiments/Knapen_AOT/AOT_stimuli/rescaled_final/1940_rv.mp4	0.0	222.40299344062805	0.10003805160522461
46	206.3057918548584	fix_pre	0		118	44.0	2.5	/experiments/Knapen_AOT/AOT_stimuli/rescaled_final/1211_rv.mp4	0.0	222.50303149223328	0.9918153285980225
46	207.28120493888855	pulse	0	t		44.0	2.5	/experiments/Knapen_AOT/AOT_stimuli/rescaled_final/1211_rv.mp4	0.0	223.47844457626343	
46	207.29760718345642	movie	1		266	44.0	2.5	/experiments/Knapen_AOT/AOT_stimuli/rescaled_final/1211_rv.mp4	0.0	223.4948468208313	2.500356912612915
46	208.88141989707947	pulse	1	t		44.0	2.5	/experiments/Knapen_AOT/AOT_stimuli/rescaled_final/1211_rv.mp4	0.0	225.07865953445435	
46	209.79796409606934	fix_post	2		12	44.0	2.5	/experiments/Knapen_AOT/AOT_stimuli/rescaled_final/1211_rv.mp4	0.0	225.9952037334442	0.10004544258117676
47	209.8980095386505	fix_pre	0		120	45.0	2.5	/experiments/Knapen_AOT/AOT_stimuli/rescaled_final/2112_fw.mp4	0.0	226.0952491760254	1.008537769317627
47	210.4819278717041	pulse	0	t		45.0	2.5	/experiments/Knapen_AOT/AOT_stimuli/rescaled_final/2112_fw.mp4	0.0	226.67916750907898	
47	210.90654730796814	movie	1		277	45.0	2.5	/experiments/Knapen_AOT/AOT_stimuli/rescaled_final/2112_fw.mp4	0.0	227.10378694534302	2.4920060634613037
47	212.08197355270386	pulse	1	t		45.0	2.5	/experiments/Knapen_AOT/AOT_stimuli/rescaled_final/2112_fw.mp4	0.0	228.27921319007874	
47	213.39855337142944	fix_post	2		12	45.0	2.5	/experiments/Knapen_AOT/AOT_stimuli/rescaled_final/2112_fw.mp4	0.0	229.59579300880432	0.10001802444458008
48	213.49857139587402	fix_pre	0		120	46.0	2.5	/experiments/Knapen_AOT/AOT_stimuli/rescaled_final/0814_rv.mp4	0.0	229.6958110332489	1.0085136890411377
48	213.68214559555054	pulse	0	t		46.0	2.5	/experiments/Knapen_AOT/AOT_stimuli/rescaled_final/0814_rv.mp4	0.0	229.87938523292542	
48	214.50708508491516	movie	1		270	46.0	2.5	/experiments/Knapen_AOT/AOT_stimuli/rescaled_final/0814_rv.mp4	0.0	230.70432472229004	2.492011785507202
48	215.28163981437683	pulse	1	t		46.0	2.5	/experiments/Knapen_AOT/AOT_stimuli/rescaled_final/0814_rv.mp4	0.0	231.4788794517517	
48	216.88262748718262	pulse	1	t		46.0	2.5	/experiments/Knapen_AOT/AOT_stimuli/rescaled_final/0814_rv.mp4	0.0	233.0798671245575	
48	216.99909687042236	fix_post	2		12	46.0	2.5	/experiments/Knapen_AOT/AOT_stimuli/rescaled_final/0814_rv.mp4	0.0	233.19633650779724	0.09999823570251465
49	217.09909510612488	fix_pre	0		120	47.0	2.5	/experiments/Knapen_AOT/AOT_stimuli/rescaled_final/0182_fw.mp4	0.0	233.29633474349976	1.008493185043335
49	218.1075882911682	movie	1		258	47.0	2.5	/experiments/Knapen_AOT/AOT_stimuli/rescaled_final/0182_fw.mp4	0.0	234.3048279285431	2.4920589923858643
49	218.4814989566803	pulse	1	t		47.0	2.5	/experiments/Knapen_AOT/AOT_stimuli/rescaled_final/0182_fw.mp4	0.0	234.67873859405518	
49	220.0811789035797	pulse	1	t		47.0	2.5	/experiments/Knapen_AOT/AOT_stimuli/rescaled_final/0182_fw.mp4	0.0	236.2784185409546	
49	220.59964728355408	fix_post	2		12	47.0	2.5	/experiments/Knapen_AOT/AOT_stimuli/rescaled_final/0182_fw.mp4	0.0	236.79688692092896	0.09996318817138672
50	220.69961047172546	fix_pre	0		119	48.0	2.5	/experiments/Knapen_AOT/AOT_stimuli/rescaled_final/0575_fw.mp4	0.0	236.89685010910034	1.0003232955932617
50	221.68328499794006	pulse	0	t		48.0	2.5	/experiments/Knapen_AOT/AOT_stimuli/rescaled_final/0575_fw.mp4	0.0	237.88052463531494	
50	221.69993376731873	movie	1		275	48.0	2.5	/experiments/Knapen_AOT/AOT_stimuli/rescaled_final/0575_fw.mp4	0.0	237.8971734046936	2.5002176761627197
50	223.28230714797974	pulse	1	t		48.0	2.5	/experiments/Knapen_AOT/AOT_stimuli/rescaled_final/0575_fw.mp4	0.0	239.47954678535461	
50	224.20015144348145	fix_post	2		12	48.0	2.5	/experiments/Knapen_AOT/AOT_stimuli/rescaled_final/0575_fw.mp4	0.0	240.39739108085632	0.09999370574951172
51	224.30014514923096	fix_pre	0		120	49.0	2.5	blank	1.0	240.49738478660583	1.0001401901245117
51	224.883784532547	pulse	0	t		49.0	2.5	blank	1.0	241.08102416992188	
51	225.30028533935547	movie	1		300	49.0	2.5	blank	1.0	241.49752497673035	2.5004143714904785
51	226.48408794403076	pulse	1	t		49.0	2.5	blank	1.0	242.68132758140564	
51	227.80069971084595	fix_post	2		12	49.0	2.5	blank	1.0	243.99793934822083	0.10002684593200684
52	227.90072655677795	fix_pre	0		120	50.0	2.5	/experiments/Knapen_AOT/AOT_stimuli/rescaled_final/0601_fw.mp4	0.0	244.09796619415283	1.008469820022583
52	228.08431482315063	pulse	0	t		50.0	2.5	/experiments/Knapen_AOT/AOT_stimuli/rescaled_final/0601_fw.mp4	0.0	244.2815544605255	
52	228.90919637680054	movie	1		279	50.0	2.5	/experiments/Knapen_AOT/AOT_stimuli/rescaled_final/0601_fw.mp4	0.0	245.10643601417542	2.492046356201172
52	229.68269038200378	pulse	1	t		50.0	2.5	/experiments/Knapen_AOT/AOT_stimuli/rescaled_final/0601_fw.mp4	0.0	245.87993001937866	
52	231.28312158584595	pulse	1	t		50.0	2.5	/experiments/Knapen_AOT/AOT_stimuli/rescaled_final/0601_fw.mp4	0.0	247.48036122322083	
52	231.4012427330017	fix_post	2		12	50.0	2.5	/experiments/Knapen_AOT/AOT_stimuli/rescaled_final/0601_fw.mp4	0.0	247.5984823703766	0.09999299049377441
53	231.50123572349548	fix_pre	0		120	51.0	2.5	/experiments/Knapen_AOT/AOT_stimuli/rescaled_final/1038_rv.mp4	0.0	247.69847536087036	1.0085115432739258
53	232.5097472667694	movie	1		271	51.0	2.5	/experiments/Knapen_AOT/AOT_stimuli/rescaled_final/1038_rv.mp4	0.0	248.7069869041443	2.492046356201172
53	232.88355708122253	pulse	1	t		51.0	2.5	/experiments/Knapen_AOT/AOT_stimuli/rescaled_final/1038_rv.mp4	0.0	249.0807967185974	
53	234.48341012001038	pulse	1	t		51.0	2.5	/experiments/Knapen_AOT/AOT_stimuli/rescaled_final/1038_rv.mp4	0.0	250.68064975738525	
53	235.00179362297058	fix_post	2		12	51.0	2.5	/experiments/Knapen_AOT/AOT_stimuli/rescaled_final/1038_rv.mp4	0.0	251.19903326034546	0.10000753402709961
54	235.10180115699768	fix_pre	0		119	52.0	2.5	/experiments/Knapen_AOT/AOT_stimuli/rescaled_final/0051_fw.mp4	0.0	251.29904079437256	1.0002658367156982
54	236.08590531349182	pulse	0	t		52.0	2.5	/experiments/Knapen_AOT/AOT_stimuli/rescaled_final/0051_fw.mp4	0.0	252.2831449508667	
54	236.10206699371338	movie	1		277	52.0	2.5	/experiments/Knapen_AOT/AOT_stimuli/rescaled_final/0051_fw.mp4	0.0	252.29930663108826	2.5002353191375732
54	237.68459272384644	pulse	1	t		52.0	2.5	/experiments/Knapen_AOT/AOT_stimuli/rescaled_final/0051_fw.mp4	0.0	253.8818323612213	
54	238.60230231285095	fix_post	2		12	52.0	2.5	/experiments/Knapen_AOT/AOT_stimuli/rescaled_final/0051_fw.mp4	0.0	254.79954195022583	0.10001254081726074
55	238.7023148536682	fix_pre	0		120	53.0	2.5	/experiments/Knapen_AOT/AOT_stimuli/rescaled_final/1287_rv.mp4	0.0	254.8995544910431	1.008526086807251
55	239.2860860824585	pulse	0	t		53.0	2.5	/experiments/Knapen_AOT/AOT_stimuli/rescaled_final/1287_rv.mp4	0.0	255.48332571983337	
55	239.71084094047546	movie	1		276	53.0	2.5	/experiments/Knapen_AOT/AOT_stimuli/rescaled_final/1287_rv.mp4	0.0	255.90808057785034	2.4920313358306885
55	240.88467669487	pulse	1	t		53.0	2.5	/experiments/Knapen_AOT/AOT_stimuli/rescaled_final/1287_rv.mp4	0.0	257.0819163322449	
55	242.20287227630615	fix_post	2		12	53.0	2.5	/experiments/Knapen_AOT/AOT_stimuli/rescaled_final/1287_rv.mp4	0.0	258.40011191368103	0.10007882118225098
56	242.3029510974884	fix_pre	0		120	54.0	2.5	/experiments/Knapen_AOT/AOT_stimuli/rescaled_final/0492_rv.mp4	0.0	258.5001907348633	1.0084121227264404
56	242.486474275589	pulse	0	t		54.0	2.5	/experiments/Knapen_AOT/AOT_stimuli/rescaled_final/0492_rv.mp4	0.0	258.68371391296387	
56	243.31136322021484	movie	1		275	54.0	2.5	/experiments/Knapen_AOT/AOT_stimuli/rescaled_final/0492_rv.mp4	0.0	259.5086028575897	2.4920129776000977
56	244.0848515033722	pulse	1	t		54.0	2.5	/experiments/Knapen_AOT/AOT_stimuli/rescaled_final/0492_rv.mp4	0.0	260.28209114074707	
56	245.6850688457489	pulse	1	t		54.0	2.5	/experiments/Knapen_AOT/AOT_stimuli/rescaled_final/0492_rv.mp4	0.0	261.8823084831238	
56	245.80337619781494	fix_post	2		12	54.0	2.5	/experiments/Knapen_AOT/AOT_stimuli/rescaled_final/0492_rv.mp4	0.0	262.0006158351898	0.10009312629699707
57	245.90346932411194	fix_pre	0		120	55.0	2.5	/experiments/Knapen_AOT/AOT_stimuli/rescaled_final/0553_fw.mp4	0.0	262.1007089614868	1.008418321609497
57	246.91188764572144	movie	1		272	55.0	2.5	/experiments/Knapen_AOT/AOT_stimuli/rescaled_final/0553_fw.mp4	0.0	263.1091272830963	2.4920549392700195
57	247.2855200767517	pulse	1	t		55.0	2.5	/experiments/Knapen_AOT/AOT_stimuli/rescaled_final/0553_fw.mp4	0.0	263.4827597141266	
57	248.88650798797607	pulse	1	t		55.0	2.5	/experiments/Knapen_AOT/AOT_stimuli/rescaled_final/0553_fw.mp4	0.0	265.08374762535095	
57	249.40394258499146	fix_post	2		12	55.0	2.5	/experiments/Knapen_AOT/AOT_stimuli/rescaled_final/0553_fw.mp4	0.0	265.60118222236633	0.1000826358795166
58	249.50402522087097	fix_pre	0		119	56.0	2.5	blank	1.0	265.70126485824585	0.9917027950286865
58	250.48764514923096	pulse	0	t		56.0	2.5	blank	1.0	266.68488478660583	
58	250.49572801589966	movie	1		301	56.0	2.5	blank	1.0	266.69296765327454	2.5087549686431885
58	252.08790755271912	pulse	1	t		56.0	2.5	blank	1.0	268.285147190094	
58	253.00448298454285	fix_post	2		12	56.0	2.5	blank	1.0	269.2017226219177	0.09999752044677734
59	253.10448050498962	fix_pre	0		120	57.0	2.5	/experiments/Knapen_AOT/AOT_stimuli/rescaled_final/0649_rv.mp4	0.0	269.3017201423645	1.0085084438323975
59	253.68816781044006	pulse	0	t		57.0	2.5	/experiments/Knapen_AOT/AOT_stimuli/rescaled_final/0649_rv.mp4	0.0	269.88540744781494	
59	254.11298894882202	movie	1		275	57.0	2.5	/experiments/Knapen_AOT/AOT_stimuli/rescaled_final/0649_rv.mp4	0.0	270.3102285861969	2.492032289505005
59	255.2868311405182	pulse	1	t		57.0	2.5	/experiments/Knapen_AOT/AOT_stimuli/rescaled_final/0649_rv.mp4	0.0	271.48407077789307	
59	256.605021238327	fix_post	2		12	57.0	2.5	/experiments/Knapen_AOT/AOT_stimuli/rescaled_final/0649_rv.mp4	0.0	272.8022608757019	0.10003209114074707
60	256.7050533294678	fix_pre	0		120	58.0	2.5	/experiments/Knapen_AOT/AOT_stimuli/rescaled_final/2045_rv.mp4	0.0	272.90229296684265	1.0084779262542725
60	256.88186264038086	pulse	0	t		58.0	2.5	/experiments/Knapen_AOT/AOT_stimuli/rescaled_final/2045_rv.mp4	0.0	273.07910227775574	
60	257.71353125572205	movie	1		264	58.0	2.5	/experiments/Knapen_AOT/AOT_stimuli/rescaled_final/2045_rv.mp4	0.0	273.9107708930969	2.492009401321411
60	258.48727226257324	pulse	1	t		58.0	2.5	/experiments/Knapen_AOT/AOT_stimuli/rescaled_final/2045_rv.mp4	0.0	274.6845118999481	
60	260.0873153209686	pulse	1	t		58.0	2.5	/experiments/Knapen_AOT/AOT_stimuli/rescaled_final/2045_rv.mp4	0.0	276.2845549583435	
60	260.20554065704346	fix_post	2		12	58.0	2.5	/experiments/Knapen_AOT/AOT_stimuli/rescaled_final/2045_rv.mp4	0.0	276.40278029441833	0.10010552406311035
61	260.30564618110657	fix_pre	0		120	59.0	2.5	/experiments/Knapen_AOT/AOT_stimuli/rescaled_final/0182_rv.mp4	0.0	276.50288581848145	1.008484125137329
61	261.3141303062439	movie	1		272	59.0	2.5	/experiments/Knapen_AOT/AOT_stimuli/rescaled_final/0182_rv.mp4	0.0	277.5113699436188	2.5003552436828613
61	261.68175411224365	pulse	1	t		59.0	2.5	/experiments/Knapen_AOT/AOT_stimuli/rescaled_final/0182_rv.mp4	0.0	277.87899374961853	
61	263.28134775161743	pulse	1	t		59.0	2.5	/experiments/Knapen_AOT/AOT_stimuli/rescaled_final/0182_rv.mp4	0.0	279.4785873889923	
61	263.81448554992676	fix_post	2		11	59.0	2.5	/experiments/Knapen_AOT/AOT_stimuli/rescaled_final/0182_rv.mp4	0.0	280.01172518730164	0.09163880348205566
62	263.9061243534088	fix_pre	0		118	60.0	2.5	/experiments/Knapen_AOT/AOT_stimuli/rescaled_final/0573_rv.mp4	0.0	280.1033639907837	0.9918422698974609
62	264.88152980804443	pulse	0	t		60.0	2.5	/experiments/Knapen_AOT/AOT_stimuli/rescaled_final/0573_rv.mp4	0.0	281.0787694454193	
62	264.8979666233063	movie	1		288	60.0	2.5	/experiments/Knapen_AOT/AOT_stimuli/rescaled_final/0573_rv.mp4	0.0	281.09520626068115	2.50034761428833
62	266.4819257259369	pulse	1	t		60.0	2.5	/experiments/Knapen_AOT/AOT_stimuli/rescaled_final/0573_rv.mp4	0.0	282.67916536331177	
62	267.3983142375946	fix_post	2		12	60.0	2.5	/experiments/Knapen_AOT/AOT_stimuli/rescaled_final/0573_rv.mp4	0.0	283.5955538749695	0.100006103515625
63	267.49832034111023	fix_pre	0		120	61.0	2.5	/experiments/Knapen_AOT/AOT_stimuli/rescaled_final/0136_fw.mp4	0.0	283.6955599784851	1.0085036754608154
63	268.0820519924164	pulse	0	t		61.0	2.5	/experiments/Knapen_AOT/AOT_stimuli/rescaled_final/0136_fw.mp4	0.0	284.27929162979126	
63	268.50682401657104	movie	1		277	61.0	2.5	/experiments/Knapen_AOT/AOT_stimuli/rescaled_final/0136_fw.mp4	0.0	284.7040636539459	2.4920237064361572
63	269.6818878650665	pulse	1	t		61.0	2.5	/experiments/Knapen_AOT/AOT_stimuli/rescaled_final/0136_fw.mp4	0.0	285.8791275024414	
63	270.9988477230072	fix_post	2		12	61.0	2.5	/experiments/Knapen_AOT/AOT_stimuli/rescaled_final/0136_fw.mp4	0.0	287.1960873603821	0.10000729560852051
64	271.0988550186157	fix_pre	0		120	62.0	2.5	/experiments/Knapen_AOT/AOT_stimuli/rescaled_final/1162_fw.mp4	0.0	287.2960946559906	1.0085022449493408
64	271.2824516296387	pulse	0	t		62.0	2.5	/experiments/Knapen_AOT/AOT_stimuli/rescaled_final/1162_fw.mp4	0.0	287.47969126701355	
64	272.10735726356506	movie	1		273	62.0	2.5	/experiments/Knapen_AOT/AOT_stimuli/rescaled_final/1162_fw.mp4	0.0	288.30459690093994	2.4921023845672607
64	272.88288855552673	pulse	1	t		62.0	2.5	/experiments/Knapen_AOT/AOT_stimuli/rescaled_final/1162_fw.mp4	0.0	289.0801281929016	
64	274.4829771518707	pulse	1	t		62.0	2.5	/experiments/Knapen_AOT/AOT_stimuli/rescaled_final/1162_fw.mp4	0.0	290.6802167892456	
64	274.5994596481323	fix_post	2		12	62.0	2.5	/experiments/Knapen_AOT/AOT_stimuli/rescaled_final/1162_fw.mp4	0.0	290.7966992855072	0.09995293617248535
65	274.6994125843048	fix_pre	0		120	63.0	2.5	blank	1.0	290.8966522216797	1.0001368522644043
65	275.6995494365692	movie	1		300	63.0	2.5	blank	1.0	291.8967890739441	2.5004682540893555
65	276.08316445350647	pulse	1	t		63.0	2.5	blank	1.0	292.28040409088135	
65	277.6834993362427	pulse	1	t		63.0	2.5	blank	1.0	293.88073897361755	
65	278.20001769065857	fix_post	2		12	63.0	2.5	blank	1.0	294.39725732803345	0.09994769096374512
66	278.2999653816223	fix_pre	0		119	64.0	2.5	/experiments/Knapen_AOT/AOT_stimuli/rescaled_final/1551_rv.mp4	0.0	294.4972050189972	1.0085058212280273
66	279.2836580276489	pulse	0	t		64.0	2.5	/experiments/Knapen_AOT/AOT_stimuli/rescaled_final/1551_rv.mp4	0.0	295.4808976650238	
66	279.30847120285034	movie	1		266	64.0	2.5	/experiments/Knapen_AOT/AOT_stimuli/rescaled_final/1551_rv.mp4	0.0	295.5057108402252	2.491999387741089
66	280.88376092910767	pulse	1	t		64.0	2.5	/experiments/Knapen_AOT/AOT_stimuli/rescaled_final/1551_rv.mp4	0.0	297.08100056648254	
66	281.80047059059143	fix_post	2		12	64.0	2.5	/experiments/Knapen_AOT/AOT_stimuli/rescaled_final/1551_rv.mp4	0.0	297.9977102279663	0.10002613067626953
67	281.9004967212677	fix_pre	0		120	65.0	2.5	/experiments/Knapen_AOT/AOT_stimuli/rescaled_final/0309_fw.mp4	0.0	298.0977363586426	1.00852370262146
67	282.4842360019684	pulse	0	t		65.0	2.5	/experiments/Knapen_AOT/AOT_stimuli/rescaled_final/0309_fw.mp4	0.0	298.68147563934326	
67	282.90902042388916	movie	1		248	65.0	2.5	/experiments/Knapen_AOT/AOT_stimuli/rescaled_final/0309_fw.mp4	0.0	299.10626006126404	2.491997003555298
67	284.08312463760376	pulse	1	t		65.0	2.5	/experiments/Knapen_AOT/AOT_stimuli/rescaled_final/0309_fw.mp4	0.0	300.28036427497864	
67	285.40101742744446	fix_post	2		12	65.0	2.5	/experiments/Knapen_AOT/AOT_stimuli/rescaled_final/0309_fw.mp4	0.0	301.59825706481934	0.10000729560852051
68	285.501024723053	fix_pre	0		120	66.0	2.5	/experiments/Knapen_AOT/AOT_stimuli/rescaled_final/0888_rv.mp4	0.0	301.69826436042786	1.0085315704345703
68	285.68461441993713	pulse	0	t		66.0	2.5	/experiments/Knapen_AOT/AOT_stimuli/rescaled_final/0888_rv.mp4	0.0	301.881854057312	
68	286.50955629348755	movie	1		268	66.0	2.5	/experiments/Knapen_AOT/AOT_stimuli/rescaled_final/0888_rv.mp4	0.0	302.7067959308624	2.4920785427093506
68	287.2831630706787	pulse	1	t		66.0	2.5	/experiments/Knapen_AOT/AOT_stimuli/rescaled_final/0888_rv.mp4	0.0	303.4804027080536	
68	288.88451290130615	pulse	1	t		66.0	2.5	/experiments/Knapen_AOT/AOT_stimuli/rescaled_final/0888_rv.mp4	0.0	305.08175253868103	
68	289.0016348361969	fix_post	2		12	66.0	2.5	/experiments/Knapen_AOT/AOT_stimuli/rescaled_final/0888_rv.mp4	0.0	305.1988744735718	0.10001015663146973
69	289.10164499282837	fix_pre	0		120	67.0	2.5	/experiments/Knapen_AOT/AOT_stimuli/rescaled_final/1939_rv.mp4	0.0	305.29888463020325	1.0084357261657715
69	290.11008071899414	movie	1		258	67.0	2.5	/experiments/Knapen_AOT/AOT_stimuli/rescaled_final/1939_rv.mp4	0.0	306.307320356369	2.4920167922973633
69	290.4843559265137	pulse	1	t		67.0	2.5	/experiments/Knapen_AOT/AOT_stimuli/rescaled_final/1939_rv.mp4	0.0	306.68159556388855	
69	292.08388781547546	pulse	1	t		67.0	2.5	/experiments/Knapen_AOT/AOT_stimuli/rescaled_final/1939_rv.mp4	0.0	308.28112745285034	
69	292.6020975112915	fix_post	2		12	67.0	2.5	/experiments/Knapen_AOT/AOT_stimuli/rescaled_final/1939_rv.mp4	0.0	308.7993371486664	0.1000220775604248
70	292.70211958885193	fix_pre	0		119	68.0	2.5	blank	1.0	308.8993592262268	0.991790771484375
70	293.6858410835266	pulse	0	t		68.0	2.5	blank	1.0	309.8830807209015	
70	293.6939103603363	movie	1		301	68.0	2.5	blank	1.0	309.8911499977112	2.5087385177612305
70	295.28604650497437	pulse	1	t		68.0	2.5	blank	1.0	311.48328614234924	
70	296.20264887809753	fix_post	2		12	68.0	2.5	blank	1.0	312.3998885154724	0.10002779960632324
71	296.30267667770386	fix_pre	0		120	69.0	2.5	/experiments/Knapen_AOT/AOT_stimuli/rescaled_final/1745_rv.mp4	0.0	312.49991631507874	1.0084562301635742
71	296.88635063171387	pulse	0	t		69.0	2.5	/experiments/Knapen_AOT/AOT_stimuli/rescaled_final/1745_rv.mp4	0.0	313.08359026908875	
71	297.31113290786743	movie	1		266	69.0	2.5	/experiments/Knapen_AOT/AOT_stimuli/rescaled_final/1745_rv.mp4	0.0	313.5083725452423	2.4920547008514404
71	298.48493003845215	pulse	1	t		69.0	2.5	/experiments/Knapen_AOT/AOT_stimuli/rescaled_final/1745_rv.mp4	0.0	314.682169675827	
71	299.8031876087189	fix_post	2		12	69.0	2.5	/experiments/Knapen_AOT/AOT_stimuli/rescaled_final/1745_rv.mp4	0.0	316.00042724609375	0.10001349449157715
72	299.90320110321045	fix_pre	0		120	70.0	2.5	/experiments/Knapen_AOT/AOT_stimuli/rescaled_final/1541_fw.mp4	0.0	316.1004407405853	1.0085017681121826
72	300.0868401527405	pulse	0	t		70.0	2.5	/experiments/Knapen_AOT/AOT_stimuli/rescaled_final/1541_fw.mp4	0.0	316.28407979011536	
72	300.91170287132263	movie	1		268	70.0	2.5	/experiments/Knapen_AOT/AOT_stimuli/rescaled_final/1541_fw.mp4	0.0	317.1089425086975	2.4920270442962646
72	301.6868255138397	pulse	1	t		70.0	2.5	/experiments/Knapen_AOT/AOT_stimuli/rescaled_final/1541_fw.mp4	0.0	317.8840651512146	
72	303.2858428955078	pulse	1	t		70.0	2.5	/experiments/Knapen_AOT/AOT_stimuli/rescaled_final/1541_fw.mp4	0.0	319.4830825328827	
72	303.4037299156189	fix_post	2		12	70.0	2.5	/experiments/Knapen_AOT/AOT_stimuli/rescaled_final/1541_fw.mp4	0.0	319.6009695529938	0.10007071495056152
73	303.50380063056946	fix_pre	0		120	71.0	2.5	/experiments/Knapen_AOT/AOT_stimuli/rescaled_final/0749_fw.mp4	0.0	319.70104026794434	1.0084640979766846
73	304.51226472854614	movie	1		272	71.0	2.5	/experiments/Knapen_AOT/AOT_stimuli/rescaled_final/0749_fw.mp4	0.0	320.709504365921	2.4921605587005615
73	304.88593435287476	pulse	1	t		71.0	2.5	/experiments/Knapen_AOT/AOT_stimuli/rescaled_final/0749_fw.mp4	0.0	321.08317399024963	
73	306.4862198829651	pulse	1	t		71.0	2.5	/experiments/Knapen_AOT/AOT_stimuli/rescaled_final/0749_fw.mp4	0.0	322.68345952033997	
73	307.0044252872467	fix_post	2		12	71.0	2.5	/experiments/Knapen_AOT/AOT_stimuli/rescaled_final/0749_fw.mp4	0.0	323.2016649246216	0.09984159469604492
74	307.10426688194275	fix_pre	0		119	72.0	2.5	/experiments/Knapen_AOT/AOT_stimuli/rescaled_final/0213_rv.mp4	0.0	323.3015065193176	1.0001788139343262
74	308.08802223205566	pulse	0	t		72.0	2.5	/experiments/Knapen_AOT/AOT_stimuli/rescaled_final/0213_rv.mp4	0.0	324.28526186943054	
74	308.1044456958771	movie	1		272	72.0	2.5	/experiments/Knapen_AOT/AOT_stimuli/rescaled_final/0213_rv.mp4	0.0	324.30168533325195	2.508683204650879
74	309.68701672554016	pulse	1	t		72.0	2.5	/experiments/Knapen_AOT/AOT_stimuli/rescaled_final/0213_rv.mp4	0.0	325.88425636291504	
74	310.61312890052795	fix_post	2		11	72.0	2.5	/experiments/Knapen_AOT/AOT_stimuli/rescaled_final/0213_rv.mp4	0.0	326.81036853790283	0.09170341491699219
75	310.70483231544495	fix_pre	0		120	73.0	2.5	/experiments/Knapen_AOT/AOT_stimuli/rescaled_final/1420_rv.mp4	0.0	326.9020719528198	1.008669376373291
75	311.28843212127686	pulse	0	t		73.0	2.5	/experiments/Knapen_AOT/AOT_stimuli/rescaled_final/1420_rv.mp4	0.0	327.48567175865173	
75	311.71350169181824	movie	1		261	73.0	2.5	/experiments/Knapen_AOT/AOT_stimuli/rescaled_final/1420_rv.mp4	0.0	327.9107413291931	2.491847515106201
75	312.8886830806732	pulse	1	t		73.0	2.5	/experiments/Knapen_AOT/AOT_stimuli/rescaled_final/1420_rv.mp4	0.0	329.0859227180481	
75	314.20534920692444	fix_post	2		12	73.0	2.5	/experiments/Knapen_AOT/AOT_stimuli/rescaled_final/1420_rv.mp4	0.0	330.4025888442993	0.10001420974731445
76	314.30536341667175	fix_pre	0		120	74.0	2.5	/experiments/Knapen_AOT/AOT_stimuli/rescaled_final/0711_rv.mp4	0.0	330.50260305404663	1.0085406303405762
76	314.48897099494934	pulse	0	t		74.0	2.5	/experiments/Knapen_AOT/AOT_stimuli/rescaled_final/0711_rv.mp4	0.0	330.6862106323242	
76	315.31390404701233	movie	1		258	74.0	2.5	/experiments/Knapen_AOT/AOT_stimuli/rescaled_final/0711_rv.mp4	0.0	331.5111436843872	2.4920411109924316
76	316.08726048469543	pulse	1	t		74.0	2.5	/experiments/Knapen_AOT/AOT_stimuli/rescaled_final/0711_rv.mp4	0.0	332.2845001220703	
76	317.68760871887207	pulse	1	t		74.0	2.5	/experiments/Knapen_AOT/AOT_stimuli/rescaled_final/0711_rv.mp4	0.0	333.88484835624695	
76	317.80594515800476	fix_post	2		12	74.0	2.5	/experiments/Knapen_AOT/AOT_stimuli/rescaled_final/0711_rv.mp4	0.0	334.00318479537964	0.10001063346862793
77	317.9059557914734	fix_pre	0		120	75.0	2.5	/experiments/Knapen_AOT/AOT_stimuli/rescaled_final/0208_fw.mp4	0.0	334.10319542884827	1.0084600448608398
77	318.91441583633423	movie	1		274	75.0	2.5	/experiments/Knapen_AOT/AOT_stimuli/rescaled_final/0208_fw.mp4	0.0	335.1116554737091	2.492015838623047
77	319.28830099105835	pulse	1	t		75.0	2.5	/experiments/Knapen_AOT/AOT_stimuli/rescaled_final/0208_fw.mp4	0.0	335.4855406284332	
77	320.88186264038086	pulse	1	t		75.0	2.5	/experiments/Knapen_AOT/AOT_stimuli/rescaled_final/0208_fw.mp4	0.0	337.07910227775574	
77	321.4064316749573	fix_post	2		12	75.0	2.5	/experiments/Knapen_AOT/AOT_stimuli/rescaled_final/0208_fw.mp4	0.0	337.60367131233215	0.10008978843688965
78	321.50652146339417	fix_pre	0		118	76.0	2.5	/experiments/Knapen_AOT/AOT_stimuli/rescaled_final/1551_fw.mp4	0.0	337.70376110076904	0.9917547702789307
78	322.4819014072418	pulse	0	t		76.0	2.5	/experiments/Knapen_AOT/AOT_stimuli/rescaled_final/1551_fw.mp4	0.0	338.6791410446167	
78	322.4982762336731	movie	1		256	76.0	2.5	/experiments/Knapen_AOT/AOT_stimuli/rescaled_final/1551_fw.mp4	0.0	338.695515871048	2.500364065170288
78	324.08223128318787	pulse	1	t		76.0	2.5	/experiments/Knapen_AOT/AOT_stimuli/rescaled_final/1551_fw.mp4	0.0	340.27947092056274	
78	324.9986402988434	fix_post	2		12	76.0	2.5	/experiments/Knapen_AOT/AOT_stimuli/rescaled_final/1551_fw.mp4	0.0	341.19587993621826	0.10004711151123047
79	325.0986874103546	fix_pre	0		120	77.0	2.5	blank	1.0	341.2959270477295	1.000178337097168
79	325.682421207428	pulse	0	t		77.0	2.5	blank	1.0	341.87966084480286	
79	326.0988657474518	movie	1		300	77.0	2.5	blank	1.0	342.29610538482666	2.500318765640259
79	327.2825548648834	pulse	1	t		77.0	2.5	blank	1.0	343.4797945022583	
79	328.59918451309204	fix_post	2		12	77.0	2.5	blank	1.0	344.7964241504669	0.09999871253967285
80	328.6991832256317	fix_pre	0		120	78.0	2.5	/experiments/Knapen_AOT/AOT_stimuli/rescaled_final/1372_rv.mp4	0.0	344.8964228630066	1.0085117816925049
80	328.8828344345093	pulse	0	t		78.0	2.5	/experiments/Knapen_AOT/AOT_stimuli/rescaled_final/1372_rv.mp4	0.0	345.08007407188416	
80	329.7076950073242	movie	1		279	78.0	2.5	/experiments/Knapen_AOT/AOT_stimuli/rescaled_final/1372_rv.mp4	0.0	345.9049346446991	2.4920120239257812
80	330.48313188552856	pulse	1	t		78.0	2.5	/experiments/Knapen_AOT/AOT_stimuli/rescaled_final/1372_rv.mp4	0.0	346.68037152290344	
80	332.0817189216614	pulse	1	t		78.0	2.5	/experiments/Knapen_AOT/AOT_stimuli/rescaled_final/1372_rv.mp4	0.0	348.27895855903625	
80	332.19970703125	fix_post	2		12	78.0	2.5	/experiments/Knapen_AOT/AOT_stimuli/rescaled_final/1372_rv.mp4	0.0	348.3969466686249	0.10011601448059082
81	332.2998230457306	fix_pre	0		120	79.0	2.5	/experiments/Knapen_AOT/AOT_stimuli/rescaled_final/2010_rv.mp4	0.0	348.49706268310547	1.0084028244018555
81	333.30822587013245	movie	1		268	79.0	2.5	/experiments/Knapen_AOT/AOT_stimuli/rescaled_final/2010_rv.mp4	0.0	349.5054655075073	2.4921133518218994
81	333.6830258369446	pulse	1	t		79.0	2.5	/experiments/Knapen_AOT/AOT_stimuli/rescaled_final/2010_rv.mp4	0.0	349.88026547431946	
81	335.2828209400177	pulse	1	t		79.0	2.5	/experiments/Knapen_AOT/AOT_stimuli/rescaled_final/2010_rv.mp4	0.0	351.4800605773926	
81	335.80033922195435	fix_post	2		12	79.0	2.5	/experiments/Knapen_AOT/AOT_stimuli/rescaled_final/2010_rv.mp4	0.0	351.9975788593292	0.09997391700744629
82	335.9003131389618	fix_pre	0		119	80.0	2.5	/experiments/Knapen_AOT/AOT_stimuli/rescaled_final/0649_fw.mp4	0.0	352.09755277633667	1.0001640319824219
82	336.8840079307556	pulse	0	t		80.0	2.5	/experiments/Knapen_AOT/AOT_stimuli/rescaled_final/0649_fw.mp4	0.0	353.0812475681305	
82	336.9004771709442	movie	1		272	80.0	2.5	/experiments/Knapen_AOT/AOT_stimuli/rescaled_final/0649_fw.mp4	0.0	353.0977168083191	2.500351667404175
82	338.4844648838043	pulse	1	t		80.0	2.5	/experiments/Knapen_AOT/AOT_stimuli/rescaled_final/0649_fw.mp4	0.0	354.6817045211792	
82	339.4008288383484	fix_post	2		12	80.0	2.5	/experiments/Knapen_AOT/AOT_stimuli/rescaled_final/0649_fw.mp4	0.0	355.59806847572327	0.09999704360961914
83	339.500825881958	fix_pre	0		120	81.0	2.5	/experiments/Knapen_AOT/AOT_stimuli/rescaled_final/2058_fw.mp4	0.0	355.6980655193329	1.0084962844848633
83	340.0845675468445	pulse	0	t		81.0	2.5	/experiments/Knapen_AOT/AOT_stimuli/rescaled_final/2058_fw.mp4	0.0	356.28180718421936	
83	340.50932216644287	movie	1		268	81.0	2.5	/experiments/Knapen_AOT/AOT_stimuli/rescaled_final/2058_fw.mp4	0.0	356.70656180381775	2.4920542240142822
83	341.68328332901	pulse	1	t		81.0	2.5	/experiments/Knapen_AOT/AOT_stimuli/rescaled_final/2058_fw.mp4	0.0	357.8805229663849	
83	343.00137639045715	fix_post	2		12	81.0	2.5	/experiments/Knapen_AOT/AOT_stimuli/rescaled_final/2058_fw.mp4	0.0	359.19861602783203	0.09999203681945801
84	343.1013684272766	fix_pre	0		119	82.0	2.5	/experiments/Knapen_AOT/AOT_stimuli/rescaled_final/1556_rv.mp4	0.0	359.2986080646515	1.008514642715454
84	343.28493070602417	pulse	0	t		82.0	2.5	/experiments/Knapen_AOT/AOT_stimuli/rescaled_final/1556_rv.mp4	0.0	359.48217034339905	
84	344.10988306999207	movie	1		253	82.0	2.5	/experiments/Knapen_AOT/AOT_stimuli/rescaled_final/1556_rv.mp4	0.0	360.30712270736694	2.4921715259552
84	344.88444113731384	pulse	1	t		82.0	2.5	/experiments/Knapen_AOT/AOT_stimuli/rescaled_final/1556_rv.mp4	0.0	361.0816807746887	
84	346.4849257469177	pulse	1	t		82.0	2.5	/experiments/Knapen_AOT/AOT_stimuli/rescaled_final/1556_rv.mp4	0.0	362.6821653842926	
84	346.60205459594727	fix_post	2		12	82.0	2.5	/experiments/Knapen_AOT/AOT_stimuli/rescaled_final/1556_rv.mp4	0.0	362.79929423332214	0.09984493255615234
85	346.7018995285034	fix_pre	0		120	83.0	2.5	blank	1.0	362.8991391658783	1.0001797676086426
85	347.70207929611206	movie	1		300	83.0	2.5	blank	1.0	363.89931893348694	2.50036883354187
85	348.0856513977051	pulse	1	t		83.0	2.5	blank	1.0	364.28289103507996	
85	349.68592143058777	pulse	1	t		83.0	2.5	blank	1.0	365.88316106796265	
85	350.20244812965393	fix_post	2		12	83.0	2.5	blank	1.0	366.3996877670288	0.09997749328613281
87	350.30242562294006	stim	0		1715					366.49966526031494	14.293824911117554
87	351.28613543510437	pulse	0	t						367.48337507247925	
87	352.8863868713379	pulse	0	t						369.08362650871277	
87	354.4869246482849	pulse	0	t						370.6841642856598	
87	356.0870933532715	pulse	0	t						372.28433299064636	
87	357.6872127056122	pulse	0	t						373.88445234298706	
87	359.2874524593353	pulse	0	t						375.4846920967102	
87	360.8876140117645	pulse	0	t						377.0848536491394	
87	362.48790550231934	pulse	0	t						378.6851451396942	
87	364.0884084701538	pulse	0	t						380.2856481075287	
