trial_nr	onset	event_type	phase	response	nr_frames	movie_index	movie_duration	movie_file	blank	onset_abs	duration
0	0.20838713645935059	stim	0		71					17.65826416015625	0.5916159152984619
0	0.7921161651611328	response	0	space						18.241993188858032	
1	0.8000030517578125	stim	0		4463					18.249880075454712	37.209177017211914
1	37.99423909187317	pulse	0	t						55.44411611557007	
1	38.00918006896973	stim	1		1715					55.459057092666626	14.298501014709473
1	39.5893771648407	pulse	1	t						57.0392541885376	
1	41.18964600563049	pulse	1	t						58.63952302932739	
1	42.78972101211548	pulse	1	t						60.23959803581238	
1	44.390089988708496	pulse	1	t						61.839967012405396	
1	45.99037408828735	pulse	1	t						63.44025111198425	
1	47.59053897857666	pulse	1	t						65.04041600227356	
1	49.190728187561035	pulse	1	t						66.64060521125793	
1	50.79096007347107	pulse	1	t						68.24083709716797	
2	52.3076810836792	fix_pre	0		11	0.0	2.5	/experiments/knapen_AOT/AOT_stimuli/rescaled_final/1613_fw.mp4	0.0	69.7575581073761	0.0917510986328125
2	52.383718967437744	pulse	0	t		0.0	2.5	/experiments/knapen_AOT/AOT_stimuli/rescaled_final/1613_fw.mp4	0.0	69.83359599113464	
2	52.39943218231201	movie	1		243	0.0	2.5	/experiments/knapen_AOT/AOT_stimuli/rescaled_final/1613_fw.mp4	0.0	69.84930920600891	2.508668899536133
2	53.98308801651001	pulse	1	t		0.0	2.5	/experiments/knapen_AOT/AOT_stimuli/rescaled_final/1613_fw.mp4	0.0	71.43296504020691	
2	54.908101081848145	fix_post	2		12	0.0	2.5	/experiments/knapen_AOT/AOT_stimuli/rescaled_final/1613_fw.mp4	0.0	72.35797810554504	0.10000491142272949
3	55.008105993270874	fix_pre	0		120	1.0	2.5	/experiments/knapen_AOT/AOT_stimuli/rescaled_final/1710_fw.mp4	0.0	72.45798301696777	1.0001511573791504
3	55.58425998687744	pulse	0	t		1.0	2.5	/experiments/knapen_AOT/AOT_stimuli/rescaled_final/1710_fw.mp4	0.0	73.03413701057434	
3	56.008257150650024	movie	1		244	1.0	2.5	/experiments/knapen_AOT/AOT_stimuli/rescaled_final/1710_fw.mp4	0.0	73.45813417434692	2.500356912612915
3	57.184197187423706	pulse	1	t		1.0	2.5	/experiments/knapen_AOT/AOT_stimuli/rescaled_final/1710_fw.mp4	0.0	74.6340742111206	
3	58.50861406326294	fix_post	2		12	1.0	2.5	/experiments/knapen_AOT/AOT_stimuli/rescaled_final/1710_fw.mp4	0.0	75.95849108695984	0.10002493858337402
4	58.60863900184631	fix_pre	0		120	2.0	2.5	/experiments/knapen_AOT/AOT_stimuli/rescaled_final/0506_rv.mp4	0.0	76.05851602554321	1.0001811981201172
4	58.783828020095825	pulse	0	t		2.0	2.5	/experiments/knapen_AOT/AOT_stimuli/rescaled_final/0506_rv.mp4	0.0	76.23370504379272	
4	59.60882019996643	movie	1		243	2.0	2.5	/experiments/knapen_AOT/AOT_stimuli/rescaled_final/0506_rv.mp4	0.0	77.05869722366333	2.5002779960632324
4	60.38411808013916	pulse	1	t		2.0	2.5	/experiments/knapen_AOT/AOT_stimuli/rescaled_final/0506_rv.mp4	0.0	77.83399510383606	
4	61.984363079071045	pulse	1	t		2.0	2.5	/experiments/knapen_AOT/AOT_stimuli/rescaled_final/0506_rv.mp4	0.0	79.43424010276794	
4	62.10909819602966	fix_post	2		12	2.0	2.5	/experiments/knapen_AOT/AOT_stimuli/rescaled_final/0506_rv.mp4	0.0	79.55897521972656	0.1000678539276123
5	62.209166049957275	fix_pre	0		120	3.0	2.5	/experiments/knapen_AOT/AOT_stimuli/rescaled_final/1476_fw.mp4	0.0	79.65904307365417	1.0001721382141113
5	63.20933818817139	movie	1		242	3.0	2.5	/experiments/knapen_AOT/AOT_stimuli/rescaled_final/1476_fw.mp4	0.0	80.65921521186829	2.4921789169311523
5	63.58460211753845	pulse	1	t		3.0	2.5	/experiments/knapen_AOT/AOT_stimuli/rescaled_final/1476_fw.mp4	0.0	81.03447914123535	
5	65.1848611831665	pulse	1	t		3.0	2.5	/experiments/knapen_AOT/AOT_stimuli/rescaled_final/1476_fw.mp4	0.0	82.6347382068634	
5	65.70151710510254	fix_post	2		12	3.0	2.5	/experiments/knapen_AOT/AOT_stimuli/rescaled_final/1476_fw.mp4	0.0	83.15139412879944	0.09989500045776367
6	65.8014121055603	fix_pre	0		119	4.0	2.5	/experiments/knapen_AOT/AOT_stimuli/rescaled_final/0860_rv.mp4	0.0	83.2512891292572	0.9918899536132812
6	66.78500199317932	pulse	0	t		4.0	2.5	/experiments/knapen_AOT/AOT_stimuli/rescaled_final/0860_rv.mp4	0.0	84.23487901687622	
6	66.79330205917358	movie	1		244	4.0	2.5	/experiments/knapen_AOT/AOT_stimuli/rescaled_final/0860_rv.mp4	0.0	84.24317908287048	2.508610963821411
6	68.38918614387512	pulse	1	t		4.0	2.5	/experiments/knapen_AOT/AOT_stimuli/rescaled_final/0860_rv.mp4	0.0	85.83906316757202	
6	69.301913022995	fix_post	2		12	4.0	2.5	/experiments/knapen_AOT/AOT_stimuli/rescaled_final/0860_rv.mp4	0.0	86.7517900466919	0.10003304481506348
7	69.40194606781006	fix_pre	0		120	5.0	2.5	/experiments/knapen_AOT/AOT_stimuli/rescaled_final/1101_rv.mp4	0.0	86.85182309150696	1.000108003616333
7	69.98551201820374	pulse	0	t		5.0	2.5	/experiments/knapen_AOT/AOT_stimuli/rescaled_final/1101_rv.mp4	0.0	87.43538904190063	
7	70.40205407142639	movie	1		242	5.0	2.5	/experiments/knapen_AOT/AOT_stimuli/rescaled_final/1101_rv.mp4	0.0	87.85193109512329	2.5005369186401367
7	71.58581113815308	pulse	1	t		5.0	2.5	/experiments/knapen_AOT/AOT_stimuli/rescaled_final/1101_rv.mp4	0.0	89.03568816184998	
7	72.90259099006653	fix_post	2		12	5.0	2.5	/experiments/knapen_AOT/AOT_stimuli/rescaled_final/1101_rv.mp4	0.0	90.35246801376343	0.0998849868774414
8	73.00247597694397	fix_pre	0		120	6.0	2.5	/experiments/knapen_AOT/AOT_stimuli/rescaled_final/0273_rv.mp4	0.0	90.45235300064087	1.0001301765441895
8	73.18602108955383	pulse	0	t		6.0	2.5	/experiments/knapen_AOT/AOT_stimuli/rescaled_final/0273_rv.mp4	0.0	90.63589811325073	
8	74.00260615348816	movie	1		242	6.0	2.5	/experiments/knapen_AOT/AOT_stimuli/rescaled_final/0273_rv.mp4	0.0	91.45248317718506	2.5004799365997314
8	74.78638505935669	pulse	1	t		6.0	2.5	/experiments/knapen_AOT/AOT_stimuli/rescaled_final/0273_rv.mp4	0.0	92.23626208305359	
8	76.38650298118591	pulse	1	t		6.0	2.5	/experiments/knapen_AOT/AOT_stimuli/rescaled_final/0273_rv.mp4	0.0	93.83638000488281	
8	76.50308609008789	fix_post	2		12	6.0	2.5	/experiments/knapen_AOT/AOT_stimuli/rescaled_final/0273_rv.mp4	0.0	93.95296311378479	0.09992003440856934
9	76.60300612449646	fix_pre	0		119	7.0	2.5	blank	1.0	94.05288314819336	0.9917829036712646
9	77.59478902816772	movie	1		300	7.0	2.5	blank	1.0	95.04466605186462	2.50040602684021
9	77.98668718338013	pulse	1	t		7.0	2.5	blank	1.0	95.43656420707703	
9	79.58692812919617	pulse	1	t		7.0	2.5	blank	1.0	97.03680515289307	
9	80.09519505500793	fix_post	2		12	7.0	2.5	blank	1.0	97.54507207870483	0.09999608993530273
10	80.19519114494324	fix_pre	0		120	8.0	2.5	/experiments/knapen_AOT/AOT_stimuli/rescaled_final/0136_fw.mp4	0.0	97.64506816864014	1.0001790523529053
10	81.18726301193237	pulse	0	t		8.0	2.5	/experiments/knapen_AOT/AOT_stimuli/rescaled_final/0136_fw.mp4	0.0	98.63714003562927	
10	81.19537019729614	movie	1		239	8.0	2.5	/experiments/knapen_AOT/AOT_stimuli/rescaled_final/0136_fw.mp4	0.0	98.64524722099304	2.508671998977661
10	82.78791499137878	pulse	1	t		8.0	2.5	/experiments/knapen_AOT/AOT_stimuli/rescaled_final/0136_fw.mp4	0.0	100.23779201507568	
10	83.7040421962738	fix_post	2		12	8.0	2.5	/experiments/knapen_AOT/AOT_stimuli/rescaled_final/0136_fw.mp4	0.0	101.1539192199707	0.10006880760192871
11	83.80411100387573	fix_pre	0		120	9.0	2.5	/experiments/knapen_AOT/AOT_stimuli/rescaled_final/1839_fw.mp4	0.0	101.25398802757263	1.0001111030578613
11	84.3877182006836	pulse	0	t		9.0	2.5	/experiments/knapen_AOT/AOT_stimuli/rescaled_final/1839_fw.mp4	0.0	101.8375952243805	
11	84.8042221069336	movie	1		242	9.0	2.5	/experiments/knapen_AOT/AOT_stimuli/rescaled_final/1839_fw.mp4	0.0	102.2540991306305	2.5003929138183594
11	85.98389506340027	pulse	1	t		9.0	2.5	/experiments/knapen_AOT/AOT_stimuli/rescaled_final/1839_fw.mp4	0.0	103.43377208709717	
11	87.30461502075195	fix_post	2		12	9.0	2.5	/experiments/knapen_AOT/AOT_stimuli/rescaled_final/1839_fw.mp4	0.0	104.75449204444885	0.09998106956481934
12	87.40459609031677	fix_pre	0		120	10.0	2.5	/experiments/knapen_AOT/AOT_stimuli/rescaled_final/1203_rv.mp4	0.0	104.85447311401367	1.0001609325408936
12	87.58815002441406	pulse	0	t		10.0	2.5	/experiments/knapen_AOT/AOT_stimuli/rescaled_final/1203_rv.mp4	0.0	105.03802704811096	
12	88.40475702285767	movie	1		243	10.0	2.5	/experiments/knapen_AOT/AOT_stimuli/rescaled_final/1203_rv.mp4	0.0	105.85463404655457	2.5004899501800537
12	89.18847417831421	pulse	1	t		10.0	2.5	/experiments/knapen_AOT/AOT_stimuli/rescaled_final/1203_rv.mp4	0.0	106.63835120201111	
12	90.7885251045227	pulse	1	t		10.0	2.5	/experiments/knapen_AOT/AOT_stimuli/rescaled_final/1203_rv.mp4	0.0	108.2384021282196	
12	90.90524697303772	fix_post	2		12	10.0	2.5	/experiments/knapen_AOT/AOT_stimuli/rescaled_final/1203_rv.mp4	0.0	108.35512399673462	0.09986615180969238
13	91.00511312484741	fix_pre	0		120	11.0	2.5	/experiments/knapen_AOT/AOT_stimuli/rescaled_final/1577_fw.mp4	0.0	108.45499014854431	1.0001499652862549
13	92.00526309013367	movie	1		241	11.0	2.5	/experiments/knapen_AOT/AOT_stimuli/rescaled_final/1577_fw.mp4	0.0	109.45514011383057	2.4922189712524414
13	92.38968014717102	pulse	1	t		11.0	2.5	/experiments/knapen_AOT/AOT_stimuli/rescaled_final/1577_fw.mp4	0.0	109.83955717086792	
13	93.98913311958313	pulse	1	t		11.0	2.5	/experiments/knapen_AOT/AOT_stimuli/rescaled_final/1577_fw.mp4	0.0	111.43901014328003	
13	94.49748206138611	fix_post	2		12	11.0	2.5	/experiments/knapen_AOT/AOT_stimuli/rescaled_final/1577_fw.mp4	0.0	111.94735908508301	0.09987592697143555
14	94.59735798835754	fix_pre	0		120	12.0	2.5	/experiments/knapen_AOT/AOT_stimuli/rescaled_final/0034_rv.mp4	0.0	112.04723501205444	1.0001301765441895
14	95.58944511413574	pulse	0	t		12.0	2.5	/experiments/knapen_AOT/AOT_stimuli/rescaled_final/0034_rv.mp4	0.0	113.03932213783264	
14	95.59748816490173	movie	1		243	12.0	2.5	/experiments/knapen_AOT/AOT_stimuli/rescaled_final/0034_rv.mp4	0.0	113.04736518859863	2.508733034133911
14	97.19028902053833	pulse	1	t		12.0	2.5	/experiments/knapen_AOT/AOT_stimuli/rescaled_final/0034_rv.mp4	0.0	114.64016604423523	
14	98.10622119903564	fix_post	2		12	12.0	2.5	/experiments/knapen_AOT/AOT_stimuli/rescaled_final/0034_rv.mp4	0.0	115.55609822273254	0.10001087188720703
15	98.20623207092285	fix_pre	0		120	13.0	2.5	/experiments/knapen_AOT/AOT_stimuli/rescaled_final/1788_rv.mp4	0.0	115.65610909461975	1.0001280307769775
15	98.78986811637878	pulse	0	t		13.0	2.5	/experiments/knapen_AOT/AOT_stimuli/rescaled_final/1788_rv.mp4	0.0	116.23974514007568	
15	99.20636010169983	movie	1		242	13.0	2.5	/experiments/knapen_AOT/AOT_stimuli/rescaled_final/1788_rv.mp4	0.0	116.65623712539673	2.5004520416259766
15	100.39028000831604	pulse	1	t		13.0	2.5	/experiments/knapen_AOT/AOT_stimuli/rescaled_final/1788_rv.mp4	0.0	117.84015703201294	
15	101.7068121433258	fix_post	2		12	13.0	2.5	/experiments/knapen_AOT/AOT_stimuli/rescaled_final/1788_rv.mp4	0.0	119.1566891670227	0.09999895095825195
16	101.80681109428406	fix_pre	0		120	14.0	2.5	blank	1.0	119.25668811798096	1.0000801086425781
16	101.99033713340759	pulse	0	t		14.0	2.5	blank	1.0	119.44021415710449	
16	102.80689120292664	movie	1		300	14.0	2.5	blank	1.0	120.25676822662354	2.500386953353882
16	103.59059309959412	pulse	1	t		14.0	2.5	blank	1.0	121.04047012329102	
16	105.18326997756958	pulse	1	t		14.0	2.5	blank	1.0	122.63314700126648	
16	105.30727815628052	fix_post	2		12	14.0	2.5	blank	1.0	122.75715517997742	0.1000828742980957
17	105.40736103057861	fix_pre	0		120	15.0	2.5	/experiments/knapen_AOT/AOT_stimuli/rescaled_final/1826_rv.mp4	0.0	122.85723805427551	1.0000600814819336
17	106.40742111206055	movie	1		242	15.0	2.5	/experiments/knapen_AOT/AOT_stimuli/rescaled_final/1826_rv.mp4	0.0	123.85729813575745	2.4921600818634033
17	106.79158401489258	pulse	1	t		15.0	2.5	/experiments/knapen_AOT/AOT_stimuli/rescaled_final/1826_rv.mp4	0.0	124.24146103858948	
17	108.38396120071411	pulse	1	t		15.0	2.5	/experiments/knapen_AOT/AOT_stimuli/rescaled_final/1826_rv.mp4	0.0	125.83383822441101	
17	108.89958119392395	fix_post	2		12	15.0	2.5	/experiments/knapen_AOT/AOT_stimuli/rescaled_final/1826_rv.mp4	0.0	126.34945821762085	0.09995484352111816
18	108.99953603744507	fix_pre	0		120	16.0	2.5	/experiments/knapen_AOT/AOT_stimuli/rescaled_final/0336_rv.mp4	0.0	126.44941306114197	1.0001230239868164
18	109.9840521812439	pulse	0	t		16.0	2.5	/experiments/knapen_AOT/AOT_stimuli/rescaled_final/0336_rv.mp4	0.0	127.4339292049408	
18	109.99965906143188	movie	1		244	16.0	2.5	/experiments/knapen_AOT/AOT_stimuli/rescaled_final/0336_rv.mp4	0.0	127.44953608512878	2.5086820125579834
18	111.59293508529663	pulse	1	t		16.0	2.5	/experiments/knapen_AOT/AOT_stimuli/rescaled_final/0336_rv.mp4	0.0	129.04281210899353	
18	112.50834107398987	fix_post	2		12	16.0	2.5	/experiments/knapen_AOT/AOT_stimuli/rescaled_final/0336_rv.mp4	0.0	129.95821809768677	0.10004496574401855
19	112.60838603973389	fix_pre	0		120	17.0	2.5	/experiments/knapen_AOT/AOT_stimuli/rescaled_final/1602_fw.mp4	0.0	130.0582630634308	1.0001230239868164
19	113.1836211681366	pulse	0	t		17.0	2.5	/experiments/knapen_AOT/AOT_stimuli/rescaled_final/1602_fw.mp4	0.0	130.6334981918335	
19	113.6085090637207	movie	1		242	17.0	2.5	/experiments/knapen_AOT/AOT_stimuli/rescaled_final/1602_fw.mp4	0.0	131.0583860874176	2.500580072402954
19	114.78442001342773	pulse	1	t		17.0	2.5	/experiments/knapen_AOT/AOT_stimuli/rescaled_final/1602_fw.mp4	0.0	132.23429703712463	
19	116.10908913612366	fix_post	2		12	17.0	2.5	/experiments/knapen_AOT/AOT_stimuli/rescaled_final/1602_fw.mp4	0.0	133.55896615982056	0.09974884986877441
20	116.20883798599243	fix_pre	0		120	18.0	2.5	/experiments/knapen_AOT/AOT_stimuli/rescaled_final/1047_rv.mp4	0.0	133.65871500968933	1.0002121925354004
20	116.38423109054565	pulse	0	t		18.0	2.5	/experiments/knapen_AOT/AOT_stimuli/rescaled_final/1047_rv.mp4	0.0	133.83410811424255	
20	117.20905017852783	movie	1		242	18.0	2.5	/experiments/knapen_AOT/AOT_stimuli/rescaled_final/1047_rv.mp4	0.0	134.65892720222473	2.5004827976226807
20	117.98449516296387	pulse	1	t		18.0	2.5	/experiments/knapen_AOT/AOT_stimuli/rescaled_final/1047_rv.mp4	0.0	135.43437218666077	
20	119.58457517623901	pulse	1	t		18.0	2.5	/experiments/knapen_AOT/AOT_stimuli/rescaled_final/1047_rv.mp4	0.0	137.0344521999359	
20	119.70953297615051	fix_post	2		11	18.0	2.5	/experiments/knapen_AOT/AOT_stimuli/rescaled_final/1047_rv.mp4	0.0	137.1594099998474	0.09159207344055176
21	119.80112504959106	fix_pre	0		120	19.0	2.5	blank	1.0	137.25100207328796	1.0001580715179443
21	120.80128312110901	movie	1		300	19.0	2.5	blank	1.0	138.2511601448059	2.500335931777954
21	121.18488717079163	pulse	1	t		19.0	2.5	blank	1.0	138.63476419448853	
21	122.78515410423279	pulse	1	t		19.0	2.5	blank	1.0	140.2350311279297	
21	123.30161905288696	fix_post	2		12	19.0	2.5	blank	1.0	140.75149607658386	0.10001111030578613
22	123.40163016319275	fix_pre	0		119	20.0	2.5	/experiments/knapen_AOT/AOT_stimuli/rescaled_final/0065_rv.mp4	0.0	140.85150718688965	0.9918198585510254
22	124.3854169845581	pulse	0	t		20.0	2.5	/experiments/knapen_AOT/AOT_stimuli/rescaled_final/0065_rv.mp4	0.0	141.835294008255	
22	124.39345002174377	movie	1		243	20.0	2.5	/experiments/knapen_AOT/AOT_stimuli/rescaled_final/0065_rv.mp4	0.0	141.84332704544067	2.5086381435394287
22	125.98614597320557	pulse	1	t		20.0	2.5	/experiments/knapen_AOT/AOT_stimuli/rescaled_final/0065_rv.mp4	0.0	143.43602299690247	
22	126.9020881652832	fix_post	2		12	20.0	2.5	/experiments/knapen_AOT/AOT_stimuli/rescaled_final/0065_rv.mp4	0.0	144.3519651889801	0.10013198852539062
23	127.0022201538086	fix_pre	0		120	21.0	2.5	/experiments/knapen_AOT/AOT_stimuli/rescaled_final/0821_fw.mp4	0.0	144.4520971775055	1.00010085105896
23	127.5857629776001	pulse	0	t		21.0	2.5	/experiments/knapen_AOT/AOT_stimuli/rescaled_final/0821_fw.mp4	0.0	145.035640001297	
23	128.00232100486755	movie	1		243	21.0	2.5	/experiments/knapen_AOT/AOT_stimuli/rescaled_final/0821_fw.mp4	0.0	145.45219802856445	2.500396966934204
23	129.18621397018433	pulse	1	t		21.0	2.5	/experiments/knapen_AOT/AOT_stimuli/rescaled_final/0821_fw.mp4	0.0	146.63609099388123	
23	130.50271797180176	fix_post	2		12	21.0	2.5	/experiments/knapen_AOT/AOT_stimuli/rescaled_final/0821_fw.mp4	0.0	147.95259499549866	0.10001206398010254
24	130.60273003578186	fix_pre	0		120	22.0	2.5	/experiments/knapen_AOT/AOT_stimuli/rescaled_final/1236_fw.mp4	0.0	148.05260705947876	1.0001189708709717
24	130.78634309768677	pulse	0	t		22.0	2.5	/experiments/knapen_AOT/AOT_stimuli/rescaled_final/1236_fw.mp4	0.0	148.23622012138367	
24	131.60284900665283	movie	1		242	22.0	2.5	/experiments/knapen_AOT/AOT_stimuli/rescaled_final/1236_fw.mp4	0.0	149.05272603034973	2.5005719661712646
24	132.3865361213684	pulse	1	t		22.0	2.5	/experiments/knapen_AOT/AOT_stimuli/rescaled_final/1236_fw.mp4	0.0	149.8364131450653	
24	133.9867181777954	pulse	1	t		22.0	2.5	/experiments/knapen_AOT/AOT_stimuli/rescaled_final/1236_fw.mp4	0.0	151.4365952014923	
24	134.1034209728241	fix_post	2		12	22.0	2.5	/experiments/knapen_AOT/AOT_stimuli/rescaled_final/1236_fw.mp4	0.0	151.553297996521	0.09986114501953125
25	134.20328211784363	fix_pre	0		120	23.0	2.5	/experiments/knapen_AOT/AOT_stimuli/rescaled_final/0813_fw.mp4	0.0	151.65315914154053	1.0001270771026611
25	135.2034091949463	movie	1		241	23.0	2.5	/experiments/knapen_AOT/AOT_stimuli/rescaled_final/0813_fw.mp4	0.0	152.6532862186432	2.492156982421875
25	135.58735299110413	pulse	1	t		23.0	2.5	/experiments/knapen_AOT/AOT_stimuli/rescaled_final/0813_fw.mp4	0.0	153.03723001480103	
25	137.1872901916504	pulse	1	t		23.0	2.5	/experiments/knapen_AOT/AOT_stimuli/rescaled_final/0813_fw.mp4	0.0	154.6371672153473	
25	137.69556617736816	fix_post	2		12	23.0	2.5	/experiments/knapen_AOT/AOT_stimuli/rescaled_final/0813_fw.mp4	0.0	155.14544320106506	0.09988284111022949
26	137.7954490184784	fix_pre	0		120	24.0	2.5	/experiments/knapen_AOT/AOT_stimuli/rescaled_final/0399_rv.mp4	0.0	155.2453260421753	1.0001370906829834
26	138.78756403923035	pulse	0	t		24.0	2.5	/experiments/knapen_AOT/AOT_stimuli/rescaled_final/0399_rv.mp4	0.0	156.23744106292725	
26	138.79558610916138	movie	1		245	24.0	2.5	/experiments/knapen_AOT/AOT_stimuli/rescaled_final/0399_rv.mp4	0.0	156.24546313285828	2.5088109970092773
26	140.38892006874084	pulse	1	t		24.0	2.5	/experiments/knapen_AOT/AOT_stimuli/rescaled_final/0399_rv.mp4	0.0	157.83879709243774	
26	141.30439710617065	fix_post	2		12	24.0	2.5	/experiments/knapen_AOT/AOT_stimuli/rescaled_final/0399_rv.mp4	0.0	158.75427412986755	0.09996795654296875
27	141.40436506271362	fix_pre	0		120	25.0	2.5	/experiments/knapen_AOT/AOT_stimuli/rescaled_final/0903_fw.mp4	0.0	158.85424208641052	1.0000901222229004
27	141.98790097236633	pulse	0	t		25.0	2.5	/experiments/knapen_AOT/AOT_stimuli/rescaled_final/0903_fw.mp4	0.0	159.43777799606323	
27	142.40445518493652	movie	1		244	25.0	2.5	/experiments/knapen_AOT/AOT_stimuli/rescaled_final/0903_fw.mp4	0.0	159.85433220863342	2.5004208087921143
27	143.58836317062378	pulse	1	t		25.0	2.5	/experiments/knapen_AOT/AOT_stimuli/rescaled_final/0903_fw.mp4	0.0	161.03824019432068	
27	144.90487599372864	fix_post	2		12	25.0	2.5	/experiments/knapen_AOT/AOT_stimuli/rescaled_final/0903_fw.mp4	0.0	162.35475301742554	0.100067138671875
28	145.0049431324005	fix_pre	0		120	26.0	2.5	/experiments/knapen_AOT/AOT_stimuli/rescaled_final/2001_rv.mp4	0.0	162.4548201560974	1.0000698566436768
28	145.1885061264038	pulse	0	t		26.0	2.5	/experiments/knapen_AOT/AOT_stimuli/rescaled_final/2001_rv.mp4	0.0	162.6383831501007	
28	146.0050129890442	movie	1		239	26.0	2.5	/experiments/knapen_AOT/AOT_stimuli/rescaled_final/2001_rv.mp4	0.0	163.4548900127411	2.500516176223755
28	146.7886610031128	pulse	1	t		26.0	2.5	/experiments/knapen_AOT/AOT_stimuli/rescaled_final/2001_rv.mp4	0.0	164.2385380268097	
28	148.38860201835632	pulse	1	t		26.0	2.5	/experiments/knapen_AOT/AOT_stimuli/rescaled_final/2001_rv.mp4	0.0	165.83847904205322	
28	148.50552916526794	fix_post	2		12	26.0	2.5	/experiments/knapen_AOT/AOT_stimuli/rescaled_final/2001_rv.mp4	0.0	165.95540618896484	0.09989595413208008
29	148.60542511940002	fix_pre	0		120	27.0	2.5	/experiments/knapen_AOT/AOT_stimuli/rescaled_final/2037_fw.mp4	0.0	166.05530214309692	1.0001509189605713
29	149.6055760383606	movie	1		242	27.0	2.5	/experiments/knapen_AOT/AOT_stimuli/rescaled_final/2037_fw.mp4	0.0	167.0554530620575	2.4919869899749756
29	149.9901111125946	pulse	1	t		27.0	2.5	/experiments/knapen_AOT/AOT_stimuli/rescaled_final/2037_fw.mp4	0.0	167.4399881362915	
29	151.58948302268982	pulse	1	t		27.0	2.5	/experiments/knapen_AOT/AOT_stimuli/rescaled_final/2037_fw.mp4	0.0	169.03936004638672	
29	152.09756302833557	fix_post	2		12	27.0	2.5	/experiments/knapen_AOT/AOT_stimuli/rescaled_final/2037_fw.mp4	0.0	169.54744005203247	0.10001206398010254
30	152.19757509231567	fix_pre	0		120	28.0	2.5	blank	1.0	169.64745211601257	1.0002210140228271
30	153.18966102600098	pulse	0	t		28.0	2.5	blank	1.0	170.63953804969788	
30	153.1977961063385	movie	1		301	28.0	2.5	blank	1.0	170.6476731300354	2.508686065673828
30	154.78980708122253	pulse	1	t		28.0	2.5	blank	1.0	172.23968410491943	
30	155.70648217201233	fix_post	2		12	28.0	2.5	blank	1.0	173.15635919570923	0.09997797012329102
31	155.80646014213562	fix_pre	0		120	29.0	2.5	/experiments/knapen_AOT/AOT_stimuli/rescaled_final/1886_rv.mp4	0.0	173.25633716583252	1.000140905380249
31	156.39011001586914	pulse	0	t		29.0	2.5	/experiments/knapen_AOT/AOT_stimuli/rescaled_final/1886_rv.mp4	0.0	173.83998703956604	
31	156.80660104751587	movie	1		242	29.0	2.5	/experiments/knapen_AOT/AOT_stimuli/rescaled_final/1886_rv.mp4	0.0	174.25647807121277	2.500535011291504
31	157.99046897888184	pulse	1	t		29.0	2.5	/experiments/knapen_AOT/AOT_stimuli/rescaled_final/1886_rv.mp4	0.0	175.44034600257874	
31	159.30713605880737	fix_post	2		12	29.0	2.5	/experiments/knapen_AOT/AOT_stimuli/rescaled_final/1886_rv.mp4	0.0	176.75701308250427	0.09988903999328613
32	159.40702509880066	fix_pre	0		120	30.0	2.5	/experiments/knapen_AOT/AOT_stimuli/rescaled_final/1634_rv.mp4	0.0	176.85690212249756	1.0002110004425049
32	159.58312010765076	pulse	0	t		30.0	2.5	/experiments/knapen_AOT/AOT_stimuli/rescaled_final/1634_rv.mp4	0.0	177.03299713134766	
32	160.40723609924316	movie	1		245	30.0	2.5	/experiments/knapen_AOT/AOT_stimuli/rescaled_final/1634_rv.mp4	0.0	177.85711312294006	2.5002920627593994
32	161.1834020614624	pulse	1	t		30.0	2.5	/experiments/knapen_AOT/AOT_stimuli/rescaled_final/1634_rv.mp4	0.0	178.6332790851593	
32	162.78854417800903	pulse	1	t		30.0	2.5	/experiments/knapen_AOT/AOT_stimuli/rescaled_final/1634_rv.mp4	0.0	180.23842120170593	
32	162.90752816200256	fix_post	2		12	30.0	2.5	/experiments/knapen_AOT/AOT_stimuli/rescaled_final/1634_rv.mp4	0.0	180.35740518569946	0.10000896453857422
33	163.00753712654114	fix_pre	0		119	31.0	2.5	/experiments/knapen_AOT/AOT_stimuli/rescaled_final/1476_rv.mp4	0.0	180.45741415023804	0.9918630123138428
33	163.99940013885498	movie	1		243	31.0	2.5	/experiments/knapen_AOT/AOT_stimuli/rescaled_final/1476_rv.mp4	0.0	181.44927716255188	2.5004448890686035
33	164.38336896896362	pulse	1	t		31.0	2.5	/experiments/knapen_AOT/AOT_stimuli/rescaled_final/1476_rv.mp4	0.0	181.83324599266052	
33	165.98318004608154	pulse	1	t		31.0	2.5	/experiments/knapen_AOT/AOT_stimuli/rescaled_final/1476_rv.mp4	0.0	183.43305706977844	
33	166.49984502792358	fix_post	2		12	31.0	2.5	/experiments/knapen_AOT/AOT_stimuli/rescaled_final/1476_rv.mp4	0.0	183.94972205162048	0.09988903999328613
34	166.59973406791687	fix_pre	0		119	32.0	2.5	/experiments/knapen_AOT/AOT_stimuli/rescaled_final/0104_fw.mp4	0.0	184.04961109161377	0.9918150901794434
34	167.58341598510742	pulse	0	t		32.0	2.5	/experiments/knapen_AOT/AOT_stimuli/rescaled_final/0104_fw.mp4	0.0	185.03329300880432	
34	167.5915491580963	movie	1		244	32.0	2.5	/experiments/knapen_AOT/AOT_stimuli/rescaled_final/0104_fw.mp4	0.0	185.0414261817932	2.508754014968872
34	169.18411207199097	pulse	1	t		32.0	2.5	/experiments/knapen_AOT/AOT_stimuli/rescaled_final/0104_fw.mp4	0.0	186.63398909568787	
34	170.10030317306519	fix_post	2		12	32.0	2.5	/experiments/knapen_AOT/AOT_stimuli/rescaled_final/0104_fw.mp4	0.0	187.55018019676208	0.09996891021728516
35	170.20027208328247	fix_pre	0		120	33.0	2.5	blank	1.0	187.65014910697937	1.0001530647277832
35	170.7838740348816	pulse	0	t		33.0	2.5	blank	1.0	188.2337510585785	
35	171.20042514801025	movie	1		300	33.0	2.5	blank	1.0	188.65030217170715	2.500408887863159
35	172.38417220115662	pulse	1	t		33.0	2.5	blank	1.0	189.83404922485352	
35	173.7008340358734	fix_post	2		12	33.0	2.5	blank	1.0	191.1507110595703	0.10005998611450195
36	173.80089402198792	fix_pre	0		120	34.0	2.5	/experiments/knapen_AOT/AOT_stimuli/rescaled_final/1531_rv.mp4	0.0	191.25077104568481	1.0000779628753662
36	173.98433899879456	pulse	0	t		34.0	2.5	/experiments/knapen_AOT/AOT_stimuli/rescaled_final/1531_rv.mp4	0.0	191.43421602249146	
36	174.80097198486328	movie	1		243	34.0	2.5	/experiments/knapen_AOT/AOT_stimuli/rescaled_final/1531_rv.mp4	0.0	192.25084900856018	2.500521183013916
36	175.5846791267395	pulse	1	t		34.0	2.5	/experiments/knapen_AOT/AOT_stimuli/rescaled_final/1531_rv.mp4	0.0	193.0345561504364	
36	177.18477511405945	pulse	1	t		34.0	2.5	/experiments/knapen_AOT/AOT_stimuli/rescaled_final/1531_rv.mp4	0.0	194.63465213775635	
36	177.3014931678772	fix_post	2		12	34.0	2.5	/experiments/knapen_AOT/AOT_stimuli/rescaled_final/1531_rv.mp4	0.0	194.7513701915741	0.09984803199768066
37	177.40134119987488	fix_pre	0		119	35.0	2.5	/experiments/knapen_AOT/AOT_stimuli/rescaled_final/0376_rv.mp4	0.0	194.85121822357178	0.9918808937072754
37	178.39322209358215	movie	1		243	35.0	2.5	/experiments/knapen_AOT/AOT_stimuli/rescaled_final/0376_rv.mp4	0.0	195.84309911727905	2.5003700256347656
37	178.78516507148743	pulse	1	t		35.0	2.5	/experiments/knapen_AOT/AOT_stimuli/rescaled_final/0376_rv.mp4	0.0	196.23504209518433	
37	180.38529014587402	pulse	1	t		35.0	2.5	/experiments/knapen_AOT/AOT_stimuli/rescaled_final/0376_rv.mp4	0.0	197.83516716957092	
37	180.89359211921692	fix_post	2		12	35.0	2.5	/experiments/knapen_AOT/AOT_stimuli/rescaled_final/0376_rv.mp4	0.0	198.34346914291382	0.09998703002929688
38	180.99357914924622	fix_pre	0		120	36.0	2.5	/experiments/knapen_AOT/AOT_stimuli/rescaled_final/1944_rv.mp4	0.0	198.44345617294312	1.0001790523529053
38	181.98563313484192	pulse	0	t		36.0	2.5	/experiments/knapen_AOT/AOT_stimuli/rescaled_final/1944_rv.mp4	0.0	199.43551015853882	
38	181.99375820159912	movie	1		244	36.0	2.5	/experiments/knapen_AOT/AOT_stimuli/rescaled_final/1944_rv.mp4	0.0	199.44363522529602	2.508654832839966
38	183.59043502807617	pulse	1	t		36.0	2.5	/experiments/knapen_AOT/AOT_stimuli/rescaled_final/1944_rv.mp4	0.0	201.04031205177307	
38	184.5024130344391	fix_post	2		12	36.0	2.5	/experiments/knapen_AOT/AOT_stimuli/rescaled_final/1944_rv.mp4	0.0	201.952290058136	0.10009098052978516
39	184.60250401496887	fix_pre	0		120	37.0	2.5	/experiments/knapen_AOT/AOT_stimuli/rescaled_final/1162_fw.mp4	0.0	202.05238103866577	1.0000660419464111
39	185.18606209754944	pulse	0	t		37.0	2.5	/experiments/knapen_AOT/AOT_stimuli/rescaled_final/1162_fw.mp4	0.0	202.63593912124634	
39	185.60257005691528	movie	1		243	37.0	2.5	/experiments/knapen_AOT/AOT_stimuli/rescaled_final/1162_fw.mp4	0.0	203.05244708061218	2.5005059242248535
39	186.786386013031	pulse	1	t		37.0	2.5	/experiments/knapen_AOT/AOT_stimuli/rescaled_final/1162_fw.mp4	0.0	204.2362630367279	
39	188.10307598114014	fix_post	2		12	37.0	2.5	/experiments/knapen_AOT/AOT_stimuli/rescaled_final/1162_fw.mp4	0.0	205.55295300483704	0.09987616539001465
40	188.20295214653015	fix_pre	0		120	38.0	2.5	/experiments/knapen_AOT/AOT_stimuli/rescaled_final/1918_fw.mp4	0.0	205.65282917022705	1.0001568794250488
40	188.3865430355072	pulse	0	t		38.0	2.5	/experiments/knapen_AOT/AOT_stimuli/rescaled_final/1918_fw.mp4	0.0	205.8364200592041	
40	189.2031090259552	movie	1		242	38.0	2.5	/experiments/knapen_AOT/AOT_stimuli/rescaled_final/1918_fw.mp4	0.0	206.6529860496521	2.500462055206299
40	189.9867820739746	pulse	1	t		38.0	2.5	/experiments/knapen_AOT/AOT_stimuli/rescaled_final/1918_fw.mp4	0.0	207.4366590976715	
40	191.58698511123657	pulse	1	t		38.0	2.5	/experiments/knapen_AOT/AOT_stimuli/rescaled_final/1918_fw.mp4	0.0	209.03686213493347	
40	191.7035710811615	fix_post	2		12	38.0	2.5	/experiments/knapen_AOT/AOT_stimuli/rescaled_final/1918_fw.mp4	0.0	209.1534481048584	0.09999203681945801
41	191.80356311798096	fix_pre	0		120	39.0	2.5	/experiments/knapen_AOT/AOT_stimuli/rescaled_final/0023_rv.mp4	0.0	209.25344014167786	1.0000839233398438
41	192.8036470413208	movie	1		242	39.0	2.5	/experiments/knapen_AOT/AOT_stimuli/rescaled_final/0023_rv.mp4	0.0	210.2535240650177	2.4920480251312256
41	193.18901109695435	pulse	1	t		39.0	2.5	/experiments/knapen_AOT/AOT_stimuli/rescaled_final/0023_rv.mp4	0.0	210.63888812065125	
41	194.7874732017517	pulse	1	t		39.0	2.5	/experiments/knapen_AOT/AOT_stimuli/rescaled_final/0023_rv.mp4	0.0	212.2373502254486	
41	195.29569506645203	fix_post	2		12	39.0	2.5	/experiments/knapen_AOT/AOT_stimuli/rescaled_final/0023_rv.mp4	0.0	212.74557209014893	0.10000801086425781
42	195.39570307731628	fix_pre	0		120	40.0	2.5	/experiments/knapen_AOT/AOT_stimuli/rescaled_final/1822_fw.mp4	0.0	212.84558010101318	1.0001990795135498
42	196.38771200180054	pulse	0	t		40.0	2.5	/experiments/knapen_AOT/AOT_stimuli/rescaled_final/1822_fw.mp4	0.0	213.83758902549744	
42	196.39590215682983	movie	1		243	40.0	2.5	/experiments/knapen_AOT/AOT_stimuli/rescaled_final/1822_fw.mp4	0.0	213.84577918052673	2.5086748600006104
42	197.99235701560974	pulse	1	t		40.0	2.5	/experiments/knapen_AOT/AOT_stimuli/rescaled_final/1822_fw.mp4	0.0	215.44223403930664	
42	198.90457701683044	fix_post	2		12	40.0	2.5	/experiments/knapen_AOT/AOT_stimuli/rescaled_final/1822_fw.mp4	0.0	216.35445404052734	0.09998798370361328
43	199.00456500053406	fix_pre	0		120	41.0	2.5	/experiments/knapen_AOT/AOT_stimuli/rescaled_final/2060_rv.mp4	0.0	216.45444202423096	1.000171184539795
43	199.58823919296265	pulse	0	t		41.0	2.5	/experiments/knapen_AOT/AOT_stimuli/rescaled_final/2060_rv.mp4	0.0	217.03811621665955	
43	200.00473618507385	movie	1		242	41.0	2.5	/experiments/knapen_AOT/AOT_stimuli/rescaled_final/2060_rv.mp4	0.0	217.45461320877075	2.5005087852478027
43	201.18852519989014	pulse	1	t		41.0	2.5	/experiments/knapen_AOT/AOT_stimuli/rescaled_final/2060_rv.mp4	0.0	218.63840222358704	
43	202.50524497032166	fix_post	2		12	41.0	2.5	/experiments/knapen_AOT/AOT_stimuli/rescaled_final/2060_rv.mp4	0.0	219.95512199401855	0.09987807273864746
44	202.6051230430603	fix_pre	0		120	42.0	2.5	blank	1.0	220.0550000667572	1.0001220703125
44	202.78872203826904	pulse	0	t		42.0	2.5	blank	1.0	220.23859906196594	
44	203.6052451133728	movie	1		300	42.0	2.5	blank	1.0	221.0551221370697	2.5004138946533203
44	204.38899302482605	pulse	1	t		42.0	2.5	blank	1.0	221.83887004852295	
44	205.9892361164093	pulse	1	t		42.0	2.5	blank	1.0	223.4391131401062	
44	206.10565900802612	fix_post	2		12	42.0	2.5	blank	1.0	223.55553603172302	0.10005617141723633
45	206.20571517944336	fix_pre	0		120	43.0	2.5	/experiments/knapen_AOT/AOT_stimuli/rescaled_final/1299_fw.mp4	0.0	223.65559220314026	1.0001018047332764
45	207.20581698417664	movie	1		241	43.0	2.5	/experiments/knapen_AOT/AOT_stimuli/rescaled_final/1299_fw.mp4	0.0	224.65569400787354	2.492166042327881
45	207.59016513824463	pulse	1	t		43.0	2.5	/experiments/knapen_AOT/AOT_stimuli/rescaled_final/1299_fw.mp4	0.0	225.04004216194153	
45	209.18960309028625	pulse	1	t		43.0	2.5	/experiments/knapen_AOT/AOT_stimuli/rescaled_final/1299_fw.mp4	0.0	226.63948011398315	
45	209.69798302650452	fix_post	2		12	43.0	2.5	/experiments/knapen_AOT/AOT_stimuli/rescaled_final/1299_fw.mp4	0.0	227.14786005020142	0.09986305236816406
46	209.79784607887268	fix_pre	0		118	44.0	2.5	/experiments/knapen_AOT/AOT_stimuli/rescaled_final/1600_rv.mp4	0.0	227.24772310256958	1.0001370906829834
46	210.78990507125854	pulse	0	t		44.0	2.5	/experiments/knapen_AOT/AOT_stimuli/rescaled_final/1600_rv.mp4	0.0	228.23978209495544	
46	210.79798316955566	movie	1		244	44.0	2.5	/experiments/knapen_AOT/AOT_stimuli/rescaled_final/1600_rv.mp4	0.0	228.24786019325256	2.5087859630584717
46	212.3904950618744	pulse	1	t		44.0	2.5	/experiments/knapen_AOT/AOT_stimuli/rescaled_final/1600_rv.mp4	0.0	229.8403720855713	
46	213.30676913261414	fix_post	2		12	44.0	2.5	/experiments/knapen_AOT/AOT_stimuli/rescaled_final/1600_rv.mp4	0.0	230.75664615631104	0.10006284713745117
47	213.4068319797516	fix_pre	0		120	45.0	2.5	/experiments/knapen_AOT/AOT_stimuli/rescaled_final/1392_fw.mp4	0.0	230.8567090034485	1.0000920295715332
47	213.9903872013092	pulse	0	t		45.0	2.5	/experiments/knapen_AOT/AOT_stimuli/rescaled_final/1392_fw.mp4	0.0	231.4402642250061	
47	214.40692400932312	movie	1		243	45.0	2.5	/experiments/knapen_AOT/AOT_stimuli/rescaled_final/1392_fw.mp4	0.0	231.85680103302002	2.500495195388794
47	215.58664298057556	pulse	1	t		45.0	2.5	/experiments/knapen_AOT/AOT_stimuli/rescaled_final/1392_fw.mp4	0.0	233.03652000427246	
47	216.9074192047119	fix_post	2		12	45.0	2.5	/experiments/knapen_AOT/AOT_stimuli/rescaled_final/1392_fw.mp4	0.0	234.3572962284088	0.09984993934631348
48	217.00726914405823	fix_pre	0		120	46.0	2.5	/experiments/knapen_AOT/AOT_stimuli/rescaled_final/0969_rv.mp4	0.0	234.45714616775513	1.0001389980316162
48	217.1907880306244	pulse	0	t		46.0	2.5	/experiments/knapen_AOT/AOT_stimuli/rescaled_final/0969_rv.mp4	0.0	234.6406650543213	
48	218.00740814208984	movie	1		243	46.0	2.5	/experiments/knapen_AOT/AOT_stimuli/rescaled_final/0969_rv.mp4	0.0	235.45728516578674	2.500530958175659
48	218.79116296768188	pulse	1	t		46.0	2.5	/experiments/knapen_AOT/AOT_stimuli/rescaled_final/0969_rv.mp4	0.0	236.24103999137878	
48	220.39103817939758	pulse	1	t		46.0	2.5	/experiments/knapen_AOT/AOT_stimuli/rescaled_final/0969_rv.mp4	0.0	237.84091520309448	
48	220.5079391002655	fix_post	2		12	46.0	2.5	/experiments/knapen_AOT/AOT_stimuli/rescaled_final/0969_rv.mp4	0.0	237.9578161239624	0.09985589981079102
49	220.6077950000763	fix_pre	0		120	47.0	2.5	/experiments/knapen_AOT/AOT_stimuli/rescaled_final/0278_fw.mp4	0.0	238.0576720237732	1.0001611709594727
49	221.60795617103577	movie	1		243	47.0	2.5	/experiments/knapen_AOT/AOT_stimuli/rescaled_final/0278_fw.mp4	0.0	239.05783319473267	2.492003917694092
49	221.99206709861755	pulse	1	t		47.0	2.5	/experiments/knapen_AOT/AOT_stimuli/rescaled_final/0278_fw.mp4	0.0	239.44194412231445	
49	223.58373618125916	pulse	1	t		47.0	2.5	/experiments/knapen_AOT/AOT_stimuli/rescaled_final/0278_fw.mp4	0.0	241.03361320495605	
49	224.09996008872986	fix_post	2		12	47.0	2.5	/experiments/knapen_AOT/AOT_stimuli/rescaled_final/0278_fw.mp4	0.0	241.54983711242676	0.10002899169921875
50	224.19998908042908	fix_pre	0		120	48.0	2.5	/experiments/knapen_AOT/AOT_stimuli/rescaled_final/1226_fw.mp4	0.0	241.64986610412598	1.0001881122589111
50	225.18437814712524	pulse	0	t		48.0	2.5	/experiments/knapen_AOT/AOT_stimuli/rescaled_final/1226_fw.mp4	0.0	242.63425517082214	
50	225.200177192688	movie	1		244	48.0	2.5	/experiments/knapen_AOT/AOT_stimuli/rescaled_final/1226_fw.mp4	0.0	242.6500542163849	2.5087459087371826
50	226.78394508361816	pulse	1	t		48.0	2.5	/experiments/knapen_AOT/AOT_stimuli/rescaled_final/1226_fw.mp4	0.0	244.23382210731506	
50	227.70892310142517	fix_post	2		12	48.0	2.5	/experiments/knapen_AOT/AOT_stimuli/rescaled_final/1226_fw.mp4	0.0	245.15880012512207	0.09993195533752441
51	227.8088550567627	fix_pre	0		120	49.0	2.5	blank	1.0	245.2587320804596	1.0001649856567383
51	228.38411712646484	pulse	0	t		49.0	2.5	blank	1.0	245.83399415016174	
51	228.80902004241943	movie	1		300	49.0	2.5	blank	1.0	246.25889706611633	2.5004141330718994
51	229.9845221042633	pulse	1	t		49.0	2.5	blank	1.0	247.4343991279602	
51	231.30943417549133	fix_post	2		12	49.0	2.5	blank	1.0	248.75931119918823	0.10000395774841309
52	231.40943813323975	fix_pre	0		120	50.0	2.5	/experiments/knapen_AOT/AOT_stimuli/rescaled_final/0582_rv.mp4	0.0	248.85931515693665	1.0001280307769775
52	231.58463597297668	pulse	0	t		50.0	2.5	/experiments/knapen_AOT/AOT_stimuli/rescaled_final/0582_rv.mp4	0.0	249.03451299667358	
52	232.40956616401672	movie	1		242	50.0	2.5	/experiments/knapen_AOT/AOT_stimuli/rescaled_final/0582_rv.mp4	0.0	249.85944318771362	2.5005359649658203
52	233.184876203537	pulse	1	t		50.0	2.5	/experiments/knapen_AOT/AOT_stimuli/rescaled_final/0582_rv.mp4	0.0	250.6347532272339	
52	234.78515315055847	pulse	1	t		50.0	2.5	/experiments/knapen_AOT/AOT_stimuli/rescaled_final/0582_rv.mp4	0.0	252.23503017425537	
52	234.91010212898254	fix_post	2		12	50.0	2.5	/experiments/knapen_AOT/AOT_stimuli/rescaled_final/0582_rv.mp4	0.0	252.35997915267944	0.09988689422607422
53	235.00998902320862	fix_pre	0		120	51.0	2.5	/experiments/knapen_AOT/AOT_stimuli/rescaled_final/1563_fw.mp4	0.0	252.45986604690552	1.0001070499420166
53	236.01009607315063	movie	1		242	51.0	2.5	/experiments/knapen_AOT/AOT_stimuli/rescaled_final/1563_fw.mp4	0.0	253.45997309684753	2.492237091064453
53	236.3853120803833	pulse	1	t		51.0	2.5	/experiments/knapen_AOT/AOT_stimuli/rescaled_final/1563_fw.mp4	0.0	253.8351891040802	
53	237.98569798469543	pulse	1	t		51.0	2.5	/experiments/knapen_AOT/AOT_stimuli/rescaled_final/1563_fw.mp4	0.0	255.43557500839233	
53	238.5023331642151	fix_post	2		12	51.0	2.5	/experiments/knapen_AOT/AOT_stimuli/rescaled_final/1563_fw.mp4	0.0	255.952210187912	0.09982895851135254
54	238.60216212272644	fix_pre	0		119	52.0	2.5	/experiments/knapen_AOT/AOT_stimuli/rescaled_final/0826_rv.mp4	0.0	256.05203914642334	0.991844892501831
54	239.58576798439026	pulse	0	t		52.0	2.5	/experiments/knapen_AOT/AOT_stimuli/rescaled_final/0826_rv.mp4	0.0	257.03564500808716	
54	239.59400701522827	movie	1		244	52.0	2.5	/experiments/knapen_AOT/AOT_stimuli/rescaled_final/0826_rv.mp4	0.0	257.04388403892517	2.5086519718170166
54	241.1865861415863	pulse	1	t		52.0	2.5	/experiments/knapen_AOT/AOT_stimuli/rescaled_final/0826_rv.mp4	0.0	258.6364631652832	
54	242.1026589870453	fix_post	2		12	52.0	2.5	/experiments/knapen_AOT/AOT_stimuli/rescaled_final/0826_rv.mp4	0.0	259.5525360107422	0.10002708435058594
55	242.20268607139587	fix_pre	0		120	53.0	2.5	/experiments/knapen_AOT/AOT_stimuli/rescaled_final/1021_fw.mp4	0.0	259.6525630950928	1.0001590251922607
55	242.78630208969116	pulse	0	t		53.0	2.5	/experiments/knapen_AOT/AOT_stimuli/rescaled_final/1021_fw.mp4	0.0	260.23617911338806	
55	243.20284509658813	movie	1		243	53.0	2.5	/experiments/knapen_AOT/AOT_stimuli/rescaled_final/1021_fw.mp4	0.0	260.65272212028503	2.5003039836883545
55	244.38663411140442	pulse	1	t		53.0	2.5	/experiments/knapen_AOT/AOT_stimuli/rescaled_final/1021_fw.mp4	0.0	261.8365111351013	
55	245.7031490802765	fix_post	2		12	53.0	2.5	/experiments/knapen_AOT/AOT_stimuli/rescaled_final/1021_fw.mp4	0.0	263.1530261039734	0.10010600090026855
56	245.80325508117676	fix_pre	0		120	54.0	2.5	/experiments/knapen_AOT/AOT_stimuli/rescaled_final/0839_fw.mp4	0.0	263.25313210487366	1.000119924545288
56	245.98678302764893	pulse	0	t		54.0	2.5	/experiments/knapen_AOT/AOT_stimuli/rescaled_final/0839_fw.mp4	0.0	263.4366600513458	
56	246.80337500572205	movie	1		244	54.0	2.5	/experiments/knapen_AOT/AOT_stimuli/rescaled_final/0839_fw.mp4	0.0	264.25325202941895	2.500373125076294
56	247.58702516555786	pulse	1	t		54.0	2.5	/experiments/knapen_AOT/AOT_stimuli/rescaled_final/0839_fw.mp4	0.0	265.03690218925476	
56	249.18722915649414	pulse	1	t		54.0	2.5	/experiments/knapen_AOT/AOT_stimuli/rescaled_final/0839_fw.mp4	0.0	266.63710618019104	
56	249.30374813079834	fix_post	2		12	54.0	2.5	/experiments/knapen_AOT/AOT_stimuli/rescaled_final/0839_fw.mp4	0.0	266.75362515449524	0.10003805160522461
57	249.40378618240356	fix_pre	0		119	55.0	2.5	/experiments/knapen_AOT/AOT_stimuli/rescaled_final/0690_fw.mp4	0.0	266.85366320610046	0.9918417930603027
57	250.39562797546387	movie	1		243	55.0	2.5	/experiments/knapen_AOT/AOT_stimuli/rescaled_final/0690_fw.mp4	0.0	267.84550499916077	2.5004642009735107
57	250.78766298294067	pulse	1	t		55.0	2.5	/experiments/knapen_AOT/AOT_stimuli/rescaled_final/0690_fw.mp4	0.0	268.2375400066376	
57	252.3877191543579	pulse	1	t		55.0	2.5	/experiments/knapen_AOT/AOT_stimuli/rescaled_final/0690_fw.mp4	0.0	269.8375961780548	
57	252.89609217643738	fix_post	2		12	55.0	2.5	/experiments/knapen_AOT/AOT_stimuli/rescaled_final/0690_fw.mp4	0.0	270.3459692001343	0.09989190101623535
58	252.9959840774536	fix_pre	0		120	56.0	2.5	blank	1.0	270.4458611011505	1.000157117843628
58	253.9880850315094	pulse	0	t		56.0	2.5	blank	1.0	271.4379620552063	
58	253.99614119529724	movie	1		301	56.0	2.5	blank	1.0	271.44601821899414	2.5086758136749268
58	255.58831310272217	pulse	1	t		56.0	2.5	blank	1.0	273.03819012641907	
58	256.50481700897217	fix_post	2		12	56.0	2.5	blank	1.0	273.95469403266907	0.100067138671875
59	256.60488414764404	fix_pre	0		120	57.0	2.5	/experiments/knapen_AOT/AOT_stimuli/rescaled_final/0517_fw.mp4	0.0	274.05476117134094	1.0001049041748047
59	257.18855118751526	pulse	0	t		57.0	2.5	/experiments/knapen_AOT/AOT_stimuli/rescaled_final/0517_fw.mp4	0.0	274.63842821121216	
59	257.60498905181885	movie	1		243	57.0	2.5	/experiments/knapen_AOT/AOT_stimuli/rescaled_final/0517_fw.mp4	0.0	275.05486607551575	2.5005240440368652
59	258.78506898880005	pulse	1	t		57.0	2.5	/experiments/knapen_AOT/AOT_stimuli/rescaled_final/0517_fw.mp4	0.0	276.23494601249695	
59	260.1055130958557	fix_post	2		12	57.0	2.5	/experiments/knapen_AOT/AOT_stimuli/rescaled_final/0517_fw.mp4	0.0	277.5553901195526	0.09991002082824707
60	260.20542311668396	fix_pre	0		120	58.0	2.5	/experiments/knapen_AOT/AOT_stimuli/rescaled_final/0213_fw.mp4	0.0	277.65530014038086	1.000093936920166
60	260.38892006874084	pulse	0	t		58.0	2.5	/experiments/knapen_AOT/AOT_stimuli/rescaled_final/0213_fw.mp4	0.0	277.83879709243774	
60	261.2055170536041	movie	1		244	58.0	2.5	/experiments/knapen_AOT/AOT_stimuli/rescaled_final/0213_fw.mp4	0.0	278.655394077301	2.500365972518921
60	261.98914313316345	pulse	1	t		58.0	2.5	/experiments/knapen_AOT/AOT_stimuli/rescaled_final/0213_fw.mp4	0.0	279.43902015686035	
60	263.59293699264526	pulse	1	t		58.0	2.5	/experiments/knapen_AOT/AOT_stimuli/rescaled_final/0213_fw.mp4	0.0	281.04281401634216	
60	263.70588302612305	fix_post	2		12	58.0	2.5	/experiments/knapen_AOT/AOT_stimuli/rescaled_final/0213_fw.mp4	0.0	281.15576004981995	0.1000211238861084
61	263.80590415000916	fix_pre	0		120	59.0	2.5	/experiments/knapen_AOT/AOT_stimuli/rescaled_final/0048_rv.mp4	0.0	281.25578117370605	1.0002429485321045
61	264.80614709854126	movie	1		242	59.0	2.5	/experiments/knapen_AOT/AOT_stimuli/rescaled_final/0048_rv.mp4	0.0	282.25602412223816	2.4919509887695312
61	265.1902060508728	pulse	1	t		59.0	2.5	/experiments/knapen_AOT/AOT_stimuli/rescaled_final/0048_rv.mp4	0.0	282.6400830745697	
61	266.78988313674927	pulse	1	t		59.0	2.5	/experiments/knapen_AOT/AOT_stimuli/rescaled_final/0048_rv.mp4	0.0	284.23976016044617	
61	267.2980980873108	fix_post	2		9	59.0	2.5	/experiments/knapen_AOT/AOT_stimuli/rescaled_final/0048_rv.mp4	0.0	284.7479751110077	0.1000669002532959
62	267.3981649875641	fix_pre	0		120	60.0	2.5	/experiments/knapen_AOT/AOT_stimuli/rescaled_final/1592_fw.mp4	0.0	284.848042011261	1.0001091957092285
62	268.39006304740906	pulse	0	t		60.0	2.5	/experiments/knapen_AOT/AOT_stimuli/rescaled_final/1592_fw.mp4	0.0	285.83994007110596	
62	268.3982741832733	movie	1		244	60.0	2.5	/experiments/knapen_AOT/AOT_stimuli/rescaled_final/1592_fw.mp4	0.0	285.8481512069702	2.5086748600006104
62	269.99096512794495	pulse	1	t		60.0	2.5	/experiments/knapen_AOT/AOT_stimuli/rescaled_final/1592_fw.mp4	0.0	287.44084215164185	
62	270.9069490432739	fix_post	2		12	60.0	2.5	/experiments/knapen_AOT/AOT_stimuli/rescaled_final/1592_fw.mp4	0.0	288.3568260669708	0.10003113746643066
63	271.00698018074036	fix_pre	0		120	61.0	2.5	/experiments/knapen_AOT/AOT_stimuli/rescaled_final/0582_fw.mp4	0.0	288.45685720443726	1.0001659393310547
63	271.5907521247864	pulse	0	t		61.0	2.5	/experiments/knapen_AOT/AOT_stimuli/rescaled_final/0582_fw.mp4	0.0	289.0406291484833	
63	272.0071461200714	movie	1		243	61.0	2.5	/experiments/knapen_AOT/AOT_stimuli/rescaled_final/0582_fw.mp4	0.0	289.4570231437683	2.500361919403076
63	273.19100403785706	pulse	1	t		61.0	2.5	/experiments/knapen_AOT/AOT_stimuli/rescaled_final/0582_fw.mp4	0.0	290.64088106155396	
63	274.5075080394745	fix_post	2		12	61.0	2.5	/experiments/knapen_AOT/AOT_stimuli/rescaled_final/0582_fw.mp4	0.0	291.9573850631714	0.10002398490905762
64	274.60753202438354	fix_pre	0		120	62.0	2.5	blank	1.0	292.05740904808044	1.0001420974731445
64	274.7835261821747	pulse	0	t		62.0	2.5	blank	1.0	292.2334032058716	
64	275.6076741218567	movie	1		300	62.0	2.5	blank	1.0	293.0575511455536	2.500359058380127
64	276.383798122406	pulse	1	t		62.0	2.5	blank	1.0	293.8336751461029	
64	277.9839701652527	pulse	1	t		62.0	2.5	blank	1.0	295.4338471889496	
64	278.1080331802368	fix_post	2		12	62.0	2.5	blank	1.0	295.5579102039337	0.10002779960632324
65	278.20806097984314	fix_pre	0		120	63.0	2.5	/experiments/knapen_AOT/AOT_stimuli/rescaled_final/0502_rv.mp4	0.0	295.65793800354004	1.0001351833343506
65	279.2081961631775	movie	1		241	63.0	2.5	/experiments/knapen_AOT/AOT_stimuli/rescaled_final/0502_rv.mp4	0.0	296.6580731868744	2.4922330379486084
65	279.5835371017456	pulse	1	t		63.0	2.5	/experiments/knapen_AOT/AOT_stimuli/rescaled_final/0502_rv.mp4	0.0	297.0334141254425	
65	281.1837251186371	pulse	1	t		63.0	2.5	/experiments/knapen_AOT/AOT_stimuli/rescaled_final/0502_rv.mp4	0.0	298.633602142334	
65	281.7004292011261	fix_post	2		12	63.0	2.5	/experiments/knapen_AOT/AOT_stimuli/rescaled_final/0502_rv.mp4	0.0	299.150306224823	0.09983587265014648
66	281.80026507377625	fix_pre	0		119	64.0	2.5	/experiments/knapen_AOT/AOT_stimuli/rescaled_final/1876_rv.mp4	0.0	299.25014209747314	0.9918169975280762
66	282.7839801311493	pulse	0	t		64.0	2.5	/experiments/knapen_AOT/AOT_stimuli/rescaled_final/1876_rv.mp4	0.0	300.2338571548462	
66	282.7920820713043	movie	1		244	64.0	2.5	/experiments/knapen_AOT/AOT_stimuli/rescaled_final/1876_rv.mp4	0.0	300.2419590950012	2.5086870193481445
66	284.38480401039124	pulse	1	t		64.0	2.5	/experiments/knapen_AOT/AOT_stimuli/rescaled_final/1876_rv.mp4	0.0	301.83468103408813	
66	285.30076909065247	fix_post	2		12	64.0	2.5	/experiments/knapen_AOT/AOT_stimuli/rescaled_final/1876_rv.mp4	0.0	302.75064611434937	0.1000370979309082
67	285.4008061885834	fix_pre	0		120	65.0	2.5	/experiments/knapen_AOT/AOT_stimuli/rescaled_final/1630_fw.mp4	0.0	302.8506832122803	1.00016188621521
67	285.9844172000885	pulse	0	t		65.0	2.5	/experiments/knapen_AOT/AOT_stimuli/rescaled_final/1630_fw.mp4	0.0	303.4342942237854	
67	286.4009680747986	movie	1		242	65.0	2.5	/experiments/knapen_AOT/AOT_stimuli/rescaled_final/1630_fw.mp4	0.0	303.8508450984955	2.500454902648926
67	287.58476519584656	pulse	1	t		65.0	2.5	/experiments/knapen_AOT/AOT_stimuli/rescaled_final/1630_fw.mp4	0.0	305.03464221954346	
67	288.9014229774475	fix_post	2		12	65.0	2.5	/experiments/knapen_AOT/AOT_stimuli/rescaled_final/1630_fw.mp4	0.0	306.3513000011444	0.09995317459106445
68	289.0013761520386	fix_pre	0		120	66.0	2.5	/experiments/knapen_AOT/AOT_stimuli/rescaled_final/1604_fw.mp4	0.0	306.4512531757355	1.0001099109649658
68	289.18483805656433	pulse	0	t		66.0	2.5	/experiments/knapen_AOT/AOT_stimuli/rescaled_final/1604_fw.mp4	0.0	306.63471508026123	
68	290.00148606300354	movie	1		242	66.0	2.5	/experiments/knapen_AOT/AOT_stimuli/rescaled_final/1604_fw.mp4	0.0	307.45136308670044	2.500514030456543
68	290.7851150035858	pulse	1	t		66.0	2.5	/experiments/knapen_AOT/AOT_stimuli/rescaled_final/1604_fw.mp4	0.0	308.2349920272827	
68	292.38597202301025	pulse	1	t		66.0	2.5	/experiments/knapen_AOT/AOT_stimuli/rescaled_final/1604_fw.mp4	0.0	309.83584904670715	
68	292.5020000934601	fix_post	2		12	66.0	2.5	/experiments/knapen_AOT/AOT_stimuli/rescaled_final/1604_fw.mp4	0.0	309.951877117157	0.09987902641296387
69	292.60187911987305	fix_pre	0		120	67.0	2.5	/experiments/knapen_AOT/AOT_stimuli/rescaled_final/1912_fw.mp4	0.0	310.05175614356995	1.0001568794250488
69	293.6020359992981	movie	1		244	67.0	2.5	/experiments/knapen_AOT/AOT_stimuli/rescaled_final/1912_fw.mp4	0.0	311.051913022995	2.492047071456909
69	293.9870431423187	pulse	1	t		67.0	2.5	/experiments/knapen_AOT/AOT_stimuli/rescaled_final/1912_fw.mp4	0.0	311.4369201660156	
69	295.585862159729	pulse	1	t		67.0	2.5	/experiments/knapen_AOT/AOT_stimuli/rescaled_final/1912_fw.mp4	0.0	313.0357391834259	
69	296.094083070755	fix_post	2		12	67.0	2.5	/experiments/knapen_AOT/AOT_stimuli/rescaled_final/1912_fw.mp4	0.0	313.5439600944519	0.10000300407409668
70	296.1940860748291	fix_pre	0		120	68.0	2.5	blank	1.0	313.643963098526	1.0001509189605713
70	297.18616914749146	pulse	0	t		68.0	2.5	blank	1.0	314.63604617118835	
70	297.1942369937897	movie	1		301	68.0	2.5	blank	1.0	314.6441140174866	2.5087270736694336
70	298.78637504577637	pulse	1	t		68.0	2.5	blank	1.0	316.23625206947327	
70	299.7029640674591	fix_post	2		12	68.0	2.5	blank	1.0	317.152841091156	0.10000801086425781
71	299.80297207832336	fix_pre	0		120	69.0	2.5	/experiments/knapen_AOT/AOT_stimuli/rescaled_final/0399_fw.mp4	0.0	317.25284910202026	1.0001239776611328
71	300.38654804229736	pulse	0	t		69.0	2.5	/experiments/knapen_AOT/AOT_stimuli/rescaled_final/0399_fw.mp4	0.0	317.83642506599426	
71	300.8030960559845	movie	1		244	69.0	2.5	/experiments/knapen_AOT/AOT_stimuli/rescaled_final/0399_fw.mp4	0.0	318.2529730796814	2.5003809928894043
71	301.9868941307068	pulse	1	t		69.0	2.5	/experiments/knapen_AOT/AOT_stimuli/rescaled_final/0399_fw.mp4	0.0	319.4367711544037	
71	303.3034770488739	fix_post	2		12	69.0	2.5	/experiments/knapen_AOT/AOT_stimuli/rescaled_final/0399_fw.mp4	0.0	320.7533540725708	0.10001611709594727
72	303.40349316596985	fix_pre	0		120	70.0	2.5	/experiments/knapen_AOT/AOT_stimuli/rescaled_final/2160_rv.mp4	0.0	320.85337018966675	1.0001938343048096
72	303.58717799186707	pulse	0	t		70.0	2.5	/experiments/knapen_AOT/AOT_stimuli/rescaled_final/2160_rv.mp4	0.0	321.03705501556396	
72	304.40368700027466	movie	1		244	70.0	2.5	/experiments/knapen_AOT/AOT_stimuli/rescaled_final/2160_rv.mp4	0.0	321.85356402397156	2.500324010848999
72	305.18737506866455	pulse	1	t		70.0	2.5	/experiments/knapen_AOT/AOT_stimuli/rescaled_final/2160_rv.mp4	0.0	322.63725209236145	
72	306.7874779701233	pulse	1	t		70.0	2.5	/experiments/knapen_AOT/AOT_stimuli/rescaled_final/2160_rv.mp4	0.0	324.2373549938202	
72	306.90401101112366	fix_post	2		12	70.0	2.5	/experiments/knapen_AOT/AOT_stimuli/rescaled_final/2160_rv.mp4	0.0	324.35388803482056	0.10004210472106934
73	307.0040531158447	fix_pre	0		120	71.0	2.5	/experiments/knapen_AOT/AOT_stimuli/rescaled_final/0221_rv.mp4	0.0	324.4539301395416	1.0000998973846436
73	308.00415301322937	movie	1		241	71.0	2.5	/experiments/knapen_AOT/AOT_stimuli/rescaled_final/0221_rv.mp4	0.0	325.45403003692627	2.4922139644622803
73	308.38830304145813	pulse	1	t		71.0	2.5	/experiments/knapen_AOT/AOT_stimuli/rescaled_final/0221_rv.mp4	0.0	325.83818006515503	
73	309.9881031513214	pulse	1	t		71.0	2.5	/experiments/knapen_AOT/AOT_stimuli/rescaled_final/0221_rv.mp4	0.0	327.4379801750183	
73	310.49636697769165	fix_post	2		12	71.0	2.5	/experiments/knapen_AOT/AOT_stimuli/rescaled_final/0221_rv.mp4	0.0	327.94624400138855	0.09986019134521484
74	310.59622716903687	fix_pre	0		120	72.0	2.5	/experiments/knapen_AOT/AOT_stimuli/rescaled_final/1744_rv.mp4	0.0	328.04610419273376	1.0001749992370605
74	311.5883719921112	pulse	0	t		72.0	2.5	/experiments/knapen_AOT/AOT_stimuli/rescaled_final/1744_rv.mp4	0.0	329.0382490158081	
74	311.5964021682739	movie	1		244	72.0	2.5	/experiments/knapen_AOT/AOT_stimuli/rescaled_final/1744_rv.mp4	0.0	329.0462791919708	2.508685827255249
74	313.1890230178833	pulse	1	t		72.0	2.5	/experiments/knapen_AOT/AOT_stimuli/rescaled_final/1744_rv.mp4	0.0	330.6389000415802	
74	314.1050879955292	fix_post	2		12	72.0	2.5	/experiments/knapen_AOT/AOT_stimuli/rescaled_final/1744_rv.mp4	0.0	331.5549650192261	0.1000051498413086
75	314.2050931453705	fix_pre	0		120	73.0	2.5	/experiments/knapen_AOT/AOT_stimuli/rescaled_final/0206_rv.mp4	0.0	331.6549701690674	1.0001709461212158
75	314.78865098953247	pulse	0	t		73.0	2.5	/experiments/knapen_AOT/AOT_stimuli/rescaled_final/0206_rv.mp4	0.0	332.23852801322937	
75	315.2052640914917	movie	1		242	73.0	2.5	/experiments/knapen_AOT/AOT_stimuli/rescaled_final/0206_rv.mp4	0.0	332.6551411151886	2.500385046005249
75	316.389044046402	pulse	1	t		73.0	2.5	/experiments/knapen_AOT/AOT_stimuli/rescaled_final/0206_rv.mp4	0.0	333.8389210700989	
75	317.70564913749695	fix_post	2		12	73.0	2.5	/experiments/knapen_AOT/AOT_stimuli/rescaled_final/0206_rv.mp4	0.0	335.15552616119385	0.1000208854675293
76	317.8056700229645	fix_pre	0		120	74.0	2.5	/experiments/knapen_AOT/AOT_stimuli/rescaled_final/2107_fw.mp4	0.0	335.2555470466614	1.0001850128173828
76	317.9892749786377	pulse	0	t		74.0	2.5	/experiments/knapen_AOT/AOT_stimuli/rescaled_final/2107_fw.mp4	0.0	335.4391520023346	
76	318.80585503578186	movie	1		247	74.0	2.5	/experiments/knapen_AOT/AOT_stimuli/rescaled_final/2107_fw.mp4	0.0	336.25573205947876	2.500262975692749
76	319.58954906463623	pulse	1	t		74.0	2.5	/experiments/knapen_AOT/AOT_stimuli/rescaled_final/2107_fw.mp4	0.0	337.03942608833313	
76	321.189661026001	pulse	1	t		74.0	2.5	/experiments/knapen_AOT/AOT_stimuli/rescaled_final/2107_fw.mp4	0.0	338.6395380496979	
76	321.3061180114746	fix_post	2		12	74.0	2.5	/experiments/knapen_AOT/AOT_stimuli/rescaled_final/2107_fw.mp4	0.0	338.7559950351715	0.10007214546203613
77	321.40619015693665	fix_pre	0		120	75.0	2.5	blank	1.0	338.85606718063354	1.0001249313354492
77	322.4063150882721	movie	1		299	75.0	2.5	blank	1.0	339.856192111969	2.49206805229187
77	322.78990602493286	pulse	1	t		75.0	2.5	blank	1.0	340.23978304862976	
77	324.3902790546417	pulse	1	t		75.0	2.5	blank	1.0	341.8401560783386	
77	324.89838314056396	fix_post	2		12	75.0	2.5	blank	1.0	342.34826016426086	0.09996795654296875
78	324.99835109710693	fix_pre	0		120	76.0	2.5	/experiments/knapen_AOT/AOT_stimuli/rescaled_final/0860_rv.mp4	0.0	342.44822812080383	1.0001709461212158
78	325.99049711227417	pulse	0	t		76.0	2.5	/experiments/knapen_AOT/AOT_stimuli/rescaled_final/0860_rv.mp4	0.0	343.44037413597107	
78	325.99852204322815	movie	1		244	76.0	2.5	/experiments/knapen_AOT/AOT_stimuli/rescaled_final/0860_rv.mp4	0.0	343.44839906692505	2.508686065673828
78	327.59122014045715	pulse	1	t		76.0	2.5	/experiments/knapen_AOT/AOT_stimuli/rescaled_final/0860_rv.mp4	0.0	345.04109716415405	
78	328.507208108902	fix_post	2		12	76.0	2.5	/experiments/knapen_AOT/AOT_stimuli/rescaled_final/0860_rv.mp4	0.0	345.9570851325989	0.10008692741394043
79	328.6072950363159	fix_pre	0		120	77.0	2.5	/experiments/knapen_AOT/AOT_stimuli/rescaled_final/0990_fw.mp4	0.0	346.0571720600128	1.0001261234283447
79	329.1908061504364	pulse	0	t		77.0	2.5	/experiments/knapen_AOT/AOT_stimuli/rescaled_final/0990_fw.mp4	0.0	346.6406831741333	
79	329.60742115974426	movie	1		243	77.0	2.5	/experiments/knapen_AOT/AOT_stimuli/rescaled_final/0990_fw.mp4	0.0	347.05729818344116	2.5019149780273438
79	330.79122018814087	pulse	1	t		77.0	2.5	/experiments/knapen_AOT/AOT_stimuli/rescaled_final/0990_fw.mp4	0.0	348.24109721183777	
79	332.1093361377716	fix_post	2		9	77.0	2.5	/experiments/knapen_AOT/AOT_stimuli/rescaled_final/0990_fw.mp4	0.0	349.5592131614685	0.09851789474487305
80	332.2078540325165	fix_pre	0		120	78.0	2.5	/experiments/knapen_AOT/AOT_stimuli/rescaled_final/2144_rv.mp4	0.0	349.6577310562134	1.0000970363616943
80	332.39148116111755	pulse	0	t		78.0	2.5	/experiments/knapen_AOT/AOT_stimuli/rescaled_final/2144_rv.mp4	0.0	349.84135818481445	
80	333.2079510688782	movie	1		243	78.0	2.5	/experiments/knapen_AOT/AOT_stimuli/rescaled_final/2144_rv.mp4	0.0	350.6578280925751	2.5005059242248535
80	333.9843010902405	pulse	1	t		78.0	2.5	/experiments/knapen_AOT/AOT_stimuli/rescaled_final/2144_rv.mp4	0.0	351.4341781139374	
80	335.5917670726776	pulse	1	t		78.0	2.5	/experiments/knapen_AOT/AOT_stimuli/rescaled_final/2144_rv.mp4	0.0	353.0416440963745	
80	335.708456993103	fix_post	2		12	78.0	2.5	/experiments/knapen_AOT/AOT_stimuli/rescaled_final/2144_rv.mp4	0.0	353.1583340167999	0.0998849868774414
81	335.80834197998047	fix_pre	0		120	79.0	2.5	/experiments/knapen_AOT/AOT_stimuli/rescaled_final/0668_rv.mp4	0.0	353.25821900367737	1.0001270771026611
81	336.80846905708313	movie	1		241	79.0	2.5	/experiments/knapen_AOT/AOT_stimuli/rescaled_final/0668_rv.mp4	0.0	354.25834608078003	2.492116928100586
81	337.19248604774475	pulse	1	t		79.0	2.5	/experiments/knapen_AOT/AOT_stimuli/rescaled_final/0668_rv.mp4	0.0	354.64236307144165	
81	338.7841110229492	pulse	1	t		79.0	2.5	/experiments/knapen_AOT/AOT_stimuli/rescaled_final/0668_rv.mp4	0.0	356.2339880466461	
81	339.3005859851837	fix_post	2		12	79.0	2.5	/experiments/knapen_AOT/AOT_stimuli/rescaled_final/0668_rv.mp4	0.0	356.7504630088806	0.09993100166320801
82	339.4005169868469	fix_pre	0		119	80.0	2.5	/experiments/knapen_AOT/AOT_stimuli/rescaled_final/1592_rv.mp4	0.0	356.8503940105438	0.9918220043182373
82	340.38431215286255	pulse	0	t		80.0	2.5	/experiments/knapen_AOT/AOT_stimuli/rescaled_final/1592_rv.mp4	0.0	357.83418917655945	
82	340.39233899116516	movie	1		244	80.0	2.5	/experiments/knapen_AOT/AOT_stimuli/rescaled_final/1592_rv.mp4	0.0	357.84221601486206	2.5087080001831055
82	341.9849519729614	pulse	1	t		80.0	2.5	/experiments/knapen_AOT/AOT_stimuli/rescaled_final/1592_rv.mp4	0.0	359.4348289966583	
82	342.90104699134827	fix_post	2		12	80.0	2.5	/experiments/knapen_AOT/AOT_stimuli/rescaled_final/1592_rv.mp4	0.0	360.35092401504517	0.0999600887298584
83	343.0010070800781	fix_pre	0		120	81.0	2.5	/experiments/knapen_AOT/AOT_stimuli/rescaled_final/0985_rv.mp4	0.0	360.450884103775	1.0002720355987549
83	343.5846381187439	pulse	0	t		81.0	2.5	/experiments/knapen_AOT/AOT_stimuli/rescaled_final/0985_rv.mp4	0.0	361.0345151424408	
83	344.0012791156769	movie	1		243	81.0	2.5	/experiments/knapen_AOT/AOT_stimuli/rescaled_final/0985_rv.mp4	0.0	361.4511561393738	2.5003418922424316
83	345.1850919723511	pulse	1	t		81.0	2.5	/experiments/knapen_AOT/AOT_stimuli/rescaled_final/0985_rv.mp4	0.0	362.634968996048	
83	346.5016210079193	fix_post	2		12	81.0	2.5	/experiments/knapen_AOT/AOT_stimuli/rescaled_final/0985_rv.mp4	0.0	363.9514980316162	0.09996318817138672
84	346.6015841960907	fix_pre	0		120	82.0	2.5	blank	1.0	364.0514612197876	1.000175952911377
84	346.7852191925049	pulse	0	t		82.0	2.5	blank	1.0	364.2350962162018	
84	347.6017601490021	movie	1		300	82.0	2.5	blank	1.0	365.051637172699	2.500412940979004
84	348.38544511795044	pulse	1	t		82.0	2.5	blank	1.0	365.83532214164734	
84	349.9856541156769	pulse	1	t		82.0	2.5	blank	1.0	367.4355311393738	
84	350.1021730899811	fix_post	2		12	82.0	2.5	blank	1.0	367.552050113678	0.099945068359375
85	350.20211815834045	fix_pre	0		120	83.0	2.5	/experiments/knapen_AOT/AOT_stimuli/rescaled_final/1344_rv.mp4	0.0	367.65199518203735	1.000195026397705
85	351.20231318473816	movie	1		242	83.0	2.5	/experiments/knapen_AOT/AOT_stimuli/rescaled_final/1344_rv.mp4	0.0	368.65219020843506	2.4921908378601074
85	351.58643317222595	pulse	1	t		83.0	2.5	/experiments/knapen_AOT/AOT_stimuli/rescaled_final/1344_rv.mp4	0.0	369.03631019592285	
85	353.1860861778259	pulse	1	t		83.0	2.5	/experiments/knapen_AOT/AOT_stimuli/rescaled_final/1344_rv.mp4	0.0	370.6359632015228	
85	353.69450402259827	fix_post	2		12	83.0	2.5	/experiments/knapen_AOT/AOT_stimuli/rescaled_final/1344_rv.mp4	0.0	371.14438104629517	0.09990215301513672
87	353.7944061756134	stim	0		1716					371.2442831993103	14.302138805389404
87	354.78647112846375	pulse	0	t						372.23634815216064	
87	356.386577129364	pulse	0	t						373.8364541530609	
87	357.98678708076477	pulse	0	t						375.43666410446167	
87	359.58701610565186	pulse	0	t						377.03689312934875	
87	361.18734097480774	pulse	0	t						378.63721799850464	
87	362.78760719299316	pulse	0	t						380.23748421669006	
87	364.38772416114807	pulse	0	t						381.83760118484497	
87	365.987998008728	pulse	0	t						383.4378750324249	
87	367.5882661342621	pulse	0	t						385.038143157959	
