trial_nr	onset	event_type	phase	response	nr_frames	movie_index	movie_duration	movie_file	blank	onset_abs	duration
0	0.14995217323303223	stim	0		98					70.21585988998413	0.816486120223999
0	0.9584560394287109	response	0	space						71.02436375617981	
1	0.9664382934570312	stim	0		4505					71.03234601020813	37.557326555252075
1	38.51268911361694	pulse	0	t						108.57859683036804	
1	38.523764848709106	stim	1		1714					108.5896725654602	14.300469160079956
1	40.10605001449585	pulse	1	t						110.17195773124695	
1	41.70616030693054	pulse	1	t						111.77206802368164	
1	43.306321144104004	pulse	1	t						113.3722288608551	
1	44.90660357475281	pulse	1	t						114.9725112915039	
1	46.50686550140381	pulse	1	t						116.57277321815491	
1	48.10710573196411	pulse	1	t						118.17301344871521	
1	49.707298040390015	pulse	1	t						119.77320575714111	
1	51.30777454376221	pulse	1	t						121.3736822605133	
2	52.82423400878906	fix_pre	0		11	0.0	2.5	/experiments/Knapen_AOT/AOT_stimuli/rescaled_final/1706_rv.mp4	0.0	122.89014172554016	0.11679768562316895
2	52.90785336494446	pulse	0	t		0.0	2.5	/experiments/Knapen_AOT/AOT_stimuli/rescaled_final/1706_rv.mp4	0.0	122.97376108169556	
2	52.94103169441223	movie	1		280	0.0	2.5	/experiments/Knapen_AOT/AOT_stimuli/rescaled_final/1706_rv.mp4	0.0	123.00693941116333	2.4836297035217285
2	54.506507873535156	pulse	1	t		0.0	2.5	/experiments/Knapen_AOT/AOT_stimuli/rescaled_final/1706_rv.mp4	0.0	124.57241559028625	
2	55.42466139793396	fix_post	2		12	0.0	2.5	/experiments/Knapen_AOT/AOT_stimuli/rescaled_final/1706_rv.mp4	0.0	125.49056911468506	0.10010123252868652
3	55.52476263046265	fix_pre	0		120	1.0	2.5	/experiments/Knapen_AOT/AOT_stimuli/rescaled_final/0857_rv.mp4	0.0	125.59067034721375	1.0084247589111328
3	56.108262062072754	pulse	0	t		1.0	2.5	/experiments/Knapen_AOT/AOT_stimuli/rescaled_final/0857_rv.mp4	0.0	126.17416977882385	
3	56.53318738937378	movie	1		284	1.0	2.5	/experiments/Knapen_AOT/AOT_stimuli/rescaled_final/0857_rv.mp4	0.0	126.59909510612488	2.4921371936798096
3	57.70689511299133	pulse	1	t		1.0	2.5	/experiments/Knapen_AOT/AOT_stimuli/rescaled_final/0857_rv.mp4	0.0	127.77280282974243	
3	59.02532458305359	fix_post	2		12	1.0	2.5	/experiments/Knapen_AOT/AOT_stimuli/rescaled_final/0857_rv.mp4	0.0	129.0912322998047	0.09985518455505371
4	59.12517976760864	fix_pre	0		120	2.0	2.5	/experiments/Knapen_AOT/AOT_stimuli/rescaled_final/1565_fw.mp4	0.0	129.19108748435974	1.0086216926574707
4	59.308849573135376	pulse	0	t		2.0	2.5	/experiments/Knapen_AOT/AOT_stimuli/rescaled_final/1565_fw.mp4	0.0	129.37475728988647	
4	60.13380146026611	movie	1		279	2.0	2.5	/experiments/Knapen_AOT/AOT_stimuli/rescaled_final/1565_fw.mp4	0.0	130.1997091770172	2.4919328689575195
4	60.906928300857544	pulse	1	t		2.0	2.5	/experiments/Knapen_AOT/AOT_stimuli/rescaled_final/1565_fw.mp4	0.0	130.97283601760864	
4	62.5072705745697	pulse	1	t		2.0	2.5	/experiments/Knapen_AOT/AOT_stimuli/rescaled_final/1565_fw.mp4	0.0	132.5731782913208	
4	62.62573432922363	fix_post	2		12	2.0	2.5	/experiments/Knapen_AOT/AOT_stimuli/rescaled_final/1565_fw.mp4	0.0	132.69164204597473	0.09999990463256836
5	62.7257342338562	fix_pre	0		120	3.0	2.5	/experiments/Knapen_AOT/AOT_stimuli/rescaled_final/0145_fw.mp4	0.0	132.7916419506073	1.0084877014160156
5	63.73422193527222	movie	1		281	3.0	2.5	/experiments/Knapen_AOT/AOT_stimuli/rescaled_final/0145_fw.mp4	0.0	133.80012965202332	2.4920427799224854
5	64.1103515625	pulse	1	t		3.0	2.5	/experiments/Knapen_AOT/AOT_stimuli/rescaled_final/0145_fw.mp4	0.0	134.1762592792511	
5	65.70751404762268	pulse	1	t		3.0	2.5	/experiments/Knapen_AOT/AOT_stimuli/rescaled_final/0145_fw.mp4	0.0	135.77342176437378	
5	66.2262647151947	fix_post	2		12	3.0	2.5	/experiments/Knapen_AOT/AOT_stimuli/rescaled_final/0145_fw.mp4	0.0	136.2921724319458	0.10005044937133789
6	66.32631516456604	fix_pre	0		119	4.0	2.5	/experiments/Knapen_AOT/AOT_stimuli/rescaled_final/0456_rv.mp4	0.0	136.39222288131714	1.0001041889190674
6	67.30993390083313	pulse	0	t		4.0	2.5	/experiments/Knapen_AOT/AOT_stimuli/rescaled_final/0456_rv.mp4	0.0	137.37584161758423	
6	67.32641935348511	movie	1		291	4.0	2.5	/experiments/Knapen_AOT/AOT_stimuli/rescaled_final/0456_rv.mp4	0.0	137.3923270702362	2.5003702640533447
6	68.90867328643799	pulse	1	t		4.0	2.5	/experiments/Knapen_AOT/AOT_stimuli/rescaled_final/0456_rv.mp4	0.0	138.9745810031891	
6	69.82678961753845	fix_post	2		12	4.0	2.5	/experiments/Knapen_AOT/AOT_stimuli/rescaled_final/0456_rv.mp4	0.0	139.89269733428955	0.10007905960083008
7	69.92686867713928	fix_pre	0		120	5.0	2.5	/experiments/Knapen_AOT/AOT_stimuli/rescaled_final/1969_rv.mp4	0.0	139.99277639389038	1.008471965789795
7	70.51053166389465	pulse	0	t		5.0	2.5	/experiments/Knapen_AOT/AOT_stimuli/rescaled_final/1969_rv.mp4	0.0	140.57643938064575	
7	70.93534064292908	movie	1		287	5.0	2.5	/experiments/Knapen_AOT/AOT_stimuli/rescaled_final/1969_rv.mp4	0.0	141.00124835968018	2.4919941425323486
7	72.1108045578003	pulse	1	t		5.0	2.5	/experiments/Knapen_AOT/AOT_stimuli/rescaled_final/1969_rv.mp4	0.0	142.1767122745514	
7	73.42733478546143	fix_post	2		12	5.0	2.5	/experiments/Knapen_AOT/AOT_stimuli/rescaled_final/1969_rv.mp4	0.0	143.49324250221252	0.1000208854675293
8	73.52735567092896	fix_pre	0		120	6.0	2.5	/experiments/Knapen_AOT/AOT_stimuli/rescaled_final/0502_rv.mp4	0.0	143.59326338768005	1.0085346698760986
8	73.71122479438782	pulse	0	t		6.0	2.5	/experiments/Knapen_AOT/AOT_stimuli/rescaled_final/0502_rv.mp4	0.0	143.77713251113892	
8	74.53589034080505	movie	1		288	6.0	2.5	/experiments/Knapen_AOT/AOT_stimuli/rescaled_final/0502_rv.mp4	0.0	144.60179805755615	2.4919965267181396
8	75.30904078483582	pulse	1	t		6.0	2.5	/experiments/Knapen_AOT/AOT_stimuli/rescaled_final/0502_rv.mp4	0.0	145.3749485015869	
8	76.91022872924805	pulse	1	t		6.0	2.5	/experiments/Knapen_AOT/AOT_stimuli/rescaled_final/0502_rv.mp4	0.0	146.97613644599915	
8	77.0278868675232	fix_post	2		12	6.0	2.5	/experiments/Knapen_AOT/AOT_stimuli/rescaled_final/0502_rv.mp4	0.0	147.0937945842743	0.10003781318664551
9	77.12792468070984	fix_pre	0		120	7.0	2.5	blank	1.0	147.19383239746094	1.0001142024993896
9	78.12803888320923	movie	1		300	7.0	2.5	blank	1.0	148.19394659996033	2.5004169940948486
9	78.51173281669617	pulse	1	t		7.0	2.5	blank	1.0	148.57764053344727	
9	80.11208629608154	pulse	1	t		7.0	2.5	blank	1.0	150.17799401283264	
9	80.62845587730408	fix_post	2		12	7.0	2.5	blank	1.0	150.69436359405518	0.0999755859375
10	80.72843146324158	fix_pre	0		119	8.0	2.5	/experiments/Knapen_AOT/AOT_stimuli/rescaled_final/1098_rv.mp4	0.0	150.79433917999268	1.0001585483551025
10	81.71210503578186	pulse	0	t		8.0	2.5	/experiments/Knapen_AOT/AOT_stimuli/rescaled_final/1098_rv.mp4	0.0	151.77801275253296	
10	81.72859001159668	movie	1		289	8.0	2.5	/experiments/Knapen_AOT/AOT_stimuli/rescaled_final/1098_rv.mp4	0.0	151.79449772834778	2.500457763671875
10	83.31095170974731	pulse	1	t		8.0	2.5	/experiments/Knapen_AOT/AOT_stimuli/rescaled_final/1098_rv.mp4	0.0	153.3768594264984	
10	84.22904777526855	fix_post	2		12	8.0	2.5	/experiments/Knapen_AOT/AOT_stimuli/rescaled_final/1098_rv.mp4	0.0	154.29495549201965	0.09994864463806152
11	84.32899641990662	fix_pre	0		120	9.0	2.5	/experiments/Knapen_AOT/AOT_stimuli/rescaled_final/0160_rv.mp4	0.0	154.39490413665771	1.008641004562378
11	84.9130802154541	pulse	0	t		9.0	2.5	/experiments/Knapen_AOT/AOT_stimuli/rescaled_final/0160_rv.mp4	0.0	154.9789879322052	
11	85.337637424469	movie	1		284	9.0	2.5	/experiments/Knapen_AOT/AOT_stimuli/rescaled_final/0160_rv.mp4	0.0	155.4035451412201	2.491856575012207
11	86.51137638092041	pulse	1	t		9.0	2.5	/experiments/Knapen_AOT/AOT_stimuli/rescaled_final/0160_rv.mp4	0.0	156.5772840976715	
11	87.8294939994812	fix_post	2		12	9.0	2.5	/experiments/Knapen_AOT/AOT_stimuli/rescaled_final/0160_rv.mp4	0.0	157.8954017162323	0.10005664825439453
12	87.9295506477356	fix_pre	0		120	10.0	2.5	/experiments/Knapen_AOT/AOT_stimuli/rescaled_final/1306_fw.mp4	0.0	157.9954583644867	1.0085301399230957
12	88.11315393447876	pulse	0	t		10.0	2.5	/experiments/Knapen_AOT/AOT_stimuli/rescaled_final/1306_fw.mp4	0.0	158.17906165122986	
12	88.93808078765869	movie	1		283	10.0	2.5	/experiments/Knapen_AOT/AOT_stimuli/rescaled_final/1306_fw.mp4	0.0	159.0039885044098	2.492025136947632
12	89.71122145652771	pulse	1	t		10.0	2.5	/experiments/Knapen_AOT/AOT_stimuli/rescaled_final/1306_fw.mp4	0.0	159.7771291732788	
12	91.30554604530334	pulse	1	t		10.0	2.5	/experiments/Knapen_AOT/AOT_stimuli/rescaled_final/1306_fw.mp4	0.0	161.37145376205444	
12	91.43010592460632	fix_post	2		12	10.0	2.5	/experiments/Knapen_AOT/AOT_stimuli/rescaled_final/1306_fw.mp4	0.0	161.49601364135742	0.09997820854187012
13	91.5300841331482	fix_pre	0		120	11.0	2.5	/experiments/Knapen_AOT/AOT_stimuli/rescaled_final/1255_rv.mp4	0.0	161.5959918498993	1.0084764957427979
13	92.53856062889099	movie	1		283	11.0	2.5	/experiments/Knapen_AOT/AOT_stimuli/rescaled_final/1255_rv.mp4	0.0	162.6044683456421	2.492027759552002
13	92.90562033653259	pulse	1	t		11.0	2.5	/experiments/Knapen_AOT/AOT_stimuli/rescaled_final/1255_rv.mp4	0.0	162.9715280532837	
13	94.50573420524597	pulse	1	t		11.0	2.5	/experiments/Knapen_AOT/AOT_stimuli/rescaled_final/1255_rv.mp4	0.0	164.57164192199707	
13	95.030588388443	fix_post	2		12	11.0	2.5	/experiments/Knapen_AOT/AOT_stimuli/rescaled_final/1255_rv.mp4	0.0	165.0964961051941	0.10002708435058594
14	95.13061547279358	fix_pre	0		118	12.0	2.5	blank	1.0	165.19652318954468	0.9834556579589844
14	96.10597968101501	pulse	0	t		12.0	2.5	blank	1.0	166.1718873977661	
14	96.11407113075256	movie	1		301	12.0	2.5	blank	1.0	166.17997884750366	2.508711576461792
14	97.70620942115784	pulse	1	t		12.0	2.5	blank	1.0	167.77211713790894	
14	98.62278270721436	fix_post	2		12	12.0	2.5	blank	1.0	168.68869042396545	0.10002636909484863
15	98.7228090763092	fix_pre	0		120	13.0	2.5	/experiments/Knapen_AOT/AOT_stimuli/rescaled_final/0482_rv.mp4	0.0	168.7887167930603	1.0085060596466064
15	99.30649018287659	pulse	0	t		13.0	2.5	/experiments/Knapen_AOT/AOT_stimuli/rescaled_final/0482_rv.mp4	0.0	169.37239789962769	
15	99.73131513595581	movie	1		282	13.0	2.5	/experiments/Knapen_AOT/AOT_stimuli/rescaled_final/0482_rv.mp4	0.0	169.7972228527069	2.500552177429199
15	100.90670323371887	pulse	1	t		13.0	2.5	/experiments/Knapen_AOT/AOT_stimuli/rescaled_final/0482_rv.mp4	0.0	170.97261095046997	
15	102.23186731338501	fix_post	2		11	13.0	2.5	/experiments/Knapen_AOT/AOT_stimuli/rescaled_final/0482_rv.mp4	0.0	172.2977750301361	0.0914912223815918
16	102.3233585357666	fix_pre	0		120	14.0	2.5	/experiments/Knapen_AOT/AOT_stimuli/rescaled_final/0980_rv.mp4	0.0	172.3892662525177	1.0084834098815918
16	102.50695872306824	pulse	0	t		14.0	2.5	/experiments/Knapen_AOT/AOT_stimuli/rescaled_final/0980_rv.mp4	0.0	172.57286643981934	
16	103.3318419456482	movie	1		284	14.0	2.5	/experiments/Knapen_AOT/AOT_stimuli/rescaled_final/0980_rv.mp4	0.0	173.3977496623993	2.492058038711548
16	104.10712718963623	pulse	1	t		14.0	2.5	/experiments/Knapen_AOT/AOT_stimuli/rescaled_final/0980_rv.mp4	0.0	174.17303490638733	
16	105.70549941062927	pulse	1	t		14.0	2.5	/experiments/Knapen_AOT/AOT_stimuli/rescaled_final/0980_rv.mp4	0.0	175.77140712738037	
16	105.82389998435974	fix_post	2		12	14.0	2.5	/experiments/Knapen_AOT/AOT_stimuli/rescaled_final/0980_rv.mp4	0.0	175.88980770111084	0.09999608993530273
17	105.92389607429504	fix_pre	0		120	15.0	2.5	/experiments/Knapen_AOT/AOT_stimuli/rescaled_final/0546_fw.mp4	0.0	175.98980379104614	1.00850248336792
17	106.93239855766296	movie	1		292	15.0	2.5	/experiments/Knapen_AOT/AOT_stimuli/rescaled_final/0546_fw.mp4	0.0	176.99830627441406	2.4920177459716797
17	107.30599331855774	pulse	1	t		15.0	2.5	/experiments/Knapen_AOT/AOT_stimuli/rescaled_final/0546_fw.mp4	0.0	177.37190103530884	
17	108.90595769882202	pulse	1	t		15.0	2.5	/experiments/Knapen_AOT/AOT_stimuli/rescaled_final/0546_fw.mp4	0.0	178.97186541557312	
17	109.42441630363464	fix_post	2		12	15.0	2.5	/experiments/Knapen_AOT/AOT_stimuli/rescaled_final/0546_fw.mp4	0.0	179.49032402038574	0.10003185272216797
18	109.52444815635681	fix_pre	0		119	16.0	2.5	/experiments/Knapen_AOT/AOT_stimuli/rescaled_final/1278_fw.mp4	0.0	179.5903558731079	1.0001475811004639
18	110.5080976486206	pulse	0	t		16.0	2.5	/experiments/Knapen_AOT/AOT_stimuli/rescaled_final/1278_fw.mp4	0.0	180.5740053653717	
18	110.52459573745728	movie	1		293	16.0	2.5	/experiments/Knapen_AOT/AOT_stimuli/rescaled_final/1278_fw.mp4	0.0	180.59050345420837	2.5004026889801025
18	112.10699081420898	pulse	1	t		16.0	2.5	/experiments/Knapen_AOT/AOT_stimuli/rescaled_final/1278_fw.mp4	0.0	182.17289853096008	
18	113.02499842643738	fix_post	2		12	16.0	2.5	/experiments/Knapen_AOT/AOT_stimuli/rescaled_final/1278_fw.mp4	0.0	183.09090614318848	0.09999632835388184
19	113.12499475479126	fix_pre	0		120	17.0	2.5	/experiments/Knapen_AOT/AOT_stimuli/rescaled_final/0282_rv.mp4	0.0	183.19090247154236	1.0084900856018066
19	113.70866894721985	pulse	0	t		17.0	2.5	/experiments/Knapen_AOT/AOT_stimuli/rescaled_final/0282_rv.mp4	0.0	183.77457666397095	
19	114.13348484039307	movie	1		288	17.0	2.5	/experiments/Knapen_AOT/AOT_stimuli/rescaled_final/0282_rv.mp4	0.0	184.19939255714417	2.49200439453125
19	115.30703139305115	pulse	1	t		17.0	2.5	/experiments/Knapen_AOT/AOT_stimuli/rescaled_final/0282_rv.mp4	0.0	185.37293910980225	
19	116.62548923492432	fix_post	2		12	17.0	2.5	/experiments/Knapen_AOT/AOT_stimuli/rescaled_final/0282_rv.mp4	0.0	186.69139695167542	0.10003972053527832
20	116.7255289554596	fix_pre	0		120	18.0	2.5	/experiments/Knapen_AOT/AOT_stimuli/rescaled_final/0485_fw.mp4	0.0	186.7914366722107	1.0085043907165527
20	116.90907073020935	pulse	0	t		18.0	2.5	/experiments/Knapen_AOT/AOT_stimuli/rescaled_final/0485_fw.mp4	0.0	186.97497844696045	
20	117.73403334617615	movie	1		294	18.0	2.5	/experiments/Knapen_AOT/AOT_stimuli/rescaled_final/0485_fw.mp4	0.0	187.79994106292725	2.492018222808838
20	118.50711417198181	pulse	1	t		18.0	2.5	/experiments/Knapen_AOT/AOT_stimuli/rescaled_final/0485_fw.mp4	0.0	188.5730218887329	
20	120.1076443195343	pulse	1	t		18.0	2.5	/experiments/Knapen_AOT/AOT_stimuli/rescaled_final/0485_fw.mp4	0.0	190.1735520362854	
20	120.22605156898499	fix_post	2		12	18.0	2.5	/experiments/Knapen_AOT/AOT_stimuli/rescaled_final/0485_fw.mp4	0.0	190.29195928573608	0.10000729560852051
21	120.3260588645935	fix_pre	0		120	19.0	2.5	/experiments/Knapen_AOT/AOT_stimuli/rescaled_final/0831_rv.mp4	0.0	190.3919665813446	1.0085129737854004
21	121.3345718383789	movie	1		289	19.0	2.5	/experiments/Knapen_AOT/AOT_stimuli/rescaled_final/0831_rv.mp4	0.0	191.40047955513	2.492013454437256
21	121.7082781791687	pulse	1	t		19.0	2.5	/experiments/Knapen_AOT/AOT_stimuli/rescaled_final/0831_rv.mp4	0.0	191.7741858959198	
21	123.30804109573364	pulse	1	t		19.0	2.5	/experiments/Knapen_AOT/AOT_stimuli/rescaled_final/0831_rv.mp4	0.0	193.37394881248474	
21	123.82658529281616	fix_post	2		12	19.0	2.5	/experiments/Knapen_AOT/AOT_stimuli/rescaled_final/0831_rv.mp4	0.0	193.89249300956726	0.10002517700195312
22	123.92661046981812	fix_pre	0		119	20.0	2.5	/experiments/Knapen_AOT/AOT_stimuli/rescaled_final/1982_fw.mp4	0.0	193.9925181865692	1.0001561641693115
22	124.91029214859009	pulse	0	t		20.0	2.5	/experiments/Knapen_AOT/AOT_stimuli/rescaled_final/1982_fw.mp4	0.0	194.9761998653412	
22	124.92676663398743	movie	1		283	20.0	2.5	/experiments/Knapen_AOT/AOT_stimuli/rescaled_final/1982_fw.mp4	0.0	194.99267435073853	2.500382900238037
22	126.50942945480347	pulse	1	t		20.0	2.5	/experiments/Knapen_AOT/AOT_stimuli/rescaled_final/1982_fw.mp4	0.0	196.57533717155457	
22	127.42714953422546	fix_post	2		12	20.0	2.5	/experiments/Knapen_AOT/AOT_stimuli/rescaled_final/1982_fw.mp4	0.0	197.49305725097656	0.1000514030456543
23	127.52720093727112	fix_pre	0		120	21.0	2.5	blank	1.0	197.59310865402222	1.000077247619629
23	128.11083364486694	pulse	0	t		21.0	2.5	blank	1.0	198.17674136161804	
23	128.52727818489075	movie	1		300	21.0	2.5	blank	1.0	198.59318590164185	2.500415802001953
23	129.7110161781311	pulse	1	t		21.0	2.5	blank	1.0	199.7769238948822	
23	131.0276939868927	fix_post	2		12	21.0	2.5	blank	1.0	201.0936017036438	0.0999913215637207
24	131.12768530845642	fix_pre	0		120	22.0	2.5	/experiments/Knapen_AOT/AOT_stimuli/rescaled_final/1796_rv.mp4	0.0	201.19359302520752	1.0085179805755615
24	131.31130695343018	pulse	0	t		22.0	2.5	/experiments/Knapen_AOT/AOT_stimuli/rescaled_final/1796_rv.mp4	0.0	201.37721467018127	
24	132.13620328903198	movie	1		291	22.0	2.5	/experiments/Knapen_AOT/AOT_stimuli/rescaled_final/1796_rv.mp4	0.0	202.20211100578308	2.4920003414154053
24	132.90983772277832	pulse	1	t		22.0	2.5	/experiments/Knapen_AOT/AOT_stimuli/rescaled_final/1796_rv.mp4	0.0	202.97574543952942	
24	134.50987887382507	pulse	1	t		22.0	2.5	/experiments/Knapen_AOT/AOT_stimuli/rescaled_final/1796_rv.mp4	0.0	204.57578659057617	
24	134.6282036304474	fix_post	2		12	22.0	2.5	/experiments/Knapen_AOT/AOT_stimuli/rescaled_final/1796_rv.mp4	0.0	204.6941113471985	0.10002875328063965
25	134.72823238372803	fix_pre	0		120	23.0	2.5	/experiments/Knapen_AOT/AOT_stimuli/rescaled_final/1306_fw.mp4	0.0	204.79414010047913	1.008486270904541
25	135.73671865463257	movie	1		286	23.0	2.5	/experiments/Knapen_AOT/AOT_stimuli/rescaled_final/1306_fw.mp4	0.0	205.80262637138367	2.4920318126678467
25	136.11048436164856	pulse	1	t		23.0	2.5	/experiments/Knapen_AOT/AOT_stimuli/rescaled_final/1306_fw.mp4	0.0	206.17639207839966	
25	137.7101423740387	pulse	1	t		23.0	2.5	/experiments/Knapen_AOT/AOT_stimuli/rescaled_final/1306_fw.mp4	0.0	207.7760500907898	
25	138.22875046730042	fix_post	2		12	23.0	2.5	/experiments/Knapen_AOT/AOT_stimuli/rescaled_final/1306_fw.mp4	0.0	208.2946581840515	0.10002255439758301
26	138.328773021698	fix_pre	0		119	24.0	2.5	/experiments/Knapen_AOT/AOT_stimuli/rescaled_final/0576_rv.mp4	0.0	208.3946807384491	1.0001497268676758
26	139.3127748966217	pulse	0	t		24.0	2.5	/experiments/Knapen_AOT/AOT_stimuli/rescaled_final/0576_rv.mp4	0.0	209.3786826133728	
26	139.32892274856567	movie	1		285	24.0	2.5	/experiments/Knapen_AOT/AOT_stimuli/rescaled_final/0576_rv.mp4	0.0	209.39483046531677	2.500370979309082
26	140.9112319946289	pulse	1	t		24.0	2.5	/experiments/Knapen_AOT/AOT_stimuli/rescaled_final/0576_rv.mp4	0.0	210.97713971138	
26	141.82929372787476	fix_post	2		12	24.0	2.5	/experiments/Knapen_AOT/AOT_stimuli/rescaled_final/0576_rv.mp4	0.0	211.89520144462585	0.10010814666748047
27	141.92940187454224	fix_pre	0		120	25.0	2.5	/experiments/Knapen_AOT/AOT_stimuli/rescaled_final/1729_rv.mp4	0.0	211.99530959129333	1.0084443092346191
27	142.5130968093872	pulse	0	t		25.0	2.5	/experiments/Knapen_AOT/AOT_stimuli/rescaled_final/1729_rv.mp4	0.0	212.5790045261383	
27	142.93784618377686	movie	1		292	25.0	2.5	/experiments/Knapen_AOT/AOT_stimuli/rescaled_final/1729_rv.mp4	0.0	213.00375390052795	2.49196195602417
27	144.11122632026672	pulse	1	t		25.0	2.5	/experiments/Knapen_AOT/AOT_stimuli/rescaled_final/1729_rv.mp4	0.0	214.17713403701782	
27	145.42980813980103	fix_post	2		12	25.0	2.5	/experiments/Knapen_AOT/AOT_stimuli/rescaled_final/1729_rv.mp4	0.0	215.49571585655212	0.10001945495605469
28	145.52982759475708	fix_pre	0		120	26.0	2.5	/experiments/Knapen_AOT/AOT_stimuli/rescaled_final/0226_fw.mp4	0.0	215.59573531150818	1.0001392364501953
28	145.7132670879364	pulse	0	t		26.0	2.5	/experiments/Knapen_AOT/AOT_stimuli/rescaled_final/0226_fw.mp4	0.0	215.7791748046875	
28	146.52996683120728	movie	1		297	26.0	2.5	/experiments/Knapen_AOT/AOT_stimuli/rescaled_final/0226_fw.mp4	0.0	216.59587454795837	2.5003809928894043
28	147.30924129486084	pulse	1	t		26.0	2.5	/experiments/Knapen_AOT/AOT_stimuli/rescaled_final/0226_fw.mp4	0.0	217.37514901161194	
28	148.90566158294678	pulse	1	t		26.0	2.5	/experiments/Knapen_AOT/AOT_stimuli/rescaled_final/0226_fw.mp4	0.0	218.97156929969788	
28	149.03034782409668	fix_post	2		12	26.0	2.5	/experiments/Knapen_AOT/AOT_stimuli/rescaled_final/0226_fw.mp4	0.0	219.09625554084778	0.10003519058227539
29	149.13038301467896	fix_pre	0		120	27.0	2.5	blank	1.0	219.19629073143005	1.0001533031463623
29	150.13053631782532	movie	1		300	27.0	2.5	blank	1.0	220.19644403457642	2.500356912612915
29	150.5057442188263	pulse	1	t		27.0	2.5	blank	1.0	220.5716519355774	
29	152.1059205532074	pulse	1	t		27.0	2.5	blank	1.0	222.1718282699585	
29	152.63089323043823	fix_post	2		12	27.0	2.5	blank	1.0	222.69680094718933	0.1000053882598877
30	152.73089861869812	fix_pre	0		118	28.0	2.5	/experiments/Knapen_AOT/AOT_stimuli/rescaled_final/0120_fw.mp4	0.0	222.79680633544922	0.9918456077575684
30	153.70625376701355	pulse	0	t		28.0	2.5	/experiments/Knapen_AOT/AOT_stimuli/rescaled_final/0120_fw.mp4	0.0	223.77216148376465	
30	153.7227442264557	movie	1		295	28.0	2.5	/experiments/Knapen_AOT/AOT_stimuli/rescaled_final/0120_fw.mp4	0.0	223.7886519432068	2.500356435775757
30	155.30646634101868	pulse	1	t		28.0	2.5	/experiments/Knapen_AOT/AOT_stimuli/rescaled_final/0120_fw.mp4	0.0	225.37237405776978	
30	156.22310066223145	fix_post	2		12	28.0	2.5	/experiments/Knapen_AOT/AOT_stimuli/rescaled_final/0120_fw.mp4	0.0	226.28900837898254	0.10001516342163086
31	156.32311582565308	fix_pre	0		120	29.0	2.5	/experiments/Knapen_AOT/AOT_stimuli/rescaled_final/0737_rv.mp4	0.0	226.38902354240417	1.0085928440093994
31	156.90673542022705	pulse	0	t		29.0	2.5	/experiments/Knapen_AOT/AOT_stimuli/rescaled_final/0737_rv.mp4	0.0	226.97264313697815	
31	157.33170866966248	movie	1		293	29.0	2.5	/experiments/Knapen_AOT/AOT_stimuli/rescaled_final/0737_rv.mp4	0.0	227.39761638641357	2.4919798374176025
31	158.50692868232727	pulse	1	t		29.0	2.5	/experiments/Knapen_AOT/AOT_stimuli/rescaled_final/0737_rv.mp4	0.0	228.57283639907837	
31	159.82368850708008	fix_post	2		12	29.0	2.5	/experiments/Knapen_AOT/AOT_stimuli/rescaled_final/0737_rv.mp4	0.0	229.88959622383118	0.10004782676696777
32	159.92373633384705	fix_pre	0		120	30.0	2.5	/experiments/Knapen_AOT/AOT_stimuli/rescaled_final/0191_fw.mp4	0.0	229.98964405059814	1.0084338188171387
32	160.10716271400452	pulse	0	t		30.0	2.5	/experiments/Knapen_AOT/AOT_stimuli/rescaled_final/0191_fw.mp4	0.0	230.17307043075562	
32	160.93217015266418	movie	1		295	30.0	2.5	/experiments/Knapen_AOT/AOT_stimuli/rescaled_final/0191_fw.mp4	0.0	230.99807786941528	2.4920172691345215
32	161.70742630958557	pulse	1	t		30.0	2.5	/experiments/Knapen_AOT/AOT_stimuli/rescaled_final/0191_fw.mp4	0.0	231.77333402633667	
32	163.30761575698853	pulse	1	t		30.0	2.5	/experiments/Knapen_AOT/AOT_stimuli/rescaled_final/0191_fw.mp4	0.0	233.37352347373962	
32	163.4241874217987	fix_post	2		12	30.0	2.5	/experiments/Knapen_AOT/AOT_stimuli/rescaled_final/0191_fw.mp4	0.0	233.4900951385498	0.1000053882598877
33	163.5241928100586	fix_pre	0		120	31.0	2.5	/experiments/Knapen_AOT/AOT_stimuli/rescaled_final/0873_fw.mp4	0.0	233.5901005268097	1.0001325607299805
33	164.52432537078857	movie	1		295	31.0	2.5	/experiments/Knapen_AOT/AOT_stimuli/rescaled_final/0873_fw.mp4	0.0	234.59023308753967	2.5004024505615234
33	164.90795302391052	pulse	1	t		31.0	2.5	/experiments/Knapen_AOT/AOT_stimuli/rescaled_final/0873_fw.mp4	0.0	234.97386074066162	
33	166.50836896896362	pulse	1	t		31.0	2.5	/experiments/Knapen_AOT/AOT_stimuli/rescaled_final/0873_fw.mp4	0.0	236.57427668571472	
33	167.0247278213501	fix_post	2		12	31.0	2.5	/experiments/Knapen_AOT/AOT_stimuli/rescaled_final/0873_fw.mp4	0.0	237.0906355381012	0.10001420974731445
34	167.1247420310974	fix_pre	0		119	32.0	2.5	/experiments/Knapen_AOT/AOT_stimuli/rescaled_final/1305_rv.mp4	0.0	237.1906497478485	1.0001816749572754
34	168.1083586215973	pulse	0	t		32.0	2.5	/experiments/Knapen_AOT/AOT_stimuli/rescaled_final/1305_rv.mp4	0.0	238.1742663383484	
34	168.1249237060547	movie	1		297	32.0	2.5	/experiments/Knapen_AOT/AOT_stimuli/rescaled_final/1305_rv.mp4	0.0	238.1908314228058	2.5003373622894287
34	169.70645880699158	pulse	1	t		32.0	2.5	/experiments/Knapen_AOT/AOT_stimuli/rescaled_final/1305_rv.mp4	0.0	239.77236652374268	
34	170.62526106834412	fix_post	2		12	32.0	2.5	/experiments/Knapen_AOT/AOT_stimuli/rescaled_final/1305_rv.mp4	0.0	240.69116878509521	0.10002636909484863
35	170.72528743743896	fix_pre	0		120	33.0	2.5	blank	1.0	240.79119515419006	1.000185489654541
35	171.30899357795715	pulse	0	t		33.0	2.5	blank	1.0	241.37490129470825	
35	171.7254729270935	movie	1		300	33.0	2.5	blank	1.0	241.7913806438446	2.5003585815429688
35	172.90919637680054	pulse	1	t		33.0	2.5	blank	1.0	242.97510409355164	
35	174.22583150863647	fix_post	2		12	33.0	2.5	blank	1.0	244.29173922538757	0.10001134872436523
36	174.32584285736084	fix_pre	0		120	34.0	2.5	/experiments/Knapen_AOT/AOT_stimuli/rescaled_final/1168_rv.mp4	0.0	244.39175057411194	1.0085041522979736
36	174.5094108581543	pulse	0	t		34.0	2.5	/experiments/Knapen_AOT/AOT_stimuli/rescaled_final/1168_rv.mp4	0.0	244.5753185749054	
36	175.3343470096588	movie	1		288	34.0	2.5	/experiments/Knapen_AOT/AOT_stimuli/rescaled_final/1168_rv.mp4	0.0	245.4002547264099	2.492039442062378
36	176.10760688781738	pulse	1	t		34.0	2.5	/experiments/Knapen_AOT/AOT_stimuli/rescaled_final/1168_rv.mp4	0.0	246.17351460456848	
36	177.70801043510437	pulse	1	t		34.0	2.5	/experiments/Knapen_AOT/AOT_stimuli/rescaled_final/1168_rv.mp4	0.0	247.77391815185547	
36	177.8263864517212	fix_post	2		12	34.0	2.5	/experiments/Knapen_AOT/AOT_stimuli/rescaled_final/1168_rv.mp4	0.0	247.8922941684723	0.10001277923583984
37	177.92639923095703	fix_pre	0		120	35.0	2.5	/experiments/Knapen_AOT/AOT_stimuli/rescaled_final/0203_rv.mp4	0.0	247.99230694770813	1.0085117816925049
37	178.93491101264954	movie	1		278	35.0	2.5	/experiments/Knapen_AOT/AOT_stimuli/rescaled_final/0203_rv.mp4	0.0	249.00081872940063	2.492018699645996
37	179.308669090271	pulse	1	t		35.0	2.5	/experiments/Knapen_AOT/AOT_stimuli/rescaled_final/0203_rv.mp4	0.0	249.3745768070221	
37	180.90841364860535	pulse	1	t		35.0	2.5	/experiments/Knapen_AOT/AOT_stimuli/rescaled_final/0203_rv.mp4	0.0	250.97432136535645	
37	181.42692971229553	fix_post	2		12	35.0	2.5	/experiments/Knapen_AOT/AOT_stimuli/rescaled_final/0203_rv.mp4	0.0	251.49283742904663	0.10007882118225098
38	181.52700853347778	fix_pre	0		119	36.0	2.5	/experiments/Knapen_AOT/AOT_stimuli/rescaled_final/0999_rv.mp4	0.0	251.59291625022888	1.00008225440979
38	182.51083302497864	pulse	0	t		36.0	2.5	/experiments/Knapen_AOT/AOT_stimuli/rescaled_final/0999_rv.mp4	0.0	252.57674074172974	
38	182.52709078788757	movie	1		289	36.0	2.5	/experiments/Knapen_AOT/AOT_stimuli/rescaled_final/0999_rv.mp4	0.0	252.59299850463867	2.5003907680511475
38	184.10943031311035	pulse	1	t		36.0	2.5	/experiments/Knapen_AOT/AOT_stimuli/rescaled_final/0999_rv.mp4	0.0	254.17533802986145	
38	185.02748155593872	fix_post	2		12	36.0	2.5	/experiments/Knapen_AOT/AOT_stimuli/rescaled_final/0999_rv.mp4	0.0	255.09338927268982	0.09999418258666992
39	185.1274757385254	fix_pre	0		120	37.0	2.5	/experiments/Knapen_AOT/AOT_stimuli/rescaled_final/0167_fw.mp4	0.0	255.1933834552765	1.0085201263427734
39	185.71109318733215	pulse	0	t		37.0	2.5	/experiments/Knapen_AOT/AOT_stimuli/rescaled_final/0167_fw.mp4	0.0	255.77700090408325	
39	186.13599586486816	movie	1		291	37.0	2.5	/experiments/Knapen_AOT/AOT_stimuli/rescaled_final/0167_fw.mp4	0.0	256.20190358161926	2.4921939373016357
39	187.30953741073608	pulse	1	t		37.0	2.5	/experiments/Knapen_AOT/AOT_stimuli/rescaled_final/0167_fw.mp4	0.0	257.3754451274872	
39	188.6281898021698	fix_post	2		12	37.0	2.5	/experiments/Knapen_AOT/AOT_stimuli/rescaled_final/0167_fw.mp4	0.0	258.6940975189209	0.09982800483703613
40	188.72801780700684	fix_pre	0		120	38.0	2.5	/experiments/Knapen_AOT/AOT_stimuli/rescaled_final/1071_rv.mp4	0.0	258.79392552375793	1.0085554122924805
40	188.9115550518036	pulse	0	t		38.0	2.5	/experiments/Knapen_AOT/AOT_stimuli/rescaled_final/1071_rv.mp4	0.0	258.9774627685547	
40	189.73657321929932	movie	1		290	38.0	2.5	/experiments/Knapen_AOT/AOT_stimuli/rescaled_final/1071_rv.mp4	0.0	259.8024809360504	2.4919650554656982
40	190.5097177028656	pulse	1	t		38.0	2.5	/experiments/Knapen_AOT/AOT_stimuli/rescaled_final/1071_rv.mp4	0.0	260.5756254196167	
40	192.11020159721375	pulse	1	t		38.0	2.5	/experiments/Knapen_AOT/AOT_stimuli/rescaled_final/1071_rv.mp4	0.0	262.17610931396484	
40	192.22853827476501	fix_post	2		12	38.0	2.5	/experiments/Knapen_AOT/AOT_stimuli/rescaled_final/1071_rv.mp4	0.0	262.2944459915161	0.10001659393310547
41	192.32855486869812	fix_pre	0		120	39.0	2.5	/experiments/Knapen_AOT/AOT_stimuli/rescaled_final/0678_rv.mp4	0.0	262.3944625854492	1.0085229873657227
41	193.33707785606384	movie	1		290	39.0	2.5	/experiments/Knapen_AOT/AOT_stimuli/rescaled_final/0678_rv.mp4	0.0	263.40298557281494	2.492131233215332
41	193.71126747131348	pulse	1	t		39.0	2.5	/experiments/Knapen_AOT/AOT_stimuli/rescaled_final/0678_rv.mp4	0.0	263.7771751880646	
41	195.3105275630951	pulse	1	t		39.0	2.5	/experiments/Knapen_AOT/AOT_stimuli/rescaled_final/0678_rv.mp4	0.0	265.3764352798462	
41	195.82920908927917	fix_post	2		12	39.0	2.5	/experiments/Knapen_AOT/AOT_stimuli/rescaled_final/0678_rv.mp4	0.0	265.8951168060303	0.09998941421508789
42	195.92919850349426	fix_pre	0		119	40.0	2.5	/experiments/Knapen_AOT/AOT_stimuli/rescaled_final/0156_fw.mp4	0.0	265.99510622024536	1.0000731945037842
42	196.91275668144226	pulse	0	t		40.0	2.5	/experiments/Knapen_AOT/AOT_stimuli/rescaled_final/0156_fw.mp4	0.0	266.97866439819336	
42	196.92927169799805	movie	1		288	40.0	2.5	/experiments/Knapen_AOT/AOT_stimuli/rescaled_final/0156_fw.mp4	0.0	266.99517941474915	2.5005033016204834
42	198.51171350479126	pulse	1	t		40.0	2.5	/experiments/Knapen_AOT/AOT_stimuli/rescaled_final/0156_fw.mp4	0.0	268.57762122154236	
42	199.42977499961853	fix_post	2		12	40.0	2.5	/experiments/Knapen_AOT/AOT_stimuli/rescaled_final/0156_fw.mp4	0.0	269.49568271636963	0.0998849868774414
43	199.52965998649597	fix_pre	0		120	41.0	2.5	/experiments/Knapen_AOT/AOT_stimuli/rescaled_final/0695_fw.mp4	0.0	269.59556770324707	1.008582353591919
43	200.11335134506226	pulse	0	t		41.0	2.5	/experiments/Knapen_AOT/AOT_stimuli/rescaled_final/0695_fw.mp4	0.0	270.17925906181335	
43	200.5382423400879	movie	1		290	41.0	2.5	/experiments/Knapen_AOT/AOT_stimuli/rescaled_final/0695_fw.mp4	0.0	270.604150056839	2.4919204711914062
43	201.71178269386292	pulse	1	t		41.0	2.5	/experiments/Knapen_AOT/AOT_stimuli/rescaled_final/0695_fw.mp4	0.0	271.777690410614	
43	203.0301628112793	fix_post	2		12	41.0	2.5	/experiments/Knapen_AOT/AOT_stimuli/rescaled_final/0695_fw.mp4	0.0	273.0960705280304	0.10001015663146973
44	203.13017296791077	fix_pre	0		120	42.0	2.5	blank	1.0	273.19608068466187	1.0001795291900635
44	203.31399989128113	pulse	0	t		42.0	2.5	blank	1.0	273.3799076080322	
44	204.13035249710083	movie	1		300	42.0	2.5	blank	1.0	274.19626021385193	2.5003862380981445
44	204.9139621257782	pulse	1	t		42.0	2.5	blank	1.0	274.9798698425293	
44	206.50624585151672	pulse	1	t		42.0	2.5	blank	1.0	276.5721535682678	
44	206.63073873519897	fix_post	2		12	42.0	2.5	blank	1.0	276.6966464519501	0.09999370574951172
45	206.7307324409485	fix_pre	0		120	43.0	2.5	/experiments/Knapen_AOT/AOT_stimuli/rescaled_final/0630_rv.mp4	0.0	276.7966401576996	1.008476734161377
45	207.73920917510986	movie	1		279	43.0	2.5	/experiments/Knapen_AOT/AOT_stimuli/rescaled_final/0630_rv.mp4	0.0	277.80511689186096	2.492042303085327
45	208.10652112960815	pulse	1	t		43.0	2.5	/experiments/Knapen_AOT/AOT_stimuli/rescaled_final/0630_rv.mp4	0.0	278.17242884635925	
45	209.706640958786	pulse	1	t		43.0	2.5	/experiments/Knapen_AOT/AOT_stimuli/rescaled_final/0630_rv.mp4	0.0	279.7725486755371	
45	210.2312514781952	fix_post	2		12	43.0	2.5	/experiments/Knapen_AOT/AOT_stimuli/rescaled_final/0630_rv.mp4	0.0	280.2971591949463	0.10005497932434082
46	210.33130645751953	fix_pre	0		118	44.0	2.5	/experiments/Knapen_AOT/AOT_stimuli/rescaled_final/0029_rv.mp4	0.0	280.39721417427063	0.9917871952056885
46	211.3068642616272	pulse	0	t		44.0	2.5	/experiments/Knapen_AOT/AOT_stimuli/rescaled_final/0029_rv.mp4	0.0	281.3727719783783	
46	211.32309365272522	movie	1		286	44.0	2.5	/experiments/Knapen_AOT/AOT_stimuli/rescaled_final/0029_rv.mp4	0.0	281.3890013694763	2.5003819465637207
46	212.9069480895996	pulse	1	t		44.0	2.5	/experiments/Knapen_AOT/AOT_stimuli/rescaled_final/0029_rv.mp4	0.0	282.9728558063507	
46	213.82347559928894	fix_post	2		12	44.0	2.5	/experiments/Knapen_AOT/AOT_stimuli/rescaled_final/0029_rv.mp4	0.0	283.88938331604004	0.10000967979431152
47	213.92348527908325	fix_pre	0		120	45.0	2.5	/experiments/Knapen_AOT/AOT_stimuli/rescaled_final/0242_rv.mp4	0.0	283.98939299583435	1.0085008144378662
47	214.50708627700806	pulse	0	t		45.0	2.5	/experiments/Knapen_AOT/AOT_stimuli/rescaled_final/0242_rv.mp4	0.0	284.57299399375916	
47	214.93198609352112	movie	1		269	45.0	2.5	/experiments/Knapen_AOT/AOT_stimuli/rescaled_final/0242_rv.mp4	0.0	284.9978938102722	2.4921956062316895
47	216.107346534729	pulse	1	t		45.0	2.5	/experiments/Knapen_AOT/AOT_stimuli/rescaled_final/0242_rv.mp4	0.0	286.1732542514801	
47	217.4241816997528	fix_post	2		12	45.0	2.5	/experiments/Knapen_AOT/AOT_stimuli/rescaled_final/0242_rv.mp4	0.0	287.4900894165039	0.09991264343261719
48	217.52409434318542	fix_pre	0		120	46.0	2.5	/experiments/Knapen_AOT/AOT_stimuli/rescaled_final/0482_fw.mp4	0.0	287.5900020599365	1.0084214210510254
48	217.70757603645325	pulse	0	t		46.0	2.5	/experiments/Knapen_AOT/AOT_stimuli/rescaled_final/0482_fw.mp4	0.0	287.77348375320435	
48	218.53251576423645	movie	1		287	46.0	2.5	/experiments/Knapen_AOT/AOT_stimuli/rescaled_final/0482_fw.mp4	0.0	288.59842348098755	2.4920759201049805
48	219.3078556060791	pulse	1	t		46.0	2.5	/experiments/Knapen_AOT/AOT_stimuli/rescaled_final/0482_fw.mp4	0.0	289.3737633228302	
48	220.9080526828766	pulse	1	t		46.0	2.5	/experiments/Knapen_AOT/AOT_stimuli/rescaled_final/0482_fw.mp4	0.0	290.9739603996277	
48	221.02459168434143	fix_post	2		12	46.0	2.5	/experiments/Knapen_AOT/AOT_stimuli/rescaled_final/0482_fw.mp4	0.0	291.09049940109253	0.09998345375061035
49	221.12457513809204	fix_pre	0		120	47.0	2.5	/experiments/Knapen_AOT/AOT_stimuli/rescaled_final/0932_rv.mp4	0.0	291.19048285484314	1.0084950923919678
49	222.133070230484	movie	1		285	47.0	2.5	/experiments/Knapen_AOT/AOT_stimuli/rescaled_final/0932_rv.mp4	0.0	292.1989779472351	2.4920217990875244
49	222.5068633556366	pulse	1	t		47.0	2.5	/experiments/Knapen_AOT/AOT_stimuli/rescaled_final/0932_rv.mp4	0.0	292.5727710723877	
49	224.10673069953918	pulse	1	t		47.0	2.5	/experiments/Knapen_AOT/AOT_stimuli/rescaled_final/0932_rv.mp4	0.0	294.1726384162903	
49	224.62509202957153	fix_post	2		12	47.0	2.5	/experiments/Knapen_AOT/AOT_stimuli/rescaled_final/0932_rv.mp4	0.0	294.69099974632263	0.10004711151123047
50	224.72513914108276	fix_pre	0		119	48.0	2.5	blank	1.0	294.79104685783386	0.9917569160461426
50	225.70884013175964	pulse	0	t		48.0	2.5	blank	1.0	295.77474784851074	
50	225.7168960571289	movie	1		301	48.0	2.5	blank	1.0	295.78280377388	2.5087411403656006
50	227.30904722213745	pulse	1	t		48.0	2.5	blank	1.0	297.37495493888855	
50	228.2256371974945	fix_post	2		12	48.0	2.5	blank	1.0	298.2915449142456	0.10003018379211426
51	228.32566738128662	fix_pre	0		120	49.0	2.5	/experiments/Knapen_AOT/AOT_stimuli/rescaled_final/1896_fw.mp4	0.0	298.3915750980377	1.0085434913635254
51	228.90932512283325	pulse	0	t		49.0	2.5	/experiments/Knapen_AOT/AOT_stimuli/rescaled_final/1896_fw.mp4	0.0	298.97523283958435	
51	229.33421087265015	movie	1		292	49.0	2.5	/experiments/Knapen_AOT/AOT_stimuli/rescaled_final/1896_fw.mp4	0.0	299.40011858940125	2.4921326637268066
51	230.50800371170044	pulse	1	t		49.0	2.5	/experiments/Knapen_AOT/AOT_stimuli/rescaled_final/1896_fw.mp4	0.0	300.57391142845154	
51	231.82634353637695	fix_post	2		12	49.0	2.5	/experiments/Knapen_AOT/AOT_stimuli/rescaled_final/1896_fw.mp4	0.0	301.89225125312805	0.09989643096923828
52	231.9262399673462	fix_pre	0		120	50.0	2.5	/experiments/Knapen_AOT/AOT_stimuli/rescaled_final/1372_rv.mp4	0.0	301.9921476840973	1.0084834098815918
52	232.10979557037354	pulse	0	t		50.0	2.5	/experiments/Knapen_AOT/AOT_stimuli/rescaled_final/1372_rv.mp4	0.0	302.17570328712463	
52	232.93472337722778	movie	1		283	50.0	2.5	/experiments/Knapen_AOT/AOT_stimuli/rescaled_final/1372_rv.mp4	0.0	303.0006310939789	2.4920287132263184
52	233.70812034606934	pulse	1	t		50.0	2.5	/experiments/Knapen_AOT/AOT_stimuli/rescaled_final/1372_rv.mp4	0.0	303.77402806282043	
52	235.3084740638733	pulse	1	t		50.0	2.5	/experiments/Knapen_AOT/AOT_stimuli/rescaled_final/1372_rv.mp4	0.0	305.3743817806244	
52	235.4267520904541	fix_post	2		12	50.0	2.5	/experiments/Knapen_AOT/AOT_stimuli/rescaled_final/1372_rv.mp4	0.0	305.4926598072052	0.09998965263366699
53	235.52674174308777	fix_pre	0		120	51.0	2.5	/experiments/Knapen_AOT/AOT_stimuli/rescaled_final/1749_fw.mp4	0.0	305.59264945983887	1.0084779262542725
53	236.53521966934204	movie	1		286	51.0	2.5	/experiments/Knapen_AOT/AOT_stimuli/rescaled_final/1749_fw.mp4	0.0	306.60112738609314	2.4920096397399902
53	236.90962481498718	pulse	1	t		51.0	2.5	/experiments/Knapen_AOT/AOT_stimuli/rescaled_final/1749_fw.mp4	0.0	306.9755325317383	
53	238.50875186920166	pulse	1	t		51.0	2.5	/experiments/Knapen_AOT/AOT_stimuli/rescaled_final/1749_fw.mp4	0.0	308.57465958595276	
53	239.02722930908203	fix_post	2		12	51.0	2.5	/experiments/Knapen_AOT/AOT_stimuli/rescaled_final/1749_fw.mp4	0.0	309.09313702583313	0.10004377365112305
54	239.12727308273315	fix_pre	0		119	52.0	2.5	/experiments/Knapen_AOT/AOT_stimuli/rescaled_final/2021_rv.mp4	0.0	309.19318079948425	1.0001533031463623
54	240.1109538078308	pulse	0	t		52.0	2.5	/experiments/Knapen_AOT/AOT_stimuli/rescaled_final/2021_rv.mp4	0.0	310.1768615245819	
54	240.12742638587952	movie	1		285	52.0	2.5	/experiments/Knapen_AOT/AOT_stimuli/rescaled_final/2021_rv.mp4	0.0	310.1933341026306	2.5003552436828613
54	241.70978450775146	pulse	1	t		52.0	2.5	/experiments/Knapen_AOT/AOT_stimuli/rescaled_final/2021_rv.mp4	0.0	311.77569222450256	
54	242.62778162956238	fix_post	2		12	52.0	2.5	/experiments/Knapen_AOT/AOT_stimuli/rescaled_final/2021_rv.mp4	0.0	312.6936893463135	0.1000661849975586
55	242.72784781455994	fix_pre	0		120	53.0	2.5	/experiments/Knapen_AOT/AOT_stimuli/rescaled_final/0020_rv.mp4	0.0	312.79375553131104	1.0084497928619385
55	243.3114709854126	pulse	0	t		53.0	2.5	/experiments/Knapen_AOT/AOT_stimuli/rescaled_final/0020_rv.mp4	0.0	313.3773787021637	
55	243.73629760742188	movie	1		288	53.0	2.5	/experiments/Knapen_AOT/AOT_stimuli/rescaled_final/0020_rv.mp4	0.0	313.802205324173	2.492079734802246
55	244.9100739955902	pulse	1	t		53.0	2.5	/experiments/Knapen_AOT/AOT_stimuli/rescaled_final/0020_rv.mp4	0.0	314.9759817123413	
55	246.22837734222412	fix_post	2		12	53.0	2.5	/experiments/Knapen_AOT/AOT_stimuli/rescaled_final/0020_rv.mp4	0.0	316.2942850589752	0.10006213188171387
56	246.32843947410583	fix_pre	0		120	54.0	2.5	/experiments/Knapen_AOT/AOT_stimuli/rescaled_final/0467_fw.mp4	0.0	316.39434719085693	1.0084848403930664
56	246.51197242736816	pulse	0	t		54.0	2.5	/experiments/Knapen_AOT/AOT_stimuli/rescaled_final/0467_fw.mp4	0.0	316.57788014411926	
56	247.3369243144989	movie	1		278	54.0	2.5	/experiments/Knapen_AOT/AOT_stimuli/rescaled_final/0467_fw.mp4	0.0	317.40283203125	2.491975784301758
56	248.11019253730774	pulse	1	t		54.0	2.5	/experiments/Knapen_AOT/AOT_stimuli/rescaled_final/0467_fw.mp4	0.0	318.17610025405884	
56	249.7125883102417	pulse	1	t		54.0	2.5	/experiments/Knapen_AOT/AOT_stimuli/rescaled_final/0467_fw.mp4	0.0	319.7784960269928	
56	249.82890009880066	fix_post	2		12	54.0	2.5	/experiments/Knapen_AOT/AOT_stimuli/rescaled_final/0467_fw.mp4	0.0	319.89480781555176	0.10006189346313477
57	249.9289619922638	fix_pre	0		120	55.0	2.5	blank	1.0	319.9948697090149	1.000157117843628
57	250.92911911010742	movie	1		300	55.0	2.5	blank	1.0	320.9950268268585	2.500305414199829
57	251.31280183792114	pulse	1	t		55.0	2.5	blank	1.0	321.37870955467224	
57	252.9128406047821	pulse	1	t		55.0	2.5	blank	1.0	322.9787483215332	
57	253.42942452430725	fix_post	2		12	55.0	2.5	blank	1.0	323.49533224105835	0.10002994537353516
58	253.5294544696808	fix_pre	0		119	56.0	2.5	/experiments/Knapen_AOT/AOT_stimuli/rescaled_final/0745_rv.mp4	0.0	323.5953621864319	1.000499963760376
58	254.50588631629944	pulse	0	t		56.0	2.5	/experiments/Knapen_AOT/AOT_stimuli/rescaled_final/0745_rv.mp4	0.0	324.57179403305054	
58	254.52995443344116	movie	1		283	56.0	2.5	/experiments/Knapen_AOT/AOT_stimuli/rescaled_final/0745_rv.mp4	0.0	324.59586215019226	2.5000197887420654
58	256.11209321022034	pulse	1	t		56.0	2.5	/experiments/Knapen_AOT/AOT_stimuli/rescaled_final/0745_rv.mp4	0.0	326.17800092697144	
58	257.0299742221832	fix_post	2		12	56.0	2.5	/experiments/Knapen_AOT/AOT_stimuli/rescaled_final/0745_rv.mp4	0.0	327.0958819389343	0.10000872611999512
59	257.1299829483032	fix_pre	0		120	57.0	2.5	/experiments/Knapen_AOT/AOT_stimuli/rescaled_final/0706_fw.mp4	0.0	327.1958906650543	1.0084989070892334
59	257.7056419849396	pulse	0	t		57.0	2.5	/experiments/Knapen_AOT/AOT_stimuli/rescaled_final/0706_fw.mp4	0.0	327.7715497016907	
59	258.13848185539246	movie	1		291	57.0	2.5	/experiments/Knapen_AOT/AOT_stimuli/rescaled_final/0706_fw.mp4	0.0	328.20438957214355	2.4920167922973633
59	259.3056478500366	pulse	1	t		57.0	2.5	/experiments/Knapen_AOT/AOT_stimuli/rescaled_final/0706_fw.mp4	0.0	329.3715555667877	
59	260.6304986476898	fix_post	2		12	57.0	2.5	/experiments/Knapen_AOT/AOT_stimuli/rescaled_final/0706_fw.mp4	0.0	330.6964063644409	0.10004568099975586
60	260.7305443286896	fix_pre	0		120	58.0	2.5	/experiments/Knapen_AOT/AOT_stimuli/rescaled_final/1349_rv.mp4	0.0	330.7964520454407	1.0084583759307861
60	260.905889749527	pulse	0	t		58.0	2.5	/experiments/Knapen_AOT/AOT_stimuli/rescaled_final/1349_rv.mp4	0.0	330.9717974662781	
60	261.73900270462036	movie	1		281	58.0	2.5	/experiments/Knapen_AOT/AOT_stimuli/rescaled_final/1349_rv.mp4	0.0	331.80491042137146	2.492100954055786
60	262.5059711933136	pulse	1	t		58.0	2.5	/experiments/Knapen_AOT/AOT_stimuli/rescaled_final/1349_rv.mp4	0.0	332.5718789100647	
60	264.10627126693726	pulse	1	t		58.0	2.5	/experiments/Knapen_AOT/AOT_stimuli/rescaled_final/1349_rv.mp4	0.0	334.17217898368835	
60	264.23110365867615	fix_post	2		12	58.0	2.5	/experiments/Knapen_AOT/AOT_stimuli/rescaled_final/1349_rv.mp4	0.0	334.29701137542725	0.1001276969909668
61	264.3312313556671	fix_pre	0		120	59.0	2.5	/experiments/Knapen_AOT/AOT_stimuli/rescaled_final/1348_rv.mp4	0.0	334.3971390724182	1.0084779262542725
61	265.3397092819214	movie	1		271	59.0	2.5	/experiments/Knapen_AOT/AOT_stimuli/rescaled_final/1348_rv.mp4	0.0	335.4056169986725	2.4918832778930664
61	265.70673847198486	pulse	1	t		59.0	2.5	/experiments/Knapen_AOT/AOT_stimuli/rescaled_final/1348_rv.mp4	0.0	335.77264618873596	
61	267.3060402870178	pulse	1	t		59.0	2.5	/experiments/Knapen_AOT/AOT_stimuli/rescaled_final/1348_rv.mp4	0.0	337.3719480037689	
61	267.83159255981445	fix_post	2		12	59.0	2.5	/experiments/Knapen_AOT/AOT_stimuli/rescaled_final/1348_rv.mp4	0.0	337.89750027656555	0.10000824928283691
62	267.9316008090973	fix_pre	0		118	60.0	2.5	/experiments/Knapen_AOT/AOT_stimuli/rescaled_final/0965_fw.mp4	0.0	337.9975085258484	1.0001718997955322
62	268.90706872940063	pulse	0	t		60.0	2.5	/experiments/Knapen_AOT/AOT_stimuli/rescaled_final/0965_fw.mp4	0.0	338.97297644615173	
62	268.9317727088928	movie	1		290	60.0	2.5	/experiments/Knapen_AOT/AOT_stimuli/rescaled_final/0965_fw.mp4	0.0	338.9976804256439	2.4920058250427246
62	270.50574016571045	pulse	1	t		60.0	2.5	/experiments/Knapen_AOT/AOT_stimuli/rescaled_final/0965_fw.mp4	0.0	340.57164788246155	
62	271.42377853393555	fix_post	2		12	60.0	2.5	/experiments/Knapen_AOT/AOT_stimuli/rescaled_final/0965_fw.mp4	0.0	341.48968625068665	0.10002589225769043
63	271.52380442619324	fix_pre	0		120	61.0	2.5	/experiments/Knapen_AOT/AOT_stimuli/rescaled_final/1159_fw.mp4	0.0	341.58971214294434	1.0084738731384277
63	272.1077606678009	pulse	0	t		61.0	2.5	/experiments/Knapen_AOT/AOT_stimuli/rescaled_final/1159_fw.mp4	0.0	342.173668384552	
63	272.53227829933167	movie	1		295	61.0	2.5	/experiments/Knapen_AOT/AOT_stimuli/rescaled_final/1159_fw.mp4	0.0	342.59818601608276	2.4921014308929443
63	273.70595479011536	pulse	1	t		61.0	2.5	/experiments/Knapen_AOT/AOT_stimuli/rescaled_final/1159_fw.mp4	0.0	343.77186250686646	
63	275.0243797302246	fix_post	2		12	61.0	2.5	/experiments/Knapen_AOT/AOT_stimuli/rescaled_final/1159_fw.mp4	0.0	345.0902874469757	0.10001015663146973
64	275.1243898868561	fix_pre	0		120	62.0	2.5	/experiments/Knapen_AOT/AOT_stimuli/rescaled_final/1306_rv.mp4	0.0	345.1902976036072	1.0084726810455322
64	275.30789709091187	pulse	0	t		62.0	2.5	/experiments/Knapen_AOT/AOT_stimuli/rescaled_final/1306_rv.mp4	0.0	345.37380480766296	
64	276.1328625679016	movie	1		287	62.0	2.5	/experiments/Knapen_AOT/AOT_stimuli/rescaled_final/1306_rv.mp4	0.0	346.1987702846527	2.4920077323913574
64	276.90625858306885	pulse	1	t		62.0	2.5	/experiments/Knapen_AOT/AOT_stimuli/rescaled_final/1306_rv.mp4	0.0	346.97216629981995	
64	278.50651574134827	pulse	1	t		62.0	2.5	/experiments/Knapen_AOT/AOT_stimuli/rescaled_final/1306_rv.mp4	0.0	348.57242345809937	
64	278.62487030029297	fix_post	2		12	62.0	2.5	/experiments/Knapen_AOT/AOT_stimuli/rescaled_final/1306_rv.mp4	0.0	348.69077801704407	0.10002303123474121
65	278.7248933315277	fix_pre	0		120	63.0	2.5	blank	1.0	348.7908010482788	1.0001347064971924
65	279.7250280380249	movie	1		300	63.0	2.5	blank	1.0	349.790935754776	2.5004637241363525
65	280.10867524147034	pulse	1	t		63.0	2.5	blank	1.0	350.17458295822144	
65	281.7088990211487	pulse	1	t		63.0	2.5	blank	1.0	351.7748067378998	
65	282.22549176216125	fix_post	2		12	63.0	2.5	blank	1.0	352.29139947891235	0.09998250007629395
66	282.32547426223755	fix_pre	0		119	64.0	2.5	/experiments/Knapen_AOT/AOT_stimuli/rescaled_final/1398_rv.mp4	0.0	352.39138197898865	1.0085065364837646
66	283.3092293739319	pulse	0	t		64.0	2.5	/experiments/Knapen_AOT/AOT_stimuli/rescaled_final/1398_rv.mp4	0.0	353.375137090683	
66	283.3339807987213	movie	1		288	64.0	2.5	/experiments/Knapen_AOT/AOT_stimuli/rescaled_final/1398_rv.mp4	0.0	353.3998885154724	2.491982936859131
66	284.9078652858734	pulse	1	t		64.0	2.5	/experiments/Knapen_AOT/AOT_stimuli/rescaled_final/1398_rv.mp4	0.0	354.9737730026245	
66	285.82596373558044	fix_post	2		12	64.0	2.5	/experiments/Knapen_AOT/AOT_stimuli/rescaled_final/1398_rv.mp4	0.0	355.89187145233154	0.10000777244567871
67	285.9259715080261	fix_pre	0		120	65.0	2.5	/experiments/Knapen_AOT/AOT_stimuli/rescaled_final/0232_rv.mp4	0.0	355.9918792247772	1.0084989070892334
67	286.50997829437256	pulse	0	t		65.0	2.5	/experiments/Knapen_AOT/AOT_stimuli/rescaled_final/0232_rv.mp4	0.0	356.57588601112366	
67	286.93447041511536	movie	1		283	65.0	2.5	/experiments/Knapen_AOT/AOT_stimuli/rescaled_final/0232_rv.mp4	0.0	357.00037813186646	2.4920754432678223
67	288.1092789173126	pulse	1	t		65.0	2.5	/experiments/Knapen_AOT/AOT_stimuli/rescaled_final/0232_rv.mp4	0.0	358.1751866340637	
67	289.4265458583832	fix_post	2		12	65.0	2.5	/experiments/Knapen_AOT/AOT_stimuli/rescaled_final/0232_rv.mp4	0.0	359.4924535751343	0.1000068187713623
68	289.52655267715454	fix_pre	0		120	66.0	2.5	/experiments/Knapen_AOT/AOT_stimuli/rescaled_final/1598_rv.mp4	0.0	359.59246039390564	1.0085175037384033
68	289.709997177124	pulse	0	t		66.0	2.5	/experiments/Knapen_AOT/AOT_stimuli/rescaled_final/1598_rv.mp4	0.0	359.7759048938751	
68	290.53507018089294	movie	1		278	66.0	2.5	/experiments/Knapen_AOT/AOT_stimuli/rescaled_final/1598_rv.mp4	0.0	360.60097789764404	2.491966962814331
68	291.30831265449524	pulse	1	t		66.0	2.5	/experiments/Knapen_AOT/AOT_stimuli/rescaled_final/1598_rv.mp4	0.0	361.37422037124634	
68	292.908643245697	pulse	1	t		66.0	2.5	/experiments/Knapen_AOT/AOT_stimuli/rescaled_final/1598_rv.mp4	0.0	362.9745509624481	
68	293.0270371437073	fix_post	2		12	66.0	2.5	/experiments/Knapen_AOT/AOT_stimuli/rescaled_final/1598_rv.mp4	0.0	363.0929448604584	0.1000213623046875
69	293.12705850601196	fix_pre	0		120	67.0	2.5	/experiments/Knapen_AOT/AOT_stimuli/rescaled_final/2000_fw.mp4	0.0	363.19296622276306	1.0084831714630127
69	294.135541677475	movie	1		288	67.0	2.5	/experiments/Knapen_AOT/AOT_stimuli/rescaled_final/2000_fw.mp4	0.0	364.2014493942261	2.4921224117279053
69	294.50963282585144	pulse	1	t		67.0	2.5	/experiments/Knapen_AOT/AOT_stimuli/rescaled_final/2000_fw.mp4	0.0	364.57554054260254	
69	296.1089999675751	pulse	1	t		67.0	2.5	/experiments/Knapen_AOT/AOT_stimuli/rescaled_final/2000_fw.mp4	0.0	366.1749076843262	
69	296.6276640892029	fix_post	2		12	67.0	2.5	/experiments/Knapen_AOT/AOT_stimuli/rescaled_final/2000_fw.mp4	0.0	366.693571805954	0.10003447532653809
70	296.7276985645294	fix_pre	0		119	68.0	2.5	blank	1.0	366.7936062812805	0.9916858673095703
70	297.71172881126404	pulse	0	t		68.0	2.5	blank	1.0	367.77763652801514	
70	297.719384431839	movie	1		301	68.0	2.5	blank	1.0	367.7852921485901	2.5087411403656006
70	299.31152629852295	pulse	1	t		68.0	2.5	blank	1.0	369.37743401527405	
70	300.2281255722046	fix_post	2		12	68.0	2.5	blank	1.0	370.2940332889557	0.1000363826751709
71	300.32816195487976	fix_pre	0		120	69.0	2.5	/experiments/Knapen_AOT/AOT_stimuli/rescaled_final/0906_rv.mp4	0.0	370.39406967163086	1.0084435939788818
71	300.911767244339	pulse	0	t		69.0	2.5	/experiments/Knapen_AOT/AOT_stimuli/rescaled_final/0906_rv.mp4	0.0	370.9776749610901	
71	301.33660554885864	movie	1		282	69.0	2.5	/experiments/Knapen_AOT/AOT_stimuli/rescaled_final/0906_rv.mp4	0.0	371.40251326560974	2.492121934890747
71	302.5101306438446	pulse	1	t		69.0	2.5	/experiments/Knapen_AOT/AOT_stimuli/rescaled_final/0906_rv.mp4	0.0	372.5760383605957	
71	303.8287274837494	fix_post	2		12	69.0	2.5	/experiments/Knapen_AOT/AOT_stimuli/rescaled_final/0906_rv.mp4	0.0	373.8946352005005	0.09999799728393555
72	303.9287254810333	fix_pre	0		120	70.0	2.5	/experiments/Knapen_AOT/AOT_stimuli/rescaled_final/0242_fw.mp4	0.0	373.9946331977844	1.0084497928619385
72	304.11224460601807	pulse	0	t		70.0	2.5	/experiments/Knapen_AOT/AOT_stimuli/rescaled_final/0242_fw.mp4	0.0	374.17815232276917	
72	304.93717527389526	movie	1		287	70.0	2.5	/experiments/Knapen_AOT/AOT_stimuli/rescaled_final/0242_fw.mp4	0.0	375.00308299064636	2.4920237064361572
72	305.7107710838318	pulse	1	t		70.0	2.5	/experiments/Knapen_AOT/AOT_stimuli/rescaled_final/0242_fw.mp4	0.0	375.7766788005829	
72	307.3107280731201	pulse	1	t		70.0	2.5	/experiments/Knapen_AOT/AOT_stimuli/rescaled_final/0242_fw.mp4	0.0	377.3766357898712	
72	307.4291989803314	fix_post	2		12	70.0	2.5	/experiments/Knapen_AOT/AOT_stimuli/rescaled_final/0242_fw.mp4	0.0	377.4951066970825	0.10005617141723633
73	307.52925515174866	fix_pre	0		120	71.0	2.5	/experiments/Knapen_AOT/AOT_stimuli/rescaled_final/1621_fw.mp4	0.0	377.59516286849976	1.0084824562072754
73	308.53773760795593	movie	1		286	71.0	2.5	/experiments/Knapen_AOT/AOT_stimuli/rescaled_final/1621_fw.mp4	0.0	378.60364532470703	2.4920496940612793
73	308.91130805015564	pulse	1	t		71.0	2.5	/experiments/Knapen_AOT/AOT_stimuli/rescaled_final/1621_fw.mp4	0.0	378.97721576690674	
73	310.513307094574	pulse	1	t		71.0	2.5	/experiments/Knapen_AOT/AOT_stimuli/rescaled_final/1621_fw.mp4	0.0	380.5792148113251	
73	311.0297873020172	fix_post	2		12	71.0	2.5	/experiments/Knapen_AOT/AOT_stimuli/rescaled_final/1621_fw.mp4	0.0	381.0956950187683	0.10003805160522461
74	311.12982535362244	fix_pre	0		119	72.0	2.5	/experiments/Knapen_AOT/AOT_stimuli/rescaled_final/1221_fw.mp4	0.0	381.19573307037354	1.0000953674316406
74	312.11351680755615	pulse	0	t		72.0	2.5	/experiments/Knapen_AOT/AOT_stimuli/rescaled_final/1221_fw.mp4	0.0	382.17942452430725	
74	312.1299207210541	movie	1		286	72.0	2.5	/experiments/Knapen_AOT/AOT_stimuli/rescaled_final/1221_fw.mp4	0.0	382.1958284378052	2.500366449356079
74	313.71208143234253	pulse	1	t		72.0	2.5	/experiments/Knapen_AOT/AOT_stimuli/rescaled_final/1221_fw.mp4	0.0	383.7779891490936	
74	314.63028717041016	fix_post	2		12	72.0	2.5	/experiments/Knapen_AOT/AOT_stimuli/rescaled_final/1221_fw.mp4	0.0	384.69619488716125	0.10010194778442383
75	314.7303891181946	fix_pre	0		120	73.0	2.5	/experiments/Knapen_AOT/AOT_stimuli/rescaled_final/0368_rv.mp4	0.0	384.7962968349457	1.0083966255187988
75	315.3061089515686	pulse	0	t		73.0	2.5	/experiments/Knapen_AOT/AOT_stimuli/rescaled_final/0368_rv.mp4	0.0	385.3720166683197	
75	315.7387857437134	movie	1		279	73.0	2.5	/experiments/Knapen_AOT/AOT_stimuli/rescaled_final/0368_rv.mp4	0.0	385.8046934604645	2.4920313358306885
75	316.9060308933258	pulse	1	t		73.0	2.5	/experiments/Knapen_AOT/AOT_stimuli/rescaled_final/0368_rv.mp4	0.0	386.9719386100769	
75	318.23081707954407	fix_post	2		12	73.0	2.5	/experiments/Knapen_AOT/AOT_stimuli/rescaled_final/0368_rv.mp4	0.0	388.29672479629517	0.1000821590423584
76	318.3308992385864	fix_pre	0		120	74.0	2.5	/experiments/Knapen_AOT/AOT_stimuli/rescaled_final/0502_rv.mp4	0.0	388.3968069553375	1.0084502696990967
76	318.5062630176544	pulse	0	t		74.0	2.5	/experiments/Knapen_AOT/AOT_stimuli/rescaled_final/0502_rv.mp4	0.0	388.5721707344055	
76	319.3393495082855	movie	1		280	74.0	2.5	/experiments/Knapen_AOT/AOT_stimuli/rescaled_final/0502_rv.mp4	0.0	389.4052572250366	2.500404119491577
76	320.10650277137756	pulse	1	t		74.0	2.5	/experiments/Knapen_AOT/AOT_stimuli/rescaled_final/0502_rv.mp4	0.0	390.17241048812866	
76	321.706565618515	pulse	1	t		74.0	2.5	/experiments/Knapen_AOT/AOT_stimuli/rescaled_final/0502_rv.mp4	0.0	391.7724733352661	
76	321.8397536277771	fix_post	2		11	74.0	2.5	/experiments/Knapen_AOT/AOT_stimuli/rescaled_final/0502_rv.mp4	0.0	391.9056613445282	0.09162020683288574
77	321.93137383461	fix_pre	0		120	75.0	2.5	/experiments/Knapen_AOT/AOT_stimuli/rescaled_final/0383_rv.mp4	0.0	391.9972815513611	1.0085253715515137
77	322.9398992061615	movie	1		275	75.0	2.5	/experiments/Knapen_AOT/AOT_stimuli/rescaled_final/0383_rv.mp4	0.0	393.0058069229126	2.492121934890747
77	323.3060381412506	pulse	1	t		75.0	2.5	/experiments/Knapen_AOT/AOT_stimuli/rescaled_final/0383_rv.mp4	0.0	393.3719458580017	
77	324.9071891307831	pulse	1	t		75.0	2.5	/experiments/Knapen_AOT/AOT_stimuli/rescaled_final/0383_rv.mp4	0.0	394.9730968475342	
77	325.43202114105225	fix_post	2		12	75.0	2.5	/experiments/Knapen_AOT/AOT_stimuli/rescaled_final/0383_rv.mp4	0.0	395.49792885780334	0.0999143123626709
78	325.5319354534149	fix_pre	0		115	76.0	2.5	/experiments/Knapen_AOT/AOT_stimuli/rescaled_final/1796_fw.mp4	0.0	395.597843170166	0.9918551445007324
78	326.50753593444824	pulse	0	t		76.0	2.5	/experiments/Knapen_AOT/AOT_stimuli/rescaled_final/1796_fw.mp4	0.0	396.57344365119934	
78	326.52379059791565	movie	1		271	76.0	2.5	/experiments/Knapen_AOT/AOT_stimuli/rescaled_final/1796_fw.mp4	0.0	396.58969831466675	2.5003185272216797
78	328.1061341762543	pulse	1	t		76.0	2.5	/experiments/Knapen_AOT/AOT_stimuli/rescaled_final/1796_fw.mp4	0.0	398.17204189300537	
78	329.02410912513733	fix_post	2		12	76.0	2.5	/experiments/Knapen_AOT/AOT_stimuli/rescaled_final/1796_fw.mp4	0.0	399.0900168418884	0.1000363826751709
79	329.1241455078125	fix_pre	0		120	77.0	2.5	blank	1.0	399.1900532245636	1.0001139640808105
79	329.7078423500061	pulse	0	t		77.0	2.5	blank	1.0	399.7737500667572	
79	330.1242594718933	movie	1		300	77.0	2.5	blank	1.0	400.1901671886444	2.500394582748413
79	331.30807399749756	pulse	1	t		77.0	2.5	blank	1.0	401.37398171424866	
79	332.6246540546417	fix_post	2		12	77.0	2.5	blank	1.0	402.6905617713928	0.10003042221069336
80	332.7246844768524	fix_pre	0		120	78.0	2.5	/experiments/Knapen_AOT/AOT_stimuli/rescaled_final/0558_fw.mp4	0.0	402.7905921936035	1.0084919929504395
80	332.90828561782837	pulse	0	t		78.0	2.5	/experiments/Knapen_AOT/AOT_stimuli/rescaled_final/0558_fw.mp4	0.0	402.97419333457947	
80	333.73317646980286	movie	1		277	78.0	2.5	/experiments/Knapen_AOT/AOT_stimuli/rescaled_final/0558_fw.mp4	0.0	403.79908418655396	2.4920148849487305
80	334.50692915916443	pulse	1	t		78.0	2.5	/experiments/Knapen_AOT/AOT_stimuli/rescaled_final/0558_fw.mp4	0.0	404.5728368759155	
80	336.108758687973	pulse	1	t		78.0	2.5	/experiments/Knapen_AOT/AOT_stimuli/rescaled_final/0558_fw.mp4	0.0	406.1746664047241	
80	336.2251913547516	fix_post	2		12	78.0	2.5	/experiments/Knapen_AOT/AOT_stimuli/rescaled_final/0558_fw.mp4	0.0	406.2910990715027	0.10002708435058594
81	336.3252184391022	fix_pre	0		120	79.0	2.5	/experiments/Knapen_AOT/AOT_stimuli/rescaled_final/0167_rv.mp4	0.0	406.39112615585327	1.0085279941558838
81	337.33374643325806	movie	1		279	79.0	2.5	/experiments/Knapen_AOT/AOT_stimuli/rescaled_final/0167_rv.mp4	0.0	407.39965415000916	2.491992473602295
81	337.70754075050354	pulse	1	t		79.0	2.5	/experiments/Knapen_AOT/AOT_stimuli/rescaled_final/0167_rv.mp4	0.0	407.77344846725464	
81	339.30783224105835	pulse	1	t		79.0	2.5	/experiments/Knapen_AOT/AOT_stimuli/rescaled_final/0167_rv.mp4	0.0	409.37373995780945	
81	339.82573890686035	fix_post	2		12	79.0	2.5	/experiments/Knapen_AOT/AOT_stimuli/rescaled_final/0167_rv.mp4	0.0	409.89164662361145	0.10002565383911133
82	339.92576456069946	fix_pre	0		119	80.0	2.5	/experiments/Knapen_AOT/AOT_stimuli/rescaled_final/1372_rv.mp4	0.0	409.99167227745056	1.0085361003875732
82	340.9097146987915	pulse	0	t		80.0	2.5	/experiments/Knapen_AOT/AOT_stimuli/rescaled_final/1372_rv.mp4	0.0	410.9756224155426	
82	340.93430066108704	movie	1		270	80.0	2.5	/experiments/Knapen_AOT/AOT_stimuli/rescaled_final/1372_rv.mp4	0.0	411.00020837783813	2.491976737976074
82	342.5082585811615	pulse	1	t		80.0	2.5	/experiments/Knapen_AOT/AOT_stimuli/rescaled_final/1372_rv.mp4	0.0	412.5741662979126	
82	343.4262773990631	fix_post	2		12	80.0	2.5	/experiments/Knapen_AOT/AOT_stimuli/rescaled_final/1372_rv.mp4	0.0	413.4921851158142	0.10001707077026367
83	343.5262944698334	fix_pre	0		120	81.0	2.5	/experiments/Knapen_AOT/AOT_stimuli/rescaled_final/0038_fw.mp4	0.0	413.5922021865845	1.008497953414917
83	344.1099338531494	pulse	0	t		81.0	2.5	/experiments/Knapen_AOT/AOT_stimuli/rescaled_final/0038_fw.mp4	0.0	414.1758415699005	
83	344.5347924232483	movie	1		279	81.0	2.5	/experiments/Knapen_AOT/AOT_stimuli/rescaled_final/0038_fw.mp4	0.0	414.6007001399994	2.4920644760131836
83	345.7086064815521	pulse	1	t		81.0	2.5	/experiments/Knapen_AOT/AOT_stimuli/rescaled_final/0038_fw.mp4	0.0	415.7745141983032	
83	347.0268568992615	fix_post	2		12	81.0	2.5	/experiments/Knapen_AOT/AOT_stimuli/rescaled_final/0038_fw.mp4	0.0	417.0927646160126	0.10003900527954102
84	347.126895904541	fix_pre	0		120	82.0	2.5	/experiments/Knapen_AOT/AOT_stimuli/rescaled_final/0808_rv.mp4	0.0	417.1928036212921	1.008439064025879
84	347.31064319610596	pulse	0	t		82.0	2.5	/experiments/Knapen_AOT/AOT_stimuli/rescaled_final/0808_rv.mp4	0.0	417.37655091285706	
84	348.1353349685669	movie	1		275	82.0	2.5	/experiments/Knapen_AOT/AOT_stimuli/rescaled_final/0808_rv.mp4	0.0	418.201242685318	2.4920291900634766
84	348.91086411476135	pulse	1	t		82.0	2.5	/experiments/Knapen_AOT/AOT_stimuli/rescaled_final/0808_rv.mp4	0.0	418.97677183151245	
84	350.50896310806274	pulse	1	t		82.0	2.5	/experiments/Knapen_AOT/AOT_stimuli/rescaled_final/0808_rv.mp4	0.0	420.57487082481384	
84	350.62736415863037	fix_post	2		12	82.0	2.5	/experiments/Knapen_AOT/AOT_stimuli/rescaled_final/0808_rv.mp4	0.0	420.69327187538147	0.10002517700195312
85	350.7273893356323	fix_pre	0		120	83.0	2.5	blank	1.0	420.7932970523834	1.0002121925354004
85	351.7276015281677	movie	1		299	83.0	2.5	blank	1.0	421.7935092449188	2.500284433364868
85	352.1111047267914	pulse	1	t		83.0	2.5	blank	1.0	422.1770124435425	
85	353.71133637428284	pulse	1	t		83.0	2.5	blank	1.0	423.77724409103394	
85	354.2278859615326	fix_post	2		12	83.0	2.5	blank	1.0	424.2937936782837	0.12509989738464355
87	354.35298585891724	stim	0		1712					424.41889357566833	14.268743515014648
87	355.31170988082886	pulse	0	t						425.37761759757996	
87	356.91213154792786	pulse	0	t						426.97803926467896	
87	358.5120725631714	pulse	0	t						428.5779802799225	
87	360.11233258247375	pulse	0	t						430.17824029922485	
87	361.7127387523651	pulse	0	t						431.7786464691162	
87	363.3132839202881	pulse	0	t						433.3791916370392	
87	364.9130280017853	pulse	0	t						434.9789357185364	
87	366.513236284256	pulse	0	t						436.5791440010071	
87	368.1135449409485	pulse	0	t						438.1794526576996	
