trial_nr	onset	event_type	phase	response	nr_frames	movie_index	movie_duration	movie_file	blank	onset_abs	duration
0	0.1499650478363037	stim	0		31					20.011549949645996	0.2583298683166504
0	0.40030407905578613	response	0	space						20.26188898086548	
1	0.4082949161529541	stim	0		6376					20.269879817962646	53.13355302810669
1	53.536656856536865	pulse	0	t						73.39824175834656	
1	53.541847944259644	stim	1		1717					73.40343284606934	14.308197975158691
1	55.13363194465637	pulse	1	t						74.99521684646606	
1	56.73322296142578	pulse	1	t						76.59480786323547	
1	58.333412885665894	pulse	1	t						78.19499778747559	
1	59.93363904953003	pulse	1	t						79.79522395133972	
1	61.5335259437561	pulse	1	t						81.3951108455658	
1	63.133543968200684	pulse	1	t						82.99512887001038	
1	64.73347306251526	pulse	1	t						84.59505796432495	
1	66.33346199989319	pulse	1	t						86.19504690170288	
2	67.85004591941833	fix_pre	0		11	0.0	2.5	/experiments/AOT/AOT_stimuli/rescaled_final/0788_rv.mp4	0.0	87.71163082122803	0.09159493446350098
2	67.93346405029297	pulse	0	t		0.0	2.5	/experiments/AOT/AOT_stimuli/rescaled_final/0788_rv.mp4	0.0	87.79504895210266	
2	67.94164085388184	movie	1		243	0.0	2.5	/experiments/AOT/AOT_stimuli/rescaled_final/0788_rv.mp4	0.0	87.80322575569153	2.508418083190918
2	69.5346930027008	pulse	1	t		0.0	2.5	/experiments/AOT/AOT_stimuli/rescaled_final/0788_rv.mp4	0.0	89.3962779045105	
2	70.45005893707275	fix_post	2		12	0.0	2.5	/experiments/AOT/AOT_stimuli/rescaled_final/0788_rv.mp4	0.0	90.31164383888245	0.09990406036376953
3	70.54996299743652	fix_pre	0		120	1.0	2.5	/experiments/AOT/AOT_stimuli/rescaled_final/0935_rv.mp4	0.0	90.41154789924622	1.000058889389038
3	71.1335859298706	pulse	0	t		1.0	2.5	/experiments/AOT/AOT_stimuli/rescaled_final/0935_rv.mp4	0.0	90.9951708316803	
3	71.55002188682556	movie	1		244	1.0	2.5	/experiments/AOT/AOT_stimuli/rescaled_final/0935_rv.mp4	0.0	91.41160678863525	2.500802993774414
3	72.73366904258728	pulse	1	t		1.0	2.5	/experiments/AOT/AOT_stimuli/rescaled_final/0935_rv.mp4	0.0	92.59525394439697	
3	74.05082488059998	fix_post	2		12	1.0	2.5	/experiments/AOT/AOT_stimuli/rescaled_final/0935_rv.mp4	0.0	93.91240978240967	0.09914302825927734
4	74.14996790885925	fix_pre	0		120	2.0	2.5	/experiments/AOT/AOT_stimuli/rescaled_final/0343_fw.mp4	0.0	94.01155281066895	1.0000920295715332
4	74.33354496955872	pulse	0	t		2.0	2.5	/experiments/AOT/AOT_stimuli/rescaled_final/0343_fw.mp4	0.0	94.19512987136841	
4	75.15005993843079	movie	1		243	2.0	2.5	/experiments/AOT/AOT_stimuli/rescaled_final/0343_fw.mp4	0.0	95.01164484024048	2.4999499320983887
4	75.9334819316864	pulse	1	t		2.0	2.5	/experiments/AOT/AOT_stimuli/rescaled_final/0343_fw.mp4	0.0	95.7950668334961	
4	77.53181600570679	pulse	1	t		2.0	2.5	/experiments/AOT/AOT_stimuli/rescaled_final/0343_fw.mp4	0.0	97.39340090751648	
4	77.65000987052917	fix_post	2		12	2.0	2.5	/experiments/AOT/AOT_stimuli/rescaled_final/0343_fw.mp4	0.0	97.51159477233887	0.10000920295715332
5	77.75001907348633	fix_pre	0		120	3.0	2.5	/experiments/AOT/AOT_stimuli/rescaled_final/1022_rv.mp4	0.0	97.61160397529602	1.0000348091125488
5	78.75005388259888	movie	1		243	3.0	2.5	/experiments/AOT/AOT_stimuli/rescaled_final/1022_rv.mp4	0.0	98.61163878440857	2.499464988708496
5	79.13300490379333	pulse	1	t		3.0	2.5	/experiments/AOT/AOT_stimuli/rescaled_final/1022_rv.mp4	0.0	98.99458980560303	
5	80.73346495628357	pulse	1	t		3.0	2.5	/experiments/AOT/AOT_stimuli/rescaled_final/1022_rv.mp4	0.0	100.59504985809326	
5	81.24951887130737	fix_post	2		12	3.0	2.5	/experiments/AOT/AOT_stimuli/rescaled_final/1022_rv.mp4	0.0	101.11110377311707	0.10043215751647949
6	81.34995102882385	fix_pre	0		119	4.0	2.5	/experiments/AOT/AOT_stimuli/rescaled_final/0355_fw.mp4	0.0	101.21153593063354	0.9916179180145264
6	82.33345603942871	pulse	0	t		4.0	2.5	/experiments/AOT/AOT_stimuli/rescaled_final/0355_fw.mp4	0.0	102.1950409412384	
6	82.34156894683838	movie	1		246	4.0	2.5	/experiments/AOT/AOT_stimuli/rescaled_final/0355_fw.mp4	0.0	102.20315384864807	2.508362054824829
6	83.93373584747314	pulse	1	t		4.0	2.5	/experiments/AOT/AOT_stimuli/rescaled_final/0355_fw.mp4	0.0	103.79532074928284	
6	84.84993100166321	fix_post	2		12	4.0	2.5	/experiments/AOT/AOT_stimuli/rescaled_final/0355_fw.mp4	0.0	104.7115159034729	0.09997105598449707
7	84.9499020576477	fix_pre	0		120	5.0	2.5	blank	1.0	104.8114869594574	0.999640941619873
7	85.5334460735321	pulse	0	t		5.0	2.5	blank	1.0	105.3950309753418	
7	85.94954299926758	movie	1		300	5.0	2.5	blank	1.0	105.81112790107727	2.5003819465637207
7	87.1335039138794	pulse	1	t		5.0	2.5	blank	1.0	106.99508881568909	
7	88.4499249458313	fix_post	2		12	5.0	2.5	blank	1.0	108.31150984764099	0.0999910831451416
8	88.54991602897644	fix_pre	0		120	6.0	2.5	/experiments/AOT/AOT_stimuli/rescaled_final/0558_fw.mp4	0.0	108.41150093078613	0.9999599456787109
8	88.7334349155426	pulse	0	t		6.0	2.5	/experiments/AOT/AOT_stimuli/rescaled_final/0558_fw.mp4	0.0	108.5950198173523	
8	89.54987597465515	movie	1		243	6.0	2.5	/experiments/AOT/AOT_stimuli/rescaled_final/0558_fw.mp4	0.0	109.41146087646484	2.499572992324829
8	90.33342504501343	pulse	1	t		6.0	2.5	/experiments/AOT/AOT_stimuli/rescaled_final/0558_fw.mp4	0.0	110.19500994682312	
8	91.931804895401	pulse	1	t		6.0	2.5	/experiments/AOT/AOT_stimuli/rescaled_final/0558_fw.mp4	0.0	111.7933897972107	
8	92.04944896697998	fix_post	2		12	6.0	2.5	/experiments/AOT/AOT_stimuli/rescaled_final/0558_fw.mp4	0.0	111.91103386878967	0.10039901733398438
9	92.14984798431396	fix_pre	0		120	7.0	2.5	/experiments/AOT/AOT_stimuli/rescaled_final/2099_fw.mp4	0.0	112.01143288612366	0.999985933303833
9	93.1498339176178	movie	1		245	7.0	2.5	/experiments/AOT/AOT_stimuli/rescaled_final/2099_fw.mp4	0.0	113.01141881942749	2.499998092651367
9	93.53479385375977	pulse	1	t		7.0	2.5	/experiments/AOT/AOT_stimuli/rescaled_final/2099_fw.mp4	0.0	113.39637875556946	
9	95.13343286514282	pulse	1	t		7.0	2.5	/experiments/AOT/AOT_stimuli/rescaled_final/2099_fw.mp4	0.0	114.99501776695251	
9	95.64983201026917	fix_post	2		12	7.0	2.5	/experiments/AOT/AOT_stimuli/rescaled_final/2099_fw.mp4	0.0	115.51141691207886	0.10011792182922363
10	95.74994993209839	fix_pre	0		119	8.0	2.5	/experiments/AOT/AOT_stimuli/rescaled_final/1399_rv.mp4	0.0	115.61153483390808	0.9916379451751709
10	96.73348689079285	pulse	0	t		8.0	2.5	/experiments/AOT/AOT_stimuli/rescaled_final/1399_rv.mp4	0.0	116.59507179260254	
10	96.74158787727356	movie	1		247	8.0	2.5	/experiments/AOT/AOT_stimuli/rescaled_final/1399_rv.mp4	0.0	116.60317277908325	2.5083720684051514
10	98.33306503295898	pulse	1	t		8.0	2.5	/experiments/AOT/AOT_stimuli/rescaled_final/1399_rv.mp4	0.0	118.19464993476868	
10	99.24995994567871	fix_post	2		12	8.0	2.5	/experiments/AOT/AOT_stimuli/rescaled_final/1399_rv.mp4	0.0	119.1115448474884	0.09987401962280273
11	99.34983396530151	fix_pre	0		120	9.0	2.5	/experiments/AOT/AOT_stimuli/rescaled_final/1906_rv.mp4	0.0	119.2114188671112	1.0000910758972168
11	99.93344306945801	pulse	0	t		9.0	2.5	/experiments/AOT/AOT_stimuli/rescaled_final/1906_rv.mp4	0.0	119.7950279712677	
11	100.34992504119873	movie	1		247	9.0	2.5	/experiments/AOT/AOT_stimuli/rescaled_final/1906_rv.mp4	0.0	120.21150994300842	2.499523878097534
11	101.53349494934082	pulse	1	t		9.0	2.5	/experiments/AOT/AOT_stimuli/rescaled_final/1906_rv.mp4	0.0	121.39507985115051	
11	102.84944891929626	fix_post	2		12	9.0	2.5	/experiments/AOT/AOT_stimuli/rescaled_final/1906_rv.mp4	0.0	122.71103382110596	0.10041499137878418
12	102.94986391067505	fix_pre	0		120	10.0	2.5	/experiments/AOT/AOT_stimuli/rescaled_final/1545_fw.mp4	0.0	122.81144881248474	0.999953031539917
12	103.13342785835266	pulse	0	t		10.0	2.5	/experiments/AOT/AOT_stimuli/rescaled_final/1545_fw.mp4	0.0	122.99501276016235	
12	103.94981694221497	movie	1		243	10.0	2.5	/experiments/AOT/AOT_stimuli/rescaled_final/1545_fw.mp4	0.0	123.81140184402466	2.5000250339508057
12	104.73341989517212	pulse	1	t		10.0	2.5	/experiments/AOT/AOT_stimuli/rescaled_final/1545_fw.mp4	0.0	124.59500479698181	
12	106.33178901672363	pulse	1	t		10.0	2.5	/experiments/AOT/AOT_stimuli/rescaled_final/1545_fw.mp4	0.0	126.19337391853333	
12	106.44984197616577	fix_post	2		12	10.0	2.5	/experiments/AOT/AOT_stimuli/rescaled_final/1545_fw.mp4	0.0	126.31142687797546	0.09996891021728516
13	106.54981088638306	fix_pre	0		120	11.0	2.5	/experiments/AOT/AOT_stimuli/rescaled_final/2116_fw.mp4	0.0	126.41139578819275	1.0000500679016113
13	107.54986095428467	movie	1		244	11.0	2.5	/experiments/AOT/AOT_stimuli/rescaled_final/2116_fw.mp4	0.0	127.41144585609436	2.4999420642852783
13	107.93292498588562	pulse	1	t		11.0	2.5	/experiments/AOT/AOT_stimuli/rescaled_final/2116_fw.mp4	0.0	127.79450988769531	
13	109.53337693214417	pulse	1	t		11.0	2.5	/experiments/AOT/AOT_stimuli/rescaled_final/2116_fw.mp4	0.0	129.39496183395386	
13	110.04980301856995	fix_post	2		12	11.0	2.5	/experiments/AOT/AOT_stimuli/rescaled_final/2116_fw.mp4	0.0	129.91138792037964	0.10004305839538574
14	110.14984607696533	fix_pre	0		119	12.0	2.5	blank	1.0	130.01143097877502	0.9912219047546387
14	111.1334810256958	pulse	0	t		12.0	2.5	blank	1.0	130.9950659275055	
14	111.14106798171997	movie	1		301	12.0	2.5	blank	1.0	131.00265288352966	2.5085549354553223
14	112.73345184326172	pulse	1	t		12.0	2.5	blank	1.0	132.5950367450714	
14	113.6496229171753	fix_post	2		12	12.0	2.5	blank	1.0	133.51120781898499	0.10042715072631836
15	113.75005006790161	fix_pre	0		120	13.0	2.5	/experiments/AOT/AOT_stimuli/rescaled_final/1957_fw.mp4	0.0	133.6116349697113	0.9998228549957275
15	114.33321404457092	pulse	0	t		13.0	2.5	/experiments/AOT/AOT_stimuli/rescaled_final/1957_fw.mp4	0.0	134.19479894638062	
15	114.74987292289734	movie	1		245	13.0	2.5	/experiments/AOT/AOT_stimuli/rescaled_final/1957_fw.mp4	0.0	134.61145782470703	2.4994709491729736
15	115.93336987495422	pulse	1	t		13.0	2.5	/experiments/AOT/AOT_stimuli/rescaled_final/1957_fw.mp4	0.0	135.79495477676392	
15	117.24934387207031	fix_post	2		12	13.0	2.5	/experiments/AOT/AOT_stimuli/rescaled_final/1957_fw.mp4	0.0	137.11092877388	0.10048413276672363
16	117.34982800483704	fix_pre	0		120	14.0	2.5	/experiments/AOT/AOT_stimuli/rescaled_final/0859_fw.mp4	0.0	137.21141290664673	0.9999539852142334
16	117.5333080291748	pulse	0	t		14.0	2.5	/experiments/AOT/AOT_stimuli/rescaled_final/0859_fw.mp4	0.0	137.3948929309845	
16	118.34978199005127	movie	1		244	14.0	2.5	/experiments/AOT/AOT_stimuli/rescaled_final/0859_fw.mp4	0.0	138.21136689186096	2.4995970726013184
16	119.13319802284241	pulse	1	t		14.0	2.5	/experiments/AOT/AOT_stimuli/rescaled_final/0859_fw.mp4	0.0	138.9947829246521	
16	120.73173093795776	pulse	1	t		14.0	2.5	/experiments/AOT/AOT_stimuli/rescaled_final/0859_fw.mp4	0.0	140.59331583976746	
16	120.84937906265259	fix_post	2		12	14.0	2.5	/experiments/AOT/AOT_stimuli/rescaled_final/0859_fw.mp4	0.0	140.71096396446228	0.10034990310668945
17	120.94972896575928	fix_pre	0		120	15.0	2.5	/experiments/AOT/AOT_stimuli/rescaled_final/1924_rv.mp4	0.0	140.81131386756897	1.000058889389038
17	121.94978785514832	movie	1		245	15.0	2.5	/experiments/AOT/AOT_stimuli/rescaled_final/1924_rv.mp4	0.0	141.811372756958	2.499955177307129
17	122.33268189430237	pulse	1	t		15.0	2.5	/experiments/AOT/AOT_stimuli/rescaled_final/1924_rv.mp4	0.0	142.19426679611206	
17	123.93316984176636	pulse	1	t		15.0	2.5	/experiments/AOT/AOT_stimuli/rescaled_final/1924_rv.mp4	0.0	143.79475474357605	
17	124.44974303245544	fix_post	2		12	15.0	2.5	/experiments/AOT/AOT_stimuli/rescaled_final/1924_rv.mp4	0.0	144.31132793426514	0.10003185272216797
18	124.54977488517761	fix_pre	0		119	16.0	2.5	/experiments/AOT/AOT_stimuli/rescaled_final/1674_rv.mp4	0.0	144.4113597869873	0.9916729927062988
18	125.5332338809967	pulse	0	t		16.0	2.5	/experiments/AOT/AOT_stimuli/rescaled_final/1674_rv.mp4	0.0	145.3948187828064	
18	125.54144787788391	movie	1		244	16.0	2.5	/experiments/AOT/AOT_stimuli/rescaled_final/1674_rv.mp4	0.0	145.4030327796936	2.508486032485962
18	127.13274788856506	pulse	1	t		16.0	2.5	/experiments/AOT/AOT_stimuli/rescaled_final/1674_rv.mp4	0.0	146.99433279037476	
18	128.04993391036987	fix_post	2		12	16.0	2.5	/experiments/AOT/AOT_stimuli/rescaled_final/1674_rv.mp4	0.0	147.91151881217957	0.09983301162719727
19	128.14976692199707	fix_pre	0		120	17.0	2.5	/experiments/AOT/AOT_stimuli/rescaled_final/2157_rv.mp4	0.0	148.01135182380676	1.0000200271606445
19	128.733216047287	pulse	0	t		17.0	2.5	/experiments/AOT/AOT_stimuli/rescaled_final/2157_rv.mp4	0.0	148.59480094909668	
19	129.14978694915771	movie	1		243	17.0	2.5	/experiments/AOT/AOT_stimuli/rescaled_final/2157_rv.mp4	0.0	149.0113718509674	2.4999470710754395
19	130.3333170413971	pulse	1	t		17.0	2.5	/experiments/AOT/AOT_stimuli/rescaled_final/2157_rv.mp4	0.0	150.1949019432068	
19	131.64973402023315	fix_post	2		12	17.0	2.5	/experiments/AOT/AOT_stimuli/rescaled_final/2157_rv.mp4	0.0	151.51131892204285	0.09998202323913574
20	131.7497160434723	fix_pre	0		120	18.0	2.5	/experiments/AOT/AOT_stimuli/rescaled_final/1385_fw.mp4	0.0	151.61130094528198	1.000108003616333
20	131.93323802947998	pulse	0	t		18.0	2.5	/experiments/AOT/AOT_stimuli/rescaled_final/1385_fw.mp4	0.0	151.79482293128967	
20	132.74982404708862	movie	1		243	18.0	2.5	/experiments/AOT/AOT_stimuli/rescaled_final/1385_fw.mp4	0.0	152.61140894889832	2.499897003173828
20	133.53319907188416	pulse	1	t		18.0	2.5	/experiments/AOT/AOT_stimuli/rescaled_final/1385_fw.mp4	0.0	153.39478397369385	
20	135.13178086280823	pulse	1	t		18.0	2.5	/experiments/AOT/AOT_stimuli/rescaled_final/1385_fw.mp4	0.0	154.99336576461792	
20	135.24972105026245	fix_post	2		12	18.0	2.5	/experiments/AOT/AOT_stimuli/rescaled_final/1385_fw.mp4	0.0	155.11130595207214	0.0999758243560791
21	135.34969687461853	fix_pre	0		120	19.0	2.5	/experiments/AOT/AOT_stimuli/rescaled_final/0815_rv.mp4	0.0	155.21128177642822	1.0001041889190674
21	136.3498010635376	movie	1		241	19.0	2.5	/experiments/AOT/AOT_stimuli/rescaled_final/0815_rv.mp4	0.0	156.2113859653473	2.4999969005584717
21	136.734365940094	pulse	1	t		19.0	2.5	/experiments/AOT/AOT_stimuli/rescaled_final/0815_rv.mp4	0.0	156.5959508419037	
21	138.3331959247589	pulse	1	t		19.0	2.5	/experiments/AOT/AOT_stimuli/rescaled_final/0815_rv.mp4	0.0	158.1947808265686	
21	138.84979796409607	fix_post	2		12	19.0	2.5	/experiments/AOT/AOT_stimuli/rescaled_final/0815_rv.mp4	0.0	158.71138286590576	0.09990191459655762
22	138.94969987869263	fix_pre	0		119	20.0	2.5	blank	1.0	158.81128478050232	0.9916291236877441
22	139.93322205543518	pulse	0	t		20.0	2.5	blank	1.0	159.79480695724487	
22	139.94132900238037	movie	1		301	20.0	2.5	blank	1.0	159.80291390419006	2.5083470344543457
22	141.53318190574646	pulse	1	t		20.0	2.5	blank	1.0	161.39476680755615	
22	142.44967603683472	fix_post	2		12	20.0	2.5	blank	1.0	162.3112609386444	0.09964990615844727
23	142.54932594299316	fix_pre	0		120	21.0	2.5	/experiments/AOT/AOT_stimuli/rescaled_final/1745_fw.mp4	0.0	162.41091084480286	1.0003540515899658
23	143.13321185112	pulse	0	t		21.0	2.5	/experiments/AOT/AOT_stimuli/rescaled_final/1745_fw.mp4	0.0	162.9947967529297	
23	143.54967999458313	movie	1		244	21.0	2.5	/experiments/AOT/AOT_stimuli/rescaled_final/1745_fw.mp4	0.0	163.41126489639282	2.4998910427093506
23	144.73322892189026	pulse	1	t		21.0	2.5	/experiments/AOT/AOT_stimuli/rescaled_final/1745_fw.mp4	0.0	164.59481382369995	
23	146.04957103729248	fix_post	2		12	21.0	2.5	/experiments/AOT/AOT_stimuli/rescaled_final/1745_fw.mp4	0.0	165.91115593910217	0.10001301765441895
24	146.1495840549469	fix_pre	0		120	22.0	2.5	/experiments/AOT/AOT_stimuli/rescaled_final/0022_fw.mp4	0.0	166.0111689567566	1.0001859664916992
24	146.33314085006714	pulse	0	t		22.0	2.5	/experiments/AOT/AOT_stimuli/rescaled_final/0022_fw.mp4	0.0	166.19472575187683	
24	147.1497700214386	movie	1		248	22.0	2.5	/experiments/AOT/AOT_stimuli/rescaled_final/0022_fw.mp4	0.0	167.0113549232483	2.4998810291290283
24	147.93312191963196	pulse	1	t		22.0	2.5	/experiments/AOT/AOT_stimuli/rescaled_final/0022_fw.mp4	0.0	167.79470682144165	
24	149.53325295448303	pulse	1	t		22.0	2.5	/experiments/AOT/AOT_stimuli/rescaled_final/0022_fw.mp4	0.0	169.39483785629272	
24	149.64965105056763	fix_post	2		12	22.0	2.5	/experiments/AOT/AOT_stimuli/rescaled_final/0022_fw.mp4	0.0	169.51123595237732	0.10005784034729004
25	149.74970889091492	fix_pre	0		120	23.0	2.5	/experiments/AOT/AOT_stimuli/rescaled_final/0559_fw.mp4	0.0	169.6112937927246	0.9998979568481445
25	150.74960684776306	movie	1		244	23.0	2.5	/experiments/AOT/AOT_stimuli/rescaled_final/0559_fw.mp4	0.0	170.61119174957275	2.4995779991149902
25	151.13253593444824	pulse	1	t		23.0	2.5	/experiments/AOT/AOT_stimuli/rescaled_final/0559_fw.mp4	0.0	170.99412083625793	
25	152.73312902450562	pulse	1	t		23.0	2.5	/experiments/AOT/AOT_stimuli/rescaled_final/0559_fw.mp4	0.0	172.5947139263153	
25	153.24918484687805	fix_post	2		12	23.0	2.5	/experiments/AOT/AOT_stimuli/rescaled_final/0559_fw.mp4	0.0	173.11076974868774	0.10044002532958984
26	153.34962487220764	fix_pre	0		119	24.0	2.5	/experiments/AOT/AOT_stimuli/rescaled_final/0749_rv.mp4	0.0	173.21120977401733	0.9916181564331055
26	154.33313298225403	pulse	0	t		24.0	2.5	/experiments/AOT/AOT_stimuli/rescaled_final/0749_rv.mp4	0.0	174.19471788406372	
26	154.34124302864075	movie	1		245	24.0	2.5	/experiments/AOT/AOT_stimuli/rescaled_final/0749_rv.mp4	0.0	174.20282793045044	2.508298873901367
26	155.93276286125183	pulse	1	t		24.0	2.5	/experiments/AOT/AOT_stimuli/rescaled_final/0749_rv.mp4	0.0	175.79434776306152	
26	156.84954190254211	fix_post	2		12	24.0	2.5	/experiments/AOT/AOT_stimuli/rescaled_final/0749_rv.mp4	0.0	176.7111268043518	0.10004615783691406
27	156.94958806037903	fix_pre	0		120	25.0	2.5	/experiments/AOT/AOT_stimuli/rescaled_final/0788_rv.mp4	0.0	176.81117296218872	0.9999828338623047
27	157.53310704231262	pulse	0	t		25.0	2.5	/experiments/AOT/AOT_stimuli/rescaled_final/0788_rv.mp4	0.0	177.39469194412231	
27	157.94957089424133	movie	1		244	25.0	2.5	/experiments/AOT/AOT_stimuli/rescaled_final/0788_rv.mp4	0.0	177.81115579605103	2.500051975250244
27	159.13313698768616	pulse	1	t		25.0	2.5	/experiments/AOT/AOT_stimuli/rescaled_final/0788_rv.mp4	0.0	178.99472188949585	
27	160.44962286949158	fix_post	2		12	25.0	2.5	/experiments/AOT/AOT_stimuli/rescaled_final/0788_rv.mp4	0.0	180.31120777130127	0.09997701644897461
28	160.54959988594055	fix_pre	0		120	26.0	2.5	blank	1.0	180.41118478775024	1.000028133392334
28	160.7331039905548	pulse	0	t		26.0	2.5	blank	1.0	180.5946888923645	
28	161.54962801933289	movie	1		300	26.0	2.5	blank	1.0	181.41121292114258	2.499933958053589
28	162.3330819606781	pulse	1	t		26.0	2.5	blank	1.0	182.1946668624878	
28	163.93317699432373	pulse	1	t		26.0	2.5	blank	1.0	183.79476189613342	
28	164.04956197738647	fix_post	2		12	26.0	2.5	blank	1.0	183.91114687919617	0.09999489784240723
29	164.14955687522888	fix_pre	0		120	27.0	2.5	/experiments/AOT/AOT_stimuli/rescaled_final/0745_fw.mp4	0.0	184.01114177703857	1.0000641345977783
29	165.14962100982666	movie	1		247	27.0	2.5	/experiments/AOT/AOT_stimuli/rescaled_final/0745_fw.mp4	0.0	185.01120591163635	2.499937057495117
29	165.53256797790527	pulse	1	t		27.0	2.5	/experiments/AOT/AOT_stimuli/rescaled_final/0745_fw.mp4	0.0	185.39415287971497	
29	167.13258695602417	pulse	1	t		27.0	2.5	/experiments/AOT/AOT_stimuli/rescaled_final/0745_fw.mp4	0.0	186.99417185783386	
29	167.64955806732178	fix_post	2		12	27.0	2.5	/experiments/AOT/AOT_stimuli/rescaled_final/0745_fw.mp4	0.0	187.51114296913147	0.09962582588195801
30	167.74918389320374	fix_pre	0		119	28.0	2.5	/experiments/AOT/AOT_stimuli/rescaled_final/0221_rv.mp4	0.0	187.61076879501343	0.9921121597290039
30	168.7331919670105	pulse	0	t		28.0	2.5	/experiments/AOT/AOT_stimuli/rescaled_final/0221_rv.mp4	0.0	188.5947768688202	
30	168.74129605293274	movie	1		246	28.0	2.5	/experiments/AOT/AOT_stimuli/rescaled_final/0221_rv.mp4	0.0	188.60288095474243	2.507814884185791
30	170.33263397216797	pulse	1	t		28.0	2.5	/experiments/AOT/AOT_stimuli/rescaled_final/0221_rv.mp4	0.0	190.19421887397766	
30	171.24911093711853	fix_post	2		12	28.0	2.5	/experiments/AOT/AOT_stimuli/rescaled_final/0221_rv.mp4	0.0	191.11069583892822	0.10044312477111816
31	171.34955406188965	fix_pre	0		120	29.0	2.5	/experiments/AOT/AOT_stimuli/rescaled_final/0860_rv.mp4	0.0	191.21113896369934	0.9999229907989502
31	171.93304586410522	pulse	0	t		29.0	2.5	/experiments/AOT/AOT_stimuli/rescaled_final/0860_rv.mp4	0.0	191.79463076591492	
31	172.3494770526886	movie	1		245	29.0	2.5	/experiments/AOT/AOT_stimuli/rescaled_final/0860_rv.mp4	0.0	192.2110619544983	2.500037908554077
31	173.5330970287323	pulse	1	t		29.0	2.5	/experiments/AOT/AOT_stimuli/rescaled_final/0860_rv.mp4	0.0	193.394681930542	
31	174.84951496124268	fix_post	2		12	29.0	2.5	/experiments/AOT/AOT_stimuli/rescaled_final/0860_rv.mp4	0.0	194.71109986305237	0.0999610424041748
32	174.94947600364685	fix_pre	0		120	30.0	2.5	/experiments/AOT/AOT_stimuli/rescaled_final/1022_fw.mp4	0.0	194.81106090545654	1.0000338554382324
32	175.13291096687317	pulse	0	t		30.0	2.5	/experiments/AOT/AOT_stimuli/rescaled_final/1022_fw.mp4	0.0	194.99449586868286	
32	175.94950985908508	movie	1		244	30.0	2.5	/experiments/AOT/AOT_stimuli/rescaled_final/1022_fw.mp4	0.0	195.81109476089478	2.4999091625213623
32	176.73295903205872	pulse	1	t		30.0	2.5	/experiments/AOT/AOT_stimuli/rescaled_final/1022_fw.mp4	0.0	196.5945439338684	
32	178.33190393447876	pulse	1	t		30.0	2.5	/experiments/AOT/AOT_stimuli/rescaled_final/1022_fw.mp4	0.0	198.19348883628845	
32	178.44941902160645	fix_post	2		12	30.0	2.5	/experiments/AOT/AOT_stimuli/rescaled_final/1022_fw.mp4	0.0	198.31100392341614	0.10004401206970215
33	178.54946303367615	fix_pre	0		120	31.0	2.5	/experiments/AOT/AOT_stimuli/rescaled_final/1327_rv.mp4	0.0	198.41104793548584	0.9995949268341064
33	179.54905796051025	movie	1		242	31.0	2.5	/experiments/AOT/AOT_stimuli/rescaled_final/1327_rv.mp4	0.0	199.41064286231995	2.5005059242248535
33	179.93241596221924	pulse	1	t		31.0	2.5	/experiments/AOT/AOT_stimuli/rescaled_final/1327_rv.mp4	0.0	199.79400086402893	
33	181.53294801712036	pulse	1	t		31.0	2.5	/experiments/AOT/AOT_stimuli/rescaled_final/1327_rv.mp4	0.0	201.39453291893005	
33	182.0495638847351	fix_post	2		12	31.0	2.5	/experiments/AOT/AOT_stimuli/rescaled_final/1327_rv.mp4	0.0	201.9111487865448	0.09987902641296387
34	182.14944291114807	fix_pre	0		119	32.0	2.5	/experiments/AOT/AOT_stimuli/rescaled_final/1292_fw.mp4	0.0	202.01102781295776	0.9916720390319824
34	183.132915019989	pulse	0	t		32.0	2.5	/experiments/AOT/AOT_stimuli/rescaled_final/1292_fw.mp4	0.0	202.9944999217987	
34	183.14111495018005	movie	1		245	32.0	2.5	/experiments/AOT/AOT_stimuli/rescaled_final/1292_fw.mp4	0.0	203.00269985198975	2.5083019733428955
34	184.73253989219666	pulse	1	t		32.0	2.5	/experiments/AOT/AOT_stimuli/rescaled_final/1292_fw.mp4	0.0	204.59412479400635	
34	185.64941692352295	fix_post	2		12	32.0	2.5	/experiments/AOT/AOT_stimuli/rescaled_final/1292_fw.mp4	0.0	205.51100182533264	0.10006594657897949
35	185.74948287010193	fix_pre	0		120	33.0	2.5	blank	1.0	205.61106777191162	0.9999611377716064
35	186.33289289474487	pulse	0	t		33.0	2.5	blank	1.0	206.19447779655457	
35	186.74944400787354	movie	1		300	33.0	2.5	blank	1.0	206.61102890968323	2.500030994415283
35	187.93287897109985	pulse	1	t		33.0	2.5	blank	1.0	207.79446387290955	
35	189.24947500228882	fix_post	2		12	33.0	2.5	blank	1.0	209.1110599040985	0.09992098808288574
36	189.3493959903717	fix_pre	0		120	34.0	2.5	/experiments/AOT/AOT_stimuli/rescaled_final/1343_rv.mp4	0.0	209.2109808921814	1.0000190734863281
36	189.53297805786133	pulse	0	t		34.0	2.5	/experiments/AOT/AOT_stimuli/rescaled_final/1343_rv.mp4	0.0	209.39456295967102	
36	190.34941506385803	movie	1		244	34.0	2.5	/experiments/AOT/AOT_stimuli/rescaled_final/1343_rv.mp4	0.0	210.21099996566772	2.4999749660491943
36	191.1329288482666	pulse	1	t		34.0	2.5	/experiments/AOT/AOT_stimuli/rescaled_final/1343_rv.mp4	0.0	210.9945137500763	
36	192.7314169406891	pulse	1	t		34.0	2.5	/experiments/AOT/AOT_stimuli/rescaled_final/1343_rv.mp4	0.0	212.59300184249878	
36	192.84939002990723	fix_post	2		12	34.0	2.5	/experiments/AOT/AOT_stimuli/rescaled_final/1343_rv.mp4	0.0	212.71097493171692	0.09998583793640137
37	192.94937586784363	fix_pre	0		120	35.0	2.5	/experiments/AOT/AOT_stimuli/rescaled_final/1477_fw.mp4	0.0	212.81096076965332	0.9999911785125732
37	193.9493670463562	movie	1		244	35.0	2.5	/experiments/AOT/AOT_stimuli/rescaled_final/1477_fw.mp4	0.0	213.8109519481659	2.500048875808716
37	194.33250498771667	pulse	1	t		35.0	2.5	/experiments/AOT/AOT_stimuli/rescaled_final/1477_fw.mp4	0.0	214.19408988952637	
37	195.9328739643097	pulse	1	t		35.0	2.5	/experiments/AOT/AOT_stimuli/rescaled_final/1477_fw.mp4	0.0	215.79445886611938	
37	196.44941592216492	fix_post	2		12	35.0	2.5	/experiments/AOT/AOT_stimuli/rescaled_final/1477_fw.mp4	0.0	216.3110008239746	0.10002994537353516
38	196.54944586753845	fix_pre	0		119	36.0	2.5	/experiments/AOT/AOT_stimuli/rescaled_final/0953_fw.mp4	0.0	216.41103076934814	0.9915790557861328
38	197.53293204307556	pulse	0	t		36.0	2.5	/experiments/AOT/AOT_stimuli/rescaled_final/0953_fw.mp4	0.0	217.39451694488525	
38	197.54102492332458	movie	1		244	36.0	2.5	/experiments/AOT/AOT_stimuli/rescaled_final/0953_fw.mp4	0.0	217.40260982513428	2.5083961486816406
38	199.13257098197937	pulse	1	t		36.0	2.5	/experiments/AOT/AOT_stimuli/rescaled_final/0953_fw.mp4	0.0	218.99415588378906	
38	200.04942107200623	fix_post	2		12	36.0	2.5	/experiments/AOT/AOT_stimuli/rescaled_final/0953_fw.mp4	0.0	219.91100597381592	0.1000058650970459
39	200.14942693710327	fix_pre	0		120	37.0	2.5	/experiments/AOT/AOT_stimuli/rescaled_final/1125_rv.mp4	0.0	220.01101183891296	0.9999611377716064
39	200.7328748703003	pulse	0	t		37.0	2.5	/experiments/AOT/AOT_stimuli/rescaled_final/1125_rv.mp4	0.0	220.59445977210999	
39	201.14938807487488	movie	1		244	37.0	2.5	/experiments/AOT/AOT_stimuli/rescaled_final/1125_rv.mp4	0.0	221.01097297668457	2.4995858669281006
39	202.33296704292297	pulse	1	t		37.0	2.5	/experiments/AOT/AOT_stimuli/rescaled_final/1125_rv.mp4	0.0	222.19455194473267	
39	203.64897394180298	fix_post	2		12	37.0	2.5	/experiments/AOT/AOT_stimuli/rescaled_final/1125_rv.mp4	0.0	223.51055884361267	0.10037994384765625
40	203.74935388565063	fix_pre	0		120	38.0	2.5	/experiments/AOT/AOT_stimuli/rescaled_final/0221_fw.mp4	0.0	223.61093878746033	0.9999661445617676
40	203.9329149723053	pulse	0	t		38.0	2.5	/experiments/AOT/AOT_stimuli/rescaled_final/0221_fw.mp4	0.0	223.794499874115	
40	204.7493200302124	movie	1		243	38.0	2.5	/experiments/AOT/AOT_stimuli/rescaled_final/0221_fw.mp4	0.0	224.6109049320221	2.5000648498535156
40	205.53285193443298	pulse	1	t		38.0	2.5	/experiments/AOT/AOT_stimuli/rescaled_final/0221_fw.mp4	0.0	225.39443683624268	
40	207.13132405281067	pulse	1	t		38.0	2.5	/experiments/AOT/AOT_stimuli/rescaled_final/0221_fw.mp4	0.0	226.99290895462036	
40	207.24938488006592	fix_post	2		12	38.0	2.5	/experiments/AOT/AOT_stimuli/rescaled_final/0221_fw.mp4	0.0	227.1109697818756	0.10001301765441895
41	207.34939789772034	fix_pre	0		120	39.0	2.5	/experiments/AOT/AOT_stimuli/rescaled_final/1044_fw.mp4	0.0	227.21098279953003	0.9998459815979004
41	208.34924387931824	movie	1		245	39.0	2.5	/experiments/AOT/AOT_stimuli/rescaled_final/1044_fw.mp4	0.0	228.21082878112793	2.500020980834961
41	208.7337830066681	pulse	1	t		39.0	2.5	/experiments/AOT/AOT_stimuli/rescaled_final/1044_fw.mp4	0.0	228.59536790847778	
41	210.33280086517334	pulse	1	t		39.0	2.5	/experiments/AOT/AOT_stimuli/rescaled_final/1044_fw.mp4	0.0	230.19438576698303	
41	210.8492648601532	fix_post	2		12	39.0	2.5	/experiments/AOT/AOT_stimuli/rescaled_final/1044_fw.mp4	0.0	230.7108497619629	0.10002017021179199
42	210.949285030365	fix_pre	0		119	40.0	2.5	/experiments/AOT/AOT_stimuli/rescaled_final/0984_fw.mp4	0.0	230.81086993217468	0.9917030334472656
42	211.93284487724304	pulse	0	t		40.0	2.5	/experiments/AOT/AOT_stimuli/rescaled_final/0984_fw.mp4	0.0	231.79442977905273	
42	211.94098806381226	movie	1		246	40.0	2.5	/experiments/AOT/AOT_stimuli/rescaled_final/0984_fw.mp4	0.0	231.80257296562195	2.508251905441284
42	213.53245997428894	pulse	1	t		40.0	2.5	/experiments/AOT/AOT_stimuli/rescaled_final/0984_fw.mp4	0.0	233.39404487609863	
42	214.44923996925354	fix_post	2		12	40.0	2.5	/experiments/AOT/AOT_stimuli/rescaled_final/0984_fw.mp4	0.0	234.31082487106323	0.0999898910522461
43	214.5492298603058	fix_pre	0		120	41.0	2.5	/experiments/AOT/AOT_stimuli/rescaled_final/0244_rv.mp4	0.0	234.41081476211548	1.000063180923462
43	215.1328399181366	pulse	0	t		41.0	2.5	/experiments/AOT/AOT_stimuli/rescaled_final/0244_rv.mp4	0.0	234.9944248199463	
43	215.54929304122925	movie	1		245	41.0	2.5	/experiments/AOT/AOT_stimuli/rescaled_final/0244_rv.mp4	0.0	235.41087794303894	2.500001907348633
43	216.7328760623932	pulse	1	t		41.0	2.5	/experiments/AOT/AOT_stimuli/rescaled_final/0244_rv.mp4	0.0	236.59446096420288	
43	218.04929494857788	fix_post	2		12	41.0	2.5	/experiments/AOT/AOT_stimuli/rescaled_final/0244_rv.mp4	0.0	237.91087985038757	0.10008811950683594
44	218.14938306808472	fix_pre	0		120	42.0	2.5	blank	1.0	238.0109679698944	0.999931812286377
44	218.33286094665527	pulse	0	t		42.0	2.5	blank	1.0	238.19444584846497	
44	219.1493148803711	movie	1		300	42.0	2.5	blank	1.0	239.0108997821808	2.5000109672546387
44	219.9328989982605	pulse	1	t		42.0	2.5	blank	1.0	239.7944839000702	
44	221.5327708721161	pulse	1	t		42.0	2.5	blank	1.0	241.39435577392578	
44	221.64932584762573	fix_post	2		12	42.0	2.5	blank	1.0	241.51091074943542	0.0999290943145752
45	221.7492549419403	fix_pre	0		120	43.0	2.5	/experiments/AOT/AOT_stimuli/rescaled_final/1125_fw.mp4	0.0	241.61083984375	0.9996769428253174
45	222.74893188476562	movie	1		244	43.0	2.5	/experiments/AOT/AOT_stimuli/rescaled_final/1125_fw.mp4	0.0	242.61051678657532	2.5005910396575928
45	223.1320240497589	pulse	1	t		43.0	2.5	/experiments/AOT/AOT_stimuli/rescaled_final/1125_fw.mp4	0.0	242.9936089515686	
45	224.73244786262512	pulse	1	t		43.0	2.5	/experiments/AOT/AOT_stimuli/rescaled_final/1125_fw.mp4	0.0	244.59403276443481	
45	225.24952292442322	fix_post	2		12	43.0	2.5	/experiments/AOT/AOT_stimuli/rescaled_final/1125_fw.mp4	0.0	245.1111078262329	0.09993100166320801
46	225.34945392608643	fix_pre	0		119	44.0	2.5	/experiments/AOT/AOT_stimuli/rescaled_final/0189_fw.mp4	0.0	245.21103882789612	0.9914500713348389
46	226.33273601531982	pulse	0	t		44.0	2.5	/experiments/AOT/AOT_stimuli/rescaled_final/0189_fw.mp4	0.0	246.19432091712952	
46	226.34090399742126	movie	1		244	44.0	2.5	/experiments/AOT/AOT_stimuli/rescaled_final/0189_fw.mp4	0.0	246.20248889923096	2.5083608627319336
46	227.93243098258972	pulse	1	t		44.0	2.5	/experiments/AOT/AOT_stimuli/rescaled_final/0189_fw.mp4	0.0	247.7940158843994	
46	228.8492648601532	fix_post	2		12	44.0	2.5	/experiments/AOT/AOT_stimuli/rescaled_final/0189_fw.mp4	0.0	248.7108497619629	0.09992313385009766
47	228.9491879940033	fix_pre	0		120	45.0	2.5	/experiments/AOT/AOT_stimuli/rescaled_final/0256_fw.mp4	0.0	248.810772895813	1.0001769065856934
47	229.53272104263306	pulse	0	t		45.0	2.5	/experiments/AOT/AOT_stimuli/rescaled_final/0256_fw.mp4	0.0	249.39430594444275	
47	229.949364900589	movie	1		245	45.0	2.5	/experiments/AOT/AOT_stimuli/rescaled_final/0256_fw.mp4	0.0	249.81094980239868	2.4994659423828125
47	231.13277506828308	pulse	1	t		45.0	2.5	/experiments/AOT/AOT_stimuli/rescaled_final/0256_fw.mp4	0.0	250.99435997009277	
47	232.4488308429718	fix_post	2		12	45.0	2.5	/experiments/AOT/AOT_stimuli/rescaled_final/0256_fw.mp4	0.0	252.3104157447815	0.1003720760345459
48	232.54920291900635	fix_pre	0		120	46.0	2.5	/experiments/AOT/AOT_stimuli/rescaled_final/0645_rv.mp4	0.0	252.41078782081604	1.0000441074371338
48	232.73266291618347	pulse	0	t		46.0	2.5	/experiments/AOT/AOT_stimuli/rescaled_final/0645_rv.mp4	0.0	252.59424781799316	
48	233.54924702644348	movie	1		246	46.0	2.5	/experiments/AOT/AOT_stimuli/rescaled_final/0645_rv.mp4	0.0	253.41083192825317	2.499500036239624
48	234.33266806602478	pulse	1	t		46.0	2.5	/experiments/AOT/AOT_stimuli/rescaled_final/0645_rv.mp4	0.0	254.19425296783447	
48	235.9311408996582	pulse	1	t		46.0	2.5	/experiments/AOT/AOT_stimuli/rescaled_final/0645_rv.mp4	0.0	255.7927258014679	
48	236.0487470626831	fix_post	2		12	46.0	2.5	/experiments/AOT/AOT_stimuli/rescaled_final/0645_rv.mp4	0.0	255.9103319644928	0.10041499137878418
49	236.1491620540619	fix_pre	0		120	47.0	2.5	blank	1.0	256.0107469558716	0.9999868869781494
49	237.14914894104004	movie	1		300	47.0	2.5	blank	1.0	257.01073384284973	2.5000100135803223
49	237.53263401985168	pulse	1	t		47.0	2.5	blank	1.0	257.3942189216614	
49	239.13265204429626	pulse	1	t		47.0	2.5	blank	1.0	258.99423694610596	
49	239.64915895462036	fix_post	2		12	47.0	2.5	blank	1.0	259.51074385643005	0.09999394416809082
50	239.74915289878845	fix_pre	0		119	48.0	2.5	/experiments/AOT/AOT_stimuli/rescaled_final/1738_fw.mp4	0.0	259.61073780059814	0.9916601181030273
50	240.7327139377594	pulse	0	t		48.0	2.5	/experiments/AOT/AOT_stimuli/rescaled_final/1738_fw.mp4	0.0	260.5942988395691	
50	240.74081301689148	movie	1		244	48.0	2.5	/experiments/AOT/AOT_stimuli/rescaled_final/1738_fw.mp4	0.0	260.6023979187012	2.5084328651428223
50	242.3322949409485	pulse	1	t		48.0	2.5	/experiments/AOT/AOT_stimuli/rescaled_final/1738_fw.mp4	0.0	262.1938798427582	
50	243.2492458820343	fix_post	2		12	48.0	2.5	/experiments/AOT/AOT_stimuli/rescaled_final/1738_fw.mp4	0.0	263.110830783844	0.09989404678344727
51	243.34913992881775	fix_pre	0		120	49.0	2.5	/experiments/AOT/AOT_stimuli/rescaled_final/1832_fw.mp4	0.0	263.21072483062744	1.0000009536743164
51	243.93270206451416	pulse	0	t		49.0	2.5	/experiments/AOT/AOT_stimuli/rescaled_final/1832_fw.mp4	0.0	263.79428696632385	
51	244.34914088249207	movie	1		244	49.0	2.5	/experiments/AOT/AOT_stimuli/rescaled_final/1832_fw.mp4	0.0	264.21072578430176	2.499969005584717
51	245.53265690803528	pulse	1	t		49.0	2.5	/experiments/AOT/AOT_stimuli/rescaled_final/1832_fw.mp4	0.0	265.39424180984497	
51	246.84910988807678	fix_post	2		12	49.0	2.5	/experiments/AOT/AOT_stimuli/rescaled_final/1832_fw.mp4	0.0	266.7106947898865	0.10004401206970215
52	246.94915390014648	fix_pre	0		120	50.0	2.5	/experiments/AOT/AOT_stimuli/rescaled_final/1723_fw.mp4	0.0	266.8107388019562	1.0000059604644775
52	247.1325650215149	pulse	0	t		50.0	2.5	/experiments/AOT/AOT_stimuli/rescaled_final/1723_fw.mp4	0.0	266.9941499233246	
52	247.94915986061096	movie	1		243	50.0	2.5	/experiments/AOT/AOT_stimuli/rescaled_final/1723_fw.mp4	0.0	267.81074476242065	2.499958038330078
52	248.73258185386658	pulse	1	t		50.0	2.5	/experiments/AOT/AOT_stimuli/rescaled_final/1723_fw.mp4	0.0	268.59416675567627	
52	250.33107995986938	pulse	1	t		50.0	2.5	/experiments/AOT/AOT_stimuli/rescaled_final/1723_fw.mp4	0.0	270.1926648616791	
52	250.44911789894104	fix_post	2		12	50.0	2.5	/experiments/AOT/AOT_stimuli/rescaled_final/1723_fw.mp4	0.0	270.31070280075073	0.10004496574401855
53	250.54916286468506	fix_pre	0		120	51.0	2.5	/experiments/AOT/AOT_stimuli/rescaled_final/0755_rv.mp4	0.0	270.41074776649475	0.9998819828033447
53	251.5490448474884	movie	1		247	51.0	2.5	/experiments/AOT/AOT_stimuli/rescaled_final/0755_rv.mp4	0.0	271.4106297492981	2.5000171661376953
53	251.9319179058075	pulse	1	t		51.0	2.5	/experiments/AOT/AOT_stimuli/rescaled_final/0755_rv.mp4	0.0	271.7935028076172	
53	253.53257703781128	pulse	1	t		51.0	2.5	/experiments/AOT/AOT_stimuli/rescaled_final/0755_rv.mp4	0.0	273.394161939621	
53	254.0490620136261	fix_post	2		12	51.0	2.5	/experiments/AOT/AOT_stimuli/rescaled_final/0755_rv.mp4	0.0	273.9106469154358	0.10001397132873535
54	254.14907598495483	fix_pre	0		119	52.0	2.5	/experiments/AOT/AOT_stimuli/rescaled_final/1768_rv.mp4	0.0	274.0106608867645	0.9916698932647705
54	255.13264799118042	pulse	0	t		52.0	2.5	/experiments/AOT/AOT_stimuli/rescaled_final/1768_rv.mp4	0.0	274.9942328929901	
54	255.1407458782196	movie	1		246	52.0	2.5	/experiments/AOT/AOT_stimuli/rescaled_final/1768_rv.mp4	0.0	275.0023307800293	2.5084030628204346
54	256.73388290405273	pulse	1	t		52.0	2.5	/experiments/AOT/AOT_stimuli/rescaled_final/1768_rv.mp4	0.0	276.5954678058624	
54	257.64914894104004	fix_post	2		12	52.0	2.5	/experiments/AOT/AOT_stimuli/rescaled_final/1768_rv.mp4	0.0	277.51073384284973	0.10003900527954102
55	257.7491879463196	fix_pre	0		120	53.0	2.5	/experiments/AOT/AOT_stimuli/rescaled_final/1458_rv.mp4	0.0	277.6107728481293	0.999932050704956
55	258.3325870037079	pulse	0	t		53.0	2.5	/experiments/AOT/AOT_stimuli/rescaled_final/1458_rv.mp4	0.0	278.1941719055176	
55	258.74911999702454	movie	1		246	53.0	2.5	/experiments/AOT/AOT_stimuli/rescaled_final/1458_rv.mp4	0.0	278.61070489883423	2.5000319480895996
55	259.9326739311218	pulse	1	t		53.0	2.5	/experiments/AOT/AOT_stimuli/rescaled_final/1458_rv.mp4	0.0	279.7942588329315	
55	261.24915194511414	fix_post	2		12	53.0	2.5	/experiments/AOT/AOT_stimuli/rescaled_final/1458_rv.mp4	0.0	281.1107368469238	0.0999150276184082
56	261.34906697273254	fix_pre	0		120	54.0	2.5	/experiments/AOT/AOT_stimuli/rescaled_final/0355_rv.mp4	0.0	281.21065187454224	1.0000081062316895
56	261.5327479839325	pulse	0	t		54.0	2.5	/experiments/AOT/AOT_stimuli/rescaled_final/0355_rv.mp4	0.0	281.3943328857422	
56	262.34907507896423	movie	1		244	54.0	2.5	/experiments/AOT/AOT_stimuli/rescaled_final/0355_rv.mp4	0.0	282.2106599807739	2.499567985534668
56	263.13255286216736	pulse	1	t		54.0	2.5	/experiments/AOT/AOT_stimuli/rescaled_final/0355_rv.mp4	0.0	282.99413776397705	
56	264.72889399528503	pulse	1	t		54.0	2.5	/experiments/AOT/AOT_stimuli/rescaled_final/0355_rv.mp4	0.0	284.5904788970947	
56	264.8486430644989	fix_post	2		12	54.0	2.5	/experiments/AOT/AOT_stimuli/rescaled_final/0355_rv.mp4	0.0	284.7102279663086	0.10038399696350098
57	264.9490270614624	fix_pre	0		120	55.0	2.5	blank	1.0	284.8106119632721	1.000025987625122
57	265.9490530490875	movie	1		300	55.0	2.5	blank	1.0	285.8106379508972	2.499941825866699
57	266.3325550556183	pulse	1	t		55.0	2.5	blank	1.0	286.194139957428	
57	267.9325270652771	pulse	1	t		55.0	2.5	blank	1.0	287.7941119670868	
57	268.4489948749542	fix_post	2		12	55.0	2.5	blank	1.0	288.3105797767639	0.10006117820739746
58	268.5490560531616	fix_pre	0		119	56.0	2.5	/experiments/AOT/AOT_stimuli/rescaled_final/0621_fw.mp4	0.0	288.4106409549713	0.9916388988494873
58	269.5325038433075	pulse	0	t		56.0	2.5	/experiments/AOT/AOT_stimuli/rescaled_final/0621_fw.mp4	0.0	289.3940887451172	
58	269.5406949520111	movie	1		244	56.0	2.5	/experiments/AOT/AOT_stimuli/rescaled_final/0621_fw.mp4	0.0	289.4022798538208	2.508359909057617
58	271.1321110725403	pulse	1	t		56.0	2.5	/experiments/AOT/AOT_stimuli/rescaled_final/0621_fw.mp4	0.0	290.99369597435	
58	272.0490548610687	fix_post	2		12	56.0	2.5	/experiments/AOT/AOT_stimuli/rescaled_final/0621_fw.mp4	0.0	291.9106397628784	0.09995102882385254
59	272.1490058898926	fix_pre	0		120	57.0	2.5	/experiments/AOT/AOT_stimuli/rescaled_final/0117_rv.mp4	0.0	292.01059079170227	1.000054121017456
59	272.7326500415802	pulse	0	t		57.0	2.5	/experiments/AOT/AOT_stimuli/rescaled_final/0117_rv.mp4	0.0	292.5942349433899	
59	273.14906001091003	movie	1		243	57.0	2.5	/experiments/AOT/AOT_stimuli/rescaled_final/0117_rv.mp4	0.0	293.0106449127197	2.499924898147583
59	274.33257699012756	pulse	1	t		57.0	2.5	/experiments/AOT/AOT_stimuli/rescaled_final/0117_rv.mp4	0.0	294.19416189193726	
59	275.6489849090576	fix_post	2		12	57.0	2.5	/experiments/AOT/AOT_stimuli/rescaled_final/0117_rv.mp4	0.0	295.5105698108673	0.099945068359375
60	275.748929977417	fix_pre	0		120	58.0	2.5	/experiments/AOT/AOT_stimuli/rescaled_final/0502_rv.mp4	0.0	295.6105148792267	1.0000810623168945
60	275.9326648712158	pulse	0	t		58.0	2.5	/experiments/AOT/AOT_stimuli/rescaled_final/0502_rv.mp4	0.0	295.7942497730255	
60	276.7490110397339	movie	1		245	58.0	2.5	/experiments/AOT/AOT_stimuli/rescaled_final/0502_rv.mp4	0.0	296.6105959415436	2.499990940093994
60	277.53252506256104	pulse	1	t		58.0	2.5	/experiments/AOT/AOT_stimuli/rescaled_final/0502_rv.mp4	0.0	297.3941099643707	
60	279.13034296035767	pulse	1	t		58.0	2.5	/experiments/AOT/AOT_stimuli/rescaled_final/0502_rv.mp4	0.0	298.99192786216736	
60	279.2490019798279	fix_post	2		12	58.0	2.5	/experiments/AOT/AOT_stimuli/rescaled_final/0502_rv.mp4	0.0	299.1105868816376	0.1000070571899414
61	279.3490090370178	fix_pre	0		120	59.0	2.5	/experiments/AOT/AOT_stimuli/rescaled_final/1285_rv.mp4	0.0	299.2105939388275	0.999629020690918
61	280.34863805770874	movie	1		247	59.0	2.5	/experiments/AOT/AOT_stimuli/rescaled_final/1285_rv.mp4	0.0	300.21022295951843	2.5003669261932373
61	280.73218297958374	pulse	1	t		59.0	2.5	/experiments/AOT/AOT_stimuli/rescaled_final/1285_rv.mp4	0.0	300.59376788139343	
61	282.3323760032654	pulse	1	t		59.0	2.5	/experiments/AOT/AOT_stimuli/rescaled_final/1285_rv.mp4	0.0	302.1939609050751	
61	282.849004983902	fix_post	2		12	59.0	2.5	/experiments/AOT/AOT_stimuli/rescaled_final/1285_rv.mp4	0.0	302.71058988571167	0.09997105598449707
62	282.9489760398865	fix_pre	0		119	60.0	2.5	/experiments/AOT/AOT_stimuli/rescaled_final/1408_fw.mp4	0.0	302.81056094169617	0.9916839599609375
62	283.93243503570557	pulse	0	t		60.0	2.5	/experiments/AOT/AOT_stimuli/rescaled_final/1408_fw.mp4	0.0	303.79401993751526	
62	283.9406599998474	movie	1		245	60.0	2.5	/experiments/AOT/AOT_stimuli/rescaled_final/1408_fw.mp4	0.0	303.8022449016571	2.508297920227051
62	285.5320370197296	pulse	1	t		60.0	2.5	/experiments/AOT/AOT_stimuli/rescaled_final/1408_fw.mp4	0.0	305.3936219215393	
62	286.44895792007446	fix_post	2		12	60.0	2.5	/experiments/AOT/AOT_stimuli/rescaled_final/1408_fw.mp4	0.0	306.31054282188416	0.09998893737792969
63	286.5489468574524	fix_pre	0		120	61.0	2.5	blank	1.0	306.4105317592621	1.0000050067901611
63	287.13241386413574	pulse	0	t		61.0	2.5	blank	1.0	306.99399876594543	
63	287.54895186424255	movie	1		300	61.0	2.5	blank	1.0	307.41053676605225	2.4998722076416016
63	288.7324569225311	pulse	1	t		61.0	2.5	blank	1.0	308.5940418243408	
63	290.04882407188416	fix_post	2		12	61.0	2.5	blank	1.0	309.91040897369385	0.10010695457458496
64	290.14893102645874	fix_pre	0		120	62.0	2.5	/experiments/AOT/AOT_stimuli/rescaled_final/0256_fw.mp4	0.0	310.01051592826843	0.999985933303833
64	290.3323950767517	pulse	0	t		62.0	2.5	/experiments/AOT/AOT_stimuli/rescaled_final/0256_fw.mp4	0.0	310.1939799785614	
64	291.1489169597626	movie	1		243	62.0	2.5	/experiments/AOT/AOT_stimuli/rescaled_final/0256_fw.mp4	0.0	311.01050186157227	2.500019073486328
64	291.9323630332947	pulse	1	t		62.0	2.5	/experiments/AOT/AOT_stimuli/rescaled_final/0256_fw.mp4	0.0	311.79394793510437	
64	293.53069400787354	pulse	1	t		62.0	2.5	/experiments/AOT/AOT_stimuli/rescaled_final/0256_fw.mp4	0.0	313.3922789096832	
64	293.6489360332489	fix_post	2		12	62.0	2.5	/experiments/AOT/AOT_stimuli/rescaled_final/0256_fw.mp4	0.0	313.5105209350586	0.0999748706817627
65	293.74891090393066	fix_pre	0		120	63.0	2.5	/experiments/AOT/AOT_stimuli/rescaled_final/0404_fw.mp4	0.0	313.61049580574036	1.0000100135803223
65	294.748920917511	movie	1		244	63.0	2.5	/experiments/AOT/AOT_stimuli/rescaled_final/0404_fw.mp4	0.0	314.6105058193207	2.5000150203704834
65	295.1318168640137	pulse	1	t		63.0	2.5	/experiments/AOT/AOT_stimuli/rescaled_final/0404_fw.mp4	0.0	314.99340176582336	
65	296.7323548793793	pulse	1	t		63.0	2.5	/experiments/AOT/AOT_stimuli/rescaled_final/0404_fw.mp4	0.0	316.59393978118896	
65	297.24893593788147	fix_post	2		12	63.0	2.5	/experiments/AOT/AOT_stimuli/rescaled_final/0404_fw.mp4	0.0	317.11052083969116	0.09993290901184082
66	297.3488688468933	fix_pre	0		119	64.0	2.5	/experiments/AOT/AOT_stimuli/rescaled_final/2030_rv.mp4	0.0	317.210453748703	0.9917151927947998
66	298.3324179649353	pulse	0	t		64.0	2.5	/experiments/AOT/AOT_stimuli/rescaled_final/2030_rv.mp4	0.0	318.194002866745	
66	298.3405840396881	movie	1		246	64.0	2.5	/experiments/AOT/AOT_stimuli/rescaled_final/2030_rv.mp4	0.0	318.2021689414978	2.507920026779175
66	299.9337089061737	pulse	1	t		64.0	2.5	/experiments/AOT/AOT_stimuli/rescaled_final/2030_rv.mp4	0.0	319.7952938079834	
66	300.8485040664673	fix_post	2		12	64.0	2.5	/experiments/AOT/AOT_stimuli/rescaled_final/2030_rv.mp4	0.0	320.710088968277	0.1003258228302002
67	300.9488298892975	fix_pre	0		120	65.0	2.5	/experiments/AOT/AOT_stimuli/rescaled_final/0296_rv.mp4	0.0	320.8104147911072	1.000143051147461
67	301.53240489959717	pulse	0	t		65.0	2.5	/experiments/AOT/AOT_stimuli/rescaled_final/0296_rv.mp4	0.0	321.39398980140686	
67	301.94897294044495	movie	1		246	65.0	2.5	/experiments/AOT/AOT_stimuli/rescaled_final/0296_rv.mp4	0.0	321.81055784225464	2.4998860359191895
67	303.1325418949127	pulse	1	t		65.0	2.5	/experiments/AOT/AOT_stimuli/rescaled_final/0296_rv.mp4	0.0	322.9941267967224	
67	304.44885897636414	fix_post	2		12	65.0	2.5	/experiments/AOT/AOT_stimuli/rescaled_final/0296_rv.mp4	0.0	324.3104438781738	0.10003089904785156
68	304.548889875412	fix_pre	0		120	66.0	2.5	/experiments/AOT/AOT_stimuli/rescaled_final/1065_fw.mp4	0.0	324.4104747772217	0.9999899864196777
68	304.7324640750885	pulse	0	t		66.0	2.5	/experiments/AOT/AOT_stimuli/rescaled_final/1065_fw.mp4	0.0	324.5940489768982	
68	305.54887986183167	movie	1		245	66.0	2.5	/experiments/AOT/AOT_stimuli/rescaled_final/1065_fw.mp4	0.0	325.41046476364136	2.4999771118164062
68	306.33244800567627	pulse	1	t		66.0	2.5	/experiments/AOT/AOT_stimuli/rescaled_final/1065_fw.mp4	0.0	326.19403290748596	
68	307.9311399459839	pulse	1	t		66.0	2.5	/experiments/AOT/AOT_stimuli/rescaled_final/1065_fw.mp4	0.0	327.7927248477936	
68	308.04885697364807	fix_post	2		12	66.0	2.5	/experiments/AOT/AOT_stimuli/rescaled_final/1065_fw.mp4	0.0	327.91044187545776	0.10006093978881836
69	308.1489179134369	fix_pre	0		120	67.0	2.5	/experiments/AOT/AOT_stimuli/rescaled_final/0755_fw.mp4	0.0	328.0105028152466	0.9999499320983887
69	309.1488678455353	movie	1		245	67.0	2.5	/experiments/AOT/AOT_stimuli/rescaled_final/0755_fw.mp4	0.0	329.01045274734497	2.499521017074585
69	309.5320689678192	pulse	1	t		67.0	2.5	/experiments/AOT/AOT_stimuli/rescaled_final/0755_fw.mp4	0.0	329.3936538696289	
69	311.13234305381775	pulse	1	t		67.0	2.5	/experiments/AOT/AOT_stimuli/rescaled_final/0755_fw.mp4	0.0	330.99392795562744	
69	311.64838886260986	fix_post	2		12	67.0	2.5	/experiments/AOT/AOT_stimuli/rescaled_final/0755_fw.mp4	0.0	331.50997376441956	0.1004791259765625
70	311.7488679885864	fix_pre	0		119	68.0	2.5	/experiments/AOT/AOT_stimuli/rescaled_final/2151_fw.mp4	0.0	331.6104528903961	0.9915750026702881
70	312.7322590351105	pulse	0	t		68.0	2.5	/experiments/AOT/AOT_stimuli/rescaled_final/2151_fw.mp4	0.0	332.59384393692017	
70	312.7404429912567	movie	1		245	68.0	2.5	/experiments/AOT/AOT_stimuli/rescaled_final/2151_fw.mp4	0.0	332.6020278930664	2.508354902267456
70	314.33185386657715	pulse	1	t		68.0	2.5	/experiments/AOT/AOT_stimuli/rescaled_final/2151_fw.mp4	0.0	334.19343876838684	
70	315.24879789352417	fix_post	2		12	68.0	2.5	/experiments/AOT/AOT_stimuli/rescaled_final/2151_fw.mp4	0.0	335.11038279533386	0.10003399848937988
71	315.34883189201355	fix_pre	0		120	69.0	2.5	blank	1.0	335.21041679382324	0.9999279975891113
71	315.9323420524597	pulse	0	t		69.0	2.5	blank	1.0	335.7939269542694	
71	316.34875988960266	movie	1		300	69.0	2.5	blank	1.0	336.21034479141235	2.500019073486328
71	317.5323009490967	pulse	1	t		69.0	2.5	blank	1.0	337.3938858509064	
71	318.848778963089	fix_post	2		12	69.0	2.5	blank	1.0	338.7103638648987	0.09999608993530273
72	318.9487750530243	fix_pre	0		120	70.0	2.5	/experiments/AOT/AOT_stimuli/rescaled_final/1801_fw.mp4	0.0	338.810359954834	0.9999599456787109
72	319.13230895996094	pulse	0	t		70.0	2.5	/experiments/AOT/AOT_stimuli/rescaled_final/1801_fw.mp4	0.0	338.99389386177063	
72	319.948734998703	movie	1		245	70.0	2.5	/experiments/AOT/AOT_stimuli/rescaled_final/1801_fw.mp4	0.0	339.8103199005127	2.4995720386505127
72	320.732323884964	pulse	1	t		70.0	2.5	/experiments/AOT/AOT_stimuli/rescaled_final/1801_fw.mp4	0.0	340.5939087867737	
72	322.33063292503357	pulse	1	t		70.0	2.5	/experiments/AOT/AOT_stimuli/rescaled_final/1801_fw.mp4	0.0	342.19221782684326	
72	322.4483070373535	fix_post	2		12	70.0	2.5	/experiments/AOT/AOT_stimuli/rescaled_final/1801_fw.mp4	0.0	342.3098919391632	0.10051488876342773
73	322.54882192611694	fix_pre	0		120	71.0	2.5	/experiments/AOT/AOT_stimuli/rescaled_final/0489_rv.mp4	0.0	342.41040682792664	0.9999070167541504
73	323.5487289428711	movie	1		244	71.0	2.5	/experiments/AOT/AOT_stimuli/rescaled_final/0489_rv.mp4	0.0	343.4103138446808	2.5000789165496826
73	323.9326469898224	pulse	1	t		71.0	2.5	/experiments/AOT/AOT_stimuli/rescaled_final/0489_rv.mp4	0.0	343.7942318916321	
73	325.53225088119507	pulse	1	t		71.0	2.5	/experiments/AOT/AOT_stimuli/rescaled_final/0489_rv.mp4	0.0	345.39383578300476	
73	326.0488078594208	fix_post	2		12	71.0	2.5	/experiments/AOT/AOT_stimuli/rescaled_final/0489_rv.mp4	0.0	345.91039276123047	0.09987807273864746
74	326.1486859321594	fix_pre	0		119	72.0	2.5	/experiments/AOT/AOT_stimuli/rescaled_final/1801_rv.mp4	0.0	346.0102708339691	0.9917271137237549
74	327.13226795196533	pulse	0	t		72.0	2.5	/experiments/AOT/AOT_stimuli/rescaled_final/1801_rv.mp4	0.0	346.993852853775	
74	327.1404130458832	movie	1		245	72.0	2.5	/experiments/AOT/AOT_stimuli/rescaled_final/1801_rv.mp4	0.0	347.00199794769287	2.5079119205474854
74	328.7321090698242	pulse	1	t		72.0	2.5	/experiments/AOT/AOT_stimuli/rescaled_final/1801_rv.mp4	0.0	348.5936939716339	
74	329.64832496643066	fix_post	2		12	72.0	2.5	/experiments/AOT/AOT_stimuli/rescaled_final/1801_rv.mp4	0.0	349.50990986824036	0.10037994384765625
75	329.7487049102783	fix_pre	0		120	73.0	2.5	/experiments/AOT/AOT_stimuli/rescaled_final/2135_rv.mp4	0.0	349.610289812088	1.0000579357147217
75	330.33221888542175	pulse	0	t		73.0	2.5	/experiments/AOT/AOT_stimuli/rescaled_final/2135_rv.mp4	0.0	350.19380378723145	
75	330.74876284599304	movie	1		245	73.0	2.5	/experiments/AOT/AOT_stimuli/rescaled_final/2135_rv.mp4	0.0	350.61034774780273	2.4999430179595947
75	331.932245016098	pulse	1	t		73.0	2.5	/experiments/AOT/AOT_stimuli/rescaled_final/2135_rv.mp4	0.0	351.7938299179077	
75	333.24870586395264	fix_post	2		12	73.0	2.5	/experiments/AOT/AOT_stimuli/rescaled_final/2135_rv.mp4	0.0	353.11029076576233	0.10007309913635254
76	333.348778963089	fix_pre	0		120	74.0	2.5	/experiments/AOT/AOT_stimuli/rescaled_final/0645_fw.mp4	0.0	353.2103638648987	0.9995110034942627
76	333.53232288360596	pulse	0	t		74.0	2.5	/experiments/AOT/AOT_stimuli/rescaled_final/0645_fw.mp4	0.0	353.39390778541565	
76	334.34828996658325	movie	1		246	74.0	2.5	/experiments/AOT/AOT_stimuli/rescaled_final/0645_fw.mp4	0.0	354.20987486839294	2.500174045562744
76	335.13177394866943	pulse	1	t		74.0	2.5	/experiments/AOT/AOT_stimuli/rescaled_final/0645_fw.mp4	0.0	354.9933588504791	
76	336.73056507110596	pulse	1	t		74.0	2.5	/experiments/AOT/AOT_stimuli/rescaled_final/0645_fw.mp4	0.0	356.59214997291565	
76	336.848464012146	fix_post	2		12	74.0	2.5	/experiments/AOT/AOT_stimuli/rescaled_final/0645_fw.mp4	0.0	356.7100489139557	0.10000300407409668
77	336.9484670162201	fix_pre	0		120	75.0	2.5	/experiments/AOT/AOT_stimuli/rescaled_final/0831_rv.mp4	0.0	356.8100519180298	1.0002999305725098
77	337.9487669467926	movie	1		243	75.0	2.5	/experiments/AOT/AOT_stimuli/rescaled_final/0831_rv.mp4	0.0	357.8103518486023	2.4998629093170166
77	338.33215284347534	pulse	1	t		75.0	2.5	/experiments/AOT/AOT_stimuli/rescaled_final/0831_rv.mp4	0.0	358.19373774528503	
77	339.9321930408478	pulse	1	t		75.0	2.5	/experiments/AOT/AOT_stimuli/rescaled_final/0831_rv.mp4	0.0	359.79377794265747	
77	340.4486298561096	fix_post	2		12	75.0	2.5	/experiments/AOT/AOT_stimuli/rescaled_final/0831_rv.mp4	0.0	360.3102147579193	0.10003900527954102
78	340.54866886138916	fix_pre	0		119	76.0	2.5	blank	1.0	360.41025376319885	0.9916410446166992
78	341.5321638584137	pulse	0	t		76.0	2.5	blank	1.0	361.3937487602234	
78	341.54030990600586	movie	1		301	76.0	2.5	blank	1.0	361.40189480781555	2.5083329677581787
78	343.132080078125	pulse	1	t		76.0	2.5	blank	1.0	362.9936649799347	
78	344.04864287376404	fix_post	2		12	76.0	2.5	blank	1.0	363.91022777557373	0.0999760627746582
79	344.1486189365387	fix_pre	0		120	77.0	2.5	/experiments/AOT/AOT_stimuli/rescaled_final/1477_rv.mp4	0.0	364.0102038383484	1.0000519752502441
79	344.7322008609772	pulse	0	t		77.0	2.5	/experiments/AOT/AOT_stimuli/rescaled_final/1477_rv.mp4	0.0	364.59378576278687	
79	345.14867091178894	movie	1		245	77.0	2.5	/experiments/AOT/AOT_stimuli/rescaled_final/1477_rv.mp4	0.0	365.01025581359863	2.4995360374450684
79	346.3322329521179	pulse	1	t		77.0	2.5	/experiments/AOT/AOT_stimuli/rescaled_final/1477_rv.mp4	0.0	366.1938178539276	
79	347.648206949234	fix_post	2		12	77.0	2.5	/experiments/AOT/AOT_stimuli/rescaled_final/1477_rv.mp4	0.0	367.5097918510437	0.10040712356567383
80	347.7486140727997	fix_pre	0		120	78.0	2.5	/experiments/AOT/AOT_stimuli/rescaled_final/1726_fw.mp4	0.0	367.6101989746094	0.9999539852142334
80	347.93213391304016	pulse	0	t		78.0	2.5	/experiments/AOT/AOT_stimuli/rescaled_final/1726_fw.mp4	0.0	367.79371881484985	
80	348.7485680580139	movie	1		243	78.0	2.5	/experiments/AOT/AOT_stimuli/rescaled_final/1726_fw.mp4	0.0	368.6101529598236	2.5000529289245605
80	349.53214287757874	pulse	1	t		78.0	2.5	/experiments/AOT/AOT_stimuli/rescaled_final/1726_fw.mp4	0.0	369.3937277793884	
80	351.13053607940674	pulse	1	t		78.0	2.5	/experiments/AOT/AOT_stimuli/rescaled_final/1726_fw.mp4	0.0	370.99212098121643	
80	351.2486209869385	fix_post	2		12	78.0	2.5	/experiments/AOT/AOT_stimuli/rescaled_final/1726_fw.mp4	0.0	371.11020588874817	0.09993386268615723
81	351.34855484962463	fix_pre	0		120	79.0	2.5	/experiments/AOT/AOT_stimuli/rescaled_final/2106_rv.mp4	0.0	371.2101397514343	1.0001130104064941
81	352.3486678600311	movie	1		244	79.0	2.5	/experiments/AOT/AOT_stimuli/rescaled_final/2106_rv.mp4	0.0	372.2102527618408	2.499861001968384
81	352.73203802108765	pulse	1	t		79.0	2.5	/experiments/AOT/AOT_stimuli/rescaled_final/2106_rv.mp4	0.0	372.59362292289734	
81	354.3320369720459	pulse	1	t		79.0	2.5	/experiments/AOT/AOT_stimuli/rescaled_final/2106_rv.mp4	0.0	374.1936218738556	
81	354.8485288619995	fix_post	2		12	79.0	2.5	/experiments/AOT/AOT_stimuli/rescaled_final/2106_rv.mp4	0.0	374.7101137638092	0.10007500648498535
82	354.9486038684845	fix_pre	0		119	80.0	2.5	/experiments/AOT/AOT_stimuli/rescaled_final/0831_rv.mp4	0.0	374.8101887702942	0.9917011260986328
82	355.9321370124817	pulse	0	t		80.0	2.5	/experiments/AOT/AOT_stimuli/rescaled_final/0831_rv.mp4	0.0	375.7937219142914	
82	355.94030499458313	movie	1		244	80.0	2.5	/experiments/AOT/AOT_stimuli/rescaled_final/0831_rv.mp4	0.0	375.8018898963928	2.5083179473876953
82	357.53236985206604	pulse	1	t		80.0	2.5	/experiments/AOT/AOT_stimuli/rescaled_final/0831_rv.mp4	0.0	377.39395475387573	
82	358.4486229419708	fix_post	2		12	80.0	2.5	/experiments/AOT/AOT_stimuli/rescaled_final/0831_rv.mp4	0.0	378.3102078437805	0.09996891021728516
83	358.5485918521881	fix_pre	0		120	81.0	2.5	/experiments/AOT/AOT_stimuli/rescaled_final/1527_rv.mp4	0.0	378.4101767539978	0.9999971389770508
83	359.13202595710754	pulse	0	t		81.0	2.5	/experiments/AOT/AOT_stimuli/rescaled_final/1527_rv.mp4	0.0	378.99361085891724	
83	359.54858899116516	movie	1		248	81.0	2.5	/experiments/AOT/AOT_stimuli/rescaled_final/1527_rv.mp4	0.0	379.41017389297485	2.4998960494995117
83	360.7321729660034	pulse	1	t		81.0	2.5	/experiments/AOT/AOT_stimuli/rescaled_final/1527_rv.mp4	0.0	380.5937578678131	
83	362.0484850406647	fix_post	2		12	81.0	2.5	/experiments/AOT/AOT_stimuli/rescaled_final/1527_rv.mp4	0.0	381.91006994247437	0.10008096694946289
84	362.14856600761414	fix_pre	0		120	82.0	2.5	blank	1.0	382.0101509094238	0.9999990463256836
84	362.33204102516174	pulse	0	t		82.0	2.5	blank	1.0	382.19362592697144	
84	363.1485650539398	movie	1		300	82.0	2.5	blank	1.0	383.0101499557495	2.4999799728393555
84	363.9320478439331	pulse	1	t		82.0	2.5	blank	1.0	383.7936327457428	
84	365.53209590911865	pulse	1	t		82.0	2.5	blank	1.0	385.39368081092834	
84	365.6485450267792	fix_post	2		12	82.0	2.5	blank	1.0	385.51012992858887	0.09998583793640137
85	365.7485308647156	fix_pre	0		120	83.0	2.5	/experiments/AOT/AOT_stimuli/rescaled_final/1681_rv.mp4	0.0	385.61011576652527	1.0000569820404053
85	366.748587846756	movie	1		242	83.0	2.5	/experiments/AOT/AOT_stimuli/rescaled_final/1681_rv.mp4	0.0	386.6101727485657	2.5000431537628174
85	367.1332628726959	pulse	1	t		83.0	2.5	/experiments/AOT/AOT_stimuli/rescaled_final/1681_rv.mp4	0.0	386.9948477745056	
85	368.7320489883423	pulse	1	t		83.0	2.5	/experiments/AOT/AOT_stimuli/rescaled_final/1681_rv.mp4	0.0	388.593633890152	
85	369.2486310005188	fix_post	2		12	83.0	2.5	/experiments/AOT/AOT_stimuli/rescaled_final/1681_rv.mp4	0.0	389.1102159023285	0.09997892379760742
87	369.3486099243164	stim	0		1716					389.2101948261261	14.299844980239868
87	370.3320519924164	pulse	0	t						390.1936368942261	
87	371.93201303482056	pulse	0	t						391.79359793663025	
87	373.53190994262695	pulse	0	t						393.39349484443665	
87	375.13196897506714	pulse	0	t						394.99355387687683	
87	376.73195695877075	pulse	0	t						396.59354186058044	
87	378.33194398880005	pulse	0	t						398.19352889060974	
87	379.93194603919983	pulse	0	t						399.7935309410095	
87	381.5319640636444	pulse	0	t						401.3935489654541	
87	383.1319420337677	pulse	0	t						402.9935269355774	
