trial_nr	onset	event_type	phase	response	nr_frames	movie_index	movie_duration	movie_file	blank	onset_abs	duration
0	0.14983034133911133	stim	0		13					16.704315662384033	0.10818290710449219
0	0.24988102912902832	response	0	space						16.80436635017395	
1	0.2580132484436035	stim	0		4605					16.812498569488525	38.38996601104736
1	38.637834310531616	pulse	0	t						55.19231963157654	
1	38.64797925949097	stim	1		1715					55.20246458053589	14.301302433013916
1	40.23095989227295	pulse	1	t						56.78544521331787	
1	41.83111619949341	pulse	1	t						58.38560152053833	
1	43.43135118484497	pulse	1	t						59.98583650588989	
1	45.031676054000854	pulse	1	t						61.586161375045776	
1	46.63200092315674	pulse	1	t						63.18648624420166	
1	48.23209238052368	pulse	1	t						64.7865777015686	
1	49.83238244056702	pulse	1	t						66.38686776161194	
1	51.43257474899292	pulse	1	t						67.98706007003784	
2	52.94928169250488	fix_pre	0		11	0.0	2.5	/experiments/Knapen_AOT/AOT_stimuli/rescaled_final/1737_fw.mp4	0.0	69.5037670135498	0.10851478576660156
2	53.03286361694336	pulse	0	t		0.0	2.5	/experiments/Knapen_AOT/AOT_stimuli/rescaled_final/1737_fw.mp4	0.0	69.58734893798828	
2	53.057796478271484	movie	1		280	0.0	2.5	/experiments/Knapen_AOT/AOT_stimuli/rescaled_final/1737_fw.mp4	0.0	69.6122817993164	2.4919273853302
2	54.63163089752197	pulse	1	t		0.0	2.5	/experiments/Knapen_AOT/AOT_stimuli/rescaled_final/1737_fw.mp4	0.0	71.1861162185669	
2	55.549723863601685	fix_post	2		12	0.0	2.5	/experiments/Knapen_AOT/AOT_stimuli/rescaled_final/1737_fw.mp4	0.0	72.1042091846466	0.09998154640197754
3	55.64970541000366	fix_pre	0		120	1.0	2.5	/experiments/Knapen_AOT/AOT_stimuli/rescaled_final/0159_rv.mp4	0.0	72.20419073104858	1.0084865093231201
3	56.23329019546509	pulse	0	t		1.0	2.5	/experiments/Knapen_AOT/AOT_stimuli/rescaled_final/0159_rv.mp4	0.0	72.78777551651001	
3	56.65819191932678	movie	1		282	1.0	2.5	/experiments/Knapen_AOT/AOT_stimuli/rescaled_final/0159_rv.mp4	0.0	73.2126772403717	2.4920246601104736
3	57.83183693885803	pulse	1	t		1.0	2.5	/experiments/Knapen_AOT/AOT_stimuli/rescaled_final/0159_rv.mp4	0.0	74.38632225990295	
3	59.150216579437256	fix_post	2		12	1.0	2.5	/experiments/Knapen_AOT/AOT_stimuli/rescaled_final/0159_rv.mp4	0.0	75.70470190048218	0.10002613067626953
4	59.250242710113525	fix_pre	0		120	2.0	2.5	/experiments/Knapen_AOT/AOT_stimuli/rescaled_final/0294_rv.mp4	0.0	75.80472803115845	1.0085301399230957
4	59.43384647369385	pulse	0	t		2.0	2.5	/experiments/Knapen_AOT/AOT_stimuli/rescaled_final/0294_rv.mp4	0.0	75.98833179473877	
4	60.25877285003662	movie	1		284	2.0	2.5	/experiments/Knapen_AOT/AOT_stimuli/rescaled_final/0294_rv.mp4	0.0	76.81325817108154	2.491990327835083
4	61.032023429870605	pulse	1	t		2.0	2.5	/experiments/Knapen_AOT/AOT_stimuli/rescaled_final/0294_rv.mp4	0.0	77.58650875091553	
4	62.63250017166138	pulse	1	t		2.0	2.5	/experiments/Knapen_AOT/AOT_stimuli/rescaled_final/0294_rv.mp4	0.0	79.1869854927063	
4	62.750763177871704	fix_post	2		12	2.0	2.5	/experiments/Knapen_AOT/AOT_stimuli/rescaled_final/0294_rv.mp4	0.0	79.30524849891663	0.10004687309265137
5	62.850810050964355	fix_pre	0		120	3.0	2.5	/experiments/Knapen_AOT/AOT_stimuli/rescaled_final/0992_fw.mp4	0.0	79.40529537200928	1.0084853172302246
5	63.85929536819458	movie	1		284	3.0	2.5	/experiments/Knapen_AOT/AOT_stimuli/rescaled_final/0992_fw.mp4	0.0	80.4137806892395	2.4920198917388916
5	64.22649025917053	pulse	1	t		3.0	2.5	/experiments/Knapen_AOT/AOT_stimuli/rescaled_final/0992_fw.mp4	0.0	80.78097558021545	
5	65.82651019096375	pulse	1	t		3.0	2.5	/experiments/Knapen_AOT/AOT_stimuli/rescaled_final/0992_fw.mp4	0.0	82.38099551200867	
5	66.35131525993347	fix_post	2		12	3.0	2.5	/experiments/Knapen_AOT/AOT_stimuli/rescaled_final/0992_fw.mp4	0.0	82.9058005809784	0.10000801086425781
6	66.45132327079773	fix_pre	0		118	4.0	2.5	/experiments/Knapen_AOT/AOT_stimuli/rescaled_final/0418_fw.mp4	0.0	83.00580859184265	0.9918301105499268
6	67.42674589157104	pulse	0	t		4.0	2.5	/experiments/Knapen_AOT/AOT_stimuli/rescaled_final/0418_fw.mp4	0.0	83.98123121261597	
6	67.44315338134766	movie	1		286	4.0	2.5	/experiments/Knapen_AOT/AOT_stimuli/rescaled_final/0418_fw.mp4	0.0	83.99763870239258	2.500363349914551
6	69.02700662612915	pulse	1	t		4.0	2.5	/experiments/Knapen_AOT/AOT_stimuli/rescaled_final/0418_fw.mp4	0.0	85.58149194717407	
6	69.9435167312622	fix_post	2		12	4.0	2.5	/experiments/Knapen_AOT/AOT_stimuli/rescaled_final/0418_fw.mp4	0.0	86.49800205230713	0.10002732276916504
7	70.04354405403137	fix_pre	0		120	5.0	2.5	blank	1.0	86.5980293750763	1.0002083778381348
7	70.62715983390808	pulse	0	t		5.0	2.5	blank	1.0	87.181645154953	
7	71.0437524318695	movie	1		300	5.0	2.5	blank	1.0	87.59823775291443	2.5002970695495605
7	72.22741627693176	pulse	1	t		5.0	2.5	blank	1.0	88.78190159797668	
7	73.54404950141907	fix_post	2		12	5.0	2.5	blank	1.0	90.09853482246399	0.10006093978881836
8	73.64411044120789	fix_pre	0		120	6.0	2.5	/experiments/Knapen_AOT/AOT_stimuli/rescaled_final/0322_fw.mp4	0.0	90.19859576225281	1.0084433555603027
8	73.82775020599365	pulse	0	t		6.0	2.5	/experiments/Knapen_AOT/AOT_stimuli/rescaled_final/0322_fw.mp4	0.0	90.38223552703857	
8	74.65255379676819	movie	1		275	6.0	2.5	/experiments/Knapen_AOT/AOT_stimuli/rescaled_final/0322_fw.mp4	0.0	91.20703911781311	2.492039442062378
8	75.42783880233765	pulse	1	t		6.0	2.5	/experiments/Knapen_AOT/AOT_stimuli/rescaled_final/0322_fw.mp4	0.0	91.98232412338257	
8	77.02810716629028	pulse	1	t		6.0	2.5	/experiments/Knapen_AOT/AOT_stimuli/rescaled_final/0322_fw.mp4	0.0	93.5825924873352	
8	77.14459323883057	fix_post	2		12	6.0	2.5	/experiments/Knapen_AOT/AOT_stimuli/rescaled_final/0322_fw.mp4	0.0	93.69907855987549	0.10006189346313477
9	77.2446551322937	fix_pre	0		120	7.0	2.5	/experiments/Knapen_AOT/AOT_stimuli/rescaled_final/0400_fw.mp4	0.0	93.79914045333862	1.0084645748138428
9	78.25311970710754	movie	1		278	7.0	2.5	/experiments/Knapen_AOT/AOT_stimuli/rescaled_final/0400_fw.mp4	0.0	94.80760502815247	2.4920644760131836
9	78.62662148475647	pulse	1	t		7.0	2.5	/experiments/Knapen_AOT/AOT_stimuli/rescaled_final/0400_fw.mp4	0.0	95.18110680580139	
9	80.22892260551453	pulse	1	t		7.0	2.5	/experiments/Knapen_AOT/AOT_stimuli/rescaled_final/0400_fw.mp4	0.0	96.78340792655945	
9	80.74518418312073	fix_post	2		12	7.0	2.5	/experiments/Knapen_AOT/AOT_stimuli/rescaled_final/0400_fw.mp4	0.0	97.29966950416565	0.09999871253967285
10	80.8451828956604	fix_pre	0		119	8.0	2.5	/experiments/Knapen_AOT/AOT_stimuli/rescaled_final/2055_rv.mp4	0.0	97.39966821670532	1.0001094341278076
10	81.82882976531982	pulse	0	t		8.0	2.5	/experiments/Knapen_AOT/AOT_stimuli/rescaled_final/2055_rv.mp4	0.0	98.38331508636475	
10	81.84529232978821	movie	1		289	8.0	2.5	/experiments/Knapen_AOT/AOT_stimuli/rescaled_final/2055_rv.mp4	0.0	98.39977765083313	2.500440835952759
10	83.4291877746582	pulse	1	t		8.0	2.5	/experiments/Knapen_AOT/AOT_stimuli/rescaled_final/2055_rv.mp4	0.0	99.98367309570312	
10	84.34573316574097	fix_post	2		12	8.0	2.5	/experiments/Knapen_AOT/AOT_stimuli/rescaled_final/2055_rv.mp4	0.0	100.90021848678589	0.09999203681945801
11	84.44572520256042	fix_pre	0		120	9.0	2.5	/experiments/Knapen_AOT/AOT_stimuli/rescaled_final/2168_fw.mp4	0.0	101.00021052360535	1.0084741115570068
11	85.02954053878784	pulse	0	t		9.0	2.5	/experiments/Knapen_AOT/AOT_stimuli/rescaled_final/2168_fw.mp4	0.0	101.58402585983276	
11	85.45419931411743	movie	1		283	9.0	2.5	/experiments/Knapen_AOT/AOT_stimuli/rescaled_final/2168_fw.mp4	0.0	102.00868463516235	2.49212646484375
11	86.62790012359619	pulse	1	t		9.0	2.5	/experiments/Knapen_AOT/AOT_stimuli/rescaled_final/2168_fw.mp4	0.0	103.18238544464111	
11	87.94632577896118	fix_post	2		12	9.0	2.5	/experiments/Knapen_AOT/AOT_stimuli/rescaled_final/2168_fw.mp4	0.0	104.5008111000061	0.09991168975830078
12	88.04623746871948	fix_pre	0		120	10.0	2.5	/experiments/Knapen_AOT/AOT_stimuli/rescaled_final/1807_fw.mp4	0.0	104.6007227897644	1.0085346698760986
12	88.22977828979492	pulse	0	t		10.0	2.5	/experiments/Knapen_AOT/AOT_stimuli/rescaled_final/1807_fw.mp4	0.0	104.78426361083984	
12	89.05477213859558	movie	1		282	10.0	2.5	/experiments/Knapen_AOT/AOT_stimuli/rescaled_final/1807_fw.mp4	0.0	105.6092574596405	2.4919979572296143
12	89.82825374603271	pulse	1	t		10.0	2.5	/experiments/Knapen_AOT/AOT_stimuli/rescaled_final/1807_fw.mp4	0.0	106.38273906707764	
12	91.42850542068481	pulse	1	t		10.0	2.5	/experiments/Knapen_AOT/AOT_stimuli/rescaled_final/1807_fw.mp4	0.0	107.98299074172974	
12	91.5467700958252	fix_post	2		12	10.0	2.5	/experiments/Knapen_AOT/AOT_stimuli/rescaled_final/1807_fw.mp4	0.0	108.10125541687012	0.10000300407409668
13	91.64677309989929	fix_pre	0		120	11.0	2.5	/experiments/Knapen_AOT/AOT_stimuli/rescaled_final/0294_fw.mp4	0.0	108.20125842094421	1.0085783004760742
13	92.65535140037537	movie	1		278	11.0	2.5	/experiments/Knapen_AOT/AOT_stimuli/rescaled_final/0294_fw.mp4	0.0	109.20983672142029	2.4919397830963135
13	93.02905941009521	pulse	1	t		11.0	2.5	/experiments/Knapen_AOT/AOT_stimuli/rescaled_final/0294_fw.mp4	0.0	109.58354473114014	
13	94.62853479385376	pulse	1	t		11.0	2.5	/experiments/Knapen_AOT/AOT_stimuli/rescaled_final/0294_fw.mp4	0.0	111.18302011489868	
13	95.14729118347168	fix_post	2		12	11.0	2.5	/experiments/Knapen_AOT/AOT_stimuli/rescaled_final/0294_fw.mp4	0.0	111.7017765045166	0.10002994537353516
14	95.24732112884521	fix_pre	0		119	12.0	2.5	/experiments/Knapen_AOT/AOT_stimuli/rescaled_final/0159_fw.mp4	0.0	111.80180644989014	1.0001840591430664
14	96.23098802566528	pulse	0	t		12.0	2.5	/experiments/Knapen_AOT/AOT_stimuli/rescaled_final/0159_fw.mp4	0.0	112.7854733467102	
14	96.24750518798828	movie	1		280	12.0	2.5	/experiments/Knapen_AOT/AOT_stimuli/rescaled_final/0159_fw.mp4	0.0	112.8019905090332	2.5003528594970703
14	97.83014345169067	pulse	1	t		12.0	2.5	/experiments/Knapen_AOT/AOT_stimuli/rescaled_final/0159_fw.mp4	0.0	114.3846287727356	
14	98.74785804748535	fix_post	2		12	12.0	2.5	/experiments/Knapen_AOT/AOT_stimuli/rescaled_final/0159_fw.mp4	0.0	115.30234336853027	0.10001826286315918
15	98.84787631034851	fix_pre	0		120	13.0	2.5	/experiments/Knapen_AOT/AOT_stimuli/rescaled_final/1283_fw.mp4	0.0	115.40236163139343	1.0084798336029053
15	99.431467294693	pulse	0	t		13.0	2.5	/experiments/Knapen_AOT/AOT_stimuli/rescaled_final/1283_fw.mp4	0.0	115.98595261573792	
15	99.85635614395142	movie	1		275	13.0	2.5	/experiments/Knapen_AOT/AOT_stimuli/rescaled_final/1283_fw.mp4	0.0	116.41084146499634	2.4920735359191895
15	101.02956700325012	pulse	1	t		13.0	2.5	/experiments/Knapen_AOT/AOT_stimuli/rescaled_final/1283_fw.mp4	0.0	117.58405232429504	
15	102.3484296798706	fix_post	2		12	13.0	2.5	/experiments/Knapen_AOT/AOT_stimuli/rescaled_final/1283_fw.mp4	0.0	118.90291500091553	0.09996652603149414
16	102.4483962059021	fix_pre	0		120	14.0	2.5	blank	1.0	119.00288152694702	1.0001616477966309
16	102.6320378780365	pulse	0	t		14.0	2.5	blank	1.0	119.18652319908142	
16	103.44855785369873	movie	1		300	14.0	2.5	blank	1.0	120.00304317474365	2.5003693103790283
16	104.23222923278809	pulse	1	t		14.0	2.5	blank	1.0	120.78671455383301	
16	105.83244729042053	pulse	1	t		14.0	2.5	blank	1.0	122.38693261146545	
16	105.94892716407776	fix_post	2		12	14.0	2.5	blank	1.0	122.50341248512268	0.1000680923461914
17	106.04899525642395	fix_pre	0		120	15.0	2.5	/experiments/Knapen_AOT/AOT_stimuli/rescaled_final/0692_rv.mp4	0.0	122.60348057746887	1.008446216583252
17	107.0574414730072	movie	1		281	15.0	2.5	/experiments/Knapen_AOT/AOT_stimuli/rescaled_final/0692_rv.mp4	0.0	123.61192679405212	2.4920315742492676
17	107.43128800392151	pulse	1	t		15.0	2.5	/experiments/Knapen_AOT/AOT_stimuli/rescaled_final/0692_rv.mp4	0.0	123.98577332496643	
17	109.0312430858612	pulse	1	t		15.0	2.5	/experiments/Knapen_AOT/AOT_stimuli/rescaled_final/0692_rv.mp4	0.0	125.58572840690613	
17	109.54947304725647	fix_post	2		12	15.0	2.5	/experiments/Knapen_AOT/AOT_stimuli/rescaled_final/0692_rv.mp4	0.0	126.10395836830139	0.10010361671447754
18	109.64957666397095	fix_pre	0		119	16.0	2.5	/experiments/Knapen_AOT/AOT_stimuli/rescaled_final/1703_rv.mp4	0.0	126.20406198501587	1.0001530647277832
18	110.6332266330719	pulse	0	t		16.0	2.5	/experiments/Knapen_AOT/AOT_stimuli/rescaled_final/1703_rv.mp4	0.0	127.18771195411682	
18	110.64972972869873	movie	1		286	16.0	2.5	/experiments/Knapen_AOT/AOT_stimuli/rescaled_final/1703_rv.mp4	0.0	127.20421504974365	2.5002806186676025
18	112.23369288444519	pulse	1	t		16.0	2.5	/experiments/Knapen_AOT/AOT_stimuli/rescaled_final/1703_rv.mp4	0.0	128.7881782054901	
18	113.15001034736633	fix_post	2		12	16.0	2.5	/experiments/Knapen_AOT/AOT_stimuli/rescaled_final/1703_rv.mp4	0.0	129.70449566841125	0.1000669002532959
19	113.25007724761963	fix_pre	0		120	17.0	2.5	/experiments/Knapen_AOT/AOT_stimuli/rescaled_final/1888_rv.mp4	0.0	129.80456256866455	1.008448600769043
19	113.83365869522095	pulse	0	t		17.0	2.5	/experiments/Knapen_AOT/AOT_stimuli/rescaled_final/1888_rv.mp4	0.0	130.38814401626587	
19	114.25852584838867	movie	1		273	17.0	2.5	/experiments/Knapen_AOT/AOT_stimuli/rescaled_final/1888_rv.mp4	0.0	130.8130111694336	2.4920082092285156
19	115.43227791786194	pulse	1	t		17.0	2.5	/experiments/Knapen_AOT/AOT_stimuli/rescaled_final/1888_rv.mp4	0.0	131.98676323890686	
19	116.75053405761719	fix_post	2		12	17.0	2.5	/experiments/Knapen_AOT/AOT_stimuli/rescaled_final/1888_rv.mp4	0.0	133.3050193786621	0.10003447532653809
20	116.85056853294373	fix_pre	0		120	18.0	2.5	/experiments/Knapen_AOT/AOT_stimuli/rescaled_final/0400_rv.mp4	0.0	133.40505385398865	1.008481740951538
20	117.03412771224976	pulse	0	t		18.0	2.5	/experiments/Knapen_AOT/AOT_stimuli/rescaled_final/0400_rv.mp4	0.0	133.58861303329468	
20	117.85905027389526	movie	1		277	18.0	2.5	/experiments/Knapen_AOT/AOT_stimuli/rescaled_final/0400_rv.mp4	0.0	134.41353559494019	2.492086410522461
20	118.63231897354126	pulse	1	t		18.0	2.5	/experiments/Knapen_AOT/AOT_stimuli/rescaled_final/0400_rv.mp4	0.0	135.18680429458618	
20	120.23355340957642	pulse	1	t		18.0	2.5	/experiments/Knapen_AOT/AOT_stimuli/rescaled_final/0400_rv.mp4	0.0	136.78803873062134	
20	120.35113668441772	fix_post	2		12	18.0	2.5	/experiments/Knapen_AOT/AOT_stimuli/rescaled_final/0400_rv.mp4	0.0	136.90562200546265	0.09997963905334473
21	120.45111632347107	fix_pre	0		120	19.0	2.5	blank	1.0	137.005601644516	1.0001399517059326
21	121.451256275177	movie	1		300	19.0	2.5	blank	1.0	138.00574159622192	2.5003840923309326
21	121.82689118385315	pulse	1	t		19.0	2.5	blank	1.0	138.38137650489807	
21	123.4268217086792	pulse	1	t		19.0	2.5	blank	1.0	139.98130702972412	
21	123.95164036750793	fix_post	2		12	19.0	2.5	blank	1.0	140.50612568855286	0.10003280639648438
22	124.05167317390442	fix_pre	0		118	20.0	2.5	/experiments/Knapen_AOT/AOT_stimuli/rescaled_final/1629_fw.mp4	0.0	140.60615849494934	0.9918029308319092
22	125.02704119682312	pulse	0	t		20.0	2.5	/experiments/Knapen_AOT/AOT_stimuli/rescaled_final/1629_fw.mp4	0.0	141.58152651786804	
22	125.04347610473633	movie	1		286	20.0	2.5	/experiments/Knapen_AOT/AOT_stimuli/rescaled_final/1629_fw.mp4	0.0	141.59796142578125	2.5003602504730225
22	126.62732362747192	pulse	1	t		20.0	2.5	/experiments/Knapen_AOT/AOT_stimuli/rescaled_final/1629_fw.mp4	0.0	143.18180894851685	
22	127.54383635520935	fix_post	2		12	20.0	2.5	/experiments/Knapen_AOT/AOT_stimuli/rescaled_final/1629_fw.mp4	0.0	144.09832167625427	0.10002374649047852
23	127.64386010169983	fix_pre	0		120	21.0	2.5	/experiments/Knapen_AOT/AOT_stimuli/rescaled_final/1223_rv.mp4	0.0	144.19834542274475	1.0084869861602783
23	128.22749829292297	pulse	0	t		21.0	2.5	/experiments/Knapen_AOT/AOT_stimuli/rescaled_final/1223_rv.mp4	0.0	144.7819836139679	
23	128.6523470878601	movie	1		283	21.0	2.5	/experiments/Knapen_AOT/AOT_stimuli/rescaled_final/1223_rv.mp4	0.0	145.20683240890503	2.492033004760742
23	129.82778072357178	pulse	1	t		21.0	2.5	/experiments/Knapen_AOT/AOT_stimuli/rescaled_final/1223_rv.mp4	0.0	146.3822660446167	
23	131.14438009262085	fix_post	2		12	21.0	2.5	/experiments/Knapen_AOT/AOT_stimuli/rescaled_final/1223_rv.mp4	0.0	147.69886541366577	0.10003018379211426
24	131.24441027641296	fix_pre	0		120	22.0	2.5	/experiments/Knapen_AOT/AOT_stimuli/rescaled_final/1530_fw.mp4	0.0	147.79889559745789	1.008502721786499
24	131.42835760116577	pulse	0	t		22.0	2.5	/experiments/Knapen_AOT/AOT_stimuli/rescaled_final/1530_fw.mp4	0.0	147.9828429222107	
24	132.25291299819946	movie	1		275	22.0	2.5	/experiments/Knapen_AOT/AOT_stimuli/rescaled_final/1530_fw.mp4	0.0	148.80739831924438	2.4920132160186768
24	133.02820491790771	pulse	1	t		22.0	2.5	/experiments/Knapen_AOT/AOT_stimuli/rescaled_final/1530_fw.mp4	0.0	149.58269023895264	
24	134.62845277786255	pulse	1	t		22.0	2.5	/experiments/Knapen_AOT/AOT_stimuli/rescaled_final/1530_fw.mp4	0.0	151.18293809890747	
24	134.74492621421814	fix_post	2		12	22.0	2.5	/experiments/Knapen_AOT/AOT_stimuli/rescaled_final/1530_fw.mp4	0.0	151.29941153526306	0.10001754760742188
25	134.84494376182556	fix_pre	0		120	23.0	2.5	/experiments/Knapen_AOT/AOT_stimuli/rescaled_final/1409_rv.mp4	0.0	151.39942908287048	1.0085291862487793
25	135.85347294807434	movie	1		277	23.0	2.5	/experiments/Knapen_AOT/AOT_stimuli/rescaled_final/1409_rv.mp4	0.0	152.40795826911926	2.49202823638916
25	136.22747468948364	pulse	1	t		23.0	2.5	/experiments/Knapen_AOT/AOT_stimuli/rescaled_final/1409_rv.mp4	0.0	152.78196001052856	
25	137.8291792869568	pulse	1	t		23.0	2.5	/experiments/Knapen_AOT/AOT_stimuli/rescaled_final/1409_rv.mp4	0.0	154.3836646080017	
25	138.3455011844635	fix_post	2		12	23.0	2.5	/experiments/Knapen_AOT/AOT_stimuli/rescaled_final/1409_rv.mp4	0.0	154.89998650550842	0.1000204086303711
26	138.44552159309387	fix_pre	0		119	24.0	2.5	/experiments/Knapen_AOT/AOT_stimuli/rescaled_final/0566_rv.mp4	0.0	155.0000069141388	1.000112533569336
26	139.42930269241333	pulse	0	t		24.0	2.5	/experiments/Knapen_AOT/AOT_stimuli/rescaled_final/0566_rv.mp4	0.0	155.98378801345825	
26	139.4456341266632	movie	1		276	24.0	2.5	/experiments/Knapen_AOT/AOT_stimuli/rescaled_final/0566_rv.mp4	0.0	156.00011944770813	2.5003952980041504
26	141.02834367752075	pulse	1	t		24.0	2.5	/experiments/Knapen_AOT/AOT_stimuli/rescaled_final/0566_rv.mp4	0.0	157.58282899856567	
26	141.94602942466736	fix_post	2		12	24.0	2.5	/experiments/Knapen_AOT/AOT_stimuli/rescaled_final/0566_rv.mp4	0.0	158.50051474571228	0.09998965263366699
27	142.04601907730103	fix_pre	0		120	25.0	2.5	/experiments/Knapen_AOT/AOT_stimuli/rescaled_final/1530_fw.mp4	0.0	158.60050439834595	1.0084962844848633
27	142.62966752052307	pulse	0	t		25.0	2.5	/experiments/Knapen_AOT/AOT_stimuli/rescaled_final/1530_fw.mp4	0.0	159.184152841568	
27	143.0545153617859	movie	1		281	25.0	2.5	/experiments/Knapen_AOT/AOT_stimuli/rescaled_final/1530_fw.mp4	0.0	159.6090006828308	2.4920337200164795
27	144.2283535003662	pulse	1	t		25.0	2.5	/experiments/Knapen_AOT/AOT_stimuli/rescaled_final/1530_fw.mp4	0.0	160.78283882141113	
27	145.54654908180237	fix_post	2		12	25.0	2.5	/experiments/Knapen_AOT/AOT_stimuli/rescaled_final/1530_fw.mp4	0.0	162.1010344028473	0.1000368595123291
28	145.6465859413147	fix_pre	0		120	26.0	2.5	/experiments/Knapen_AOT/AOT_stimuli/rescaled_final/1708_fw.mp4	0.0	162.20107126235962	1.0085418224334717
28	145.83011436462402	pulse	0	t		26.0	2.5	/experiments/Knapen_AOT/AOT_stimuli/rescaled_final/1708_fw.mp4	0.0	162.38459968566895	
28	146.65512776374817	movie	1		281	26.0	2.5	/experiments/Knapen_AOT/AOT_stimuli/rescaled_final/1708_fw.mp4	0.0	163.2096130847931	2.4919698238372803
28	147.42830896377563	pulse	1	t		26.0	2.5	/experiments/Knapen_AOT/AOT_stimuli/rescaled_final/1708_fw.mp4	0.0	163.98279428482056	
28	149.02866792678833	pulse	1	t		26.0	2.5	/experiments/Knapen_AOT/AOT_stimuli/rescaled_final/1708_fw.mp4	0.0	165.58315324783325	
28	149.14709758758545	fix_post	2		12	26.0	2.5	/experiments/Knapen_AOT/AOT_stimuli/rescaled_final/1708_fw.mp4	0.0	165.70158290863037	0.1000216007232666
29	149.24711918830872	fix_pre	0		120	27.0	2.5	/experiments/Knapen_AOT/AOT_stimuli/rescaled_final/0438_fw.mp4	0.0	165.80160450935364	1.0084972381591797
29	150.2556164264679	movie	1		280	27.0	2.5	/experiments/Knapen_AOT/AOT_stimuli/rescaled_final/0438_fw.mp4	0.0	166.81010174751282	2.492039680480957
29	150.63000011444092	pulse	1	t		27.0	2.5	/experiments/Knapen_AOT/AOT_stimuli/rescaled_final/0438_fw.mp4	0.0	167.18448543548584	
29	152.23079085350037	pulse	1	t		27.0	2.5	/experiments/Knapen_AOT/AOT_stimuli/rescaled_final/0438_fw.mp4	0.0	168.7852761745453	
29	152.74765610694885	fix_post	2		12	27.0	2.5	/experiments/Knapen_AOT/AOT_stimuli/rescaled_final/0438_fw.mp4	0.0	169.30214142799377	0.1000816822052002
30	152.84773778915405	fix_pre	0		119	28.0	2.5	blank	1.0	169.40222311019897	0.9917111396789551
30	153.831538438797	pulse	0	t		28.0	2.5	blank	1.0	170.38602375984192	
30	153.839448928833	movie	1		301	28.0	2.5	blank	1.0	170.39393424987793	2.508763313293457
30	155.43208956718445	pulse	1	t		28.0	2.5	blank	1.0	171.98657488822937	
30	156.34821224212646	fix_post	2		12	28.0	2.5	blank	1.0	172.9026975631714	0.09997940063476562
31	156.44819164276123	fix_pre	0		120	29.0	2.5	/experiments/Knapen_AOT/AOT_stimuli/rescaled_final/0877_fw.mp4	0.0	173.00267696380615	1.0085468292236328
31	157.0318455696106	pulse	0	t		29.0	2.5	/experiments/Knapen_AOT/AOT_stimuli/rescaled_final/0877_fw.mp4	0.0	173.58633089065552	
31	157.45673847198486	movie	1		279	29.0	2.5	/experiments/Knapen_AOT/AOT_stimuli/rescaled_final/0877_fw.mp4	0.0	174.01122379302979	2.4920637607574463
31	158.63027787208557	pulse	1	t		29.0	2.5	/experiments/Knapen_AOT/AOT_stimuli/rescaled_final/0877_fw.mp4	0.0	175.1847631931305	
31	159.9488022327423	fix_post	2		12	29.0	2.5	/experiments/Knapen_AOT/AOT_stimuli/rescaled_final/0877_fw.mp4	0.0	176.50328755378723	0.10008811950683594
32	160.04889035224915	fix_pre	0		120	30.0	2.5	/experiments/Knapen_AOT/AOT_stimuli/rescaled_final/2001_fw.mp4	0.0	176.60337567329407	1.008316993713379
32	160.23227977752686	pulse	0	t		30.0	2.5	/experiments/Knapen_AOT/AOT_stimuli/rescaled_final/2001_fw.mp4	0.0	176.78676509857178	
32	161.05720734596252	movie	1		278	30.0	2.5	/experiments/Knapen_AOT/AOT_stimuli/rescaled_final/2001_fw.mp4	0.0	177.61169266700745	2.492044448852539
32	161.83091855049133	pulse	1	t		30.0	2.5	/experiments/Knapen_AOT/AOT_stimuli/rescaled_final/2001_fw.mp4	0.0	178.38540387153625	
32	163.43068838119507	pulse	1	t		30.0	2.5	/experiments/Knapen_AOT/AOT_stimuli/rescaled_final/2001_fw.mp4	0.0	179.98517370224	
32	163.54925179481506	fix_post	2		12	30.0	2.5	/experiments/Knapen_AOT/AOT_stimuli/rescaled_final/2001_fw.mp4	0.0	180.10373711585999	0.1000218391418457
33	163.6492736339569	fix_pre	0		120	31.0	2.5	/experiments/Knapen_AOT/AOT_stimuli/rescaled_final/0137_rv.mp4	0.0	180.20375895500183	1.0085039138793945
33	164.6577775478363	movie	1		284	31.0	2.5	/experiments/Knapen_AOT/AOT_stimuli/rescaled_final/0137_rv.mp4	0.0	181.21226286888123	2.492060422897339
33	165.03255152702332	pulse	1	t		31.0	2.5	/experiments/Knapen_AOT/AOT_stimuli/rescaled_final/0137_rv.mp4	0.0	181.58703684806824	
33	166.63113141059875	pulse	1	t		31.0	2.5	/experiments/Knapen_AOT/AOT_stimuli/rescaled_final/0137_rv.mp4	0.0	183.18561673164368	
33	167.14983797073364	fix_post	2		12	31.0	2.5	/experiments/Knapen_AOT/AOT_stimuli/rescaled_final/0137_rv.mp4	0.0	183.70432329177856	0.0999908447265625
34	167.2498288154602	fix_pre	0		119	32.0	2.5	/experiments/Knapen_AOT/AOT_stimuli/rescaled_final/1051_rv.mp4	0.0	183.80431413650513	1.0001342296600342
34	168.2335011959076	pulse	0	t		32.0	2.5	/experiments/Knapen_AOT/AOT_stimuli/rescaled_final/1051_rv.mp4	0.0	184.78798651695251	
34	168.24996304512024	movie	1		268	32.0	2.5	/experiments/Knapen_AOT/AOT_stimuli/rescaled_final/1051_rv.mp4	0.0	184.80444836616516	2.500369071960449
34	169.83248233795166	pulse	1	t		32.0	2.5	/experiments/Knapen_AOT/AOT_stimuli/rescaled_final/1051_rv.mp4	0.0	186.38696765899658	
34	170.7503321170807	fix_post	2		12	32.0	2.5	/experiments/Knapen_AOT/AOT_stimuli/rescaled_final/1051_rv.mp4	0.0	187.3048174381256	0.10002446174621582
35	170.8503565788269	fix_pre	0		120	33.0	2.5	/experiments/Knapen_AOT/AOT_stimuli/rescaled_final/0491_rv.mp4	0.0	187.40484189987183	1.0086479187011719
35	171.43416094779968	pulse	0	t		33.0	2.5	/experiments/Knapen_AOT/AOT_stimuli/rescaled_final/0491_rv.mp4	0.0	187.9886462688446	
35	171.85900449752808	movie	1		278	33.0	2.5	/experiments/Knapen_AOT/AOT_stimuli/rescaled_final/0491_rv.mp4	0.0	188.413489818573	2.4919028282165527
35	173.0345561504364	pulse	1	t		33.0	2.5	/experiments/Knapen_AOT/AOT_stimuli/rescaled_final/0491_rv.mp4	0.0	189.58904147148132	
35	174.35090732574463	fix_post	2		12	33.0	2.5	/experiments/Knapen_AOT/AOT_stimuli/rescaled_final/0491_rv.mp4	0.0	190.90539264678955	0.09998703002929688
36	174.45089435577393	fix_pre	0		120	34.0	2.5	/experiments/Knapen_AOT/AOT_stimuli/rescaled_final/0088_fw.mp4	0.0	191.00537967681885	1.0085055828094482
36	174.63463020324707	pulse	0	t		34.0	2.5	/experiments/Knapen_AOT/AOT_stimuli/rescaled_final/0088_fw.mp4	0.0	191.189115524292	
36	175.45939993858337	movie	1		289	34.0	2.5	/experiments/Knapen_AOT/AOT_stimuli/rescaled_final/0088_fw.mp4	0.0	192.0138852596283	2.4920406341552734
36	176.23326921463013	pulse	1	t		34.0	2.5	/experiments/Knapen_AOT/AOT_stimuli/rescaled_final/0088_fw.mp4	0.0	192.78775453567505	
36	177.83320355415344	pulse	1	t		34.0	2.5	/experiments/Knapen_AOT/AOT_stimuli/rescaled_final/0088_fw.mp4	0.0	194.38768887519836	
36	177.95144057273865	fix_post	2		12	34.0	2.5	/experiments/Knapen_AOT/AOT_stimuli/rescaled_final/0088_fw.mp4	0.0	194.50592589378357	0.10000014305114746
37	178.0514407157898	fix_pre	0		120	35.0	2.5	blank	1.0	194.60592603683472	1.0001447200775146
37	179.0515854358673	movie	1		300	35.0	2.5	blank	1.0	195.60607075691223	2.5004260540008545
37	179.4274764060974	pulse	1	t		35.0	2.5	blank	1.0	195.98196172714233	
37	181.02751803398132	pulse	1	t		35.0	2.5	blank	1.0	197.58200335502625	
37	181.55201148986816	fix_post	2		12	35.0	2.5	blank	1.0	198.1064968109131	0.09998250007629395
38	181.65199398994446	fix_pre	0		118	36.0	2.5	/experiments/Knapen_AOT/AOT_stimuli/rescaled_final/0458_fw.mp4	0.0	198.20647931098938	1.000166654586792
38	182.627347946167	pulse	0	t		36.0	2.5	/experiments/Knapen_AOT/AOT_stimuli/rescaled_final/0458_fw.mp4	0.0	199.1818332672119	
38	182.65216064453125	movie	1		275	36.0	2.5	/experiments/Knapen_AOT/AOT_stimuli/rescaled_final/0458_fw.mp4	0.0	199.20664596557617	2.4920494556427
38	184.22766184806824	pulse	1	t		36.0	2.5	/experiments/Knapen_AOT/AOT_stimuli/rescaled_final/0458_fw.mp4	0.0	200.78214716911316	
38	185.14421010017395	fix_post	2		12	36.0	2.5	/experiments/Knapen_AOT/AOT_stimuli/rescaled_final/0458_fw.mp4	0.0	201.69869542121887	0.1000223159790039
39	185.24423241615295	fix_pre	0		120	37.0	2.5	/experiments/Knapen_AOT/AOT_stimuli/rescaled_final/2089_rv.mp4	0.0	201.79871773719788	1.0084788799285889
39	185.82785177230835	pulse	0	t		37.0	2.5	/experiments/Knapen_AOT/AOT_stimuli/rescaled_final/2089_rv.mp4	0.0	202.38233709335327	
39	186.25271129608154	movie	1		270	37.0	2.5	/experiments/Knapen_AOT/AOT_stimuli/rescaled_final/2089_rv.mp4	0.0	202.80719661712646	2.4920132160186768
39	187.42877101898193	pulse	1	t		37.0	2.5	/experiments/Knapen_AOT/AOT_stimuli/rescaled_final/2089_rv.mp4	0.0	203.98325634002686	
39	188.74472451210022	fix_post	2		12	37.0	2.5	/experiments/Knapen_AOT/AOT_stimuli/rescaled_final/2089_rv.mp4	0.0	205.29920983314514	0.10001397132873535
40	188.84473848342896	fix_pre	0		120	38.0	2.5	/experiments/Knapen_AOT/AOT_stimuli/rescaled_final/1329_rv.mp4	0.0	205.39922380447388	1.0085060596466064
40	189.028329372406	pulse	0	t		38.0	2.5	/experiments/Knapen_AOT/AOT_stimuli/rescaled_final/1329_rv.mp4	0.0	205.58281469345093	
40	189.85324454307556	movie	1		275	38.0	2.5	/experiments/Knapen_AOT/AOT_stimuli/rescaled_final/1329_rv.mp4	0.0	206.40772986412048	2.4920434951782227
40	190.62740445137024	pulse	1	t		38.0	2.5	/experiments/Knapen_AOT/AOT_stimuli/rescaled_final/1329_rv.mp4	0.0	207.18188977241516	
40	192.22897124290466	pulse	1	t		38.0	2.5	/experiments/Knapen_AOT/AOT_stimuli/rescaled_final/1329_rv.mp4	0.0	208.78345656394958	
40	192.34528803825378	fix_post	2		12	38.0	2.5	/experiments/Knapen_AOT/AOT_stimuli/rescaled_final/1329_rv.mp4	0.0	208.8997733592987	0.10001158714294434
41	192.44529962539673	fix_pre	0		120	39.0	2.5	/experiments/Knapen_AOT/AOT_stimuli/rescaled_final/0339_rv.mp4	0.0	208.99978494644165	1.0085241794586182
41	193.45382380485535	movie	1		277	39.0	2.5	/experiments/Knapen_AOT/AOT_stimuli/rescaled_final/0339_rv.mp4	0.0	210.00830912590027	2.491999387741089
41	193.8275489807129	pulse	1	t		39.0	2.5	/experiments/Knapen_AOT/AOT_stimuli/rescaled_final/0339_rv.mp4	0.0	210.3820343017578	
41	195.4276852607727	pulse	1	t		39.0	2.5	/experiments/Knapen_AOT/AOT_stimuli/rescaled_final/0339_rv.mp4	0.0	211.98217058181763	
41	195.94582319259644	fix_post	2		12	39.0	2.5	/experiments/Knapen_AOT/AOT_stimuli/rescaled_final/0339_rv.mp4	0.0	212.50030851364136	0.10009956359863281
42	196.04592275619507	fix_pre	0		119	40.0	2.5	/experiments/Knapen_AOT/AOT_stimuli/rescaled_final/1846_rv.mp4	0.0	212.60040807724	1.0000486373901367
42	197.02962017059326	pulse	0	t		40.0	2.5	/experiments/Knapen_AOT/AOT_stimuli/rescaled_final/1846_rv.mp4	0.0	213.58410549163818	
42	197.0459713935852	movie	1		283	40.0	2.5	/experiments/Knapen_AOT/AOT_stimuli/rescaled_final/1846_rv.mp4	0.0	213.60045671463013	2.500379800796509
42	198.62911105155945	pulse	1	t		40.0	2.5	/experiments/Knapen_AOT/AOT_stimuli/rescaled_final/1846_rv.mp4	0.0	215.18359637260437	
42	199.5463511943817	fix_post	2		12	40.0	2.5	/experiments/Knapen_AOT/AOT_stimuli/rescaled_final/1846_rv.mp4	0.0	216.10083651542664	0.10002493858337402
43	199.6463761329651	fix_pre	0		120	41.0	2.5	blank	1.0	216.20086145401	1.0001206398010254
43	200.23002243041992	pulse	0	t		41.0	2.5	blank	1.0	216.78450775146484	
43	200.6464967727661	movie	1		300	41.0	2.5	blank	1.0	217.20098209381104	2.500389814376831
43	201.83046340942383	pulse	1	t		41.0	2.5	blank	1.0	218.38494873046875	
43	203.14688658714294	fix_post	2		12	41.0	2.5	blank	1.0	219.70137190818787	0.10000419616699219
44	203.24689078330994	fix_pre	0		120	42.0	2.5	/experiments/Knapen_AOT/AOT_stimuli/rescaled_final/2076_rv.mp4	0.0	219.80137610435486	1.0084984302520752
44	203.43047070503235	pulse	0	t		42.0	2.5	/experiments/Knapen_AOT/AOT_stimuli/rescaled_final/2076_rv.mp4	0.0	219.98495602607727	
44	204.255389213562	movie	1		285	42.0	2.5	/experiments/Knapen_AOT/AOT_stimuli/rescaled_final/2076_rv.mp4	0.0	220.80987453460693	2.492048740386963
44	205.02959442138672	pulse	1	t		42.0	2.5	/experiments/Knapen_AOT/AOT_stimuli/rescaled_final/2076_rv.mp4	0.0	221.58407974243164	
44	206.62884283065796	pulse	1	t		42.0	2.5	/experiments/Knapen_AOT/AOT_stimuli/rescaled_final/2076_rv.mp4	0.0	223.18332815170288	
44	206.74743795394897	fix_post	2		12	42.0	2.5	/experiments/Knapen_AOT/AOT_stimuli/rescaled_final/2076_rv.mp4	0.0	223.3019232749939	0.10831832885742188
45	206.8557562828064	fix_pre	0		119	43.0	2.5	/experiments/Knapen_AOT/AOT_stimuli/rescaled_final/0018_rv.mp4	0.0	223.41024160385132	1.0001709461212158
45	207.8559272289276	movie	1		286	43.0	2.5	/experiments/Knapen_AOT/AOT_stimuli/rescaled_final/0018_rv.mp4	0.0	224.41041254997253	2.4920263290405273
45	208.22947573661804	pulse	1	t		43.0	2.5	/experiments/Knapen_AOT/AOT_stimuli/rescaled_final/0018_rv.mp4	0.0	224.78396105766296	
45	209.83154010772705	pulse	1	t		43.0	2.5	/experiments/Knapen_AOT/AOT_stimuli/rescaled_final/0018_rv.mp4	0.0	226.38602542877197	
45	210.34795355796814	fix_post	2		12	43.0	2.5	/experiments/Knapen_AOT/AOT_stimuli/rescaled_final/0018_rv.mp4	0.0	226.90243887901306	0.10007548332214355
46	210.44802904129028	fix_pre	0		119	44.0	2.5	/experiments/Knapen_AOT/AOT_stimuli/rescaled_final/1300_rv.mp4	0.0	227.0025143623352	1.0084774494171143
46	211.43164610862732	pulse	0	t		44.0	2.5	/experiments/Knapen_AOT/AOT_stimuli/rescaled_final/1300_rv.mp4	0.0	227.98613142967224	
46	211.4565064907074	movie	1		285	44.0	2.5	/experiments/Knapen_AOT/AOT_stimuli/rescaled_final/1300_rv.mp4	0.0	228.01099181175232	2.5005276203155518
46	213.03063201904297	pulse	1	t		44.0	2.5	/experiments/Knapen_AOT/AOT_stimuli/rescaled_final/1300_rv.mp4	0.0	229.5851173400879	
46	213.95703411102295	fix_post	2		11	44.0	2.5	/experiments/Knapen_AOT/AOT_stimuli/rescaled_final/1300_rv.mp4	0.0	230.51151943206787	0.0914926528930664
47	214.04852676391602	fix_pre	0		120	45.0	2.5	/experiments/Knapen_AOT/AOT_stimuli/rescaled_final/0588_fw.mp4	0.0	230.60301208496094	1.0085947513580322
47	214.6324143409729	pulse	0	t		45.0	2.5	/experiments/Knapen_AOT/AOT_stimuli/rescaled_final/0588_fw.mp4	0.0	231.18689966201782	
47	215.05712151527405	movie	1		282	45.0	2.5	/experiments/Knapen_AOT/AOT_stimuli/rescaled_final/0588_fw.mp4	0.0	231.61160683631897	2.4919254779815674
47	216.2328860759735	pulse	1	t		45.0	2.5	/experiments/Knapen_AOT/AOT_stimuli/rescaled_final/0588_fw.mp4	0.0	232.78737139701843	
47	217.54904699325562	fix_post	2		12	45.0	2.5	/experiments/Knapen_AOT/AOT_stimuli/rescaled_final/0588_fw.mp4	0.0	234.10353231430054	0.10008931159973145
48	217.64913630485535	fix_pre	0		119	46.0	2.5	/experiments/Knapen_AOT/AOT_stimuli/rescaled_final/1946_fw.mp4	0.0	234.20362162590027	1.0084383487701416
48	217.83269596099854	pulse	0	t		46.0	2.5	/experiments/Knapen_AOT/AOT_stimuli/rescaled_final/1946_fw.mp4	0.0	234.38718128204346	
48	218.6575746536255	movie	1		257	46.0	2.5	/experiments/Knapen_AOT/AOT_stimuli/rescaled_final/1946_fw.mp4	0.0	235.2120599746704	2.492021083831787
48	219.43137788772583	pulse	1	t		46.0	2.5	/experiments/Knapen_AOT/AOT_stimuli/rescaled_final/1946_fw.mp4	0.0	235.98586320877075	
48	221.03164672851562	pulse	1	t		46.0	2.5	/experiments/Knapen_AOT/AOT_stimuli/rescaled_final/1946_fw.mp4	0.0	237.58613204956055	
48	221.14959573745728	fix_post	2		12	46.0	2.5	/experiments/Knapen_AOT/AOT_stimuli/rescaled_final/1946_fw.mp4	0.0	237.7040810585022	0.1000063419342041
49	221.24960207939148	fix_pre	0		120	47.0	2.5	/experiments/Knapen_AOT/AOT_stimuli/rescaled_final/0452_rv.mp4	0.0	237.8040874004364	1.008531093597412
49	222.2581331729889	movie	1		279	47.0	2.5	/experiments/Knapen_AOT/AOT_stimuli/rescaled_final/0452_rv.mp4	0.0	238.8126184940338	2.491985559463501
49	222.6318554878235	pulse	1	t		47.0	2.5	/experiments/Knapen_AOT/AOT_stimuli/rescaled_final/0452_rv.mp4	0.0	239.1863408088684	
49	224.2320272922516	pulse	1	t		47.0	2.5	/experiments/Knapen_AOT/AOT_stimuli/rescaled_final/0452_rv.mp4	0.0	240.7865126132965	
49	224.7501187324524	fix_post	2		12	47.0	2.5	/experiments/Knapen_AOT/AOT_stimuli/rescaled_final/0452_rv.mp4	0.0	241.30460405349731	0.10002350807189941
50	224.8501422405243	fix_pre	0		119	48.0	2.5	blank	1.0	241.4046275615692	0.9918923377990723
50	225.83414220809937	pulse	0	t		48.0	2.5	blank	1.0	242.3886275291443	
50	225.84203457832336	movie	1		301	48.0	2.5	blank	1.0	242.3965198993683	2.5086469650268555
50	227.4342701435089	pulse	1	t		48.0	2.5	blank	1.0	243.98875546455383	
50	228.35068154335022	fix_post	2		12	48.0	2.5	blank	1.0	244.90516686439514	0.10004258155822754
51	228.45072412490845	fix_pre	0		120	49.0	2.5	/experiments/Knapen_AOT/AOT_stimuli/rescaled_final/0644_fw.mp4	0.0	245.00520944595337	1.0084457397460938
51	229.03477096557617	pulse	0	t		49.0	2.5	/experiments/Knapen_AOT/AOT_stimuli/rescaled_final/0644_fw.mp4	0.0	245.5892562866211	
51	229.45916986465454	movie	1		280	49.0	2.5	/experiments/Knapen_AOT/AOT_stimuli/rescaled_final/0644_fw.mp4	0.0	246.01365518569946	2.4920475482940674
51	230.63299822807312	pulse	1	t		49.0	2.5	/experiments/Knapen_AOT/AOT_stimuli/rescaled_final/0644_fw.mp4	0.0	247.18748354911804	
51	231.9512174129486	fix_post	2		12	49.0	2.5	/experiments/Knapen_AOT/AOT_stimuli/rescaled_final/0644_fw.mp4	0.0	248.50570273399353	0.10001158714294434
52	232.05122900009155	fix_pre	0		120	50.0	2.5	/experiments/Knapen_AOT/AOT_stimuli/rescaled_final/1333_rv.mp4	0.0	248.60571432113647	1.00858736038208
52	232.22677087783813	pulse	0	t		50.0	2.5	/experiments/Knapen_AOT/AOT_stimuli/rescaled_final/1333_rv.mp4	0.0	248.78125619888306	
52	233.05981636047363	movie	1		262	50.0	2.5	/experiments/Knapen_AOT/AOT_stimuli/rescaled_final/1333_rv.mp4	0.0	249.61430168151855	2.491945743560791
52	233.835284948349	pulse	1	t		50.0	2.5	/experiments/Knapen_AOT/AOT_stimuli/rescaled_final/1333_rv.mp4	0.0	250.38977026939392	
52	235.42705702781677	pulse	1	t		50.0	2.5	/experiments/Knapen_AOT/AOT_stimuli/rescaled_final/1333_rv.mp4	0.0	251.9815423488617	
52	235.55176210403442	fix_post	2		12	50.0	2.5	/experiments/Knapen_AOT/AOT_stimuli/rescaled_final/1333_rv.mp4	0.0	252.10624742507935	0.10002613067626953
53	235.6517882347107	fix_pre	0		120	51.0	2.5	/experiments/Knapen_AOT/AOT_stimuli/rescaled_final/1912_fw.mp4	0.0	252.20627355575562	1.008535623550415
53	236.6603238582611	movie	1		271	51.0	2.5	/experiments/Knapen_AOT/AOT_stimuli/rescaled_final/1912_fw.mp4	0.0	253.21480917930603	2.4920198917388916
53	237.0273220539093	pulse	1	t		51.0	2.5	/experiments/Knapen_AOT/AOT_stimuli/rescaled_final/1912_fw.mp4	0.0	253.58180737495422	
53	238.62755036354065	pulse	1	t		51.0	2.5	/experiments/Knapen_AOT/AOT_stimuli/rescaled_final/1912_fw.mp4	0.0	255.18203568458557	
53	239.15234375	fix_post	2		12	51.0	2.5	/experiments/Knapen_AOT/AOT_stimuli/rescaled_final/1912_fw.mp4	0.0	255.70682907104492	0.09996342658996582
54	239.25230717658997	fix_pre	0		118	52.0	2.5	/experiments/Knapen_AOT/AOT_stimuli/rescaled_final/0270_rv.mp4	0.0	255.8067924976349	0.9918503761291504
54	240.22784090042114	pulse	0	t		52.0	2.5	/experiments/Knapen_AOT/AOT_stimuli/rescaled_final/0270_rv.mp4	0.0	256.78232622146606	
54	240.24415755271912	movie	1		273	52.0	2.5	/experiments/Knapen_AOT/AOT_stimuli/rescaled_final/0270_rv.mp4	0.0	256.79864287376404	2.500345468521118
54	241.82746815681458	pulse	1	t		52.0	2.5	/experiments/Knapen_AOT/AOT_stimuli/rescaled_final/0270_rv.mp4	0.0	258.3819534778595	
54	242.74450302124023	fix_post	2		12	52.0	2.5	/experiments/Knapen_AOT/AOT_stimuli/rescaled_final/0270_rv.mp4	0.0	259.29898834228516	0.10001373291015625
55	242.8445167541504	fix_pre	0		120	53.0	2.5	/experiments/Knapen_AOT/AOT_stimuli/rescaled_final/0583_rv.mp4	0.0	259.3990020751953	1.0085344314575195
55	243.42820143699646	pulse	0	t		53.0	2.5	/experiments/Knapen_AOT/AOT_stimuli/rescaled_final/0583_rv.mp4	0.0	259.9826867580414	
55	243.8530511856079	movie	1		268	53.0	2.5	/experiments/Knapen_AOT/AOT_stimuli/rescaled_final/0583_rv.mp4	0.0	260.40753650665283	2.49198055267334
55	245.0276551246643	pulse	1	t		53.0	2.5	/experiments/Knapen_AOT/AOT_stimuli/rescaled_final/0583_rv.mp4	0.0	261.58214044570923	
55	246.34503173828125	fix_post	2		12	53.0	2.5	/experiments/Knapen_AOT/AOT_stimuli/rescaled_final/0583_rv.mp4	0.0	262.8995170593262	0.10008525848388672
56	246.44511699676514	fix_pre	0		120	54.0	2.5	/experiments/Knapen_AOT/AOT_stimuli/rescaled_final/0036_rv.mp4	0.0	262.99960231781006	1.008450984954834
56	246.62874937057495	pulse	0	t		54.0	2.5	/experiments/Knapen_AOT/AOT_stimuli/rescaled_final/0036_rv.mp4	0.0	263.1832346916199	
56	247.45356798171997	movie	1		278	54.0	2.5	/experiments/Knapen_AOT/AOT_stimuli/rescaled_final/0036_rv.mp4	0.0	264.0080533027649	2.4920175075531006
56	248.2283320426941	pulse	1	t		54.0	2.5	/experiments/Knapen_AOT/AOT_stimuli/rescaled_final/0036_rv.mp4	0.0	264.782817363739	
56	249.82743859291077	pulse	1	t		54.0	2.5	/experiments/Knapen_AOT/AOT_stimuli/rescaled_final/0036_rv.mp4	0.0	266.3819239139557	
56	249.94558548927307	fix_post	2		12	54.0	2.5	/experiments/Knapen_AOT/AOT_stimuli/rescaled_final/0036_rv.mp4	0.0	266.500070810318	0.10003471374511719
57	250.0456202030182	fix_pre	0		120	55.0	2.5	blank	1.0	266.6001055240631	1.0001249313354492
57	251.04574513435364	movie	1		300	55.0	2.5	blank	1.0	267.60023045539856	2.5003867149353027
57	251.42935180664062	pulse	1	t		55.0	2.5	blank	1.0	267.98383712768555	
57	253.0295844078064	pulse	1	t		55.0	2.5	blank	1.0	269.5840697288513	
57	253.54613184928894	fix_post	2		12	55.0	2.5	blank	1.0	270.10061717033386	0.1000070571899414
58	253.64613890647888	fix_pre	0		119	56.0	2.5	/experiments/Knapen_AOT/AOT_stimuli/rescaled_final/1742_fw.mp4	0.0	270.2006242275238	1.000154733657837
58	254.62983655929565	pulse	0	t		56.0	2.5	/experiments/Knapen_AOT/AOT_stimuli/rescaled_final/1742_fw.mp4	0.0	271.1843218803406	
58	254.64629364013672	movie	1		269	56.0	2.5	/experiments/Knapen_AOT/AOT_stimuli/rescaled_final/1742_fw.mp4	0.0	271.20077896118164	2.5003738403320312
58	256.22874665260315	pulse	1	t		56.0	2.5	/experiments/Knapen_AOT/AOT_stimuli/rescaled_final/1742_fw.mp4	0.0	272.78323197364807	
58	257.14666748046875	fix_post	2		12	56.0	2.5	/experiments/Knapen_AOT/AOT_stimuli/rescaled_final/1742_fw.mp4	0.0	273.7011528015137	0.10002684593200684
59	257.24669432640076	fix_pre	0		120	57.0	2.5	/experiments/Knapen_AOT/AOT_stimuli/rescaled_final/0339_fw.mp4	0.0	273.8011796474457	1.008523941040039
59	257.83033871650696	pulse	0	t		57.0	2.5	/experiments/Knapen_AOT/AOT_stimuli/rescaled_final/0339_fw.mp4	0.0	274.3848240375519	
59	258.2552182674408	movie	1		268	57.0	2.5	/experiments/Knapen_AOT/AOT_stimuli/rescaled_final/0339_fw.mp4	0.0	274.8097035884857	2.49198317527771
59	259.42902088165283	pulse	1	t		57.0	2.5	/experiments/Knapen_AOT/AOT_stimuli/rescaled_final/0339_fw.mp4	0.0	275.98350620269775	
59	260.7472014427185	fix_post	2		12	57.0	2.5	/experiments/Knapen_AOT/AOT_stimuli/rescaled_final/0339_fw.mp4	0.0	277.3016867637634	0.09999322891235352
60	260.84719467163086	fix_pre	0		120	58.0	2.5	/experiments/Knapen_AOT/AOT_stimuli/rescaled_final/1237_rv.mp4	0.0	277.4016799926758	1.008570671081543
60	261.0308794975281	pulse	0	t		58.0	2.5	/experiments/Knapen_AOT/AOT_stimuli/rescaled_final/1237_rv.mp4	0.0	277.585364818573	
60	261.8557653427124	movie	1		278	58.0	2.5	/experiments/Knapen_AOT/AOT_stimuli/rescaled_final/1237_rv.mp4	0.0	278.4102506637573	2.4920201301574707
60	262.628968000412	pulse	1	t		58.0	2.5	/experiments/Knapen_AOT/AOT_stimuli/rescaled_final/1237_rv.mp4	0.0	279.1834533214569	
60	264.2292263507843	pulse	1	t		58.0	2.5	/experiments/Knapen_AOT/AOT_stimuli/rescaled_final/1237_rv.mp4	0.0	280.7837116718292	
60	264.3477854728699	fix_post	2		12	58.0	2.5	/experiments/Knapen_AOT/AOT_stimuli/rescaled_final/1237_rv.mp4	0.0	280.9022707939148	0.09998822212219238
61	264.44777369499207	fix_pre	0		120	59.0	2.5	/experiments/Knapen_AOT/AOT_stimuli/rescaled_final/0776_fw.mp4	0.0	281.002259016037	1.0084919929504395
61	265.4562656879425	movie	1		271	59.0	2.5	/experiments/Knapen_AOT/AOT_stimuli/rescaled_final/0776_fw.mp4	0.0	282.0107510089874	2.492034673690796
61	265.82954931259155	pulse	1	t		59.0	2.5	/experiments/Knapen_AOT/AOT_stimuli/rescaled_final/0776_fw.mp4	0.0	282.3840346336365	
61	267.4297454357147	pulse	1	t		59.0	2.5	/experiments/Knapen_AOT/AOT_stimuli/rescaled_final/0776_fw.mp4	0.0	283.98423075675964	
61	267.9483003616333	fix_post	2		12	59.0	2.5	/experiments/Knapen_AOT/AOT_stimuli/rescaled_final/0776_fw.mp4	0.0	284.5027856826782	0.0999915599822998
62	268.0482919216156	fix_pre	0		119	60.0	2.5	/experiments/Knapen_AOT/AOT_stimuli/rescaled_final/0692_fw.mp4	0.0	284.6027772426605	1.000119686126709
62	269.0320565700531	pulse	0	t		60.0	2.5	/experiments/Knapen_AOT/AOT_stimuli/rescaled_final/0692_fw.mp4	0.0	285.586541891098	
62	269.0484116077423	movie	1		277	60.0	2.5	/experiments/Knapen_AOT/AOT_stimuli/rescaled_final/0692_fw.mp4	0.0	285.60289692878723	2.5004444122314453
62	270.6310451030731	pulse	1	t		60.0	2.5	/experiments/Knapen_AOT/AOT_stimuli/rescaled_final/0692_fw.mp4	0.0	287.18553042411804	
62	271.54885601997375	fix_post	2		12	60.0	2.5	/experiments/Knapen_AOT/AOT_stimuli/rescaled_final/0692_fw.mp4	0.0	288.1033413410187	0.10000443458557129
63	271.6488604545593	fix_pre	0		120	61.0	2.5	blank	1.0	288.20334577560425	1.0001304149627686
63	272.2326693534851	pulse	0	t		61.0	2.5	blank	1.0	288.78715467453003	
63	272.6489908695221	movie	1		300	61.0	2.5	blank	1.0	289.203476190567	2.5003795623779297
63	273.8327944278717	pulse	1	t		61.0	2.5	blank	1.0	290.3872797489166	
63	275.1493704319	fix_post	2		12	61.0	2.5	blank	1.0	291.70385575294495	0.1000514030456543
64	275.2494218349457	fix_pre	0		120	62.0	2.5	/experiments/Knapen_AOT/AOT_stimuli/rescaled_final/0469_rv.mp4	0.0	291.8039071559906	1.008434772491455
64	275.43306159973145	pulse	0	t		62.0	2.5	/experiments/Knapen_AOT/AOT_stimuli/rescaled_final/0469_rv.mp4	0.0	291.98754692077637	
64	276.25785660743713	movie	1		281	62.0	2.5	/experiments/Knapen_AOT/AOT_stimuli/rescaled_final/0469_rv.mp4	0.0	292.81234192848206	2.492058038711548
64	277.0318341255188	pulse	1	t		62.0	2.5	/experiments/Knapen_AOT/AOT_stimuli/rescaled_final/0469_rv.mp4	0.0	293.5863194465637	
64	278.6315004825592	pulse	1	t		62.0	2.5	/experiments/Knapen_AOT/AOT_stimuli/rescaled_final/0469_rv.mp4	0.0	295.1859858036041	
64	278.7499146461487	fix_post	2		12	62.0	2.5	/experiments/Knapen_AOT/AOT_stimuli/rescaled_final/0469_rv.mp4	0.0	295.3043999671936	0.1000373363494873
65	278.84995198249817	fix_pre	0		120	63.0	2.5	/experiments/Knapen_AOT/AOT_stimuli/rescaled_final/2089_rv.mp4	0.0	295.4044373035431	1.008467674255371
65	279.85841965675354	movie	1		268	63.0	2.5	/experiments/Knapen_AOT/AOT_stimuli/rescaled_final/2089_rv.mp4	0.0	296.41290497779846	2.4920899868011475
65	280.23183035850525	pulse	1	t		63.0	2.5	/experiments/Knapen_AOT/AOT_stimuli/rescaled_final/2089_rv.mp4	0.0	296.78631567955017	
65	281.83169293403625	pulse	1	t		63.0	2.5	/experiments/Knapen_AOT/AOT_stimuli/rescaled_final/2089_rv.mp4	0.0	298.3861782550812	
65	282.3505096435547	fix_post	2		12	63.0	2.5	/experiments/Knapen_AOT/AOT_stimuli/rescaled_final/2089_rv.mp4	0.0	298.9049949645996	0.09996795654296875
66	282.45047760009766	fix_pre	0		119	64.0	2.5	/experiments/Knapen_AOT/AOT_stimuli/rescaled_final/0047_rv.mp4	0.0	299.0049629211426	1.0001826286315918
66	283.434317111969	pulse	0	t		64.0	2.5	/experiments/Knapen_AOT/AOT_stimuli/rescaled_final/0047_rv.mp4	0.0	299.9888024330139	
66	283.45066022872925	movie	1		274	64.0	2.5	/experiments/Knapen_AOT/AOT_stimuli/rescaled_final/0047_rv.mp4	0.0	300.00514554977417	2.500332832336426
66	285.03292775154114	pulse	1	t		64.0	2.5	/experiments/Knapen_AOT/AOT_stimuli/rescaled_final/0047_rv.mp4	0.0	301.58741307258606	
66	285.9509930610657	fix_post	2		12	64.0	2.5	/experiments/Knapen_AOT/AOT_stimuli/rescaled_final/0047_rv.mp4	0.0	302.5054783821106	0.10023140907287598
67	286.05122447013855	fix_pre	0		120	65.0	2.5	/experiments/Knapen_AOT/AOT_stimuli/rescaled_final/0243_fw.mp4	0.0	302.6057097911835	1.0083138942718506
67	286.6276137828827	pulse	0	t		65.0	2.5	/experiments/Knapen_AOT/AOT_stimuli/rescaled_final/0243_fw.mp4	0.0	303.1820991039276	
67	287.0595383644104	movie	1		276	65.0	2.5	/experiments/Knapen_AOT/AOT_stimuli/rescaled_final/0243_fw.mp4	0.0	303.6140236854553	2.492157459259033
67	288.2336976528168	pulse	1	t		65.0	2.5	/experiments/Knapen_AOT/AOT_stimuli/rescaled_final/0243_fw.mp4	0.0	304.7881829738617	
67	289.55169582366943	fix_post	2		12	65.0	2.5	/experiments/Knapen_AOT/AOT_stimuli/rescaled_final/0243_fw.mp4	0.0	306.10618114471436	0.09985661506652832
68	289.65155243873596	fix_pre	0		120	66.0	2.5	/experiments/Knapen_AOT/AOT_stimuli/rescaled_final/1421_rv.mp4	0.0	306.2060377597809	1.008504867553711
68	289.8272762298584	pulse	0	t		66.0	2.5	/experiments/Knapen_AOT/AOT_stimuli/rescaled_final/1421_rv.mp4	0.0	306.3817615509033	
68	290.6600573062897	movie	1		279	66.0	2.5	/experiments/Knapen_AOT/AOT_stimuli/rescaled_final/1421_rv.mp4	0.0	307.2145426273346	2.4920742511749268
68	291.427702665329	pulse	1	t		66.0	2.5	/experiments/Knapen_AOT/AOT_stimuli/rescaled_final/1421_rv.mp4	0.0	307.9821879863739	
68	293.02742552757263	pulse	1	t		66.0	2.5	/experiments/Knapen_AOT/AOT_stimuli/rescaled_final/1421_rv.mp4	0.0	309.58191084861755	
68	293.1521315574646	fix_post	2		12	66.0	2.5	/experiments/Knapen_AOT/AOT_stimuli/rescaled_final/1421_rv.mp4	0.0	309.7066168785095	0.09997057914733887
69	293.25210213661194	fix_pre	0		120	67.0	2.5	/experiments/Knapen_AOT/AOT_stimuli/rescaled_final/1140_fw.mp4	0.0	309.80658745765686	1.008484125137329
69	294.26058626174927	movie	1		267	67.0	2.5	/experiments/Knapen_AOT/AOT_stimuli/rescaled_final/1140_fw.mp4	0.0	310.8150715827942	2.492095947265625
69	294.6278946399689	pulse	1	t		67.0	2.5	/experiments/Knapen_AOT/AOT_stimuli/rescaled_final/1140_fw.mp4	0.0	311.1823799610138	
69	296.2278594970703	pulse	1	t		67.0	2.5	/experiments/Knapen_AOT/AOT_stimuli/rescaled_final/1140_fw.mp4	0.0	312.78234481811523	
69	296.7526822090149	fix_post	2		12	67.0	2.5	/experiments/Knapen_AOT/AOT_stimuli/rescaled_final/1140_fw.mp4	0.0	313.3071675300598	0.10002970695495605
70	296.85271191596985	fix_pre	0		118	68.0	2.5	/experiments/Knapen_AOT/AOT_stimuli/rescaled_final/1766_fw.mp4	0.0	313.40719723701477	0.9917566776275635
70	297.82825756073	pulse	0	t		68.0	2.5	/experiments/Knapen_AOT/AOT_stimuli/rescaled_final/1766_fw.mp4	0.0	314.3827428817749	
70	297.8444685935974	movie	1		276	68.0	2.5	/experiments/Knapen_AOT/AOT_stimuli/rescaled_final/1766_fw.mp4	0.0	314.39895391464233	2.5003890991210938
70	299.428373336792	pulse	1	t		68.0	2.5	/experiments/Knapen_AOT/AOT_stimuli/rescaled_final/1766_fw.mp4	0.0	315.9828586578369	
70	300.3448576927185	fix_post	2		12	68.0	2.5	/experiments/Knapen_AOT/AOT_stimuli/rescaled_final/1766_fw.mp4	0.0	316.8993430137634	0.10009908676147461
71	300.44495677948	fix_pre	0		120	69.0	2.5	blank	1.0	316.9994421005249	1.0000405311584473
71	301.02850246429443	pulse	0	t		69.0	2.5	blank	1.0	317.58298778533936	
71	301.4449973106384	movie	1		300	69.0	2.5	blank	1.0	317.99948263168335	2.5004076957702637
71	302.6289019584656	pulse	1	t		69.0	2.5	blank	1.0	319.1833872795105	
71	303.9454050064087	fix_post	2		12	69.0	2.5	blank	1.0	320.4998903274536	0.09995460510253906
72	304.04535961151123	fix_pre	0		120	70.0	2.5	/experiments/Knapen_AOT/AOT_stimuli/rescaled_final/2128_fw.mp4	0.0	320.59984493255615	1.0089151859283447
72	304.2289888858795	pulse	0	t		70.0	2.5	/experiments/Knapen_AOT/AOT_stimuli/rescaled_final/2128_fw.mp4	0.0	320.78347420692444	
72	305.0542747974396	movie	1		267	70.0	2.5	/experiments/Knapen_AOT/AOT_stimuli/rescaled_final/2128_fw.mp4	0.0	321.6087601184845	2.4917173385620117
72	305.8274013996124	pulse	1	t		70.0	2.5	/experiments/Knapen_AOT/AOT_stimuli/rescaled_final/2128_fw.mp4	0.0	322.38188672065735	
72	307.4277501106262	pulse	1	t		70.0	2.5	/experiments/Knapen_AOT/AOT_stimuli/rescaled_final/2128_fw.mp4	0.0	323.98223543167114	
72	307.5459921360016	fix_post	2		12	70.0	2.5	/experiments/Knapen_AOT/AOT_stimuli/rescaled_final/2128_fw.mp4	0.0	324.1004774570465	0.09994387626647949
73	307.64593601226807	fix_pre	0		120	71.0	2.5	/experiments/Knapen_AOT/AOT_stimuli/rescaled_final/1703_rv.mp4	0.0	324.200421333313	1.0084960460662842
73	308.65443205833435	movie	1		277	71.0	2.5	/experiments/Knapen_AOT/AOT_stimuli/rescaled_final/1703_rv.mp4	0.0	325.2089173793793	2.492058038711548
73	309.0290720462799	pulse	1	t		71.0	2.5	/experiments/Knapen_AOT/AOT_stimuli/rescaled_final/1703_rv.mp4	0.0	325.58355736732483	
73	310.62815499305725	pulse	1	t		71.0	2.5	/experiments/Knapen_AOT/AOT_stimuli/rescaled_final/1703_rv.mp4	0.0	327.1826403141022	
73	311.1464900970459	fix_post	2		12	71.0	2.5	/experiments/Knapen_AOT/AOT_stimuli/rescaled_final/1703_rv.mp4	0.0	327.7009754180908	0.09998726844787598
74	311.2464773654938	fix_pre	0		119	72.0	2.5	/experiments/Knapen_AOT/AOT_stimuli/rescaled_final/0270_fw.mp4	0.0	327.8009626865387	1.0001554489135742
74	312.230286359787	pulse	0	t		72.0	2.5	/experiments/Knapen_AOT/AOT_stimuli/rescaled_final/0270_fw.mp4	0.0	328.7847716808319	
74	312.24663281440735	movie	1		255	72.0	2.5	/experiments/Knapen_AOT/AOT_stimuli/rescaled_final/0270_fw.mp4	0.0	328.80111813545227	2.5004382133483887
74	313.8305592536926	pulse	1	t		72.0	2.5	/experiments/Knapen_AOT/AOT_stimuli/rescaled_final/0270_fw.mp4	0.0	330.38504457473755	
74	314.74707102775574	fix_post	2		12	72.0	2.5	/experiments/Knapen_AOT/AOT_stimuli/rescaled_final/0270_fw.mp4	0.0	331.30155634880066	0.09996581077575684
75	314.8470368385315	fix_pre	0		120	73.0	2.5	/experiments/Knapen_AOT/AOT_stimuli/rescaled_final/0112_fw.mp4	0.0	331.4015221595764	1.008469581604004
75	315.43084025382996	pulse	0	t		73.0	2.5	/experiments/Knapen_AOT/AOT_stimuli/rescaled_final/0112_fw.mp4	0.0	331.9853255748749	
75	315.8555064201355	movie	1		269	73.0	2.5	/experiments/Knapen_AOT/AOT_stimuli/rescaled_final/0112_fw.mp4	0.0	332.4099917411804	2.4920284748077393
75	317.0291340351105	pulse	1	t		73.0	2.5	/experiments/Knapen_AOT/AOT_stimuli/rescaled_final/0112_fw.mp4	0.0	333.5836193561554	
75	318.34753489494324	fix_post	2		12	73.0	2.5	/experiments/Knapen_AOT/AOT_stimuli/rescaled_final/0112_fw.mp4	0.0	334.90202021598816	0.10011887550354004
76	318.4476537704468	fix_pre	0		120	74.0	2.5	/experiments/Knapen_AOT/AOT_stimuli/rescaled_final/0112_rv.mp4	0.0	335.0021390914917	1.0084278583526611
76	318.6311192512512	pulse	0	t		74.0	2.5	/experiments/Knapen_AOT/AOT_stimuli/rescaled_final/0112_rv.mp4	0.0	335.18560457229614	
76	319.45608162879944	movie	1		267	74.0	2.5	/experiments/Knapen_AOT/AOT_stimuli/rescaled_final/0112_rv.mp4	0.0	336.01056694984436	2.491997718811035
76	320.22970509529114	pulse	1	t		74.0	2.5	/experiments/Knapen_AOT/AOT_stimuli/rescaled_final/0112_rv.mp4	0.0	336.78419041633606	
76	321.83190989494324	pulse	1	t		74.0	2.5	/experiments/Knapen_AOT/AOT_stimuli/rescaled_final/0112_rv.mp4	0.0	338.38639521598816	
76	321.9480793476105	fix_post	2		12	74.0	2.5	/experiments/Knapen_AOT/AOT_stimuli/rescaled_final/0112_rv.mp4	0.0	338.5025646686554	0.10002613067626953
77	322.04810547828674	fix_pre	0		120	75.0	2.5	blank	1.0	338.60259079933167	1.0001423358917236
77	323.04824781417847	movie	1		300	75.0	2.5	blank	1.0	339.6027331352234	2.500436782836914
77	323.43206429481506	pulse	1	t		75.0	2.5	blank	1.0	339.98654961586	
77	325.0320792198181	pulse	1	t		75.0	2.5	blank	1.0	341.58656454086304	
77	325.5486845970154	fix_post	2		12	75.0	2.5	blank	1.0	342.1031699180603	0.10004067420959473
78	325.648725271225	fix_pre	0		119	76.0	2.5	/experiments/Knapen_AOT/AOT_stimuli/rescaled_final/0469_fw.mp4	0.0	342.2032105922699	1.0000920295715332
78	326.6325628757477	pulse	0	t		76.0	2.5	/experiments/Knapen_AOT/AOT_stimuli/rescaled_final/0469_fw.mp4	0.0	343.1870481967926	
78	326.6488173007965	movie	1		278	76.0	2.5	/experiments/Knapen_AOT/AOT_stimuli/rescaled_final/0469_fw.mp4	0.0	343.20330262184143	2.500349283218384
78	328.23118019104004	pulse	1	t		76.0	2.5	/experiments/Knapen_AOT/AOT_stimuli/rescaled_final/0469_fw.mp4	0.0	344.78566551208496	
78	329.1491665840149	fix_post	2		12	76.0	2.5	/experiments/Knapen_AOT/AOT_stimuli/rescaled_final/0469_fw.mp4	0.0	345.7036519050598	0.10003209114074707
79	329.24919867515564	fix_pre	0		120	77.0	2.5	/experiments/Knapen_AOT/AOT_stimuli/rescaled_final/2148_rv.mp4	0.0	345.80368399620056	1.008486032485962
79	329.8330578804016	pulse	0	t		77.0	2.5	/experiments/Knapen_AOT/AOT_stimuli/rescaled_final/2148_rv.mp4	0.0	346.38754320144653	
79	330.2576847076416	movie	1		271	77.0	2.5	/experiments/Knapen_AOT/AOT_stimuli/rescaled_final/2148_rv.mp4	0.0	346.8121700286865	2.4921176433563232
79	331.43236684799194	pulse	1	t		77.0	2.5	/experiments/Knapen_AOT/AOT_stimuli/rescaled_final/2148_rv.mp4	0.0	347.98685216903687	
79	332.7498023509979	fix_post	2		12	77.0	2.5	/experiments/Knapen_AOT/AOT_stimuli/rescaled_final/2148_rv.mp4	0.0	349.30428767204285	0.09992361068725586
80	332.8497259616852	fix_pre	0		120	78.0	2.5	/experiments/Knapen_AOT/AOT_stimuli/rescaled_final/0536_rv.mp4	0.0	349.4042112827301	1.0084850788116455
80	333.03339433670044	pulse	0	t		78.0	2.5	/experiments/Knapen_AOT/AOT_stimuli/rescaled_final/0536_rv.mp4	0.0	349.58787965774536	
80	333.8582110404968	movie	1		268	78.0	2.5	/experiments/Knapen_AOT/AOT_stimuli/rescaled_final/0536_rv.mp4	0.0	350.41269636154175	2.4921514987945557
80	334.63228058815	pulse	1	t		78.0	2.5	/experiments/Knapen_AOT/AOT_stimuli/rescaled_final/0536_rv.mp4	0.0	351.18676590919495	
80	336.23246002197266	pulse	1	t		78.0	2.5	/experiments/Knapen_AOT/AOT_stimuli/rescaled_final/0536_rv.mp4	0.0	352.7869453430176	
80	336.3503625392914	fix_post	2		12	78.0	2.5	/experiments/Knapen_AOT/AOT_stimuli/rescaled_final/0536_rv.mp4	0.0	352.9048478603363	0.09990477561950684
81	336.4502673149109	fix_pre	0		120	79.0	2.5	/experiments/Knapen_AOT/AOT_stimuli/rescaled_final/0020_fw.mp4	0.0	353.0047526359558	1.0169484615325928
81	337.4672157764435	movie	1		278	79.0	2.5	/experiments/Knapen_AOT/AOT_stimuli/rescaled_final/0020_fw.mp4	0.0	354.0217010974884	2.491945266723633
81	337.83300137519836	pulse	1	t		79.0	2.5	/experiments/Knapen_AOT/AOT_stimuli/rescaled_final/0020_fw.mp4	0.0	354.3874866962433	
81	339.4323740005493	pulse	1	t		79.0	2.5	/experiments/Knapen_AOT/AOT_stimuli/rescaled_final/0020_fw.mp4	0.0	355.98685932159424	
81	339.9591610431671	fix_post	2		11	79.0	2.5	/experiments/Knapen_AOT/AOT_stimuli/rescaled_final/0020_fw.mp4	0.0	356.51364636421204	0.09164166450500488
82	340.0508027076721	fix_pre	0		119	80.0	2.5	/experiments/Knapen_AOT/AOT_stimuli/rescaled_final/1477_fw.mp4	0.0	356.60528802871704	1.000166416168213
82	341.03464436531067	pulse	0	t		80.0	2.5	/experiments/Knapen_AOT/AOT_stimuli/rescaled_final/1477_fw.mp4	0.0	357.5891296863556	
82	341.05096912384033	movie	1		262	80.0	2.5	/experiments/Knapen_AOT/AOT_stimuli/rescaled_final/1477_fw.mp4	0.0	357.60545444488525	2.500354528427124
82	342.63307762145996	pulse	1	t		80.0	2.5	/experiments/Knapen_AOT/AOT_stimuli/rescaled_final/1477_fw.mp4	0.0	359.1875629425049	
82	343.55132365226746	fix_post	2		12	80.0	2.5	/experiments/Knapen_AOT/AOT_stimuli/rescaled_final/1477_fw.mp4	0.0	360.1058089733124	0.10009121894836426
83	343.6514148712158	fix_pre	0		120	81.0	2.5	/experiments/Knapen_AOT/AOT_stimuli/rescaled_final/0328_fw.mp4	0.0	360.20590019226074	1.0084078311920166
83	344.23541021347046	pulse	0	t		81.0	2.5	/experiments/Knapen_AOT/AOT_stimuli/rescaled_final/0328_fw.mp4	0.0	360.7898955345154	
83	344.65982270240784	movie	1		263	81.0	2.5	/experiments/Knapen_AOT/AOT_stimuli/rescaled_final/0328_fw.mp4	0.0	361.21430802345276	2.5003809928894043
83	345.8336172103882	pulse	1	t		81.0	2.5	/experiments/Knapen_AOT/AOT_stimuli/rescaled_final/0328_fw.mp4	0.0	362.3881025314331	
83	347.16020369529724	fix_post	2		11	81.0	2.5	/experiments/Knapen_AOT/AOT_stimuli/rescaled_final/0328_fw.mp4	0.0	363.71468901634216	0.09165620803833008
84	347.25185990333557	fix_pre	0		120	82.0	2.5	/experiments/Knapen_AOT/AOT_stimuli/rescaled_final/1888_fw.mp4	0.0	363.8063452243805	1.008545160293579
84	347.4274957180023	pulse	0	t		82.0	2.5	/experiments/Knapen_AOT/AOT_stimuli/rescaled_final/1888_fw.mp4	0.0	363.98198103904724	
84	348.26040506362915	movie	1		272	82.0	2.5	/experiments/Knapen_AOT/AOT_stimuli/rescaled_final/1888_fw.mp4	0.0	364.8148903846741	2.4920051097869873
84	349.03644037246704	pulse	1	t		82.0	2.5	/experiments/Knapen_AOT/AOT_stimuli/rescaled_final/1888_fw.mp4	0.0	365.59092569351196	
84	350.6277413368225	pulse	1	t		82.0	2.5	/experiments/Knapen_AOT/AOT_stimuli/rescaled_final/1888_fw.mp4	0.0	367.18222665786743	
84	350.75241017341614	fix_post	2		12	82.0	2.5	/experiments/Knapen_AOT/AOT_stimuli/rescaled_final/1888_fw.mp4	0.0	367.30689549446106	0.10007596015930176
85	350.85248613357544	fix_pre	0		120	83.0	2.5	blank	1.0	367.40697145462036	1.0000970363616943
85	351.85258316993713	movie	1		300	83.0	2.5	blank	1.0	368.40706849098206	2.5003890991210938
85	352.22794342041016	pulse	1	t		83.0	2.5	blank	1.0	368.7824287414551	
85	353.82821226119995	pulse	1	t		83.0	2.5	blank	1.0	370.3826975822449	
85	354.3529722690582	fix_post	2		12	83.0	2.5	blank	1.0	370.90745759010315	0.1250321865081787
87	354.4780044555664	stim	0		1712					371.0324897766113	14.268766641616821
87	355.4283924102783	pulse	0	t						371.98287773132324	
87	357.02889800071716	pulse	0	t						373.5833833217621	
87	358.6289210319519	pulse	0	t						375.1834063529968	
87	360.2290816307068	pulse	0	t						376.7835669517517	
87	361.8293128013611	pulse	0	t						378.383798122406	
87	363.4295802116394	pulse	0	t						379.9840655326843	
87	365.0299038887024	pulse	0	t						381.5843892097473	
87	366.6300344467163	pulse	0	t						383.18451976776123	
87	368.23029136657715	pulse	0	t						384.78477668762207	
