trial_nr	onset	event_type	phase	response	nr_frames	movie_index	movie_duration	movie_file	blank	onset_abs	duration
0	0.1494741439819336	stim	0		138					20.803645133972168	1.1504268646240234
0	1.2919070720672607	response	0	space						21.946078062057495	
1	1.299901008605957	stim	0		13574					21.95407199859619	113.11610198020935
1	114.40913915634155	pulse	0	t						135.0633101463318	
1	114.41600298881531	stim	1		1717					135.07017397880554	14.308338165283203
1	116.00786304473877	pulse	1	t						136.662034034729	
1	117.60787105560303	pulse	1	t						138.26204204559326	
1	119.2078800201416	pulse	1	t						139.86205101013184	
1	120.80791306495667	pulse	1	t						141.4620840549469	
1	122.40781903266907	pulse	1	t						143.0619900226593	
1	124.00786399841309	pulse	1	t						144.66203498840332	
1	125.60781717300415	pulse	1	t						146.26198816299438	
1	127.20776510238647	pulse	1	t						147.8619360923767	
2	128.7243411540985	fix_pre	0		11	0.0	2.5	/experiments/AOT/AOT_stimuli/rescaled_final/1445_fw.mp4	0.0	149.37851214408875	0.09171605110168457
2	128.8078510761261	pulse	0	t		0.0	2.5	/experiments/AOT/AOT_stimuli/rescaled_final/1445_fw.mp4	0.0	149.46202206611633	
2	128.8160572052002	movie	1		242	0.0	2.5	/experiments/AOT/AOT_stimuli/rescaled_final/1445_fw.mp4	0.0	149.47022819519043	2.508286952972412
2	130.40739917755127	pulse	1	t		0.0	2.5	/experiments/AOT/AOT_stimuli/rescaled_final/1445_fw.mp4	0.0	151.0615701675415	
2	131.3243441581726	fix_post	2		12	0.0	2.5	/experiments/AOT/AOT_stimuli/rescaled_final/1445_fw.mp4	0.0	151.97851514816284	0.09997391700744629
3	131.42431807518005	fix_pre	0		120	1.0	2.5	/experiments/AOT/AOT_stimuli/rescaled_final/1048_fw.mp4	0.0	152.0784890651703	0.9999489784240723
3	132.00784707069397	pulse	0	t		1.0	2.5	/experiments/AOT/AOT_stimuli/rescaled_final/1048_fw.mp4	0.0	152.6620180606842	
3	132.42426705360413	movie	1		244	1.0	2.5	/experiments/AOT/AOT_stimuli/rescaled_final/1048_fw.mp4	0.0	153.07843804359436	2.4999539852142334
3	133.60781002044678	pulse	1	t		1.0	2.5	/experiments/AOT/AOT_stimuli/rescaled_final/1048_fw.mp4	0.0	154.261981010437	
3	134.92422103881836	fix_post	2		12	1.0	2.5	/experiments/AOT/AOT_stimuli/rescaled_final/1048_fw.mp4	0.0	155.5783920288086	0.10010910034179688
4	135.02433013916016	fix_pre	0		120	2.0	2.5	/experiments/AOT/AOT_stimuli/rescaled_final/1227_fw.mp4	0.0	155.6785011291504	1.0000369548797607
4	135.20785999298096	pulse	0	t		2.0	2.5	/experiments/AOT/AOT_stimuli/rescaled_final/1227_fw.mp4	0.0	155.8620309829712	
4	136.02436709403992	movie	1		245	2.0	2.5	/experiments/AOT/AOT_stimuli/rescaled_final/1227_fw.mp4	0.0	156.67853808403015	2.5000040531158447
4	136.80774903297424	pulse	1	t		2.0	2.5	/experiments/AOT/AOT_stimuli/rescaled_final/1227_fw.mp4	0.0	157.46192002296448	
4	138.40647506713867	pulse	1	t		2.0	2.5	/experiments/AOT/AOT_stimuli/rescaled_final/1227_fw.mp4	0.0	159.0606460571289	
4	138.52437114715576	fix_post	2		12	2.0	2.5	/experiments/AOT/AOT_stimuli/rescaled_final/1227_fw.mp4	0.0	159.178542137146	0.09993100166320801
5	138.62430214881897	fix_pre	0		120	3.0	2.5	/experiments/AOT/AOT_stimuli/rescaled_final/1481_rv.mp4	0.0	159.2784731388092	0.9999969005584717
5	139.62429904937744	movie	1		242	3.0	2.5	/experiments/AOT/AOT_stimuli/rescaled_final/1481_rv.mp4	0.0	160.27847003936768	2.49959397315979
5	140.00779008865356	pulse	1	t		3.0	2.5	/experiments/AOT/AOT_stimuli/rescaled_final/1481_rv.mp4	0.0	160.6619610786438	
5	141.60759210586548	pulse	1	t		3.0	2.5	/experiments/AOT/AOT_stimuli/rescaled_final/1481_rv.mp4	0.0	162.2617630958557	
5	142.12389302253723	fix_post	2		12	3.0	2.5	/experiments/AOT/AOT_stimuli/rescaled_final/1481_rv.mp4	0.0	162.77806401252747	0.10041213035583496
6	142.22430515289307	fix_pre	0		119	4.0	2.5	/experiments/AOT/AOT_stimuli/rescaled_final/1630_fw.mp4	0.0	162.8784761428833	0.9915518760681152
6	143.2077281475067	pulse	0	t		4.0	2.5	/experiments/AOT/AOT_stimuli/rescaled_final/1630_fw.mp4	0.0	163.86189913749695	
6	143.21585702896118	movie	1		244	4.0	2.5	/experiments/AOT/AOT_stimuli/rescaled_final/1630_fw.mp4	0.0	163.87002801895142	2.508458137512207
6	144.8077871799469	pulse	1	t		4.0	2.5	/experiments/AOT/AOT_stimuli/rescaled_final/1630_fw.mp4	0.0	165.46195816993713	
6	145.7243151664734	fix_post	2		12	4.0	2.5	/experiments/AOT/AOT_stimuli/rescaled_final/1630_fw.mp4	0.0	166.37848615646362	0.09987688064575195
7	145.82419204711914	fix_pre	0		120	5.0	2.5	/experiments/AOT/AOT_stimuli/rescaled_final/0254_fw.mp4	0.0	166.47836303710938	0.9999580383300781
7	146.4078381061554	pulse	0	t		5.0	2.5	/experiments/AOT/AOT_stimuli/rescaled_final/0254_fw.mp4	0.0	167.06200909614563	
7	146.82415008544922	movie	1		245	5.0	2.5	/experiments/AOT/AOT_stimuli/rescaled_final/0254_fw.mp4	0.0	167.47832107543945	2.5000789165496826
7	148.00770497322083	pulse	1	t		5.0	2.5	/experiments/AOT/AOT_stimuli/rescaled_final/0254_fw.mp4	0.0	168.66187596321106	
7	149.3242290019989	fix_post	2		12	5.0	2.5	/experiments/AOT/AOT_stimuli/rescaled_final/0254_fw.mp4	0.0	169.97839999198914	0.09994101524353027
8	149.42417001724243	fix_pre	0		120	6.0	2.5	/experiments/AOT/AOT_stimuli/rescaled_final/1848_rv.mp4	0.0	170.07834100723267	1.0000240802764893
8	149.6077060699463	pulse	0	t		6.0	2.5	/experiments/AOT/AOT_stimuli/rescaled_final/1848_rv.mp4	0.0	170.26187705993652	
8	150.42419409751892	movie	1		242	6.0	2.5	/experiments/AOT/AOT_stimuli/rescaled_final/1848_rv.mp4	0.0	171.07836508750916	2.499566078186035
8	151.20764803886414	pulse	1	t		6.0	2.5	/experiments/AOT/AOT_stimuli/rescaled_final/1848_rv.mp4	0.0	171.86181902885437	
8	152.8060221672058	pulse	1	t		6.0	2.5	/experiments/AOT/AOT_stimuli/rescaled_final/1848_rv.mp4	0.0	173.46019315719604	
8	152.92376017570496	fix_post	2		12	6.0	2.5	/experiments/AOT/AOT_stimuli/rescaled_final/1848_rv.mp4	0.0	173.5779311656952	0.1004328727722168
9	153.02419304847717	fix_pre	0		120	7.0	2.5	blank	1.0	173.6783640384674	1.000025987625122
9	154.0242190361023	movie	1		300	7.0	2.5	blank	1.0	174.67839002609253	2.4999771118164062
9	154.40763998031616	pulse	1	t		7.0	2.5	blank	1.0	175.0618109703064	
9	156.0076620578766	pulse	1	t		7.0	2.5	blank	1.0	176.66183304786682	
9	156.5241961479187	fix_post	2		12	7.0	2.5	blank	1.0	177.17836713790894	0.09995603561401367
10	156.62415218353271	fix_pre	0		119	8.0	2.5	/experiments/AOT/AOT_stimuli/rescaled_final/0317_rv.mp4	0.0	177.27832317352295	0.9916470050811768
10	157.60762000083923	pulse	0	t		8.0	2.5	/experiments/AOT/AOT_stimuli/rescaled_final/0317_rv.mp4	0.0	178.26179099082947	
10	157.6157991886139	movie	1		247	8.0	2.5	/experiments/AOT/AOT_stimuli/rescaled_final/0317_rv.mp4	0.0	178.26997017860413	2.508373975753784
10	159.20783615112305	pulse	1	t		8.0	2.5	/experiments/AOT/AOT_stimuli/rescaled_final/0317_rv.mp4	0.0	179.86200714111328	
10	160.12417316436768	fix_post	2		12	8.0	2.5	/experiments/AOT/AOT_stimuli/rescaled_final/0317_rv.mp4	0.0	180.7783441543579	0.10004591941833496
11	160.224219083786	fix_pre	0		120	9.0	2.5	/experiments/AOT/AOT_stimuli/rescaled_final/1626_fw.mp4	0.0	180.87839007377625	0.9999160766601562
11	160.80763006210327	pulse	0	t		9.0	2.5	/experiments/AOT/AOT_stimuli/rescaled_final/1626_fw.mp4	0.0	181.4618010520935	
11	161.22413516044617	movie	1		246	9.0	2.5	/experiments/AOT/AOT_stimuli/rescaled_final/1626_fw.mp4	0.0	181.8783061504364	2.500001907348633
11	162.40772414207458	pulse	1	t		9.0	2.5	/experiments/AOT/AOT_stimuli/rescaled_final/1626_fw.mp4	0.0	183.06189513206482	
11	163.7241370677948	fix_post	2		12	9.0	2.5	/experiments/AOT/AOT_stimuli/rescaled_final/1626_fw.mp4	0.0	184.37830805778503	0.09999394416809082
12	163.8241310119629	fix_pre	0		120	10.0	2.5	/experiments/AOT/AOT_stimuli/rescaled_final/0986_rv.mp4	0.0	184.47830200195312	0.9999880790710449
12	164.00757813453674	pulse	0	t		10.0	2.5	/experiments/AOT/AOT_stimuli/rescaled_final/0986_rv.mp4	0.0	184.66174912452698	
12	164.82411909103394	movie	1		245	10.0	2.5	/experiments/AOT/AOT_stimuli/rescaled_final/0986_rv.mp4	0.0	185.47829008102417	2.4999890327453613
12	165.60763907432556	pulse	1	t		10.0	2.5	/experiments/AOT/AOT_stimuli/rescaled_final/0986_rv.mp4	0.0	186.2618100643158	
12	167.20616507530212	pulse	1	t		10.0	2.5	/experiments/AOT/AOT_stimuli/rescaled_final/0986_rv.mp4	0.0	187.86033606529236	
12	167.3241081237793	fix_post	2		12	10.0	2.5	/experiments/AOT/AOT_stimuli/rescaled_final/0986_rv.mp4	0.0	187.97827911376953	0.09997200965881348
13	167.4240801334381	fix_pre	0		120	11.0	2.5	/experiments/AOT/AOT_stimuli/rescaled_final/1424_fw.mp4	0.0	188.07825112342834	1.0000178813934326
13	168.42409801483154	movie	1		244	11.0	2.5	/experiments/AOT/AOT_stimuli/rescaled_final/1424_fw.mp4	0.0	189.07826900482178	2.50003719329834
13	168.80884218215942	pulse	1	t		11.0	2.5	/experiments/AOT/AOT_stimuli/rescaled_final/1424_fw.mp4	0.0	189.46301317214966	
13	170.40763306617737	pulse	1	t		11.0	2.5	/experiments/AOT/AOT_stimuli/rescaled_final/1424_fw.mp4	0.0	191.0618040561676	
13	170.92413520812988	fix_post	2		12	11.0	2.5	/experiments/AOT/AOT_stimuli/rescaled_final/1424_fw.mp4	0.0	191.57830619812012	0.10002589225769043
14	171.02416110038757	fix_pre	0		119	12.0	2.5	blank	1.0	191.6783320903778	0.9915709495544434
14	172.00760507583618	pulse	0	t		12.0	2.5	blank	1.0	192.66177606582642	
14	172.01573204994202	movie	1		301	12.0	2.5	blank	1.0	192.66990303993225	2.5083980560302734
14	173.60757517814636	pulse	1	t		12.0	2.5	blank	1.0	194.2617461681366	
14	174.5241301059723	fix_post	2		12	12.0	2.5	blank	1.0	195.17830109596252	0.09988689422607422
15	174.62401700019836	fix_pre	0		120	13.0	2.5	/experiments/AOT/AOT_stimuli/rescaled_final/0656_fw.mp4	0.0	195.2781879901886	1.0001320838928223
15	175.20756912231445	pulse	0	t		13.0	2.5	/experiments/AOT/AOT_stimuli/rescaled_final/0656_fw.mp4	0.0	195.8617401123047	
15	175.6241490840912	movie	1		247	13.0	2.5	/experiments/AOT/AOT_stimuli/rescaled_final/0656_fw.mp4	0.0	196.27832007408142	2.499953031539917
15	176.80759501457214	pulse	1	t		13.0	2.5	/experiments/AOT/AOT_stimuli/rescaled_final/0656_fw.mp4	0.0	197.46176600456238	
15	178.1241021156311	fix_post	2		12	13.0	2.5	/experiments/AOT/AOT_stimuli/rescaled_final/0656_fw.mp4	0.0	198.77827310562134	0.09995698928833008
16	178.22405910491943	fix_pre	0		120	14.0	2.5	/experiments/AOT/AOT_stimuli/rescaled_final/1001_fw.mp4	0.0	198.87823009490967	1.00006103515625
16	178.4075951576233	pulse	0	t		14.0	2.5	/experiments/AOT/AOT_stimuli/rescaled_final/1001_fw.mp4	0.0	199.06176614761353	
16	179.22412014007568	movie	1		245	14.0	2.5	/experiments/AOT/AOT_stimuli/rescaled_final/1001_fw.mp4	0.0	199.87829113006592	2.4998939037323
16	180.00754618644714	pulse	1	t		14.0	2.5	/experiments/AOT/AOT_stimuli/rescaled_final/1001_fw.mp4	0.0	200.66171717643738	
16	181.6061680316925	pulse	1	t		14.0	2.5	/experiments/AOT/AOT_stimuli/rescaled_final/1001_fw.mp4	0.0	202.26033902168274	
16	181.72401404380798	fix_post	2		12	14.0	2.5	/experiments/AOT/AOT_stimuli/rescaled_final/1001_fw.mp4	0.0	202.37818503379822	0.0999910831451416
17	181.82400512695312	fix_pre	0		120	15.0	2.5	/experiments/AOT/AOT_stimuli/rescaled_final/0678_rv.mp4	0.0	202.47817611694336	1.0000998973846436
17	182.82410502433777	movie	1		244	15.0	2.5	/experiments/AOT/AOT_stimuli/rescaled_final/0678_rv.mp4	0.0	203.478276014328	2.499941110610962
17	183.20846104621887	pulse	1	t		15.0	2.5	/experiments/AOT/AOT_stimuli/rescaled_final/0678_rv.mp4	0.0	203.8626320362091	
17	184.80748414993286	pulse	1	t		15.0	2.5	/experiments/AOT/AOT_stimuli/rescaled_final/0678_rv.mp4	0.0	205.4616551399231	
17	185.32404613494873	fix_post	2		12	15.0	2.5	/experiments/AOT/AOT_stimuli/rescaled_final/0678_rv.mp4	0.0	205.97821712493896	0.10002803802490234
18	185.42407417297363	fix_pre	0		119	16.0	2.5	/experiments/AOT/AOT_stimuli/rescaled_final/0722_fw.mp4	0.0	206.07824516296387	0.991675853729248
18	186.40760707855225	pulse	0	t		16.0	2.5	/experiments/AOT/AOT_stimuli/rescaled_final/0722_fw.mp4	0.0	207.06177806854248	
18	186.41575002670288	movie	1		246	16.0	2.5	/experiments/AOT/AOT_stimuli/rescaled_final/0722_fw.mp4	0.0	207.06992101669312	2.5082499980926514
18	188.00722908973694	pulse	1	t		16.0	2.5	/experiments/AOT/AOT_stimuli/rescaled_final/0722_fw.mp4	0.0	208.66140007972717	
18	188.92400002479553	fix_post	2		12	16.0	2.5	/experiments/AOT/AOT_stimuli/rescaled_final/0722_fw.mp4	0.0	209.57817101478577	0.10006594657897949
19	189.0240659713745	fix_pre	0		120	17.0	2.5	/experiments/AOT/AOT_stimuli/rescaled_final/0663_fw.mp4	0.0	209.67823696136475	0.9999871253967285
19	189.60746598243713	pulse	0	t		17.0	2.5	/experiments/AOT/AOT_stimuli/rescaled_final/0663_fw.mp4	0.0	210.26163697242737	
19	190.02405309677124	movie	1		243	17.0	2.5	/experiments/AOT/AOT_stimuli/rescaled_final/0663_fw.mp4	0.0	210.67822408676147	2.5000789165496826
19	191.20760798454285	pulse	1	t		17.0	2.5	/experiments/AOT/AOT_stimuli/rescaled_final/0663_fw.mp4	0.0	211.86177897453308	
19	192.52413201332092	fix_post	2		12	17.0	2.5	/experiments/AOT/AOT_stimuli/rescaled_final/0663_fw.mp4	0.0	213.17830300331116	0.09989309310913086
20	192.62402510643005	fix_pre	0		120	18.0	2.5	/experiments/AOT/AOT_stimuli/rescaled_final/1772_rv.mp4	0.0	213.2781960964203	0.9999649524688721
20	192.8075201511383	pulse	0	t		18.0	2.5	/experiments/AOT/AOT_stimuli/rescaled_final/1772_rv.mp4	0.0	213.46169114112854	
20	193.62399005889893	movie	1		244	18.0	2.5	/experiments/AOT/AOT_stimuli/rescaled_final/1772_rv.mp4	0.0	214.27816104888916	2.500188112258911
20	194.40743899345398	pulse	1	t		18.0	2.5	/experiments/AOT/AOT_stimuli/rescaled_final/1772_rv.mp4	0.0	215.0616099834442	
20	196.00597214698792	pulse	1	t		18.0	2.5	/experiments/AOT/AOT_stimuli/rescaled_final/1772_rv.mp4	0.0	216.66014313697815	
20	196.12417817115784	fix_post	2		12	18.0	2.5	/experiments/AOT/AOT_stimuli/rescaled_final/1772_rv.mp4	0.0	216.77834916114807	0.09958600997924805
21	196.22376418113708	fix_pre	0		120	19.0	2.5	blank	1.0	216.87793517112732	1.000553846359253
21	197.22431802749634	movie	1		300	19.0	2.5	blank	1.0	217.87848901748657	2.49963116645813
21	197.60782504081726	pulse	1	t		19.0	2.5	blank	1.0	218.2619960308075	
21	199.20748805999756	pulse	1	t		19.0	2.5	blank	1.0	219.8616590499878	
21	199.72394919395447	fix_post	2		12	19.0	2.5	blank	1.0	220.3781201839447	0.10004281997680664
22	199.82399201393127	fix_pre	0		119	20.0	2.5	/experiments/AOT/AOT_stimuli/rescaled_final/2057_fw.mp4	0.0	220.4781630039215	0.9917771816253662
22	200.8074870109558	pulse	0	t		20.0	2.5	/experiments/AOT/AOT_stimuli/rescaled_final/2057_fw.mp4	0.0	221.46165800094604	
22	200.81576919555664	movie	1		246	20.0	2.5	/experiments/AOT/AOT_stimuli/rescaled_final/2057_fw.mp4	0.0	221.46994018554688	2.508188009262085
22	202.4070861339569	pulse	1	t		20.0	2.5	/experiments/AOT/AOT_stimuli/rescaled_final/2057_fw.mp4	0.0	223.06125712394714	
22	203.32395720481873	fix_post	2		12	20.0	2.5	/experiments/AOT/AOT_stimuli/rescaled_final/2057_fw.mp4	0.0	223.97812819480896	0.10000896453857422
23	203.4239661693573	fix_pre	0		120	21.0	2.5	/experiments/AOT/AOT_stimuli/rescaled_final/1253_fw.mp4	0.0	224.07813715934753	1.0000998973846436
23	204.00744009017944	pulse	0	t		21.0	2.5	/experiments/AOT/AOT_stimuli/rescaled_final/1253_fw.mp4	0.0	224.66161108016968	
23	204.42406606674194	movie	1		244	21.0	2.5	/experiments/AOT/AOT_stimuli/rescaled_final/1253_fw.mp4	0.0	225.07823705673218	2.499882936477661
23	205.60751605033875	pulse	1	t		21.0	2.5	/experiments/AOT/AOT_stimuli/rescaled_final/1253_fw.mp4	0.0	226.26168704032898	
23	206.9239490032196	fix_post	2		12	21.0	2.5	/experiments/AOT/AOT_stimuli/rescaled_final/1253_fw.mp4	0.0	227.57811999320984	0.09999608993530273
24	207.0239450931549	fix_pre	0		120	22.0	2.5	/experiments/AOT/AOT_stimuli/rescaled_final/0756_rv.mp4	0.0	227.67811608314514	0.9999918937683105
24	207.2075080871582	pulse	0	t		22.0	2.5	/experiments/AOT/AOT_stimuli/rescaled_final/0756_rv.mp4	0.0	227.86167907714844	
24	208.02393698692322	movie	1		247	22.0	2.5	/experiments/AOT/AOT_stimuli/rescaled_final/0756_rv.mp4	0.0	228.67810797691345	2.499932050704956
24	208.80741810798645	pulse	1	t		22.0	2.5	/experiments/AOT/AOT_stimuli/rescaled_final/0756_rv.mp4	0.0	229.46158909797668	
24	210.40759205818176	pulse	1	t		22.0	2.5	/experiments/AOT/AOT_stimuli/rescaled_final/0756_rv.mp4	0.0	231.061763048172	
24	210.52386903762817	fix_post	2		12	22.0	2.5	/experiments/AOT/AOT_stimuli/rescaled_final/0756_rv.mp4	0.0	231.1780400276184	0.10010099411010742
25	210.62397003173828	fix_pre	0		120	23.0	2.5	/experiments/AOT/AOT_stimuli/rescaled_final/0799_fw.mp4	0.0	231.27814102172852	0.9999170303344727
25	211.62388706207275	movie	1		244	23.0	2.5	/experiments/AOT/AOT_stimuli/rescaled_final/0799_fw.mp4	0.0	232.278058052063	2.499937057495117
25	212.00720500946045	pulse	1	t		23.0	2.5	/experiments/AOT/AOT_stimuli/rescaled_final/0799_fw.mp4	0.0	232.66137599945068	
25	213.6074161529541	pulse	1	t		23.0	2.5	/experiments/AOT/AOT_stimuli/rescaled_final/0799_fw.mp4	0.0	234.26158714294434	
25	214.12382411956787	fix_post	2		12	23.0	2.5	/experiments/AOT/AOT_stimuli/rescaled_final/0799_fw.mp4	0.0	234.7779951095581	0.10000205039978027
26	214.22382616996765	fix_pre	0		119	24.0	2.5	/experiments/AOT/AOT_stimuli/rescaled_final/0471_rv.mp4	0.0	234.87799715995789	0.9917240142822266
26	215.2073791027069	pulse	0	t		24.0	2.5	/experiments/AOT/AOT_stimuli/rescaled_final/0471_rv.mp4	0.0	235.86155009269714	
26	215.21555018424988	movie	1		245	24.0	2.5	/experiments/AOT/AOT_stimuli/rescaled_final/0471_rv.mp4	0.0	235.8697211742401	2.5083467960357666
26	216.8072600364685	pulse	1	t		24.0	2.5	/experiments/AOT/AOT_stimuli/rescaled_final/0471_rv.mp4	0.0	237.46143102645874	
26	217.72389698028564	fix_post	2		12	24.0	2.5	/experiments/AOT/AOT_stimuli/rescaled_final/0471_rv.mp4	0.0	238.37806797027588	0.10005807876586914
27	217.8239550590515	fix_pre	0		120	25.0	2.5	/experiments/AOT/AOT_stimuli/rescaled_final/0389_rv.mp4	0.0	238.47812604904175	0.9999139308929443
27	218.4073030948639	pulse	0	t		25.0	2.5	/experiments/AOT/AOT_stimuli/rescaled_final/0389_rv.mp4	0.0	239.06147408485413	
27	218.82386898994446	movie	1		243	25.0	2.5	/experiments/AOT/AOT_stimuli/rescaled_final/0389_rv.mp4	0.0	239.4780399799347	2.499969005584717
27	220.00742602348328	pulse	1	t		25.0	2.5	/experiments/AOT/AOT_stimuli/rescaled_final/0389_rv.mp4	0.0	240.6615970134735	
27	221.32383799552917	fix_post	2		12	25.0	2.5	/experiments/AOT/AOT_stimuli/rescaled_final/0389_rv.mp4	0.0	241.9780089855194	0.10000205039978027
28	221.42384004592896	fix_pre	0		120	26.0	2.5	/experiments/AOT/AOT_stimuli/rescaled_final/1167_fw.mp4	0.0	242.0780110359192	0.9999849796295166
28	221.60735297203064	pulse	0	t		26.0	2.5	/experiments/AOT/AOT_stimuli/rescaled_final/1167_fw.mp4	0.0	242.26152396202087	
28	222.42382502555847	movie	1		244	26.0	2.5	/experiments/AOT/AOT_stimuli/rescaled_final/1167_fw.mp4	0.0	243.0779960155487	2.5000381469726562
28	223.20732617378235	pulse	1	t		26.0	2.5	/experiments/AOT/AOT_stimuli/rescaled_final/1167_fw.mp4	0.0	243.86149716377258	
28	224.80650901794434	pulse	1	t		26.0	2.5	/experiments/AOT/AOT_stimuli/rescaled_final/1167_fw.mp4	0.0	245.46068000793457	
28	224.92386317253113	fix_post	2		12	26.0	2.5	/experiments/AOT/AOT_stimuli/rescaled_final/1167_fw.mp4	0.0	245.57803416252136	0.10000300407409668
29	225.02386617660522	fix_pre	0		120	27.0	2.5	blank	1.0	245.67803716659546	1.0001299381256104
29	226.02399611473083	movie	1		300	27.0	2.5	blank	1.0	246.67816710472107	2.499890089035034
29	226.40732598304749	pulse	1	t		27.0	2.5	blank	1.0	247.06149697303772	
29	228.00723505020142	pulse	1	t		27.0	2.5	blank	1.0	248.66140604019165	
29	228.52388620376587	fix_post	2		12	27.0	2.5	blank	1.0	249.1780571937561	0.09997797012329102
30	228.62386417388916	fix_pre	0		119	28.0	2.5	/experiments/AOT/AOT_stimuli/rescaled_final/0799_rv.mp4	0.0	249.2780351638794	0.9916088581085205
30	229.60733103752136	pulse	0	t		28.0	2.5	/experiments/AOT/AOT_stimuli/rescaled_final/0799_rv.mp4	0.0	250.2615020275116	
30	229.61547303199768	movie	1		244	28.0	2.5	/experiments/AOT/AOT_stimuli/rescaled_final/0799_rv.mp4	0.0	250.26964402198792	2.508470058441162
30	231.20730900764465	pulse	1	t		28.0	2.5	/experiments/AOT/AOT_stimuli/rescaled_final/0799_rv.mp4	0.0	251.8614799976349	
30	232.12394309043884	fix_post	2		12	28.0	2.5	/experiments/AOT/AOT_stimuli/rescaled_final/0799_rv.mp4	0.0	252.77811408042908	0.09994006156921387
31	232.22388315200806	fix_pre	0		120	29.0	2.5	/experiments/AOT/AOT_stimuli/rescaled_final/1622_rv.mp4	0.0	252.8780541419983	1.0000040531158447
31	232.80736207962036	pulse	0	t		29.0	2.5	/experiments/AOT/AOT_stimuli/rescaled_final/1622_rv.mp4	0.0	253.4615330696106	
31	233.2238872051239	movie	1		243	29.0	2.5	/experiments/AOT/AOT_stimuli/rescaled_final/1622_rv.mp4	0.0	253.87805819511414	2.49997878074646
31	234.40736603736877	pulse	1	t		29.0	2.5	/experiments/AOT/AOT_stimuli/rescaled_final/1622_rv.mp4	0.0	255.061537027359	
31	235.72386598587036	fix_post	2		12	29.0	2.5	/experiments/AOT/AOT_stimuli/rescaled_final/1622_rv.mp4	0.0	256.3780369758606	0.09986305236816406
32	235.82372903823853	fix_pre	0		120	30.0	2.5	/experiments/AOT/AOT_stimuli/rescaled_final/2016_fw.mp4	0.0	256.47790002822876	1.0000550746917725
32	236.0073311328888	pulse	0	t		30.0	2.5	/experiments/AOT/AOT_stimuli/rescaled_final/2016_fw.mp4	0.0	256.661502122879	
32	236.8237841129303	movie	1		243	30.0	2.5	/experiments/AOT/AOT_stimuli/rescaled_final/2016_fw.mp4	0.0	257.47795510292053	2.499901056289673
32	237.60727620124817	pulse	1	t		30.0	2.5	/experiments/AOT/AOT_stimuli/rescaled_final/2016_fw.mp4	0.0	258.2614471912384	
32	239.205717086792	pulse	1	t		30.0	2.5	/experiments/AOT/AOT_stimuli/rescaled_final/2016_fw.mp4	0.0	259.8598880767822	
32	239.32368516921997	fix_post	2		12	30.0	2.5	/experiments/AOT/AOT_stimuli/rescaled_final/2016_fw.mp4	0.0	259.9778561592102	0.09999680519104004
33	239.423681974411	fix_pre	0		120	31.0	2.5	/experiments/AOT/AOT_stimuli/rescaled_final/1200_fw.mp4	0.0	260.07785296440125	1.0001001358032227
33	240.42378211021423	movie	1		243	31.0	2.5	/experiments/AOT/AOT_stimuli/rescaled_final/1200_fw.mp4	0.0	261.07795310020447	2.4999189376831055
33	240.80700302124023	pulse	1	t		31.0	2.5	/experiments/AOT/AOT_stimuli/rescaled_final/1200_fw.mp4	0.0	261.46117401123047	
33	242.40725111961365	pulse	1	t		31.0	2.5	/experiments/AOT/AOT_stimuli/rescaled_final/1200_fw.mp4	0.0	263.0614221096039	
33	242.92370104789734	fix_post	2		12	31.0	2.5	/experiments/AOT/AOT_stimuli/rescaled_final/1200_fw.mp4	0.0	263.5778720378876	0.10002899169921875
34	243.02373003959656	fix_pre	0		119	32.0	2.5	/experiments/AOT/AOT_stimuli/rescaled_final/1220_rv.mp4	0.0	263.6779010295868	0.9915740489959717
34	244.00715804100037	pulse	0	t		32.0	2.5	/experiments/AOT/AOT_stimuli/rescaled_final/1220_rv.mp4	0.0	264.6613290309906	
34	244.01530408859253	movie	1		245	32.0	2.5	/experiments/AOT/AOT_stimuli/rescaled_final/1220_rv.mp4	0.0	264.66947507858276	2.5084800720214844
34	245.60655307769775	pulse	1	t		32.0	2.5	/experiments/AOT/AOT_stimuli/rescaled_final/1220_rv.mp4	0.0	266.260724067688	
34	246.523784160614	fix_post	2		12	32.0	2.5	/experiments/AOT/AOT_stimuli/rescaled_final/1220_rv.mp4	0.0	267.17795515060425	0.10000181198120117
35	246.62378597259521	fix_pre	0		120	33.0	2.5	/experiments/AOT/AOT_stimuli/rescaled_final/1828_rv.mp4	0.0	267.27795696258545	0.9999802112579346
35	247.20727801322937	pulse	0	t		33.0	2.5	/experiments/AOT/AOT_stimuli/rescaled_final/1828_rv.mp4	0.0	267.8614490032196	
35	247.62376618385315	movie	1		246	33.0	2.5	/experiments/AOT/AOT_stimuli/rescaled_final/1828_rv.mp4	0.0	268.2779371738434	2.500030994415283
35	248.80733919143677	pulse	1	t		33.0	2.5	/experiments/AOT/AOT_stimuli/rescaled_final/1828_rv.mp4	0.0	269.461510181427	
35	250.12379717826843	fix_post	2		12	33.0	2.5	/experiments/AOT/AOT_stimuli/rescaled_final/1828_rv.mp4	0.0	270.77796816825867	0.09946393966674805
36	250.22326111793518	fix_pre	0		120	34.0	2.5	/experiments/AOT/AOT_stimuli/rescaled_final/0004_rv.mp4	0.0	270.8774321079254	1.0000438690185547
36	250.40678215026855	pulse	0	t		34.0	2.5	/experiments/AOT/AOT_stimuli/rescaled_final/0004_rv.mp4	0.0	271.0609531402588	
36	251.22330498695374	movie	1		244	34.0	2.5	/experiments/AOT/AOT_stimuli/rescaled_final/0004_rv.mp4	0.0	271.87747597694397	2.5003139972686768
36	252.00727009773254	pulse	1	t		34.0	2.5	/experiments/AOT/AOT_stimuli/rescaled_final/0004_rv.mp4	0.0	272.6614410877228	
36	253.60557007789612	pulse	1	t		34.0	2.5	/experiments/AOT/AOT_stimuli/rescaled_final/0004_rv.mp4	0.0	274.25974106788635	
36	253.7236189842224	fix_post	2		12	34.0	2.5	/experiments/AOT/AOT_stimuli/rescaled_final/0004_rv.mp4	0.0	274.37778997421265	0.10013699531555176
37	253.82375597953796	fix_pre	0		120	35.0	2.5	blank	1.0	274.4779269695282	0.9999470710754395
37	254.8237030506134	movie	1		300	35.0	2.5	blank	1.0	275.47787404060364	2.500148057937622
37	255.20716309547424	pulse	1	t		35.0	2.5	blank	1.0	275.8613340854645	
37	256.8071839809418	pulse	1	t		35.0	2.5	blank	1.0	277.461354970932	
37	257.323851108551	fix_post	2		12	35.0	2.5	blank	1.0	277.97802209854126	0.09995698928833008
38	257.42380809783936	fix_pre	0		119	36.0	2.5	/experiments/AOT/AOT_stimuli/rescaled_final/1924_fw.mp4	0.0	278.0779790878296	0.9914469718933105
38	258.4070551395416	pulse	0	t		36.0	2.5	/experiments/AOT/AOT_stimuli/rescaled_final/1924_fw.mp4	0.0	279.06122612953186	
38	258.41525506973267	movie	1		245	36.0	2.5	/experiments/AOT/AOT_stimuli/rescaled_final/1924_fw.mp4	0.0	279.0694260597229	2.508646011352539
38	260.0076050758362	pulse	1	t		36.0	2.5	/experiments/AOT/AOT_stimuli/rescaled_final/1924_fw.mp4	0.0	280.6617760658264	
38	260.9239010810852	fix_post	2		12	36.0	2.5	/experiments/AOT/AOT_stimuli/rescaled_final/1924_fw.mp4	0.0	281.57807207107544	0.09981203079223633
39	261.02371311187744	fix_pre	0		120	37.0	2.5	/experiments/AOT/AOT_stimuli/rescaled_final/0680_fw.mp4	0.0	281.6778841018677	0.9999599456787109
39	261.60714507102966	pulse	0	t		37.0	2.5	/experiments/AOT/AOT_stimuli/rescaled_final/0680_fw.mp4	0.0	282.2613160610199	
39	262.02367305755615	movie	1		243	37.0	2.5	/experiments/AOT/AOT_stimuli/rescaled_final/0680_fw.mp4	0.0	282.6778440475464	2.4999749660491943
39	263.2071940898895	pulse	1	t		37.0	2.5	/experiments/AOT/AOT_stimuli/rescaled_final/0680_fw.mp4	0.0	283.86136507987976	
39	264.52364802360535	fix_post	2		12	37.0	2.5	/experiments/AOT/AOT_stimuli/rescaled_final/0680_fw.mp4	0.0	285.1778190135956	0.09998202323913574
40	264.6236300468445	fix_pre	0		120	38.0	2.5	/experiments/AOT/AOT_stimuli/rescaled_final/1952_fw.mp4	0.0	285.2778010368347	0.9999499320983887
40	264.80711913108826	pulse	0	t		38.0	2.5	/experiments/AOT/AOT_stimuli/rescaled_final/1952_fw.mp4	0.0	285.4612901210785	
40	265.62357997894287	movie	1		245	38.0	2.5	/experiments/AOT/AOT_stimuli/rescaled_final/1952_fw.mp4	0.0	286.2777509689331	2.500012159347534
40	266.4070951938629	pulse	1	t		38.0	2.5	/experiments/AOT/AOT_stimuli/rescaled_final/1952_fw.mp4	0.0	287.06126618385315	
40	268.0066840648651	pulse	1	t		38.0	2.5	/experiments/AOT/AOT_stimuli/rescaled_final/1952_fw.mp4	0.0	288.66085505485535	
40	268.1235921382904	fix_post	2		12	38.0	2.5	/experiments/AOT/AOT_stimuli/rescaled_final/1952_fw.mp4	0.0	288.77776312828064	0.10003995895385742
41	268.22363209724426	fix_pre	0		120	39.0	2.5	/experiments/AOT/AOT_stimuli/rescaled_final/0372_fw.mp4	0.0	288.8778030872345	0.9999690055847168
41	269.223601102829	movie	1		242	39.0	2.5	/experiments/AOT/AOT_stimuli/rescaled_final/0372_fw.mp4	0.0	289.8777720928192	2.5000438690185547
41	269.6069359779358	pulse	1	t		39.0	2.5	/experiments/AOT/AOT_stimuli/rescaled_final/0372_fw.mp4	0.0	290.261106967926	
41	271.20708107948303	pulse	1	t		39.0	2.5	/experiments/AOT/AOT_stimuli/rescaled_final/0372_fw.mp4	0.0	291.86125206947327	
41	271.72364497184753	fix_post	2		12	39.0	2.5	/experiments/AOT/AOT_stimuli/rescaled_final/0372_fw.mp4	0.0	292.37781596183777	0.09994316101074219
42	271.8235881328583	fix_pre	0		119	40.0	2.5	/experiments/AOT/AOT_stimuli/rescaled_final/1156_rv.mp4	0.0	292.4777591228485	0.9916579723358154
42	272.8070662021637	pulse	0	t		40.0	2.5	/experiments/AOT/AOT_stimuli/rescaled_final/1156_rv.mp4	0.0	293.46123719215393	
42	272.8152461051941	movie	1		245	40.0	2.5	/experiments/AOT/AOT_stimuli/rescaled_final/1156_rv.mp4	0.0	293.4694170951843	2.508323907852173
42	274.4068560600281	pulse	1	t		40.0	2.5	/experiments/AOT/AOT_stimuli/rescaled_final/1156_rv.mp4	0.0	295.0610270500183	
42	275.32357001304626	fix_post	2		12	40.0	2.5	/experiments/AOT/AOT_stimuli/rescaled_final/1156_rv.mp4	0.0	295.9777410030365	0.0999300479888916
43	275.42350006103516	fix_pre	0		120	41.0	2.5	blank	1.0	296.0776710510254	1.0000979900360107
43	276.0071051120758	pulse	0	t		41.0	2.5	blank	1.0	296.66127610206604	
43	276.42359805107117	movie	1		300	41.0	2.5	blank	1.0	297.0777690410614	2.4999711513519287
43	277.6070191860199	pulse	1	t		41.0	2.5	blank	1.0	298.26119017601013	
43	278.9235692024231	fix_post	2		12	41.0	2.5	blank	1.0	299.57774019241333	0.1000359058380127
44	279.0236051082611	fix_pre	0		120	42.0	2.5	/experiments/AOT/AOT_stimuli/rescaled_final/2063_fw.mp4	0.0	299.67777609825134	0.9998688697814941
44	279.20706820487976	pulse	0	t		42.0	2.5	/experiments/AOT/AOT_stimuli/rescaled_final/2063_fw.mp4	0.0	299.86123919487	
44	280.0234739780426	movie	1		246	42.0	2.5	/experiments/AOT/AOT_stimuli/rescaled_final/2063_fw.mp4	0.0	300.67764496803284	2.499998092651367
44	280.80705308914185	pulse	1	t		42.0	2.5	/experiments/AOT/AOT_stimuli/rescaled_final/2063_fw.mp4	0.0	301.4612240791321	
44	282.4057321548462	pulse	1	t		42.0	2.5	/experiments/AOT/AOT_stimuli/rescaled_final/2063_fw.mp4	0.0	303.0599031448364	
44	282.52347207069397	fix_post	2		12	42.0	2.5	/experiments/AOT/AOT_stimuli/rescaled_final/2063_fw.mp4	0.0	303.1776430606842	0.1000359058380127
45	282.623507976532	fix_pre	0		120	43.0	2.5	/experiments/AOT/AOT_stimuli/rescaled_final/0406_rv.mp4	0.0	303.2776789665222	1.000101089477539
45	283.6236090660095	movie	1		244	43.0	2.5	/experiments/AOT/AOT_stimuli/rescaled_final/0406_rv.mp4	0.0	304.27778005599976	2.4999659061431885
45	284.0079519748688	pulse	1	t		43.0	2.5	/experiments/AOT/AOT_stimuli/rescaled_final/0406_rv.mp4	0.0	304.662122964859	
45	285.6070501804352	pulse	1	t		43.0	2.5	/experiments/AOT/AOT_stimuli/rescaled_final/0406_rv.mp4	0.0	306.2612211704254	
45	286.1235749721527	fix_post	2		12	43.0	2.5	/experiments/AOT/AOT_stimuli/rescaled_final/0406_rv.mp4	0.0	306.77774596214294	0.09996700286865234
46	286.22354197502136	fix_pre	0		119	44.0	2.5	/experiments/AOT/AOT_stimuli/rescaled_final/1241_rv.mp4	0.0	306.8777129650116	0.9916682243347168
46	287.20705103874207	pulse	0	t		44.0	2.5	/experiments/AOT/AOT_stimuli/rescaled_final/1241_rv.mp4	0.0	307.8612220287323	
46	287.2152101993561	movie	1		245	44.0	2.5	/experiments/AOT/AOT_stimuli/rescaled_final/1241_rv.mp4	0.0	307.8693811893463	2.50837779045105
46	288.80680108070374	pulse	1	t		44.0	2.5	/experiments/AOT/AOT_stimuli/rescaled_final/1241_rv.mp4	0.0	309.46097207069397	
46	289.72358798980713	fix_post	2		12	44.0	2.5	/experiments/AOT/AOT_stimuli/rescaled_final/1241_rv.mp4	0.0	310.37775897979736	0.09992504119873047
47	289.82351303100586	fix_pre	0		120	45.0	2.5	/experiments/AOT/AOT_stimuli/rescaled_final/0189_rv.mp4	0.0	310.4776840209961	1.0000419616699219
47	290.40703320503235	pulse	0	t		45.0	2.5	/experiments/AOT/AOT_stimuli/rescaled_final/0189_rv.mp4	0.0	311.0612041950226	
47	290.8235549926758	movie	1		243	45.0	2.5	/experiments/AOT/AOT_stimuli/rescaled_final/0189_rv.mp4	0.0	311.477725982666	2.499891996383667
47	292.0071060657501	pulse	1	t		45.0	2.5	/experiments/AOT/AOT_stimuli/rescaled_final/0189_rv.mp4	0.0	312.66127705574036	
47	293.32344698905945	fix_post	2		12	45.0	2.5	/experiments/AOT/AOT_stimuli/rescaled_final/0189_rv.mp4	0.0	313.9776179790497	0.10013008117675781
48	293.4235770702362	fix_pre	0		120	46.0	2.5	/experiments/AOT/AOT_stimuli/rescaled_final/1293_rv.mp4	0.0	314.07774806022644	0.9999580383300781
48	293.60701513290405	pulse	0	t		46.0	2.5	/experiments/AOT/AOT_stimuli/rescaled_final/1293_rv.mp4	0.0	314.2611861228943	
48	294.4235351085663	movie	1		243	46.0	2.5	/experiments/AOT/AOT_stimuli/rescaled_final/1293_rv.mp4	0.0	315.0777060985565	2.499943971633911
48	295.20695519447327	pulse	1	t		46.0	2.5	/experiments/AOT/AOT_stimuli/rescaled_final/1293_rv.mp4	0.0	315.8611261844635	
48	296.8051691055298	pulse	1	t		46.0	2.5	/experiments/AOT/AOT_stimuli/rescaled_final/1293_rv.mp4	0.0	317.45934009552	
48	296.9234790802002	fix_post	2		12	46.0	2.5	/experiments/AOT/AOT_stimuli/rescaled_final/1293_rv.mp4	0.0	317.57765007019043	0.10004091262817383
49	297.02351999282837	fix_pre	0		120	47.0	2.5	/experiments/AOT/AOT_stimuli/rescaled_final/1691_rv.mp4	0.0	317.6776909828186	1.0000030994415283
49	298.0235230922699	movie	1		242	47.0	2.5	/experiments/AOT/AOT_stimuli/rescaled_final/1691_rv.mp4	0.0	318.67769408226013	2.499880075454712
49	298.40664315223694	pulse	1	t		47.0	2.5	/experiments/AOT/AOT_stimuli/rescaled_final/1691_rv.mp4	0.0	319.0608141422272	
49	300.0069441795349	pulse	1	t		47.0	2.5	/experiments/AOT/AOT_stimuli/rescaled_final/1691_rv.mp4	0.0	320.66111516952515	
49	300.5234031677246	fix_post	2		12	47.0	2.5	/experiments/AOT/AOT_stimuli/rescaled_final/1691_rv.mp4	0.0	321.17757415771484	0.10003900527954102
50	300.62344217300415	fix_pre	0		119	48.0	2.5	/experiments/AOT/AOT_stimuli/rescaled_final/1167_rv.mp4	0.0	321.2776131629944	0.991832971572876
50	301.60689997673035	pulse	0	t		48.0	2.5	/experiments/AOT/AOT_stimuli/rescaled_final/1167_rv.mp4	0.0	322.2610709667206	
50	301.615275144577	movie	1		245	48.0	2.5	/experiments/AOT/AOT_stimuli/rescaled_final/1167_rv.mp4	0.0	322.26944613456726	2.508309841156006
50	303.2068660259247	pulse	1	t		48.0	2.5	/experiments/AOT/AOT_stimuli/rescaled_final/1167_rv.mp4	0.0	323.8610370159149	
50	304.12358498573303	fix_post	2		12	48.0	2.5	/experiments/AOT/AOT_stimuli/rescaled_final/1167_rv.mp4	0.0	324.77775597572327	0.09991216659545898
51	304.2234971523285	fix_pre	0		120	49.0	2.5	blank	1.0	324.8776681423187	1.0000739097595215
51	304.80691719055176	pulse	0	t		49.0	2.5	blank	1.0	325.461088180542	
51	305.223571062088	movie	1		300	49.0	2.5	blank	1.0	325.87774205207825	2.4995391368865967
51	306.4065020084381	pulse	1	t		49.0	2.5	blank	1.0	327.06067299842834	
51	307.7231101989746	fix_post	2		12	49.0	2.5	blank	1.0	328.37728118896484	0.10045289993286133
52	307.82356309890747	fix_pre	0		120	50.0	2.5	/experiments/AOT/AOT_stimuli/rescaled_final/1285_fw.mp4	0.0	328.4777340888977	1.000148057937622
52	308.007071018219	pulse	0	t		50.0	2.5	/experiments/AOT/AOT_stimuli/rescaled_final/1285_fw.mp4	0.0	328.66124200820923	
52	308.8237111568451	movie	1		243	50.0	2.5	/experiments/AOT/AOT_stimuli/rescaled_final/1285_fw.mp4	0.0	329.4778821468353	2.499748945236206
52	309.6069211959839	pulse	1	t		50.0	2.5	/experiments/AOT/AOT_stimuli/rescaled_final/1285_fw.mp4	0.0	330.2610921859741	
52	311.2056140899658	pulse	1	t		50.0	2.5	/experiments/AOT/AOT_stimuli/rescaled_final/1285_fw.mp4	0.0	331.85978507995605	
52	311.3234601020813	fix_post	2		12	50.0	2.5	/experiments/AOT/AOT_stimuli/rescaled_final/1285_fw.mp4	0.0	331.97763109207153	0.09996891021728516
53	311.4234290122986	fix_pre	0		120	51.0	2.5	/experiments/AOT/AOT_stimuli/rescaled_final/1218_fw.mp4	0.0	332.0776000022888	0.9999001026153564
53	312.42332911491394	movie	1		244	51.0	2.5	/experiments/AOT/AOT_stimuli/rescaled_final/1218_fw.mp4	0.0	333.0775001049042	2.5000009536743164
53	312.8067030906677	pulse	1	t		51.0	2.5	/experiments/AOT/AOT_stimuli/rescaled_final/1218_fw.mp4	0.0	333.46087408065796	
53	314.4068191051483	pulse	1	t		51.0	2.5	/experiments/AOT/AOT_stimuli/rescaled_final/1218_fw.mp4	0.0	335.06099009513855	
53	314.92333006858826	fix_post	2		12	51.0	2.5	/experiments/AOT/AOT_stimuli/rescaled_final/1218_fw.mp4	0.0	335.5775010585785	0.09998393058776855
54	315.023313999176	fix_pre	0		119	52.0	2.5	/experiments/AOT/AOT_stimuli/rescaled_final/0948_rv.mp4	0.0	335.67748498916626	0.9916679859161377
54	316.00690603256226	pulse	0	t		52.0	2.5	/experiments/AOT/AOT_stimuli/rescaled_final/0948_rv.mp4	0.0	336.6610770225525	
54	316.01498198509216	movie	1		245	52.0	2.5	/experiments/AOT/AOT_stimuli/rescaled_final/0948_rv.mp4	0.0	336.6691529750824	2.5083391666412354
54	317.6072881221771	pulse	1	t		52.0	2.5	/experiments/AOT/AOT_stimuli/rescaled_final/0948_rv.mp4	0.0	338.26145911216736	
54	318.5233211517334	fix_post	2		12	52.0	2.5	/experiments/AOT/AOT_stimuli/rescaled_final/0948_rv.mp4	0.0	339.17749214172363	0.10002994537353516
55	318.62335109710693	fix_pre	0		120	53.0	2.5	/experiments/AOT/AOT_stimuli/rescaled_final/0593_fw.mp4	0.0	339.27752208709717	0.9999549388885498
55	319.2069160938263	pulse	0	t		53.0	2.5	/experiments/AOT/AOT_stimuli/rescaled_final/0593_fw.mp4	0.0	339.8610870838165	
55	319.6233060359955	movie	1		244	53.0	2.5	/experiments/AOT/AOT_stimuli/rescaled_final/0593_fw.mp4	0.0	340.2774770259857	2.5000030994415283
55	320.8069770336151	pulse	1	t		53.0	2.5	/experiments/AOT/AOT_stimuli/rescaled_final/0593_fw.mp4	0.0	341.46114802360535	
55	322.123309135437	fix_post	2		12	53.0	2.5	/experiments/AOT/AOT_stimuli/rescaled_final/0593_fw.mp4	0.0	342.77748012542725	0.09995484352111816
56	322.22326397895813	fix_pre	0		120	54.0	2.5	blank	1.0	342.87743496894836	1.0000660419464111
56	322.4067950248718	pulse	0	t		54.0	2.5	blank	1.0	343.06096601486206	
56	323.22333002090454	movie	1		300	54.0	2.5	blank	1.0	343.8775010108948	2.4999310970306396
56	324.00692105293274	pulse	1	t		54.0	2.5	blank	1.0	344.661092042923	
56	325.6068720817566	pulse	1	t		54.0	2.5	blank	1.0	346.2610430717468	
56	325.7232611179352	fix_post	2		12	54.0	2.5	blank	1.0	346.3774321079254	0.10005402565002441
57	325.8233151435852	fix_pre	0		120	55.0	2.5	/experiments/AOT/AOT_stimuli/rescaled_final/0374_rv.mp4	0.0	346.47748613357544	0.9999959468841553
57	326.82331109046936	movie	1		244	55.0	2.5	/experiments/AOT/AOT_stimuli/rescaled_final/0374_rv.mp4	0.0	347.4774820804596	2.4999749660491943
57	327.2070641517639	pulse	1	t		55.0	2.5	/experiments/AOT/AOT_stimuli/rescaled_final/0374_rv.mp4	0.0	347.86123514175415	
57	328.80684208869934	pulse	1	t		55.0	2.5	/experiments/AOT/AOT_stimuli/rescaled_final/0374_rv.mp4	0.0	349.4610130786896	
57	329.32328605651855	fix_post	2		12	55.0	2.5	/experiments/AOT/AOT_stimuli/rescaled_final/0374_rv.mp4	0.0	349.9774570465088	0.100006103515625
58	329.4232921600342	fix_pre	0		119	56.0	2.5	/experiments/AOT/AOT_stimuli/rescaled_final/1257_rv.mp4	0.0	350.0774631500244	0.9916439056396484
58	330.40690207481384	pulse	0	t		56.0	2.5	/experiments/AOT/AOT_stimuli/rescaled_final/1257_rv.mp4	0.0	351.0610730648041	
58	330.4149360656738	movie	1		247	56.0	2.5	/experiments/AOT/AOT_stimuli/rescaled_final/1257_rv.mp4	0.0	351.06910705566406	2.508327007293701
58	332.0062870979309	pulse	1	t		56.0	2.5	/experiments/AOT/AOT_stimuli/rescaled_final/1257_rv.mp4	0.0	352.66045808792114	
58	332.92326307296753	fix_post	2		12	56.0	2.5	/experiments/AOT/AOT_stimuli/rescaled_final/1257_rv.mp4	0.0	353.57743406295776	0.09996390342712402
59	333.02322697639465	fix_pre	0		120	57.0	2.5	/experiments/AOT/AOT_stimuli/rescaled_final/1203_fw.mp4	0.0	353.6773979663849	0.9999871253967285
59	333.60672307014465	pulse	0	t		57.0	2.5	/experiments/AOT/AOT_stimuli/rescaled_final/1203_fw.mp4	0.0	354.2608940601349	
59	334.0232141017914	movie	1		244	57.0	2.5	/experiments/AOT/AOT_stimuli/rescaled_final/1203_fw.mp4	0.0	354.6773850917816	2.500051975250244
59	335.206876039505	pulse	1	t		57.0	2.5	/experiments/AOT/AOT_stimuli/rescaled_final/1203_fw.mp4	0.0	355.86104702949524	
59	336.5232660770416	fix_post	2		12	57.0	2.5	/experiments/AOT/AOT_stimuli/rescaled_final/1203_fw.mp4	0.0	357.17743706703186	0.09999799728393555
60	336.62326407432556	fix_pre	0		120	58.0	2.5	/experiments/AOT/AOT_stimuli/rescaled_final/1703_fw.mp4	0.0	357.2774350643158	0.9999921321868896
60	336.80687403678894	pulse	0	t		58.0	2.5	/experiments/AOT/AOT_stimuli/rescaled_final/1703_fw.mp4	0.0	357.4610450267792	
60	337.62325620651245	movie	1		244	58.0	2.5	/experiments/AOT/AOT_stimuli/rescaled_final/1703_fw.mp4	0.0	358.2774271965027	2.500001907348633
60	338.4067540168762	pulse	1	t		58.0	2.5	/experiments/AOT/AOT_stimuli/rescaled_final/1703_fw.mp4	0.0	359.06092500686646	
60	340.0052070617676	pulse	1	t		58.0	2.5	/experiments/AOT/AOT_stimuli/rescaled_final/1703_fw.mp4	0.0	360.6593780517578	
60	340.1232581138611	fix_post	2		12	58.0	2.5	/experiments/AOT/AOT_stimuli/rescaled_final/1703_fw.mp4	0.0	360.7774291038513	0.10000896453857422
61	340.22326707839966	fix_pre	0		120	59.0	2.5	/experiments/AOT/AOT_stimuli/rescaled_final/0592_rv.mp4	0.0	360.8774380683899	1.0000009536743164
61	341.223268032074	movie	1		246	59.0	2.5	/experiments/AOT/AOT_stimuli/rescaled_final/0592_rv.mp4	0.0	361.8774390220642	2.5000030994415283
61	341.6067941188812	pulse	1	t		59.0	2.5	/experiments/AOT/AOT_stimuli/rescaled_final/0592_rv.mp4	0.0	362.26096510887146	
61	343.2068700790405	pulse	1	t		59.0	2.5	/experiments/AOT/AOT_stimuli/rescaled_final/0592_rv.mp4	0.0	363.86104106903076	
61	343.7232711315155	fix_post	2		12	59.0	2.5	/experiments/AOT/AOT_stimuli/rescaled_final/0592_rv.mp4	0.0	364.37744212150574	0.10004401206970215
62	343.8233151435852	fix_pre	0		119	60.0	2.5	/experiments/AOT/AOT_stimuli/rescaled_final/0220_fw.mp4	0.0	364.47748613357544	0.9916770458221436
62	344.80675315856934	pulse	0	t		60.0	2.5	/experiments/AOT/AOT_stimuli/rescaled_final/0220_fw.mp4	0.0	365.46092414855957	
62	344.81499218940735	movie	1		247	60.0	2.5	/experiments/AOT/AOT_stimuli/rescaled_final/0220_fw.mp4	0.0	365.4691631793976	2.5083439350128174
62	346.4064600467682	pulse	1	t		60.0	2.5	/experiments/AOT/AOT_stimuli/rescaled_final/0220_fw.mp4	0.0	367.0606310367584	
62	347.32333612442017	fix_post	2		12	60.0	2.5	/experiments/AOT/AOT_stimuli/rescaled_final/0220_fw.mp4	0.0	367.9775071144104	0.09995889663696289
63	347.42329502105713	fix_pre	0		120	61.0	2.5	/experiments/AOT/AOT_stimuli/rescaled_final/0374_fw.mp4	0.0	368.07746601104736	0.9999890327453613
63	348.0067059993744	pulse	0	t		61.0	2.5	/experiments/AOT/AOT_stimuli/rescaled_final/0374_fw.mp4	0.0	368.6608769893646	
63	348.4232840538025	movie	1		245	61.0	2.5	/experiments/AOT/AOT_stimuli/rescaled_final/0374_fw.mp4	0.0	369.0774550437927	2.4999780654907227
63	349.6068420410156	pulse	1	t		61.0	2.5	/experiments/AOT/AOT_stimuli/rescaled_final/0374_fw.mp4	0.0	370.26101303100586	
63	350.9232621192932	fix_post	2		12	61.0	2.5	/experiments/AOT/AOT_stimuli/rescaled_final/0374_fw.mp4	0.0	371.57743310928345	0.10000491142272949
64	351.02326703071594	fix_pre	0		120	62.0	2.5	blank	1.0	371.6774380207062	1.0000221729278564
64	351.2067711353302	pulse	0	t		62.0	2.5	blank	1.0	371.86094212532043	
64	352.0232892036438	movie	1		300	62.0	2.5	blank	1.0	372.67746019363403	2.499966859817505
64	352.80668115615845	pulse	1	t		62.0	2.5	blank	1.0	373.4608521461487	
64	354.4067351818085	pulse	1	t		62.0	2.5	blank	1.0	375.0609061717987	
64	354.5232560634613	fix_post	2		12	62.0	2.5	blank	1.0	375.17742705345154	0.1000509262084961
65	354.6233069896698	fix_pre	0		120	63.0	2.5	/experiments/AOT/AOT_stimuli/rescaled_final/0133_rv.mp4	0.0	375.27747797966003	0.9998760223388672
65	355.62318301200867	movie	1		243	63.0	2.5	/experiments/AOT/AOT_stimuli/rescaled_final/0133_rv.mp4	0.0	376.2773540019989	2.500141143798828
65	356.00617599487305	pulse	1	t		63.0	2.5	/experiments/AOT/AOT_stimuli/rescaled_final/0133_rv.mp4	0.0	376.6603469848633	
65	357.6066060066223	pulse	1	t		63.0	2.5	/experiments/AOT/AOT_stimuli/rescaled_final/0133_rv.mp4	0.0	378.26077699661255	
65	358.1233241558075	fix_post	2		12	63.0	2.5	/experiments/AOT/AOT_stimuli/rescaled_final/0133_rv.mp4	0.0	378.77749514579773	0.09991598129272461
66	358.2232401371002	fix_pre	0		119	64.0	2.5	/experiments/AOT/AOT_stimuli/rescaled_final/1510_rv.mp4	0.0	378.87741112709045	0.9915969371795654
66	359.2066171169281	pulse	0	t		64.0	2.5	/experiments/AOT/AOT_stimuli/rescaled_final/1510_rv.mp4	0.0	379.86078810691833	
66	359.2148370742798	movie	1		245	64.0	2.5	/experiments/AOT/AOT_stimuli/rescaled_final/1510_rv.mp4	0.0	379.86900806427	2.508409023284912
66	360.8062171936035	pulse	1	t		64.0	2.5	/experiments/AOT/AOT_stimuli/rescaled_final/1510_rv.mp4	0.0	381.46038818359375	
66	361.7232460975647	fix_post	2		12	64.0	2.5	/experiments/AOT/AOT_stimuli/rescaled_final/1510_rv.mp4	0.0	382.37741708755493	0.10005593299865723
67	361.82330203056335	fix_pre	0		120	65.0	2.5	/experiments/AOT/AOT_stimuli/rescaled_final/0414_rv.mp4	0.0	382.4774730205536	0.9999539852142334
67	362.40666913986206	pulse	0	t		65.0	2.5	/experiments/AOT/AOT_stimuli/rescaled_final/0414_rv.mp4	0.0	383.0608401298523	
67	362.8232560157776	movie	1		245	65.0	2.5	/experiments/AOT/AOT_stimuli/rescaled_final/0414_rv.mp4	0.0	383.4774270057678	2.499904155731201
67	364.0064101219177	pulse	1	t		65.0	2.5	/experiments/AOT/AOT_stimuli/rescaled_final/0414_rv.mp4	0.0	384.66058111190796	
67	365.3231601715088	fix_post	2		12	65.0	2.5	/experiments/AOT/AOT_stimuli/rescaled_final/0414_rv.mp4	0.0	385.977331161499	0.09996891021728516
68	365.4231290817261	fix_pre	0		120	66.0	2.5	/experiments/AOT/AOT_stimuli/rescaled_final/1622_rv.mp4	0.0	386.0773000717163	1.0001049041748047
68	365.6066710948944	pulse	0	t		66.0	2.5	/experiments/AOT/AOT_stimuli/rescaled_final/1622_rv.mp4	0.0	386.26084208488464	
68	366.4232339859009	movie	1		244	66.0	2.5	/experiments/AOT/AOT_stimuli/rescaled_final/1622_rv.mp4	0.0	387.0774049758911	2.4999351501464844
68	367.2065670490265	pulse	1	t		66.0	2.5	/experiments/AOT/AOT_stimuli/rescaled_final/1622_rv.mp4	0.0	387.8607380390167	
68	368.80501914024353	pulse	1	t		66.0	2.5	/experiments/AOT/AOT_stimuli/rescaled_final/1622_rv.mp4	0.0	389.45919013023376	
68	368.92316913604736	fix_post	2		12	66.0	2.5	/experiments/AOT/AOT_stimuli/rescaled_final/1622_rv.mp4	0.0	389.5773401260376	0.09998106956481934
69	369.0231502056122	fix_pre	0		120	67.0	2.5	/experiments/AOT/AOT_stimuli/rescaled_final/1695_rv.mp4	0.0	389.6773211956024	0.9999918937683105
69	370.0231420993805	movie	1		245	67.0	2.5	/experiments/AOT/AOT_stimuli/rescaled_final/1695_rv.mp4	0.0	390.6773130893707	2.4999890327453613
69	370.40618419647217	pulse	1	t		67.0	2.5	/experiments/AOT/AOT_stimuli/rescaled_final/1695_rv.mp4	0.0	391.0603551864624	
69	372.0066010951996	pulse	1	t		67.0	2.5	/experiments/AOT/AOT_stimuli/rescaled_final/1695_rv.mp4	0.0	392.6607720851898	
69	372.52313113212585	fix_post	2		12	67.0	2.5	/experiments/AOT/AOT_stimuli/rescaled_final/1695_rv.mp4	0.0	393.1773021221161	0.09996294975280762
70	372.62309408187866	fix_pre	0		119	68.0	2.5	/experiments/AOT/AOT_stimuli/rescaled_final/1066_rv.mp4	0.0	393.2772650718689	0.9916150569915771
70	373.60655212402344	pulse	0	t		68.0	2.5	/experiments/AOT/AOT_stimuli/rescaled_final/1066_rv.mp4	0.0	394.2607231140137	
70	373.61470913887024	movie	1		244	68.0	2.5	/experiments/AOT/AOT_stimuli/rescaled_final/1066_rv.mp4	0.0	394.2688801288605	2.5083959102630615
70	375.206157207489	pulse	1	t		68.0	2.5	/experiments/AOT/AOT_stimuli/rescaled_final/1066_rv.mp4	0.0	395.86032819747925	
70	376.1231050491333	fix_post	2		12	68.0	2.5	/experiments/AOT/AOT_stimuli/rescaled_final/1066_rv.mp4	0.0	396.77727603912354	0.09998297691345215
71	376.22308802604675	fix_pre	0		120	69.0	2.5	/experiments/AOT/AOT_stimuli/rescaled_final/0405_fw.mp4	0.0	396.877259016037	1.0000121593475342
71	376.80662512779236	pulse	0	t		69.0	2.5	/experiments/AOT/AOT_stimuli/rescaled_final/0405_fw.mp4	0.0	397.4607961177826	
71	377.2231001853943	movie	1		242	69.0	2.5	/experiments/AOT/AOT_stimuli/rescaled_final/0405_fw.mp4	0.0	397.8772711753845	2.5000100135803223
71	378.40663409233093	pulse	1	t		69.0	2.5	/experiments/AOT/AOT_stimuli/rescaled_final/0405_fw.mp4	0.0	399.06080508232117	
71	379.7231101989746	fix_post	2		12	69.0	2.5	/experiments/AOT/AOT_stimuli/rescaled_final/0405_fw.mp4	0.0	400.37728118896484	0.0999138355255127
72	379.8230240345001	fix_pre	0		120	70.0	2.5	blank	1.0	400.47719502449036	0.999993085861206
72	380.0065109729767	pulse	0	t		70.0	2.5	blank	1.0	400.6606819629669	
72	380.8230171203613	movie	1		300	70.0	2.5	blank	1.0	401.47718811035156	2.50004506111145
72	381.60654616355896	pulse	1	t		70.0	2.5	blank	1.0	402.2607171535492	
72	383.20640802383423	pulse	1	t		70.0	2.5	blank	1.0	403.86057901382446	
72	383.3230621814728	fix_post	2		12	70.0	2.5	blank	1.0	403.977233171463	0.10001087188720703
73	383.42307305336	fix_pre	0		120	71.0	2.5	/experiments/AOT/AOT_stimuli/rescaled_final/1214_fw.mp4	0.0	404.0772440433502	1.000007152557373
73	384.42308020591736	movie	1		245	71.0	2.5	/experiments/AOT/AOT_stimuli/rescaled_final/1214_fw.mp4	0.0	405.0772511959076	2.4999868869781494
73	384.80600905418396	pulse	1	t		71.0	2.5	/experiments/AOT/AOT_stimuli/rescaled_final/1214_fw.mp4	0.0	405.4601800441742	
73	386.4064781665802	pulse	1	t		71.0	2.5	/experiments/AOT/AOT_stimuli/rescaled_final/1214_fw.mp4	0.0	407.06064915657043	
73	386.9230670928955	fix_post	2		12	71.0	2.5	/experiments/AOT/AOT_stimuli/rescaled_final/1214_fw.mp4	0.0	407.57723808288574	0.09991598129272461
74	387.02298307418823	fix_pre	0		119	72.0	2.5	/experiments/AOT/AOT_stimuli/rescaled_final/1352_fw.mp4	0.0	407.67715406417847	0.9917700290679932
74	388.00657200813293	pulse	0	t		72.0	2.5	/experiments/AOT/AOT_stimuli/rescaled_final/1352_fw.mp4	0.0	408.66074299812317	
74	388.0147531032562	movie	1		244	72.0	2.5	/experiments/AOT/AOT_stimuli/rescaled_final/1352_fw.mp4	0.0	408.66892409324646	2.5081958770751953
74	389.606183052063	pulse	1	t		72.0	2.5	/experiments/AOT/AOT_stimuli/rescaled_final/1352_fw.mp4	0.0	410.2603540420532	
74	390.5229489803314	fix_post	2		12	72.0	2.5	/experiments/AOT/AOT_stimuli/rescaled_final/1352_fw.mp4	0.0	411.17711997032166	0.10009407997131348
75	390.62304306030273	fix_pre	0		120	73.0	2.5	/experiments/AOT/AOT_stimuli/rescaled_final/0949_fw.mp4	0.0	411.27721405029297	0.9998559951782227
75	391.20651412010193	pulse	0	t		73.0	2.5	/experiments/AOT/AOT_stimuli/rescaled_final/0949_fw.mp4	0.0	411.86068511009216	
75	391.62289905548096	movie	1		244	73.0	2.5	/experiments/AOT/AOT_stimuli/rescaled_final/0949_fw.mp4	0.0	412.2770700454712	2.500030040740967
75	392.8065969944	pulse	1	t		73.0	2.5	/experiments/AOT/AOT_stimuli/rescaled_final/0949_fw.mp4	0.0	413.46076798439026	
75	394.1229290962219	fix_post	2		12	73.0	2.5	/experiments/AOT/AOT_stimuli/rescaled_final/0949_fw.mp4	0.0	414.77710008621216	0.10010790824890137
76	394.2230370044708	fix_pre	0		120	74.0	2.5	/experiments/AOT/AOT_stimuli/rescaled_final/1431_fw.mp4	0.0	414.87720799446106	0.9999911785125732
76	394.4065639972687	pulse	0	t		74.0	2.5	/experiments/AOT/AOT_stimuli/rescaled_final/1431_fw.mp4	0.0	415.0607349872589	
76	395.2230281829834	movie	1		245	74.0	2.5	/experiments/AOT/AOT_stimuli/rescaled_final/1431_fw.mp4	0.0	415.87719917297363	2.4999139308929443
76	396.0064949989319	pulse	1	t		74.0	2.5	/experiments/AOT/AOT_stimuli/rescaled_final/1431_fw.mp4	0.0	416.6606659889221	
76	397.6064360141754	pulse	1	t		74.0	2.5	/experiments/AOT/AOT_stimuli/rescaled_final/1431_fw.mp4	0.0	418.26060700416565	
76	397.72294211387634	fix_post	2		12	74.0	2.5	/experiments/AOT/AOT_stimuli/rescaled_final/1431_fw.mp4	0.0	418.3771131038666	0.09999203681945801
77	397.8229341506958	fix_pre	0		120	75.0	2.5	blank	1.0	418.47710514068604	0.9999818801879883
77	398.8229160308838	movie	1		300	75.0	2.5	blank	1.0	419.477087020874	2.5000860691070557
77	399.20650601387024	pulse	1	t		75.0	2.5	blank	1.0	419.8606770038605	
77	400.8064601421356	pulse	1	t		75.0	2.5	blank	1.0	421.46063113212585	
77	401.32300209999084	fix_post	2		12	75.0	2.5	blank	1.0	421.9771730899811	0.0999290943145752
78	401.4229311943054	fix_pre	0		119	76.0	2.5	/experiments/AOT/AOT_stimuli/rescaled_final/1695_fw.mp4	0.0	422.07710218429565	0.9916188716888428
78	402.40641808509827	pulse	0	t		76.0	2.5	/experiments/AOT/AOT_stimuli/rescaled_final/1695_fw.mp4	0.0	423.0605890750885	
78	402.41455006599426	movie	1		244	76.0	2.5	/experiments/AOT/AOT_stimuli/rescaled_final/1695_fw.mp4	0.0	423.0687210559845	2.5084280967712402
78	404.0062301158905	pulse	1	t		76.0	2.5	/experiments/AOT/AOT_stimuli/rescaled_final/1695_fw.mp4	0.0	424.66040110588074	
78	404.9229781627655	fix_post	2		12	76.0	2.5	/experiments/AOT/AOT_stimuli/rescaled_final/1695_fw.mp4	0.0	425.57714915275574	0.10003495216369629
79	405.0230131149292	fix_pre	0		120	77.0	2.5	/experiments/AOT/AOT_stimuli/rescaled_final/0179_fw.mp4	0.0	425.67718410491943	0.9999520778656006
79	405.6064260005951	pulse	0	t		77.0	2.5	/experiments/AOT/AOT_stimuli/rescaled_final/0179_fw.mp4	0.0	426.2605969905853	
79	406.0229651927948	movie	1		244	77.0	2.5	/experiments/AOT/AOT_stimuli/rescaled_final/0179_fw.mp4	0.0	426.67713618278503	2.499980926513672
79	407.20643520355225	pulse	1	t		77.0	2.5	/experiments/AOT/AOT_stimuli/rescaled_final/0179_fw.mp4	0.0	427.8606061935425	
79	408.5229461193085	fix_post	2		12	77.0	2.5	/experiments/AOT/AOT_stimuli/rescaled_final/0179_fw.mp4	0.0	429.1771171092987	0.0999288558959961
80	408.62287497520447	fix_pre	0		120	78.0	2.5	/experiments/AOT/AOT_stimuli/rescaled_final/0948_rv.mp4	0.0	429.2770459651947	0.9999880790710449
80	408.8065700531006	pulse	0	t		78.0	2.5	/experiments/AOT/AOT_stimuli/rescaled_final/0948_rv.mp4	0.0	429.4607410430908	
80	409.6228630542755	movie	1		243	78.0	2.5	/experiments/AOT/AOT_stimuli/rescaled_final/0948_rv.mp4	0.0	430.27703404426575	2.500102996826172
80	410.4063332080841	pulse	1	t		78.0	2.5	/experiments/AOT/AOT_stimuli/rescaled_final/0948_rv.mp4	0.0	431.06050419807434	
80	412.01476216316223	pulse	1	t		78.0	2.5	/experiments/AOT/AOT_stimuli/rescaled_final/0948_rv.mp4	0.0	432.66893315315247	
80	412.1229660511017	fix_post	2		12	78.0	2.5	/experiments/AOT/AOT_stimuli/rescaled_final/0948_rv.mp4	0.0	432.7771370410919	0.09989809989929199
81	412.222864151001	fix_pre	0		120	79.0	2.5	/experiments/AOT/AOT_stimuli/rescaled_final/1345_rv.mp4	0.0	432.8770351409912	1.0000388622283936
81	413.22290301322937	movie	1		243	79.0	2.5	/experiments/AOT/AOT_stimuli/rescaled_final/1345_rv.mp4	0.0	433.8770740032196	2.499998092651367
81	413.605947971344	pulse	1	t		79.0	2.5	/experiments/AOT/AOT_stimuli/rescaled_final/1345_rv.mp4	0.0	434.26011896133423	
81	415.20636320114136	pulse	1	t		79.0	2.5	/experiments/AOT/AOT_stimuli/rescaled_final/1345_rv.mp4	0.0	435.8605341911316	
81	415.72290110588074	fix_post	2		12	79.0	2.5	/experiments/AOT/AOT_stimuli/rescaled_final/1345_rv.mp4	0.0	436.377072095871	0.10002303123474121
82	415.8229241371155	fix_pre	0		119	80.0	2.5	/experiments/AOT/AOT_stimuli/rescaled_final/0451_rv.mp4	0.0	436.4770951271057	0.9916398525238037
82	416.8063771724701	pulse	0	t		80.0	2.5	/experiments/AOT/AOT_stimuli/rescaled_final/0451_rv.mp4	0.0	437.4605481624603	
82	416.8145639896393	movie	1		246	80.0	2.5	/experiments/AOT/AOT_stimuli/rescaled_final/0451_rv.mp4	0.0	437.4687349796295	2.508035182952881
82	418.4058451652527	pulse	1	t		80.0	2.5	/experiments/AOT/AOT_stimuli/rescaled_final/0451_rv.mp4	0.0	439.0600161552429	
82	419.32259917259216	fix_post	2		12	80.0	2.5	/experiments/AOT/AOT_stimuli/rescaled_final/0451_rv.mp4	0.0	439.9767701625824	0.10000395774841309
83	419.4226031303406	fix_pre	0		120	81.0	2.5	/experiments/AOT/AOT_stimuli/rescaled_final/1141_rv.mp4	0.0	440.0767741203308	1.000525951385498
83	420.0065791606903	pulse	0	t		81.0	2.5	/experiments/AOT/AOT_stimuli/rescaled_final/1141_rv.mp4	0.0	440.66075015068054	
83	420.4231290817261	movie	1		243	81.0	2.5	/experiments/AOT/AOT_stimuli/rescaled_final/1141_rv.mp4	0.0	441.0773000717163	2.499814033508301
83	421.60638999938965	pulse	1	t		81.0	2.5	/experiments/AOT/AOT_stimuli/rescaled_final/1141_rv.mp4	0.0	442.2605609893799	
83	422.9229431152344	fix_post	2		12	81.0	2.5	/experiments/AOT/AOT_stimuli/rescaled_final/1141_rv.mp4	0.0	443.5771141052246	0.09993886947631836
84	423.0228819847107	fix_pre	0		120	82.0	2.5	/experiments/AOT/AOT_stimuli/rescaled_final/0589_rv.mp4	0.0	443.6770529747009	1.0000030994415283
84	423.20641803741455	pulse	0	t		82.0	2.5	/experiments/AOT/AOT_stimuli/rescaled_final/0589_rv.mp4	0.0	443.8605890274048	
84	424.0228850841522	movie	1		247	82.0	2.5	/experiments/AOT/AOT_stimuli/rescaled_final/0589_rv.mp4	0.0	444.67705607414246	2.499967098236084
84	424.8063290119171	pulse	1	t		82.0	2.5	/experiments/AOT/AOT_stimuli/rescaled_final/0589_rv.mp4	0.0	445.46050000190735	
84	426.40594816207886	pulse	1	t		82.0	2.5	/experiments/AOT/AOT_stimuli/rescaled_final/0589_rv.mp4	0.0	447.0601191520691	
84	426.5228521823883	fix_post	2		12	82.0	2.5	/experiments/AOT/AOT_stimuli/rescaled_final/0589_rv.mp4	0.0	447.17702317237854	0.09999489784240723
85	426.6228470802307	fix_pre	0		120	83.0	2.5	blank	1.0	447.27701807022095	0.9999918937683105
85	427.622838973999	movie	1		300	83.0	2.5	blank	1.0	448.27700996398926	2.500073194503784
85	428.0062630176544	pulse	1	t		83.0	2.5	blank	1.0	448.66043400764465	
85	429.6062660217285	pulse	1	t		83.0	2.5	blank	1.0	450.26043701171875	
85	430.1229121685028	fix_post	2		12	83.0	2.5	blank	1.0	450.77708315849304	0.0999448299407959
87	430.2228569984436	stim	0		1716					450.87702798843384	14.29994797706604
87	431.2063190937042	pulse	0	t						451.86049008369446	
87	432.8062560558319	pulse	0	t						453.46042704582214	
87	434.4062900543213	pulse	0	t						455.0604610443115	
87	436.00628209114075	pulse	0	t						456.660453081131	
87	437.60619711875916	pulse	0	t						458.2603681087494	
87	439.20626997947693	pulse	0	t						459.86044096946716	
87	440.80624198913574	pulse	0	t						461.460412979126	
87	442.4062421321869	pulse	0	t						463.0604131221771	
87	444.00621509552	pulse	0	t						464.66038608551025	
