trial_nr	onset	event_type	phase	response	nr_frames	movie_index	movie_duration	movie_file	blank	onset_abs	duration
0	0.15824103355407715	stim	0		285					26.363702058792114	2.375032901763916
0	2.5252468585968018	response	0	space						28.73070788383484	
1	2.533273935317993	stim	0		13585					28.73873496055603	113.20727205276489
1	115.73749804496765	pulse	0	t						141.9429590702057	
1	115.74054598808289	stim	1		1717					141.94600701332092	14.308712005615234
1	117.33283185958862	pulse	1	t						143.53829288482666	
1	118.93280005455017	pulse	1	t						145.1382610797882	
1	120.53278303146362	pulse	1	t						146.73824405670166	
1	122.13282489776611	pulse	1	t						148.33828592300415	
1	123.73279404640198	pulse	1	t						149.93825507164001	
1	125.33277297019958	pulse	1	t						151.53823399543762	
1	126.93282794952393	pulse	1	t						153.13828897476196	
1	128.53277397155762	pulse	1	t						154.73823499679565	
2	130.04925799369812	fix_pre	0		11	0.0	2.5	/experiments/AOT/AOT_stimuli/rescaled_final/1318_rv.mp4	0.0	156.25471901893616	0.0916900634765625
2	130.13279604911804	pulse	0	t		0.0	2.5	/experiments/AOT/AOT_stimuli/rescaled_final/1318_rv.mp4	0.0	156.33825707435608	
2	130.14094805717468	movie	1		240	0.0	2.5	/experiments/AOT/AOT_stimuli/rescaled_final/1318_rv.mp4	0.0	156.34640908241272	2.5083539485931396
2	131.73221492767334	pulse	1	t		0.0	2.5	/experiments/AOT/AOT_stimuli/rescaled_final/1318_rv.mp4	0.0	157.93767595291138	
2	132.64930200576782	fix_post	2		12	0.0	2.5	/experiments/AOT/AOT_stimuli/rescaled_final/1318_rv.mp4	0.0	158.85476303100586	0.09995198249816895
3	132.749253988266	fix_pre	0		120	1.0	2.5	/experiments/AOT/AOT_stimuli/rescaled_final/0429_rv.mp4	0.0	158.95471501350403	1.0001220703125
3	133.33284187316895	pulse	0	t		1.0	2.5	/experiments/AOT/AOT_stimuli/rescaled_final/0429_rv.mp4	0.0	159.53830289840698	
3	133.7493760585785	movie	1		243	1.0	2.5	/experiments/AOT/AOT_stimuli/rescaled_final/0429_rv.mp4	0.0	159.95483708381653	2.4998300075531006
3	134.9328589439392	pulse	1	t		1.0	2.5	/experiments/AOT/AOT_stimuli/rescaled_final/0429_rv.mp4	0.0	161.13831996917725	
3	136.2492060661316	fix_post	2		12	1.0	2.5	/experiments/AOT/AOT_stimuli/rescaled_final/0429_rv.mp4	0.0	162.45466709136963	0.10008788108825684
4	136.34929394721985	fix_pre	0		120	2.0	2.5	/experiments/AOT/AOT_stimuli/rescaled_final/0876_fw.mp4	0.0	162.55475497245789	1.0000519752502441
4	136.53272604942322	pulse	0	t		2.0	2.5	/experiments/AOT/AOT_stimuli/rescaled_final/0876_fw.mp4	0.0	162.73818707466125	
4	137.3493459224701	movie	1		244	2.0	2.5	/experiments/AOT/AOT_stimuli/rescaled_final/0876_fw.mp4	0.0	163.55480694770813	2.4999210834503174
4	138.13272285461426	pulse	1	t		2.0	2.5	/experiments/AOT/AOT_stimuli/rescaled_final/0876_fw.mp4	0.0	164.3381838798523	
4	139.73122096061707	pulse	1	t		2.0	2.5	/experiments/AOT/AOT_stimuli/rescaled_final/0876_fw.mp4	0.0	165.9366819858551	
4	139.8492670059204	fix_post	2		12	2.0	2.5	/experiments/AOT/AOT_stimuli/rescaled_final/0876_fw.mp4	0.0	166.05472803115845	0.10002303123474121
5	139.94929003715515	fix_pre	0		120	3.0	2.5	/experiments/AOT/AOT_stimuli/rescaled_final/2086_fw.mp4	0.0	166.1547510623932	0.9999368190765381
5	140.9492268562317	movie	1		243	3.0	2.5	/experiments/AOT/AOT_stimuli/rescaled_final/2086_fw.mp4	0.0	167.15468788146973	2.4995100498199463
5	141.33223295211792	pulse	1	t		3.0	2.5	/experiments/AOT/AOT_stimuli/rescaled_final/2086_fw.mp4	0.0	167.53769397735596	
5	142.9326410293579	pulse	1	t		3.0	2.5	/experiments/AOT/AOT_stimuli/rescaled_final/2086_fw.mp4	0.0	169.13810205459595	
5	143.44873690605164	fix_post	2		12	3.0	2.5	/experiments/AOT/AOT_stimuli/rescaled_final/2086_fw.mp4	0.0	169.65419793128967	0.10037708282470703
6	143.54911398887634	fix_pre	0		119	4.0	2.5	/experiments/AOT/AOT_stimuli/rescaled_final/0282_rv.mp4	0.0	169.75457501411438	0.9917800426483154
6	144.53262996673584	pulse	0	t		4.0	2.5	/experiments/AOT/AOT_stimuli/rescaled_final/0282_rv.mp4	0.0	170.73809099197388	
6	144.54089403152466	movie	1		244	4.0	2.5	/experiments/AOT/AOT_stimuli/rescaled_final/0282_rv.mp4	0.0	170.7463550567627	2.5082309246063232
6	146.13224005699158	pulse	1	t		4.0	2.5	/experiments/AOT/AOT_stimuli/rescaled_final/0282_rv.mp4	0.0	172.33770108222961	
6	147.04912495613098	fix_post	2		12	4.0	2.5	/experiments/AOT/AOT_stimuli/rescaled_final/0282_rv.mp4	0.0	173.25458598136902	0.09998607635498047
7	147.14911103248596	fix_pre	0		120	5.0	2.5	/experiments/AOT/AOT_stimuli/rescaled_final/0920_rv.mp4	0.0	173.354572057724	1.0001468658447266
7	147.7326259613037	pulse	0	t		5.0	2.5	/experiments/AOT/AOT_stimuli/rescaled_final/0920_rv.mp4	0.0	173.93808698654175	
7	148.1492578983307	movie	1		241	5.0	2.5	/experiments/AOT/AOT_stimuli/rescaled_final/0920_rv.mp4	0.0	174.35471892356873	2.499873161315918
7	149.3326859474182	pulse	1	t		5.0	2.5	/experiments/AOT/AOT_stimuli/rescaled_final/0920_rv.mp4	0.0	175.53814697265625	
7	150.6491310596466	fix_post	2		12	5.0	2.5	/experiments/AOT/AOT_stimuli/rescaled_final/0920_rv.mp4	0.0	176.85459208488464	0.1000218391418457
8	150.74915289878845	fix_pre	0		120	6.0	2.5	blank	1.0	176.9546139240265	1.0000050067901611
8	150.9326629638672	pulse	0	t		6.0	2.5	blank	1.0	177.13812398910522	
8	151.7491579055786	movie	1		300	6.0	2.5	blank	1.0	177.95461893081665	2.5000579357147217
8	152.5325779914856	pulse	1	t		6.0	2.5	blank	1.0	178.73803901672363	
8	154.1326129436493	pulse	1	t		6.0	2.5	blank	1.0	180.33807396888733	
8	154.24921584129333	fix_post	2		12	6.0	2.5	blank	1.0	180.45467686653137	0.09995722770690918
9	154.34917306900024	fix_pre	0		120	7.0	2.5	/experiments/AOT/AOT_stimuli/rescaled_final/0096_fw.mp4	0.0	180.55463409423828	1.0000288486480713
9	155.34920191764832	movie	1		244	7.0	2.5	/experiments/AOT/AOT_stimuli/rescaled_final/0096_fw.mp4	0.0	181.55466294288635	2.4998841285705566
9	155.73208093643188	pulse	1	t		7.0	2.5	/experiments/AOT/AOT_stimuli/rescaled_final/0096_fw.mp4	0.0	181.93754196166992	
9	157.3326768875122	pulse	1	t		7.0	2.5	/experiments/AOT/AOT_stimuli/rescaled_final/0096_fw.mp4	0.0	183.53813791275024	
9	157.84908604621887	fix_post	2		12	7.0	2.5	/experiments/AOT/AOT_stimuli/rescaled_final/0096_fw.mp4	0.0	184.0545470714569	0.10002589225769043
10	157.94911193847656	fix_pre	0		119	8.0	2.5	/experiments/AOT/AOT_stimuli/rescaled_final/1944_rv.mp4	0.0	184.1545729637146	0.9916949272155762
10	158.93266201019287	pulse	0	t		8.0	2.5	/experiments/AOT/AOT_stimuli/rescaled_final/1944_rv.mp4	0.0	185.1381230354309	
10	158.94080686569214	movie	1		247	8.0	2.5	/experiments/AOT/AOT_stimuli/rescaled_final/1944_rv.mp4	0.0	185.14626789093018	2.5083131790161133
10	160.53219890594482	pulse	1	t		8.0	2.5	/experiments/AOT/AOT_stimuli/rescaled_final/1944_rv.mp4	0.0	186.73765993118286	
10	161.44912004470825	fix_post	2		12	8.0	2.5	/experiments/AOT/AOT_stimuli/rescaled_final/1944_rv.mp4	0.0	187.6545810699463	0.09996199607849121
11	161.54908204078674	fix_pre	0		120	9.0	2.5	/experiments/AOT/AOT_stimuli/rescaled_final/1068_rv.mp4	0.0	187.75454306602478	0.9999618530273438
11	162.13260984420776	pulse	0	t		9.0	2.5	/experiments/AOT/AOT_stimuli/rescaled_final/1068_rv.mp4	0.0	188.3380708694458	
11	162.5490438938141	movie	1		245	9.0	2.5	/experiments/AOT/AOT_stimuli/rescaled_final/1068_rv.mp4	0.0	188.75450491905212	2.5000159740448
11	163.73264503479004	pulse	1	t		9.0	2.5	/experiments/AOT/AOT_stimuli/rescaled_final/1068_rv.mp4	0.0	189.93810606002808	
11	165.0490598678589	fix_post	2		12	9.0	2.5	/experiments/AOT/AOT_stimuli/rescaled_final/1068_rv.mp4	0.0	191.25452089309692	0.10000014305114746
12	165.14906001091003	fix_pre	0		120	10.0	2.5	/experiments/AOT/AOT_stimuli/rescaled_final/2014_rv.mp4	0.0	191.35452103614807	1.0000548362731934
12	165.33252096176147	pulse	0	t		10.0	2.5	/experiments/AOT/AOT_stimuli/rescaled_final/2014_rv.mp4	0.0	191.5379819869995	
12	166.14911484718323	movie	1		248	10.0	2.5	/experiments/AOT/AOT_stimuli/rescaled_final/2014_rv.mp4	0.0	192.35457587242126	2.500019073486328
12	166.93257999420166	pulse	1	t		10.0	2.5	/experiments/AOT/AOT_stimuli/rescaled_final/2014_rv.mp4	0.0	193.1380410194397	
12	168.53270602226257	pulse	1	t		10.0	2.5	/experiments/AOT/AOT_stimuli/rescaled_final/2014_rv.mp4	0.0	194.7381670475006	
12	168.64913392066956	fix_post	2		12	10.0	2.5	/experiments/AOT/AOT_stimuli/rescaled_final/2014_rv.mp4	0.0	194.8545949459076	0.0999901294708252
13	168.74912405014038	fix_pre	0		120	11.0	2.5	/experiments/AOT/AOT_stimuli/rescaled_final/0888_rv.mp4	0.0	194.95458507537842	0.9999849796295166
13	169.7491090297699	movie	1		242	11.0	2.5	/experiments/AOT/AOT_stimuli/rescaled_final/0888_rv.mp4	0.0	195.95457005500793	2.500053882598877
13	170.13227891921997	pulse	1	t		11.0	2.5	/experiments/AOT/AOT_stimuli/rescaled_final/0888_rv.mp4	0.0	196.337739944458	
13	171.73260498046875	pulse	1	t		11.0	2.5	/experiments/AOT/AOT_stimuli/rescaled_final/0888_rv.mp4	0.0	197.9380660057068	
13	172.24916291236877	fix_post	2		12	11.0	2.5	/experiments/AOT/AOT_stimuli/rescaled_final/0888_rv.mp4	0.0	198.4546239376068	0.09985113143920898
14	172.34901404380798	fix_pre	0		119	12.0	2.5	blank	1.0	198.55447506904602	0.9916958808898926
14	173.3326108455658	pulse	0	t		12.0	2.5	blank	1.0	199.53807187080383	
14	173.34070992469788	movie	1		301	12.0	2.5	blank	1.0	199.5461709499359	2.5082850456237793
14	174.9325270652771	pulse	1	t		12.0	2.5	blank	1.0	201.13798809051514	
14	175.84899497032166	fix_post	2		12	12.0	2.5	blank	1.0	202.0544559955597	0.1001288890838623
15	175.94912385940552	fix_pre	0		120	13.0	2.5	/experiments/AOT/AOT_stimuli/rescaled_final/1488_fw.mp4	0.0	202.15458488464355	0.9999701976776123
15	176.53257083892822	pulse	0	t		13.0	2.5	/experiments/AOT/AOT_stimuli/rescaled_final/1488_fw.mp4	0.0	202.73803186416626	
15	176.94909405708313	movie	1		245	13.0	2.5	/experiments/AOT/AOT_stimuli/rescaled_final/1488_fw.mp4	0.0	203.15455508232117	2.5000078678131104
15	178.13261699676514	pulse	1	t		13.0	2.5	/experiments/AOT/AOT_stimuli/rescaled_final/1488_fw.mp4	0.0	204.33807802200317	
15	179.44910192489624	fix_post	2		12	13.0	2.5	/experiments/AOT/AOT_stimuli/rescaled_final/1488_fw.mp4	0.0	205.65456295013428	0.09994912147521973
16	179.54905104637146	fix_pre	0		120	14.0	2.5	/experiments/AOT/AOT_stimuli/rescaled_final/1402_rv.mp4	0.0	205.7545120716095	1.000044822692871
16	179.7324960231781	pulse	0	t		14.0	2.5	/experiments/AOT/AOT_stimuli/rescaled_final/1402_rv.mp4	0.0	205.93795704841614	
16	180.54909586906433	movie	1		243	14.0	2.5	/experiments/AOT/AOT_stimuli/rescaled_final/1402_rv.mp4	0.0	206.75455689430237	2.5000040531158447
16	181.33251905441284	pulse	1	t		14.0	2.5	/experiments/AOT/AOT_stimuli/rescaled_final/1402_rv.mp4	0.0	207.53798007965088	
16	182.93078589439392	pulse	1	t		14.0	2.5	/experiments/AOT/AOT_stimuli/rescaled_final/1402_rv.mp4	0.0	209.13624691963196	
16	183.04909992218018	fix_post	2		12	14.0	2.5	/experiments/AOT/AOT_stimuli/rescaled_final/1402_rv.mp4	0.0	209.2545609474182	0.10001301765441895
17	183.1491129398346	fix_pre	0		120	15.0	2.5	/experiments/AOT/AOT_stimuli/rescaled_final/0496_fw.mp4	0.0	209.35457396507263	0.9999070167541504
17	184.14901995658875	movie	1		244	15.0	2.5	/experiments/AOT/AOT_stimuli/rescaled_final/0496_fw.mp4	0.0	210.35448098182678	2.5000360012054443
17	184.53244805335999	pulse	1	t		15.0	2.5	/experiments/AOT/AOT_stimuli/rescaled_final/0496_fw.mp4	0.0	210.73790907859802	
17	186.13244700431824	pulse	1	t		15.0	2.5	/experiments/AOT/AOT_stimuli/rescaled_final/0496_fw.mp4	0.0	212.33790802955627	
17	186.6490559577942	fix_post	2		12	15.0	2.5	/experiments/AOT/AOT_stimuli/rescaled_final/0496_fw.mp4	0.0	212.85451698303223	0.10002708435058594
18	186.74908304214478	fix_pre	0		119	16.0	2.5	/experiments/AOT/AOT_stimuli/rescaled_final/0523_rv.mp4	0.0	212.9545440673828	0.9915769100189209
18	187.73256492614746	pulse	0	t		16.0	2.5	/experiments/AOT/AOT_stimuli/rescaled_final/0523_rv.mp4	0.0	213.9380259513855	
18	187.7406599521637	movie	1		245	16.0	2.5	/experiments/AOT/AOT_stimuli/rescaled_final/0523_rv.mp4	0.0	213.94612097740173	2.5082879066467285
18	189.3324010372162	pulse	1	t		16.0	2.5	/experiments/AOT/AOT_stimuli/rescaled_final/0523_rv.mp4	0.0	215.53786206245422	
18	190.24894785881042	fix_post	2		12	16.0	2.5	/experiments/AOT/AOT_stimuli/rescaled_final/0523_rv.mp4	0.0	216.45440888404846	0.10004115104675293
19	190.34898900985718	fix_pre	0		120	17.0	2.5	/experiments/AOT/AOT_stimuli/rescaled_final/0826_fw.mp4	0.0	216.55445003509521	0.9995708465576172
19	190.93250703811646	pulse	0	t		17.0	2.5	/experiments/AOT/AOT_stimuli/rescaled_final/0826_fw.mp4	0.0	217.1379680633545	
19	191.3485598564148	movie	1		244	17.0	2.5	/experiments/AOT/AOT_stimuli/rescaled_final/0826_fw.mp4	0.0	217.55402088165283	2.5003440380096436
19	192.53215384483337	pulse	1	t		17.0	2.5	/experiments/AOT/AOT_stimuli/rescaled_final/0826_fw.mp4	0.0	218.7376148700714	
19	193.84890389442444	fix_post	2		12	17.0	2.5	/experiments/AOT/AOT_stimuli/rescaled_final/0826_fw.mp4	0.0	220.05436491966248	0.1002800464630127
20	193.94918394088745	fix_pre	0		120	18.0	2.5	/experiments/AOT/AOT_stimuli/rescaled_final/0958_fw.mp4	0.0	220.1546449661255	0.9998080730438232
20	194.13230085372925	pulse	0	t		18.0	2.5	/experiments/AOT/AOT_stimuli/rescaled_final/0958_fw.mp4	0.0	220.33776187896729	
20	194.94899201393127	movie	1		243	18.0	2.5	/experiments/AOT/AOT_stimuli/rescaled_final/0958_fw.mp4	0.0	221.1544530391693	2.499976873397827
20	195.73245096206665	pulse	1	t		18.0	2.5	/experiments/AOT/AOT_stimuli/rescaled_final/0958_fw.mp4	0.0	221.9379119873047	
20	197.330894947052	pulse	1	t		18.0	2.5	/experiments/AOT/AOT_stimuli/rescaled_final/0958_fw.mp4	0.0	223.53635597229004	
20	197.4489688873291	fix_post	2		12	18.0	2.5	/experiments/AOT/AOT_stimuli/rescaled_final/0958_fw.mp4	0.0	223.65442991256714	0.1000361442565918
21	197.5490050315857	fix_pre	0		120	19.0	2.5	/experiments/AOT/AOT_stimuli/rescaled_final/2014_rv.mp4	0.0	223.75446605682373	0.9998948574066162
21	198.5488998889923	movie	1		246	19.0	2.5	/experiments/AOT/AOT_stimuli/rescaled_final/2014_rv.mp4	0.0	224.75436091423035	2.4999921321868896
21	198.93183088302612	pulse	1	t		19.0	2.5	/experiments/AOT/AOT_stimuli/rescaled_final/2014_rv.mp4	0.0	225.13729190826416	
21	200.53234887123108	pulse	1	t		19.0	2.5	/experiments/AOT/AOT_stimuli/rescaled_final/2014_rv.mp4	0.0	226.73780989646912	
21	201.0488920211792	fix_post	2		12	19.0	2.5	/experiments/AOT/AOT_stimuli/rescaled_final/2014_rv.mp4	0.0	227.25435304641724	0.09993791580200195
22	201.1488299369812	fix_pre	0		119	20.0	2.5	/experiments/AOT/AOT_stimuli/rescaled_final/0655_rv.mp4	0.0	227.35429096221924	0.9917149543762207
22	202.13244605064392	pulse	0	t		20.0	2.5	/experiments/AOT/AOT_stimuli/rescaled_final/0655_rv.mp4	0.0	228.33790707588196	
22	202.14054489135742	movie	1		248	20.0	2.5	/experiments/AOT/AOT_stimuli/rescaled_final/0655_rv.mp4	0.0	228.34600591659546	2.508305072784424
22	203.73174500465393	pulse	1	t		20.0	2.5	/experiments/AOT/AOT_stimuli/rescaled_final/0655_rv.mp4	0.0	229.93720602989197	
22	204.64884996414185	fix_post	2		12	20.0	2.5	/experiments/AOT/AOT_stimuli/rescaled_final/0655_rv.mp4	0.0	230.85431098937988	0.10003495216369629
23	204.74888491630554	fix_pre	0		120	21.0	2.5	blank	1.0	230.95434594154358	0.9999730587005615
23	205.33234000205994	pulse	0	t		21.0	2.5	blank	1.0	231.53780102729797	
23	205.7488579750061	movie	1		300	21.0	2.5	blank	1.0	231.95431900024414	2.4999849796295166
23	206.9323239326477	pulse	1	t		21.0	2.5	blank	1.0	233.13778495788574	
23	208.24884295463562	fix_post	2		12	21.0	2.5	blank	1.0	234.45430397987366	0.09997296333312988
24	208.34881591796875	fix_pre	0		120	22.0	2.5	/experiments/AOT/AOT_stimuli/rescaled_final/1068_fw.mp4	0.0	234.5542769432068	0.999967098236084
24	208.53239798545837	pulse	0	t		22.0	2.5	/experiments/AOT/AOT_stimuli/rescaled_final/1068_fw.mp4	0.0	234.7378590106964	
24	209.34878301620483	movie	1		244	22.0	2.5	/experiments/AOT/AOT_stimuli/rescaled_final/1068_fw.mp4	0.0	235.55424404144287	2.500138998031616
24	210.13231587409973	pulse	1	t		22.0	2.5	/experiments/AOT/AOT_stimuli/rescaled_final/1068_fw.mp4	0.0	236.33777689933777	
24	211.73123002052307	pulse	1	t		22.0	2.5	/experiments/AOT/AOT_stimuli/rescaled_final/1068_fw.mp4	0.0	237.9366910457611	
24	211.84892201423645	fix_post	2		12	22.0	2.5	/experiments/AOT/AOT_stimuli/rescaled_final/1068_fw.mp4	0.0	238.0543830394745	0.0998990535736084
25	211.94882106781006	fix_pre	0		120	23.0	2.5	/experiments/AOT/AOT_stimuli/rescaled_final/0655_fw.mp4	0.0	238.1542820930481	1.0000998973846436
25	212.9489209651947	movie	1		245	23.0	2.5	/experiments/AOT/AOT_stimuli/rescaled_final/0655_fw.mp4	0.0	239.15438199043274	2.499911069869995
25	213.33210802078247	pulse	1	t		23.0	2.5	/experiments/AOT/AOT_stimuli/rescaled_final/0655_fw.mp4	0.0	239.5375690460205	
25	214.93238806724548	pulse	1	t		23.0	2.5	/experiments/AOT/AOT_stimuli/rescaled_final/0655_fw.mp4	0.0	241.13784909248352	
25	215.4488320350647	fix_post	2		12	23.0	2.5	/experiments/AOT/AOT_stimuli/rescaled_final/0655_fw.mp4	0.0	241.65429306030273	0.10001492500305176
26	215.54884696006775	fix_pre	0		119	24.0	2.5	/experiments/AOT/AOT_stimuli/rescaled_final/0849_rv.mp4	0.0	241.7543079853058	0.9916119575500488
26	216.5323770046234	pulse	0	t		24.0	2.5	/experiments/AOT/AOT_stimuli/rescaled_final/0849_rv.mp4	0.0	242.73783802986145	
26	216.5404589176178	movie	1		245	24.0	2.5	/experiments/AOT/AOT_stimuli/rescaled_final/0849_rv.mp4	0.0	242.74591994285583	2.5083250999450684
26	218.1322238445282	pulse	1	t		24.0	2.5	/experiments/AOT/AOT_stimuli/rescaled_final/0849_rv.mp4	0.0	244.33768486976624	
26	219.04878401756287	fix_post	2		12	24.0	2.5	/experiments/AOT/AOT_stimuli/rescaled_final/0849_rv.mp4	0.0	245.2542450428009	0.10005402565002441
27	219.1488380432129	fix_pre	0		120	25.0	2.5	/experiments/AOT/AOT_stimuli/rescaled_final/0337_rv.mp4	0.0	245.35429906845093	0.9999408721923828
27	219.7322850227356	pulse	0	t		25.0	2.5	/experiments/AOT/AOT_stimuli/rescaled_final/0337_rv.mp4	0.0	245.93774604797363	
27	220.14877891540527	movie	1		243	25.0	2.5	/experiments/AOT/AOT_stimuli/rescaled_final/0337_rv.mp4	0.0	246.3542399406433	2.500012159347534
27	221.33236503601074	pulse	1	t		25.0	2.5	/experiments/AOT/AOT_stimuli/rescaled_final/0337_rv.mp4	0.0	247.53782606124878	
27	222.6487910747528	fix_post	2		12	25.0	2.5	/experiments/AOT/AOT_stimuli/rescaled_final/0337_rv.mp4	0.0	248.85425209999084	0.10000276565551758
28	222.74879384040833	fix_pre	0		120	26.0	2.5	blank	1.0	248.95425486564636	1.0000171661376953
28	222.9322898387909	pulse	0	t		26.0	2.5	blank	1.0	249.13775086402893	
28	223.74881100654602	movie	1		300	26.0	2.5	blank	1.0	249.95427203178406	2.5000040531158447
28	224.5323269367218	pulse	1	t		26.0	2.5	blank	1.0	250.73778796195984	
28	226.13232493400574	pulse	1	t		26.0	2.5	blank	1.0	252.33778595924377	
28	226.24881505966187	fix_post	2		12	26.0	2.5	blank	1.0	252.4542760848999	0.09999299049377441
29	226.34880805015564	fix_pre	0		120	27.0	2.5	/experiments/AOT/AOT_stimuli/rescaled_final/1912_rv.mp4	0.0	252.55426907539368	1.0000720024108887
29	227.34888005256653	movie	1		248	27.0	2.5	/experiments/AOT/AOT_stimuli/rescaled_final/1912_rv.mp4	0.0	253.55434107780457	2.4999308586120605
29	227.73201990127563	pulse	1	t		27.0	2.5	/experiments/AOT/AOT_stimuli/rescaled_final/1912_rv.mp4	0.0	253.93748092651367	
29	229.3322730064392	pulse	1	t		27.0	2.5	/experiments/AOT/AOT_stimuli/rescaled_final/1912_rv.mp4	0.0	255.53773403167725	
29	229.8488109111786	fix_post	2		12	27.0	2.5	/experiments/AOT/AOT_stimuli/rescaled_final/1912_rv.mp4	0.0	256.0542719364166	0.10001897811889648
30	229.94882988929749	fix_pre	0		119	28.0	2.5	/experiments/AOT/AOT_stimuli/rescaled_final/1608_fw.mp4	0.0	256.1542909145355	0.9915430545806885
30	230.93227791786194	pulse	0	t		28.0	2.5	/experiments/AOT/AOT_stimuli/rescaled_final/1608_fw.mp4	0.0	257.1377389431	
30	230.94037294387817	movie	1		246	28.0	2.5	/experiments/AOT/AOT_stimuli/rescaled_final/1608_fw.mp4	0.0	257.1458339691162	2.5083889961242676
30	232.53245902061462	pulse	1	t		28.0	2.5	/experiments/AOT/AOT_stimuli/rescaled_final/1608_fw.mp4	0.0	258.73792004585266	
30	233.44876194000244	fix_post	2		12	28.0	2.5	/experiments/AOT/AOT_stimuli/rescaled_final/1608_fw.mp4	0.0	259.6542229652405	0.0999760627746582
31	233.5487380027771	fix_pre	0		120	29.0	2.5	/experiments/AOT/AOT_stimuli/rescaled_final/0969_rv.mp4	0.0	259.75419902801514	0.999945878982544
31	234.1323049068451	pulse	0	t		29.0	2.5	/experiments/AOT/AOT_stimuli/rescaled_final/0969_rv.mp4	0.0	260.33776593208313	
31	234.54868388175964	movie	1		244	29.0	2.5	/experiments/AOT/AOT_stimuli/rescaled_final/0969_rv.mp4	0.0	260.7541449069977	2.4995880126953125
31	235.7322928905487	pulse	1	t		29.0	2.5	/experiments/AOT/AOT_stimuli/rescaled_final/0969_rv.mp4	0.0	261.93775391578674	
31	237.04827189445496	fix_post	2		12	29.0	2.5	/experiments/AOT/AOT_stimuli/rescaled_final/0969_rv.mp4	0.0	263.253732919693	0.10050797462463379
32	237.1487798690796	fix_pre	0		120	30.0	2.5	/experiments/AOT/AOT_stimuli/rescaled_final/1402_fw.mp4	0.0	263.3542408943176	0.9999701976776123
32	237.33228492736816	pulse	0	t		30.0	2.5	/experiments/AOT/AOT_stimuli/rescaled_final/1402_fw.mp4	0.0	263.5377459526062	
32	238.1487500667572	movie	1		242	30.0	2.5	/experiments/AOT/AOT_stimuli/rescaled_final/1402_fw.mp4	0.0	264.35421109199524	2.4999938011169434
32	238.93222188949585	pulse	1	t		30.0	2.5	/experiments/AOT/AOT_stimuli/rescaled_final/1402_fw.mp4	0.0	265.1376829147339	
32	240.53056597709656	pulse	1	t		30.0	2.5	/experiments/AOT/AOT_stimuli/rescaled_final/1402_fw.mp4	0.0	266.7360270023346	
32	240.64874386787415	fix_post	2		12	30.0	2.5	/experiments/AOT/AOT_stimuli/rescaled_final/1402_fw.mp4	0.0	266.8542048931122	0.09996914863586426
33	240.74871301651	fix_pre	0		120	31.0	2.5	/experiments/AOT/AOT_stimuli/rescaled_final/2080_fw.mp4	0.0	266.95417404174805	1.0000388622283936
33	241.7487518787384	movie	1		244	31.0	2.5	/experiments/AOT/AOT_stimuli/rescaled_final/2080_fw.mp4	0.0	267.95421290397644	2.4998531341552734
33	242.13328289985657	pulse	1	t		31.0	2.5	/experiments/AOT/AOT_stimuli/rescaled_final/2080_fw.mp4	0.0	268.3387439250946	
33	243.732342004776	pulse	1	t		31.0	2.5	/experiments/AOT/AOT_stimuli/rescaled_final/2080_fw.mp4	0.0	269.93780303001404	
33	244.24860501289368	fix_post	2		12	31.0	2.5	/experiments/AOT/AOT_stimuli/rescaled_final/2080_fw.mp4	0.0	270.4540660381317	0.10007095336914062
34	244.34867596626282	fix_pre	0		119	32.0	2.5	/experiments/AOT/AOT_stimuli/rescaled_final/1057_fw.mp4	0.0	270.55413699150085	0.9916999340057373
34	245.3323209285736	pulse	0	t		32.0	2.5	/experiments/AOT/AOT_stimuli/rescaled_final/1057_fw.mp4	0.0	271.53778195381165	
34	245.34037590026855	movie	1		246	32.0	2.5	/experiments/AOT/AOT_stimuli/rescaled_final/1057_fw.mp4	0.0	271.5458369255066	2.508953094482422
34	246.93166303634644	pulse	1	t		32.0	2.5	/experiments/AOT/AOT_stimuli/rescaled_final/1057_fw.mp4	0.0	273.1371240615845	
34	247.84932899475098	fix_post	2		12	32.0	2.5	/experiments/AOT/AOT_stimuli/rescaled_final/1057_fw.mp4	0.0	274.054790019989	0.09895491600036621
35	247.94828391075134	fix_pre	0		120	33.0	2.5	blank	1.0	274.1537449359894	1.0005340576171875
35	248.5318729877472	pulse	0	t		33.0	2.5	blank	1.0	274.73733401298523	
35	248.94881796836853	movie	1		300	33.0	2.5	blank	1.0	275.15427899360657	2.4998979568481445
35	250.132493019104	pulse	1	t		33.0	2.5	blank	1.0	276.33795404434204	
35	251.44871592521667	fix_post	2		12	33.0	2.5	blank	1.0	277.6541769504547	0.10001611709594727
36	251.54873204231262	fix_pre	0		120	34.0	2.5	/experiments/AOT/AOT_stimuli/rescaled_final/0704_rv.mp4	0.0	277.75419306755066	0.999971866607666
36	251.73226594924927	pulse	0	t		34.0	2.5	/experiments/AOT/AOT_stimuli/rescaled_final/0704_rv.mp4	0.0	277.9377269744873	
36	252.5487039089203	movie	1		245	34.0	2.5	/experiments/AOT/AOT_stimuli/rescaled_final/0704_rv.mp4	0.0	278.7541649341583	2.4999840259552
36	253.33206605911255	pulse	1	t		34.0	2.5	/experiments/AOT/AOT_stimuli/rescaled_final/0704_rv.mp4	0.0	279.5375270843506	
36	254.93098092079163	pulse	1	t		34.0	2.5	/experiments/AOT/AOT_stimuli/rescaled_final/0704_rv.mp4	0.0	281.13644194602966	
36	255.0486879348755	fix_post	2		12	34.0	2.5	/experiments/AOT/AOT_stimuli/rescaled_final/0704_rv.mp4	0.0	281.2541489601135	0.10000896453857422
37	255.14869689941406	fix_pre	0		120	35.0	2.5	/experiments/AOT/AOT_stimuli/rescaled_final/0378_rv.mp4	0.0	281.3541579246521	0.9999649524688721
37	256.14866185188293	movie	1		246	35.0	2.5	/experiments/AOT/AOT_stimuli/rescaled_final/0378_rv.mp4	0.0	282.354122877121	2.5000741481781006
37	256.5315148830414	pulse	1	t		35.0	2.5	/experiments/AOT/AOT_stimuli/rescaled_final/0378_rv.mp4	0.0	282.7369759082794	
37	258.1320788860321	pulse	1	t		35.0	2.5	/experiments/AOT/AOT_stimuli/rescaled_final/0378_rv.mp4	0.0	284.33753991127014	
37	258.64873600006104	fix_post	2		12	35.0	2.5	/experiments/AOT/AOT_stimuli/rescaled_final/0378_rv.mp4	0.0	284.8541970252991	0.09987688064575195
38	258.7486128807068	fix_pre	0		119	36.0	2.5	/experiments/AOT/AOT_stimuli/rescaled_final/1104_fw.mp4	0.0	284.9540739059448	0.9915800094604492
38	259.7321050167084	pulse	0	t		36.0	2.5	/experiments/AOT/AOT_stimuli/rescaled_final/1104_fw.mp4	0.0	285.9375660419464	
38	259.74019289016724	movie	1		245	36.0	2.5	/experiments/AOT/AOT_stimuli/rescaled_final/1104_fw.mp4	0.0	285.9456539154053	2.5083980560302734
38	261.332288980484	pulse	1	t		36.0	2.5	/experiments/AOT/AOT_stimuli/rescaled_final/1104_fw.mp4	0.0	287.53775000572205	
38	262.2485909461975	fix_post	2		12	36.0	2.5	/experiments/AOT/AOT_stimuli/rescaled_final/1104_fw.mp4	0.0	288.45405197143555	0.10002303123474121
39	262.34861397743225	fix_pre	0		120	37.0	2.5	/experiments/AOT/AOT_stimuli/rescaled_final/1039_rv.mp4	0.0	288.5540750026703	1.0000269412994385
39	262.9320900440216	pulse	0	t		37.0	2.5	/experiments/AOT/AOT_stimuli/rescaled_final/1039_rv.mp4	0.0	289.13755106925964	
39	263.3486409187317	movie	1		243	37.0	2.5	/experiments/AOT/AOT_stimuli/rescaled_final/1039_rv.mp4	0.0	289.5541019439697	2.4999430179595947
39	264.53216886520386	pulse	1	t		37.0	2.5	/experiments/AOT/AOT_stimuli/rescaled_final/1039_rv.mp4	0.0	290.7376298904419	
39	265.8485839366913	fix_post	2		12	37.0	2.5	/experiments/AOT/AOT_stimuli/rescaled_final/1039_rv.mp4	0.0	292.0540449619293	0.10005497932434082
40	265.9486389160156	fix_pre	0		120	38.0	2.5	/experiments/AOT/AOT_stimuli/rescaled_final/0765_rv.mp4	0.0	292.15409994125366	1.0000231266021729
40	266.1320390701294	pulse	0	t		38.0	2.5	/experiments/AOT/AOT_stimuli/rescaled_final/0765_rv.mp4	0.0	292.33750009536743	
40	266.9486620426178	movie	1		248	38.0	2.5	/experiments/AOT/AOT_stimuli/rescaled_final/0765_rv.mp4	0.0	293.15412306785583	2.49995493888855
40	267.7320809364319	pulse	1	t		38.0	2.5	/experiments/AOT/AOT_stimuli/rescaled_final/0765_rv.mp4	0.0	293.9375419616699	
40	269.332790851593	pulse	1	t		38.0	2.5	/experiments/AOT/AOT_stimuli/rescaled_final/0765_rv.mp4	0.0	295.53825187683105	
40	269.44861698150635	fix_post	2		12	38.0	2.5	/experiments/AOT/AOT_stimuli/rescaled_final/0765_rv.mp4	0.0	295.6540780067444	0.10001397132873535
41	269.5486309528351	fix_pre	0		120	39.0	2.5	/experiments/AOT/AOT_stimuli/rescaled_final/0115_rv.mp4	0.0	295.7540919780731	0.9998888969421387
41	270.5485198497772	movie	1		247	39.0	2.5	/experiments/AOT/AOT_stimuli/rescaled_final/0115_rv.mp4	0.0	296.75398087501526	2.50007700920105
41	270.93159890174866	pulse	1	t		39.0	2.5	/experiments/AOT/AOT_stimuli/rescaled_final/0115_rv.mp4	0.0	297.1370599269867	
41	272.5320658683777	pulse	1	t		39.0	2.5	/experiments/AOT/AOT_stimuli/rescaled_final/0115_rv.mp4	0.0	298.7375268936157	
41	273.04859685897827	fix_post	2		12	39.0	2.5	/experiments/AOT/AOT_stimuli/rescaled_final/0115_rv.mp4	0.0	299.2540578842163	0.09990501403808594
42	273.14850187301636	fix_pre	0		119	40.0	2.5	/experiments/AOT/AOT_stimuli/rescaled_final/0623_rv.mp4	0.0	299.3539628982544	0.9916989803314209
42	274.13205194473267	pulse	0	t		40.0	2.5	/experiments/AOT/AOT_stimuli/rescaled_final/0623_rv.mp4	0.0	300.3375129699707	
42	274.1402008533478	movie	1		245	40.0	2.5	/experiments/AOT/AOT_stimuli/rescaled_final/0623_rv.mp4	0.0	300.3456618785858	2.508316993713379
42	275.7316348552704	pulse	1	t		40.0	2.5	/experiments/AOT/AOT_stimuli/rescaled_final/0623_rv.mp4	0.0	301.9370958805084	
42	276.64851784706116	fix_post	2		12	40.0	2.5	/experiments/AOT/AOT_stimuli/rescaled_final/0623_rv.mp4	0.0	302.8539788722992	0.10007715225219727
43	276.74859499931335	fix_pre	0		120	41.0	2.5	/experiments/AOT/AOT_stimuli/rescaled_final/1353_fw.mp4	0.0	302.9540560245514	0.9998800754547119
43	277.3320908546448	pulse	0	t		41.0	2.5	/experiments/AOT/AOT_stimuli/rescaled_final/1353_fw.mp4	0.0	303.5375518798828	
43	277.74847507476807	movie	1		245	41.0	2.5	/experiments/AOT/AOT_stimuli/rescaled_final/1353_fw.mp4	0.0	303.9539361000061	2.500086784362793
43	278.93207693099976	pulse	1	t		41.0	2.5	/experiments/AOT/AOT_stimuli/rescaled_final/1353_fw.mp4	0.0	305.1375379562378	
43	280.24856185913086	fix_post	2		12	41.0	2.5	/experiments/AOT/AOT_stimuli/rescaled_final/1353_fw.mp4	0.0	306.4540228843689	0.09992313385009766
44	280.34848499298096	fix_pre	0		120	42.0	2.5	blank	1.0	306.553946018219	1.0001299381256104
44	280.53195905685425	pulse	0	t		42.0	2.5	blank	1.0	306.7374200820923	
44	281.34861493110657	movie	1		300	42.0	2.5	blank	1.0	307.5540759563446	2.499948024749756
44	282.13204288482666	pulse	1	t		42.0	2.5	blank	1.0	308.3375039100647	
44	283.73197889328003	pulse	1	t		42.0	2.5	blank	1.0	309.93743991851807	
44	283.8485629558563	fix_post	2		12	42.0	2.5	blank	1.0	310.05402398109436	0.09992194175720215
45	283.9484848976135	fix_pre	0		120	43.0	2.5	/experiments/AOT/AOT_stimuli/rescaled_final/1199_rv.mp4	0.0	310.15394592285156	1.0000629425048828
45	284.9485478401184	movie	1		244	43.0	2.5	/experiments/AOT/AOT_stimuli/rescaled_final/1199_rv.mp4	0.0	311.15400886535645	2.4999430179595947
45	285.33215284347534	pulse	1	t		43.0	2.5	/experiments/AOT/AOT_stimuli/rescaled_final/1199_rv.mp4	0.0	311.5376138687134	
45	286.9320089817047	pulse	1	t		43.0	2.5	/experiments/AOT/AOT_stimuli/rescaled_final/1199_rv.mp4	0.0	313.13747000694275	
45	287.448490858078	fix_post	2		12	43.0	2.5	/experiments/AOT/AOT_stimuli/rescaled_final/1199_rv.mp4	0.0	313.65395188331604	0.10006403923034668
46	287.54855489730835	fix_pre	0		119	44.0	2.5	/experiments/AOT/AOT_stimuli/rescaled_final/1739_rv.mp4	0.0	313.7540159225464	0.9915950298309326
46	288.531977891922	pulse	0	t		44.0	2.5	/experiments/AOT/AOT_stimuli/rescaled_final/1739_rv.mp4	0.0	314.73743891716003	
46	288.5401499271393	movie	1		245	44.0	2.5	/experiments/AOT/AOT_stimuli/rescaled_final/1739_rv.mp4	0.0	314.7456109523773	2.5083861351013184
46	290.1317870616913	pulse	1	t		44.0	2.5	/experiments/AOT/AOT_stimuli/rescaled_final/1739_rv.mp4	0.0	316.3372480869293	
46	291.0485360622406	fix_post	2		12	44.0	2.5	/experiments/AOT/AOT_stimuli/rescaled_final/1739_rv.mp4	0.0	317.25399708747864	0.09989786148071289
47	291.1484339237213	fix_pre	0		120	45.0	2.5	/experiments/AOT/AOT_stimuli/rescaled_final/1922_fw.mp4	0.0	317.35389494895935	1.0001261234283447
47	291.7319769859314	pulse	0	t		45.0	2.5	/experiments/AOT/AOT_stimuli/rescaled_final/1922_fw.mp4	0.0	317.93743801116943	
47	292.14856004714966	movie	1		243	45.0	2.5	/experiments/AOT/AOT_stimuli/rescaled_final/1922_fw.mp4	0.0	318.3540210723877	2.4998779296875
47	293.33204793930054	pulse	1	t		45.0	2.5	/experiments/AOT/AOT_stimuli/rescaled_final/1922_fw.mp4	0.0	319.5375089645386	
47	294.64843797683716	fix_post	2		12	45.0	2.5	/experiments/AOT/AOT_stimuli/rescaled_final/1922_fw.mp4	0.0	320.8538990020752	0.10010790824890137
48	294.74854588508606	fix_pre	0		120	46.0	2.5	/experiments/AOT/AOT_stimuli/rescaled_final/0077_rv.mp4	0.0	320.9540069103241	0.999845027923584
48	294.93199706077576	pulse	0	t		46.0	2.5	/experiments/AOT/AOT_stimuli/rescaled_final/0077_rv.mp4	0.0	321.1374580860138	
48	295.74839091300964	movie	1		243	46.0	2.5	/experiments/AOT/AOT_stimuli/rescaled_final/0077_rv.mp4	0.0	321.9538519382477	2.5001089572906494
48	296.53194403648376	pulse	1	t		46.0	2.5	/experiments/AOT/AOT_stimuli/rescaled_final/0077_rv.mp4	0.0	322.7374050617218	
48	298.1304590702057	pulse	1	t		46.0	2.5	/experiments/AOT/AOT_stimuli/rescaled_final/0077_rv.mp4	0.0	324.3359200954437	
48	298.2484998703003	fix_post	2		12	46.0	2.5	/experiments/AOT/AOT_stimuli/rescaled_final/0077_rv.mp4	0.0	324.45396089553833	0.09994816780090332
49	298.3484480381012	fix_pre	0		120	47.0	2.5	blank	1.0	324.55390906333923	1.0000619888305664
49	299.34851002693176	movie	1		300	47.0	2.5	blank	1.0	325.5539710521698	2.4999489784240723
49	299.73197889328003	pulse	1	t		47.0	2.5	blank	1.0	325.93743991851807	
49	301.3319239616394	pulse	1	t		47.0	2.5	blank	1.0	327.53738498687744	
49	301.84845900535583	fix_post	2		12	47.0	2.5	blank	1.0	328.0539200305939	0.10001492500305176
50	301.9484739303589	fix_pre	0		119	48.0	2.5	/experiments/AOT/AOT_stimuli/rescaled_final/2078_rv.mp4	0.0	328.1539349555969	0.9916360378265381
50	302.9320020675659	pulse	0	t		48.0	2.5	/experiments/AOT/AOT_stimuli/rescaled_final/2078_rv.mp4	0.0	329.13746309280396	
50	302.9401099681854	movie	1		245	48.0	2.5	/experiments/AOT/AOT_stimuli/rescaled_final/2078_rv.mp4	0.0	329.14557099342346	2.508573055267334
50	304.53155994415283	pulse	1	t		48.0	2.5	/experiments/AOT/AOT_stimuli/rescaled_final/2078_rv.mp4	0.0	330.73702096939087	
50	305.44868302345276	fix_post	2		12	48.0	2.5	/experiments/AOT/AOT_stimuli/rescaled_final/2078_rv.mp4	0.0	331.6541440486908	0.09953689575195312
51	305.5482199192047	fix_pre	0		120	49.0	2.5	/experiments/AOT/AOT_stimuli/rescaled_final/2086_rv.mp4	0.0	331.75368094444275	1.0001919269561768
51	306.1321609020233	pulse	0	t		49.0	2.5	/experiments/AOT/AOT_stimuli/rescaled_final/2086_rv.mp4	0.0	332.33762192726135	
51	306.5484118461609	movie	1		245	49.0	2.5	/experiments/AOT/AOT_stimuli/rescaled_final/2086_rv.mp4	0.0	332.7538728713989	2.499972105026245
51	307.73185300827026	pulse	1	t		49.0	2.5	/experiments/AOT/AOT_stimuli/rescaled_final/2086_rv.mp4	0.0	333.9373140335083	
51	309.04838395118713	fix_post	2		12	49.0	2.5	/experiments/AOT/AOT_stimuli/rescaled_final/2086_rv.mp4	0.0	335.25384497642517	0.10002493858337402
52	309.1484088897705	fix_pre	0		120	50.0	2.5	/experiments/AOT/AOT_stimuli/rescaled_final/1064_fw.mp4	0.0	335.35386991500854	0.9999489784240723
52	309.3319020271301	pulse	0	t		50.0	2.5	/experiments/AOT/AOT_stimuli/rescaled_final/1064_fw.mp4	0.0	335.53736305236816	
52	310.1483578681946	movie	1		246	50.0	2.5	/experiments/AOT/AOT_stimuli/rescaled_final/1064_fw.mp4	0.0	336.3538188934326	2.5000081062316895
52	310.93173694610596	pulse	1	t		50.0	2.5	/experiments/AOT/AOT_stimuli/rescaled_final/1064_fw.mp4	0.0	337.137197971344	
52	312.53041195869446	pulse	1	t		50.0	2.5	/experiments/AOT/AOT_stimuli/rescaled_final/1064_fw.mp4	0.0	338.7358729839325	
52	312.64836597442627	fix_post	2		12	50.0	2.5	/experiments/AOT/AOT_stimuli/rescaled_final/1064_fw.mp4	0.0	338.8538269996643	0.09994006156921387
53	312.7483060359955	fix_pre	0		120	51.0	2.5	/experiments/AOT/AOT_stimuli/rescaled_final/0916_fw.mp4	0.0	338.9537670612335	1.0000979900360107
53	313.7484040260315	movie	1		245	51.0	2.5	/experiments/AOT/AOT_stimuli/rescaled_final/0916_fw.mp4	0.0	339.95386505126953	2.499910831451416
53	314.13152289390564	pulse	1	t		51.0	2.5	/experiments/AOT/AOT_stimuli/rescaled_final/0916_fw.mp4	0.0	340.3369839191437	
53	315.7317569255829	pulse	1	t		51.0	2.5	/experiments/AOT/AOT_stimuli/rescaled_final/0916_fw.mp4	0.0	341.9372179508209	
53	316.2483148574829	fix_post	2		12	51.0	2.5	/experiments/AOT/AOT_stimuli/rescaled_final/0916_fw.mp4	0.0	342.45377588272095	0.10020112991333008
54	316.34851598739624	fix_pre	0		119	52.0	2.5	/experiments/AOT/AOT_stimuli/rescaled_final/0207_rv.mp4	0.0	342.5539770126343	0.9915008544921875
54	317.33191895484924	pulse	0	t		52.0	2.5	/experiments/AOT/AOT_stimuli/rescaled_final/0207_rv.mp4	0.0	343.5373799800873	
54	317.3400168418884	movie	1		246	52.0	2.5	/experiments/AOT/AOT_stimuli/rescaled_final/0207_rv.mp4	0.0	343.54547786712646	2.5082712173461914
54	318.9315309524536	pulse	1	t		52.0	2.5	/experiments/AOT/AOT_stimuli/rescaled_final/0207_rv.mp4	0.0	345.13699197769165	
54	319.8482880592346	fix_post	2		12	52.0	2.5	/experiments/AOT/AOT_stimuli/rescaled_final/0207_rv.mp4	0.0	346.05374908447266	0.10003089904785156
55	319.94831895828247	fix_pre	0		120	53.0	2.5	/experiments/AOT/AOT_stimuli/rescaled_final/0452_fw.mp4	0.0	346.1537799835205	1.0000190734863281
55	320.53183698654175	pulse	0	t		53.0	2.5	/experiments/AOT/AOT_stimuli/rescaled_final/0452_fw.mp4	0.0	346.7372980117798	
55	320.9483380317688	movie	1		246	53.0	2.5	/experiments/AOT/AOT_stimuli/rescaled_final/0452_fw.mp4	0.0	347.15379905700684	2.499992847442627
55	322.1318950653076	pulse	1	t		53.0	2.5	/experiments/AOT/AOT_stimuli/rescaled_final/0452_fw.mp4	0.0	348.33735609054565	
55	323.4483308792114	fix_post	2		12	53.0	2.5	/experiments/AOT/AOT_stimuli/rescaled_final/0452_fw.mp4	0.0	349.65379190444946	0.09992218017578125
56	323.5482530593872	fix_pre	0		120	54.0	2.5	blank	1.0	349.75371408462524	1.0000889301300049
56	323.731831073761	pulse	0	t		54.0	2.5	blank	1.0	349.937292098999	
56	324.5483419895172	movie	1		300	54.0	2.5	blank	1.0	350.75380301475525	2.4999608993530273
56	325.3317699432373	pulse	1	t		54.0	2.5	blank	1.0	351.53723096847534	
56	326.93186688423157	pulse	1	t		54.0	2.5	blank	1.0	353.1373279094696	
56	327.04830288887024	fix_post	2		12	54.0	2.5	blank	1.0	353.2537639141083	0.09999704360961914
57	327.14829993247986	fix_pre	0		120	55.0	2.5	/experiments/AOT/AOT_stimuli/rescaled_final/0504_fw.mp4	0.0	353.3537609577179	0.999967098236084
57	328.14826703071594	movie	1		244	55.0	2.5	/experiments/AOT/AOT_stimuli/rescaled_final/0504_fw.mp4	0.0	354.353728055954	2.500030040740967
57	328.53163290023804	pulse	1	t		55.0	2.5	/experiments/AOT/AOT_stimuli/rescaled_final/0504_fw.mp4	0.0	354.7370939254761	
57	330.13185596466064	pulse	1	t		55.0	2.5	/experiments/AOT/AOT_stimuli/rescaled_final/0504_fw.mp4	0.0	356.3373169898987	
57	330.6482970714569	fix_post	2		12	55.0	2.5	/experiments/AOT/AOT_stimuli/rescaled_final/0504_fw.mp4	0.0	356.85375809669495	0.09993100166320801
58	330.7482280731201	fix_pre	0		119	56.0	2.5	/experiments/AOT/AOT_stimuli/rescaled_final/1995_rv.mp4	0.0	356.95368909835815	0.9916539192199707
58	331.731703042984	pulse	0	t		56.0	2.5	/experiments/AOT/AOT_stimuli/rescaled_final/1995_rv.mp4	0.0	357.93716406822205	
58	331.7398819923401	movie	1		247	56.0	2.5	/experiments/AOT/AOT_stimuli/rescaled_final/1995_rv.mp4	0.0	357.9453430175781	2.508384943008423
58	333.3333158493042	pulse	1	t		56.0	2.5	/experiments/AOT/AOT_stimuli/rescaled_final/1995_rv.mp4	0.0	359.53877687454224	
58	334.2482669353485	fix_post	2		12	56.0	2.5	/experiments/AOT/AOT_stimuli/rescaled_final/1995_rv.mp4	0.0	360.45372796058655	0.10005903244018555
59	334.3483259677887	fix_pre	0		120	57.0	2.5	/experiments/AOT/AOT_stimuli/rescaled_final/1806_fw.mp4	0.0	360.55378699302673	0.9999089241027832
59	334.93303990364075	pulse	0	t		57.0	2.5	/experiments/AOT/AOT_stimuli/rescaled_final/1806_fw.mp4	0.0	361.1385009288788	
59	335.3482348918915	movie	1		245	57.0	2.5	/experiments/AOT/AOT_stimuli/rescaled_final/1806_fw.mp4	0.0	361.5536959171295	2.4999821186065674
59	336.5317099094391	pulse	1	t		57.0	2.5	/experiments/AOT/AOT_stimuli/rescaled_final/1806_fw.mp4	0.0	362.7371709346771	
59	337.84821701049805	fix_post	2		12	57.0	2.5	/experiments/AOT/AOT_stimuli/rescaled_final/1806_fw.mp4	0.0	364.0536780357361	0.09990787506103516
60	337.9481248855591	fix_pre	0		120	58.0	2.5	/experiments/AOT/AOT_stimuli/rescaled_final/1793_rv.mp4	0.0	364.1535859107971	1.0001201629638672
60	338.1316840648651	pulse	0	t		58.0	2.5	/experiments/AOT/AOT_stimuli/rescaled_final/1793_rv.mp4	0.0	364.33714509010315	
60	338.94824504852295	movie	1		247	58.0	2.5	/experiments/AOT/AOT_stimuli/rescaled_final/1793_rv.mp4	0.0	365.153706073761	2.499950885772705
60	339.73173999786377	pulse	1	t		58.0	2.5	/experiments/AOT/AOT_stimuli/rescaled_final/1793_rv.mp4	0.0	365.9372010231018	
60	341.3321180343628	pulse	1	t		58.0	2.5	/experiments/AOT/AOT_stimuli/rescaled_final/1793_rv.mp4	0.0	367.53757905960083	
60	341.44819593429565	fix_post	2		12	58.0	2.5	/experiments/AOT/AOT_stimuli/rescaled_final/1793_rv.mp4	0.0	367.6536569595337	0.10001802444458008
61	341.54821395874023	fix_pre	0		120	59.0	2.5	/experiments/AOT/AOT_stimuli/rescaled_final/0885_fw.mp4	0.0	367.75367498397827	0.9999639987945557
61	342.5481779575348	movie	1		245	59.0	2.5	/experiments/AOT/AOT_stimuli/rescaled_final/0885_fw.mp4	0.0	368.7536389827728	2.5000460147857666
61	342.9312858581543	pulse	1	t		59.0	2.5	/experiments/AOT/AOT_stimuli/rescaled_final/0885_fw.mp4	0.0	369.13674688339233	
61	344.5316729545593	pulse	1	t		59.0	2.5	/experiments/AOT/AOT_stimuli/rescaled_final/0885_fw.mp4	0.0	370.73713397979736	
61	345.04822397232056	fix_post	2		12	59.0	2.5	/experiments/AOT/AOT_stimuli/rescaled_final/0885_fw.mp4	0.0	371.2536849975586	0.0999150276184082
62	345.14813899993896	fix_pre	0		119	60.0	2.5	/experiments/AOT/AOT_stimuli/rescaled_final/0876_rv.mp4	0.0	371.353600025177	0.9916439056396484
62	346.1316590309143	pulse	0	t		60.0	2.5	/experiments/AOT/AOT_stimuli/rescaled_final/0876_rv.mp4	0.0	372.33712005615234	
62	346.1397829055786	movie	1		244	60.0	2.5	/experiments/AOT/AOT_stimuli/rescaled_final/0876_rv.mp4	0.0	372.34524393081665	2.508476972579956
62	347.7312560081482	pulse	1	t		60.0	2.5	/experiments/AOT/AOT_stimuli/rescaled_final/0876_rv.mp4	0.0	373.93671703338623	
62	348.64825987815857	fix_post	2		12	60.0	2.5	/experiments/AOT/AOT_stimuli/rescaled_final/0876_rv.mp4	0.0	374.8537209033966	0.10000109672546387
63	348.74826097488403	fix_pre	0		120	61.0	2.5	blank	1.0	374.95372200012207	0.9999630451202393
63	349.3317160606384	pulse	0	t		61.0	2.5	blank	1.0	375.53717708587646	
63	349.7482240200043	movie	1		300	61.0	2.5	blank	1.0	375.9536850452423	2.5000510215759277
63	350.9317319393158	pulse	1	t		61.0	2.5	blank	1.0	377.13719296455383	
63	352.2482750415802	fix_post	2		12	61.0	2.5	blank	1.0	378.45373606681824	0.09987282752990723
64	352.3481478691101	fix_pre	0		120	62.0	2.5	/experiments/AOT/AOT_stimuli/rescaled_final/1646_rv.mp4	0.0	378.55360889434814	1.0000030994415283
64	352.53171491622925	pulse	0	t		62.0	2.5	/experiments/AOT/AOT_stimuli/rescaled_final/1646_rv.mp4	0.0	378.7371759414673	
64	353.34815096855164	movie	1		243	62.0	2.5	/experiments/AOT/AOT_stimuli/rescaled_final/1646_rv.mp4	0.0	379.5536119937897	2.5000081062316895
64	354.1316559314728	pulse	1	t		62.0	2.5	/experiments/AOT/AOT_stimuli/rescaled_final/1646_rv.mp4	0.0	380.3371169567108	
64	355.7300238609314	pulse	1	t		62.0	2.5	/experiments/AOT/AOT_stimuli/rescaled_final/1646_rv.mp4	0.0	381.93548488616943	
64	355.8481590747833	fix_post	2		12	62.0	2.5	/experiments/AOT/AOT_stimuli/rescaled_final/1646_rv.mp4	0.0	382.05362010002136	0.10004091262817383
65	355.9481999874115	fix_pre	0		120	63.0	2.5	/experiments/AOT/AOT_stimuli/rescaled_final/0932_fw.mp4	0.0	382.15366101264954	0.9999990463256836
65	356.9481990337372	movie	1		247	63.0	2.5	/experiments/AOT/AOT_stimuli/rescaled_final/0932_fw.mp4	0.0	383.1536600589752	2.4995269775390625
65	357.3309988975525	pulse	1	t		63.0	2.5	/experiments/AOT/AOT_stimuli/rescaled_final/0932_fw.mp4	0.0	383.5364599227905	
65	358.9311640262604	pulse	1	t		63.0	2.5	/experiments/AOT/AOT_stimuli/rescaled_final/0932_fw.mp4	0.0	385.1366250514984	
65	359.44772601127625	fix_post	2		12	63.0	2.5	/experiments/AOT/AOT_stimuli/rescaled_final/0932_fw.mp4	0.0	385.6531870365143	0.10044097900390625
66	359.54816699028015	fix_pre	0		119	64.0	2.5	/experiments/AOT/AOT_stimuli/rescaled_final/2098_rv.mp4	0.0	385.7536280155182	0.991724967956543
66	360.5312469005585	pulse	0	t		64.0	2.5	/experiments/AOT/AOT_stimuli/rescaled_final/2098_rv.mp4	0.0	386.7367079257965	
66	360.5398919582367	movie	1		249	64.0	2.5	/experiments/AOT/AOT_stimuli/rescaled_final/2098_rv.mp4	0.0	386.74535298347473	2.5082809925079346
66	362.13104486465454	pulse	1	t		64.0	2.5	/experiments/AOT/AOT_stimuli/rescaled_final/2098_rv.mp4	0.0	388.3365058898926	
66	363.04817295074463	fix_post	2		12	64.0	2.5	/experiments/AOT/AOT_stimuli/rescaled_final/2098_rv.mp4	0.0	389.25363397598267	0.09997892379760742
67	363.14815187454224	fix_pre	0		120	65.0	2.5	/experiments/AOT/AOT_stimuli/rescaled_final/0496_rv.mp4	0.0	389.3536128997803	0.9999501705169678
67	363.731605052948	pulse	0	t		65.0	2.5	/experiments/AOT/AOT_stimuli/rescaled_final/0496_rv.mp4	0.0	389.93706607818604	
67	364.1481020450592	movie	1		245	65.0	2.5	/experiments/AOT/AOT_stimuli/rescaled_final/0496_rv.mp4	0.0	390.35356307029724	2.5000619888305664
67	365.33173394203186	pulse	1	t		65.0	2.5	/experiments/AOT/AOT_stimuli/rescaled_final/0496_rv.mp4	0.0	391.5371949672699	
67	366.64816403388977	fix_post	2		12	65.0	2.5	/experiments/AOT/AOT_stimuli/rescaled_final/0496_rv.mp4	0.0	392.8536250591278	0.09995889663696289
68	366.74812293052673	fix_pre	0		120	66.0	2.5	/experiments/AOT/AOT_stimuli/rescaled_final/0049_fw.mp4	0.0	392.95358395576477	1.0000300407409668
68	366.93165588378906	pulse	0	t		66.0	2.5	/experiments/AOT/AOT_stimuli/rescaled_final/0049_fw.mp4	0.0	393.1371169090271	
68	367.7481529712677	movie	1		246	66.0	2.5	/experiments/AOT/AOT_stimuli/rescaled_final/0049_fw.mp4	0.0	393.95361399650574	2.499868869781494
68	368.5315248966217	pulse	1	t		66.0	2.5	/experiments/AOT/AOT_stimuli/rescaled_final/0049_fw.mp4	0.0	394.73698592185974	
68	370.1300690174103	pulse	1	t		66.0	2.5	/experiments/AOT/AOT_stimuli/rescaled_final/0049_fw.mp4	0.0	396.3355300426483	
68	370.2480218410492	fix_post	2		12	66.0	2.5	/experiments/AOT/AOT_stimuli/rescaled_final/0049_fw.mp4	0.0	396.45348286628723	0.10004901885986328
69	370.34807085990906	fix_pre	0		120	67.0	2.5	/experiments/AOT/AOT_stimuli/rescaled_final/0765_fw.mp4	0.0	396.5535318851471	0.9999561309814453
69	371.3480269908905	movie	1		248	67.0	2.5	/experiments/AOT/AOT_stimuli/rescaled_final/0765_fw.mp4	0.0	397.55348801612854	2.500088930130005
69	371.73107290267944	pulse	1	t		67.0	2.5	/experiments/AOT/AOT_stimuli/rescaled_final/0765_fw.mp4	0.0	397.9365339279175	
69	373.3314800262451	pulse	1	t		67.0	2.5	/experiments/AOT/AOT_stimuli/rescaled_final/0765_fw.mp4	0.0	399.53694105148315	
69	373.8481159210205	fix_post	2		12	67.0	2.5	/experiments/AOT/AOT_stimuli/rescaled_final/0765_fw.mp4	0.0	400.05357694625854	0.10006499290466309
70	373.94818091392517	fix_pre	0		119	68.0	2.5	/experiments/AOT/AOT_stimuli/rescaled_final/0115_rv.mp4	0.0	400.1536419391632	0.9915449619293213
70	374.93165397644043	pulse	0	t		68.0	2.5	/experiments/AOT/AOT_stimuli/rescaled_final/0115_rv.mp4	0.0	401.13711500167847	
70	374.9397258758545	movie	1		246	68.0	2.5	/experiments/AOT/AOT_stimuli/rescaled_final/0115_rv.mp4	0.0	401.14518690109253	2.5083401203155518
70	376.53097200393677	pulse	1	t		68.0	2.5	/experiments/AOT/AOT_stimuli/rescaled_final/0115_rv.mp4	0.0	402.7364330291748	
70	377.44806599617004	fix_post	2		12	68.0	2.5	/experiments/AOT/AOT_stimuli/rescaled_final/0115_rv.mp4	0.0	403.6535270214081	0.09999394416809082
71	377.54805994033813	fix_pre	0		120	69.0	2.5	blank	1.0	403.7535209655762	0.9999520778656006
71	378.13156294822693	pulse	0	t		69.0	2.5	blank	1.0	404.33702397346497	
71	378.54801201820374	movie	1		300	69.0	2.5	blank	1.0	404.7534730434418	2.5000388622283936
71	379.7316279411316	pulse	1	t		69.0	2.5	blank	1.0	405.93708896636963	
71	381.04805088043213	fix_post	2		12	69.0	2.5	blank	1.0	407.25351190567017	0.09993910789489746
72	381.147989988327	fix_pre	0		120	70.0	2.5	/experiments/AOT/AOT_stimuli/rescaled_final/0471_fw.mp4	0.0	407.35345101356506	1.000074863433838
72	381.33141684532166	pulse	0	t		70.0	2.5	/experiments/AOT/AOT_stimuli/rescaled_final/0471_fw.mp4	0.0	407.5368778705597	
72	382.14806485176086	movie	1		245	70.0	2.5	/experiments/AOT/AOT_stimuli/rescaled_final/0471_fw.mp4	0.0	408.3535258769989	2.4999260902404785
72	382.9314799308777	pulse	1	t		70.0	2.5	/experiments/AOT/AOT_stimuli/rescaled_final/0471_fw.mp4	0.0	409.1369409561157	
72	384.5301659107208	pulse	1	t		70.0	2.5	/experiments/AOT/AOT_stimuli/rescaled_final/0471_fw.mp4	0.0	410.73562693595886	
72	384.64799094200134	fix_post	2		12	70.0	2.5	/experiments/AOT/AOT_stimuli/rescaled_final/0471_fw.mp4	0.0	410.8534519672394	0.10000491142272949
73	384.7479958534241	fix_pre	0		120	71.0	2.5	/experiments/AOT/AOT_stimuli/rescaled_final/2069_rv.mp4	0.0	410.9534568786621	0.9999229907989502
73	385.747918844223	movie	1		246	71.0	2.5	/experiments/AOT/AOT_stimuli/rescaled_final/2069_rv.mp4	0.0	411.95337986946106	2.500545024871826
73	386.13234400749207	pulse	1	t		71.0	2.5	/experiments/AOT/AOT_stimuli/rescaled_final/2069_rv.mp4	0.0	412.3378050327301	
73	387.73146891593933	pulse	1	t		71.0	2.5	/experiments/AOT/AOT_stimuli/rescaled_final/2069_rv.mp4	0.0	413.93692994117737	
73	388.24846386909485	fix_post	2		12	71.0	2.5	/experiments/AOT/AOT_stimuli/rescaled_final/2069_rv.mp4	0.0	414.4539248943329	0.09946918487548828
74	388.34793305397034	fix_pre	0		119	72.0	2.5	/experiments/AOT/AOT_stimuli/rescaled_final/1039_rv.mp4	0.0	414.5533940792084	0.991724967956543
74	389.3315398693085	pulse	0	t		72.0	2.5	/experiments/AOT/AOT_stimuli/rescaled_final/1039_rv.mp4	0.0	415.5370008945465	
74	389.3396580219269	movie	1		246	72.0	2.5	/experiments/AOT/AOT_stimuli/rescaled_final/1039_rv.mp4	0.0	415.5451190471649	2.5083959102630615
74	390.930850982666	pulse	1	t		72.0	2.5	/experiments/AOT/AOT_stimuli/rescaled_final/1039_rv.mp4	0.0	417.13631200790405	
74	391.84805393218994	fix_post	2		12	72.0	2.5	/experiments/AOT/AOT_stimuli/rescaled_final/1039_rv.mp4	0.0	418.053514957428	0.09987592697143555
75	391.9479298591614	fix_pre	0		120	73.0	2.5	/experiments/AOT/AOT_stimuli/rescaled_final/0191_fw.mp4	0.0	418.1533908843994	1.0000309944152832
75	392.5314199924469	pulse	0	t		73.0	2.5	/experiments/AOT/AOT_stimuli/rescaled_final/0191_fw.mp4	0.0	418.73688101768494	
75	392.94796085357666	movie	1		245	73.0	2.5	/experiments/AOT/AOT_stimuli/rescaled_final/0191_fw.mp4	0.0	419.1534218788147	2.500042200088501
75	394.131511926651	pulse	1	t		73.0	2.5	/experiments/AOT/AOT_stimuli/rescaled_final/0191_fw.mp4	0.0	420.33697295188904	
75	395.44800305366516	fix_post	2		12	73.0	2.5	/experiments/AOT/AOT_stimuli/rescaled_final/0191_fw.mp4	0.0	421.6534640789032	0.10002899169921875
76	395.5480320453644	fix_pre	0		120	74.0	2.5	/experiments/AOT/AOT_stimuli/rescaled_final/0906_rv.mp4	0.0	421.7534930706024	0.9999618530273438
76	395.73147797584534	pulse	0	t		74.0	2.5	/experiments/AOT/AOT_stimuli/rescaled_final/0906_rv.mp4	0.0	421.9369390010834	
76	396.5479938983917	movie	1		245	74.0	2.5	/experiments/AOT/AOT_stimuli/rescaled_final/0906_rv.mp4	0.0	422.75345492362976	2.499994993209839
76	397.3313899040222	pulse	1	t		74.0	2.5	/experiments/AOT/AOT_stimuli/rescaled_final/0906_rv.mp4	0.0	423.53685092926025	
76	398.9314479827881	pulse	1	t		74.0	2.5	/experiments/AOT/AOT_stimuli/rescaled_final/0906_rv.mp4	0.0	425.1369090080261	
76	399.04798889160156	fix_post	2		12	74.0	2.5	/experiments/AOT/AOT_stimuli/rescaled_final/0906_rv.mp4	0.0	425.2534499168396	0.09995198249816895
77	399.14794087409973	fix_pre	0		120	75.0	2.5	/experiments/AOT/AOT_stimuli/rescaled_final/1232_rv.mp4	0.0	425.35340189933777	1.0000410079956055
77	400.14798188209534	movie	1		244	75.0	2.5	/experiments/AOT/AOT_stimuli/rescaled_final/1232_rv.mp4	0.0	426.3534429073334	2.4999210834503174
77	400.5309660434723	pulse	1	t		75.0	2.5	/experiments/AOT/AOT_stimuli/rescaled_final/1232_rv.mp4	0.0	426.7364270687103	
77	402.13141107559204	pulse	1	t		75.0	2.5	/experiments/AOT/AOT_stimuli/rescaled_final/1232_rv.mp4	0.0	428.3368721008301	
77	402.64790296554565	fix_post	2		12	75.0	2.5	/experiments/AOT/AOT_stimuli/rescaled_final/1232_rv.mp4	0.0	428.8533639907837	0.10003900527954102
78	402.7479419708252	fix_pre	0		119	76.0	2.5	/experiments/AOT/AOT_stimuli/rescaled_final/1488_fw.mp4	0.0	428.95340299606323	0.9916400909423828
78	403.73138785362244	pulse	0	t		76.0	2.5	/experiments/AOT/AOT_stimuli/rescaled_final/1488_fw.mp4	0.0	429.9368488788605	
78	403.7395820617676	movie	1		245	76.0	2.5	/experiments/AOT/AOT_stimuli/rescaled_final/1488_fw.mp4	0.0	429.9450430870056	2.50836181640625
78	405.33253502845764	pulse	1	t		76.0	2.5	/experiments/AOT/AOT_stimuli/rescaled_final/1488_fw.mp4	0.0	431.5379960536957	
78	406.2479438781738	fix_post	2		12	76.0	2.5	/experiments/AOT/AOT_stimuli/rescaled_final/1488_fw.mp4	0.0	432.45340490341187	0.0999441146850586
79	406.3478879928589	fix_pre	0		120	77.0	2.5	blank	1.0	432.5533490180969	1.0000839233398438
79	406.93139600753784	pulse	0	t		77.0	2.5	blank	1.0	433.1368570327759	
79	407.34797191619873	movie	1		300	77.0	2.5	blank	1.0	433.55343294143677	2.5000510215759277
79	408.5315430164337	pulse	1	t		77.0	2.5	blank	1.0	434.73700404167175	
79	409.84802293777466	fix_post	2		12	77.0	2.5	blank	1.0	436.0534839630127	0.0998990535736084
80	409.94792199134827	fix_pre	0		120	78.0	2.5	/experiments/AOT/AOT_stimuli/rescaled_final/1731_fw.mp4	0.0	436.1533830165863	0.9999439716339111
80	410.13137888908386	pulse	0	t		78.0	2.5	/experiments/AOT/AOT_stimuli/rescaled_final/1731_fw.mp4	0.0	436.3368399143219	
80	410.9478659629822	movie	1		243	78.0	2.5	/experiments/AOT/AOT_stimuli/rescaled_final/1731_fw.mp4	0.0	437.1533269882202	2.500019073486328
80	411.73144602775574	pulse	1	t		78.0	2.5	/experiments/AOT/AOT_stimuli/rescaled_final/1731_fw.mp4	0.0	437.9369070529938	
80	413.3299150466919	pulse	1	t		78.0	2.5	/experiments/AOT/AOT_stimuli/rescaled_final/1731_fw.mp4	0.0	439.53537607192993	
80	413.4478850364685	fix_post	2		12	78.0	2.5	/experiments/AOT/AOT_stimuli/rescaled_final/1731_fw.mp4	0.0	439.65334606170654	0.1000368595123291
81	413.54792189598083	fix_pre	0		120	79.0	2.5	/experiments/AOT/AOT_stimuli/rescaled_final/1962_fw.mp4	0.0	439.7533829212189	0.9995291233062744
81	414.5474510192871	movie	1		245	79.0	2.5	/experiments/AOT/AOT_stimuli/rescaled_final/1962_fw.mp4	0.0	440.75291204452515	2.500617027282715
81	414.93096590042114	pulse	1	t		79.0	2.5	/experiments/AOT/AOT_stimuli/rescaled_final/1962_fw.mp4	0.0	441.1364269256592	
81	416.5314619541168	pulse	1	t		79.0	2.5	/experiments/AOT/AOT_stimuli/rescaled_final/1962_fw.mp4	0.0	442.73692297935486	
81	417.0480680465698	fix_post	2		12	79.0	2.5	/experiments/AOT/AOT_stimuli/rescaled_final/1962_fw.mp4	0.0	443.25352907180786	0.10001182556152344
82	417.14807987213135	fix_pre	0		119	80.0	2.5	/experiments/AOT/AOT_stimuli/rescaled_final/0048_rv.mp4	0.0	443.3535408973694	0.9914391040802002
82	418.1314220428467	pulse	0	t		80.0	2.5	/experiments/AOT/AOT_stimuli/rescaled_final/0048_rv.mp4	0.0	444.3368830680847	
82	418.13951897621155	movie	1		245	80.0	2.5	/experiments/AOT/AOT_stimuli/rescaled_final/0048_rv.mp4	0.0	444.3449800014496	2.5083889961242676
82	419.7309889793396	pulse	1	t		80.0	2.5	/experiments/AOT/AOT_stimuli/rescaled_final/0048_rv.mp4	0.0	445.93645000457764	
82	420.6479079723358	fix_post	2		12	80.0	2.5	/experiments/AOT/AOT_stimuli/rescaled_final/0048_rv.mp4	0.0	446.85336899757385	0.09996390342712402
83	420.74787187576294	fix_pre	0		120	81.0	2.5	/experiments/AOT/AOT_stimuli/rescaled_final/1074_rv.mp4	0.0	446.953332901001	0.9999711513519287
83	421.33135890960693	pulse	0	t		81.0	2.5	/experiments/AOT/AOT_stimuli/rescaled_final/1074_rv.mp4	0.0	447.53681993484497	
83	421.74784302711487	movie	1		243	81.0	2.5	/experiments/AOT/AOT_stimuli/rescaled_final/1074_rv.mp4	0.0	447.9533040523529	2.4999499320983887
83	422.9313700199127	pulse	1	t		81.0	2.5	/experiments/AOT/AOT_stimuli/rescaled_final/1074_rv.mp4	0.0	449.13683104515076	
83	424.24779295921326	fix_post	2		12	81.0	2.5	/experiments/AOT/AOT_stimuli/rescaled_final/1074_rv.mp4	0.0	450.4532539844513	0.10004091262817383
84	424.34783387184143	fix_pre	0		120	82.0	2.5	/experiments/AOT/AOT_stimuli/rescaled_final/0452_rv.mp4	0.0	450.55329489707947	0.9999840259552002
84	424.5312850475311	pulse	0	t		82.0	2.5	/experiments/AOT/AOT_stimuli/rescaled_final/0452_rv.mp4	0.0	450.73674607276917	
84	425.34781789779663	movie	1		245	82.0	2.5	/experiments/AOT/AOT_stimuli/rescaled_final/0452_rv.mp4	0.0	451.55327892303467	2.499974012374878
84	426.1311938762665	pulse	1	t		82.0	2.5	/experiments/AOT/AOT_stimuli/rescaled_final/0452_rv.mp4	0.0	452.3366549015045	
84	427.7299659252167	pulse	1	t		82.0	2.5	/experiments/AOT/AOT_stimuli/rescaled_final/0452_rv.mp4	0.0	453.9354269504547	
84	427.8477919101715	fix_post	2		12	82.0	2.5	/experiments/AOT/AOT_stimuli/rescaled_final/0452_rv.mp4	0.0	454.05325293540955	0.10002803802490234
85	427.9478199481964	fix_pre	0		120	83.0	2.5	blank	1.0	454.15328097343445	0.9999659061431885
85	428.9477858543396	movie	1		300	83.0	2.5	blank	1.0	455.15324687957764	2.50002121925354
85	429.33131885528564	pulse	1	t		83.0	2.5	blank	1.0	455.5367798805237	
85	430.93120884895325	pulse	1	t		83.0	2.5	blank	1.0	457.1366698741913	
85	431.44780707359314	fix_post	2		12	83.0	2.5	blank	1.0	457.6532680988312	0.09999799728393555
87	431.5478050708771	stim	0		1716					457.7532660961151	14.299890995025635
87	432.5313000679016	pulse	0	t						458.73676109313965	
87	434.13122487068176	pulse	0	t						460.3366858959198	
87	435.73126888275146	pulse	0	t						461.9367299079895	
87	437.3312728404999	pulse	0	t						463.5367338657379	
87	438.93121695518494	pulse	0	t						465.136677980423	
87	440.53135991096497	pulse	0	t						466.736820936203	
87	442.131206035614	pulse	0	t						468.33666706085205	
87	443.73122787475586	pulse	0	t						469.9366888999939	
87	445.3311710357666	pulse	0	t						471.53663206100464	
