trial_nr	onset	event_type	phase	response	nr_frames	movie_index	movie_duration	movie_file	blank	onset_abs	duration
0	0.15829205513000488	stim	0		79					39.89999222755432	0.6583840847015381
0	0.808603048324585	response	0	space						40.5503032207489	
1	0.816676139831543	stim	0		6571					40.55837631225586	54.757890939712524
1	55.56701898574829	pulse	0	t						95.30871915817261	
1	55.57456707954407	stim	1		1717					95.31626725196838	14.30842399597168
1	57.16644811630249	pulse	1	t						96.9081482887268	
1	58.76643919944763	pulse	1	t						98.50813937187195	
1	60.366451025009155	pulse	1	t						100.10815119743347	
1	61.96648120880127	pulse	1	t						101.70818138122559	
1	63.56641602516174	pulse	1	t						103.30811619758606	
1	65.16644310951233	pulse	1	t						104.90814328193665	
1	66.76638317108154	pulse	1	t						106.50808334350586	
1	68.36647009849548	pulse	1	t						108.1081702709198	
2	69.88299107551575	fix_pre	0		11	0.0	2.5	/experiments/AOT/AOT_stimuli/rescaled_final/0518_rv.mp4	0.0	109.62469124794006	0.09155607223510742
2	69.96641898155212	pulse	0	t		0.0	2.5	/experiments/AOT/AOT_stimuli/rescaled_final/0518_rv.mp4	0.0	109.70811915397644	
2	69.97454714775085	movie	1		244	0.0	2.5	/experiments/AOT/AOT_stimuli/rescaled_final/0518_rv.mp4	0.0	109.71624732017517	2.5083580017089844
2	71.5664131641388	pulse	1	t		0.0	2.5	/experiments/AOT/AOT_stimuli/rescaled_final/0518_rv.mp4	0.0	111.30811333656311	
2	72.48290514945984	fix_post	2		12	0.0	2.5	/experiments/AOT/AOT_stimuli/rescaled_final/0518_rv.mp4	0.0	112.22460532188416	0.10001683235168457
3	72.58292198181152	fix_pre	0		120	1.0	2.5	/experiments/AOT/AOT_stimuli/rescaled_final/1524_fw.mp4	0.0	112.32462215423584	0.9996411800384521
3	73.16642904281616	pulse	0	t		1.0	2.5	/experiments/AOT/AOT_stimuli/rescaled_final/1524_fw.mp4	0.0	112.90812921524048	
3	73.58256316184998	movie	1		243	1.0	2.5	/experiments/AOT/AOT_stimuli/rescaled_final/1524_fw.mp4	0.0	113.32426333427429	2.50026798248291
3	74.76640701293945	pulse	1	t		1.0	2.5	/experiments/AOT/AOT_stimuli/rescaled_final/1524_fw.mp4	0.0	114.50810718536377	
3	76.08283114433289	fix_post	2		12	1.0	2.5	/experiments/AOT/AOT_stimuli/rescaled_final/1524_fw.mp4	0.0	115.8245313167572	0.09997797012329102
4	76.18280911445618	fix_pre	0		120	2.0	2.5	/experiments/AOT/AOT_stimuli/rescaled_final/0730_fw.mp4	0.0	115.9245092868805	0.9999899864196777
4	76.36642003059387	pulse	0	t		2.0	2.5	/experiments/AOT/AOT_stimuli/rescaled_final/0730_fw.mp4	0.0	116.10812020301819	
4	77.18279910087585	movie	1		244	2.0	2.5	/experiments/AOT/AOT_stimuli/rescaled_final/0730_fw.mp4	0.0	116.92449927330017	2.4996719360351562
4	77.96637320518494	pulse	1	t		2.0	2.5	/experiments/AOT/AOT_stimuli/rescaled_final/0730_fw.mp4	0.0	117.70807337760925	
4	79.56496405601501	pulse	1	t		2.0	2.5	/experiments/AOT/AOT_stimuli/rescaled_final/0730_fw.mp4	0.0	119.30666422843933	
4	79.68247103691101	fix_post	2		12	2.0	2.5	/experiments/AOT/AOT_stimuli/rescaled_final/0730_fw.mp4	0.0	119.42417120933533	0.1003260612487793
5	79.78279709815979	fix_pre	0		120	3.0	2.5	/experiments/AOT/AOT_stimuli/rescaled_final/2009_fw.mp4	0.0	119.5244972705841	1.0000410079956055
5	80.7828381061554	movie	1		248	3.0	2.5	/experiments/AOT/AOT_stimuli/rescaled_final/2009_fw.mp4	0.0	120.52453827857971	2.5000391006469727
5	81.16579508781433	pulse	1	t		3.0	2.5	/experiments/AOT/AOT_stimuli/rescaled_final/2009_fw.mp4	0.0	120.90749526023865	
5	82.76643109321594	pulse	1	t		3.0	2.5	/experiments/AOT/AOT_stimuli/rescaled_final/2009_fw.mp4	0.0	122.50813126564026	
5	83.28287720680237	fix_post	2		12	3.0	2.5	/experiments/AOT/AOT_stimuli/rescaled_final/2009_fw.mp4	0.0	123.02457737922668	0.10003280639648438
6	83.38291001319885	fix_pre	0		119	4.0	2.5	/experiments/AOT/AOT_stimuli/rescaled_final/0167_rv.mp4	0.0	123.12461018562317	0.9913051128387451
6	84.36648511886597	pulse	0	t		4.0	2.5	/experiments/AOT/AOT_stimuli/rescaled_final/0167_rv.mp4	0.0	124.10818529129028	
6	84.3742151260376	movie	1		243	4.0	2.5	/experiments/AOT/AOT_stimuli/rescaled_final/0167_rv.mp4	0.0	124.11591529846191	2.508629083633423
6	85.96715497970581	pulse	1	t		4.0	2.5	/experiments/AOT/AOT_stimuli/rescaled_final/0167_rv.mp4	0.0	125.70885515213013	
6	86.88284420967102	fix_post	2		12	4.0	2.5	/experiments/AOT/AOT_stimuli/rescaled_final/0167_rv.mp4	0.0	126.62454438209534	0.10003781318664551
7	86.98288202285767	fix_pre	0		120	5.0	2.5	blank	1.0	126.72458219528198	1.0000121593475342
7	87.56639504432678	pulse	0	t		5.0	2.5	blank	1.0	127.3080952167511	
7	87.9828941822052	movie	1		300	5.0	2.5	blank	1.0	127.72459435462952	2.4999208450317383
7	89.1663281917572	pulse	1	t		5.0	2.5	blank	1.0	128.90802836418152	
7	90.48281502723694	fix_post	2		12	5.0	2.5	blank	1.0	130.22451519966125	0.09995698928833008
8	90.58277201652527	fix_pre	0		120	6.0	2.5	/experiments/AOT/AOT_stimuli/rescaled_final/1524_rv.mp4	0.0	130.32447218894958	1.0000801086425781
8	90.7662980556488	pulse	0	t		6.0	2.5	/experiments/AOT/AOT_stimuli/rescaled_final/1524_rv.mp4	0.0	130.50799822807312	
8	91.58285212516785	movie	1		244	6.0	2.5	/experiments/AOT/AOT_stimuli/rescaled_final/1524_rv.mp4	0.0	131.32455229759216	2.499506950378418
8	92.36623406410217	pulse	1	t		6.0	2.5	/experiments/AOT/AOT_stimuli/rescaled_final/1524_rv.mp4	0.0	132.1079342365265	
8	93.96483898162842	pulse	1	t		6.0	2.5	/experiments/AOT/AOT_stimuli/rescaled_final/1524_rv.mp4	0.0	133.70653915405273	
8	94.08235907554626	fix_post	2		12	6.0	2.5	/experiments/AOT/AOT_stimuli/rescaled_final/1524_rv.mp4	0.0	133.82405924797058	0.10035204887390137
9	94.18271112442017	fix_pre	0		120	7.0	2.5	/experiments/AOT/AOT_stimuli/rescaled_final/0632_fw.mp4	0.0	133.92441129684448	1.0000429153442383
9	95.1827540397644	movie	1		246	7.0	2.5	/experiments/AOT/AOT_stimuli/rescaled_final/0632_fw.mp4	0.0	134.92445421218872	2.50006103515625
9	95.56716918945312	pulse	1	t		7.0	2.5	/experiments/AOT/AOT_stimuli/rescaled_final/0632_fw.mp4	0.0	135.30886936187744	
9	97.16619110107422	pulse	1	t		7.0	2.5	/experiments/AOT/AOT_stimuli/rescaled_final/0632_fw.mp4	0.0	136.90789127349854	
9	97.68281507492065	fix_post	2		12	7.0	2.5	/experiments/AOT/AOT_stimuli/rescaled_final/0632_fw.mp4	0.0	137.42451524734497	0.09993505477905273
10	97.7827501296997	fix_pre	0		119	8.0	2.5	/experiments/AOT/AOT_stimuli/rescaled_final/0483_rv.mp4	0.0	137.52445030212402	0.9916949272155762
10	98.76631212234497	pulse	0	t		8.0	2.5	/experiments/AOT/AOT_stimuli/rescaled_final/0483_rv.mp4	0.0	138.5080122947693	
10	98.77444505691528	movie	1		247	8.0	2.5	/experiments/AOT/AOT_stimuli/rescaled_final/0483_rv.mp4	0.0	138.5161452293396	2.508347988128662
10	100.36603212356567	pulse	1	t		8.0	2.5	/experiments/AOT/AOT_stimuli/rescaled_final/0483_rv.mp4	0.0	140.10773229599	
10	101.28279304504395	fix_post	2		12	8.0	2.5	/experiments/AOT/AOT_stimuli/rescaled_final/0483_rv.mp4	0.0	141.02449321746826	0.09997105598449707
11	101.38276410102844	fix_pre	0		120	9.0	2.5	/experiments/AOT/AOT_stimuli/rescaled_final/1351_rv.mp4	0.0	141.12446427345276	1.0000369548797607
11	101.96624612808228	pulse	0	t		9.0	2.5	/experiments/AOT/AOT_stimuli/rescaled_final/1351_rv.mp4	0.0	141.7079463005066	
11	102.3828010559082	movie	1		243	9.0	2.5	/experiments/AOT/AOT_stimuli/rescaled_final/1351_rv.mp4	0.0	142.12450122833252	2.499897003173828
11	103.56629705429077	pulse	1	t		9.0	2.5	/experiments/AOT/AOT_stimuli/rescaled_final/1351_rv.mp4	0.0	143.3079972267151	
11	104.88269805908203	fix_post	2		12	9.0	2.5	/experiments/AOT/AOT_stimuli/rescaled_final/1351_rv.mp4	0.0	144.62439823150635	0.10009312629699707
12	104.98279118537903	fix_pre	0		120	10.0	2.5	/experiments/AOT/AOT_stimuli/rescaled_final/1993_fw.mp4	0.0	144.72449135780334	0.9999768733978271
12	105.16624617576599	pulse	0	t		10.0	2.5	/experiments/AOT/AOT_stimuli/rescaled_final/1993_fw.mp4	0.0	144.9079463481903	
12	105.98276805877686	movie	1		242	10.0	2.5	/experiments/AOT/AOT_stimuli/rescaled_final/1993_fw.mp4	0.0	145.72446823120117	2.499580144882202
12	106.76621508598328	pulse	1	t		10.0	2.5	/experiments/AOT/AOT_stimuli/rescaled_final/1993_fw.mp4	0.0	146.5079152584076	
12	108.36475706100464	pulse	1	t		10.0	2.5	/experiments/AOT/AOT_stimuli/rescaled_final/1993_fw.mp4	0.0	148.10645723342896	
12	108.48234820365906	fix_post	2		12	10.0	2.5	/experiments/AOT/AOT_stimuli/rescaled_final/1993_fw.mp4	0.0	148.22404837608337	0.10033679008483887
13	108.5826849937439	fix_pre	0		120	11.0	2.5	/experiments/AOT/AOT_stimuli/rescaled_final/0329_fw.mp4	0.0	148.3243851661682	0.999744176864624
13	109.58242917060852	movie	1		243	11.0	2.5	/experiments/AOT/AOT_stimuli/rescaled_final/0329_fw.mp4	0.0	149.32412934303284	2.4998629093170166
13	109.96597599983215	pulse	1	t		11.0	2.5	/experiments/AOT/AOT_stimuli/rescaled_final/0329_fw.mp4	0.0	149.70767617225647	
13	111.56620717048645	pulse	1	t		11.0	2.5	/experiments/AOT/AOT_stimuli/rescaled_final/0329_fw.mp4	0.0	151.30790734291077	
13	112.08229207992554	fix_post	2		12	11.0	2.5	/experiments/AOT/AOT_stimuli/rescaled_final/0329_fw.mp4	0.0	151.82399225234985	0.10042405128479004
14	112.18271613121033	fix_pre	0		119	12.0	2.5	blank	1.0	151.92441630363464	0.9916808605194092
14	113.16622710227966	pulse	0	t		12.0	2.5	blank	1.0	152.90792727470398	
14	113.17439699172974	movie	1		301	12.0	2.5	blank	1.0	152.91609716415405	2.5079050064086914
14	114.76621198654175	pulse	1	t		12.0	2.5	blank	1.0	154.50791215896606	
14	115.68230199813843	fix_post	2		12	12.0	2.5	blank	1.0	155.42400217056274	0.10047698020935059
15	115.78277897834778	fix_pre	0		120	13.0	2.5	/experiments/AOT/AOT_stimuli/rescaled_final/0659_rv.mp4	0.0	155.5244791507721	0.999582052230835
15	116.36622309684753	pulse	0	t		13.0	2.5	/experiments/AOT/AOT_stimuli/rescaled_final/0659_rv.mp4	0.0	156.10792326927185	
15	116.78236103057861	movie	1		244	13.0	2.5	/experiments/AOT/AOT_stimuli/rescaled_final/0659_rv.mp4	0.0	156.52406120300293	2.500293016433716
15	117.96624708175659	pulse	1	t		13.0	2.5	/experiments/AOT/AOT_stimuli/rescaled_final/0659_rv.mp4	0.0	157.7079472541809	
15	119.28265404701233	fix_post	2		12	13.0	2.5	/experiments/AOT/AOT_stimuli/rescaled_final/0659_rv.mp4	0.0	159.02435421943665	0.10001015663146973
16	119.3826642036438	fix_pre	0		120	14.0	2.5	/experiments/AOT/AOT_stimuli/rescaled_final/1644_fw.mp4	0.0	159.12436437606812	0.9999849796295166
16	119.56620597839355	pulse	0	t		14.0	2.5	/experiments/AOT/AOT_stimuli/rescaled_final/1644_fw.mp4	0.0	159.30790615081787	
16	120.38264918327332	movie	1		246	14.0	2.5	/experiments/AOT/AOT_stimuli/rescaled_final/1644_fw.mp4	0.0	160.12434935569763	2.5000460147857666
16	121.16615605354309	pulse	1	t		14.0	2.5	/experiments/AOT/AOT_stimuli/rescaled_final/1644_fw.mp4	0.0	160.9078562259674	
16	122.7620542049408	pulse	1	t		14.0	2.5	/experiments/AOT/AOT_stimuli/rescaled_final/1644_fw.mp4	0.0	162.5037543773651	
16	122.88269519805908	fix_post	2		12	14.0	2.5	/experiments/AOT/AOT_stimuli/rescaled_final/1644_fw.mp4	0.0	162.6243953704834	0.10005784034729004
17	122.98275303840637	fix_pre	0		120	15.0	2.5	/experiments/AOT/AOT_stimuli/rescaled_final/1089_fw.mp4	0.0	162.7244532108307	0.9995059967041016
17	123.98225903511047	movie	1		245	15.0	2.5	/experiments/AOT/AOT_stimuli/rescaled_final/1089_fw.mp4	0.0	163.7239592075348	2.499953031539917
17	124.36567211151123	pulse	1	t		15.0	2.5	/experiments/AOT/AOT_stimuli/rescaled_final/1089_fw.mp4	0.0	164.10737228393555	
17	125.96612906455994	pulse	1	t		15.0	2.5	/experiments/AOT/AOT_stimuli/rescaled_final/1089_fw.mp4	0.0	165.70782923698425	
17	126.48221206665039	fix_post	2		12	15.0	2.5	/experiments/AOT/AOT_stimuli/rescaled_final/1089_fw.mp4	0.0	166.2239122390747	0.10044503211975098
18	126.58265709877014	fix_pre	0		119	16.0	2.5	/experiments/AOT/AOT_stimuli/rescaled_final/2041_rv.mp4	0.0	166.32435727119446	0.9916388988494873
18	127.56620216369629	pulse	0	t		16.0	2.5	/experiments/AOT/AOT_stimuli/rescaled_final/2041_rv.mp4	0.0	167.3079023361206	
18	127.57429599761963	movie	1		244	16.0	2.5	/experiments/AOT/AOT_stimuli/rescaled_final/2041_rv.mp4	0.0	167.31599617004395	2.508289098739624
18	129.16705513000488	pulse	1	t		16.0	2.5	/experiments/AOT/AOT_stimuli/rescaled_final/2041_rv.mp4	0.0	168.9087553024292	
18	130.08258509635925	fix_post	2		12	16.0	2.5	/experiments/AOT/AOT_stimuli/rescaled_final/2041_rv.mp4	0.0	169.82428526878357	0.10019111633300781
19	130.18277621269226	fix_pre	0		120	17.0	2.5	/experiments/AOT/AOT_stimuli/rescaled_final/1030_fw.mp4	0.0	169.92447638511658	0.999891996383667
19	130.76614618301392	pulse	0	t		17.0	2.5	/experiments/AOT/AOT_stimuli/rescaled_final/1030_fw.mp4	0.0	170.50784635543823	
19	131.18266820907593	movie	1		242	17.0	2.5	/experiments/AOT/AOT_stimuli/rescaled_final/1030_fw.mp4	0.0	170.92436838150024	2.4999358654022217
19	132.36623001098633	pulse	1	t		17.0	2.5	/experiments/AOT/AOT_stimuli/rescaled_final/1030_fw.mp4	0.0	172.10793018341064	
19	133.68260407447815	fix_post	2		12	17.0	2.5	/experiments/AOT/AOT_stimuli/rescaled_final/1030_fw.mp4	0.0	173.42430424690247	0.09997892379760742
20	133.78258299827576	fix_pre	0		120	18.0	2.5	/experiments/AOT/AOT_stimuli/rescaled_final/1992_fw.mp4	0.0	173.52428317070007	1.000096082687378
20	133.96607208251953	pulse	0	t		18.0	2.5	/experiments/AOT/AOT_stimuli/rescaled_final/1992_fw.mp4	0.0	173.70777225494385	
20	134.78267908096313	movie	1		244	18.0	2.5	/experiments/AOT/AOT_stimuli/rescaled_final/1992_fw.mp4	0.0	174.52437925338745	2.4999330043792725
20	135.56617617607117	pulse	1	t		18.0	2.5	/experiments/AOT/AOT_stimuli/rescaled_final/1992_fw.mp4	0.0	175.30787634849548	
20	137.16496515274048	pulse	1	t		18.0	2.5	/experiments/AOT/AOT_stimuli/rescaled_final/1992_fw.mp4	0.0	176.9066653251648	
20	137.2826120853424	fix_post	2		12	18.0	2.5	/experiments/AOT/AOT_stimuli/rescaled_final/1992_fw.mp4	0.0	177.02431225776672	0.10000300407409668
21	137.3826150894165	fix_pre	0		120	19.0	2.5	/experiments/AOT/AOT_stimuli/rescaled_final/1155_rv.mp4	0.0	177.12431526184082	0.9995090961456299
21	138.38212418556213	movie	1		245	19.0	2.5	/experiments/AOT/AOT_stimuli/rescaled_final/1155_rv.mp4	0.0	178.12382435798645	2.5002670288085938
21	138.7657401561737	pulse	1	t		19.0	2.5	/experiments/AOT/AOT_stimuli/rescaled_final/1155_rv.mp4	0.0	178.50744032859802	
21	140.3657341003418	pulse	1	t		19.0	2.5	/experiments/AOT/AOT_stimuli/rescaled_final/1155_rv.mp4	0.0	180.1074342727661	
21	140.88239121437073	fix_post	2		12	19.0	2.5	/experiments/AOT/AOT_stimuli/rescaled_final/1155_rv.mp4	0.0	180.62409138679504	0.10045289993286133
22	140.9828441143036	fix_pre	0		119	20.0	2.5	/experiments/AOT/AOT_stimuli/rescaled_final/2156_fw.mp4	0.0	180.7245442867279	0.9917140007019043
22	141.96599006652832	pulse	0	t		20.0	2.5	/experiments/AOT/AOT_stimuli/rescaled_final/2156_fw.mp4	0.0	181.70769023895264	
22	141.9745581150055	movie	1		249	20.0	2.5	/experiments/AOT/AOT_stimuli/rescaled_final/2156_fw.mp4	0.0	181.7162582874298	2.5080020427703857
22	143.5653691291809	pulse	1	t		20.0	2.5	/experiments/AOT/AOT_stimuli/rescaled_final/2156_fw.mp4	0.0	183.30706930160522	
22	144.48256015777588	fix_post	2		12	20.0	2.5	/experiments/AOT/AOT_stimuli/rescaled_final/2156_fw.mp4	0.0	184.2242603302002	0.10006403923034668
23	144.58262419700623	fix_pre	0		120	21.0	2.5	blank	1.0	184.32432436943054	0.9998798370361328
23	145.1661660671234	pulse	0	t		21.0	2.5	blank	1.0	184.90786623954773	
23	145.58250403404236	movie	1		300	21.0	2.5	blank	1.0	185.32420420646667	2.4996581077575684
23	146.7661349773407	pulse	1	t		21.0	2.5	blank	1.0	186.50783514976501	
23	148.08216214179993	fix_post	2		12	21.0	2.5	blank	1.0	187.82386231422424	0.10030484199523926
24	148.18246698379517	fix_pre	0		120	22.0	2.5	/experiments/AOT/AOT_stimuli/rescaled_final/0258_rv.mp4	0.0	187.92416715621948	1.0000410079956055
24	148.36597108840942	pulse	0	t		22.0	2.5	/experiments/AOT/AOT_stimuli/rescaled_final/0258_rv.mp4	0.0	188.10767126083374	
24	149.18250799179077	movie	1		245	22.0	2.5	/experiments/AOT/AOT_stimuli/rescaled_final/0258_rv.mp4	0.0	188.9242081642151	2.499988079071045
24	149.96597409248352	pulse	1	t		22.0	2.5	/experiments/AOT/AOT_stimuli/rescaled_final/0258_rv.mp4	0.0	189.70767426490784	
24	151.5620710849762	pulse	1	t		22.0	2.5	/experiments/AOT/AOT_stimuli/rescaled_final/0258_rv.mp4	0.0	191.3037712574005	
24	151.68249607086182	fix_post	2		12	22.0	2.5	/experiments/AOT/AOT_stimuli/rescaled_final/0258_rv.mp4	0.0	191.42419624328613	0.09996700286865234
25	151.78246307373047	fix_pre	0		120	23.0	2.5	/experiments/AOT/AOT_stimuli/rescaled_final/1295_rv.mp4	0.0	191.52416324615479	1.000035047531128
25	152.7824981212616	movie	1		244	23.0	2.5	/experiments/AOT/AOT_stimuli/rescaled_final/1295_rv.mp4	0.0	192.5241982936859	2.499953031539917
25	153.1656150817871	pulse	1	t		23.0	2.5	/experiments/AOT/AOT_stimuli/rescaled_final/1295_rv.mp4	0.0	192.90731525421143	
25	154.76602816581726	pulse	1	t		23.0	2.5	/experiments/AOT/AOT_stimuli/rescaled_final/1295_rv.mp4	0.0	194.50772833824158	
25	155.2824511528015	fix_post	2		12	23.0	2.5	/experiments/AOT/AOT_stimuli/rescaled_final/1295_rv.mp4	0.0	195.02415132522583	0.10003900527954102
26	155.38249015808105	fix_pre	0		119	24.0	2.5	/experiments/AOT/AOT_stimuli/rescaled_final/2146_fw.mp4	0.0	195.12419033050537	0.9916958808898926
26	156.36594104766846	pulse	0	t		24.0	2.5	/experiments/AOT/AOT_stimuli/rescaled_final/2146_fw.mp4	0.0	196.10764122009277	
26	156.37418603897095	movie	1		245	24.0	2.5	/experiments/AOT/AOT_stimuli/rescaled_final/2146_fw.mp4	0.0	196.11588621139526	2.508308172225952
26	157.96590304374695	pulse	1	t		24.0	2.5	/experiments/AOT/AOT_stimuli/rescaled_final/2146_fw.mp4	0.0	197.70760321617126	
26	158.8824942111969	fix_post	2		10	24.0	2.5	/experiments/AOT/AOT_stimuli/rescaled_final/2146_fw.mp4	0.0	198.62419438362122	0.10002398490905762
27	158.98251819610596	fix_pre	0		120	25.0	2.5	/experiments/AOT/AOT_stimuli/rescaled_final/0131_fw.mp4	0.0	198.72421836853027	0.9995429515838623
27	159.5659511089325	pulse	0	t		25.0	2.5	/experiments/AOT/AOT_stimuli/rescaled_final/0131_fw.mp4	0.0	199.3076512813568	
27	159.98206114768982	movie	1		245	25.0	2.5	/experiments/AOT/AOT_stimuli/rescaled_final/0131_fw.mp4	0.0	199.72376132011414	2.4999680519104004
27	161.16602516174316	pulse	1	t		25.0	2.5	/experiments/AOT/AOT_stimuli/rescaled_final/0131_fw.mp4	0.0	200.90772533416748	
27	162.48202919960022	fix_post	2		12	25.0	2.5	/experiments/AOT/AOT_stimuli/rescaled_final/0131_fw.mp4	0.0	202.22372937202454	0.10038399696350098
28	162.58241319656372	fix_pre	0		120	26.0	2.5	/experiments/AOT/AOT_stimuli/rescaled_final/1388_rv.mp4	0.0	202.32411336898804	0.9999878406524658
28	162.76600813865662	pulse	0	t		26.0	2.5	/experiments/AOT/AOT_stimuli/rescaled_final/1388_rv.mp4	0.0	202.50770831108093	
28	163.5824010372162	movie	1		245	26.0	2.5	/experiments/AOT/AOT_stimuli/rescaled_final/1388_rv.mp4	0.0	203.3241012096405	2.4997830390930176
28	164.36596202850342	pulse	1	t		26.0	2.5	/experiments/AOT/AOT_stimuli/rescaled_final/1388_rv.mp4	0.0	204.10766220092773	
28	165.96440720558167	pulse	1	t		26.0	2.5	/experiments/AOT/AOT_stimuli/rescaled_final/1388_rv.mp4	0.0	205.70610737800598	
28	166.0821840763092	fix_post	2		12	26.0	2.5	/experiments/AOT/AOT_stimuli/rescaled_final/1388_rv.mp4	0.0	205.82388424873352	0.09983611106872559
29	166.18202018737793	fix_pre	0		120	27.0	2.5	/experiments/AOT/AOT_stimuli/rescaled_final/2004_fw.mp4	0.0	205.92372035980225	1.0004630088806152
29	167.18248319625854	movie	1		243	27.0	2.5	/experiments/AOT/AOT_stimuli/rescaled_final/2004_fw.mp4	0.0	206.92418336868286	2.4994969367980957
29	167.56580114364624	pulse	1	t		27.0	2.5	/experiments/AOT/AOT_stimuli/rescaled_final/2004_fw.mp4	0.0	207.30750131607056	
29	169.1658730506897	pulse	1	t		27.0	2.5	/experiments/AOT/AOT_stimuli/rescaled_final/2004_fw.mp4	0.0	208.907573223114	
29	169.68198013305664	fix_post	2		12	27.0	2.5	/experiments/AOT/AOT_stimuli/rescaled_final/2004_fw.mp4	0.0	209.42368030548096	0.10038995742797852
30	169.78237009048462	fix_pre	0		119	28.0	2.5	blank	1.0	209.52407026290894	0.991602897644043
30	170.76595211029053	pulse	0	t		28.0	2.5	blank	1.0	210.50765228271484	
30	170.77397298812866	movie	1		301	28.0	2.5	blank	1.0	210.51567316055298	2.5084969997406006
30	172.36591815948486	pulse	1	t		28.0	2.5	blank	1.0	212.10761833190918	
30	173.28246998786926	fix_post	2		12	28.0	2.5	blank	1.0	213.02417016029358	0.09997200965881348
31	173.38244199752808	fix_pre	0		120	29.0	2.5	/experiments/AOT/AOT_stimuli/rescaled_final/1446_rv.mp4	0.0	213.1241421699524	0.9995460510253906
31	173.9658920764923	pulse	0	t		29.0	2.5	/experiments/AOT/AOT_stimuli/rescaled_final/1446_rv.mp4	0.0	213.70759224891663	
31	174.38198804855347	movie	1		243	29.0	2.5	/experiments/AOT/AOT_stimuli/rescaled_final/1446_rv.mp4	0.0	214.12368822097778	2.5002269744873047
31	175.56597518920898	pulse	1	t		29.0	2.5	/experiments/AOT/AOT_stimuli/rescaled_final/1446_rv.mp4	0.0	215.3076753616333	
31	176.88221502304077	fix_post	2		12	29.0	2.5	/experiments/AOT/AOT_stimuli/rescaled_final/1446_rv.mp4	0.0	216.6239151954651	0.10026407241821289
32	176.98247909545898	fix_pre	0		120	30.0	2.5	/experiments/AOT/AOT_stimuli/rescaled_final/1586_rv.mp4	0.0	216.7241792678833	0.9999210834503174
32	177.16590309143066	pulse	0	t		30.0	2.5	/experiments/AOT/AOT_stimuli/rescaled_final/1586_rv.mp4	0.0	216.90760326385498	
32	177.9824001789093	movie	1		242	30.0	2.5	/experiments/AOT/AOT_stimuli/rescaled_final/1586_rv.mp4	0.0	217.72410035133362	2.499980926513672
32	178.7659420967102	pulse	1	t		30.0	2.5	/experiments/AOT/AOT_stimuli/rescaled_final/1586_rv.mp4	0.0	218.50764226913452	
32	180.36456418037415	pulse	1	t		30.0	2.5	/experiments/AOT/AOT_stimuli/rescaled_final/1586_rv.mp4	0.0	220.10626435279846	
32	180.48238110542297	fix_post	2		12	30.0	2.5	/experiments/AOT/AOT_stimuli/rescaled_final/1586_rv.mp4	0.0	220.2240812778473	0.10003495216369629
33	180.58241605758667	fix_pre	0		120	31.0	2.5	/experiments/AOT/AOT_stimuli/rescaled_final/0227_rv.mp4	0.0	220.324116230011	1.000028133392334
33	181.582444190979	movie	1		244	31.0	2.5	/experiments/AOT/AOT_stimuli/rescaled_final/0227_rv.mp4	0.0	221.32414436340332	2.499880790710449
33	181.9653160572052	pulse	1	t		31.0	2.5	/experiments/AOT/AOT_stimuli/rescaled_final/0227_rv.mp4	0.0	221.70701622962952	
33	183.5658631324768	pulse	1	t		31.0	2.5	/experiments/AOT/AOT_stimuli/rescaled_final/0227_rv.mp4	0.0	223.30756330490112	
33	184.08232498168945	fix_post	2		12	31.0	2.5	/experiments/AOT/AOT_stimuli/rescaled_final/0227_rv.mp4	0.0	223.82402515411377	0.09962105751037598
34	184.18194603919983	fix_pre	0		119	32.0	2.5	/experiments/AOT/AOT_stimuli/rescaled_final/1161_fw.mp4	0.0	223.92364621162415	0.9921190738677979
34	185.16592407226562	pulse	0	t		32.0	2.5	/experiments/AOT/AOT_stimuli/rescaled_final/1161_fw.mp4	0.0	224.90762424468994	
34	185.17406511306763	movie	1		244	32.0	2.5	/experiments/AOT/AOT_stimuli/rescaled_final/1161_fw.mp4	0.0	224.91576528549194	2.5081770420074463
34	186.7653570175171	pulse	1	t		32.0	2.5	/experiments/AOT/AOT_stimuli/rescaled_final/1161_fw.mp4	0.0	226.5070571899414	
34	187.68224215507507	fix_post	2		12	32.0	2.5	/experiments/AOT/AOT_stimuli/rescaled_final/1161_fw.mp4	0.0	227.4239423274994	0.10006189346313477
35	187.7823040485382	fix_pre	0		120	33.0	2.5	/experiments/AOT/AOT_stimuli/rescaled_final/1586_fw.mp4	0.0	227.52400422096252	1.0000510215759277
35	188.3658571243286	pulse	0	t		33.0	2.5	/experiments/AOT/AOT_stimuli/rescaled_final/1586_fw.mp4	0.0	228.10755729675293	
35	188.78235507011414	movie	1		243	33.0	2.5	/experiments/AOT/AOT_stimuli/rescaled_final/1586_fw.mp4	0.0	228.52405524253845	2.4999749660491943
35	189.96599316596985	pulse	1	t		33.0	2.5	/experiments/AOT/AOT_stimuli/rescaled_final/1586_fw.mp4	0.0	229.70769333839417	
35	191.28233003616333	fix_post	2		12	33.0	2.5	/experiments/AOT/AOT_stimuli/rescaled_final/1586_fw.mp4	0.0	231.02403020858765	0.10001015663146973
36	191.3823401927948	fix_pre	0		120	34.0	2.5	/experiments/AOT/AOT_stimuli/rescaled_final/0865_rv.mp4	0.0	231.12404036521912	0.999553918838501
36	191.5658299922943	pulse	0	t		34.0	2.5	/experiments/AOT/AOT_stimuli/rescaled_final/0865_rv.mp4	0.0	231.30753016471863	
36	192.3818941116333	movie	1		244	34.0	2.5	/experiments/AOT/AOT_stimuli/rescaled_final/0865_rv.mp4	0.0	232.12359428405762	2.500027894973755
36	193.16583800315857	pulse	1	t		34.0	2.5	/experiments/AOT/AOT_stimuli/rescaled_final/0865_rv.mp4	0.0	232.90753817558289	
36	194.7635521888733	pulse	1	t		34.0	2.5	/experiments/AOT/AOT_stimuli/rescaled_final/0865_rv.mp4	0.0	234.5052523612976	
36	194.88192200660706	fix_post	2		12	34.0	2.5	/experiments/AOT/AOT_stimuli/rescaled_final/0865_rv.mp4	0.0	234.62362217903137	0.09998607635498047
37	194.98190808296204	fix_pre	0		120	35.0	2.5	blank	1.0	234.72360825538635	1.0001089572906494
37	195.98201704025269	movie	1		300	35.0	2.5	blank	1.0	235.723717212677	2.49989914894104
37	196.36552810668945	pulse	1	t		35.0	2.5	blank	1.0	236.10722827911377	
37	197.96579813957214	pulse	1	t		35.0	2.5	blank	1.0	237.70749831199646	
37	198.48191618919373	fix_post	2		12	35.0	2.5	blank	1.0	238.22361636161804	0.1003878116607666
38	198.5823040008545	fix_pre	0		119	36.0	2.5	/experiments/AOT/AOT_stimuli/rescaled_final/0979_fw.mp4	0.0	238.3240041732788	0.9916679859161377
38	199.56582307815552	pulse	0	t		36.0	2.5	/experiments/AOT/AOT_stimuli/rescaled_final/0979_fw.mp4	0.0	239.30752325057983	
38	199.57397198677063	movie	1		246	36.0	2.5	/experiments/AOT/AOT_stimuli/rescaled_final/0979_fw.mp4	0.0	239.31567215919495	2.508289098739624
38	201.1659619808197	pulse	1	t		36.0	2.5	/experiments/AOT/AOT_stimuli/rescaled_final/0979_fw.mp4	0.0	240.90766215324402	
38	202.08226108551025	fix_post	2		12	36.0	2.5	/experiments/AOT/AOT_stimuli/rescaled_final/0979_fw.mp4	0.0	241.82396125793457	0.09976696968078613
39	202.18202805519104	fix_pre	0		120	37.0	2.5	/experiments/AOT/AOT_stimuli/rescaled_final/1035_rv.mp4	0.0	241.92372822761536	1.0002410411834717
39	202.76698803901672	pulse	0	t		37.0	2.5	/experiments/AOT/AOT_stimuli/rescaled_final/1035_rv.mp4	0.0	242.50868821144104	
39	203.1822690963745	movie	1		246	37.0	2.5	/experiments/AOT/AOT_stimuli/rescaled_final/1035_rv.mp4	0.0	242.92396926879883	2.4999759197235107
39	204.36581707000732	pulse	1	t		37.0	2.5	/experiments/AOT/AOT_stimuli/rescaled_final/1035_rv.mp4	0.0	244.10751724243164	
39	205.68224501609802	fix_post	2		12	37.0	2.5	/experiments/AOT/AOT_stimuli/rescaled_final/1035_rv.mp4	0.0	245.42394518852234	0.0996541976928711
40	205.7818992137909	fix_pre	0		120	38.0	2.5	/experiments/AOT/AOT_stimuli/rescaled_final/1888_fw.mp4	0.0	245.5235993862152	1.0003509521484375
40	205.96566820144653	pulse	0	t		38.0	2.5	/experiments/AOT/AOT_stimuli/rescaled_final/1888_fw.mp4	0.0	245.70736837387085	
40	206.78225016593933	movie	1		246	38.0	2.5	/experiments/AOT/AOT_stimuli/rescaled_final/1888_fw.mp4	0.0	246.52395033836365	2.4999969005584717
40	207.56563305854797	pulse	1	t		38.0	2.5	/experiments/AOT/AOT_stimuli/rescaled_final/1888_fw.mp4	0.0	247.3073332309723	
40	209.16427898406982	pulse	1	t		38.0	2.5	/experiments/AOT/AOT_stimuli/rescaled_final/1888_fw.mp4	0.0	248.90597915649414	
40	209.2822470664978	fix_post	2		12	38.0	2.5	/experiments/AOT/AOT_stimuli/rescaled_final/1888_fw.mp4	0.0	249.02394723892212	0.09996604919433594
41	209.38221311569214	fix_pre	0		120	39.0	2.5	/experiments/AOT/AOT_stimuli/rescaled_final/1755_rv.mp4	0.0	249.12391328811646	0.9995980262756348
41	210.38181114196777	movie	1		245	39.0	2.5	/experiments/AOT/AOT_stimuli/rescaled_final/1755_rv.mp4	0.0	250.1235113143921	2.5003979206085205
41	210.76544213294983	pulse	1	t		39.0	2.5	/experiments/AOT/AOT_stimuli/rescaled_final/1755_rv.mp4	0.0	250.50714230537415	
41	212.3656439781189	pulse	1	t		39.0	2.5	/experiments/AOT/AOT_stimuli/rescaled_final/1755_rv.mp4	0.0	252.1073441505432	
41	212.8822090625763	fix_post	2		12	39.0	2.5	/experiments/AOT/AOT_stimuli/rescaled_final/1755_rv.mp4	0.0	252.6239092350006	0.10004711151123047
42	212.98225617408752	fix_pre	0		119	40.0	2.5	/experiments/AOT/AOT_stimuli/rescaled_final/0472_rv.mp4	0.0	252.72395634651184	0.9915909767150879
42	213.96566319465637	pulse	0	t		40.0	2.5	/experiments/AOT/AOT_stimuli/rescaled_final/0472_rv.mp4	0.0	253.7073633670807	
42	213.9738471508026	movie	1		246	40.0	2.5	/experiments/AOT/AOT_stimuli/rescaled_final/0472_rv.mp4	0.0	253.71554732322693	2.50833797454834
42	215.5655550956726	pulse	1	t		40.0	2.5	/experiments/AOT/AOT_stimuli/rescaled_final/0472_rv.mp4	0.0	255.30725526809692	
42	216.48218512535095	fix_post	2		12	40.0	2.5	/experiments/AOT/AOT_stimuli/rescaled_final/0472_rv.mp4	0.0	256.22388529777527	0.10007405281066895
43	216.58225917816162	fix_pre	0		120	41.0	2.5	blank	1.0	256.32395935058594	0.9999189376831055
43	217.16572403907776	pulse	0	t		41.0	2.5	blank	1.0	256.9074242115021	
43	217.58217811584473	movie	1		300	41.0	2.5	blank	1.0	257.32387828826904	2.5000689029693604
43	218.76572108268738	pulse	1	t		41.0	2.5	blank	1.0	258.5074212551117	
43	220.0822470188141	fix_post	2		12	41.0	2.5	blank	1.0	259.8239471912384	0.09995412826538086
44	220.18220114707947	fix_pre	0		120	42.0	2.5	/experiments/AOT/AOT_stimuli/rescaled_final/0434_rv.mp4	0.0	259.9239013195038	0.9999599456787109
44	220.3657021522522	pulse	0	t		42.0	2.5	/experiments/AOT/AOT_stimuli/rescaled_final/0434_rv.mp4	0.0	260.1074023246765	
44	221.18216109275818	movie	1		242	42.0	2.5	/experiments/AOT/AOT_stimuli/rescaled_final/0434_rv.mp4	0.0	260.9238612651825	2.5000131130218506
44	221.96566319465637	pulse	1	t		42.0	2.5	/experiments/AOT/AOT_stimuli/rescaled_final/0434_rv.mp4	0.0	261.7073633670807	
44	223.56405210494995	pulse	1	t		42.0	2.5	/experiments/AOT/AOT_stimuli/rescaled_final/0434_rv.mp4	0.0	263.30575227737427	
44	223.68217420578003	fix_post	2		12	42.0	2.5	/experiments/AOT/AOT_stimuli/rescaled_final/0434_rv.mp4	0.0	263.42387437820435	0.09996795654296875
45	223.782142162323	fix_pre	0		120	43.0	2.5	/experiments/AOT/AOT_stimuli/rescaled_final/1000_fw.mp4	0.0	263.5238423347473	0.9999909400939941
45	224.782133102417	movie	1		246	43.0	2.5	/experiments/AOT/AOT_stimuli/rescaled_final/1000_fw.mp4	0.0	264.5238332748413	2.4995598793029785
45	225.16516017913818	pulse	1	t		43.0	2.5	/experiments/AOT/AOT_stimuli/rescaled_final/1000_fw.mp4	0.0	264.9068603515625	
45	226.76568508148193	pulse	1	t		43.0	2.5	/experiments/AOT/AOT_stimuli/rescaled_final/1000_fw.mp4	0.0	266.50738525390625	
45	227.28169298171997	fix_post	2		12	43.0	2.5	/experiments/AOT/AOT_stimuli/rescaled_final/1000_fw.mp4	0.0	267.0233931541443	0.1004641056060791
46	227.38215708732605	fix_pre	0		119	44.0	2.5	/experiments/AOT/AOT_stimuli/rescaled_final/1278_fw.mp4	0.0	267.12385725975037	0.9916799068450928
46	228.36579298973083	pulse	0	t		44.0	2.5	/experiments/AOT/AOT_stimuli/rescaled_final/1278_fw.mp4	0.0	268.10749316215515	
46	228.37383699417114	movie	1		249	44.0	2.5	/experiments/AOT/AOT_stimuli/rescaled_final/1278_fw.mp4	0.0	268.11553716659546	2.5078601837158203
46	229.96695804595947	pulse	1	t		44.0	2.5	/experiments/AOT/AOT_stimuli/rescaled_final/1278_fw.mp4	0.0	269.7086582183838	
46	230.88169717788696	fix_post	2		12	44.0	2.5	/experiments/AOT/AOT_stimuli/rescaled_final/1278_fw.mp4	0.0	270.6233973503113	0.10046100616455078
47	230.9821581840515	fix_pre	0		120	45.0	2.5	/experiments/AOT/AOT_stimuli/rescaled_final/2009_rv.mp4	0.0	270.72385835647583	1.0000338554382324
47	231.56565713882446	pulse	0	t		45.0	2.5	/experiments/AOT/AOT_stimuli/rescaled_final/2009_rv.mp4	0.0	271.3073573112488	
47	231.98219203948975	movie	1		248	45.0	2.5	/experiments/AOT/AOT_stimuli/rescaled_final/2009_rv.mp4	0.0	271.72389221191406	2.4998910427093506
47	233.16567516326904	pulse	1	t		45.0	2.5	/experiments/AOT/AOT_stimuli/rescaled_final/2009_rv.mp4	0.0	272.90737533569336	
47	234.4820830821991	fix_post	2		12	45.0	2.5	/experiments/AOT/AOT_stimuli/rescaled_final/2009_rv.mp4	0.0	274.2237832546234	0.09993600845336914
48	234.58201909065247	fix_pre	0		120	46.0	2.5	/experiments/AOT/AOT_stimuli/rescaled_final/0319_rv.mp4	0.0	274.3237192630768	0.9996669292449951
48	234.76559209823608	pulse	0	t		46.0	2.5	/experiments/AOT/AOT_stimuli/rescaled_final/0319_rv.mp4	0.0	274.5072922706604	
48	235.58168601989746	movie	1		244	46.0	2.5	/experiments/AOT/AOT_stimuli/rescaled_final/0319_rv.mp4	0.0	275.3233861923218	2.4999101161956787
48	236.36563110351562	pulse	1	t		46.0	2.5	/experiments/AOT/AOT_stimuli/rescaled_final/0319_rv.mp4	0.0	276.10733127593994	
48	237.96407914161682	pulse	1	t		46.0	2.5	/experiments/AOT/AOT_stimuli/rescaled_final/0319_rv.mp4	0.0	277.70577931404114	
48	238.08159613609314	fix_post	2		12	46.0	2.5	/experiments/AOT/AOT_stimuli/rescaled_final/0319_rv.mp4	0.0	277.82329630851746	0.10054492950439453
49	238.18214106559753	fix_pre	0		120	47.0	2.5	/experiments/AOT/AOT_stimuli/rescaled_final/1768_rv.mp4	0.0	277.92384123802185	0.9998841285705566
49	239.1820251941681	movie	1		243	47.0	2.5	/experiments/AOT/AOT_stimuli/rescaled_final/1768_rv.mp4	0.0	278.9237253665924	2.4996399879455566
49	239.56673002243042	pulse	1	t		47.0	2.5	/experiments/AOT/AOT_stimuli/rescaled_final/1768_rv.mp4	0.0	279.30843019485474	
49	241.16574215888977	pulse	1	t		47.0	2.5	/experiments/AOT/AOT_stimuli/rescaled_final/1768_rv.mp4	0.0	280.9074423313141	
49	241.68166518211365	fix_post	2		12	47.0	2.5	/experiments/AOT/AOT_stimuli/rescaled_final/1768_rv.mp4	0.0	281.42336535453796	0.10001087188720703
50	241.78167605400085	fix_pre	0		119	48.0	2.5	/experiments/AOT/AOT_stimuli/rescaled_final/1057_rv.mp4	0.0	281.52337622642517	0.9919910430908203
50	242.7655951976776	pulse	0	t		48.0	2.5	/experiments/AOT/AOT_stimuli/rescaled_final/1057_rv.mp4	0.0	282.50729537010193	
50	242.77366709709167	movie	1		244	48.0	2.5	/experiments/AOT/AOT_stimuli/rescaled_final/1057_rv.mp4	0.0	282.515367269516	2.5084359645843506
50	244.36651015281677	pulse	1	t		48.0	2.5	/experiments/AOT/AOT_stimuli/rescaled_final/1057_rv.mp4	0.0	284.1082103252411	
50	245.28210306167603	fix_post	2		12	48.0	2.5	/experiments/AOT/AOT_stimuli/rescaled_final/1057_rv.mp4	0.0	285.02380323410034	0.09994792938232422
51	245.38205099105835	fix_pre	0		120	49.0	2.5	blank	1.0	285.12375116348267	1.000082015991211
51	245.96553206443787	pulse	0	t		49.0	2.5	blank	1.0	285.7072322368622	
51	246.38213300704956	movie	1		300	49.0	2.5	blank	1.0	286.1238331794739	2.4998860359191895
51	247.56560516357422	pulse	1	t		49.0	2.5	blank	1.0	287.30730533599854	
51	248.88201904296875	fix_post	2		12	49.0	2.5	blank	1.0	288.62371921539307	0.09998202323913574
52	248.98200106620789	fix_pre	0		120	50.0	2.5	/experiments/AOT/AOT_stimuli/rescaled_final/0828_rv.mp4	0.0	288.7237012386322	1.000119924545288
52	249.1655650138855	pulse	0	t		50.0	2.5	/experiments/AOT/AOT_stimuli/rescaled_final/0828_rv.mp4	0.0	288.9072651863098	
52	249.98212099075317	movie	1		246	50.0	2.5	/experiments/AOT/AOT_stimuli/rescaled_final/0828_rv.mp4	0.0	289.7238211631775	2.4997360706329346
52	250.76509308815002	pulse	1	t		50.0	2.5	/experiments/AOT/AOT_stimuli/rescaled_final/0828_rv.mp4	0.0	290.50679326057434	
52	252.36428213119507	pulse	1	t		50.0	2.5	/experiments/AOT/AOT_stimuli/rescaled_final/0828_rv.mp4	0.0	292.1059823036194	
52	252.4818570613861	fix_post	2		12	50.0	2.5	/experiments/AOT/AOT_stimuli/rescaled_final/0828_rv.mp4	0.0	292.2235572338104	0.09995007514953613
53	252.58180713653564	fix_pre	0		120	51.0	2.5	/experiments/AOT/AOT_stimuli/rescaled_final/2029_rv.mp4	0.0	292.32350730895996	1.000108003616333
53	253.58191514015198	movie	1		245	51.0	2.5	/experiments/AOT/AOT_stimuli/rescaled_final/2029_rv.mp4	0.0	293.3236153125763	2.5000579357147217
53	253.9657220840454	pulse	1	t		51.0	2.5	/experiments/AOT/AOT_stimuli/rescaled_final/2029_rv.mp4	0.0	293.7074222564697	
53	255.56545400619507	pulse	1	t		51.0	2.5	/experiments/AOT/AOT_stimuli/rescaled_final/2029_rv.mp4	0.0	295.3071541786194	
53	256.0819730758667	fix_post	2		12	51.0	2.5	/experiments/AOT/AOT_stimuli/rescaled_final/2029_rv.mp4	0.0	295.823673248291	0.10004806518554688
54	256.18202114105225	fix_pre	0		119	52.0	2.5	/experiments/AOT/AOT_stimuli/rescaled_final/0321_rv.mp4	0.0	295.92372131347656	0.991631031036377
54	257.1655550003052	pulse	0	t		52.0	2.5	/experiments/AOT/AOT_stimuli/rescaled_final/0321_rv.mp4	0.0	296.9072551727295	
54	257.1736521720886	movie	1		247	52.0	2.5	/experiments/AOT/AOT_stimuli/rescaled_final/0321_rv.mp4	0.0	296.91535234451294	2.508291006088257
54	258.7649509906769	pulse	1	t		52.0	2.5	/experiments/AOT/AOT_stimuli/rescaled_final/0321_rv.mp4	0.0	298.5066511631012	
54	259.6819431781769	fix_post	2		12	52.0	2.5	/experiments/AOT/AOT_stimuli/rescaled_final/0321_rv.mp4	0.0	299.4236433506012	0.10000395774841309
55	259.7819471359253	fix_pre	0		120	53.0	2.5	/experiments/AOT/AOT_stimuli/rescaled_final/0535_rv.mp4	0.0	299.5236473083496	0.9999949932098389
55	260.36551809310913	pulse	0	t		53.0	2.5	/experiments/AOT/AOT_stimuli/rescaled_final/0535_rv.mp4	0.0	300.10721826553345	
55	260.78194212913513	movie	1		244	53.0	2.5	/experiments/AOT/AOT_stimuli/rescaled_final/0535_rv.mp4	0.0	300.52364230155945	2.5000829696655273
55	261.96549820899963	pulse	1	t		53.0	2.5	/experiments/AOT/AOT_stimuli/rescaled_final/0535_rv.mp4	0.0	301.70719838142395	
55	263.28202509880066	fix_post	2		12	53.0	2.5	/experiments/AOT/AOT_stimuli/rescaled_final/0535_rv.mp4	0.0	303.023725271225	0.09990406036376953
56	263.38192915916443	fix_pre	0		120	54.0	2.5	blank	1.0	303.12362933158875	1.000053882598877
56	263.5654580593109	pulse	0	t		54.0	2.5	blank	1.0	303.30715823173523	
56	264.3819830417633	movie	1		300	54.0	2.5	blank	1.0	304.1236832141876	2.499907970428467
56	265.16542506217957	pulse	1	t		54.0	2.5	blank	1.0	304.9071252346039	
56	266.7653841972351	pulse	1	t		54.0	2.5	blank	1.0	306.5070843696594	
56	266.8818910121918	fix_post	2		12	54.0	2.5	blank	1.0	306.6235911846161	0.10005807876586914
57	266.98194909095764	fix_pre	0		120	55.0	2.5	/experiments/AOT/AOT_stimuli/rescaled_final/0063_rv.mp4	0.0	306.72364926338196	0.9999330043792725
57	267.9818820953369	movie	1		247	55.0	2.5	/experiments/AOT/AOT_stimuli/rescaled_final/0063_rv.mp4	0.0	307.72358226776123	2.5000739097595215
57	268.3654980659485	pulse	1	t		55.0	2.5	/experiments/AOT/AOT_stimuli/rescaled_final/0063_rv.mp4	0.0	308.1071982383728	
57	269.96544003486633	pulse	1	t		55.0	2.5	/experiments/AOT/AOT_stimuli/rescaled_final/0063_rv.mp4	0.0	309.70714020729065	
57	270.48195600509644	fix_post	2		12	55.0	2.5	/experiments/AOT/AOT_stimuli/rescaled_final/0063_rv.mp4	0.0	310.22365617752075	0.0999751091003418
58	270.5819311141968	fix_pre	0		119	56.0	2.5	/experiments/AOT/AOT_stimuli/rescaled_final/0098_fw.mp4	0.0	310.3236312866211	0.991663932800293
58	271.56548404693604	pulse	0	t		56.0	2.5	/experiments/AOT/AOT_stimuli/rescaled_final/0098_fw.mp4	0.0	311.30718421936035	
58	271.57359504699707	movie	1		247	56.0	2.5	/experiments/AOT/AOT_stimuli/rescaled_final/0098_fw.mp4	0.0	311.3152952194214	2.5082290172576904
58	273.16577911376953	pulse	1	t		56.0	2.5	/experiments/AOT/AOT_stimuli/rescaled_final/0098_fw.mp4	0.0	312.90747928619385	
58	274.08182406425476	fix_post	2		12	56.0	2.5	/experiments/AOT/AOT_stimuli/rescaled_final/0098_fw.mp4	0.0	313.8235242366791	0.10013699531555176
59	274.1819610595703	fix_pre	0		120	57.0	2.5	/experiments/AOT/AOT_stimuli/rescaled_final/1507_fw.mp4	0.0	313.92366123199463	0.9999260902404785
59	274.76672410964966	pulse	0	t		57.0	2.5	/experiments/AOT/AOT_stimuli/rescaled_final/1507_fw.mp4	0.0	314.508424282074	
59	275.1818871498108	movie	1		245	57.0	2.5	/experiments/AOT/AOT_stimuli/rescaled_final/1507_fw.mp4	0.0	314.9235873222351	2.4995639324188232
59	276.3655860424042	pulse	1	t		57.0	2.5	/experiments/AOT/AOT_stimuli/rescaled_final/1507_fw.mp4	0.0	316.1072862148285	
59	277.6814510822296	fix_post	2		12	57.0	2.5	/experiments/AOT/AOT_stimuli/rescaled_final/1507_fw.mp4	0.0	317.42315125465393	0.10041403770446777
60	277.7818651199341	fix_pre	0		120	58.0	2.5	/experiments/AOT/AOT_stimuli/rescaled_final/0066_rv.mp4	0.0	317.5235652923584	0.9996130466461182
60	277.9654211997986	pulse	0	t		58.0	2.5	/experiments/AOT/AOT_stimuli/rescaled_final/0066_rv.mp4	0.0	317.7071213722229	
60	278.7814781665802	movie	1		244	58.0	2.5	/experiments/AOT/AOT_stimuli/rescaled_final/0066_rv.mp4	0.0	318.5231783390045	2.500349998474121
60	279.56535506248474	pulse	1	t		58.0	2.5	/experiments/AOT/AOT_stimuli/rescaled_final/0066_rv.mp4	0.0	319.30705523490906	
60	281.16408801078796	pulse	1	t		58.0	2.5	/experiments/AOT/AOT_stimuli/rescaled_final/0066_rv.mp4	0.0	320.9057881832123	
60	281.2818281650543	fix_post	2		12	58.0	2.5	/experiments/AOT/AOT_stimuli/rescaled_final/0066_rv.mp4	0.0	321.02352833747864	0.1000969409942627
61	281.3819251060486	fix_pre	0		120	59.0	2.5	/experiments/AOT/AOT_stimuli/rescaled_final/1631_fw.mp4	0.0	321.1236252784729	1.0001471042633057
61	282.3820722103119	movie	1		244	59.0	2.5	/experiments/AOT/AOT_stimuli/rescaled_final/1631_fw.mp4	0.0	322.1237723827362	2.4993579387664795
61	282.7664530277252	pulse	1	t		59.0	2.5	/experiments/AOT/AOT_stimuli/rescaled_final/1631_fw.mp4	0.0	322.50815320014954	
61	284.36527705192566	pulse	1	t		59.0	2.5	/experiments/AOT/AOT_stimuli/rescaled_final/1631_fw.mp4	0.0	324.10697722435	
61	284.88143014907837	fix_post	2		12	59.0	2.5	/experiments/AOT/AOT_stimuli/rescaled_final/1631_fw.mp4	0.0	324.6231303215027	0.10041594505310059
62	284.98184609413147	fix_pre	0		119	60.0	2.5	/experiments/AOT/AOT_stimuli/rescaled_final/1736_rv.mp4	0.0	324.7235462665558	0.9916970729827881
62	285.96539402008057	pulse	0	t		60.0	2.5	/experiments/AOT/AOT_stimuli/rescaled_final/1736_rv.mp4	0.0	325.7070941925049	
62	285.97354316711426	movie	1		247	60.0	2.5	/experiments/AOT/AOT_stimuli/rescaled_final/1736_rv.mp4	0.0	325.7152433395386	2.5083038806915283
62	287.5650269985199	pulse	1	t		60.0	2.5	/experiments/AOT/AOT_stimuli/rescaled_final/1736_rv.mp4	0.0	327.3067271709442	
62	288.4818470478058	fix_post	2		12	60.0	2.5	/experiments/AOT/AOT_stimuli/rescaled_final/1736_rv.mp4	0.0	328.2235472202301	0.09995698928833008
63	288.5818040370941	fix_pre	0		120	61.0	2.5	/experiments/AOT/AOT_stimuli/rescaled_final/1382_fw.mp4	0.0	328.32350420951843	1.0000050067901611
63	289.16536712646484	pulse	0	t		61.0	2.5	/experiments/AOT/AOT_stimuli/rescaled_final/1382_fw.mp4	0.0	328.90706729888916	
63	289.5818090438843	movie	1		245	61.0	2.5	/experiments/AOT/AOT_stimuli/rescaled_final/1382_fw.mp4	0.0	329.3235092163086	2.499657154083252
63	290.76541113853455	pulse	1	t		61.0	2.5	/experiments/AOT/AOT_stimuli/rescaled_final/1382_fw.mp4	0.0	330.50711131095886	
63	292.08146619796753	fix_post	2		12	61.0	2.5	/experiments/AOT/AOT_stimuli/rescaled_final/1382_fw.mp4	0.0	331.82316637039185	0.10040998458862305
64	292.18187618255615	fix_pre	0		120	62.0	2.5	blank	1.0	331.92357635498047	1.0000038146972656
64	292.36537504196167	pulse	0	t		62.0	2.5	blank	1.0	332.107075214386	
64	293.1818799972534	movie	1		300	62.0	2.5	blank	1.0	332.92358016967773	2.4999849796295166
64	293.9653511047363	pulse	1	t		62.0	2.5	blank	1.0	333.70705127716064	
64	295.56528306007385	pulse	1	t		62.0	2.5	blank	1.0	335.30698323249817	
64	295.68186497688293	fix_post	2		12	62.0	2.5	blank	1.0	335.42356514930725	0.09997820854187012
65	295.7818431854248	fix_pre	0		120	63.0	2.5	/experiments/AOT/AOT_stimuli/rescaled_final/1084_rv.mp4	0.0	335.5235433578491	0.9999480247497559
65	296.78179121017456	movie	1		245	63.0	2.5	/experiments/AOT/AOT_stimuli/rescaled_final/1084_rv.mp4	0.0	336.5234913825989	2.4999568462371826
65	297.1648120880127	pulse	1	t		63.0	2.5	/experiments/AOT/AOT_stimuli/rescaled_final/1084_rv.mp4	0.0	336.906512260437	
65	298.7653250694275	pulse	1	t		63.0	2.5	/experiments/AOT/AOT_stimuli/rescaled_final/1084_rv.mp4	0.0	338.5070252418518	
65	299.28174805641174	fix_post	2		12	63.0	2.5	/experiments/AOT/AOT_stimuli/rescaled_final/1084_rv.mp4	0.0	339.02344822883606	0.10000896453857422
66	299.3817570209503	fix_pre	0		119	64.0	2.5	/experiments/AOT/AOT_stimuli/rescaled_final/1027_fw.mp4	0.0	339.12345719337463	0.9917800426483154
66	300.36531114578247	pulse	0	t		64.0	2.5	/experiments/AOT/AOT_stimuli/rescaled_final/1027_fw.mp4	0.0	340.1070113182068	
66	300.37353706359863	movie	1		247	64.0	2.5	/experiments/AOT/AOT_stimuli/rescaled_final/1027_fw.mp4	0.0	340.11523723602295	2.5077879428863525
66	301.9651951789856	pulse	1	t		64.0	2.5	/experiments/AOT/AOT_stimuli/rescaled_final/1027_fw.mp4	0.0	341.7068953514099	
66	302.881325006485	fix_post	2		12	64.0	2.5	/experiments/AOT/AOT_stimuli/rescaled_final/1027_fw.mp4	0.0	342.6230251789093	0.1004490852355957
67	302.9817740917206	fix_pre	0		120	65.0	2.5	/experiments/AOT/AOT_stimuli/rescaled_final/0417_fw.mp4	0.0	342.7234742641449	0.9997360706329346
67	303.5653200149536	pulse	0	t		65.0	2.5	/experiments/AOT/AOT_stimuli/rescaled_final/0417_fw.mp4	0.0	343.30702018737793	
67	303.9815101623535	movie	1		247	65.0	2.5	/experiments/AOT/AOT_stimuli/rescaled_final/0417_fw.mp4	0.0	343.72321033477783	2.4998648166656494
67	305.1654050350189	pulse	1	t		65.0	2.5	/experiments/AOT/AOT_stimuli/rescaled_final/0417_fw.mp4	0.0	344.90710520744324	
67	306.48137497901917	fix_post	2		12	65.0	2.5	/experiments/AOT/AOT_stimuli/rescaled_final/0417_fw.mp4	0.0	346.2230751514435	0.09998703002929688
68	306.58136200904846	fix_pre	0		120	66.0	2.5	/experiments/AOT/AOT_stimuli/rescaled_final/1358_fw.mp4	0.0	346.3230621814728	1.0000801086425781
68	306.7648460865021	pulse	0	t		66.0	2.5	/experiments/AOT/AOT_stimuli/rescaled_final/1358_fw.mp4	0.0	346.5065462589264	
68	307.58144211769104	movie	1		244	66.0	2.5	/experiments/AOT/AOT_stimuli/rescaled_final/1358_fw.mp4	0.0	347.32314229011536	2.5003249645233154
68	308.3653860092163	pulse	1	t		66.0	2.5	/experiments/AOT/AOT_stimuli/rescaled_final/1358_fw.mp4	0.0	348.1070861816406	
68	309.9638910293579	pulse	1	t		66.0	2.5	/experiments/AOT/AOT_stimuli/rescaled_final/1358_fw.mp4	0.0	349.7055912017822	
68	310.08176708221436	fix_post	2		12	66.0	2.5	/experiments/AOT/AOT_stimuli/rescaled_final/1358_fw.mp4	0.0	349.8234672546387	0.10009598731994629
69	310.1818630695343	fix_pre	0		120	67.0	2.5	/experiments/AOT/AOT_stimuli/rescaled_final/0086_fw.mp4	0.0	349.9235632419586	0.9999499320983887
69	311.1818130016327	movie	1		244	67.0	2.5	/experiments/AOT/AOT_stimuli/rescaled_final/0086_fw.mp4	0.0	350.923513174057	2.5000081062316895
69	311.5652940273285	pulse	1	t		67.0	2.5	/experiments/AOT/AOT_stimuli/rescaled_final/0086_fw.mp4	0.0	351.3069941997528	
69	313.1652569770813	pulse	1	t		67.0	2.5	/experiments/AOT/AOT_stimuli/rescaled_final/0086_fw.mp4	0.0	352.9069571495056	
69	313.6818211078644	fix_post	2		12	67.0	2.5	/experiments/AOT/AOT_stimuli/rescaled_final/0086_fw.mp4	0.0	353.4235212802887	0.09944605827331543
70	313.7812671661377	fix_pre	0		119	68.0	2.5	/experiments/AOT/AOT_stimuli/rescaled_final/0730_rv.mp4	0.0	353.522967338562	0.9920749664306641
70	314.76516699790955	pulse	0	t		68.0	2.5	/experiments/AOT/AOT_stimuli/rescaled_final/0730_rv.mp4	0.0	354.50686717033386	
70	314.77334213256836	movie	1		245	68.0	2.5	/experiments/AOT/AOT_stimuli/rescaled_final/0730_rv.mp4	0.0	354.5150423049927	2.507969856262207
70	316.365177154541	pulse	1	t		68.0	2.5	/experiments/AOT/AOT_stimuli/rescaled_final/0730_rv.mp4	0.0	356.10687732696533	
70	317.28131198883057	fix_post	2		12	68.0	2.5	/experiments/AOT/AOT_stimuli/rescaled_final/0730_rv.mp4	0.0	357.0230121612549	0.10009908676147461
71	317.38141107559204	fix_pre	0		120	69.0	2.5	/experiments/AOT/AOT_stimuli/rescaled_final/1888_fw.mp4	0.0	357.12311124801636	1.000277042388916
71	317.9651939868927	pulse	0	t		69.0	2.5	/experiments/AOT/AOT_stimuli/rescaled_final/1888_fw.mp4	0.0	357.706894159317	
71	318.38168811798096	movie	1		246	69.0	2.5	/experiments/AOT/AOT_stimuli/rescaled_final/1888_fw.mp4	0.0	358.1233882904053	2.5000410079956055
71	319.56527519226074	pulse	1	t		69.0	2.5	/experiments/AOT/AOT_stimuli/rescaled_final/1888_fw.mp4	0.0	359.30697536468506	
71	320.88172912597656	fix_post	2		12	69.0	2.5	/experiments/AOT/AOT_stimuli/rescaled_final/1888_fw.mp4	0.0	360.6234292984009	0.09987306594848633
72	320.98160219192505	fix_pre	0		120	70.0	2.5	blank	1.0	360.72330236434937	1.00016188621521
72	321.16518211364746	pulse	0	t		70.0	2.5	blank	1.0	360.9068822860718	
72	321.98176407814026	movie	1		300	70.0	2.5	blank	1.0	361.7234642505646	2.499898910522461
72	322.765202999115	pulse	1	t		70.0	2.5	blank	1.0	362.5069031715393	
72	324.3652651309967	pulse	1	t		70.0	2.5	blank	1.0	364.106965303421	
72	324.4816629886627	fix_post	2		12	70.0	2.5	blank	1.0	364.22336316108704	0.09960699081420898
73	324.58126997947693	fix_pre	0		120	71.0	2.5	/experiments/AOT/AOT_stimuli/rescaled_final/1682_fw.mp4	0.0	364.32297015190125	1.0003561973571777
73	325.5816261768341	movie	1		245	71.0	2.5	/experiments/AOT/AOT_stimuli/rescaled_final/1682_fw.mp4	0.0	365.3233263492584	2.4999988079071045
73	325.964937210083	pulse	1	t		71.0	2.5	/experiments/AOT/AOT_stimuli/rescaled_final/1682_fw.mp4	0.0	365.7066373825073	
73	327.5652060508728	pulse	1	t		71.0	2.5	/experiments/AOT/AOT_stimuli/rescaled_final/1682_fw.mp4	0.0	367.3069062232971	
73	328.0816249847412	fix_post	2		12	71.0	2.5	/experiments/AOT/AOT_stimuli/rescaled_final/1682_fw.mp4	0.0	367.8233251571655	0.09996199607849121
74	328.1815869808197	fix_pre	0		119	72.0	2.5	/experiments/AOT/AOT_stimuli/rescaled_final/0624_rv.mp4	0.0	367.923287153244	0.9918150901794434
74	329.16517901420593	pulse	0	t		72.0	2.5	/experiments/AOT/AOT_stimuli/rescaled_final/0624_rv.mp4	0.0	368.90687918663025	
74	329.17340207099915	movie	1		246	72.0	2.5	/experiments/AOT/AOT_stimuli/rescaled_final/0624_rv.mp4	0.0	368.91510224342346	2.5077719688415527
74	330.764671087265	pulse	1	t		72.0	2.5	/experiments/AOT/AOT_stimuli/rescaled_final/0624_rv.mp4	0.0	370.50637125968933	
74	331.6811740398407	fix_post	2		12	72.0	2.5	/experiments/AOT/AOT_stimuli/rescaled_final/0624_rv.mp4	0.0	371.422874212265	0.10005307197570801
75	331.7812271118164	fix_pre	0		120	73.0	2.5	/experiments/AOT/AOT_stimuli/rescaled_final/2004_rv.mp4	0.0	371.5229272842407	1.0003609657287598
75	332.36515712738037	pulse	0	t		73.0	2.5	/experiments/AOT/AOT_stimuli/rescaled_final/2004_rv.mp4	0.0	372.1068572998047	
75	332.78158807754517	movie	1		244	73.0	2.5	/experiments/AOT/AOT_stimuli/rescaled_final/2004_rv.mp4	0.0	372.5232882499695	2.499582052230835
75	333.9654190540314	pulse	1	t		73.0	2.5	/experiments/AOT/AOT_stimuli/rescaled_final/2004_rv.mp4	0.0	373.7071192264557	
75	335.281170129776	fix_post	2		12	73.0	2.5	/experiments/AOT/AOT_stimuli/rescaled_final/2004_rv.mp4	0.0	375.0228703022003	0.10004687309265137
76	335.38121700286865	fix_pre	0		120	74.0	2.5	/experiments/AOT/AOT_stimuli/rescaled_final/0870_fw.mp4	0.0	375.12291717529297	1.0004081726074219
76	335.5650510787964	pulse	0	t		74.0	2.5	/experiments/AOT/AOT_stimuli/rescaled_final/0870_fw.mp4	0.0	375.3067512512207	
76	336.3816251754761	movie	1		244	74.0	2.5	/experiments/AOT/AOT_stimuli/rescaled_final/0870_fw.mp4	0.0	376.1233253479004	2.4994938373565674
76	337.16518115997314	pulse	1	t		74.0	2.5	/experiments/AOT/AOT_stimuli/rescaled_final/0870_fw.mp4	0.0	376.90688133239746	
76	338.76362919807434	pulse	1	t		74.0	2.5	/experiments/AOT/AOT_stimuli/rescaled_final/0870_fw.mp4	0.0	378.50532937049866	
76	338.88111901283264	fix_post	2		12	74.0	2.5	/experiments/AOT/AOT_stimuli/rescaled_final/0870_fw.mp4	0.0	378.62281918525696	0.10044503211975098
77	338.9815640449524	fix_pre	0		120	75.0	2.5	/experiments/AOT/AOT_stimuli/rescaled_final/0755_fw.mp4	0.0	378.7232642173767	1.0001490116119385
77	339.98171305656433	movie	1		247	75.0	2.5	/experiments/AOT/AOT_stimuli/rescaled_final/0755_fw.mp4	0.0	379.72341322898865	2.499479055404663
77	340.36482214927673	pulse	1	t		75.0	2.5	/experiments/AOT/AOT_stimuli/rescaled_final/0755_fw.mp4	0.0	380.10652232170105	
77	341.96515011787415	pulse	1	t		75.0	2.5	/experiments/AOT/AOT_stimuli/rescaled_final/0755_fw.mp4	0.0	381.70685029029846	
77	342.481192111969	fix_post	2		12	75.0	2.5	/experiments/AOT/AOT_stimuli/rescaled_final/0755_fw.mp4	0.0	382.2228922843933	0.0999460220336914
78	342.5811381340027	fix_pre	0		119	76.0	2.5	blank	1.0	382.322838306427	0.9921228885650635
78	343.5651161670685	pulse	0	t		76.0	2.5	blank	1.0	383.3068163394928	
78	343.57326102256775	movie	1		301	76.0	2.5	blank	1.0	383.31496119499207	2.5083470344543457
78	345.1650941371918	pulse	1	t		76.0	2.5	blank	1.0	384.9067943096161	
78	346.0816080570221	fix_post	2		12	76.0	2.5	blank	1.0	385.8233082294464	0.10001492500305176
79	346.18162298202515	fix_pre	0		120	77.0	2.5	/experiments/AOT/AOT_stimuli/rescaled_final/1755_fw.mp4	0.0	385.92332315444946	0.9995410442352295
79	346.7651870250702	pulse	0	t		77.0	2.5	/experiments/AOT/AOT_stimuli/rescaled_final/1755_fw.mp4	0.0	386.5068871974945	
79	347.1811640262604	movie	1		245	77.0	2.5	/experiments/AOT/AOT_stimuli/rescaled_final/1755_fw.mp4	0.0	386.9228641986847	2.500460147857666
79	348.36511301994324	pulse	1	t		77.0	2.5	/experiments/AOT/AOT_stimuli/rescaled_final/1755_fw.mp4	0.0	388.10681319236755	
79	349.68162417411804	fix_post	2		12	77.0	2.5	/experiments/AOT/AOT_stimuli/rescaled_final/1755_fw.mp4	0.0	389.42332434654236	0.09955382347106934
80	349.7811779975891	fix_pre	0		120	78.0	2.5	/experiments/AOT/AOT_stimuli/rescaled_final/2036_rv.mp4	0.0	389.5228781700134	1.000441074371338
80	349.9650011062622	pulse	0	t		78.0	2.5	/experiments/AOT/AOT_stimuli/rescaled_final/2036_rv.mp4	0.0	389.7067012786865	
80	350.78161907196045	movie	1		246	78.0	2.5	/experiments/AOT/AOT_stimuli/rescaled_final/2036_rv.mp4	0.0	390.52331924438477	2.499906063079834
80	351.56503915786743	pulse	1	t		78.0	2.5	/experiments/AOT/AOT_stimuli/rescaled_final/2036_rv.mp4	0.0	391.30673933029175	
80	353.16526198387146	pulse	1	t		78.0	2.5	/experiments/AOT/AOT_stimuli/rescaled_final/2036_rv.mp4	0.0	392.9069621562958	
80	353.2815251350403	fix_post	2		12	78.0	2.5	/experiments/AOT/AOT_stimuli/rescaled_final/2036_rv.mp4	0.0	393.0232253074646	0.09993195533752441
81	353.3814570903778	fix_pre	0		120	79.0	2.5	/experiments/AOT/AOT_stimuli/rescaled_final/1507_fw.mp4	0.0	393.1231572628021	0.9998869895935059
81	354.3813440799713	movie	1		246	79.0	2.5	/experiments/AOT/AOT_stimuli/rescaled_final/1507_fw.mp4	0.0	394.12304425239563	2.500180959701538
81	354.7644250392914	pulse	1	t		79.0	2.5	/experiments/AOT/AOT_stimuli/rescaled_final/1507_fw.mp4	0.0	394.5061252117157	
81	356.3649501800537	pulse	1	t		79.0	2.5	/experiments/AOT/AOT_stimuli/rescaled_final/1507_fw.mp4	0.0	396.106650352478	
81	356.88152503967285	fix_post	2		12	79.0	2.5	/experiments/AOT/AOT_stimuli/rescaled_final/1507_fw.mp4	0.0	396.62322521209717	0.10001516342163086
82	356.9815402030945	fix_pre	0		119	80.0	2.5	/experiments/AOT/AOT_stimuli/rescaled_final/0199_fw.mp4	0.0	396.7232403755188	0.9916789531707764
82	357.96494007110596	pulse	0	t		80.0	2.5	/experiments/AOT/AOT_stimuli/rescaled_final/0199_fw.mp4	0.0	397.7066402435303	
82	357.97321915626526	movie	1		246	80.0	2.5	/experiments/AOT/AOT_stimuli/rescaled_final/0199_fw.mp4	0.0	397.7149193286896	2.5078859329223633
82	359.56488513946533	pulse	1	t		80.0	2.5	/experiments/AOT/AOT_stimuli/rescaled_final/0199_fw.mp4	0.0	399.30658531188965	
82	360.4811050891876	fix_post	2		12	80.0	2.5	/experiments/AOT/AOT_stimuli/rescaled_final/0199_fw.mp4	0.0	400.22280526161194	0.10039401054382324
83	360.58149909973145	fix_pre	0		120	81.0	2.5	/experiments/AOT/AOT_stimuli/rescaled_final/0865_fw.mp4	0.0	400.32319927215576	0.9999840259552002
83	361.16499519348145	pulse	0	t		81.0	2.5	/experiments/AOT/AOT_stimuli/rescaled_final/0865_fw.mp4	0.0	400.90669536590576	
83	361.58148312568665	movie	1		246	81.0	2.5	/experiments/AOT/AOT_stimuli/rescaled_final/0865_fw.mp4	0.0	401.32318329811096	2.500133991241455
83	362.764612197876	pulse	1	t		81.0	2.5	/experiments/AOT/AOT_stimuli/rescaled_final/0865_fw.mp4	0.0	402.5063123703003	
83	364.0816171169281	fix_post	2		12	81.0	2.5	/experiments/AOT/AOT_stimuli/rescaled_final/0865_fw.mp4	0.0	403.8233172893524	0.1000680923461914
84	364.1816852092743	fix_pre	0		120	82.0	2.5	/experiments/AOT/AOT_stimuli/rescaled_final/0523_rv.mp4	0.0	403.9233853816986	0.9996809959411621
84	364.3647940158844	pulse	0	t		82.0	2.5	/experiments/AOT/AOT_stimuli/rescaled_final/0523_rv.mp4	0.0	404.1064941883087	
84	365.18136620521545	movie	1		247	82.0	2.5	/experiments/AOT/AOT_stimuli/rescaled_final/0523_rv.mp4	0.0	404.92306637763977	2.5001039505004883
84	365.9649510383606	pulse	1	t		82.0	2.5	/experiments/AOT/AOT_stimuli/rescaled_final/0523_rv.mp4	0.0	405.7066512107849	
84	367.5644431114197	pulse	1	t		82.0	2.5	/experiments/AOT/AOT_stimuli/rescaled_final/0523_rv.mp4	0.0	407.306143283844	
84	367.68147015571594	fix_post	2		12	82.0	2.5	/experiments/AOT/AOT_stimuli/rescaled_final/0523_rv.mp4	0.0	407.42317032814026	0.0995328426361084
85	367.78100299835205	fix_pre	0		120	83.0	2.5	blank	1.0	407.52270317077637	1.0005052089691162
85	368.78150820732117	movie	1		300	83.0	2.5	blank	1.0	408.5232083797455	2.4994659423828125
85	369.1649270057678	pulse	1	t		83.0	2.5	blank	1.0	408.90662717819214	
85	370.7648980617523	pulse	1	t		83.0	2.5	blank	1.0	410.50659823417664	
85	371.280974149704	fix_post	2		12	83.0	2.5	blank	1.0	411.0226743221283	0.10048198699951172
87	371.3814561367035	stim	0		1716					411.1231563091278	14.299998998641968
87	372.36496210098267	pulse	0	t						412.106662273407	
87	373.96494603157043	pulse	0	t						413.70664620399475	
87	375.5648560523987	pulse	0	t						415.306556224823	
87	377.1649560928345	pulse	0	t						416.9066562652588	
87	378.7649140357971	pulse	0	t						418.50661420822144	
87	380.3648340702057	pulse	0	t						420.10653424263	
87	381.9648470878601	pulse	0	t						421.7065472602844	
87	383.564884185791	pulse	0	t						423.30658435821533	
87	385.1648700237274	pulse	0	t						424.90657019615173	
