trial_nr	onset	event_type	phase	response	nr_frames	movie_index	movie_duration	movie_file	blank	onset_abs	duration
0	0.1582469940185547	stim	0		13					21.658643007278442	0.10828304290771484
0	0.2586350440979004	response	0	space						21.759031057357788	
1	0.26653003692626953	stim	0		4676					21.766926050186157	38.966477155685425
1	39.22878813743591	pulse	0	t						60.7291841506958	
1	39.233007192611694	stim	1		1717					60.73340320587158	14.308275938034058
1	40.82503008842468	pulse	1	t						62.32542610168457	
1	42.424925088882446	pulse	1	t						63.925321102142334	
1	44.02483916282654	pulse	1	t						65.52523517608643	
1	45.624935150146484	pulse	1	t						67.12533116340637	
1	47.224563121795654	pulse	1	t						68.72495913505554	
1	48.824772119522095	pulse	1	t						70.32516813278198	
1	50.42482018470764	pulse	1	t						71.92521619796753	
1	52.024749994277954	pulse	1	t						73.52514600753784	
2	53.54128313064575	fix_pre	0		11	0.0	2.5	/experiments/AOT/AOT_stimuli/rescaled_final/1671_fw.mp4	0.0	75.04167914390564	0.09173893928527832
2	53.62480306625366	pulse	0	t		0.0	2.5	/experiments/AOT/AOT_stimuli/rescaled_final/1671_fw.mp4	0.0	75.12519907951355	
2	53.63302206993103	movie	1		243	0.0	2.5	/experiments/AOT/AOT_stimuli/rescaled_final/1671_fw.mp4	0.0	75.13341808319092	2.5078659057617188
2	55.225929975509644	pulse	1	t		0.0	2.5	/experiments/AOT/AOT_stimuli/rescaled_final/1671_fw.mp4	0.0	76.72632598876953	
2	56.14088797569275	fix_post	2		12	0.0	2.5	/experiments/AOT/AOT_stimuli/rescaled_final/1671_fw.mp4	0.0	77.64128398895264	0.10042810440063477
3	56.241316080093384	fix_pre	0		120	1.0	2.5	/experiments/AOT/AOT_stimuli/rescaled_final/0781_rv.mp4	0.0	77.74171209335327	0.9994649887084961
3	56.82469201087952	pulse	0	t		1.0	2.5	/experiments/AOT/AOT_stimuli/rescaled_final/0781_rv.mp4	0.0	78.3250880241394	
3	57.24078106880188	movie	1		244	1.0	2.5	/experiments/AOT/AOT_stimuli/rescaled_final/0781_rv.mp4	0.0	78.74117708206177	2.500056028366089
3	58.42486214637756	pulse	1	t		1.0	2.5	/experiments/AOT/AOT_stimuli/rescaled_final/0781_rv.mp4	0.0	79.92525815963745	
3	59.74083709716797	fix_post	2		12	1.0	2.5	/experiments/AOT/AOT_stimuli/rescaled_final/0781_rv.mp4	0.0	81.24123311042786	0.10041189193725586
4	59.841248989105225	fix_pre	0		120	2.0	2.5	/experiments/AOT/AOT_stimuli/rescaled_final/0705_rv.mp4	0.0	81.34164500236511	0.9995989799499512
4	60.02473497390747	pulse	0	t		2.0	2.5	/experiments/AOT/AOT_stimuli/rescaled_final/0705_rv.mp4	0.0	81.52513098716736	
4	60.840847969055176	movie	1		245	2.0	2.5	/experiments/AOT/AOT_stimuli/rescaled_final/0705_rv.mp4	0.0	82.34124398231506	2.5003092288970947
4	61.624648094177246	pulse	1	t		2.0	2.5	/experiments/AOT/AOT_stimuli/rescaled_final/0705_rv.mp4	0.0	83.12504410743713	
4	63.22323298454285	pulse	1	t		2.0	2.5	/experiments/AOT/AOT_stimuli/rescaled_final/0705_rv.mp4	0.0	84.72362899780273	
4	63.34115719795227	fix_post	2		12	2.0	2.5	/experiments/AOT/AOT_stimuli/rescaled_final/0705_rv.mp4	0.0	84.84155321121216	0.10007691383361816
5	63.44123411178589	fix_pre	0		120	3.0	2.5	/experiments/AOT/AOT_stimuli/rescaled_final/1780_rv.mp4	0.0	84.94163012504578	0.9999408721923828
5	64.44117498397827	movie	1		247	3.0	2.5	/experiments/AOT/AOT_stimuli/rescaled_final/1780_rv.mp4	0.0	85.94157099723816	2.4995641708374023
5	64.82430219650269	pulse	1	t		3.0	2.5	/experiments/AOT/AOT_stimuli/rescaled_final/1780_rv.mp4	0.0	86.32469820976257	
5	66.42473602294922	pulse	1	t		3.0	2.5	/experiments/AOT/AOT_stimuli/rescaled_final/1780_rv.mp4	0.0	87.9251320362091	
5	66.94073915481567	fix_post	2		12	3.0	2.5	/experiments/AOT/AOT_stimuli/rescaled_final/1780_rv.mp4	0.0	88.44113516807556	0.10049581527709961
6	67.04123497009277	fix_pre	0		119	4.0	2.5	/experiments/AOT/AOT_stimuli/rescaled_final/0534_rv.mp4	0.0	88.54163098335266	0.9917340278625488
6	68.02479004859924	pulse	0	t		4.0	2.5	/experiments/AOT/AOT_stimuli/rescaled_final/0534_rv.mp4	0.0	89.52518606185913	
6	68.03296899795532	movie	1		248	4.0	2.5	/experiments/AOT/AOT_stimuli/rescaled_final/0534_rv.mp4	0.0	89.53336501121521	2.5081801414489746
6	69.624507188797	pulse	1	t		4.0	2.5	/experiments/AOT/AOT_stimuli/rescaled_final/0534_rv.mp4	0.0	91.12490320205688	
6	70.5411491394043	fix_post	2		12	4.0	2.5	/experiments/AOT/AOT_stimuli/rescaled_final/0534_rv.mp4	0.0	92.04154515266418	0.10007190704345703
7	70.64122104644775	fix_pre	0		120	5.0	2.5	/experiments/AOT/AOT_stimuli/rescaled_final/1479_fw.mp4	0.0	92.14161705970764	0.999993085861206
7	71.22468709945679	pulse	0	t		5.0	2.5	/experiments/AOT/AOT_stimuli/rescaled_final/1479_fw.mp4	0.0	92.72508311271667	
7	71.64121413230896	movie	1		243	5.0	2.5	/experiments/AOT/AOT_stimuli/rescaled_final/1479_fw.mp4	0.0	93.14161014556885	2.499971866607666
7	72.82477402687073	pulse	1	t		5.0	2.5	/experiments/AOT/AOT_stimuli/rescaled_final/1479_fw.mp4	0.0	94.32517004013062	
7	74.14118599891663	fix_post	2		12	5.0	2.5	/experiments/AOT/AOT_stimuli/rescaled_final/1479_fw.mp4	0.0	95.64158201217651	0.09997105598449707
8	74.24115705490112	fix_pre	0		120	6.0	2.5	/experiments/AOT/AOT_stimuli/rescaled_final/0054_fw.mp4	0.0	95.74155306816101	1.0000441074371338
8	74.42470598220825	pulse	0	t		6.0	2.5	/experiments/AOT/AOT_stimuli/rescaled_final/0054_fw.mp4	0.0	95.92510199546814	
8	75.24120116233826	movie	1		245	6.0	2.5	/experiments/AOT/AOT_stimuli/rescaled_final/0054_fw.mp4	0.0	96.74159717559814	2.499541997909546
8	76.02484202384949	pulse	1	t		6.0	2.5	/experiments/AOT/AOT_stimuli/rescaled_final/0054_fw.mp4	0.0	97.52523803710938	
8	77.62347102165222	pulse	1	t		6.0	2.5	/experiments/AOT/AOT_stimuli/rescaled_final/0054_fw.mp4	0.0	99.12386703491211	
8	77.7407431602478	fix_post	2		12	6.0	2.5	/experiments/AOT/AOT_stimuli/rescaled_final/0054_fw.mp4	0.0	99.24113917350769	0.10038495063781738
9	77.84112811088562	fix_pre	0		120	7.0	2.5	blank	1.0	99.34152412414551	1.0000579357147217
9	78.84118604660034	movie	1		300	7.0	2.5	blank	1.0	100.34158205986023	2.499969959259033
9	79.22472715377808	pulse	1	t		7.0	2.5	blank	1.0	100.72512316703796	
9	80.82466697692871	pulse	1	t		7.0	2.5	blank	1.0	102.3250629901886	
9	81.34115600585938	fix_post	2		12	7.0	2.5	blank	1.0	102.84155201911926	0.09961509704589844
10	81.44077110290527	fix_pre	0		119	8.0	2.5	/experiments/AOT/AOT_stimuli/rescaled_final/0513_fw.mp4	0.0	102.94116711616516	0.9920220375061035
10	82.42465996742249	pulse	0	t		8.0	2.5	/experiments/AOT/AOT_stimuli/rescaled_final/0513_fw.mp4	0.0	103.92505598068237	
10	82.43279314041138	movie	1		245	8.0	2.5	/experiments/AOT/AOT_stimuli/rescaled_final/0513_fw.mp4	0.0	103.93318915367126	2.5079269409179688
10	84.02450299263	pulse	1	t		8.0	2.5	/experiments/AOT/AOT_stimuli/rescaled_final/0513_fw.mp4	0.0	105.52489900588989	
10	84.94072008132935	fix_post	2		12	8.0	2.5	/experiments/AOT/AOT_stimuli/rescaled_final/0513_fw.mp4	0.0	106.44111609458923	0.10048794746398926
11	85.04120802879333	fix_pre	0		120	9.0	2.5	/experiments/AOT/AOT_stimuli/rescaled_final/1607_fw.mp4	0.0	106.54160404205322	0.9999821186065674
11	85.62469696998596	pulse	0	t		9.0	2.5	/experiments/AOT/AOT_stimuli/rescaled_final/1607_fw.mp4	0.0	107.12509298324585	
11	86.0411901473999	movie	1		247	9.0	2.5	/experiments/AOT/AOT_stimuli/rescaled_final/1607_fw.mp4	0.0	107.54158616065979	2.4998090267181396
11	87.22032713890076	pulse	1	t		9.0	2.5	/experiments/AOT/AOT_stimuli/rescaled_final/1607_fw.mp4	0.0	108.72072315216064	
11	88.54099917411804	fix_post	2		12	9.0	2.5	/experiments/AOT/AOT_stimuli/rescaled_final/1607_fw.mp4	0.0	110.04139518737793	0.10005998611450195
12	88.64105916023254	fix_pre	0		120	10.0	2.5	/experiments/AOT/AOT_stimuli/rescaled_final/1539_rv.mp4	0.0	110.14145517349243	1.0000529289245605
12	88.82467198371887	pulse	0	t		10.0	2.5	/experiments/AOT/AOT_stimuli/rescaled_final/1539_rv.mp4	0.0	110.32506799697876	
12	89.6411120891571	movie	1		243	10.0	2.5	/experiments/AOT/AOT_stimuli/rescaled_final/1539_rv.mp4	0.0	111.14150810241699	2.500164031982422
12	90.42477416992188	pulse	1	t		10.0	2.5	/experiments/AOT/AOT_stimuli/rescaled_final/1539_rv.mp4	0.0	111.92517018318176	
12	92.02327299118042	pulse	1	t		10.0	2.5	/experiments/AOT/AOT_stimuli/rescaled_final/1539_rv.mp4	0.0	113.52366900444031	
12	92.14127612113953	fix_post	2		12	10.0	2.5	/experiments/AOT/AOT_stimuli/rescaled_final/1539_rv.mp4	0.0	113.64167213439941	0.09983706474304199
13	92.24111318588257	fix_pre	0		120	11.0	2.5	/experiments/AOT/AOT_stimuli/rescaled_final/0503_rv.mp4	0.0	113.74150919914246	1.0000388622283936
13	93.24115204811096	movie	1		244	11.0	2.5	/experiments/AOT/AOT_stimuli/rescaled_final/0503_rv.mp4	0.0	114.74154806137085	2.4999070167541504
13	93.62434220314026	pulse	1	t		11.0	2.5	/experiments/AOT/AOT_stimuli/rescaled_final/0503_rv.mp4	0.0	115.12473821640015	
13	95.22462511062622	pulse	1	t		11.0	2.5	/experiments/AOT/AOT_stimuli/rescaled_final/0503_rv.mp4	0.0	116.72502112388611	
13	95.74105906486511	fix_post	2		12	11.0	2.5	/experiments/AOT/AOT_stimuli/rescaled_final/0503_rv.mp4	0.0	117.241455078125	0.09993600845336914
14	95.84099507331848	fix_pre	0		119	12.0	2.5	/experiments/AOT/AOT_stimuli/rescaled_final/0325_rv.mp4	0.0	117.34139108657837	0.9918200969696045
14	96.82468104362488	pulse	0	t		12.0	2.5	/experiments/AOT/AOT_stimuli/rescaled_final/0325_rv.mp4	0.0	118.32507705688477	
14	96.83281517028809	movie	1		245	12.0	2.5	/experiments/AOT/AOT_stimuli/rescaled_final/0325_rv.mp4	0.0	118.33321118354797	2.5078399181365967
14	98.42586708068848	pulse	1	t		12.0	2.5	/experiments/AOT/AOT_stimuli/rescaled_final/0325_rv.mp4	0.0	119.92626309394836	
14	99.34065508842468	fix_post	2		12	12.0	2.5	/experiments/AOT/AOT_stimuli/rescaled_final/0325_rv.mp4	0.0	120.84105110168457	0.10030698776245117
15	99.44096207618713	fix_pre	0		120	13.0	2.5	/experiments/AOT/AOT_stimuli/rescaled_final/0831_rv.mp4	0.0	120.94135808944702	1.0001630783081055
15	100.0246171951294	pulse	0	t		13.0	2.5	/experiments/AOT/AOT_stimuli/rescaled_final/0831_rv.mp4	0.0	121.52501320838928	
15	100.44112515449524	movie	1		244	13.0	2.5	/experiments/AOT/AOT_stimuli/rescaled_final/0831_rv.mp4	0.0	121.94152116775513	2.4996838569641113
15	101.62415218353271	pulse	1	t		13.0	2.5	/experiments/AOT/AOT_stimuli/rescaled_final/0831_rv.mp4	0.0	123.1245481967926	
15	102.94080901145935	fix_post	2		12	13.0	2.5	/experiments/AOT/AOT_stimuli/rescaled_final/0831_rv.mp4	0.0	124.44120502471924	0.09984207153320312
16	103.04065108299255	fix_pre	0		120	14.0	2.5	blank	1.0	124.54104709625244	1.0002639293670654
16	103.22422409057617	pulse	0	t		14.0	2.5	blank	1.0	124.72462010383606	
16	104.04091501235962	movie	1		300	14.0	2.5	blank	1.0	125.5413110256195	2.499699115753174
16	104.82491397857666	pulse	1	t		14.0	2.5	blank	1.0	126.32530999183655	
16	106.42454600334167	pulse	1	t		14.0	2.5	blank	1.0	127.92494201660156	
16	106.5406141281128	fix_post	2		12	14.0	2.5	blank	1.0	128.04101014137268	0.10042405128479004
17	106.64103817939758	fix_pre	0		120	15.0	2.5	/experiments/AOT/AOT_stimuli/rescaled_final/1187_rv.mp4	0.0	128.14143419265747	0.9999959468841553
17	107.64103412628174	movie	1		245	15.0	2.5	/experiments/AOT/AOT_stimuli/rescaled_final/1187_rv.mp4	0.0	129.14143013954163	2.4995028972625732
17	108.02423214912415	pulse	1	t		15.0	2.5	/experiments/AOT/AOT_stimuli/rescaled_final/1187_rv.mp4	0.0	129.52462816238403	
17	109.62453413009644	pulse	1	t		15.0	2.5	/experiments/AOT/AOT_stimuli/rescaled_final/1187_rv.mp4	0.0	131.12493014335632	
17	110.14053702354431	fix_post	2		12	15.0	2.5	/experiments/AOT/AOT_stimuli/rescaled_final/1187_rv.mp4	0.0	131.6409330368042	0.10004997253417969
18	110.24058699607849	fix_pre	0		119	16.0	2.5	/experiments/AOT/AOT_stimuli/rescaled_final/2046_fw.mp4	0.0	131.74098300933838	0.9921300411224365
18	111.22446417808533	pulse	0	t		16.0	2.5	/experiments/AOT/AOT_stimuli/rescaled_final/2046_fw.mp4	0.0	132.72486019134521	
18	111.23271703720093	movie	1		245	16.0	2.5	/experiments/AOT/AOT_stimuli/rescaled_final/2046_fw.mp4	0.0	132.73311305046082	2.507866144180298
18	112.82407712936401	pulse	1	t		16.0	2.5	/experiments/AOT/AOT_stimuli/rescaled_final/2046_fw.mp4	0.0	134.3244731426239	
18	113.74058318138123	fix_post	2		12	16.0	2.5	/experiments/AOT/AOT_stimuli/rescaled_final/2046_fw.mp4	0.0	135.2409791946411	0.10045194625854492
19	113.84103512763977	fix_pre	0		120	17.0	2.5	/experiments/AOT/AOT_stimuli/rescaled_final/1405_fw.mp4	0.0	135.34143114089966	1.0000438690185547
19	114.42467212677002	pulse	0	t		17.0	2.5	/experiments/AOT/AOT_stimuli/rescaled_final/1405_fw.mp4	0.0	135.9250681400299	
19	114.84107899665833	movie	1		245	17.0	2.5	/experiments/AOT/AOT_stimuli/rescaled_final/1405_fw.mp4	0.0	136.3414750099182	2.499912977218628
19	116.02450704574585	pulse	1	t		17.0	2.5	/experiments/AOT/AOT_stimuli/rescaled_final/1405_fw.mp4	0.0	137.52490305900574	
19	117.34099197387695	fix_post	2		12	17.0	2.5	/experiments/AOT/AOT_stimuli/rescaled_final/1405_fw.mp4	0.0	138.84138798713684	0.09987020492553711
20	117.44086217880249	fix_pre	0		120	18.0	2.5	/experiments/AOT/AOT_stimuli/rescaled_final/0156_fw.mp4	0.0	138.94125819206238	1.000166893005371
20	117.62440919876099	pulse	0	t		18.0	2.5	/experiments/AOT/AOT_stimuli/rescaled_final/0156_fw.mp4	0.0	139.12480521202087	
20	118.44102907180786	movie	1		244	18.0	2.5	/experiments/AOT/AOT_stimuli/rescaled_final/0156_fw.mp4	0.0	139.94142508506775	2.4999709129333496
20	119.2245090007782	pulse	1	t		18.0	2.5	/experiments/AOT/AOT_stimuli/rescaled_final/0156_fw.mp4	0.0	140.7249050140381	
20	120.82288312911987	pulse	1	t		18.0	2.5	/experiments/AOT/AOT_stimuli/rescaled_final/0156_fw.mp4	0.0	142.32327914237976	
20	120.94099998474121	fix_post	2		12	18.0	2.5	/experiments/AOT/AOT_stimuli/rescaled_final/0156_fw.mp4	0.0	142.4413959980011	0.09999418258666992
21	121.04099416732788	fix_pre	0		120	19.0	2.5	/experiments/AOT/AOT_stimuli/rescaled_final/1771_fw.mp4	0.0	142.54139018058777	0.9995908737182617
21	122.04058504104614	movie	1		244	19.0	2.5	/experiments/AOT/AOT_stimuli/rescaled_final/1771_fw.mp4	0.0	143.54098105430603	2.500339984893799
21	122.4240791797638	pulse	1	t		19.0	2.5	/experiments/AOT/AOT_stimuli/rescaled_final/1771_fw.mp4	0.0	143.92447519302368	
21	124.02437710762024	pulse	1	t		19.0	2.5	/experiments/AOT/AOT_stimuli/rescaled_final/1771_fw.mp4	0.0	145.52477312088013	
21	124.54092502593994	fix_post	2		12	19.0	2.5	/experiments/AOT/AOT_stimuli/rescaled_final/1771_fw.mp4	0.0	146.04132103919983	0.10004305839538574
22	124.64096808433533	fix_pre	0		119	20.0	2.5	/experiments/AOT/AOT_stimuli/rescaled_final/2107_rv.mp4	0.0	146.14136409759521	0.9915421009063721
22	125.62449502944946	pulse	0	t		20.0	2.5	/experiments/AOT/AOT_stimuli/rescaled_final/2107_rv.mp4	0.0	147.12489104270935	
22	125.6325101852417	movie	1		249	20.0	2.5	/experiments/AOT/AOT_stimuli/rescaled_final/2107_rv.mp4	0.0	147.1329061985016	2.5079429149627686
22	127.22415709495544	pulse	1	t		20.0	2.5	/experiments/AOT/AOT_stimuli/rescaled_final/2107_rv.mp4	0.0	148.72455310821533	
22	128.14045310020447	fix_post	2		12	20.0	2.5	/experiments/AOT/AOT_stimuli/rescaled_final/2107_rv.mp4	0.0	149.64084911346436	0.10046696662902832
23	128.2409200668335	fix_pre	0		120	21.0	2.5	blank	1.0	149.74131608009338	1.0000300407409668
23	128.82445096969604	pulse	0	t		21.0	2.5	blank	1.0	150.32484698295593	
23	129.24095010757446	movie	1		300	21.0	2.5	blank	1.0	150.74134612083435	2.4994590282440186
23	130.42436909675598	pulse	1	t		21.0	2.5	blank	1.0	151.92476511001587	
23	131.74040913581848	fix_post	2		12	21.0	2.5	blank	1.0	153.24080514907837	0.10048699378967285
24	131.84089612960815	fix_pre	0		120	22.0	2.5	/experiments/AOT/AOT_stimuli/rescaled_final/1944_rv.mp4	0.0	153.34129214286804	0.999992847442627
24	132.0244061946869	pulse	0	t		22.0	2.5	/experiments/AOT/AOT_stimuli/rescaled_final/1944_rv.mp4	0.0	153.52480220794678	
24	132.84088897705078	movie	1		247	22.0	2.5	/experiments/AOT/AOT_stimuli/rescaled_final/1944_rv.mp4	0.0	154.34128499031067	2.5000340938568115
24	133.62446904182434	pulse	1	t		22.0	2.5	/experiments/AOT/AOT_stimuli/rescaled_final/1944_rv.mp4	0.0	155.12486505508423	
24	135.22394800186157	pulse	1	t		22.0	2.5	/experiments/AOT/AOT_stimuli/rescaled_final/1944_rv.mp4	0.0	156.72434401512146	
24	135.3409230709076	fix_post	2		12	22.0	2.5	/experiments/AOT/AOT_stimuli/rescaled_final/1944_rv.mp4	0.0	156.84131908416748	0.10009312629699707
25	135.4410161972046	fix_pre	0		120	23.0	2.5	/experiments/AOT/AOT_stimuli/rescaled_final/0837_rv.mp4	0.0	156.94141221046448	0.9998259544372559
25	136.44084215164185	movie	1		244	23.0	2.5	/experiments/AOT/AOT_stimuli/rescaled_final/0837_rv.mp4	0.0	157.94123816490173	2.500046968460083
25	136.82417917251587	pulse	1	t		23.0	2.5	/experiments/AOT/AOT_stimuli/rescaled_final/0837_rv.mp4	0.0	158.32457518577576	
25	138.42439198493958	pulse	1	t		23.0	2.5	/experiments/AOT/AOT_stimuli/rescaled_final/0837_rv.mp4	0.0	159.92478799819946	
25	138.94088912010193	fix_post	2		12	23.0	2.5	/experiments/AOT/AOT_stimuli/rescaled_final/0837_rv.mp4	0.0	160.44128513336182	0.09995889663696289
26	139.0408480167389	fix_pre	0		119	24.0	2.5	/experiments/AOT/AOT_stimuli/rescaled_final/1672_rv.mp4	0.0	160.54124402999878	0.9916491508483887
26	140.02432799339294	pulse	0	t		24.0	2.5	/experiments/AOT/AOT_stimuli/rescaled_final/1672_rv.mp4	0.0	161.52472400665283	
26	140.03249716758728	movie	1		244	24.0	2.5	/experiments/AOT/AOT_stimuli/rescaled_final/1672_rv.mp4	0.0	161.53289318084717	2.507917881011963
26	141.62417316436768	pulse	1	t		24.0	2.5	/experiments/AOT/AOT_stimuli/rescaled_final/1672_rv.mp4	0.0	163.12456917762756	
26	142.54041504859924	fix_post	2		12	24.0	2.5	/experiments/AOT/AOT_stimuli/rescaled_final/1672_rv.mp4	0.0	164.04081106185913	0.10003113746643066
27	142.64044618606567	fix_pre	0		120	25.0	2.5	/experiments/AOT/AOT_stimuli/rescaled_final/1015_rv.mp4	0.0	164.14084219932556	1.0000228881835938
27	143.22426009178162	pulse	0	t		25.0	2.5	/experiments/AOT/AOT_stimuli/rescaled_final/1015_rv.mp4	0.0	164.7246561050415	
27	143.64046907424927	movie	1		245	25.0	2.5	/experiments/AOT/AOT_stimuli/rescaled_final/1015_rv.mp4	0.0	165.14086508750916	2.5003159046173096
27	144.82442712783813	pulse	1	t		25.0	2.5	/experiments/AOT/AOT_stimuli/rescaled_final/1015_rv.mp4	0.0	166.32482314109802	
27	146.14078497886658	fix_post	2		12	25.0	2.5	/experiments/AOT/AOT_stimuli/rescaled_final/1015_rv.mp4	0.0	167.64118099212646	0.09999203681945801
28	146.24077701568604	fix_pre	0		120	26.0	2.5	/experiments/AOT/AOT_stimuli/rescaled_final/1539_fw.mp4	0.0	167.74117302894592	0.9996600151062012
28	146.4242491722107	pulse	0	t		26.0	2.5	/experiments/AOT/AOT_stimuli/rescaled_final/1539_fw.mp4	0.0	167.92464518547058	
28	147.24043703079224	movie	1		244	26.0	2.5	/experiments/AOT/AOT_stimuli/rescaled_final/1539_fw.mp4	0.0	168.74083304405212	2.500338077545166
28	148.02433705329895	pulse	1	t		26.0	2.5	/experiments/AOT/AOT_stimuli/rescaled_final/1539_fw.mp4	0.0	169.52473306655884	
28	149.62264919281006	pulse	1	t		26.0	2.5	/experiments/AOT/AOT_stimuli/rescaled_final/1539_fw.mp4	0.0	171.12304520606995	
28	149.7407751083374	fix_post	2		12	26.0	2.5	/experiments/AOT/AOT_stimuli/rescaled_final/1539_fw.mp4	0.0	171.2411711215973	0.10012507438659668
29	149.840900182724	fix_pre	0		120	27.0	2.5	blank	1.0	171.3412961959839	0.9999117851257324
29	150.84081196784973	movie	1		300	27.0	2.5	blank	1.0	172.34120798110962	2.500030040740967
29	151.22433304786682	pulse	1	t		27.0	2.5	blank	1.0	172.7247290611267	
29	152.82421398162842	pulse	1	t		27.0	2.5	blank	1.0	174.3246099948883	
29	153.3408420085907	fix_post	2		12	27.0	2.5	blank	1.0	174.8412380218506	0.09999299049377441
30	153.44083499908447	fix_pre	0		119	28.0	2.5	/experiments/AOT/AOT_stimuli/rescaled_final/0274_rv.mp4	0.0	174.94123101234436	0.9915521144866943
30	154.42438006401062	pulse	0	t		28.0	2.5	/experiments/AOT/AOT_stimuli/rescaled_final/0274_rv.mp4	0.0	175.9247760772705	
30	154.43238711357117	movie	1		245	28.0	2.5	/experiments/AOT/AOT_stimuli/rescaled_final/0274_rv.mp4	0.0	175.93278312683105	2.5080249309539795
30	156.0241560935974	pulse	1	t		28.0	2.5	/experiments/AOT/AOT_stimuli/rescaled_final/0274_rv.mp4	0.0	177.5245521068573	
30	156.94041204452515	fix_post	2		12	28.0	2.5	/experiments/AOT/AOT_stimuli/rescaled_final/0274_rv.mp4	0.0	178.44080805778503	0.10044193267822266
31	157.04085397720337	fix_pre	0		120	29.0	2.5	/experiments/AOT/AOT_stimuli/rescaled_final/0182_fw.mp4	0.0	178.54124999046326	0.9999921321868896
31	157.6244101524353	pulse	0	t		29.0	2.5	/experiments/AOT/AOT_stimuli/rescaled_final/0182_fw.mp4	0.0	179.1248061656952	
31	158.04084610939026	movie	1		244	29.0	2.5	/experiments/AOT/AOT_stimuli/rescaled_final/0182_fw.mp4	0.0	179.54124212265015	2.499814987182617
31	159.22440218925476	pulse	1	t		29.0	2.5	/experiments/AOT/AOT_stimuli/rescaled_final/0182_fw.mp4	0.0	180.72479820251465	
31	160.54066109657288	fix_post	2		12	29.0	2.5	/experiments/AOT/AOT_stimuli/rescaled_final/0182_fw.mp4	0.0	182.04105710983276	0.10049104690551758
32	160.6411521434784	fix_pre	0		120	30.0	2.5	/experiments/AOT/AOT_stimuli/rescaled_final/0299_fw.mp4	0.0	182.14154815673828	0.9992179870605469
32	160.82418012619019	pulse	0	t		30.0	2.5	/experiments/AOT/AOT_stimuli/rescaled_final/0299_fw.mp4	0.0	182.32457613945007	
32	161.64037013053894	movie	1		245	30.0	2.5	/experiments/AOT/AOT_stimuli/rescaled_final/0299_fw.mp4	0.0	183.14076614379883	2.500380039215088
32	162.42420315742493	pulse	1	t		30.0	2.5	/experiments/AOT/AOT_stimuli/rescaled_final/0299_fw.mp4	0.0	183.92459917068481	
32	164.020339012146	pulse	1	t		30.0	2.5	/experiments/AOT/AOT_stimuli/rescaled_final/0299_fw.mp4	0.0	185.52073502540588	
32	164.14075016975403	fix_post	2		12	30.0	2.5	/experiments/AOT/AOT_stimuli/rescaled_final/0299_fw.mp4	0.0	185.64114618301392	0.09953594207763672
33	164.24028611183167	fix_pre	0		120	31.0	2.5	/experiments/AOT/AOT_stimuli/rescaled_final/0626_fw.mp4	0.0	185.74068212509155	1.000014066696167
33	165.24030017852783	movie	1		245	31.0	2.5	/experiments/AOT/AOT_stimuli/rescaled_final/0626_fw.mp4	0.0	186.74069619178772	2.5004429817199707
33	165.62444710731506	pulse	1	t		31.0	2.5	/experiments/AOT/AOT_stimuli/rescaled_final/0626_fw.mp4	0.0	187.12484312057495	
33	167.22414708137512	pulse	1	t		31.0	2.5	/experiments/AOT/AOT_stimuli/rescaled_final/0626_fw.mp4	0.0	188.724543094635	
33	167.7407431602478	fix_post	2		12	31.0	2.5	/experiments/AOT/AOT_stimuli/rescaled_final/0626_fw.mp4	0.0	189.2411391735077	0.09955191612243652
34	167.84029507637024	fix_pre	0		119	32.0	2.5	/experiments/AOT/AOT_stimuli/rescaled_final/1601_rv.mp4	0.0	189.34069108963013	0.9920639991760254
34	168.82419610023499	pulse	0	t		32.0	2.5	/experiments/AOT/AOT_stimuli/rescaled_final/1601_rv.mp4	0.0	190.32459211349487	
34	168.83235907554626	movie	1		245	32.0	2.5	/experiments/AOT/AOT_stimuli/rescaled_final/1601_rv.mp4	0.0	190.33275508880615	2.508402109146118
34	170.42367815971375	pulse	1	t		32.0	2.5	/experiments/AOT/AOT_stimuli/rescaled_final/1601_rv.mp4	0.0	191.92407417297363	
34	171.34076118469238	fix_post	2		12	32.0	2.5	/experiments/AOT/AOT_stimuli/rescaled_final/1601_rv.mp4	0.0	192.84115719795227	0.09991097450256348
35	171.44067215919495	fix_pre	0		120	33.0	2.5	blank	1.0	192.94106817245483	0.9999589920043945
35	172.02416801452637	pulse	0	t		33.0	2.5	blank	1.0	193.52456402778625	
35	172.44063115119934	movie	1		300	33.0	2.5	blank	1.0	193.94102716445923	2.500011920928955
35	173.62429404258728	pulse	1	t		33.0	2.5	blank	1.0	195.12469005584717	
35	174.9406430721283	fix_post	2		12	33.0	2.5	blank	1.0	196.44103908538818	0.0999901294708252
36	175.04063320159912	fix_pre	0		120	34.0	2.5	/experiments/AOT/AOT_stimuli/rescaled_final/0847_fw.mp4	0.0	196.541029214859	1.0000238418579102
36	175.22412419319153	pulse	0	t		34.0	2.5	/experiments/AOT/AOT_stimuli/rescaled_final/0847_fw.mp4	0.0	196.72452020645142	
36	176.04065704345703	movie	1		245	34.0	2.5	/experiments/AOT/AOT_stimuli/rescaled_final/0847_fw.mp4	0.0	197.54105305671692	2.5000200271606445
36	176.82419514656067	pulse	1	t		34.0	2.5	/experiments/AOT/AOT_stimuli/rescaled_final/0847_fw.mp4	0.0	198.32459115982056	
36	178.4226369857788	pulse	1	t		34.0	2.5	/experiments/AOT/AOT_stimuli/rescaled_final/0847_fw.mp4	0.0	199.9230329990387	
36	178.54067707061768	fix_post	2		12	34.0	2.5	/experiments/AOT/AOT_stimuli/rescaled_final/0847_fw.mp4	0.0	200.04107308387756	0.09997391700744629
37	178.64065098762512	fix_pre	0		120	35.0	2.5	/experiments/AOT/AOT_stimuli/rescaled_final/1385_fw.mp4	0.0	200.141047000885	1.0001201629638672
37	179.640771150589	movie	1		246	35.0	2.5	/experiments/AOT/AOT_stimuli/rescaled_final/1385_fw.mp4	0.0	201.14116716384888	2.499910831451416
37	180.02392315864563	pulse	1	t		35.0	2.5	/experiments/AOT/AOT_stimuli/rescaled_final/1385_fw.mp4	0.0	201.52431917190552	
37	181.6241750717163	pulse	1	t		35.0	2.5	/experiments/AOT/AOT_stimuli/rescaled_final/1385_fw.mp4	0.0	203.1245710849762	
37	182.1406819820404	fix_post	2		12	35.0	2.5	/experiments/AOT/AOT_stimuli/rescaled_final/1385_fw.mp4	0.0	203.6410779953003	0.09993100166320801
38	182.2406129837036	fix_pre	0		119	36.0	2.5	/experiments/AOT/AOT_stimuli/rescaled_final/2011_rv.mp4	0.0	203.7410089969635	0.9916660785675049
38	183.22410798072815	pulse	0	t		36.0	2.5	/experiments/AOT/AOT_stimuli/rescaled_final/2011_rv.mp4	0.0	204.72450399398804	
38	183.23227906227112	movie	1		246	36.0	2.5	/experiments/AOT/AOT_stimuli/rescaled_final/2011_rv.mp4	0.0	204.732675075531	2.5082879066467285
38	184.82509207725525	pulse	1	t		36.0	2.5	/experiments/AOT/AOT_stimuli/rescaled_final/2011_rv.mp4	0.0	206.32548809051514	
38	185.74056696891785	fix_post	2		12	36.0	2.5	/experiments/AOT/AOT_stimuli/rescaled_final/2011_rv.mp4	0.0	207.24096298217773	0.09995102882385254
39	185.8405179977417	fix_pre	0		120	37.0	2.5	/experiments/AOT/AOT_stimuli/rescaled_final/0089_rv.mp4	0.0	207.3409140110016	1.0001211166381836
39	186.42403101921082	pulse	0	t		37.0	2.5	/experiments/AOT/AOT_stimuli/rescaled_final/0089_rv.mp4	0.0	207.9244270324707	
39	186.84063911437988	movie	1		244	37.0	2.5	/experiments/AOT/AOT_stimuli/rescaled_final/0089_rv.mp4	0.0	208.34103512763977	2.499988079071045
39	188.02410507202148	pulse	1	t		37.0	2.5	/experiments/AOT/AOT_stimuli/rescaled_final/0089_rv.mp4	0.0	209.52450108528137	
39	189.34062719345093	fix_post	2		12	37.0	2.5	/experiments/AOT/AOT_stimuli/rescaled_final/0089_rv.mp4	0.0	210.84102320671082	0.09996485710144043
40	189.44059205055237	fix_pre	0		120	38.0	2.5	/experiments/AOT/AOT_stimuli/rescaled_final/0443_fw.mp4	0.0	210.94098806381226	0.999596118927002
40	189.6240119934082	pulse	0	t		38.0	2.5	/experiments/AOT/AOT_stimuli/rescaled_final/0443_fw.mp4	0.0	211.1244080066681	
40	190.44018816947937	movie	1		246	38.0	2.5	/experiments/AOT/AOT_stimuli/rescaled_final/0443_fw.mp4	0.0	211.94058418273926	2.500349998474121
40	191.22412514686584	pulse	1	t		38.0	2.5	/experiments/AOT/AOT_stimuli/rescaled_final/0443_fw.mp4	0.0	212.72452116012573	
40	192.82376313209534	pulse	1	t		38.0	2.5	/experiments/AOT/AOT_stimuli/rescaled_final/0443_fw.mp4	0.0	214.32415914535522	
40	192.9405381679535	fix_post	2		12	38.0	2.5	/experiments/AOT/AOT_stimuli/rescaled_final/0443_fw.mp4	0.0	214.44093418121338	0.10002684593200684
41	193.0405650138855	fix_pre	0		120	39.0	2.5	/experiments/AOT/AOT_stimuli/rescaled_final/0312_rv.mp4	0.0	214.54096102714539	0.9999880790710449
41	194.04055309295654	movie	1		244	39.0	2.5	/experiments/AOT/AOT_stimuli/rescaled_final/0312_rv.mp4	0.0	215.54094910621643	2.4999449253082275
41	194.42397809028625	pulse	1	t		39.0	2.5	/experiments/AOT/AOT_stimuli/rescaled_final/0312_rv.mp4	0.0	215.92437410354614	
41	196.02409720420837	pulse	1	t		39.0	2.5	/experiments/AOT/AOT_stimuli/rescaled_final/0312_rv.mp4	0.0	217.52449321746826	
41	196.54049801826477	fix_post	2		12	39.0	2.5	/experiments/AOT/AOT_stimuli/rescaled_final/0312_rv.mp4	0.0	218.04089403152466	0.10004901885986328
42	196.64054703712463	fix_pre	0		119	40.0	2.5	/experiments/AOT/AOT_stimuli/rescaled_final/1346_fw.mp4	0.0	218.14094305038452	0.9917919635772705
42	197.62410306930542	pulse	0	t		40.0	2.5	/experiments/AOT/AOT_stimuli/rescaled_final/1346_fw.mp4	0.0	219.1244990825653	
42	197.6323390007019	movie	1		247	40.0	2.5	/experiments/AOT/AOT_stimuli/rescaled_final/1346_fw.mp4	0.0	219.1327350139618	2.5078980922698975
42	199.22518610954285	pulse	1	t		40.0	2.5	/experiments/AOT/AOT_stimuli/rescaled_final/1346_fw.mp4	0.0	220.72558212280273	
42	200.1402370929718	fix_post	2		12	40.0	2.5	/experiments/AOT/AOT_stimuli/rescaled_final/1346_fw.mp4	0.0	221.6406331062317	0.09993600845336914
43	200.24017310142517	fix_pre	0		120	41.0	2.5	blank	1.0	221.74056911468506	0.9998860359191895
43	200.82399916648865	pulse	0	t		41.0	2.5	blank	1.0	222.32439517974854	
43	201.24005913734436	movie	1		300	41.0	2.5	blank	1.0	222.74045515060425	2.5004899501800537
43	202.42409706115723	pulse	1	t		41.0	2.5	blank	1.0	223.92449307441711	
43	203.7405490875244	fix_post	2		12	41.0	2.5	blank	1.0	225.2409451007843	0.09995293617248535
44	203.8405020236969	fix_pre	0		120	42.0	2.5	/experiments/AOT/AOT_stimuli/rescaled_final/0682_rv.mp4	0.0	225.3408980369568	0.9995479583740234
44	204.02407503128052	pulse	0	t		42.0	2.5	/experiments/AOT/AOT_stimuli/rescaled_final/0682_rv.mp4	0.0	225.5244710445404	
44	204.84004998207092	movie	1		245	42.0	2.5	/experiments/AOT/AOT_stimuli/rescaled_final/0682_rv.mp4	0.0	226.3404459953308	2.5004451274871826
44	205.6240999698639	pulse	1	t		42.0	2.5	/experiments/AOT/AOT_stimuli/rescaled_final/0682_rv.mp4	0.0	227.12449598312378	
44	207.22355008125305	pulse	1	t		42.0	2.5	/experiments/AOT/AOT_stimuli/rescaled_final/0682_rv.mp4	0.0	228.72394609451294	
44	207.3404951095581	fix_post	2		12	42.0	2.5	/experiments/AOT/AOT_stimuli/rescaled_final/0682_rv.mp4	0.0	228.840891122818	0.09954094886779785
45	207.4400360584259	fix_pre	0		120	43.0	2.5	/experiments/AOT/AOT_stimuli/rescaled_final/1144_fw.mp4	0.0	228.9404320716858	1.0006000995635986
45	208.4406361579895	movie	1		244	43.0	2.5	/experiments/AOT/AOT_stimuli/rescaled_final/1144_fw.mp4	0.0	229.9410321712494	2.499868869781494
45	208.8236210346222	pulse	1	t		43.0	2.5	/experiments/AOT/AOT_stimuli/rescaled_final/1144_fw.mp4	0.0	230.32401704788208	
45	210.42400598526	pulse	1	t		43.0	2.5	/experiments/AOT/AOT_stimuli/rescaled_final/1144_fw.mp4	0.0	231.9244019985199	
45	210.940505027771	fix_post	2		12	43.0	2.5	/experiments/AOT/AOT_stimuli/rescaled_final/1144_fw.mp4	0.0	232.44090104103088	0.09956216812133789
46	211.04006719589233	fix_pre	0		119	44.0	2.5	/experiments/AOT/AOT_stimuli/rescaled_final/0121_fw.mp4	0.0	232.54046320915222	0.9921598434448242
46	212.02407908439636	pulse	0	t		44.0	2.5	/experiments/AOT/AOT_stimuli/rescaled_final/0121_fw.mp4	0.0	233.52447509765625	
46	212.03222703933716	movie	1		246	44.0	2.5	/experiments/AOT/AOT_stimuli/rescaled_final/0121_fw.mp4	0.0	233.53262305259705	2.5080511569976807
46	213.62339210510254	pulse	1	t		44.0	2.5	/experiments/AOT/AOT_stimuli/rescaled_final/0121_fw.mp4	0.0	235.12378811836243	
46	214.54027819633484	fix_post	2		12	44.0	2.5	/experiments/AOT/AOT_stimuli/rescaled_final/0121_fw.mp4	0.0	236.04067420959473	0.0999147891998291
47	214.64019298553467	fix_pre	0		120	45.0	2.5	/experiments/AOT/AOT_stimuli/rescaled_final/0537_rv.mp4	0.0	236.14058899879456	1.0001552104949951
47	215.22411799430847	pulse	0	t		45.0	2.5	/experiments/AOT/AOT_stimuli/rescaled_final/0537_rv.mp4	0.0	236.72451400756836	
47	215.64034819602966	movie	1		245	45.0	2.5	/experiments/AOT/AOT_stimuli/rescaled_final/0537_rv.mp4	0.0	237.14074420928955	2.499720811843872
47	216.82394909858704	pulse	1	t		45.0	2.5	/experiments/AOT/AOT_stimuli/rescaled_final/0537_rv.mp4	0.0	238.32434511184692	
47	218.14006900787354	fix_post	2		12	45.0	2.5	/experiments/AOT/AOT_stimuli/rescaled_final/0537_rv.mp4	0.0	239.64046502113342	0.10045313835144043
48	218.24052214622498	fix_pre	0		120	46.0	2.5	/experiments/AOT/AOT_stimuli/rescaled_final/2011_fw.mp4	0.0	239.74091815948486	0.9998898506164551
48	218.4239912033081	pulse	0	t		46.0	2.5	/experiments/AOT/AOT_stimuli/rescaled_final/2011_fw.mp4	0.0	239.924387216568	
48	219.24041199684143	movie	1		249	46.0	2.5	/experiments/AOT/AOT_stimuli/rescaled_final/2011_fw.mp4	0.0	240.74080801010132	2.499969005584717
48	220.02390098571777	pulse	1	t		46.0	2.5	/experiments/AOT/AOT_stimuli/rescaled_final/2011_fw.mp4	0.0	241.52429699897766	
48	221.62354707717896	pulse	1	t		46.0	2.5	/experiments/AOT/AOT_stimuli/rescaled_final/2011_fw.mp4	0.0	243.12394309043884	
48	221.74038100242615	fix_post	2		12	46.0	2.5	/experiments/AOT/AOT_stimuli/rescaled_final/2011_fw.mp4	0.0	243.24077701568604	0.1000220775604248
49	221.84040307998657	fix_pre	0		120	47.0	2.5	blank	1.0	243.34079909324646	1.0000479221343994
49	222.84045100212097	movie	1		300	47.0	2.5	blank	1.0	244.34084701538086	2.499955177307129
49	223.22391605377197	pulse	1	t		47.0	2.5	blank	1.0	244.72431206703186	
49	224.82394003868103	pulse	1	t		47.0	2.5	blank	1.0	246.32433605194092	
49	225.3404061794281	fix_post	2		12	47.0	2.5	blank	1.0	246.840802192688	0.09993290901184082
50	225.44033908843994	fix_pre	0		119	48.0	2.5	/experiments/AOT/AOT_stimuli/rescaled_final/1010_rv.mp4	0.0	246.94073510169983	0.9917159080505371
50	226.4239251613617	pulse	0	t		48.0	2.5	/experiments/AOT/AOT_stimuli/rescaled_final/1010_rv.mp4	0.0	247.92432117462158	
50	226.43205499649048	movie	1		245	48.0	2.5	/experiments/AOT/AOT_stimuli/rescaled_final/1010_rv.mp4	0.0	247.93245100975037	2.5079801082611084
50	228.02337098121643	pulse	1	t		48.0	2.5	/experiments/AOT/AOT_stimuli/rescaled_final/1010_rv.mp4	0.0	249.52376699447632	
50	228.9400351047516	fix_post	2		12	48.0	2.5	/experiments/AOT/AOT_stimuli/rescaled_final/1010_rv.mp4	0.0	250.44043111801147	0.10036301612854004
51	229.04039812088013	fix_pre	0		120	49.0	2.5	/experiments/AOT/AOT_stimuli/rescaled_final/1297_rv.mp4	0.0	250.54079413414001	0.9999229907989502
51	229.62389206886292	pulse	0	t		49.0	2.5	/experiments/AOT/AOT_stimuli/rescaled_final/1297_rv.mp4	0.0	251.1242880821228	
51	230.04032111167908	movie	1		242	49.0	2.5	/experiments/AOT/AOT_stimuli/rescaled_final/1297_rv.mp4	0.0	251.54071712493896	2.500053882598877
51	231.2239851951599	pulse	1	t		49.0	2.5	/experiments/AOT/AOT_stimuli/rescaled_final/1297_rv.mp4	0.0	252.7243812084198	
51	232.54037499427795	fix_post	2		12	49.0	2.5	/experiments/AOT/AOT_stimuli/rescaled_final/1297_rv.mp4	0.0	254.04077100753784	0.09993100166320801
52	232.64030599594116	fix_pre	0		120	50.0	2.5	/experiments/AOT/AOT_stimuli/rescaled_final/1831_rv.mp4	0.0	254.14070200920105	1.000157117843628
52	232.82390213012695	pulse	0	t		50.0	2.5	/experiments/AOT/AOT_stimuli/rescaled_final/1831_rv.mp4	0.0	254.32429814338684	
52	233.6404631137848	movie	1		243	50.0	2.5	/experiments/AOT/AOT_stimuli/rescaled_final/1831_rv.mp4	0.0	255.14085912704468	2.4998788833618164
52	234.42385911941528	pulse	1	t		50.0	2.5	/experiments/AOT/AOT_stimuli/rescaled_final/1831_rv.mp4	0.0	255.92425513267517	
52	236.0221290588379	pulse	1	t		50.0	2.5	/experiments/AOT/AOT_stimuli/rescaled_final/1831_rv.mp4	0.0	257.5225250720978	
52	236.1403419971466	fix_post	2		12	50.0	2.5	/experiments/AOT/AOT_stimuli/rescaled_final/1831_rv.mp4	0.0	257.6407380104065	0.09991812705993652
53	236.24026012420654	fix_pre	0		120	51.0	2.5	/experiments/AOT/AOT_stimuli/rescaled_final/1114_fw.mp4	0.0	257.74065613746643	0.9996938705444336
53	237.23995399475098	movie	1		244	51.0	2.5	/experiments/AOT/AOT_stimuli/rescaled_final/1114_fw.mp4	0.0	258.74035000801086	2.500383138656616
53	237.62380409240723	pulse	1	t		51.0	2.5	/experiments/AOT/AOT_stimuli/rescaled_final/1114_fw.mp4	0.0	259.1242001056671	
53	239.22381901741028	pulse	1	t		51.0	2.5	/experiments/AOT/AOT_stimuli/rescaled_final/1114_fw.mp4	0.0	260.72421503067017	
53	239.7403371334076	fix_post	2		12	51.0	2.5	/experiments/AOT/AOT_stimuli/rescaled_final/1114_fw.mp4	0.0	261.2407331466675	0.1000058650970459
54	239.84034299850464	fix_pre	0		119	52.0	2.5	/experiments/AOT/AOT_stimuli/rescaled_final/0039_rv.mp4	0.0	261.3407390117645	0.9915881156921387
54	240.82387900352478	pulse	0	t		52.0	2.5	/experiments/AOT/AOT_stimuli/rescaled_final/0039_rv.mp4	0.0	262.32427501678467	
54	240.83193111419678	movie	1		247	52.0	2.5	/experiments/AOT/AOT_stimuli/rescaled_final/0039_rv.mp4	0.0	262.33232712745667	2.5083799362182617
54	242.42389798164368	pulse	1	t		52.0	2.5	/experiments/AOT/AOT_stimuli/rescaled_final/0039_rv.mp4	0.0	263.92429399490356	
54	243.34031105041504	fix_post	2		12	52.0	2.5	/experiments/AOT/AOT_stimuli/rescaled_final/0039_rv.mp4	0.0	264.8407070636749	0.09964108467102051
55	243.43995213508606	fix_pre	0		120	53.0	2.5	/experiments/AOT/AOT_stimuli/rescaled_final/1364_fw.mp4	0.0	264.94034814834595	0.9999599456787109
55	244.02397298812866	pulse	0	t		53.0	2.5	/experiments/AOT/AOT_stimuli/rescaled_final/1364_fw.mp4	0.0	265.52436900138855	
55	244.43991208076477	movie	1		247	53.0	2.5	/experiments/AOT/AOT_stimuli/rescaled_final/1364_fw.mp4	0.0	265.94030809402466	2.5003840923309326
55	245.6239311695099	pulse	1	t		53.0	2.5	/experiments/AOT/AOT_stimuli/rescaled_final/1364_fw.mp4	0.0	267.1243271827698	
55	246.9402961730957	fix_post	2		12	53.0	2.5	/experiments/AOT/AOT_stimuli/rescaled_final/1364_fw.mp4	0.0	268.4406921863556	0.09999585151672363
56	247.04029202461243	fix_pre	0		120	54.0	2.5	/experiments/AOT/AOT_stimuli/rescaled_final/1601_fw.mp4	0.0	268.5406880378723	0.9996509552001953
56	247.22383499145508	pulse	0	t		54.0	2.5	/experiments/AOT/AOT_stimuli/rescaled_final/1601_fw.mp4	0.0	268.72423100471497	
56	248.03994297981262	movie	1		243	54.0	2.5	/experiments/AOT/AOT_stimuli/rescaled_final/1601_fw.mp4	0.0	269.5403389930725	2.5000171661376953
56	248.82374811172485	pulse	1	t		54.0	2.5	/experiments/AOT/AOT_stimuli/rescaled_final/1601_fw.mp4	0.0	270.32414412498474	
56	250.42273712158203	pulse	1	t		54.0	2.5	/experiments/AOT/AOT_stimuli/rescaled_final/1601_fw.mp4	0.0	271.9231331348419	
56	250.53996014595032	fix_post	2		12	54.0	2.5	/experiments/AOT/AOT_stimuli/rescaled_final/1601_fw.mp4	0.0	272.0403561592102	0.10035300254821777
57	250.64031314849854	fix_pre	0		120	55.0	2.5	/experiments/AOT/AOT_stimuli/rescaled_final/0004_rv.mp4	0.0	272.1407091617584	0.9999508857727051
57	251.64026403427124	movie	1		243	55.0	2.5	/experiments/AOT/AOT_stimuli/rescaled_final/0004_rv.mp4	0.0	273.1406600475311	2.499997138977051
57	252.02388310432434	pulse	1	t		55.0	2.5	/experiments/AOT/AOT_stimuli/rescaled_final/0004_rv.mp4	0.0	273.52427911758423	
57	253.623841047287	pulse	1	t		55.0	2.5	/experiments/AOT/AOT_stimuli/rescaled_final/0004_rv.mp4	0.0	275.1242370605469	
57	254.1402611732483	fix_post	2		12	55.0	2.5	/experiments/AOT/AOT_stimuli/rescaled_final/0004_rv.mp4	0.0	275.6406571865082	0.10003280639648438
58	254.24029397964478	fix_pre	0		119	56.0	2.5	blank	1.0	275.74068999290466	0.9917190074920654
58	255.22377920150757	pulse	0	t		56.0	2.5	blank	1.0	276.72417521476746	
58	255.23201298713684	movie	1		301	56.0	2.5	blank	1.0	276.73240900039673	2.5082340240478516
58	256.82382011413574	pulse	1	t		56.0	2.5	blank	1.0	278.32421612739563	
58	257.7402470111847	fix_post	2		12	56.0	2.5	blank	1.0	279.2406430244446	0.09991717338562012
59	257.8401641845703	fix_pre	0		120	57.0	2.5	/experiments/AOT/AOT_stimuli/rescaled_final/0964_rv.mp4	0.0	279.3405601978302	1.0002079010009766
59	258.42384004592896	pulse	0	t		57.0	2.5	/experiments/AOT/AOT_stimuli/rescaled_final/0964_rv.mp4	0.0	279.92423605918884	
59	258.8403720855713	movie	1		243	57.0	2.5	/experiments/AOT/AOT_stimuli/rescaled_final/0964_rv.mp4	0.0	280.3407680988312	2.499876022338867
59	260.0238380432129	pulse	1	t		57.0	2.5	/experiments/AOT/AOT_stimuli/rescaled_final/0964_rv.mp4	0.0	281.5242340564728	
59	261.34024810791016	fix_post	2		12	57.0	2.5	/experiments/AOT/AOT_stimuli/rescaled_final/0964_rv.mp4	0.0	282.84064412117004	0.10011601448059082
60	261.44036412239075	fix_pre	0		120	58.0	2.5	/experiments/AOT/AOT_stimuli/rescaled_final/0887_rv.mp4	0.0	282.94076013565063	0.9998490810394287
60	261.6238350868225	pulse	0	t		58.0	2.5	/experiments/AOT/AOT_stimuli/rescaled_final/0887_rv.mp4	0.0	283.1242311000824	
60	262.4402132034302	movie	1		243	58.0	2.5	/experiments/AOT/AOT_stimuli/rescaled_final/0887_rv.mp4	0.0	283.94060921669006	2.499926805496216
60	263.2237620353699	pulse	1	t		58.0	2.5	/experiments/AOT/AOT_stimuli/rescaled_final/0887_rv.mp4	0.0	284.72415804862976	
60	264.8223240375519	pulse	1	t		58.0	2.5	/experiments/AOT/AOT_stimuli/rescaled_final/0887_rv.mp4	0.0	286.32272005081177	
60	264.9401400089264	fix_post	2		12	58.0	2.5	/experiments/AOT/AOT_stimuli/rescaled_final/0887_rv.mp4	0.0	286.4405360221863	0.10013818740844727
61	265.04027819633484	fix_pre	0		120	59.0	2.5	/experiments/AOT/AOT_stimuli/rescaled_final/0695_rv.mp4	0.0	286.5406742095947	0.9999837875366211
61	266.04026198387146	movie	1		245	59.0	2.5	/experiments/AOT/AOT_stimuli/rescaled_final/0695_rv.mp4	0.0	287.54065799713135	2.50004506111145
61	266.42339611053467	pulse	1	t		59.0	2.5	/experiments/AOT/AOT_stimuli/rescaled_final/0695_rv.mp4	0.0	287.92379212379456	
61	268.0236940383911	pulse	1	t		59.0	2.5	/experiments/AOT/AOT_stimuli/rescaled_final/0695_rv.mp4	0.0	289.524090051651	
61	268.5403070449829	fix_post	2		12	59.0	2.5	/experiments/AOT/AOT_stimuli/rescaled_final/0695_rv.mp4	0.0	290.0407030582428	0.09992098808288574
62	268.6402280330658	fix_pre	0		119	60.0	2.5	/experiments/AOT/AOT_stimuli/rescaled_final/0332_rv.mp4	0.0	290.1406240463257	0.9912929534912109
62	269.6238000392914	pulse	0	t		60.0	2.5	/experiments/AOT/AOT_stimuli/rescaled_final/0332_rv.mp4	0.0	291.12419605255127	
62	269.631520986557	movie	1		249	60.0	2.5	/experiments/AOT/AOT_stimuli/rescaled_final/0332_rv.mp4	0.0	291.1319169998169	2.5086121559143066
62	271.22357296943665	pulse	1	t		60.0	2.5	/experiments/AOT/AOT_stimuli/rescaled_final/0332_rv.mp4	0.0	292.72396898269653	
62	272.1401331424713	fix_post	2		12	60.0	2.5	/experiments/AOT/AOT_stimuli/rescaled_final/0332_rv.mp4	0.0	293.6405291557312	0.10049700736999512
63	272.2406301498413	fix_pre	0		120	61.0	2.5	/experiments/AOT/AOT_stimuli/rescaled_final/1385_fw.mp4	0.0	293.7410261631012	0.9992549419403076
63	272.8236961364746	pulse	0	t		61.0	2.5	/experiments/AOT/AOT_stimuli/rescaled_final/1385_fw.mp4	0.0	294.3240921497345	
63	273.2398850917816	movie	1		246	61.0	2.5	/experiments/AOT/AOT_stimuli/rescaled_final/1385_fw.mp4	0.0	294.7402811050415	2.5003910064697266
63	274.423810005188	pulse	1	t		61.0	2.5	/experiments/AOT/AOT_stimuli/rescaled_final/1385_fw.mp4	0.0	295.9242060184479	
63	275.74027609825134	fix_post	2		12	61.0	2.5	/experiments/AOT/AOT_stimuli/rescaled_final/1385_fw.mp4	0.0	297.24067211151123	0.09996891021728516
64	275.8402450084686	fix_pre	0		120	62.0	2.5	blank	1.0	297.3406410217285	0.9996180534362793
64	276.0236961841583	pulse	0	t		62.0	2.5	blank	1.0	297.5240921974182	
64	276.8398630619049	movie	1		300	62.0	2.5	blank	1.0	298.3402590751648	2.4999051094055176
64	277.62355613708496	pulse	1	t		62.0	2.5	blank	1.0	299.12395215034485	
64	279.22363114356995	pulse	1	t		62.0	2.5	blank	1.0	300.72402715682983	
64	279.3397681713104	fix_post	2		12	62.0	2.5	blank	1.0	300.8401641845703	0.10046792030334473
65	279.44023609161377	fix_pre	0		120	63.0	2.5	/experiments/AOT/AOT_stimuli/rescaled_final/2045_fw.mp4	0.0	300.94063210487366	0.9999189376831055
65	280.4401550292969	movie	1		242	63.0	2.5	/experiments/AOT/AOT_stimuli/rescaled_final/2045_fw.mp4	0.0	301.94055104255676	2.499549150466919
65	280.82298612594604	pulse	1	t		63.0	2.5	/experiments/AOT/AOT_stimuli/rescaled_final/2045_fw.mp4	0.0	302.32338213920593	
65	282.42353105545044	pulse	1	t		63.0	2.5	/experiments/AOT/AOT_stimuli/rescaled_final/2045_fw.mp4	0.0	303.9239270687103	
65	282.9397041797638	fix_post	2		12	63.0	2.5	/experiments/AOT/AOT_stimuli/rescaled_final/2045_fw.mp4	0.0	304.4401001930237	0.10035991668701172
66	283.0400640964508	fix_pre	0		119	64.0	2.5	/experiments/AOT/AOT_stimuli/rescaled_final/1780_fw.mp4	0.0	304.5404601097107	0.9917209148406982
66	284.0235769748688	pulse	0	t		64.0	2.5	/experiments/AOT/AOT_stimuli/rescaled_final/1780_fw.mp4	0.0	305.52397298812866	
66	284.0317850112915	movie	1		249	64.0	2.5	/experiments/AOT/AOT_stimuli/rescaled_final/1780_fw.mp4	0.0	305.5321810245514	2.5083601474761963
66	285.6231360435486	pulse	1	t		64.0	2.5	/experiments/AOT/AOT_stimuli/rescaled_final/1780_fw.mp4	0.0	307.1235320568085	
66	286.5401451587677	fix_post	2		12	64.0	2.5	/experiments/AOT/AOT_stimuli/rescaled_final/1780_fw.mp4	0.0	308.0405411720276	0.0999598503112793
67	286.640105009079	fix_pre	0		120	65.0	2.5	/experiments/AOT/AOT_stimuli/rescaled_final/0502_rv.mp4	0.0	308.14050102233887	0.999549150466919
67	287.22368001937866	pulse	0	t		65.0	2.5	/experiments/AOT/AOT_stimuli/rescaled_final/0502_rv.mp4	0.0	308.72407603263855	
67	287.6396541595459	movie	1		243	65.0	2.5	/experiments/AOT/AOT_stimuli/rescaled_final/0502_rv.mp4	0.0	309.1400501728058	2.500588893890381
67	288.8236870765686	pulse	1	t		65.0	2.5	/experiments/AOT/AOT_stimuli/rescaled_final/0502_rv.mp4	0.0	310.3240830898285	
67	290.1402430534363	fix_post	2		12	65.0	2.5	/experiments/AOT/AOT_stimuli/rescaled_final/0502_rv.mp4	0.0	311.64063906669617	0.09984898567199707
68	290.2400920391083	fix_pre	0		120	66.0	2.5	/experiments/AOT/AOT_stimuli/rescaled_final/1633_rv.mp4	0.0	311.74048805236816	0.9999849796295166
68	290.4236681461334	pulse	0	t		66.0	2.5	/experiments/AOT/AOT_stimuli/rescaled_final/1633_rv.mp4	0.0	311.9240641593933	
68	291.2400770187378	movie	1		246	66.0	2.5	/experiments/AOT/AOT_stimuli/rescaled_final/1633_rv.mp4	0.0	312.7404730319977	2.5000569820404053
68	292.0236871242523	pulse	1	t		66.0	2.5	/experiments/AOT/AOT_stimuli/rescaled_final/1633_rv.mp4	0.0	313.5240831375122	
68	293.61970710754395	pulse	1	t		66.0	2.5	/experiments/AOT/AOT_stimuli/rescaled_final/1633_rv.mp4	0.0	315.12010312080383	
68	293.7401340007782	fix_post	2		12	66.0	2.5	/experiments/AOT/AOT_stimuli/rescaled_final/1633_rv.mp4	0.0	315.2405300140381	0.0999910831451416
69	293.84012508392334	fix_pre	0		120	67.0	2.5	/experiments/AOT/AOT_stimuli/rescaled_final/1604_rv.mp4	0.0	315.3405210971832	0.9999840259552002
69	294.84010910987854	movie	1		243	67.0	2.5	/experiments/AOT/AOT_stimuli/rescaled_final/1604_rv.mp4	0.0	316.3405051231384	2.499558925628662
69	295.223788022995	pulse	1	t		67.0	2.5	/experiments/AOT/AOT_stimuli/rescaled_final/1604_rv.mp4	0.0	316.7241840362549	
69	296.8235909938812	pulse	1	t		67.0	2.5	/experiments/AOT/AOT_stimuli/rescaled_final/1604_rv.mp4	0.0	318.3239870071411	
69	297.3396680355072	fix_post	2		12	67.0	2.5	/experiments/AOT/AOT_stimuli/rescaled_final/1604_rv.mp4	0.0	318.8400640487671	0.0999441146850586
70	297.43961215019226	fix_pre	0		119	68.0	2.5	blank	1.0	318.94000816345215	0.9921579360961914
70	298.4235761165619	pulse	0	t		68.0	2.5	blank	1.0	319.9239721298218	
70	298.43177008628845	movie	1		301	68.0	2.5	blank	1.0	319.93216609954834	2.5083069801330566
70	300.02361702919006	pulse	1	t		68.0	2.5	blank	1.0	321.52401304244995	
70	300.9400770664215	fix_post	2		12	68.0	2.5	blank	1.0	322.4404730796814	0.09965896606445312
71	301.03973603248596	fix_pre	0		120	69.0	2.5	/experiments/AOT/AOT_stimuli/rescaled_final/0004_fw.mp4	0.0	322.54013204574585	0.9998719692230225
71	301.62358498573303	pulse	0	t		69.0	2.5	/experiments/AOT/AOT_stimuli/rescaled_final/0004_fw.mp4	0.0	323.1239809989929	
71	302.039608001709	movie	1		244	69.0	2.5	/experiments/AOT/AOT_stimuli/rescaled_final/0004_fw.mp4	0.0	323.5400040149689	2.5004491806030273
71	303.2235791683197	pulse	1	t		69.0	2.5	/experiments/AOT/AOT_stimuli/rescaled_final/0004_fw.mp4	0.0	324.7239751815796	
71	304.540057182312	fix_post	2		12	69.0	2.5	/experiments/AOT/AOT_stimuli/rescaled_final/0004_fw.mp4	0.0	326.0404531955719	0.10001993179321289
72	304.6400771141052	fix_pre	0		120	70.0	2.5	/experiments/AOT/AOT_stimuli/rescaled_final/0692_fw.mp4	0.0	326.1404731273651	0.9995908737182617
72	304.82360100746155	pulse	0	t		70.0	2.5	/experiments/AOT/AOT_stimuli/rescaled_final/0692_fw.mp4	0.0	326.32399702072144	
72	305.6396679878235	movie	1		244	70.0	2.5	/experiments/AOT/AOT_stimuli/rescaled_final/0692_fw.mp4	0.0	327.1400640010834	2.499891996383667
72	306.42362904548645	pulse	1	t		70.0	2.5	/experiments/AOT/AOT_stimuli/rescaled_final/0692_fw.mp4	0.0	327.92402505874634	
72	308.0217740535736	pulse	1	t		70.0	2.5	/experiments/AOT/AOT_stimuli/rescaled_final/0692_fw.mp4	0.0	329.5221700668335	
72	308.13955998420715	fix_post	2		12	70.0	2.5	/experiments/AOT/AOT_stimuli/rescaled_final/0692_fw.mp4	0.0	329.63995599746704	0.10047101974487305
73	308.240031003952	fix_pre	0		120	71.0	2.5	/experiments/AOT/AOT_stimuli/rescaled_final/0751_rv.mp4	0.0	329.7404270172119	1.0000150203704834
73	309.2400460243225	movie	1		249	71.0	2.5	/experiments/AOT/AOT_stimuli/rescaled_final/0751_rv.mp4	0.0	330.7404420375824	2.5000109672546387
73	309.6233260631561	pulse	1	t		71.0	2.5	/experiments/AOT/AOT_stimuli/rescaled_final/0751_rv.mp4	0.0	331.123722076416	
73	311.223482131958	pulse	1	t		71.0	2.5	/experiments/AOT/AOT_stimuli/rescaled_final/0751_rv.mp4	0.0	332.7238781452179	
73	311.74005699157715	fix_post	2		12	71.0	2.5	/experiments/AOT/AOT_stimuli/rescaled_final/0751_rv.mp4	0.0	333.24045300483704	0.09991812705993652
74	311.8399751186371	fix_pre	0		119	72.0	2.5	/experiments/AOT/AOT_stimuli/rescaled_final/1850_fw.mp4	0.0	333.340371131897	0.9917218685150146
74	312.8234820365906	pulse	0	t		72.0	2.5	/experiments/AOT/AOT_stimuli/rescaled_final/1850_fw.mp4	0.0	334.32387804985046	
74	312.8316969871521	movie	1		244	72.0	2.5	/experiments/AOT/AOT_stimuli/rescaled_final/1850_fw.mp4	0.0	334.332093000412	2.50829815864563
74	314.4232861995697	pulse	1	t		72.0	2.5	/experiments/AOT/AOT_stimuli/rescaled_final/1850_fw.mp4	0.0	335.9236822128296	
74	315.33999514579773	fix_post	2		12	72.0	2.5	/experiments/AOT/AOT_stimuli/rescaled_final/1850_fw.mp4	0.0	336.8403911590576	0.0995948314666748
75	315.4395899772644	fix_pre	0		120	73.0	2.5	/experiments/AOT/AOT_stimuli/rescaled_final/2160_rv.mp4	0.0	336.9399859905243	1.0004441738128662
75	316.02345514297485	pulse	0	t		73.0	2.5	/experiments/AOT/AOT_stimuli/rescaled_final/2160_rv.mp4	0.0	337.52385115623474	
75	316.44003415107727	movie	1		245	73.0	2.5	/experiments/AOT/AOT_stimuli/rescaled_final/2160_rv.mp4	0.0	337.94043016433716	2.499919891357422
75	317.62342715263367	pulse	1	t		73.0	2.5	/experiments/AOT/AOT_stimuli/rescaled_final/2160_rv.mp4	0.0	339.12382316589355	
75	318.9399540424347	fix_post	2		12	73.0	2.5	/experiments/AOT/AOT_stimuli/rescaled_final/2160_rv.mp4	0.0	340.4403500556946	0.10001802444458008
76	319.0399720668793	fix_pre	0		120	74.0	2.5	/experiments/AOT/AOT_stimuli/rescaled_final/0292_rv.mp4	0.0	340.54036808013916	0.9995861053466797
76	319.22344517707825	pulse	0	t		74.0	2.5	/experiments/AOT/AOT_stimuli/rescaled_final/0292_rv.mp4	0.0	340.72384119033813	
76	320.03955817222595	movie	1		245	74.0	2.5	/experiments/AOT/AOT_stimuli/rescaled_final/0292_rv.mp4	0.0	341.53995418548584	2.499980926513672
76	320.82342314720154	pulse	1	t		74.0	2.5	/experiments/AOT/AOT_stimuli/rescaled_final/0292_rv.mp4	0.0	342.3238191604614	
76	322.4195041656494	pulse	1	t		74.0	2.5	/experiments/AOT/AOT_stimuli/rescaled_final/0292_rv.mp4	0.0	343.9199001789093	
76	322.5395390987396	fix_post	2		12	74.0	2.5	/experiments/AOT/AOT_stimuli/rescaled_final/0292_rv.mp4	0.0	344.0399351119995	0.10006308555603027
77	322.63960218429565	fix_pre	0		120	75.0	2.5	blank	1.0	344.13999819755554	1.0003929138183594
77	323.639995098114	movie	1		300	75.0	2.5	blank	1.0	345.1403911113739	2.4996540546417236
77	324.0235049724579	pulse	1	t		75.0	2.5	blank	1.0	345.5239009857178	
77	325.6230101585388	pulse	1	t		75.0	2.5	blank	1.0	347.1234061717987	
77	326.13964915275574	fix_post	2		12	75.0	2.5	blank	1.0	347.6400451660156	0.10030794143676758
78	326.2399570941925	fix_pre	0		119	76.0	2.5	/experiments/AOT/AOT_stimuli/rescaled_final/1525_fw.mp4	0.0	347.7403531074524	0.9918570518493652
78	327.22366309165955	pulse	0	t		76.0	2.5	/experiments/AOT/AOT_stimuli/rescaled_final/1525_fw.mp4	0.0	348.72405910491943	
78	327.23181414604187	movie	1		248	76.0	2.5	/experiments/AOT/AOT_stimuli/rescaled_final/1525_fw.mp4	0.0	348.73221015930176	2.5077290534973145
78	328.82332706451416	pulse	1	t		76.0	2.5	/experiments/AOT/AOT_stimuli/rescaled_final/1525_fw.mp4	0.0	350.32372307777405	
78	329.7395431995392	fix_post	2		12	76.0	2.5	/experiments/AOT/AOT_stimuli/rescaled_final/1525_fw.mp4	0.0	351.2399392127991	0.10039091110229492
79	329.8399341106415	fix_pre	0		120	77.0	2.5	/experiments/AOT/AOT_stimuli/rescaled_final/1259_rv.mp4	0.0	351.34033012390137	0.9999408721923828
79	330.42345213890076	pulse	0	t		77.0	2.5	/experiments/AOT/AOT_stimuli/rescaled_final/1259_rv.mp4	0.0	351.92384815216064	
79	330.83987498283386	movie	1		247	77.0	2.5	/experiments/AOT/AOT_stimuli/rescaled_final/1259_rv.mp4	0.0	352.34027099609375	2.499920129776001
79	332.0234730243683	pulse	1	t		77.0	2.5	/experiments/AOT/AOT_stimuli/rescaled_final/1259_rv.mp4	0.0	353.5238690376282	
79	333.33979511260986	fix_post	2		12	77.0	2.5	/experiments/AOT/AOT_stimuli/rescaled_final/1259_rv.mp4	0.0	354.84019112586975	0.10008096694946289
80	333.4398760795593	fix_pre	0		120	78.0	2.5	/experiments/AOT/AOT_stimuli/rescaled_final/1359_rv.mp4	0.0	354.9402720928192	1.0000200271606445
80	333.62334299087524	pulse	0	t		78.0	2.5	/experiments/AOT/AOT_stimuli/rescaled_final/1359_rv.mp4	0.0	355.12373900413513	
80	334.43989610671997	movie	1		244	78.0	2.5	/experiments/AOT/AOT_stimuli/rescaled_final/1359_rv.mp4	0.0	355.94029211997986	2.499974012374878
80	335.22340416908264	pulse	1	t		78.0	2.5	/experiments/AOT/AOT_stimuli/rescaled_final/1359_rv.mp4	0.0	356.72380018234253	
80	336.8216300010681	pulse	1	t		78.0	2.5	/experiments/AOT/AOT_stimuli/rescaled_final/1359_rv.mp4	0.0	358.322026014328	
80	336.93987011909485	fix_post	2		12	78.0	2.5	/experiments/AOT/AOT_stimuli/rescaled_final/1359_rv.mp4	0.0	358.44026613235474	0.09983992576599121
81	337.03971004486084	fix_pre	0		120	79.0	2.5	/experiments/AOT/AOT_stimuli/rescaled_final/0299_fw.mp4	0.0	358.5401060581207	1.0001280307769775
81	338.0398380756378	movie	1		244	79.0	2.5	/experiments/AOT/AOT_stimuli/rescaled_final/0299_fw.mp4	0.0	359.5402340888977	2.4999840259552
81	338.42308497428894	pulse	1	t		79.0	2.5	/experiments/AOT/AOT_stimuli/rescaled_final/0299_fw.mp4	0.0	359.9234809875488	
81	340.02326107025146	pulse	1	t		79.0	2.5	/experiments/AOT/AOT_stimuli/rescaled_final/0299_fw.mp4	0.0	361.52365708351135	
81	340.539822101593	fix_post	2		12	79.0	2.5	/experiments/AOT/AOT_stimuli/rescaled_final/0299_fw.mp4	0.0	362.0402181148529	0.10004496574401855
82	340.63986706733704	fix_pre	0		119	80.0	2.5	/experiments/AOT/AOT_stimuli/rescaled_final/1130_fw.mp4	0.0	362.1402630805969	0.9915599822998047
82	341.6233060359955	pulse	0	t		80.0	2.5	/experiments/AOT/AOT_stimuli/rescaled_final/1130_fw.mp4	0.0	363.12370204925537	
82	341.63142704963684	movie	1		245	80.0	2.5	/experiments/AOT/AOT_stimuli/rescaled_final/1130_fw.mp4	0.0	363.13182306289673	2.5083720684051514
82	343.223149061203	pulse	1	t		80.0	2.5	/experiments/AOT/AOT_stimuli/rescaled_final/1130_fw.mp4	0.0	364.7235450744629	
82	344.139799118042	fix_post	2		12	80.0	2.5	/experiments/AOT/AOT_stimuli/rescaled_final/1130_fw.mp4	0.0	365.6401951313019	0.10006403923034668
83	344.23986315727234	fix_pre	0		120	81.0	2.5	/experiments/AOT/AOT_stimuli/rescaled_final/1339_fw.mp4	0.0	365.7402591705322	0.9999599456787109
83	344.8234040737152	pulse	0	t		81.0	2.5	/experiments/AOT/AOT_stimuli/rescaled_final/1339_fw.mp4	0.0	366.3238000869751	
83	345.23982310295105	movie	1		244	81.0	2.5	/experiments/AOT/AOT_stimuli/rescaled_final/1339_fw.mp4	0.0	366.74021911621094	2.4999868869781494
83	346.42340898513794	pulse	1	t		81.0	2.5	/experiments/AOT/AOT_stimuli/rescaled_final/1339_fw.mp4	0.0	367.9238049983978	
83	347.7398099899292	fix_post	2		12	81.0	2.5	/experiments/AOT/AOT_stimuli/rescaled_final/1339_fw.mp4	0.0	369.2402060031891	0.1001901626586914
84	347.8400001525879	fix_pre	0		120	82.0	2.5	blank	1.0	369.3403961658478	0.9998409748077393
84	348.0233781337738	pulse	0	t		82.0	2.5	blank	1.0	369.5237741470337	
84	348.83984112739563	movie	1		300	82.0	2.5	blank	1.0	370.3402371406555	2.499927043914795
84	349.6232681274414	pulse	1	t		82.0	2.5	blank	1.0	371.1236641407013	
84	351.22335410118103	pulse	1	t		82.0	2.5	blank	1.0	372.7237501144409	
84	351.3397681713104	fix_post	2		12	82.0	2.5	blank	1.0	372.8401641845703	0.10004401206970215
85	351.4398121833801	fix_pre	0		120	83.0	2.5	/experiments/AOT/AOT_stimuli/rescaled_final/1111_rv.mp4	0.0	372.94020819664	1.000032901763916
85	352.43984508514404	movie	1		246	83.0	2.5	/experiments/AOT/AOT_stimuli/rescaled_final/1111_rv.mp4	0.0	373.94024109840393	2.49983811378479
85	352.823086977005	pulse	1	t		83.0	2.5	/experiments/AOT/AOT_stimuli/rescaled_final/1111_rv.mp4	0.0	374.3234829902649	
85	354.4233560562134	pulse	1	t		83.0	2.5	/experiments/AOT/AOT_stimuli/rescaled_final/1111_rv.mp4	0.0	375.92375206947327	
85	354.93968319892883	fix_post	2		12	83.0	2.5	/experiments/AOT/AOT_stimuli/rescaled_final/1111_rv.mp4	0.0	376.4400792121887	0.10009598731994629
87	355.0397791862488	stim	0		1716					376.54017519950867	14.299994945526123
87	356.0233111381531	pulse	0	t						377.52370715141296	
87	357.6233100891113	pulse	0	t						379.1237061023712	
87	359.22330808639526	pulse	0	t						380.72370409965515	
87	360.82344603538513	pulse	0	t						382.323842048645	
87	362.42320704460144	pulse	0	t						383.9236030578613	
87	364.023255109787	pulse	0	t						385.5236511230469	
87	365.6231939792633	pulse	0	t						387.1235899925232	
87	367.22319412231445	pulse	0	t						388.72359013557434	
87	368.823194026947	pulse	0	t						390.3235900402069	
