trial_nr	onset	event_type	phase	response	nr_frames	movie_index	movie_duration	movie_file	blank	onset_abs	duration
0	0.15817809104919434	stim	0		17					21.11559224128723	0.14166593551635742
0	0.2918241024017334	response	0	space						21.24923825263977	
1	0.29984402656555176	stim	0		4734					21.25725817680359	39.450196981430054
1	39.7418851852417	pulse	0	t						60.699299335479736	
1	39.750041007995605	stim	1		1717					60.70745515823364	14.308254957199097
1	41.34184718132019	pulse	1	t						62.29926133155823	
1	42.9417610168457	pulse	1	t						63.89917516708374	
1	44.54176211357117	pulse	1	t						65.4991762638092	
1	46.141775131225586	pulse	1	t						67.09918928146362	
1	47.7418270111084	pulse	1	t						68.69924116134644	
1	49.341745138168335	pulse	1	t						70.29915928840637	
1	50.94180607795715	pulse	1	t						71.89922022819519	
1	52.541805028915405	pulse	1	t						73.49921917915344	
2	54.0582959651947	fix_pre	0		11	0.0	2.5	/experiments/AOT/AOT_stimuli/rescaled_final/0401_fw.mp4	0.0	75.01571011543274	0.09166908264160156
2	54.14174199104309	pulse	0	t		0.0	2.5	/experiments/AOT/AOT_stimuli/rescaled_final/0401_fw.mp4	0.0	75.09915614128113	
2	54.149965047836304	movie	1		243	0.0	2.5	/experiments/AOT/AOT_stimuli/rescaled_final/0401_fw.mp4	0.0	75.10737919807434	2.508013963699341
2	55.74230718612671	pulse	1	t		0.0	2.5	/experiments/AOT/AOT_stimuli/rescaled_final/0401_fw.mp4	0.0	76.69972133636475	
2	56.657979011535645	fix_post	2		12	0.0	2.5	/experiments/AOT/AOT_stimuli/rescaled_final/0401_fw.mp4	0.0	77.61539316177368	0.1005861759185791
3	56.758565187454224	fix_pre	0		120	1.0	2.5	/experiments/AOT/AOT_stimuli/rescaled_final/1512_rv.mp4	0.0	77.71597933769226	1.0000369548797607
3	57.34201002120972	pulse	0	t		1.0	2.5	/experiments/AOT/AOT_stimuli/rescaled_final/1512_rv.mp4	0.0	78.29942417144775	
3	57.758602142333984	movie	1		246	1.0	2.5	/experiments/AOT/AOT_stimuli/rescaled_final/1512_rv.mp4	0.0	78.71601629257202	2.4996538162231445
3	58.94183707237244	pulse	1	t		1.0	2.5	/experiments/AOT/AOT_stimuli/rescaled_final/1512_rv.mp4	0.0	79.89925122261047	
3	60.25825595855713	fix_post	2		12	1.0	2.5	/experiments/AOT/AOT_stimuli/rescaled_final/1512_rv.mp4	0.0	81.21567010879517	0.09998607635498047
4	60.35824203491211	fix_pre	0		120	2.0	2.5	/experiments/AOT/AOT_stimuli/rescaled_final/0541_fw.mp4	0.0	81.31565618515015	0.9999799728393555
4	60.541810035705566	pulse	0	t		2.0	2.5	/experiments/AOT/AOT_stimuli/rescaled_final/0541_fw.mp4	0.0	81.4992241859436	
4	61.358222007751465	movie	1		247	2.0	2.5	/experiments/AOT/AOT_stimuli/rescaled_final/0541_fw.mp4	0.0	82.3156361579895	2.4999890327453613
4	62.14171504974365	pulse	1	t		2.0	2.5	/experiments/AOT/AOT_stimuli/rescaled_final/0541_fw.mp4	0.0	83.09912919998169	
4	63.741816997528076	pulse	1	t		2.0	2.5	/experiments/AOT/AOT_stimuli/rescaled_final/0541_fw.mp4	0.0	84.69923114776611	
4	63.858211040496826	fix_post	2		12	2.0	2.5	/experiments/AOT/AOT_stimuli/rescaled_final/0541_fw.mp4	0.0	84.81562519073486	0.09993505477905273
5	63.95814609527588	fix_pre	0		120	3.0	2.5	/experiments/AOT/AOT_stimuli/rescaled_final/1013_fw.mp4	0.0	84.91556024551392	1.0000698566436768
5	64.95821595191956	movie	1		246	3.0	2.5	/experiments/AOT/AOT_stimuli/rescaled_final/1013_fw.mp4	0.0	85.91563010215759	2.499549150466919
5	65.34118008613586	pulse	1	t		3.0	2.5	/experiments/AOT/AOT_stimuli/rescaled_final/1013_fw.mp4	0.0	86.2985942363739	
5	66.94156098365784	pulse	1	t		3.0	2.5	/experiments/AOT/AOT_stimuli/rescaled_final/1013_fw.mp4	0.0	87.89897513389587	
5	67.45776510238647	fix_post	2		12	3.0	2.5	/experiments/AOT/AOT_stimuli/rescaled_final/1013_fw.mp4	0.0	88.41517925262451	0.10042095184326172
6	67.55818605422974	fix_pre	0		120	4.0	2.5	/experiments/AOT/AOT_stimuli/rescaled_final/1336_fw.mp4	0.0	88.51560020446777	1.0000100135803223
6	68.54247117042542	pulse	0	t		4.0	2.5	/experiments/AOT/AOT_stimuli/rescaled_final/1336_fw.mp4	0.0	89.49988532066345	
6	68.55819606781006	movie	1		246	4.0	2.5	/experiments/AOT/AOT_stimuli/rescaled_final/1336_fw.mp4	0.0	89.5156102180481	2.508296012878418
6	70.14171099662781	pulse	1	t		4.0	2.5	/experiments/AOT/AOT_stimuli/rescaled_final/1336_fw.mp4	0.0	91.09912514686584	
6	71.06649208068848	fix_post	2		12	4.0	2.5	/experiments/AOT/AOT_stimuli/rescaled_final/1336_fw.mp4	0.0	92.02390623092651	0.1000208854675293
7	71.166512966156	fix_pre	0		120	5.0	2.5	blank	1.0	92.12392711639404	0.9999730587005615
7	71.74242210388184	pulse	0	t		5.0	2.5	blank	1.0	92.69983625411987	
7	72.16648602485657	movie	1		300	5.0	2.5	blank	1.0	93.1239001750946	2.499660015106201
7	73.3416531085968	pulse	1	t		5.0	2.5	blank	1.0	94.29906725883484	
7	74.66614603996277	fix_post	2		12	5.0	2.5	blank	1.0	95.6235601902008	0.10028791427612305
8	74.76643395423889	fix_pre	0		120	6.0	2.5	/experiments/AOT/AOT_stimuli/rescaled_final/1331_rv.mp4	0.0	95.72384810447693	1.0000081062316895
8	74.9416241645813	pulse	0	t		6.0	2.5	/experiments/AOT/AOT_stimuli/rescaled_final/1331_rv.mp4	0.0	95.89903831481934	
8	75.76644206047058	movie	1		245	6.0	2.5	/experiments/AOT/AOT_stimuli/rescaled_final/1331_rv.mp4	0.0	96.72385621070862	2.5000219345092773
8	76.54170298576355	pulse	1	t		6.0	2.5	/experiments/AOT/AOT_stimuli/rescaled_final/1331_rv.mp4	0.0	97.49911713600159	
8	78.14164304733276	pulse	1	t		6.0	2.5	/experiments/AOT/AOT_stimuli/rescaled_final/1331_rv.mp4	0.0	99.0990571975708	
8	78.26646399497986	fix_post	2		12	6.0	2.5	/experiments/AOT/AOT_stimuli/rescaled_final/1331_rv.mp4	0.0	99.2238781452179	0.09996318817138672
9	78.36642718315125	fix_pre	0		120	7.0	2.5	/experiments/AOT/AOT_stimuli/rescaled_final/0372_rv.mp4	0.0	99.32384133338928	0.9999477863311768
9	79.36637496948242	movie	1		245	7.0	2.5	/experiments/AOT/AOT_stimuli/rescaled_final/0372_rv.mp4	0.0	100.32378911972046	2.5001721382141113
9	79.7415840625763	pulse	1	t		7.0	2.5	/experiments/AOT/AOT_stimuli/rescaled_final/0372_rv.mp4	0.0	100.69899821281433	
9	81.34161901473999	pulse	1	t		7.0	2.5	/experiments/AOT/AOT_stimuli/rescaled_final/0372_rv.mp4	0.0	102.29903316497803	
9	81.86654710769653	fix_post	2		12	7.0	2.5	/experiments/AOT/AOT_stimuli/rescaled_final/0372_rv.mp4	0.0	102.82396125793457	0.09998106956481934
10	81.96652817726135	fix_pre	0		119	8.0	2.5	/experiments/AOT/AOT_stimuli/rescaled_final/1331_fw.mp4	0.0	102.92394232749939	0.9916138648986816
10	82.94246912002563	pulse	0	t		8.0	2.5	/experiments/AOT/AOT_stimuli/rescaled_final/1331_fw.mp4	0.0	103.89988327026367	
10	82.95814204216003	movie	1		245	8.0	2.5	/experiments/AOT/AOT_stimuli/rescaled_final/1331_fw.mp4	0.0	103.91555619239807	2.508328914642334
10	84.55110311508179	pulse	1	t		8.0	2.5	/experiments/AOT/AOT_stimuli/rescaled_final/1331_fw.mp4	0.0	105.50851726531982	
10	85.46647095680237	fix_post	2		12	8.0	2.5	/experiments/AOT/AOT_stimuli/rescaled_final/1331_fw.mp4	0.0	106.4238851070404	0.1000051498413086
11	85.56647610664368	fix_pre	0		120	9.0	2.5	/experiments/AOT/AOT_stimuli/rescaled_final/0376_fw.mp4	0.0	106.52389025688171	1.0000178813934326
11	86.14244198799133	pulse	0	t		9.0	2.5	/experiments/AOT/AOT_stimuli/rescaled_final/0376_fw.mp4	0.0	107.09985613822937	
11	86.56649398803711	movie	1		244	9.0	2.5	/experiments/AOT/AOT_stimuli/rescaled_final/0376_fw.mp4	0.0	107.52390813827515	2.499495029449463
11	87.75004196166992	pulse	1	t		9.0	2.5	/experiments/AOT/AOT_stimuli/rescaled_final/0376_fw.mp4	0.0	108.70745611190796	
11	89.06598901748657	fix_post	2		12	9.0	2.5	/experiments/AOT/AOT_stimuli/rescaled_final/0376_fw.mp4	0.0	110.02340316772461	0.10038995742797852
12	89.16637897491455	fix_pre	0		120	10.0	2.5	/experiments/AOT/AOT_stimuli/rescaled_final/0707_rv.mp4	0.0	110.12379312515259	1.0000832080841064
12	89.34164214134216	pulse	0	t		10.0	2.5	/experiments/AOT/AOT_stimuli/rescaled_final/0707_rv.mp4	0.0	110.2990562915802	
12	90.16646218299866	movie	1		245	10.0	2.5	/experiments/AOT/AOT_stimuli/rescaled_final/0707_rv.mp4	0.0	111.1238763332367	2.5000998973846436
12	90.9416401386261	pulse	1	t		10.0	2.5	/experiments/AOT/AOT_stimuli/rescaled_final/0707_rv.mp4	0.0	111.89905428886414	
12	92.54156517982483	pulse	1	t		10.0	2.5	/experiments/AOT/AOT_stimuli/rescaled_final/0707_rv.mp4	0.0	113.49897933006287	
12	92.6665620803833	fix_post	2		12	10.0	2.5	/experiments/AOT/AOT_stimuli/rescaled_final/0707_rv.mp4	0.0	113.62397623062134	0.09987092018127441
13	92.76643300056458	fix_pre	0		120	11.0	2.5	/experiments/AOT/AOT_stimuli/rescaled_final/2112_rv.mp4	0.0	113.72384715080261	0.9996011257171631
13	93.76603412628174	movie	1		244	11.0	2.5	/experiments/AOT/AOT_stimuli/rescaled_final/2112_rv.mp4	0.0	114.72344827651978	2.5003609657287598
13	94.14157104492188	pulse	1	t		11.0	2.5	/experiments/AOT/AOT_stimuli/rescaled_final/2112_rv.mp4	0.0	115.09898519515991	
13	95.74162817001343	pulse	1	t		11.0	2.5	/experiments/AOT/AOT_stimuli/rescaled_final/2112_rv.mp4	0.0	116.69904232025146	
13	96.2663950920105	fix_post	2		12	11.0	2.5	/experiments/AOT/AOT_stimuli/rescaled_final/2112_rv.mp4	0.0	117.22380924224854	0.10001587867736816
14	96.36641097068787	fix_pre	0		118	12.0	2.5	/experiments/AOT/AOT_stimuli/rescaled_final/2178_fw.mp4	0.0	117.3238251209259	0.9833409786224365
14	97.34160614013672	pulse	0	t		12.0	2.5	/experiments/AOT/AOT_stimuli/rescaled_final/2178_fw.mp4	0.0	118.29902029037476	
14	97.3497519493103	movie	1		244	12.0	2.5	/experiments/AOT/AOT_stimuli/rescaled_final/2178_fw.mp4	0.0	118.30716609954834	2.5082080364227295
14	98.94116616249084	pulse	1	t		12.0	2.5	/experiments/AOT/AOT_stimuli/rescaled_final/2178_fw.mp4	0.0	119.89858031272888	
14	99.85795998573303	fix_post	2		12	12.0	2.5	/experiments/AOT/AOT_stimuli/rescaled_final/2178_fw.mp4	0.0	120.81537413597107	0.10010910034179688
15	99.95806908607483	fix_pre	0		120	13.0	2.5	blank	1.0	120.91548323631287	0.9999799728393555
15	100.54231405258179	pulse	0	t		13.0	2.5	blank	1.0	121.49972820281982	
15	100.95804905891418	movie	1		300	13.0	2.5	blank	1.0	121.91546320915222	2.5000200271606445
15	102.14235615730286	pulse	1	t		13.0	2.5	blank	1.0	123.0997703075409	
15	103.45806908607483	fix_post	2		12	13.0	2.5	blank	1.0	124.41548323631287	0.0999760627746582
16	103.55804514884949	fix_pre	0		120	14.0	2.5	/experiments/AOT/AOT_stimuli/rescaled_final/1331_rv.mp4	0.0	124.51545929908752	0.9995930194854736
16	103.74230408668518	pulse	0	t		14.0	2.5	/experiments/AOT/AOT_stimuli/rescaled_final/1331_rv.mp4	0.0	124.69971823692322	
16	104.55763816833496	movie	1		245	14.0	2.5	/experiments/AOT/AOT_stimuli/rescaled_final/1331_rv.mp4	0.0	125.515052318573	2.5003819465637207
16	105.34237217903137	pulse	1	t		14.0	2.5	/experiments/AOT/AOT_stimuli/rescaled_final/1331_rv.mp4	0.0	126.29978632926941	
16	106.94574499130249	pulse	1	t		14.0	2.5	/experiments/AOT/AOT_stimuli/rescaled_final/1331_rv.mp4	0.0	127.90315914154053	
16	107.05802011489868	fix_post	2		12	14.0	2.5	/experiments/AOT/AOT_stimuli/rescaled_final/1331_rv.mp4	0.0	128.01543426513672	0.10001206398010254
17	107.15803217887878	fix_pre	0		120	15.0	2.5	/experiments/AOT/AOT_stimuli/rescaled_final/0511_rv.mp4	0.0	128.11544632911682	1.0000948905944824
17	108.15812706947327	movie	1		247	15.0	2.5	/experiments/AOT/AOT_stimuli/rescaled_final/0511_rv.mp4	0.0	129.1155412197113	2.499505043029785
17	108.54274797439575	pulse	1	t		15.0	2.5	/experiments/AOT/AOT_stimuli/rescaled_final/0511_rv.mp4	0.0	129.5001621246338	
17	110.14200615882874	pulse	1	t		15.0	2.5	/experiments/AOT/AOT_stimuli/rescaled_final/0511_rv.mp4	0.0	131.09942030906677	
17	110.65763211250305	fix_post	2		12	15.0	2.5	/experiments/AOT/AOT_stimuli/rescaled_final/0511_rv.mp4	0.0	131.6150462627411	0.1003408432006836
18	110.75797295570374	fix_pre	0		120	16.0	2.5	/experiments/AOT/AOT_stimuli/rescaled_final/0041_fw.mp4	0.0	131.71538710594177	0.9997270107269287
18	111.74193906784058	pulse	0	t		16.0	2.5	/experiments/AOT/AOT_stimuli/rescaled_final/0041_fw.mp4	0.0	132.6993532180786	
18	111.75769996643066	movie	1		250	16.0	2.5	/experiments/AOT/AOT_stimuli/rescaled_final/0041_fw.mp4	0.0	132.7151141166687	2.50822114944458
18	113.34169507026672	pulse	1	t		16.0	2.5	/experiments/AOT/AOT_stimuli/rescaled_final/0041_fw.mp4	0.0	134.29910922050476	
18	114.26592111587524	fix_post	2		12	16.0	2.5	/experiments/AOT/AOT_stimuli/rescaled_final/0041_fw.mp4	0.0	135.22333526611328	0.10035395622253418
19	114.36627507209778	fix_pre	0		120	17.0	2.5	/experiments/AOT/AOT_stimuli/rescaled_final/1514_fw.mp4	0.0	135.32368922233582	1.000049114227295
19	114.94155716896057	pulse	0	t		17.0	2.5	/experiments/AOT/AOT_stimuli/rescaled_final/1514_fw.mp4	0.0	135.8989713191986	
19	115.36632418632507	movie	1		243	17.0	2.5	/experiments/AOT/AOT_stimuli/rescaled_final/1514_fw.mp4	0.0	136.3237383365631	2.4995388984680176
19	116.54985308647156	pulse	1	t		17.0	2.5	/experiments/AOT/AOT_stimuli/rescaled_final/1514_fw.mp4	0.0	137.5072672367096	
19	117.86586308479309	fix_post	2		12	17.0	2.5	/experiments/AOT/AOT_stimuli/rescaled_final/1514_fw.mp4	0.0	138.82327723503113	0.10044193267822266
20	117.96630501747131	fix_pre	0		120	18.0	2.5	/experiments/AOT/AOT_stimuli/rescaled_final/0647_rv.mp4	0.0	138.92371916770935	0.9999070167541504
20	118.14239811897278	pulse	0	t		18.0	2.5	/experiments/AOT/AOT_stimuli/rescaled_final/0647_rv.mp4	0.0	139.09981226921082	
20	118.96621203422546	movie	1		245	18.0	2.5	/experiments/AOT/AOT_stimuli/rescaled_final/0647_rv.mp4	0.0	139.9236261844635	2.4996590614318848
20	119.74242496490479	pulse	1	t		18.0	2.5	/experiments/AOT/AOT_stimuli/rescaled_final/0647_rv.mp4	0.0	140.69983911514282	
20	121.34169316291809	pulse	1	t		18.0	2.5	/experiments/AOT/AOT_stimuli/rescaled_final/0647_rv.mp4	0.0	142.29910731315613	
20	121.46587109565735	fix_post	2		12	18.0	2.5	/experiments/AOT/AOT_stimuli/rescaled_final/0647_rv.mp4	0.0	142.42328524589539	0.10036492347717285
21	121.56623601913452	fix_pre	0		120	19.0	2.5	blank	1.0	142.52365016937256	1.0000920295715332
21	122.56632804870605	movie	1		300	19.0	2.5	blank	1.0	143.5237421989441	2.4999890327453613
21	122.94223999977112	pulse	1	t		19.0	2.5	blank	1.0	143.89965415000916	
21	124.5414490699768	pulse	1	t		19.0	2.5	blank	1.0	145.49886322021484	
21	125.06631708145142	fix_post	2		12	19.0	2.5	blank	1.0	146.02373123168945	0.09995293617248535
22	125.1662700176239	fix_pre	0		118	20.0	2.5	/experiments/AOT/AOT_stimuli/rescaled_final/0524_fw.mp4	0.0	146.12368416786194	0.983335018157959
22	126.14140796661377	pulse	0	t		20.0	2.5	/experiments/AOT/AOT_stimuli/rescaled_final/0524_fw.mp4	0.0	147.0988221168518	
22	126.14960503578186	movie	1		246	20.0	2.5	/experiments/AOT/AOT_stimuli/rescaled_final/0524_fw.mp4	0.0	147.1070191860199	2.507883071899414
22	127.74984312057495	pulse	1	t		20.0	2.5	/experiments/AOT/AOT_stimuli/rescaled_final/0524_fw.mp4	0.0	148.707257270813	
22	128.65748810768127	fix_post	2		12	20.0	2.5	/experiments/AOT/AOT_stimuli/rescaled_final/0524_fw.mp4	0.0	149.6149022579193	0.10045385360717773
23	128.75794196128845	fix_pre	0		120	21.0	2.5	/experiments/AOT/AOT_stimuli/rescaled_final/0025_rv.mp4	0.0	149.7153561115265	0.9999639987945557
23	129.34143805503845	pulse	0	t		21.0	2.5	/experiments/AOT/AOT_stimuli/rescaled_final/0025_rv.mp4	0.0	150.2988522052765	
23	129.757905960083	movie	1		246	21.0	2.5	/experiments/AOT/AOT_stimuli/rescaled_final/0025_rv.mp4	0.0	150.71532011032104	2.499770164489746
23	130.9414620399475	pulse	1	t		21.0	2.5	/experiments/AOT/AOT_stimuli/rescaled_final/0025_rv.mp4	0.0	151.89887619018555	
23	132.25767612457275	fix_post	2		12	21.0	2.5	/experiments/AOT/AOT_stimuli/rescaled_final/0025_rv.mp4	0.0	153.2150902748108	0.10028290748596191
24	132.35795903205872	fix_pre	0		120	22.0	2.5	/experiments/AOT/AOT_stimuli/rescaled_final/0198_rv.mp4	0.0	153.31537318229675	0.9994730949401855
24	132.5423390865326	pulse	0	t		22.0	2.5	/experiments/AOT/AOT_stimuli/rescaled_final/0198_rv.mp4	0.0	153.49975323677063	
24	133.3574321269989	movie	1		245	22.0	2.5	/experiments/AOT/AOT_stimuli/rescaled_final/0198_rv.mp4	0.0	154.31484627723694	2.500419855117798
24	134.14242100715637	pulse	1	t		22.0	2.5	/experiments/AOT/AOT_stimuli/rescaled_final/0198_rv.mp4	0.0	155.0998351573944	
24	135.74984908103943	pulse	1	t		22.0	2.5	/experiments/AOT/AOT_stimuli/rescaled_final/0198_rv.mp4	0.0	156.70726323127747	
24	135.8578519821167	fix_post	2		12	22.0	2.5	/experiments/AOT/AOT_stimuli/rescaled_final/0198_rv.mp4	0.0	156.81526613235474	0.1000070571899414
25	135.95785903930664	fix_pre	0		120	23.0	2.5	/experiments/AOT/AOT_stimuli/rescaled_final/0785_fw.mp4	0.0	156.91527318954468	0.9999890327453613
25	136.957848072052	movie	1		245	23.0	2.5	/experiments/AOT/AOT_stimuli/rescaled_final/0785_fw.mp4	0.0	157.91526222229004	2.5002360343933105
25	137.35008215904236	pulse	1	t		23.0	2.5	/experiments/AOT/AOT_stimuli/rescaled_final/0785_fw.mp4	0.0	158.3074963092804	
25	138.94221305847168	pulse	1	t		23.0	2.5	/experiments/AOT/AOT_stimuli/rescaled_final/0785_fw.mp4	0.0	159.89962720870972	
25	139.4580841064453	fix_post	2		12	23.0	2.5	/experiments/AOT/AOT_stimuli/rescaled_final/0785_fw.mp4	0.0	160.41549825668335	0.09980297088623047
26	139.55788707733154	fix_pre	0		120	24.0	2.5	/experiments/AOT/AOT_stimuli/rescaled_final/1914_rv.mp4	0.0	160.51530122756958	1.0000360012054443
26	140.54208612442017	pulse	0	t		24.0	2.5	/experiments/AOT/AOT_stimuli/rescaled_final/1914_rv.mp4	0.0	161.4995002746582	
26	140.557923078537	movie	1		246	24.0	2.5	/experiments/AOT/AOT_stimuli/rescaled_final/1914_rv.mp4	0.0	161.51533722877502	2.507845878601074
26	142.14134907722473	pulse	1	t		24.0	2.5	/experiments/AOT/AOT_stimuli/rescaled_final/1914_rv.mp4	0.0	163.09876322746277	
26	143.06576895713806	fix_post	2		12	24.0	2.5	/experiments/AOT/AOT_stimuli/rescaled_final/1914_rv.mp4	0.0	164.0231831073761	0.10041522979736328
27	143.16618418693542	fix_pre	0		120	25.0	2.5	/experiments/AOT/AOT_stimuli/rescaled_final/1197_rv.mp4	0.0	164.12359833717346	0.9996418952941895
27	143.74144411087036	pulse	0	t		25.0	2.5	/experiments/AOT/AOT_stimuli/rescaled_final/1197_rv.mp4	0.0	164.6988582611084	
27	144.16582608222961	movie	1		243	25.0	2.5	/experiments/AOT/AOT_stimuli/rescaled_final/1197_rv.mp4	0.0	165.12324023246765	2.500417947769165
27	145.349778175354	pulse	1	t		25.0	2.5	/experiments/AOT/AOT_stimuli/rescaled_final/1197_rv.mp4	0.0	166.30719232559204	
27	146.66624402999878	fix_post	2		12	25.0	2.5	/experiments/AOT/AOT_stimuli/rescaled_final/1197_rv.mp4	0.0	167.62365818023682	0.09988999366760254
28	146.76613402366638	fix_pre	0		120	26.0	2.5	blank	1.0	167.72354817390442	0.9996700286865234
28	146.94135212898254	pulse	0	t		26.0	2.5	blank	1.0	167.89876627922058	
28	147.7658040523529	movie	1		300	26.0	2.5	blank	1.0	168.72321820259094	2.500422954559326
28	148.54217410087585	pulse	1	t		26.0	2.5	blank	1.0	169.4995882511139	
28	150.14216709136963	pulse	1	t		26.0	2.5	blank	1.0	171.09958124160767	
28	150.26622700691223	fix_post	2		12	26.0	2.5	blank	1.0	171.22364115715027	0.10009407997131348
29	150.36632108688354	fix_pre	0		120	27.0	2.5	/experiments/AOT/AOT_stimuli/rescaled_final/1064_fw.mp4	0.0	171.32373523712158	0.9998660087585449
29	151.3661870956421	movie	1		246	27.0	2.5	/experiments/AOT/AOT_stimuli/rescaled_final/1064_fw.mp4	0.0	172.32360124588013	2.4995100498199463
29	151.74924206733704	pulse	1	t		27.0	2.5	/experiments/AOT/AOT_stimuli/rescaled_final/1064_fw.mp4	0.0	172.70665621757507	
29	153.34228610992432	pulse	1	t		27.0	2.5	/experiments/AOT/AOT_stimuli/rescaled_final/1064_fw.mp4	0.0	174.29970026016235	
29	153.86569714546204	fix_post	2		12	27.0	2.5	/experiments/AOT/AOT_stimuli/rescaled_final/1064_fw.mp4	0.0	174.82311129570007	0.10047793388366699
30	153.9661750793457	fix_pre	0		119	28.0	2.5	/experiments/AOT/AOT_stimuli/rescaled_final/0902_fw.mp4	0.0	174.92358922958374	0.9916660785675049
30	154.94217205047607	pulse	0	t		28.0	2.5	/experiments/AOT/AOT_stimuli/rescaled_final/0902_fw.mp4	0.0	175.8995862007141	
30	154.9578411579132	movie	1		248	28.0	2.5	/experiments/AOT/AOT_stimuli/rescaled_final/0902_fw.mp4	0.0	175.91525530815125	2.508297920227051
30	156.5498650074005	pulse	1	t		28.0	2.5	/experiments/AOT/AOT_stimuli/rescaled_final/0902_fw.mp4	0.0	177.50727915763855	
30	157.46613907814026	fix_post	2		12	28.0	2.5	/experiments/AOT/AOT_stimuli/rescaled_final/0902_fw.mp4	0.0	178.4235532283783	0.09958600997924805
31	157.5657250881195	fix_pre	0		120	29.0	2.5	/experiments/AOT/AOT_stimuli/rescaled_final/0328_rv.mp4	0.0	178.52313923835754	1.0003750324249268
31	158.14140510559082	pulse	0	t		29.0	2.5	/experiments/AOT/AOT_stimuli/rescaled_final/0328_rv.mp4	0.0	179.09881925582886	
31	158.56610012054443	movie	1		244	29.0	2.5	/experiments/AOT/AOT_stimuli/rescaled_final/0328_rv.mp4	0.0	179.52351427078247	2.5000388622283936
31	159.74970817565918	pulse	1	t		29.0	2.5	/experiments/AOT/AOT_stimuli/rescaled_final/0328_rv.mp4	0.0	180.70712232589722	
31	161.06613898277283	fix_post	2		12	29.0	2.5	/experiments/AOT/AOT_stimuli/rescaled_final/0328_rv.mp4	0.0	182.02355313301086	0.09951615333557129
32	161.1656551361084	fix_pre	0		120	30.0	2.5	/experiments/AOT/AOT_stimuli/rescaled_final/0605_fw.mp4	0.0	182.12306928634644	1.000424861907959
32	161.341304063797	pulse	0	t		30.0	2.5	/experiments/AOT/AOT_stimuli/rescaled_final/0605_fw.mp4	0.0	182.29871821403503	
32	162.16607999801636	movie	1		243	30.0	2.5	/experiments/AOT/AOT_stimuli/rescaled_final/0605_fw.mp4	0.0	183.1234941482544	2.5000500679016113
32	162.9412579536438	pulse	1	t		30.0	2.5	/experiments/AOT/AOT_stimuli/rescaled_final/0605_fw.mp4	0.0	183.89867210388184	
32	164.54801511764526	pulse	1	t		30.0	2.5	/experiments/AOT/AOT_stimuli/rescaled_final/0605_fw.mp4	0.0	185.5054292678833	
32	164.66613006591797	fix_post	2		12	30.0	2.5	/experiments/AOT/AOT_stimuli/rescaled_final/0605_fw.mp4	0.0	185.623544216156	0.10015988349914551
33	164.76628994941711	fix_pre	0		120	31.0	2.5	/experiments/AOT/AOT_stimuli/rescaled_final/2132_fw.mp4	0.0	185.72370409965515	0.999812126159668
33	165.76610207557678	movie	1		243	31.0	2.5	/experiments/AOT/AOT_stimuli/rescaled_final/2132_fw.mp4	0.0	186.72351622581482	2.4997429847717285
33	166.1506130695343	pulse	1	t		31.0	2.5	/experiments/AOT/AOT_stimuli/rescaled_final/2132_fw.mp4	0.0	187.10802721977234	
33	167.74198818206787	pulse	1	t		31.0	2.5	/experiments/AOT/AOT_stimuli/rescaled_final/2132_fw.mp4	0.0	188.6994023323059	
33	168.2658450603485	fix_post	2		12	31.0	2.5	/experiments/AOT/AOT_stimuli/rescaled_final/2132_fw.mp4	0.0	189.22325921058655	0.10037994384765625
34	168.36622500419617	fix_pre	0		119	32.0	2.5	/experiments/AOT/AOT_stimuli/rescaled_final/1638_fw.mp4	0.0	189.3236391544342	0.9914131164550781
34	169.34198117256165	pulse	0	t		32.0	2.5	/experiments/AOT/AOT_stimuli/rescaled_final/1638_fw.mp4	0.0	190.29939532279968	
34	169.35763812065125	movie	1		245	32.0	2.5	/experiments/AOT/AOT_stimuli/rescaled_final/1638_fw.mp4	0.0	190.31505227088928	2.5084879398345947
34	170.9491159915924	pulse	1	t		32.0	2.5	/experiments/AOT/AOT_stimuli/rescaled_final/1638_fw.mp4	0.0	191.90653014183044	
34	171.86612606048584	fix_post	2		12	32.0	2.5	/experiments/AOT/AOT_stimuli/rescaled_final/1638_fw.mp4	0.0	192.82354021072388	0.09998393058776855
35	171.9661099910736	fix_pre	0		120	33.0	2.5	/experiments/AOT/AOT_stimuli/rescaled_final/0133_fw.mp4	0.0	192.92352414131165	1.0000090599060059
35	172.5420219898224	pulse	0	t		33.0	2.5	/experiments/AOT/AOT_stimuli/rescaled_final/0133_fw.mp4	0.0	193.49943614006042	
35	172.96611905097961	movie	1		244	33.0	2.5	/experiments/AOT/AOT_stimuli/rescaled_final/0133_fw.mp4	0.0	193.92353320121765	2.4995040893554688
35	174.14241695404053	pulse	1	t		33.0	2.5	/experiments/AOT/AOT_stimuli/rescaled_final/0133_fw.mp4	0.0	195.09983110427856	
35	175.46562314033508	fix_post	2		12	33.0	2.5	/experiments/AOT/AOT_stimuli/rescaled_final/0133_fw.mp4	0.0	196.42303729057312	0.10041093826293945
36	175.56603407859802	fix_pre	0		120	34.0	2.5	blank	1.0	196.52344822883606	0.9996509552001953
36	175.74208211898804	pulse	0	t		34.0	2.5	blank	1.0	196.69949626922607	
36	176.56568503379822	movie	1		300	34.0	2.5	blank	1.0	197.52309918403625	2.500375986099243
36	177.3412880897522	pulse	1	t		34.0	2.5	blank	1.0	198.29870223999023	
36	178.94120407104492	pulse	1	t		34.0	2.5	blank	1.0	199.89861822128296	
36	179.06606101989746	fix_post	2		12	34.0	2.5	blank	1.0	200.0234751701355	0.09991216659545898
37	179.16597318649292	fix_pre	0		120	35.0	2.5	/experiments/AOT/AOT_stimuli/rescaled_final/1638_rv.mp4	0.0	200.12338733673096	1.0002059936523438
37	180.16617918014526	movie	1		244	35.0	2.5	/experiments/AOT/AOT_stimuli/rescaled_final/1638_rv.mp4	0.0	201.1235933303833	2.4998128414154053
37	180.54918003082275	pulse	1	t		35.0	2.5	/experiments/AOT/AOT_stimuli/rescaled_final/1638_rv.mp4	0.0	201.5065941810608	
37	182.14225912094116	pulse	1	t		35.0	2.5	/experiments/AOT/AOT_stimuli/rescaled_final/1638_rv.mp4	0.0	203.0996732711792	
37	182.66599202156067	fix_post	2		12	35.0	2.5	/experiments/AOT/AOT_stimuli/rescaled_final/1638_rv.mp4	0.0	203.6234061717987	0.10000205039978027
38	182.76599407196045	fix_pre	0		119	36.0	2.5	/experiments/AOT/AOT_stimuli/rescaled_final/1043_rv.mp4	0.0	203.7234082221985	0.9916970729827881
38	183.74205112457275	pulse	0	t		36.0	2.5	/experiments/AOT/AOT_stimuli/rescaled_final/1043_rv.mp4	0.0	204.6994652748108	
38	183.75769114494324	movie	1		246	36.0	2.5	/experiments/AOT/AOT_stimuli/rescaled_final/1043_rv.mp4	0.0	204.71510529518127	2.508349895477295
38	185.34918403625488	pulse	1	t		36.0	2.5	/experiments/AOT/AOT_stimuli/rescaled_final/1043_rv.mp4	0.0	206.30659818649292	
38	186.26604104042053	fix_post	2		12	36.0	2.5	/experiments/AOT/AOT_stimuli/rescaled_final/1043_rv.mp4	0.0	207.22345519065857	0.0999140739440918
39	186.36595511436462	fix_pre	0		120	37.0	2.5	/experiments/AOT/AOT_stimuli/rescaled_final/2104_rv.mp4	0.0	207.32336926460266	1.0000629425048828
39	186.9420440196991	pulse	0	t		37.0	2.5	/experiments/AOT/AOT_stimuli/rescaled_final/2104_rv.mp4	0.0	207.89945816993713	
39	187.3660180568695	movie	1		244	37.0	2.5	/experiments/AOT/AOT_stimuli/rescaled_final/2104_rv.mp4	0.0	208.32343220710754	2.499501943588257
39	188.54952716827393	pulse	1	t		37.0	2.5	/experiments/AOT/AOT_stimuli/rescaled_final/2104_rv.mp4	0.0	209.50694131851196	
39	189.86552000045776	fix_post	2		12	37.0	2.5	/experiments/AOT/AOT_stimuli/rescaled_final/2104_rv.mp4	0.0	210.8229341506958	0.10048508644104004
40	189.9660050868988	fix_pre	0		120	38.0	2.5	/experiments/AOT/AOT_stimuli/rescaled_final/2065_rv.mp4	0.0	210.92341923713684	0.9999620914459229
40	190.14204812049866	pulse	0	t		38.0	2.5	/experiments/AOT/AOT_stimuli/rescaled_final/2065_rv.mp4	0.0	211.0994622707367	
40	190.96596717834473	movie	1		244	38.0	2.5	/experiments/AOT/AOT_stimuli/rescaled_final/2065_rv.mp4	0.0	211.92338132858276	2.499929904937744
40	191.74214816093445	pulse	1	t		38.0	2.5	/experiments/AOT/AOT_stimuli/rescaled_final/2065_rv.mp4	0.0	212.69956231117249	
40	193.3480830192566	pulse	1	t		38.0	2.5	/experiments/AOT/AOT_stimuli/rescaled_final/2065_rv.mp4	0.0	214.30549716949463	
40	193.46589708328247	fix_post	2		12	38.0	2.5	/experiments/AOT/AOT_stimuli/rescaled_final/2065_rv.mp4	0.0	214.4233112335205	0.10004496574401855
41	193.5659420490265	fix_pre	0		120	39.0	2.5	/experiments/AOT/AOT_stimuli/rescaled_final/1336_rv.mp4	0.0	214.52335619926453	1.0000090599060059
41	194.5659511089325	movie	1		246	39.0	2.5	/experiments/AOT/AOT_stimuli/rescaled_final/1336_rv.mp4	0.0	215.52336525917053	2.49995493888855
41	194.9493169784546	pulse	1	t		39.0	2.5	/experiments/AOT/AOT_stimuli/rescaled_final/1336_rv.mp4	0.0	215.90673112869263	
41	196.54207301139832	pulse	1	t		39.0	2.5	/experiments/AOT/AOT_stimuli/rescaled_final/1336_rv.mp4	0.0	217.49948716163635	
41	197.06590604782104	fix_post	2		12	39.0	2.5	/experiments/AOT/AOT_stimuli/rescaled_final/1336_rv.mp4	0.0	218.02332019805908	0.10004997253417969
42	197.16595602035522	fix_pre	0		119	40.0	2.5	/experiments/AOT/AOT_stimuli/rescaled_final/0953_fw.mp4	0.0	218.12337017059326	0.9917471408843994
42	198.14949107170105	pulse	0	t		40.0	2.5	/experiments/AOT/AOT_stimuli/rescaled_final/0953_fw.mp4	0.0	219.1069052219391	
42	198.15770316123962	movie	1		246	40.0	2.5	/experiments/AOT/AOT_stimuli/rescaled_final/0953_fw.mp4	0.0	219.11511731147766	2.507969856262207
42	199.75044512748718	pulse	1	t		40.0	2.5	/experiments/AOT/AOT_stimuli/rescaled_final/0953_fw.mp4	0.0	220.70785927772522	
42	200.66567301750183	fix_post	2		12	40.0	2.5	/experiments/AOT/AOT_stimuli/rescaled_final/0953_fw.mp4	0.0	221.62308716773987	0.10023713111877441
43	200.7659101486206	fix_pre	0		120	41.0	2.5	blank	1.0	221.72332429885864	0.99959397315979
43	201.34193396568298	pulse	0	t		41.0	2.5	blank	1.0	222.29934811592102	
43	201.7655041217804	movie	1		300	41.0	2.5	blank	1.0	222.72291827201843	2.500382900238037
43	202.94190096855164	pulse	1	t		41.0	2.5	blank	1.0	223.89931511878967	
43	204.26588702201843	fix_post	2		12	41.0	2.5	blank	1.0	225.22330117225647	0.09999513626098633
44	204.36588215827942	fix_pre	0		120	42.0	2.5	/experiments/AOT/AOT_stimuli/rescaled_final/1976_rv.mp4	0.0	225.32329630851746	1.0000479221343994
44	204.5418610572815	pulse	0	t		42.0	2.5	/experiments/AOT/AOT_stimuli/rescaled_final/1976_rv.mp4	0.0	225.49927520751953	
44	205.36593008041382	movie	1		243	42.0	2.5	/experiments/AOT/AOT_stimuli/rescaled_final/1976_rv.mp4	0.0	226.32334423065186	2.499964952468872
44	206.1419541835785	pulse	1	t		42.0	2.5	/experiments/AOT/AOT_stimuli/rescaled_final/1976_rv.mp4	0.0	227.09936833381653	
44	207.7476041316986	pulse	1	t		42.0	2.5	/experiments/AOT/AOT_stimuli/rescaled_final/1976_rv.mp4	0.0	228.70501828193665	
44	207.8658950328827	fix_post	2		12	42.0	2.5	/experiments/AOT/AOT_stimuli/rescaled_final/1976_rv.mp4	0.0	228.82330918312073	0.10003900527954102
45	207.96593403816223	fix_pre	0		120	43.0	2.5	/experiments/AOT/AOT_stimuli/rescaled_final/0118_rv.mp4	0.0	228.92334818840027	1.0000391006469727
45	208.9659731388092	movie	1		243	43.0	2.5	/experiments/AOT/AOT_stimuli/rescaled_final/0118_rv.mp4	0.0	229.92338728904724	2.500208854675293
45	209.35057997703552	pulse	1	t		43.0	2.5	/experiments/AOT/AOT_stimuli/rescaled_final/0118_rv.mp4	0.0	230.30799412727356	
45	210.94205713272095	pulse	1	t		43.0	2.5	/experiments/AOT/AOT_stimuli/rescaled_final/0118_rv.mp4	0.0	231.89947128295898	
45	211.4661819934845	fix_post	2		12	43.0	2.5	/experiments/AOT/AOT_stimuli/rescaled_final/0118_rv.mp4	0.0	232.42359614372253	0.09965896606445312
46	211.56584095954895	fix_pre	0		119	44.0	2.5	/experiments/AOT/AOT_stimuli/rescaled_final/1028_rv.mp4	0.0	232.523255109787	0.9916729927062988
46	212.5494680404663	pulse	0	t		44.0	2.5	/experiments/AOT/AOT_stimuli/rescaled_final/1028_rv.mp4	0.0	233.50688219070435	
46	212.55751395225525	movie	1		248	44.0	2.5	/experiments/AOT/AOT_stimuli/rescaled_final/1028_rv.mp4	0.0	233.5149281024933	2.5083911418914795
46	214.14910101890564	pulse	1	t		44.0	2.5	/experiments/AOT/AOT_stimuli/rescaled_final/1028_rv.mp4	0.0	235.10651516914368	
46	215.06590509414673	fix_post	2		12	44.0	2.5	/experiments/AOT/AOT_stimuli/rescaled_final/1028_rv.mp4	0.0	236.02331924438477	0.10000991821289062
47	215.16591501235962	fix_pre	0		120	45.0	2.5	/experiments/AOT/AOT_stimuli/rescaled_final/1666_rv.mp4	0.0	236.12332916259766	0.9999330043792725
47	215.7494020462036	pulse	0	t		45.0	2.5	/experiments/AOT/AOT_stimuli/rescaled_final/1666_rv.mp4	0.0	236.70681619644165	
47	216.1658480167389	movie	1		243	45.0	2.5	/experiments/AOT/AOT_stimuli/rescaled_final/1666_rv.mp4	0.0	237.12326216697693	2.499763011932373
47	217.34942603111267	pulse	1	t		45.0	2.5	/experiments/AOT/AOT_stimuli/rescaled_final/1666_rv.mp4	0.0	238.3068401813507	
47	218.66561102867126	fix_post	2		12	45.0	2.5	/experiments/AOT/AOT_stimuli/rescaled_final/1666_rv.mp4	0.0	239.6230251789093	0.10022401809692383
48	218.7658350467682	fix_pre	0		120	46.0	2.5	/experiments/AOT/AOT_stimuli/rescaled_final/1548_fw.mp4	0.0	239.72324919700623	1.0000760555267334
48	218.94189715385437	pulse	0	t		46.0	2.5	/experiments/AOT/AOT_stimuli/rescaled_final/1548_fw.mp4	0.0	239.8993113040924	
48	219.76591110229492	movie	1		247	46.0	2.5	/experiments/AOT/AOT_stimuli/rescaled_final/1548_fw.mp4	0.0	240.72332525253296	2.49992299079895
48	220.5420310497284	pulse	1	t		46.0	2.5	/experiments/AOT/AOT_stimuli/rescaled_final/1548_fw.mp4	0.0	241.49944519996643	
48	222.14739513397217	pulse	1	t		46.0	2.5	/experiments/AOT/AOT_stimuli/rescaled_final/1548_fw.mp4	0.0	243.1048092842102	
48	222.26583409309387	fix_post	2		12	46.0	2.5	/experiments/AOT/AOT_stimuli/rescaled_final/1548_fw.mp4	0.0	243.2232482433319	0.09964108467102051
49	222.3654751777649	fix_pre	0		120	47.0	2.5	/experiments/AOT/AOT_stimuli/rescaled_final/0473_rv.mp4	0.0	243.32288932800293	0.9999849796295166
49	223.3654601573944	movie	1		245	47.0	2.5	/experiments/AOT/AOT_stimuli/rescaled_final/0473_rv.mp4	0.0	244.32287430763245	2.4999499320983887
49	223.74867010116577	pulse	1	t		47.0	2.5	/experiments/AOT/AOT_stimuli/rescaled_final/0473_rv.mp4	0.0	244.7060842514038	
49	225.34179306030273	pulse	1	t		47.0	2.5	/experiments/AOT/AOT_stimuli/rescaled_final/0473_rv.mp4	0.0	246.29920721054077	
49	225.8654100894928	fix_post	2		12	47.0	2.5	/experiments/AOT/AOT_stimuli/rescaled_final/0473_rv.mp4	0.0	246.82282423973083	0.1004490852355957
50	225.9658591747284	fix_pre	0		119	48.0	2.5	blank	1.0	246.92327332496643	0.991663932800293
50	226.94181609153748	pulse	0	t		48.0	2.5	blank	1.0	247.8992302417755	
50	226.9575231075287	movie	1		301	48.0	2.5	blank	1.0	247.91493725776672	2.5082850456237793
50	228.54931807518005	pulse	1	t		48.0	2.5	blank	1.0	249.5067322254181	
50	229.46580815315247	fix_post	2		12	48.0	2.5	blank	1.0	250.4232223033905	0.10005593299865723
51	229.56586408615112	fix_pre	0		120	49.0	2.5	/experiments/AOT/AOT_stimuli/rescaled_final/1050_rv.mp4	0.0	250.52327823638916	0.9999079704284668
51	230.14930701255798	pulse	0	t		49.0	2.5	/experiments/AOT/AOT_stimuli/rescaled_final/1050_rv.mp4	0.0	251.10672116279602	
51	230.5657720565796	movie	1		243	49.0	2.5	/experiments/AOT/AOT_stimuli/rescaled_final/1050_rv.mp4	0.0	251.52318620681763	2.4996418952941895
51	231.74931597709656	pulse	1	t		49.0	2.5	/experiments/AOT/AOT_stimuli/rescaled_final/1050_rv.mp4	0.0	252.7067301273346	
51	233.06541395187378	fix_post	2		12	49.0	2.5	/experiments/AOT/AOT_stimuli/rescaled_final/1050_rv.mp4	0.0	254.02282810211182	0.10035300254821777
52	233.165766954422	fix_pre	0		120	50.0	2.5	/experiments/AOT/AOT_stimuli/rescaled_final/0541_fw.mp4	0.0	254.12318110466003	0.9999761581420898
52	233.34931802749634	pulse	0	t		50.0	2.5	/experiments/AOT/AOT_stimuli/rescaled_final/0541_fw.mp4	0.0	254.30673217773438	
52	234.1657431125641	movie	1		245	50.0	2.5	/experiments/AOT/AOT_stimuli/rescaled_final/0541_fw.mp4	0.0	255.12315726280212	2.500062942504883
52	234.94180607795715	pulse	1	t		50.0	2.5	/experiments/AOT/AOT_stimuli/rescaled_final/0541_fw.mp4	0.0	255.8992202281952	
52	236.54524612426758	pulse	1	t		50.0	2.5	/experiments/AOT/AOT_stimuli/rescaled_final/0541_fw.mp4	0.0	257.5026602745056	
52	236.66580605506897	fix_post	2		12	50.0	2.5	/experiments/AOT/AOT_stimuli/rescaled_final/0541_fw.mp4	0.0	257.623220205307	0.0998990535736084
53	236.76570510864258	fix_pre	0		120	51.0	2.5	/experiments/AOT/AOT_stimuli/rescaled_final/0524_rv.mp4	0.0	257.7231192588806	1.0000200271606445
53	237.76572513580322	movie	1		245	51.0	2.5	/experiments/AOT/AOT_stimuli/rescaled_final/0524_rv.mp4	0.0	258.72313928604126	2.5000948905944824
53	238.14874815940857	pulse	1	t		51.0	2.5	/experiments/AOT/AOT_stimuli/rescaled_final/0524_rv.mp4	0.0	259.1061623096466	
53	239.7418999671936	pulse	1	t		51.0	2.5	/experiments/AOT/AOT_stimuli/rescaled_final/0524_rv.mp4	0.0	260.69931411743164	
53	240.2658200263977	fix_post	2		12	51.0	2.5	/experiments/AOT/AOT_stimuli/rescaled_final/0524_rv.mp4	0.0	261.22323417663574	0.09995007514953613
54	240.36577010154724	fix_pre	0		119	52.0	2.5	/experiments/AOT/AOT_stimuli/rescaled_final/0198_fw.mp4	0.0	261.3231842517853	0.9916589260101318
54	241.34174609184265	pulse	0	t		52.0	2.5	/experiments/AOT/AOT_stimuli/rescaled_final/0198_fw.mp4	0.0	262.2991602420807	
54	241.35742902755737	movie	1		247	52.0	2.5	/experiments/AOT/AOT_stimuli/rescaled_final/0198_fw.mp4	0.0	262.3148431777954	2.5079400539398193
54	242.94891715049744	pulse	1	t		52.0	2.5	/experiments/AOT/AOT_stimuli/rescaled_final/0198_fw.mp4	0.0	263.9063313007355	
54	243.8653690814972	fix_post	2		12	52.0	2.5	/experiments/AOT/AOT_stimuli/rescaled_final/0198_fw.mp4	0.0	264.82278323173523	0.1000359058380127
55	243.9654049873352	fix_pre	0		120	53.0	2.5	/experiments/AOT/AOT_stimuli/rescaled_final/1638_rv.mp4	0.0	264.92281913757324	1.000399112701416
55	244.54927611351013	pulse	0	t		53.0	2.5	/experiments/AOT/AOT_stimuli/rescaled_final/1638_rv.mp4	0.0	265.50669026374817	
55	244.96580410003662	movie	1		245	53.0	2.5	/experiments/AOT/AOT_stimuli/rescaled_final/1638_rv.mp4	0.0	265.92321825027466	2.4999940395355225
55	246.1421971321106	pulse	1	t		53.0	2.5	/experiments/AOT/AOT_stimuli/rescaled_final/1638_rv.mp4	0.0	267.09961128234863	
55	247.46579813957214	fix_post	2		12	53.0	2.5	/experiments/AOT/AOT_stimuli/rescaled_final/1638_rv.mp4	0.0	268.4232122898102	0.09997797012329102
56	247.56577610969543	fix_pre	0		120	54.0	2.5	/experiments/AOT/AOT_stimuli/rescaled_final/1465_fw.mp4	0.0	268.5231902599335	0.9999380111694336
56	247.74925208091736	pulse	0	t		54.0	2.5	/experiments/AOT/AOT_stimuli/rescaled_final/1465_fw.mp4	0.0	268.7066662311554	
56	248.56571412086487	movie	1		244	54.0	2.5	/experiments/AOT/AOT_stimuli/rescaled_final/1465_fw.mp4	0.0	269.5231282711029	2.499556064605713
56	249.349200963974	pulse	1	t		54.0	2.5	/experiments/AOT/AOT_stimuli/rescaled_final/1465_fw.mp4	0.0	270.30661511421204	
56	250.94776701927185	pulse	1	t		54.0	2.5	/experiments/AOT/AOT_stimuli/rescaled_final/1465_fw.mp4	0.0	271.9051811695099	
56	251.06527018547058	fix_post	2		12	54.0	2.5	/experiments/AOT/AOT_stimuli/rescaled_final/1465_fw.mp4	0.0	272.0226843357086	0.10006999969482422
57	251.1653401851654	fix_pre	0		120	55.0	2.5	/experiments/AOT/AOT_stimuli/rescaled_final/1569_fw.mp4	0.0	272.12275433540344	1.0003437995910645
57	252.16568398475647	movie	1		244	55.0	2.5	/experiments/AOT/AOT_stimuli/rescaled_final/1569_fw.mp4	0.0	273.1230981349945	2.5000391006469727
57	252.55030798912048	pulse	1	t		55.0	2.5	/experiments/AOT/AOT_stimuli/rescaled_final/1569_fw.mp4	0.0	273.5077221393585	
57	254.14181113243103	pulse	1	t		55.0	2.5	/experiments/AOT/AOT_stimuli/rescaled_final/1569_fw.mp4	0.0	275.09922528266907	
57	254.66572308540344	fix_post	2		12	55.0	2.5	/experiments/AOT/AOT_stimuli/rescaled_final/1569_fw.mp4	0.0	275.6231372356415	0.09997701644897461
58	254.76570010185242	fix_pre	0		119	56.0	2.5	blank	1.0	275.72311425209045	0.9916880130767822
58	255.74164700508118	pulse	0	t		56.0	2.5	blank	1.0	276.6990611553192	
58	255.7573881149292	movie	1		301	56.0	2.5	blank	1.0	276.71480226516724	2.5083389282226562
58	257.34173798561096	pulse	1	t		56.0	2.5	blank	1.0	278.299152135849	
58	258.26572704315186	fix_post	2		12	56.0	2.5	blank	1.0	279.2231411933899	0.0999751091003418
59	258.3657021522522	fix_pre	0		120	57.0	2.5	/experiments/AOT/AOT_stimuli/rescaled_final/1894_rv.mp4	0.0	279.32311630249023	0.9999978542327881
59	258.94173216819763	pulse	0	t		57.0	2.5	/experiments/AOT/AOT_stimuli/rescaled_final/1894_rv.mp4	0.0	279.89914631843567	
59	259.365700006485	movie	1		246	57.0	2.5	/experiments/AOT/AOT_stimuli/rescaled_final/1894_rv.mp4	0.0	280.323114156723	2.4999611377716064
59	260.54931116104126	pulse	1	t		57.0	2.5	/experiments/AOT/AOT_stimuli/rescaled_final/1894_rv.mp4	0.0	281.5067253112793	
59	261.8656611442566	fix_post	2		12	57.0	2.5	/experiments/AOT/AOT_stimuli/rescaled_final/1894_rv.mp4	0.0	282.82307529449463	0.10003089904785156
60	261.96569204330444	fix_pre	0		120	58.0	2.5	/experiments/AOT/AOT_stimuli/rescaled_final/1711_rv.mp4	0.0	282.9231061935425	1.0000519752502441
60	262.14923000335693	pulse	0	t		58.0	2.5	/experiments/AOT/AOT_stimuli/rescaled_final/1711_rv.mp4	0.0	283.10664415359497	
60	262.9657440185547	movie	1		246	58.0	2.5	/experiments/AOT/AOT_stimuli/rescaled_final/1711_rv.mp4	0.0	283.9231581687927	2.5000460147857666
60	263.7492561340332	pulse	1	t		58.0	2.5	/experiments/AOT/AOT_stimuli/rescaled_final/1711_rv.mp4	0.0	284.70667028427124	
60	265.34529304504395	pulse	1	t		58.0	2.5	/experiments/AOT/AOT_stimuli/rescaled_final/1711_rv.mp4	0.0	286.302707195282	
60	265.46579003334045	fix_post	2		12	58.0	2.5	/experiments/AOT/AOT_stimuli/rescaled_final/1711_rv.mp4	0.0	286.4232041835785	0.09997200965881348
61	265.56576204299927	fix_pre	0		120	59.0	2.5	/experiments/AOT/AOT_stimuli/rescaled_final/0769_rv.mp4	0.0	286.5231761932373	0.9998660087585449
61	266.5656280517578	movie	1		244	59.0	2.5	/experiments/AOT/AOT_stimuli/rescaled_final/0769_rv.mp4	0.0	287.52304220199585	2.4995789527893066
61	266.9489071369171	pulse	1	t		59.0	2.5	/experiments/AOT/AOT_stimuli/rescaled_final/0769_rv.mp4	0.0	287.90632128715515	
61	268.5491461753845	pulse	1	t		59.0	2.5	/experiments/AOT/AOT_stimuli/rescaled_final/0769_rv.mp4	0.0	289.50656032562256	
61	269.0652070045471	fix_post	2		12	59.0	2.5	/experiments/AOT/AOT_stimuli/rescaled_final/0769_rv.mp4	0.0	290.02262115478516	0.10040998458862305
62	269.16561698913574	fix_pre	0		119	60.0	2.5	/experiments/AOT/AOT_stimuli/rescaled_final/0473_rv.mp4	0.0	290.1230311393738	0.9916501045227051
62	270.14922404289246	pulse	0	t		60.0	2.5	/experiments/AOT/AOT_stimuli/rescaled_final/0473_rv.mp4	0.0	291.1066381931305	
62	270.15726709365845	movie	1		246	60.0	2.5	/experiments/AOT/AOT_stimuli/rescaled_final/0473_rv.mp4	0.0	291.1146812438965	2.5080058574676514
62	271.74919414520264	pulse	1	t		60.0	2.5	/experiments/AOT/AOT_stimuli/rescaled_final/0473_rv.mp4	0.0	292.7066082954407	
62	272.6652729511261	fix_post	2		12	60.0	2.5	/experiments/AOT/AOT_stimuli/rescaled_final/0473_rv.mp4	0.0	293.62268710136414	0.10028505325317383
63	272.7655580043793	fix_pre	0		120	61.0	2.5	blank	1.0	293.7229721546173	1.000110149383545
63	273.34161615371704	pulse	0	t		61.0	2.5	blank	1.0	294.2990303039551	
63	273.7656681537628	movie	1		300	61.0	2.5	blank	1.0	294.72308230400085	2.4999840259552
63	274.9416010379791	pulse	1	t		61.0	2.5	blank	1.0	295.89901518821716	
63	276.265652179718	fix_post	2		12	61.0	2.5	blank	1.0	297.22306632995605	0.10001897811889648
64	276.3656711578369	fix_pre	0		120	62.0	2.5	/experiments/AOT/AOT_stimuli/rescaled_final/1141_rv.mp4	0.0	297.32308530807495	0.999957799911499
64	276.5493061542511	pulse	0	t		62.0	2.5	/experiments/AOT/AOT_stimuli/rescaled_final/1141_rv.mp4	0.0	297.50672030448914	
64	277.3656289577484	movie	1		244	62.0	2.5	/experiments/AOT/AOT_stimuli/rescaled_final/1141_rv.mp4	0.0	298.32304310798645	2.4997220039367676
64	278.1491551399231	pulse	1	t		62.0	2.5	/experiments/AOT/AOT_stimuli/rescaled_final/1141_rv.mp4	0.0	299.10656929016113	
64	279.74780106544495	pulse	1	t		62.0	2.5	/experiments/AOT/AOT_stimuli/rescaled_final/1141_rv.mp4	0.0	300.705215215683	
64	279.8653509616852	fix_post	2		12	62.0	2.5	/experiments/AOT/AOT_stimuli/rescaled_final/1141_rv.mp4	0.0	300.8227651119232	0.10001921653747559
65	279.96537017822266	fix_pre	0		120	63.0	2.5	/experiments/AOT/AOT_stimuli/rescaled_final/0953_rv.mp4	0.0	300.9227843284607	1.0000369548797607
65	280.9654071331024	movie	1		244	63.0	2.5	/experiments/AOT/AOT_stimuli/rescaled_final/0953_rv.mp4	0.0	301.92282128334045	2.5002388954162598
65	281.3500859737396	pulse	1	t		63.0	2.5	/experiments/AOT/AOT_stimuli/rescaled_final/0953_rv.mp4	0.0	302.30750012397766	
65	282.9490330219269	pulse	1	t		63.0	2.5	/experiments/AOT/AOT_stimuli/rescaled_final/0953_rv.mp4	0.0	303.9064471721649	
65	283.4656460285187	fix_post	2		12	63.0	2.5	/experiments/AOT/AOT_stimuli/rescaled_final/0953_rv.mp4	0.0	304.4230601787567	0.09997415542602539
66	283.5656201839447	fix_pre	0		119	64.0	2.5	/experiments/AOT/AOT_stimuli/rescaled_final/1028_fw.mp4	0.0	304.52303433418274	0.9916567802429199
66	284.54913806915283	pulse	0	t		64.0	2.5	/experiments/AOT/AOT_stimuli/rescaled_final/1028_fw.mp4	0.0	305.50655221939087	
66	284.5572769641876	movie	1		251	64.0	2.5	/experiments/AOT/AOT_stimuli/rescaled_final/1028_fw.mp4	0.0	305.51469111442566	2.507845163345337
66	286.14887595176697	pulse	1	t		64.0	2.5	/experiments/AOT/AOT_stimuli/rescaled_final/1028_fw.mp4	0.0	307.106290102005	
66	287.06512212753296	fix_post	2		12	64.0	2.5	/experiments/AOT/AOT_stimuli/rescaled_final/1028_fw.mp4	0.0	308.022536277771	0.10000801086425781
67	287.1651301383972	fix_pre	0		120	65.0	2.5	/experiments/AOT/AOT_stimuli/rescaled_final/1277_fw.mp4	0.0	308.12254428863525	1.000398874282837
67	287.7490391731262	pulse	0	t		65.0	2.5	/experiments/AOT/AOT_stimuli/rescaled_final/1277_fw.mp4	0.0	308.70645332336426	
67	288.16552901268005	movie	1		246	65.0	2.5	/experiments/AOT/AOT_stimuli/rescaled_final/1277_fw.mp4	0.0	309.1229431629181	2.500149965286255
67	289.34157395362854	pulse	1	t		65.0	2.5	/experiments/AOT/AOT_stimuli/rescaled_final/1277_fw.mp4	0.0	310.2989881038666	
67	290.6656789779663	fix_post	2		12	65.0	2.5	/experiments/AOT/AOT_stimuli/rescaled_final/1277_fw.mp4	0.0	311.62309312820435	0.09977912902832031
68	290.76545810699463	fix_pre	0		120	66.0	2.5	/experiments/AOT/AOT_stimuli/rescaled_final/1711_rv.mp4	0.0	311.72287225723267	1.0000779628753662
68	290.94153809547424	pulse	0	t		66.0	2.5	/experiments/AOT/AOT_stimuli/rescaled_final/1711_rv.mp4	0.0	311.8989522457123	
68	291.76553606987	movie	1		244	66.0	2.5	/experiments/AOT/AOT_stimuli/rescaled_final/1711_rv.mp4	0.0	312.72295022010803	2.5000479221343994
68	292.5489909648895	pulse	1	t		66.0	2.5	/experiments/AOT/AOT_stimuli/rescaled_final/1711_rv.mp4	0.0	313.50640511512756	
68	294.1477019786835	pulse	1	t		66.0	2.5	/experiments/AOT/AOT_stimuli/rescaled_final/1711_rv.mp4	0.0	315.1051161289215	
68	294.2655839920044	fix_post	2		12	66.0	2.5	/experiments/AOT/AOT_stimuli/rescaled_final/1711_rv.mp4	0.0	315.22299814224243	0.0995180606842041
69	294.3651020526886	fix_pre	0		120	67.0	2.5	/experiments/AOT/AOT_stimuli/rescaled_final/1505_fw.mp4	0.0	315.32251620292664	1.0004680156707764
69	295.3655700683594	movie	1		245	67.0	2.5	/experiments/AOT/AOT_stimuli/rescaled_final/1505_fw.mp4	0.0	316.3229842185974	2.499882936477661
69	295.7487349510193	pulse	1	t		67.0	2.5	/experiments/AOT/AOT_stimuli/rescaled_final/1505_fw.mp4	0.0	316.7061491012573	
69	297.3490309715271	pulse	1	t		67.0	2.5	/experiments/AOT/AOT_stimuli/rescaled_final/1505_fw.mp4	0.0	318.30644512176514	
69	297.86545300483704	fix_post	2		12	67.0	2.5	/experiments/AOT/AOT_stimuli/rescaled_final/1505_fw.mp4	0.0	318.8228671550751	0.10002994537353516
70	297.96548295021057	fix_pre	0		119	68.0	2.5	/experiments/AOT/AOT_stimuli/rescaled_final/1914_rv.mp4	0.0	318.9228971004486	0.9917290210723877
70	298.94909501075745	pulse	0	t		68.0	2.5	/experiments/AOT/AOT_stimuli/rescaled_final/1914_rv.mp4	0.0	319.9065091609955	
70	298.95721197128296	movie	1		246	68.0	2.5	/experiments/AOT/AOT_stimuli/rescaled_final/1914_rv.mp4	0.0	319.914626121521	2.5082290172576904
70	300.5492181777954	pulse	1	t		68.0	2.5	/experiments/AOT/AOT_stimuli/rescaled_final/1914_rv.mp4	0.0	321.50663232803345	
70	301.46544098854065	fix_post	2		12	68.0	2.5	/experiments/AOT/AOT_stimuli/rescaled_final/1914_rv.mp4	0.0	322.4228551387787	0.10001397132873535
71	301.5654549598694	fix_pre	0		120	69.0	2.5	blank	1.0	322.5228691101074	0.9995770454406738
71	302.1490240097046	pulse	0	t		69.0	2.5	blank	1.0	323.1064381599426	
71	302.56503200531006	movie	1		300	69.0	2.5	blank	1.0	323.5224461555481	2.500040054321289
71	303.7490110397339	pulse	1	t		69.0	2.5	blank	1.0	324.7064251899719	
71	305.06507205963135	fix_post	2		12	69.0	2.5	blank	1.0	326.0224862098694	0.10042905807495117
72	305.1655011177063	fix_pre	0		120	70.0	2.5	/experiments/AOT/AOT_stimuli/rescaled_final/0476_fw.mp4	0.0	326.12291526794434	0.9999308586120605
72	305.34152913093567	pulse	0	t		70.0	2.5	/experiments/AOT/AOT_stimuli/rescaled_final/0476_fw.mp4	0.0	326.2989432811737	
72	306.16543197631836	movie	1		246	70.0	2.5	/experiments/AOT/AOT_stimuli/rescaled_final/0476_fw.mp4	0.0	327.1228461265564	2.5000710487365723
72	306.94153118133545	pulse	1	t		70.0	2.5	/experiments/AOT/AOT_stimuli/rescaled_final/0476_fw.mp4	0.0	327.8989453315735	
72	308.5476071834564	pulse	1	t		70.0	2.5	/experiments/AOT/AOT_stimuli/rescaled_final/0476_fw.mp4	0.0	329.50502133369446	
72	308.66550302505493	fix_post	2		12	70.0	2.5	/experiments/AOT/AOT_stimuli/rescaled_final/0476_fw.mp4	0.0	329.62291717529297	0.09999513626098633
73	308.7654981613159	fix_pre	0		120	71.0	2.5	/experiments/AOT/AOT_stimuli/rescaled_final/0856_fw.mp4	0.0	329.72291231155396	1.0000309944152832
73	309.7655291557312	movie	1		245	71.0	2.5	/experiments/AOT/AOT_stimuli/rescaled_final/0856_fw.mp4	0.0	330.72294330596924	2.499871015548706
73	310.14859795570374	pulse	1	t		71.0	2.5	/experiments/AOT/AOT_stimuli/rescaled_final/0856_fw.mp4	0.0	331.1060121059418	
73	311.74894309043884	pulse	1	t		71.0	2.5	/experiments/AOT/AOT_stimuli/rescaled_final/0856_fw.mp4	0.0	332.7063572406769	
73	312.2654001712799	fix_post	2		12	71.0	2.5	/experiments/AOT/AOT_stimuli/rescaled_final/0856_fw.mp4	0.0	333.22281432151794	0.10010981559753418
74	312.36550998687744	fix_pre	0		119	72.0	2.5	/experiments/AOT/AOT_stimuli/rescaled_final/2031_fw.mp4	0.0	333.3229241371155	0.9915471076965332
74	313.34899711608887	pulse	0	t		72.0	2.5	/experiments/AOT/AOT_stimuli/rescaled_final/2031_fw.mp4	0.0	334.3064112663269	
74	313.357057094574	movie	1		246	72.0	2.5	/experiments/AOT/AOT_stimuli/rescaled_final/2031_fw.mp4	0.0	334.314471244812	2.5083420276641846
74	314.9491801261902	pulse	1	t		72.0	2.5	/experiments/AOT/AOT_stimuli/rescaled_final/2031_fw.mp4	0.0	335.9065942764282	
74	315.86539912223816	fix_post	2		12	72.0	2.5	/experiments/AOT/AOT_stimuli/rescaled_final/2031_fw.mp4	0.0	336.8228132724762	0.10005903244018555
75	315.96545815467834	fix_pre	0		120	73.0	2.5	/experiments/AOT/AOT_stimuli/rescaled_final/1552_fw.mp4	0.0	336.9228723049164	1.0000479221343994
75	316.5490560531616	pulse	0	t		73.0	2.5	/experiments/AOT/AOT_stimuli/rescaled_final/1552_fw.mp4	0.0	337.50647020339966	
75	316.96550607681274	movie	1		244	73.0	2.5	/experiments/AOT/AOT_stimuli/rescaled_final/1552_fw.mp4	0.0	337.9229202270508	2.499871015548706
75	318.149080991745	pulse	1	t		73.0	2.5	/experiments/AOT/AOT_stimuli/rescaled_final/1552_fw.mp4	0.0	339.10649514198303	
75	319.46537709236145	fix_post	2		12	73.0	2.5	/experiments/AOT/AOT_stimuli/rescaled_final/1552_fw.mp4	0.0	340.4227912425995	0.10013508796691895
76	319.56551218032837	fix_pre	0		120	74.0	2.5	/experiments/AOT/AOT_stimuli/rescaled_final/0133_rv.mp4	0.0	340.5229263305664	0.999992847442627
76	319.7489581108093	pulse	0	t		74.0	2.5	/experiments/AOT/AOT_stimuli/rescaled_final/0133_rv.mp4	0.0	340.70637226104736	
76	320.565505027771	movie	1		243	74.0	2.5	/experiments/AOT/AOT_stimuli/rescaled_final/0133_rv.mp4	0.0	341.52291917800903	2.499850034713745
76	321.3489799499512	pulse	1	t		74.0	2.5	/experiments/AOT/AOT_stimuli/rescaled_final/0133_rv.mp4	0.0	342.3063941001892	
76	322.9474401473999	pulse	1	t		74.0	2.5	/experiments/AOT/AOT_stimuli/rescaled_final/0133_rv.mp4	0.0	343.90485429763794	
76	323.06535506248474	fix_post	2		12	74.0	2.5	/experiments/AOT/AOT_stimuli/rescaled_final/0133_rv.mp4	0.0	344.0227692127228	0.10003995895385742
77	323.1653950214386	fix_pre	0		120	75.0	2.5	/experiments/AOT/AOT_stimuli/rescaled_final/0074_rv.mp4	0.0	344.12280917167664	0.9996230602264404
77	324.16501808166504	movie	1		245	75.0	2.5	/experiments/AOT/AOT_stimuli/rescaled_final/0074_rv.mp4	0.0	345.1224322319031	2.499911069869995
77	324.54841017723083	pulse	1	t		75.0	2.5	/experiments/AOT/AOT_stimuli/rescaled_final/0074_rv.mp4	0.0	345.5058243274689	
77	326.1489360332489	pulse	1	t		75.0	2.5	/experiments/AOT/AOT_stimuli/rescaled_final/0074_rv.mp4	0.0	347.10635018348694	
77	326.66492915153503	fix_post	2		12	75.0	2.5	/experiments/AOT/AOT_stimuli/rescaled_final/0074_rv.mp4	0.0	347.62234330177307	0.10045099258422852
78	326.76538014411926	fix_pre	0		119	76.0	2.5	/experiments/AOT/AOT_stimuli/rescaled_final/1804_fw.mp4	0.0	347.7227942943573	0.9916458129882812
78	327.74889516830444	pulse	0	t		76.0	2.5	/experiments/AOT/AOT_stimuli/rescaled_final/1804_fw.mp4	0.0	348.7063093185425	
78	327.75702595710754	movie	1		247	76.0	2.5	/experiments/AOT/AOT_stimuli/rescaled_final/1804_fw.mp4	0.0	348.7144401073456	2.508017063140869
78	329.3488471508026	pulse	1	t		76.0	2.5	/experiments/AOT/AOT_stimuli/rescaled_final/1804_fw.mp4	0.0	350.30626130104065	
78	330.2650430202484	fix_post	2		12	76.0	2.5	/experiments/AOT/AOT_stimuli/rescaled_final/1804_fw.mp4	0.0	351.22245717048645	0.09995698928833008
79	330.36500000953674	fix_pre	0		120	77.0	2.5	blank	1.0	351.3224141597748	1.0000581741333008
79	330.94259095191956	pulse	0	t		77.0	2.5	blank	1.0	351.9000051021576	
79	331.36505818367004	movie	1		300	77.0	2.5	blank	1.0	352.3224723339081	2.500443935394287
79	332.5489091873169	pulse	1	t		77.0	2.5	blank	1.0	353.50632333755493	
79	333.86550211906433	fix_post	2		12	77.0	2.5	blank	1.0	354.82291626930237	0.09949588775634766
80	333.9649980068207	fix_pre	0		120	78.0	2.5	/experiments/AOT/AOT_stimuli/rescaled_final/1277_rv.mp4	0.0	354.9224121570587	1.000035047531128
80	334.14847803115845	pulse	0	t		78.0	2.5	/experiments/AOT/AOT_stimuli/rescaled_final/1277_rv.mp4	0.0	355.1058921813965	
80	334.9650330543518	movie	1		247	78.0	2.5	/experiments/AOT/AOT_stimuli/rescaled_final/1277_rv.mp4	0.0	355.92244720458984	2.500272035598755
80	335.7489080429077	pulse	1	t		78.0	2.5	/experiments/AOT/AOT_stimuli/rescaled_final/1277_rv.mp4	0.0	356.70632219314575	
80	337.34486198425293	pulse	1	t		78.0	2.5	/experiments/AOT/AOT_stimuli/rescaled_final/1277_rv.mp4	0.0	358.30227613449097	
80	337.46530508995056	fix_post	2		12	78.0	2.5	/experiments/AOT/AOT_stimuli/rescaled_final/1277_rv.mp4	0.0	358.4227192401886	0.10008597373962402
81	337.5653910636902	fix_pre	0		120	79.0	2.5	/experiments/AOT/AOT_stimuli/rescaled_final/1271_fw.mp4	0.0	358.5228052139282	0.9995250701904297
81	338.5649161338806	movie	1		245	79.0	2.5	/experiments/AOT/AOT_stimuli/rescaled_final/1271_fw.mp4	0.0	359.52233028411865	2.500432014465332
81	338.9499011039734	pulse	1	t		79.0	2.5	/experiments/AOT/AOT_stimuli/rescaled_final/1271_fw.mp4	0.0	359.9073152542114	
81	340.54883098602295	pulse	1	t		79.0	2.5	/experiments/AOT/AOT_stimuli/rescaled_final/1271_fw.mp4	0.0	361.506245136261	
81	341.06534814834595	fix_post	2		12	79.0	2.5	/experiments/AOT/AOT_stimuli/rescaled_final/1271_fw.mp4	0.0	362.022762298584	0.0999758243560791
82	341.165323972702	fix_pre	0		119	80.0	2.5	/experiments/AOT/AOT_stimuli/rescaled_final/1381_fw.mp4	0.0	362.12273812294006	0.9916870594024658
82	342.1488461494446	pulse	0	t		80.0	2.5	/experiments/AOT/AOT_stimuli/rescaled_final/1381_fw.mp4	0.0	363.1062602996826	
82	342.1570110321045	movie	1		245	80.0	2.5	/experiments/AOT/AOT_stimuli/rescaled_final/1381_fw.mp4	0.0	363.11442518234253	2.508315086364746
82	343.748605966568	pulse	1	t		80.0	2.5	/experiments/AOT/AOT_stimuli/rescaled_final/1381_fw.mp4	0.0	364.70602011680603	
82	344.66532611846924	fix_post	2		12	80.0	2.5	/experiments/AOT/AOT_stimuli/rescaled_final/1381_fw.mp4	0.0	365.6227402687073	0.10006284713745117
83	344.7653889656067	fix_pre	0		120	81.0	2.5	/experiments/AOT/AOT_stimuli/rescaled_final/1512_rv.mp4	0.0	365.7228031158447	0.9998641014099121
83	345.3488049507141	pulse	0	t		81.0	2.5	/experiments/AOT/AOT_stimuli/rescaled_final/1512_rv.mp4	0.0	366.30621910095215	
83	345.7652530670166	movie	1		244	81.0	2.5	/experiments/AOT/AOT_stimuli/rescaled_final/1512_rv.mp4	0.0	366.72266721725464	2.5000131130218506
83	346.94887495040894	pulse	1	t		81.0	2.5	/experiments/AOT/AOT_stimuli/rescaled_final/1512_rv.mp4	0.0	367.906289100647	
83	348.26526618003845	fix_post	2		12	81.0	2.5	/experiments/AOT/AOT_stimuli/rescaled_final/1512_rv.mp4	0.0	369.2226803302765	0.09998393058776855
84	348.3652501106262	fix_pre	0		120	82.0	2.5	blank	1.0	369.32266426086426	1.0000040531158447
84	348.5487561225891	pulse	0	t		82.0	2.5	blank	1.0	369.50617027282715	
84	349.36525416374207	movie	1		300	82.0	2.5	blank	1.0	370.3226683139801	2.499581813812256
84	350.14882016181946	pulse	1	t		82.0	2.5	blank	1.0	371.1062343120575	
84	351.7486729621887	pulse	1	t		82.0	2.5	blank	1.0	372.70608711242676	
84	351.8648359775543	fix_post	2		12	82.0	2.5	blank	1.0	372.82225012779236	0.10038399696350098
85	351.9652199745178	fix_pre	0		120	83.0	2.5	/experiments/AOT/AOT_stimuli/rescaled_final/1423_rv.mp4	0.0	372.92263412475586	1.0001661777496338
85	352.96538615226746	movie	1		245	83.0	2.5	/experiments/AOT/AOT_stimuli/rescaled_final/1423_rv.mp4	0.0	373.9228003025055	2.4998228549957275
85	353.34827709198	pulse	1	t		83.0	2.5	/experiments/AOT/AOT_stimuli/rescaled_final/1423_rv.mp4	0.0	374.305691242218	
85	354.94869112968445	pulse	1	t		83.0	2.5	/experiments/AOT/AOT_stimuli/rescaled_final/1423_rv.mp4	0.0	375.9061052799225	
85	355.4652090072632	fix_post	2		12	83.0	2.5	/experiments/AOT/AOT_stimuli/rescaled_final/1423_rv.mp4	0.0	376.4226231575012	0.09961104393005371
87	355.56482005119324	stim	0		1716					376.5222342014313	14.300427913665771
87	356.5487389564514	pulse	0	t						377.50615310668945	
87	358.1487090587616	pulse	0	t						379.10612320899963	
87	359.74877405166626	pulse	0	t						380.7061882019043	
87	361.34872007369995	pulse	0	t						382.306134223938	
87	362.9486951828003	pulse	0	t						383.90610933303833	
87	364.5486841201782	pulse	0	t						385.50609827041626	
87	366.14869499206543	pulse	0	t						387.10610914230347	
87	367.7486619949341	pulse	0	t						388.7060761451721	
87	369.34869408607483	pulse	0	t						390.30610823631287	
