trial_nr	onset	event_type	phase	response	nr_frames	movie_index	movie_duration	movie_file	blank	onset_abs	duration
0	0.1503920555114746	stim	0		95					21.199427127838135	0.7915859222412109
0	0.9339599609375	response	0	space						21.98299503326416	
1	0.9419779777526855	stim	0		2390					21.991013050079346	19.91662907600403
1	20.853629112243652	pulse	0	t						41.90266418457031	
1	20.858607053756714	stim	1		1717					41.907642126083374	14.308320999145508
1	22.450464010238647	pulse	1	t						43.49949908256531	
1	24.050331115722656	pulse	1	t						45.099366188049316	
1	25.65033793449402	pulse	1	t						46.69937300682068	
1	27.250389099121094	pulse	1	t						48.299424171447754	
1	28.85035800933838	pulse	1	t						49.89939308166504	
1	30.450277090072632	pulse	1	t						51.49931216239929	
1	32.05031895637512	pulse	1	t						53.09935402870178	
1	33.650346994400024	pulse	1	t						54.699382066726685	
2	35.16692805290222	fix_pre	0		11	0.0	2.5	/experiments/AOT/AOT_stimuli/rescaled_final/1466_fw.mp4	0.0	56.21596312522888	0.0915989875793457
2	35.25039196014404	pulse	0	t		0.0	2.5	/experiments/AOT/AOT_stimuli/rescaled_final/1466_fw.mp4	0.0	56.2994270324707	
2	35.25852704048157	movie	1		244	0.0	2.5	/experiments/AOT/AOT_stimuli/rescaled_final/1466_fw.mp4	0.0	56.30756211280823	2.508297920227051
2	36.85162591934204	pulse	1	t		0.0	2.5	/experiments/AOT/AOT_stimuli/rescaled_final/1466_fw.mp4	0.0	57.9006609916687	
2	37.76682496070862	fix_post	2		12	0.0	2.5	/experiments/AOT/AOT_stimuli/rescaled_final/1466_fw.mp4	0.0	58.81586003303528	0.1000051498413086
3	37.86683011054993	fix_pre	0		120	1.0	2.5	/experiments/AOT/AOT_stimuli/rescaled_final/1604_rv.mp4	0.0	58.91586518287659	1.000025987625122
3	38.45028805732727	pulse	0	t		1.0	2.5	/experiments/AOT/AOT_stimuli/rescaled_final/1604_rv.mp4	0.0	59.49932312965393	
3	38.86685609817505	movie	1		243	1.0	2.5	/experiments/AOT/AOT_stimuli/rescaled_final/1604_rv.mp4	0.0	59.91589117050171	2.4995908737182617
3	40.05048608779907	pulse	1	t		1.0	2.5	/experiments/AOT/AOT_stimuli/rescaled_final/1604_rv.mp4	0.0	61.09952116012573	
3	41.36644697189331	fix_post	2		12	1.0	2.5	/experiments/AOT/AOT_stimuli/rescaled_final/1604_rv.mp4	0.0	62.41548204421997	0.10039901733398438
4	41.466845989227295	fix_pre	0		120	2.0	2.5	/experiments/AOT/AOT_stimuli/rescaled_final/1605_rv.mp4	0.0	62.515881061553955	1.0000500679016113
4	41.65027904510498	pulse	0	t		2.0	2.5	/experiments/AOT/AOT_stimuli/rescaled_final/1605_rv.mp4	0.0	62.69931411743164	
4	42.466896057128906	movie	1		244	2.0	2.5	/experiments/AOT/AOT_stimuli/rescaled_final/1605_rv.mp4	0.0	63.515931129455566	2.4994819164276123
4	43.25036311149597	pulse	1	t		2.0	2.5	/experiments/AOT/AOT_stimuli/rescaled_final/1605_rv.mp4	0.0	64.29939818382263	
4	44.84908699989319	pulse	1	t		2.0	2.5	/experiments/AOT/AOT_stimuli/rescaled_final/1605_rv.mp4	0.0	65.89812207221985	
4	44.96637797355652	fix_post	2		12	2.0	2.5	/experiments/AOT/AOT_stimuli/rescaled_final/1605_rv.mp4	0.0	66.01541304588318	0.10050296783447266
5	45.06688094139099	fix_pre	0		120	3.0	2.5	/experiments/AOT/AOT_stimuli/rescaled_final/0508_rv.mp4	0.0	66.11591601371765	0.9998760223388672
5	46.06675696372986	movie	1		245	3.0	2.5	/experiments/AOT/AOT_stimuli/rescaled_final/0508_rv.mp4	0.0	67.11579203605652	2.5000481605529785
5	46.44991612434387	pulse	1	t		3.0	2.5	/experiments/AOT/AOT_stimuli/rescaled_final/0508_rv.mp4	0.0	67.49895119667053	
5	48.050297021865845	pulse	1	t		3.0	2.5	/experiments/AOT/AOT_stimuli/rescaled_final/0508_rv.mp4	0.0	69.0993320941925	
5	48.56680512428284	fix_post	2		12	3.0	2.5	/experiments/AOT/AOT_stimuli/rescaled_final/0508_rv.mp4	0.0	69.6158401966095	0.09999394416809082
6	48.66679906845093	fix_pre	0		119	4.0	2.5	/experiments/AOT/AOT_stimuli/rescaled_final/0709_rv.mp4	0.0	69.71583414077759	0.9915540218353271
6	49.65029692649841	pulse	0	t		4.0	2.5	/experiments/AOT/AOT_stimuli/rescaled_final/0709_rv.mp4	0.0	70.69933199882507	
6	49.658353090286255	movie	1		244	4.0	2.5	/experiments/AOT/AOT_stimuli/rescaled_final/0709_rv.mp4	0.0	70.70738816261292	2.5084760189056396
6	51.25003099441528	pulse	1	t		4.0	2.5	/experiments/AOT/AOT_stimuli/rescaled_final/0709_rv.mp4	0.0	72.29906606674194	
6	52.166829109191895	fix_post	2		11	4.0	2.5	/experiments/AOT/AOT_stimuli/rescaled_final/0709_rv.mp4	0.0	73.21586418151855	0.0999460220336914
7	52.266775131225586	fix_pre	0		120	5.0	2.5	/experiments/AOT/AOT_stimuli/rescaled_final/0690_rv.mp4	0.0	73.31581020355225	1.0000228881835938
7	52.85022497177124	pulse	0	t		5.0	2.5	/experiments/AOT/AOT_stimuli/rescaled_final/0690_rv.mp4	0.0	73.8992600440979	
7	53.26679801940918	movie	1		244	5.0	2.5	/experiments/AOT/AOT_stimuli/rescaled_final/0690_rv.mp4	0.0	74.31583309173584	2.4994890689849854
7	54.4502899646759	pulse	1	t		5.0	2.5	/experiments/AOT/AOT_stimuli/rescaled_final/0690_rv.mp4	0.0	75.49932503700256	
7	55.766287088394165	fix_post	2		12	5.0	2.5	/experiments/AOT/AOT_stimuli/rescaled_final/0690_rv.mp4	0.0	76.81532216072083	0.10048604011535645
8	55.86677312850952	fix_pre	0		120	6.0	2.5	blank	1.0	76.91580820083618	0.99997878074646
8	56.05029106140137	pulse	0	t		6.0	2.5	blank	1.0	77.09932613372803	
8	56.86675190925598	movie	1		300	6.0	2.5	blank	1.0	77.91578698158264	2.50002121925354
8	57.650299072265625	pulse	1	t		6.0	2.5	blank	1.0	78.69933414459229	
8	59.250226974487305	pulse	1	t		6.0	2.5	blank	1.0	80.29926204681396	
8	59.36677312850952	fix_post	2		12	6.0	2.5	blank	1.0	80.41580820083618	0.0999147891998291
9	59.46668791770935	fix_pre	0		120	7.0	2.5	/experiments/AOT/AOT_stimuli/rescaled_final/1356_fw.mp4	0.0	80.51572299003601	1.0000131130218506
9	60.4667010307312	movie	1		244	7.0	2.5	/experiments/AOT/AOT_stimuli/rescaled_final/1356_fw.mp4	0.0	81.51573610305786	2.500001907348633
9	60.850239992141724	pulse	1	t		7.0	2.5	/experiments/AOT/AOT_stimuli/rescaled_final/1356_fw.mp4	0.0	81.89927506446838	
9	62.4504599571228	pulse	1	t		7.0	2.5	/experiments/AOT/AOT_stimuli/rescaled_final/1356_fw.mp4	0.0	83.49949502944946	
9	62.966702938079834	fix_post	2		12	7.0	2.5	/experiments/AOT/AOT_stimuli/rescaled_final/1356_fw.mp4	0.0	84.0157380104065	0.09995198249816895
10	63.066654920578	fix_pre	0		119	8.0	2.5	/experiments/AOT/AOT_stimuli/rescaled_final/0874_fw.mp4	0.0	84.11568999290466	0.9917001724243164
10	64.0502679347992	pulse	0	t		8.0	2.5	/experiments/AOT/AOT_stimuli/rescaled_final/0874_fw.mp4	0.0	85.09930300712585	
10	64.05835509300232	movie	1		243	8.0	2.5	/experiments/AOT/AOT_stimuli/rescaled_final/0874_fw.mp4	0.0	85.10739016532898	2.5078940391540527
10	65.64958906173706	pulse	1	t		8.0	2.5	/experiments/AOT/AOT_stimuli/rescaled_final/0874_fw.mp4	0.0	86.69862413406372	
10	66.56624913215637	fix_post	2		12	8.0	2.5	/experiments/AOT/AOT_stimuli/rescaled_final/0874_fw.mp4	0.0	87.61528420448303	0.10045385360717773
11	66.66670298576355	fix_pre	0		120	9.0	2.5	/experiments/AOT/AOT_stimuli/rescaled_final/0427_fw.mp4	0.0	87.71573805809021	0.9999611377716064
11	67.25022196769714	pulse	0	t		9.0	2.5	/experiments/AOT/AOT_stimuli/rescaled_final/0427_fw.mp4	0.0	88.2992570400238	
11	67.66666412353516	movie	1		245	9.0	2.5	/experiments/AOT/AOT_stimuli/rescaled_final/0427_fw.mp4	0.0	88.71569919586182	2.500046968460083
11	68.85024905204773	pulse	1	t		9.0	2.5	/experiments/AOT/AOT_stimuli/rescaled_final/0427_fw.mp4	0.0	89.89928412437439	
11	70.16671109199524	fix_post	2		12	9.0	2.5	/experiments/AOT/AOT_stimuli/rescaled_final/0427_fw.mp4	0.0	91.2157461643219	0.10002899169921875
12	70.26674008369446	fix_pre	0		120	10.0	2.5	/experiments/AOT/AOT_stimuli/rescaled_final/0867_rv.mp4	0.0	91.31577515602112	0.9995198249816895
12	70.45021891593933	pulse	0	t		10.0	2.5	/experiments/AOT/AOT_stimuli/rescaled_final/0867_rv.mp4	0.0	91.49925398826599	
12	71.26625990867615	movie	1		243	10.0	2.5	/experiments/AOT/AOT_stimuli/rescaled_final/0867_rv.mp4	0.0	92.31529498100281	2.5002710819244385
12	72.05020499229431	pulse	1	t		10.0	2.5	/experiments/AOT/AOT_stimuli/rescaled_final/0867_rv.mp4	0.0	93.09924006462097	
12	73.64832806587219	pulse	1	t		10.0	2.5	/experiments/AOT/AOT_stimuli/rescaled_final/0867_rv.mp4	0.0	94.69736313819885	
12	73.76653099060059	fix_post	2		12	10.0	2.5	/experiments/AOT/AOT_stimuli/rescaled_final/0867_rv.mp4	0.0	94.81556606292725	0.10048413276672363
13	73.86701512336731	fix_pre	0		120	11.0	2.5	/experiments/AOT/AOT_stimuli/rescaled_final/1124_rv.mp4	0.0	94.91605019569397	0.9996747970581055
13	74.86668992042542	movie	1		245	11.0	2.5	/experiments/AOT/AOT_stimuli/rescaled_final/1124_rv.mp4	0.0	95.91572499275208	2.499958038330078
13	75.25008392333984	pulse	1	t		11.0	2.5	/experiments/AOT/AOT_stimuli/rescaled_final/1124_rv.mp4	0.0	96.2991189956665	
13	76.85007500648499	pulse	1	t		11.0	2.5	/experiments/AOT/AOT_stimuli/rescaled_final/1124_rv.mp4	0.0	97.89911007881165	
13	77.3666479587555	fix_post	2		12	11.0	2.5	/experiments/AOT/AOT_stimuli/rescaled_final/1124_rv.mp4	0.0	98.41568303108215	0.09997701644897461
14	77.46662497520447	fix_pre	0		119	12.0	2.5	/experiments/AOT/AOT_stimuli/rescaled_final/1129_fw.mp4	0.0	98.51566004753113	0.991671085357666
14	78.45024299621582	pulse	0	t		12.0	2.5	/experiments/AOT/AOT_stimuli/rescaled_final/1129_fw.mp4	0.0	99.49927806854248	
14	78.45829606056213	movie	1		245	12.0	2.5	/experiments/AOT/AOT_stimuli/rescaled_final/1129_fw.mp4	0.0	99.5073311328888	2.507910966873169
14	80.04956197738647	pulse	1	t		12.0	2.5	/experiments/AOT/AOT_stimuli/rescaled_final/1129_fw.mp4	0.0	101.09859704971313	
14	80.9662070274353	fix_post	2		12	12.0	2.5	/experiments/AOT/AOT_stimuli/rescaled_final/1129_fw.mp4	0.0	102.01524209976196	0.10042810440063477
15	81.06663513183594	fix_pre	0		120	13.0	2.5	blank	1.0	102.1156702041626	0.9999728202819824
15	81.65013694763184	pulse	0	t		13.0	2.5	blank	1.0	102.6991720199585	
15	82.06660795211792	movie	1		300	13.0	2.5	blank	1.0	103.11564302444458	2.499920129776001
15	83.25005102157593	pulse	1	t		13.0	2.5	blank	1.0	104.29908609390259	
15	84.56652808189392	fix_post	2		12	13.0	2.5	blank	1.0	105.61556315422058	0.10004186630249023
16	84.66656994819641	fix_pre	0		120	14.0	2.5	/experiments/AOT/AOT_stimuli/rescaled_final/1051_rv.mp4	0.0	105.71560502052307	0.9999880790710449
16	84.85008502006531	pulse	0	t		14.0	2.5	/experiments/AOT/AOT_stimuli/rescaled_final/1051_rv.mp4	0.0	105.89912009239197	
16	85.66655802726746	movie	1		245	14.0	2.5	/experiments/AOT/AOT_stimuli/rescaled_final/1051_rv.mp4	0.0	106.71559309959412	2.500037908554077
16	86.4500060081482	pulse	1	t		14.0	2.5	/experiments/AOT/AOT_stimuli/rescaled_final/1051_rv.mp4	0.0	107.49904108047485	
16	88.04844808578491	pulse	1	t		14.0	2.5	/experiments/AOT/AOT_stimuli/rescaled_final/1051_rv.mp4	0.0	109.09748315811157	
16	88.16659593582153	fix_post	2		12	14.0	2.5	/experiments/AOT/AOT_stimuli/rescaled_final/1051_rv.mp4	0.0	109.2156310081482	0.09995007514953613
17	88.26654601097107	fix_pre	0		120	15.0	2.5	/experiments/AOT/AOT_stimuli/rescaled_final/0275_fw.mp4	0.0	109.31558108329773	1.0000009536743164
17	89.26654696464539	movie	1		243	15.0	2.5	/experiments/AOT/AOT_stimuli/rescaled_final/0275_fw.mp4	0.0	110.31558203697205	2.4999451637268066
17	89.64990496635437	pulse	1	t		15.0	2.5	/experiments/AOT/AOT_stimuli/rescaled_final/0275_fw.mp4	0.0	110.69894003868103	
17	91.2500491142273	pulse	1	t		15.0	2.5	/experiments/AOT/AOT_stimuli/rescaled_final/0275_fw.mp4	0.0	112.29908418655396	
17	91.76649212837219	fix_post	2		12	15.0	2.5	/experiments/AOT/AOT_stimuli/rescaled_final/0275_fw.mp4	0.0	112.81552720069885	0.10009288787841797
18	91.86658501625061	fix_pre	0		119	16.0	2.5	/experiments/AOT/AOT_stimuli/rescaled_final/2137_fw.mp4	0.0	112.91562008857727	0.9916009902954102
18	92.85001611709595	pulse	0	t		16.0	2.5	/experiments/AOT/AOT_stimuli/rescaled_final/2137_fw.mp4	0.0	113.89905118942261	
18	92.85818600654602	movie	1		245	16.0	2.5	/experiments/AOT/AOT_stimuli/rescaled_final/2137_fw.mp4	0.0	113.90722107887268	2.5083820819854736
18	94.44959306716919	pulse	1	t		16.0	2.5	/experiments/AOT/AOT_stimuli/rescaled_final/2137_fw.mp4	0.0	115.49862813949585	
18	95.3665680885315	fix_post	2		12	16.0	2.5	/experiments/AOT/AOT_stimuli/rescaled_final/2137_fw.mp4	0.0	116.41560316085815	0.0999748706817627
19	95.46654295921326	fix_pre	0		120	17.0	2.5	/experiments/AOT/AOT_stimuli/rescaled_final/1737_rv.mp4	0.0	116.51557803153992	0.9999361038208008
19	96.05005598068237	pulse	0	t		17.0	2.5	/experiments/AOT/AOT_stimuli/rescaled_final/1737_rv.mp4	0.0	117.09909105300903	
19	96.46647906303406	movie	1		243	17.0	2.5	/experiments/AOT/AOT_stimuli/rescaled_final/1737_rv.mp4	0.0	117.51551413536072	2.4996299743652344
19	97.65010499954224	pulse	1	t		17.0	2.5	/experiments/AOT/AOT_stimuli/rescaled_final/1737_rv.mp4	0.0	118.6991400718689	
19	98.96610903739929	fix_post	2		12	17.0	2.5	/experiments/AOT/AOT_stimuli/rescaled_final/1737_rv.mp4	0.0	120.01514410972595	0.10047388076782227
20	99.06658291816711	fix_pre	0		120	18.0	2.5	/experiments/AOT/AOT_stimuli/rescaled_final/0709_rv.mp4	0.0	120.11561799049377	0.9999630451202393
20	99.25001502037048	pulse	0	t		18.0	2.5	/experiments/AOT/AOT_stimuli/rescaled_final/0709_rv.mp4	0.0	120.29905009269714	
20	100.06654596328735	movie	1		243	18.0	2.5	/experiments/AOT/AOT_stimuli/rescaled_final/0709_rv.mp4	0.0	121.11558103561401	2.500089168548584
20	100.84999203681946	pulse	1	t		18.0	2.5	/experiments/AOT/AOT_stimuli/rescaled_final/0709_rv.mp4	0.0	121.89902710914612	
20	102.44848489761353	pulse	1	t		18.0	2.5	/experiments/AOT/AOT_stimuli/rescaled_final/0709_rv.mp4	0.0	123.49751996994019	
20	102.56663513183594	fix_post	2		12	18.0	2.5	/experiments/AOT/AOT_stimuli/rescaled_final/0709_rv.mp4	0.0	123.6156702041626	0.09985184669494629
21	102.66648697853088	fix_pre	0		120	19.0	2.5	/experiments/AOT/AOT_stimuli/rescaled_final/1845_rv.mp4	0.0	123.71552205085754	1.0000219345092773
21	103.66650891304016	movie	1		244	19.0	2.5	/experiments/AOT/AOT_stimuli/rescaled_final/1845_rv.mp4	0.0	124.71554398536682	2.50004506111145
21	104.04970002174377	pulse	1	t		19.0	2.5	/experiments/AOT/AOT_stimuli/rescaled_final/1845_rv.mp4	0.0	125.09873509407043	
21	105.65012001991272	pulse	1	t		19.0	2.5	/experiments/AOT/AOT_stimuli/rescaled_final/1845_rv.mp4	0.0	126.69915509223938	
21	106.16655397415161	fix_post	2		12	19.0	2.5	/experiments/AOT/AOT_stimuli/rescaled_final/1845_rv.mp4	0.0	127.21558904647827	0.09987497329711914
22	106.26642894744873	fix_pre	0		119	20.0	2.5	blank	1.0	127.31546401977539	0.9916760921478271
22	107.25003910064697	pulse	0	t		20.0	2.5	blank	1.0	128.29907417297363	
22	107.25810503959656	movie	1		301	20.0	2.5	blank	1.0	128.30714011192322	2.5083658695220947
22	108.84996104240417	pulse	1	t		20.0	2.5	blank	1.0	129.89899611473083	
22	109.76647090911865	fix_post	2		12	20.0	2.5	blank	1.0	130.8155059814453	0.1000051498413086
23	109.86647605895996	fix_pre	0		120	21.0	2.5	/experiments/AOT/AOT_stimuli/rescaled_final/1051_rv.mp4	0.0	130.91551113128662	0.99993896484375
23	110.45003390312195	pulse	0	t		21.0	2.5	/experiments/AOT/AOT_stimuli/rescaled_final/1051_rv.mp4	0.0	131.4990689754486	
23	110.86641502380371	movie	1		244	21.0	2.5	/experiments/AOT/AOT_stimuli/rescaled_final/1051_rv.mp4	0.0	131.91545009613037	2.500075101852417
23	112.05002498626709	pulse	1	t		21.0	2.5	/experiments/AOT/AOT_stimuli/rescaled_final/1051_rv.mp4	0.0	133.09906005859375	
23	113.36649012565613	fix_post	2		12	21.0	2.5	/experiments/AOT/AOT_stimuli/rescaled_final/1051_rv.mp4	0.0	134.4155251979828	0.10007977485656738
24	113.4665699005127	fix_pre	0		120	22.0	2.5	/experiments/AOT/AOT_stimuli/rescaled_final/0029_fw.mp4	0.0	134.51560497283936	0.9999802112579346
24	113.65027213096619	pulse	0	t		22.0	2.5	/experiments/AOT/AOT_stimuli/rescaled_final/0029_fw.mp4	0.0	134.69930720329285	
24	114.46655011177063	movie	1		243	22.0	2.5	/experiments/AOT/AOT_stimuli/rescaled_final/0029_fw.mp4	0.0	135.5155851840973	2.4999279975891113
24	115.24990010261536	pulse	1	t		22.0	2.5	/experiments/AOT/AOT_stimuli/rescaled_final/0029_fw.mp4	0.0	136.29893517494202	
24	116.84859108924866	pulse	1	t		22.0	2.5	/experiments/AOT/AOT_stimuli/rescaled_final/0029_fw.mp4	0.0	137.89762616157532	
24	116.96647810935974	fix_post	2		12	22.0	2.5	/experiments/AOT/AOT_stimuli/rescaled_final/0029_fw.mp4	0.0	138.0155131816864	0.09993481636047363
25	117.06641292572021	fix_pre	0		120	23.0	2.5	/experiments/AOT/AOT_stimuli/rescaled_final/1415_fw.mp4	0.0	138.11544799804688	1.0001060962677002
25	118.06651902198792	movie	1		243	23.0	2.5	/experiments/AOT/AOT_stimuli/rescaled_final/1415_fw.mp4	0.0	139.11555409431458	2.4994258880615234
25	118.44972705841064	pulse	1	t		23.0	2.5	/experiments/AOT/AOT_stimuli/rescaled_final/1415_fw.mp4	0.0	139.4987621307373	
25	120.04991292953491	pulse	1	t		23.0	2.5	/experiments/AOT/AOT_stimuli/rescaled_final/1415_fw.mp4	0.0	141.09894800186157	
25	120.56594491004944	fix_post	2		12	23.0	2.5	/experiments/AOT/AOT_stimuli/rescaled_final/1415_fw.mp4	0.0	141.6149799823761	0.1005101203918457
26	120.66645503044128	fix_pre	0		119	24.0	2.5	/experiments/AOT/AOT_stimuli/rescaled_final/1859_fw.mp4	0.0	141.71549010276794	0.9916400909423828
26	121.64990997314453	pulse	0	t		24.0	2.5	/experiments/AOT/AOT_stimuli/rescaled_final/1859_fw.mp4	0.0	142.6989450454712	
26	121.65809512138367	movie	1		244	24.0	2.5	/experiments/AOT/AOT_stimuli/rescaled_final/1859_fw.mp4	0.0	142.70713019371033	2.508319854736328
26	123.2493679523468	pulse	1	t		24.0	2.5	/experiments/AOT/AOT_stimuli/rescaled_final/1859_fw.mp4	0.0	144.29840302467346	
26	124.16641497612	fix_post	2		12	24.0	2.5	/experiments/AOT/AOT_stimuli/rescaled_final/1859_fw.mp4	0.0	145.21545004844666	0.10013699531555176
27	124.26655197143555	fix_pre	0		120	25.0	2.5	/experiments/AOT/AOT_stimuli/rescaled_final/1730_rv.mp4	0.0	145.3155870437622	0.9998841285705566
27	124.84986591339111	pulse	0	t		25.0	2.5	/experiments/AOT/AOT_stimuli/rescaled_final/1730_rv.mp4	0.0	145.89890098571777	
27	125.2664361000061	movie	1		245	25.0	2.5	/experiments/AOT/AOT_stimuli/rescaled_final/1730_rv.mp4	0.0	146.31547117233276	2.4996628761291504
27	126.4495050907135	pulse	1	t		25.0	2.5	/experiments/AOT/AOT_stimuli/rescaled_final/1730_rv.mp4	0.0	147.49854016304016	
27	127.76609897613525	fix_post	2		12	25.0	2.5	/experiments/AOT/AOT_stimuli/rescaled_final/1730_rv.mp4	0.0	148.8151340484619	0.1003730297088623
28	127.86647200584412	fix_pre	0		120	26.0	2.5	blank	1.0	148.91550707817078	1.0001680850982666
28	128.04961490631104	pulse	0	t		26.0	2.5	blank	1.0	149.0986499786377	
28	128.86664009094238	movie	1		300	26.0	2.5	blank	1.0	149.91567516326904	2.499760866165161
28	129.64977192878723	pulse	1	t		26.0	2.5	blank	1.0	150.6988070011139	
28	131.24984502792358	pulse	1	t		26.0	2.5	blank	1.0	152.29888010025024	
28	131.36640095710754	fix_post	2		12	26.0	2.5	blank	1.0	152.4154360294342	0.10002994537353516
29	131.46643090248108	fix_pre	0		120	27.0	2.5	/experiments/AOT/AOT_stimuli/rescaled_final/0515_fw.mp4	0.0	152.51546597480774	0.9999721050262451
29	132.46640300750732	movie	1		244	27.0	2.5	/experiments/AOT/AOT_stimuli/rescaled_final/0515_fw.mp4	0.0	153.51543807983398	2.499897003173828
29	132.84919905662537	pulse	1	t		27.0	2.5	/experiments/AOT/AOT_stimuli/rescaled_final/0515_fw.mp4	0.0	153.89823412895203	
29	134.44983911514282	pulse	1	t		27.0	2.5	/experiments/AOT/AOT_stimuli/rescaled_final/0515_fw.mp4	0.0	155.49887418746948	
29	134.96630001068115	fix_post	2		12	27.0	2.5	/experiments/AOT/AOT_stimuli/rescaled_final/0515_fw.mp4	0.0	156.0153350830078	0.10002398490905762
30	135.0663239955902	fix_pre	0		119	28.0	2.5	/experiments/AOT/AOT_stimuli/rescaled_final/1035_fw.mp4	0.0	156.11535906791687	0.9916789531707764
30	136.04980206489563	pulse	0	t		28.0	2.5	/experiments/AOT/AOT_stimuli/rescaled_final/1035_fw.mp4	0.0	157.0988371372223	
30	136.058002948761	movie	1		245	28.0	2.5	/experiments/AOT/AOT_stimuli/rescaled_final/1035_fw.mp4	0.0	157.10703802108765	2.5079381465911865
30	137.64931893348694	pulse	1	t		28.0	2.5	/experiments/AOT/AOT_stimuli/rescaled_final/1035_fw.mp4	0.0	158.6983540058136	
30	138.56594109535217	fix_post	2		12	28.0	2.5	/experiments/AOT/AOT_stimuli/rescaled_final/1035_fw.mp4	0.0	159.61497616767883	0.10031795501708984
31	138.66625905036926	fix_pre	0		120	29.0	2.5	/experiments/AOT/AOT_stimuli/rescaled_final/1837_rv.mp4	0.0	159.71529412269592	1.0000519752502441
31	139.2497899532318	pulse	0	t		29.0	2.5	/experiments/AOT/AOT_stimuli/rescaled_final/1837_rv.mp4	0.0	160.29882502555847	
31	139.6663110256195	movie	1		243	29.0	2.5	/experiments/AOT/AOT_stimuli/rescaled_final/1837_rv.mp4	0.0	160.71534609794617	2.499906063079834
31	140.84993696212769	pulse	1	t		29.0	2.5	/experiments/AOT/AOT_stimuli/rescaled_final/1837_rv.mp4	0.0	161.89897203445435	
31	142.16621708869934	fix_post	2		12	29.0	2.5	/experiments/AOT/AOT_stimuli/rescaled_final/1837_rv.mp4	0.0	163.215252161026	0.10011887550354004
32	142.26633596420288	fix_pre	0		120	30.0	2.5	/experiments/AOT/AOT_stimuli/rescaled_final/0390_rv.mp4	0.0	163.31537103652954	1.0000171661376953
32	142.44981908798218	pulse	0	t		30.0	2.5	/experiments/AOT/AOT_stimuli/rescaled_final/0390_rv.mp4	0.0	163.49885416030884	
32	143.26635313034058	movie	1		246	30.0	2.5	/experiments/AOT/AOT_stimuli/rescaled_final/0390_rv.mp4	0.0	164.31538820266724	2.499628782272339
32	144.04983806610107	pulse	1	t		30.0	2.5	/experiments/AOT/AOT_stimuli/rescaled_final/0390_rv.mp4	0.0	165.09887313842773	
32	145.6484260559082	pulse	1	t		30.0	2.5	/experiments/AOT/AOT_stimuli/rescaled_final/0390_rv.mp4	0.0	166.69746112823486	
32	145.76598191261292	fix_post	2		12	30.0	2.5	/experiments/AOT/AOT_stimuli/rescaled_final/0390_rv.mp4	0.0	166.81501698493958	0.10029911994934082
33	145.86628103256226	fix_pre	0		120	31.0	2.5	/experiments/AOT/AOT_stimuli/rescaled_final/0328_fw.mp4	0.0	166.91531610488892	1.0000638961791992
33	146.86634492874146	movie	1		246	31.0	2.5	/experiments/AOT/AOT_stimuli/rescaled_final/0328_fw.mp4	0.0	167.91538000106812	2.5000741481781006
33	147.2507209777832	pulse	1	t		31.0	2.5	/experiments/AOT/AOT_stimuli/rescaled_final/0328_fw.mp4	0.0	168.29975605010986	
33	148.84977293014526	pulse	1	t		31.0	2.5	/experiments/AOT/AOT_stimuli/rescaled_final/0328_fw.mp4	0.0	169.89880800247192	
33	149.36641907691956	fix_post	2		12	31.0	2.5	/experiments/AOT/AOT_stimuli/rescaled_final/0328_fw.mp4	0.0	170.41545414924622	0.09996294975280762
34	149.46638202667236	fix_pre	0		119	32.0	2.5	/experiments/AOT/AOT_stimuli/rescaled_final/0213_rv.mp4	0.0	170.51541709899902	0.9916620254516602
34	150.4497630596161	pulse	0	t		32.0	2.5	/experiments/AOT/AOT_stimuli/rescaled_final/0213_rv.mp4	0.0	171.49879813194275	
34	150.45804405212402	movie	1		246	32.0	2.5	/experiments/AOT/AOT_stimuli/rescaled_final/0213_rv.mp4	0.0	171.50707912445068	2.50826096534729
34	152.04937410354614	pulse	1	t		32.0	2.5	/experiments/AOT/AOT_stimuli/rescaled_final/0213_rv.mp4	0.0	173.0984091758728	
34	152.9663050174713	fix_post	2		12	32.0	2.5	/experiments/AOT/AOT_stimuli/rescaled_final/0213_rv.mp4	0.0	174.01534008979797	0.09991908073425293
35	153.06622409820557	fix_pre	0		120	33.0	2.5	/experiments/AOT/AOT_stimuli/rescaled_final/1856_rv.mp4	0.0	174.11525917053223	1.0000848770141602
35	153.64984607696533	pulse	0	t		33.0	2.5	/experiments/AOT/AOT_stimuli/rescaled_final/1856_rv.mp4	0.0	174.698881149292	
35	154.06630897521973	movie	1		243	33.0	2.5	/experiments/AOT/AOT_stimuli/rescaled_final/1856_rv.mp4	0.0	175.1153440475464	2.4999639987945557
35	155.24983310699463	pulse	1	t		33.0	2.5	/experiments/AOT/AOT_stimuli/rescaled_final/1856_rv.mp4	0.0	176.2988681793213	
35	156.56627297401428	fix_post	2		12	33.0	2.5	/experiments/AOT/AOT_stimuli/rescaled_final/1856_rv.mp4	0.0	177.61530804634094	0.10004496574401855
36	156.6663179397583	fix_pre	0		120	34.0	2.5	blank	1.0	177.71535301208496	0.9999241828918457
36	156.84973692893982	pulse	0	t		34.0	2.5	blank	1.0	177.89877200126648	
36	157.66624212265015	movie	1		300	34.0	2.5	blank	1.0	178.7152771949768	2.499969959259033
36	158.44973993301392	pulse	1	t		34.0	2.5	blank	1.0	179.49877500534058	
36	160.04964399337769	pulse	1	t		34.0	2.5	blank	1.0	181.09867906570435	
36	160.16621208190918	fix_post	2		12	34.0	2.5	blank	1.0	181.21524715423584	0.10004901885986328
37	160.26626110076904	fix_pre	0		120	35.0	2.5	/experiments/AOT/AOT_stimuli/rescaled_final/0326_rv.mp4	0.0	181.3152961730957	0.9999399185180664
37	161.2662010192871	movie	1		245	35.0	2.5	/experiments/AOT/AOT_stimuli/rescaled_final/0326_rv.mp4	0.0	182.31523609161377	2.5001020431518555
37	161.6495339870453	pulse	1	t		35.0	2.5	/experiments/AOT/AOT_stimuli/rescaled_final/0326_rv.mp4	0.0	182.69856905937195	
37	163.24968004226685	pulse	1	t		35.0	2.5	/experiments/AOT/AOT_stimuli/rescaled_final/0326_rv.mp4	0.0	184.2987151145935	
37	163.76630306243896	fix_post	2		12	35.0	2.5	/experiments/AOT/AOT_stimuli/rescaled_final/0326_rv.mp4	0.0	184.81533813476562	0.09994101524353027
38	163.8662440776825	fix_pre	0		119	36.0	2.5	/experiments/AOT/AOT_stimuli/rescaled_final/1847_fw.mp4	0.0	184.91527915000916	0.9916198253631592
38	164.84974193572998	pulse	0	t		36.0	2.5	/experiments/AOT/AOT_stimuli/rescaled_final/1847_fw.mp4	0.0	185.89877700805664	
38	164.85786390304565	movie	1		246	36.0	2.5	/experiments/AOT/AOT_stimuli/rescaled_final/1847_fw.mp4	0.0	185.90689897537231	2.5084521770477295
38	166.449156999588	pulse	1	t		36.0	2.5	/experiments/AOT/AOT_stimuli/rescaled_final/1847_fw.mp4	0.0	187.49819207191467	
38	167.36631608009338	fix_post	2		12	36.0	2.5	/experiments/AOT/AOT_stimuli/rescaled_final/1847_fw.mp4	0.0	188.41535115242004	0.09998488426208496
39	167.46630096435547	fix_pre	0		120	37.0	2.5	/experiments/AOT/AOT_stimuli/rescaled_final/0381_fw.mp4	0.0	188.51533603668213	0.9995541572570801
39	168.04965710639954	pulse	0	t		37.0	2.5	/experiments/AOT/AOT_stimuli/rescaled_final/0381_fw.mp4	0.0	189.0986921787262	
39	168.46585512161255	movie	1		248	37.0	2.5	/experiments/AOT/AOT_stimuli/rescaled_final/0381_fw.mp4	0.0	189.5148901939392	2.500274896621704
39	169.6496820449829	pulse	1	t		37.0	2.5	/experiments/AOT/AOT_stimuli/rescaled_final/0381_fw.mp4	0.0	190.69871711730957	
39	170.96613001823425	fix_post	2		12	37.0	2.5	/experiments/AOT/AOT_stimuli/rescaled_final/0381_fw.mp4	0.0	192.0151650905609	0.09998703002929688
40	171.06611704826355	fix_pre	0		120	38.0	2.5	/experiments/AOT/AOT_stimuli/rescaled_final/1089_rv.mp4	0.0	192.1151521205902	1.000079870223999
40	171.24970197677612	pulse	0	t		38.0	2.5	/experiments/AOT/AOT_stimuli/rescaled_final/1089_rv.mp4	0.0	192.29873704910278	
40	172.06619691848755	movie	1		244	38.0	2.5	/experiments/AOT/AOT_stimuli/rescaled_final/1089_rv.mp4	0.0	193.1152319908142	2.5000522136688232
40	172.8497109413147	pulse	1	t		38.0	2.5	/experiments/AOT/AOT_stimuli/rescaled_final/1089_rv.mp4	0.0	193.89874601364136	
40	174.44970893859863	pulse	1	t		38.0	2.5	/experiments/AOT/AOT_stimuli/rescaled_final/1089_rv.mp4	0.0	195.4987440109253	
40	174.56624913215637	fix_post	2		12	38.0	2.5	/experiments/AOT/AOT_stimuli/rescaled_final/1089_rv.mp4	0.0	195.61528420448303	0.09989094734191895
41	174.6661400794983	fix_pre	0		120	39.0	2.5	/experiments/AOT/AOT_stimuli/rescaled_final/0871_rv.mp4	0.0	195.71517515182495	1.000046968460083
41	175.66618704795837	movie	1		245	39.0	2.5	/experiments/AOT/AOT_stimuli/rescaled_final/0871_rv.mp4	0.0	196.71522212028503	2.4999990463256836
41	176.04936003684998	pulse	1	t		39.0	2.5	/experiments/AOT/AOT_stimuli/rescaled_final/0871_rv.mp4	0.0	197.09839510917664	
41	177.64958095550537	pulse	1	t		39.0	2.5	/experiments/AOT/AOT_stimuli/rescaled_final/0871_rv.mp4	0.0	198.69861602783203	
41	178.16618609428406	fix_post	2		12	39.0	2.5	/experiments/AOT/AOT_stimuli/rescaled_final/0871_rv.mp4	0.0	199.21522116661072	0.10001683235168457
42	178.26620292663574	fix_pre	0		119	40.0	2.5	/experiments/AOT/AOT_stimuli/rescaled_final/1803_rv.mp4	0.0	199.3152379989624	0.9916751384735107
42	179.24969696998596	pulse	0	t		40.0	2.5	/experiments/AOT/AOT_stimuli/rescaled_final/1803_rv.mp4	0.0	200.29873204231262	
42	179.25787806510925	movie	1		245	40.0	2.5	/experiments/AOT/AOT_stimuli/rescaled_final/1803_rv.mp4	0.0	200.3069131374359	2.5083489418029785
42	180.84909296035767	pulse	1	t		40.0	2.5	/experiments/AOT/AOT_stimuli/rescaled_final/1803_rv.mp4	0.0	201.89812803268433	
42	181.76622700691223	fix_post	2		12	40.0	2.5	/experiments/AOT/AOT_stimuli/rescaled_final/1803_rv.mp4	0.0	202.8152620792389	0.0999460220336914
43	181.86617302894592	fix_pre	0		120	41.0	2.5	blank	1.0	202.91520810127258	1.0001130104064941
43	182.44959998130798	pulse	0	t		41.0	2.5	blank	1.0	203.49863505363464	
43	182.86628603935242	movie	1		300	41.0	2.5	blank	1.0	203.91532111167908	2.5001399517059326
43	184.04928708076477	pulse	1	t		41.0	2.5	blank	1.0	205.09832215309143	
43	185.36642599105835	fix_post	2		12	41.0	2.5	blank	1.0	206.415461063385	0.09964299201965332
44	185.466068983078	fix_pre	0		120	42.0	2.5	/experiments/AOT/AOT_stimuli/rescaled_final/1407_rv.mp4	0.0	206.51510405540466	1.0001299381256104
44	185.64953804016113	pulse	0	t		42.0	2.5	/experiments/AOT/AOT_stimuli/rescaled_final/1407_rv.mp4	0.0	206.6985731124878	
44	186.4661989212036	movie	1		242	42.0	2.5	/experiments/AOT/AOT_stimuli/rescaled_final/1407_rv.mp4	0.0	207.51523399353027	2.4999711513519287
44	187.24953889846802	pulse	1	t		42.0	2.5	/experiments/AOT/AOT_stimuli/rescaled_final/1407_rv.mp4	0.0	208.29857397079468	
44	188.84798908233643	pulse	1	t		42.0	2.5	/experiments/AOT/AOT_stimuli/rescaled_final/1407_rv.mp4	0.0	209.8970241546631	
44	188.96617007255554	fix_post	2		12	42.0	2.5	/experiments/AOT/AOT_stimuli/rescaled_final/1407_rv.mp4	0.0	210.0152051448822	0.0999448299407959
45	189.06611490249634	fix_pre	0		120	43.0	2.5	/experiments/AOT/AOT_stimuli/rescaled_final/1658_rv.mp4	0.0	210.115149974823	0.9999492168426514
45	190.066064119339	movie	1		246	43.0	2.5	/experiments/AOT/AOT_stimuli/rescaled_final/1658_rv.mp4	0.0	211.11509919166565	2.4999639987945557
45	190.45047998428345	pulse	1	t		43.0	2.5	/experiments/AOT/AOT_stimuli/rescaled_final/1658_rv.mp4	0.0	211.4995150566101	
45	192.04952192306519	pulse	1	t		43.0	2.5	/experiments/AOT/AOT_stimuli/rescaled_final/1658_rv.mp4	0.0	213.09855699539185	
45	192.56602811813354	fix_post	2		12	43.0	2.5	/experiments/AOT/AOT_stimuli/rescaled_final/1658_rv.mp4	0.0	213.6150631904602	0.10015583038330078
46	192.66618394851685	fix_pre	0		119	44.0	2.5	/experiments/AOT/AOT_stimuli/rescaled_final/0805_rv.mp4	0.0	213.7152190208435	0.9915270805358887
46	193.6495509147644	pulse	0	t		44.0	2.5	/experiments/AOT/AOT_stimuli/rescaled_final/0805_rv.mp4	0.0	214.69858598709106	
46	193.65771102905273	movie	1		246	44.0	2.5	/experiments/AOT/AOT_stimuli/rescaled_final/0805_rv.mp4	0.0	214.7067461013794	2.5078859329223633
46	195.2496919631958	pulse	1	t		44.0	2.5	/experiments/AOT/AOT_stimuli/rescaled_final/0805_rv.mp4	0.0	216.29872703552246	
46	196.1655969619751	fix_post	2		12	44.0	2.5	/experiments/AOT/AOT_stimuli/rescaled_final/0805_rv.mp4	0.0	217.21463203430176	0.1004490852355957
47	196.2660460472107	fix_pre	0		120	45.0	2.5	/experiments/AOT/AOT_stimuli/rescaled_final/0465_fw.mp4	0.0	217.31508111953735	0.9999969005584717
47	196.8495581150055	pulse	0	t		45.0	2.5	/experiments/AOT/AOT_stimuli/rescaled_final/0465_fw.mp4	0.0	217.89859318733215	
47	197.26604294776917	movie	1		243	45.0	2.5	/experiments/AOT/AOT_stimuli/rescaled_final/0465_fw.mp4	0.0	218.31507802009583	2.4995760917663574
47	198.44972896575928	pulse	1	t		45.0	2.5	/experiments/AOT/AOT_stimuli/rescaled_final/0465_fw.mp4	0.0	219.49876403808594	
47	199.76561903953552	fix_post	2		12	45.0	2.5	/experiments/AOT/AOT_stimuli/rescaled_final/0465_fw.mp4	0.0	220.81465411186218	0.10036492347717285
48	199.8659839630127	fix_pre	0		120	46.0	2.5	/experiments/AOT/AOT_stimuli/rescaled_final/1629_fw.mp4	0.0	220.91501903533936	1.0000190734863281
48	200.04953908920288	pulse	0	t		46.0	2.5	/experiments/AOT/AOT_stimuli/rescaled_final/1629_fw.mp4	0.0	221.09857416152954	
48	200.86600303649902	movie	1		243	46.0	2.5	/experiments/AOT/AOT_stimuli/rescaled_final/1629_fw.mp4	0.0	221.91503810882568	2.5000100135803223
48	201.64950108528137	pulse	1	t		46.0	2.5	/experiments/AOT/AOT_stimuli/rescaled_final/1629_fw.mp4	0.0	222.69853615760803	
48	203.248202085495	pulse	1	t		46.0	2.5	/experiments/AOT/AOT_stimuli/rescaled_final/1629_fw.mp4	0.0	224.29723715782166	
48	203.36601305007935	fix_post	2		12	46.0	2.5	/experiments/AOT/AOT_stimuli/rescaled_final/1629_fw.mp4	0.0	224.415048122406	0.10006189346313477
49	203.46607494354248	fix_pre	0		119	47.0	2.5	/experiments/AOT/AOT_stimuli/rescaled_final/0427_rv.mp4	0.0	224.51511001586914	0.9999680519104004
49	204.46604299545288	movie	1		244	47.0	2.5	/experiments/AOT/AOT_stimuli/rescaled_final/0427_rv.mp4	0.0	225.51507806777954	2.4999561309814453
49	204.84928798675537	pulse	1	t		47.0	2.5	/experiments/AOT/AOT_stimuli/rescaled_final/0427_rv.mp4	0.0	225.89832305908203	
49	206.4495301246643	pulse	1	t		47.0	2.5	/experiments/AOT/AOT_stimuli/rescaled_final/0427_rv.mp4	0.0	227.49856519699097	
49	206.96599912643433	fix_post	2		12	47.0	2.5	/experiments/AOT/AOT_stimuli/rescaled_final/0427_rv.mp4	0.0	228.015034198761	0.09961795806884766
50	207.06561708450317	fix_pre	0		119	48.0	2.5	blank	1.0	228.11465215682983	0.9919819831848145
50	208.04951906204224	pulse	0	t		48.0	2.5	blank	1.0	229.0985541343689	
50	208.057599067688	movie	1		301	48.0	2.5	blank	1.0	229.10663414001465	2.5080718994140625
50	209.6495270729065	pulse	1	t		48.0	2.5	blank	1.0	230.69856214523315	
50	210.56567096710205	fix_post	2		12	48.0	2.5	blank	1.0	231.6147060394287	0.10033106803894043
51	210.666002035141	fix_pre	0		120	49.0	2.5	/experiments/AOT/AOT_stimuli/rescaled_final/1173_fw.mp4	0.0	231.71503710746765	1.000025987625122
51	211.24950194358826	pulse	0	t		49.0	2.5	/experiments/AOT/AOT_stimuli/rescaled_final/1173_fw.mp4	0.0	232.29853701591492	
51	211.6660280227661	movie	1		246	49.0	2.5	/experiments/AOT/AOT_stimuli/rescaled_final/1173_fw.mp4	0.0	232.71506309509277	2.499959945678711
51	212.84954810142517	pulse	1	t		49.0	2.5	/experiments/AOT/AOT_stimuli/rescaled_final/1173_fw.mp4	0.0	233.89858317375183	
51	214.16598796844482	fix_post	2		12	49.0	2.5	/experiments/AOT/AOT_stimuli/rescaled_final/1173_fw.mp4	0.0	235.21502304077148	0.09996700286865234
52	214.26595497131348	fix_pre	0		120	50.0	2.5	/experiments/AOT/AOT_stimuli/rescaled_final/1917_rv.mp4	0.0	235.31499004364014	1.0000600814819336
52	214.44946694374084	pulse	0	t		50.0	2.5	/experiments/AOT/AOT_stimuli/rescaled_final/1917_rv.mp4	0.0	235.4985020160675	
52	215.2660150527954	movie	1		246	50.0	2.5	/experiments/AOT/AOT_stimuli/rescaled_final/1917_rv.mp4	0.0	236.31505012512207	2.499994993209839
52	216.04937601089478	pulse	1	t		50.0	2.5	/experiments/AOT/AOT_stimuli/rescaled_final/1917_rv.mp4	0.0	237.09841108322144	
52	217.6496069431305	pulse	1	t		50.0	2.5	/experiments/AOT/AOT_stimuli/rescaled_final/1917_rv.mp4	0.0	238.69864201545715	
52	217.76601004600525	fix_post	2		12	50.0	2.5	/experiments/AOT/AOT_stimuli/rescaled_final/1917_rv.mp4	0.0	238.8150451183319	0.09989404678344727
53	217.8659040927887	fix_pre	0		120	51.0	2.5	/experiments/AOT/AOT_stimuli/rescaled_final/1946_fw.mp4	0.0	238.91493916511536	1.0000958442687988
53	218.8659999370575	movie	1		245	51.0	2.5	/experiments/AOT/AOT_stimuli/rescaled_final/1946_fw.mp4	0.0	239.91503500938416	2.499857187271118
53	219.2489879131317	pulse	1	t		51.0	2.5	/experiments/AOT/AOT_stimuli/rescaled_final/1946_fw.mp4	0.0	240.29802298545837	
53	220.84942197799683	pulse	1	t		51.0	2.5	/experiments/AOT/AOT_stimuli/rescaled_final/1946_fw.mp4	0.0	241.8984570503235	
53	221.3658571243286	fix_post	2		12	51.0	2.5	/experiments/AOT/AOT_stimuli/rescaled_final/1946_fw.mp4	0.0	242.41489219665527	0.10010695457458496
54	221.4659640789032	fix_pre	0		119	52.0	2.5	/experiments/AOT/AOT_stimuli/rescaled_final/0795_rv.mp4	0.0	242.51499915122986	0.9917149543762207
54	222.4495038986206	pulse	0	t		52.0	2.5	/experiments/AOT/AOT_stimuli/rescaled_final/0795_rv.mp4	0.0	243.49853897094727	
54	222.45767903327942	movie	1		246	52.0	2.5	/experiments/AOT/AOT_stimuli/rescaled_final/0795_rv.mp4	0.0	243.50671410560608	2.5082690715789795
54	224.04885506629944	pulse	1	t		52.0	2.5	/experiments/AOT/AOT_stimuli/rescaled_final/0795_rv.mp4	0.0	245.0978901386261	
54	224.9659481048584	fix_post	2		12	52.0	2.5	/experiments/AOT/AOT_stimuli/rescaled_final/0795_rv.mp4	0.0	246.01498317718506	0.09997296333312988
55	225.06592106819153	fix_pre	0		120	53.0	2.5	/experiments/AOT/AOT_stimuli/rescaled_final/1415_rv.mp4	0.0	246.1149561405182	1.00006103515625
55	225.64940190315247	pulse	0	t		53.0	2.5	/experiments/AOT/AOT_stimuli/rescaled_final/1415_rv.mp4	0.0	246.69843697547913	
55	226.06598210334778	movie	1		243	53.0	2.5	/experiments/AOT/AOT_stimuli/rescaled_final/1415_rv.mp4	0.0	247.11501717567444	2.4999449253082275
55	227.2493760585785	pulse	1	t		53.0	2.5	/experiments/AOT/AOT_stimuli/rescaled_final/1415_rv.mp4	0.0	248.29841113090515	
55	228.565927028656	fix_post	2		12	53.0	2.5	/experiments/AOT/AOT_stimuli/rescaled_final/1415_rv.mp4	0.0	249.61496210098267	0.10004806518554688
56	228.66597509384155	fix_pre	0		120	54.0	2.5	blank	1.0	249.7150101661682	0.9999699592590332
56	228.84933710098267	pulse	0	t		54.0	2.5	blank	1.0	249.89837217330933	
56	229.6659450531006	movie	1		300	54.0	2.5	blank	1.0	250.71498012542725	2.500040054321289
56	230.44932007789612	pulse	1	t		54.0	2.5	blank	1.0	251.49835515022278	
56	232.04931902885437	pulse	1	t		54.0	2.5	blank	1.0	253.09835410118103	
56	232.16598510742188	fix_post	2		12	54.0	2.5	blank	1.0	253.21502017974854	0.09992384910583496
57	232.2659089565277	fix_pre	0		120	55.0	2.5	/experiments/AOT/AOT_stimuli/rescaled_final/0075_rv.mp4	0.0	253.31494402885437	1.0000691413879395
57	233.26597809791565	movie	1		243	55.0	2.5	/experiments/AOT/AOT_stimuli/rescaled_final/0075_rv.mp4	0.0	254.3150131702423	2.500018835067749
57	233.64876699447632	pulse	1	t		55.0	2.5	/experiments/AOT/AOT_stimuli/rescaled_final/0075_rv.mp4	0.0	254.69780206680298	
57	235.24927306175232	pulse	1	t		55.0	2.5	/experiments/AOT/AOT_stimuli/rescaled_final/0075_rv.mp4	0.0	256.298308134079	
57	235.7659969329834	fix_post	2		12	55.0	2.5	/experiments/AOT/AOT_stimuli/rescaled_final/0075_rv.mp4	0.0	256.81503200531006	0.09991312026977539
58	235.86591005325317	fix_pre	0		119	56.0	2.5	/experiments/AOT/AOT_stimuli/rescaled_final/0217_rv.mp4	0.0	256.91494512557983	0.9916648864746094
58	236.84939908981323	pulse	0	t		56.0	2.5	/experiments/AOT/AOT_stimuli/rescaled_final/0217_rv.mp4	0.0	257.8984341621399	
58	236.85757493972778	movie	1		247	56.0	2.5	/experiments/AOT/AOT_stimuli/rescaled_final/0217_rv.mp4	0.0	257.90661001205444	2.5079050064086914
58	238.44900512695312	pulse	1	t		56.0	2.5	/experiments/AOT/AOT_stimuli/rescaled_final/0217_rv.mp4	0.0	259.4980401992798	
58	239.36547994613647	fix_post	2		12	56.0	2.5	/experiments/AOT/AOT_stimuli/rescaled_final/0217_rv.mp4	0.0	260.41451501846313	0.10007596015930176
59	239.46555590629578	fix_pre	0		120	57.0	2.5	/experiments/AOT/AOT_stimuli/rescaled_final/0180_rv.mp4	0.0	260.51459097862244	1.0000460147857666
59	240.04947590827942	pulse	0	t		57.0	2.5	/experiments/AOT/AOT_stimuli/rescaled_final/0180_rv.mp4	0.0	261.0985109806061	
59	240.46560192108154	movie	1		244	57.0	2.5	/experiments/AOT/AOT_stimuli/rescaled_final/0180_rv.mp4	0.0	261.5146369934082	2.500246047973633
59	241.64929294586182	pulse	1	t		57.0	2.5	/experiments/AOT/AOT_stimuli/rescaled_final/0180_rv.mp4	0.0	262.6983280181885	
59	242.96584796905518	fix_post	2		12	57.0	2.5	/experiments/AOT/AOT_stimuli/rescaled_final/0180_rv.mp4	0.0	264.01488304138184	0.09998297691345215
60	243.06583094596863	fix_pre	0		120	58.0	2.5	/experiments/AOT/AOT_stimuli/rescaled_final/0882_fw.mp4	0.0	264.1148660182953	1.0000581741333008
60	243.24924993515015	pulse	0	t		58.0	2.5	/experiments/AOT/AOT_stimuli/rescaled_final/0882_fw.mp4	0.0	264.2982850074768	
60	244.06588912010193	movie	1		245	58.0	2.5	/experiments/AOT/AOT_stimuli/rescaled_final/0882_fw.mp4	0.0	265.1149241924286	2.499511957168579
60	244.84923005104065	pulse	1	t		58.0	2.5	/experiments/AOT/AOT_stimuli/rescaled_final/0882_fw.mp4	0.0	265.8982651233673	
60	246.45763301849365	pulse	1	t		58.0	2.5	/experiments/AOT/AOT_stimuli/rescaled_final/0882_fw.mp4	0.0	267.5066680908203	
60	246.5654010772705	fix_post	2		12	58.0	2.5	/experiments/AOT/AOT_stimuli/rescaled_final/0882_fw.mp4	0.0	267.61443614959717	0.1004478931427002
61	246.6658489704132	fix_pre	0		120	59.0	2.5	/experiments/AOT/AOT_stimuli/rescaled_final/0874_rv.mp4	0.0	267.71488404273987	1.0000159740447998
61	247.665864944458	movie	1		244	59.0	2.5	/experiments/AOT/AOT_stimuli/rescaled_final/0874_rv.mp4	0.0	268.71490001678467	2.500123977661133
61	248.04866003990173	pulse	1	t		59.0	2.5	/experiments/AOT/AOT_stimuli/rescaled_final/0874_rv.mp4	0.0	269.0976951122284	
61	249.64923000335693	pulse	1	t		59.0	2.5	/experiments/AOT/AOT_stimuli/rescaled_final/0874_rv.mp4	0.0	270.6982650756836	
61	250.16598892211914	fix_post	2		12	59.0	2.5	/experiments/AOT/AOT_stimuli/rescaled_final/0874_rv.mp4	0.0	271.2150239944458	0.09979701042175293
62	250.2657859325409	fix_pre	0		119	60.0	2.5	/experiments/AOT/AOT_stimuli/rescaled_final/0988_fw.mp4	0.0	271.31482100486755	0.991645097732544
62	251.24916911125183	pulse	0	t		60.0	2.5	/experiments/AOT/AOT_stimuli/rescaled_final/0988_fw.mp4	0.0	272.2982041835785	
62	251.25743103027344	movie	1		244	60.0	2.5	/experiments/AOT/AOT_stimuli/rescaled_final/0988_fw.mp4	0.0	272.3064661026001	2.5083560943603516
62	252.8490400314331	pulse	1	t		60.0	2.5	/experiments/AOT/AOT_stimuli/rescaled_final/0988_fw.mp4	0.0	273.89807510375977	
62	253.7657871246338	fix_post	2		12	60.0	2.5	/experiments/AOT/AOT_stimuli/rescaled_final/0988_fw.mp4	0.0	274.81482219696045	0.09998798370361328
63	253.8657751083374	fix_pre	0		120	61.0	2.5	/experiments/AOT/AOT_stimuli/rescaled_final/0217_fw.mp4	0.0	274.91481018066406	0.9999659061431885
63	254.4493510723114	pulse	0	t		61.0	2.5	/experiments/AOT/AOT_stimuli/rescaled_final/0217_fw.mp4	0.0	275.49838614463806	
63	254.8657410144806	movie	1		244	61.0	2.5	/experiments/AOT/AOT_stimuli/rescaled_final/0217_fw.mp4	0.0	275.91477608680725	2.499661922454834
63	256.049241065979	pulse	1	t		61.0	2.5	/experiments/AOT/AOT_stimuli/rescaled_final/0217_fw.mp4	0.0	277.09827613830566	
63	257.3654029369354	fix_post	2		12	61.0	2.5	/experiments/AOT/AOT_stimuli/rescaled_final/0217_fw.mp4	0.0	278.4144380092621	0.10032105445861816
64	257.46572399139404	fix_pre	0		120	62.0	2.5	blank	1.0	278.5147590637207	1.0000789165496826
64	257.6492509841919	pulse	0	t		62.0	2.5	blank	1.0	278.69828605651855	
64	258.4658029079437	movie	1		300	62.0	2.5	blank	1.0	279.5148379802704	2.4999310970306396
64	259.2492949962616	pulse	1	t		62.0	2.5	blank	1.0	280.29833006858826	
64	260.8491110801697	pulse	1	t		62.0	2.5	blank	1.0	281.89814615249634	
64	260.96573400497437	fix_post	2		12	62.0	2.5	blank	1.0	282.014769077301	0.1000370979309082
65	261.0657711029053	fix_pre	0		120	63.0	2.5	/experiments/AOT/AOT_stimuli/rescaled_final/1111_fw.mp4	0.0	282.11480617523193	0.9999938011169434
65	262.0657649040222	movie	1		243	63.0	2.5	/experiments/AOT/AOT_stimuli/rescaled_final/1111_fw.mp4	0.0	283.1147999763489	2.4999752044677734
65	262.44884991645813	pulse	1	t		63.0	2.5	/experiments/AOT/AOT_stimuli/rescaled_final/1111_fw.mp4	0.0	283.4978849887848	
65	264.0490770339966	pulse	1	t		63.0	2.5	/experiments/AOT/AOT_stimuli/rescaled_final/1111_fw.mp4	0.0	285.09811210632324	
65	264.56574010849	fix_post	2		12	63.0	2.5	/experiments/AOT/AOT_stimuli/rescaled_final/1111_fw.mp4	0.0	285.61477518081665	0.09997200965881348
66	264.6657121181488	fix_pre	0		119	64.0	2.5	/experiments/AOT/AOT_stimuli/rescaled_final/1089_rv.mp4	0.0	285.71474719047546	0.991635799407959
66	265.6492819786072	pulse	0	t		64.0	2.5	/experiments/AOT/AOT_stimuli/rescaled_final/1089_rv.mp4	0.0	286.69831705093384	
66	265.65734791755676	movie	1		246	64.0	2.5	/experiments/AOT/AOT_stimuli/rescaled_final/1089_rv.mp4	0.0	286.7063829898834	2.5083281993865967
66	267.2504279613495	pulse	1	t		64.0	2.5	/experiments/AOT/AOT_stimuli/rescaled_final/1089_rv.mp4	0.0	288.29946303367615	
66	268.16567611694336	fix_post	2		12	64.0	2.5	/experiments/AOT/AOT_stimuli/rescaled_final/1089_rv.mp4	0.0	289.21471118927	0.1000068187713623
67	268.2656829357147	fix_pre	0		120	65.0	2.5	/experiments/AOT/AOT_stimuli/rescaled_final/0781_rv.mp4	0.0	289.3147180080414	1.0000669956207275
67	268.84916496276855	pulse	0	t		65.0	2.5	/experiments/AOT/AOT_stimuli/rescaled_final/0781_rv.mp4	0.0	289.8982000350952	
67	269.26574993133545	movie	1		245	65.0	2.5	/experiments/AOT/AOT_stimuli/rescaled_final/0781_rv.mp4	0.0	290.3147850036621	2.4995319843292236
67	270.4491939544678	pulse	1	t		65.0	2.5	/experiments/AOT/AOT_stimuli/rescaled_final/0781_rv.mp4	0.0	291.49822902679443	
67	271.7652819156647	fix_post	2		12	65.0	2.5	/experiments/AOT/AOT_stimuli/rescaled_final/0781_rv.mp4	0.0	292.81431698799133	0.10045504570007324
68	271.86573696136475	fix_pre	0		120	66.0	2.5	/experiments/AOT/AOT_stimuli/rescaled_final/0812_fw.mp4	0.0	292.9147720336914	0.9998960494995117
68	272.04911708831787	pulse	0	t		66.0	2.5	/experiments/AOT/AOT_stimuli/rescaled_final/0812_fw.mp4	0.0	293.09815216064453	
68	272.86563301086426	movie	1		243	66.0	2.5	/experiments/AOT/AOT_stimuli/rescaled_final/0812_fw.mp4	0.0	293.9146680831909	2.4995880126953125
68	273.6490399837494	pulse	1	t		66.0	2.5	/experiments/AOT/AOT_stimuli/rescaled_final/0812_fw.mp4	0.0	294.69807505607605	
68	275.2575800418854	pulse	1	t		66.0	2.5	/experiments/AOT/AOT_stimuli/rescaled_final/0812_fw.mp4	0.0	296.30661511421204	
68	275.36522102355957	fix_post	2		12	66.0	2.5	/experiments/AOT/AOT_stimuli/rescaled_final/0812_fw.mp4	0.0	296.41425609588623	0.10050010681152344
69	275.4657211303711	fix_pre	0		120	67.0	2.5	/experiments/AOT/AOT_stimuli/rescaled_final/1834_rv.mp4	0.0	296.51475620269775	0.9999349117279053
69	276.465656042099	movie	1		243	67.0	2.5	/experiments/AOT/AOT_stimuli/rescaled_final/1834_rv.mp4	0.0	297.51469111442566	2.500053882598877
69	276.8492588996887	pulse	1	t		67.0	2.5	/experiments/AOT/AOT_stimuli/rescaled_final/1834_rv.mp4	0.0	297.8982939720154	
69	278.44904494285583	pulse	1	t		67.0	2.5	/experiments/AOT/AOT_stimuli/rescaled_final/1834_rv.mp4	0.0	299.4980800151825	
69	278.9657099246979	fix_post	2		12	67.0	2.5	/experiments/AOT/AOT_stimuli/rescaled_final/1834_rv.mp4	0.0	300.01474499702454	0.09996509552001953
70	279.0656750202179	fix_pre	0		119	68.0	2.5	blank	1.0	300.11471009254456	0.991645097732544
70	280.0491089820862	pulse	0	t		68.0	2.5	blank	1.0	301.09814405441284	
70	280.05732011795044	movie	1		301	68.0	2.5	blank	1.0	301.1063551902771	2.508296012878418
70	281.6490430831909	pulse	1	t		68.0	2.5	blank	1.0	302.6980781555176	
70	282.56561613082886	fix_post	2		12	68.0	2.5	blank	1.0	303.6146512031555	0.09996700286865234
71	282.6655831336975	fix_pre	0		120	69.0	2.5	/experiments/AOT/AOT_stimuli/rescaled_final/0881_fw.mp4	0.0	303.71461820602417	1.0000569820404053
71	283.2490999698639	pulse	0	t		69.0	2.5	/experiments/AOT/AOT_stimuli/rescaled_final/0881_fw.mp4	0.0	304.29813504219055	
71	283.6656401157379	movie	1		247	69.0	2.5	/experiments/AOT/AOT_stimuli/rescaled_final/0881_fw.mp4	0.0	304.7146751880646	2.499523878097534
71	284.8491840362549	pulse	1	t		69.0	2.5	/experiments/AOT/AOT_stimuli/rescaled_final/0881_fw.mp4	0.0	305.89821910858154	
71	286.16516399383545	fix_post	2		12	69.0	2.5	/experiments/AOT/AOT_stimuli/rescaled_final/0881_fw.mp4	0.0	307.2141990661621	0.10040712356567383
72	286.2655711174011	fix_pre	0		120	70.0	2.5	/experiments/AOT/AOT_stimuli/rescaled_final/1033_fw.mp4	0.0	307.3146061897278	1.000053882598877
72	286.4490399360657	pulse	0	t		70.0	2.5	/experiments/AOT/AOT_stimuli/rescaled_final/1033_fw.mp4	0.0	307.49807500839233	
72	287.265625	movie	1		244	70.0	2.5	/experiments/AOT/AOT_stimuli/rescaled_final/1033_fw.mp4	0.0	308.31466007232666	2.499541997909546
72	288.0490550994873	pulse	1	t		70.0	2.5	/experiments/AOT/AOT_stimuli/rescaled_final/1033_fw.mp4	0.0	309.09809017181396	
72	289.6574740409851	pulse	1	t		70.0	2.5	/experiments/AOT/AOT_stimuli/rescaled_final/1033_fw.mp4	0.0	310.70650911331177	
72	289.76516699790955	fix_post	2		12	70.0	2.5	/experiments/AOT/AOT_stimuli/rescaled_final/1033_fw.mp4	0.0	310.8142020702362	0.10046696662902832
73	289.8656339645386	fix_pre	0		120	71.0	2.5	/experiments/AOT/AOT_stimuli/rescaled_final/1604_fw.mp4	0.0	310.91466903686523	1.000040054321289
73	290.86567401885986	movie	1		243	71.0	2.5	/experiments/AOT/AOT_stimuli/rescaled_final/1604_fw.mp4	0.0	311.9147090911865	2.4999868869781494
73	291.24868392944336	pulse	1	t		71.0	2.5	/experiments/AOT/AOT_stimuli/rescaled_final/1604_fw.mp4	0.0	312.29771900177	
73	292.84907698631287	pulse	1	t		71.0	2.5	/experiments/AOT/AOT_stimuli/rescaled_final/1604_fw.mp4	0.0	313.8981120586395	
73	293.365660905838	fix_post	2		12	71.0	2.5	/experiments/AOT/AOT_stimuli/rescaled_final/1604_fw.mp4	0.0	314.4146959781647	0.09997820854187012
74	293.4656391143799	fix_pre	0		119	72.0	2.5	/experiments/AOT/AOT_stimuli/rescaled_final/1386_rv.mp4	0.0	314.51467418670654	0.991217851638794
74	294.4485831260681	pulse	0	t		72.0	2.5	/experiments/AOT/AOT_stimuli/rescaled_final/1386_rv.mp4	0.0	315.4976181983948	
74	294.4568569660187	movie	1		244	72.0	2.5	/experiments/AOT/AOT_stimuli/rescaled_final/1386_rv.mp4	0.0	315.50589203834534	2.5090110301971436
74	296.0489311218262	pulse	1	t		72.0	2.5	/experiments/AOT/AOT_stimuli/rescaled_final/1386_rv.mp4	0.0	317.09796619415283	
74	296.9658679962158	fix_post	2		12	72.0	2.5	/experiments/AOT/AOT_stimuli/rescaled_final/1386_rv.mp4	0.0	318.0149030685425	0.09963297843933105
75	297.06550097465515	fix_pre	0		120	73.0	2.5	/experiments/AOT/AOT_stimuli/rescaled_final/0787_fw.mp4	0.0	318.1145360469818	1.0001490116119385
75	297.64898800849915	pulse	0	t		73.0	2.5	/experiments/AOT/AOT_stimuli/rescaled_final/0787_fw.mp4	0.0	318.6980230808258	
75	298.0656499862671	movie	1		244	73.0	2.5	/experiments/AOT/AOT_stimuli/rescaled_final/0787_fw.mp4	0.0	319.11468505859375	2.499908924102783
75	299.2490520477295	pulse	1	t		73.0	2.5	/experiments/AOT/AOT_stimuli/rescaled_final/0787_fw.mp4	0.0	320.29808712005615	
75	300.5655589103699	fix_post	2		12	73.0	2.5	/experiments/AOT/AOT_stimuli/rescaled_final/0787_fw.mp4	0.0	321.61459398269653	0.10001420974731445
76	300.6655731201172	fix_pre	0		120	74.0	2.5	/experiments/AOT/AOT_stimuli/rescaled_final/1737_fw.mp4	0.0	321.71460819244385	0.9999618530273438
76	300.8490400314331	pulse	0	t		74.0	2.5	/experiments/AOT/AOT_stimuli/rescaled_final/1737_fw.mp4	0.0	321.89807510375977	
76	301.66553497314453	movie	1		243	74.0	2.5	/experiments/AOT/AOT_stimuli/rescaled_final/1737_fw.mp4	0.0	322.7145700454712	2.49960994720459
76	302.4489269256592	pulse	1	t		74.0	2.5	/experiments/AOT/AOT_stimuli/rescaled_final/1737_fw.mp4	0.0	323.49796199798584	
76	304.0573480129242	pulse	1	t		74.0	2.5	/experiments/AOT/AOT_stimuli/rescaled_final/1737_fw.mp4	0.0	325.10638308525085	
76	304.1651449203491	fix_post	2		12	74.0	2.5	/experiments/AOT/AOT_stimuli/rescaled_final/1737_fw.mp4	0.0	325.2141799926758	0.10049009323120117
77	304.2656350135803	fix_pre	0		120	75.0	2.5	blank	1.0	325.314670085907	0.9998788833618164
77	305.26551389694214	movie	1		300	75.0	2.5	blank	1.0	326.3145489692688	2.4999570846557617
77	305.64895701408386	pulse	1	t		75.0	2.5	blank	1.0	326.6979920864105	
77	307.24891090393066	pulse	1	t		75.0	2.5	blank	1.0	328.2979459762573	
77	307.7654709815979	fix_post	2		12	75.0	2.5	blank	1.0	328.81450605392456	0.10006213188171387
78	307.8655331134796	fix_pre	0		119	76.0	2.5	/experiments/AOT/AOT_stimuli/rescaled_final/0170_fw.mp4	0.0	328.9145681858063	0.9916319847106934
78	308.84891510009766	pulse	0	t		76.0	2.5	/experiments/AOT/AOT_stimuli/rescaled_final/0170_fw.mp4	0.0	329.8979501724243	
78	308.8571650981903	movie	1		245	76.0	2.5	/experiments/AOT/AOT_stimuli/rescaled_final/0170_fw.mp4	0.0	329.90620017051697	2.508394956588745
78	310.4483730792999	pulse	1	t		76.0	2.5	/experiments/AOT/AOT_stimuli/rescaled_final/0170_fw.mp4	0.0	331.4974081516266	
78	311.36556005477905	fix_post	2		12	76.0	2.5	/experiments/AOT/AOT_stimuli/rescaled_final/0170_fw.mp4	0.0	332.4145951271057	0.09997987747192383
79	311.465539932251	fix_pre	0		120	77.0	2.5	/experiments/AOT/AOT_stimuli/rescaled_final/0690_fw.mp4	0.0	332.51457500457764	0.9999980926513672
79	312.0489559173584	pulse	0	t		77.0	2.5	/experiments/AOT/AOT_stimuli/rescaled_final/0690_fw.mp4	0.0	333.09799098968506	
79	312.46553802490234	movie	1		244	77.0	2.5	/experiments/AOT/AOT_stimuli/rescaled_final/0690_fw.mp4	0.0	333.514573097229	2.4999489784240723
79	313.64899802207947	pulse	1	t		77.0	2.5	/experiments/AOT/AOT_stimuli/rescaled_final/0690_fw.mp4	0.0	334.6980330944061	
79	314.9654870033264	fix_post	2		12	77.0	2.5	/experiments/AOT/AOT_stimuli/rescaled_final/0690_fw.mp4	0.0	336.0145220756531	0.10002303123474121
80	315.06551003456116	fix_pre	0		120	78.0	2.5	/experiments/AOT/AOT_stimuli/rescaled_final/0069_rv.mp4	0.0	336.1145451068878	0.9999239444732666
80	315.24887895584106	pulse	0	t		78.0	2.5	/experiments/AOT/AOT_stimuli/rescaled_final/0069_rv.mp4	0.0	336.2979140281677	
80	316.0654339790344	movie	1		244	78.0	2.5	/experiments/AOT/AOT_stimuli/rescaled_final/0069_rv.mp4	0.0	337.1144690513611	2.4995839595794678
80	316.848886013031	pulse	1	t		78.0	2.5	/experiments/AOT/AOT_stimuli/rescaled_final/0069_rv.mp4	0.0	337.89792108535767	
80	318.44886898994446	pulse	1	t		78.0	2.5	/experiments/AOT/AOT_stimuli/rescaled_final/0069_rv.mp4	0.0	339.4979040622711	
80	318.5650179386139	fix_post	2		12	78.0	2.5	/experiments/AOT/AOT_stimuli/rescaled_final/0069_rv.mp4	0.0	339.61405301094055	0.10039114952087402
81	318.66540908813477	fix_pre	0		120	79.0	2.5	/experiments/AOT/AOT_stimuli/rescaled_final/0901_rv.mp4	0.0	339.7144441604614	0.999647855758667
81	319.66505694389343	movie	1		248	79.0	2.5	/experiments/AOT/AOT_stimuli/rescaled_final/0901_rv.mp4	0.0	340.7140920162201	2.5001721382141113
81	320.0573379993439	pulse	1	t		79.0	2.5	/experiments/AOT/AOT_stimuli/rescaled_final/0901_rv.mp4	0.0	341.10637307167053	
81	321.6488950252533	pulse	1	t		79.0	2.5	/experiments/AOT/AOT_stimuli/rescaled_final/0901_rv.mp4	0.0	342.69793009757996	
81	322.16522908210754	fix_post	2		12	79.0	2.5	/experiments/AOT/AOT_stimuli/rescaled_final/0901_rv.mp4	0.0	343.2142641544342	0.10027098655700684
82	322.26550006866455	fix_pre	0		119	80.0	2.5	/experiments/AOT/AOT_stimuli/rescaled_final/0508_fw.mp4	0.0	343.3145351409912	0.9915518760681152
82	323.24884510040283	pulse	0	t		80.0	2.5	/experiments/AOT/AOT_stimuli/rescaled_final/0508_fw.mp4	0.0	344.2978801727295	
82	323.25705194473267	movie	1		249	80.0	2.5	/experiments/AOT/AOT_stimuli/rescaled_final/0508_fw.mp4	0.0	344.3060870170593	2.5083839893341064
82	324.8500039577484	pulse	1	t		80.0	2.5	/experiments/AOT/AOT_stimuli/rescaled_final/0508_fw.mp4	0.0	345.8990390300751	
82	325.7654359340668	fix_post	2		12	80.0	2.5	/experiments/AOT/AOT_stimuli/rescaled_final/0508_fw.mp4	0.0	346.81447100639343	0.1000661849975586
83	325.86550211906433	fix_pre	0		120	81.0	2.5	/experiments/AOT/AOT_stimuli/rescaled_final/0101_rv.mp4	0.0	346.914537191391	0.9995098114013672
83	326.450208902359	pulse	0	t		81.0	2.5	/experiments/AOT/AOT_stimuli/rescaled_final/0101_rv.mp4	0.0	347.49924397468567	
83	326.8650119304657	movie	1		246	81.0	2.5	/experiments/AOT/AOT_stimuli/rescaled_final/0101_rv.mp4	0.0	347.91404700279236	2.4999849796295166
83	328.04891991615295	pulse	1	t		81.0	2.5	/experiments/AOT/AOT_stimuli/rescaled_final/0101_rv.mp4	0.0	349.0979549884796	
83	329.3649969100952	fix_post	2		12	81.0	2.5	/experiments/AOT/AOT_stimuli/rescaled_final/0101_rv.mp4	0.0	350.4140319824219	0.10034418106079102
84	329.465341091156	fix_pre	0		120	82.0	2.5	/experiments/AOT/AOT_stimuli/rescaled_final/0446_rv.mp4	0.0	350.51437616348267	1.0001349449157715
84	329.648845911026	pulse	0	t		82.0	2.5	/experiments/AOT/AOT_stimuli/rescaled_final/0446_rv.mp4	0.0	350.69788098335266	
84	330.4654760360718	movie	1		245	82.0	2.5	/experiments/AOT/AOT_stimuli/rescaled_final/0446_rv.mp4	0.0	351.51451110839844	2.4997808933258057
84	331.2487668991089	pulse	1	t		82.0	2.5	/experiments/AOT/AOT_stimuli/rescaled_final/0446_rv.mp4	0.0	352.29780197143555	
84	332.8572189807892	pulse	1	t		82.0	2.5	/experiments/AOT/AOT_stimuli/rescaled_final/0446_rv.mp4	0.0	353.90625405311584	
84	332.9652569293976	fix_post	2		12	82.0	2.5	/experiments/AOT/AOT_stimuli/rescaled_final/0446_rv.mp4	0.0	354.01429200172424	0.10010600090026855
85	333.06536293029785	fix_pre	0		120	83.0	2.5	blank	1.0	354.1143980026245	0.9999830722808838
85	334.06534600257874	movie	1		300	83.0	2.5	blank	1.0	355.1143810749054	2.5001060962677
85	334.4488570690155	pulse	1	t		83.0	2.5	blank	1.0	355.49789214134216	
85	336.0488529205322	pulse	1	t		83.0	2.5	blank	1.0	357.0978879928589	
85	336.56545209884644	fix_post	2		12	83.0	2.5	blank	1.0	357.6144871711731	0.09993100166320801
87	336.66538310050964	stim	0		1716					357.7144181728363	14.299631834030151
87	337.64886593818665	pulse	0	t						358.6979010105133	
87	339.24881291389465	pulse	0	t						360.2978479862213	
87	340.84876894950867	pulse	0	t						361.8978040218353	
87	342.44880199432373	pulse	0	t						363.4978370666504	
87	344.0487720966339	pulse	0	t						365.09780716896057	
87	345.6487920284271	pulse	0	t						366.6978271007538	
87	347.24875497817993	pulse	0	t						368.2977900505066	
87	348.848788022995	pulse	0	t						369.89782309532166	
87	350.4487729072571	pulse	0	t						371.49780797958374	
