trial_nr	onset	event_type	phase	response	nr_frames	movie_index	movie_duration	movie_file	blank	onset_abs	duration
0	0.15825104713439941	stim	0		1935					43.83816695213318	16.12488603591919
0	16.275187015533447	response	0	space						59.95510292053223	
1	16.28313708305359	stim	0		7651					59.96305298805237	63.75798988342285
1	80.03311491012573	pulse	0	t						123.71303081512451	
1	80.04112696647644	stim	1		1717					123.72104287147522	14.30820107460022
1	81.63294506072998	pulse	1	t						125.31286096572876	
1	83.23296093940735	pulse	1	t						126.91287684440613	
1	84.83293199539185	pulse	1	t						128.51284790039062	
1	86.43293309211731	pulse	1	t						130.1128489971161	
1	88.03295493125916	pulse	1	t						131.71287083625793	
1	89.63290309906006	pulse	1	t						133.31281900405884	
1	91.23293399810791	pulse	1	t						134.9128499031067	
1	92.83290600776672	pulse	1	t						136.5128219127655	
2	94.34932804107666	fix_pre	0		11	0.0	2.5	/experiments/AOT/AOT_stimuli/rescaled_final/1703_rv.mp4	0.0	138.02924394607544	0.09170198440551758
2	94.43291401863098	pulse	0	t		0.0	2.5	/experiments/AOT/AOT_stimuli/rescaled_final/1703_rv.mp4	0.0	138.11282992362976	
2	94.44103002548218	movie	1		243	0.0	2.5	/experiments/AOT/AOT_stimuli/rescaled_final/1703_rv.mp4	0.0	138.12094593048096	2.508344888687134
2	96.03249406814575	pulse	1	t		0.0	2.5	/experiments/AOT/AOT_stimuli/rescaled_final/1703_rv.mp4	0.0	139.71240997314453	
2	96.94937491416931	fix_post	2		12	0.0	2.5	/experiments/AOT/AOT_stimuli/rescaled_final/1703_rv.mp4	0.0	140.6292908191681	0.10000014305114746
3	97.04937505722046	fix_pre	0		120	1.0	2.5	/experiments/AOT/AOT_stimuli/rescaled_final/0663_rv.mp4	0.0	140.72929096221924	1.0001890659332275
3	97.63289999961853	pulse	0	t		1.0	2.5	/experiments/AOT/AOT_stimuli/rescaled_final/0663_rv.mp4	0.0	141.3128159046173	
3	98.04956412315369	movie	1		243	1.0	2.5	/experiments/AOT/AOT_stimuli/rescaled_final/0663_rv.mp4	0.0	141.72948002815247	2.499872922897339
3	99.23298692703247	pulse	1	t		1.0	2.5	/experiments/AOT/AOT_stimuli/rescaled_final/0663_rv.mp4	0.0	142.91290283203125	
3	100.54943704605103	fix_post	2		12	1.0	2.5	/experiments/AOT/AOT_stimuli/rescaled_final/0663_rv.mp4	0.0	144.2293529510498	0.10001397132873535
4	100.64945101737976	fix_pre	0		120	2.0	2.5	/experiments/AOT/AOT_stimuli/rescaled_final/0451_fw.mp4	0.0	144.32936692237854	1.000011920928955
4	100.8330569267273	pulse	0	t		2.0	2.5	/experiments/AOT/AOT_stimuli/rescaled_final/0451_fw.mp4	0.0	144.51297283172607	
4	101.64946293830872	movie	1		242	2.0	2.5	/experiments/AOT/AOT_stimuli/rescaled_final/0451_fw.mp4	0.0	145.3293788433075	2.4995510578155518
4	102.43279194831848	pulse	1	t		2.0	2.5	/experiments/AOT/AOT_stimuli/rescaled_final/0451_fw.mp4	0.0	146.11270785331726	
4	104.0312180519104	pulse	1	t		2.0	2.5	/experiments/AOT/AOT_stimuli/rescaled_final/0451_fw.mp4	0.0	147.71113395690918	
4	104.14901399612427	fix_post	2		12	2.0	2.5	/experiments/AOT/AOT_stimuli/rescaled_final/0451_fw.mp4	0.0	147.82892990112305	0.10034894943237305
5	104.24936294555664	fix_pre	0		120	3.0	2.5	/experiments/AOT/AOT_stimuli/rescaled_final/0242_rv.mp4	0.0	147.92927885055542	0.9999971389770508
5	105.24936008453369	movie	1		244	3.0	2.5	/experiments/AOT/AOT_stimuli/rescaled_final/0242_rv.mp4	0.0	148.92927598953247	2.5000619888305664
5	105.63391995429993	pulse	1	t		3.0	2.5	/experiments/AOT/AOT_stimuli/rescaled_final/0242_rv.mp4	0.0	149.3138358592987	
5	107.23285293579102	pulse	1	t		3.0	2.5	/experiments/AOT/AOT_stimuli/rescaled_final/0242_rv.mp4	0.0	150.9127688407898	
5	107.74942207336426	fix_post	2		12	3.0	2.5	/experiments/AOT/AOT_stimuli/rescaled_final/0242_rv.mp4	0.0	151.42933797836304	0.09999704360961914
6	107.84941911697388	fix_pre	0		119	4.0	2.5	/experiments/AOT/AOT_stimuli/rescaled_final/0592_fw.mp4	0.0	151.52933502197266	0.9916830062866211
6	108.8328309059143	pulse	0	t		4.0	2.5	/experiments/AOT/AOT_stimuli/rescaled_final/0592_fw.mp4	0.0	152.5127468109131	
6	108.8411021232605	movie	1		245	4.0	2.5	/experiments/AOT/AOT_stimuli/rescaled_final/0592_fw.mp4	0.0	152.52101802825928	2.508279800415039
6	110.43358397483826	pulse	1	t		4.0	2.5	/experiments/AOT/AOT_stimuli/rescaled_final/0592_fw.mp4	0.0	154.11349987983704	
6	111.34938192367554	fix_post	2		12	4.0	2.5	/experiments/AOT/AOT_stimuli/rescaled_final/0592_fw.mp4	0.0	155.02929782867432	0.09996914863586426
7	111.4493510723114	fix_pre	0		120	5.0	2.5	blank	1.0	155.12926697731018	0.9999129772186279
7	112.03285098075867	pulse	0	t		5.0	2.5	blank	1.0	155.71276688575745	
7	112.44926404953003	movie	1		300	5.0	2.5	blank	1.0	156.1291799545288	2.4999759197235107
7	113.6328010559082	pulse	1	t		5.0	2.5	blank	1.0	157.31271696090698	
7	114.94923996925354	fix_post	2		12	5.0	2.5	blank	1.0	158.62915587425232	0.11677408218383789
8	115.06601405143738	fix_pre	0		118	6.0	2.5	/experiments/AOT/AOT_stimuli/rescaled_final/2017_rv.mp4	0.0	158.74592995643616	0.9832320213317871
8	115.23286604881287	pulse	0	t		6.0	2.5	/experiments/AOT/AOT_stimuli/rescaled_final/2017_rv.mp4	0.0	158.91278195381165	
8	116.04924607276917	movie	1		244	6.0	2.5	/experiments/AOT/AOT_stimuli/rescaled_final/2017_rv.mp4	0.0	159.72916197776794	2.500121831893921
8	116.83279991149902	pulse	1	t		6.0	2.5	/experiments/AOT/AOT_stimuli/rescaled_final/2017_rv.mp4	0.0	160.5127158164978	
8	118.43134093284607	pulse	1	t		6.0	2.5	/experiments/AOT/AOT_stimuli/rescaled_final/2017_rv.mp4	0.0	162.11125683784485	
8	118.54936790466309	fix_post	2		12	6.0	2.5	/experiments/AOT/AOT_stimuli/rescaled_final/2017_rv.mp4	0.0	162.22928380966187	0.09993410110473633
9	118.64930200576782	fix_pre	0		120	7.0	2.5	/experiments/AOT/AOT_stimuli/rescaled_final/0756_fw.mp4	0.0	162.3292179107666	1.000025987625122
9	119.64932799339294	movie	1		247	7.0	2.5	/experiments/AOT/AOT_stimuli/rescaled_final/0756_fw.mp4	0.0	163.32924389839172	2.4995810985565186
9	120.03253889083862	pulse	1	t		7.0	2.5	/experiments/AOT/AOT_stimuli/rescaled_final/0756_fw.mp4	0.0	163.7124547958374	
9	121.63227391242981	pulse	1	t		7.0	2.5	/experiments/AOT/AOT_stimuli/rescaled_final/0756_fw.mp4	0.0	165.3121898174286	
9	122.14890909194946	fix_post	2		12	7.0	2.5	/experiments/AOT/AOT_stimuli/rescaled_final/0756_fw.mp4	0.0	165.82882499694824	0.09999585151672363
10	122.24890494346619	fix_pre	0		119	8.0	2.5	/experiments/AOT/AOT_stimuli/rescaled_final/2113_fw.mp4	0.0	165.92882084846497	0.9921910762786865
10	123.23295402526855	pulse	0	t		8.0	2.5	/experiments/AOT/AOT_stimuli/rescaled_final/2113_fw.mp4	0.0	166.91286993026733	
10	123.24109601974487	movie	1		246	8.0	2.5	/experiments/AOT/AOT_stimuli/rescaled_final/2113_fw.mp4	0.0	166.92101192474365	2.5082550048828125
10	124.83212304115295	pulse	1	t		8.0	2.5	/experiments/AOT/AOT_stimuli/rescaled_final/2113_fw.mp4	0.0	168.51203894615173	
10	125.74935102462769	fix_post	2		12	8.0	2.5	/experiments/AOT/AOT_stimuli/rescaled_final/2113_fw.mp4	0.0	169.42926692962646	0.09991002082824707
11	125.84926104545593	fix_pre	0		120	9.0	2.5	/experiments/AOT/AOT_stimuli/rescaled_final/2057_rv.mp4	0.0	169.5291769504547	1.0000309944152832
11	126.4327700138092	pulse	0	t		9.0	2.5	/experiments/AOT/AOT_stimuli/rescaled_final/2057_rv.mp4	0.0	170.11268591880798	
11	126.84929203987122	movie	1		244	9.0	2.5	/experiments/AOT/AOT_stimuli/rescaled_final/2057_rv.mp4	0.0	170.52920794487	2.5000150203704834
11	128.03274011611938	pulse	1	t		9.0	2.5	/experiments/AOT/AOT_stimuli/rescaled_final/2057_rv.mp4	0.0	171.71265602111816	
11	129.3493070602417	fix_post	2		12	9.0	2.5	/experiments/AOT/AOT_stimuli/rescaled_final/2057_rv.mp4	0.0	173.02922296524048	0.09991598129272461
12	129.44922304153442	fix_pre	0		120	10.0	2.5	/experiments/AOT/AOT_stimuli/rescaled_final/1528_rv.mp4	0.0	173.1291389465332	1.0000319480895996
12	129.63265299797058	pulse	0	t		10.0	2.5	/experiments/AOT/AOT_stimuli/rescaled_final/1528_rv.mp4	0.0	173.31256890296936	
12	130.44925498962402	movie	1		246	10.0	2.5	/experiments/AOT/AOT_stimuli/rescaled_final/1528_rv.mp4	0.0	174.1291708946228	2.4999799728393555
12	131.23273992538452	pulse	1	t		10.0	2.5	/experiments/AOT/AOT_stimuli/rescaled_final/1528_rv.mp4	0.0	174.9126558303833	
12	132.8327488899231	pulse	1	t		10.0	2.5	/experiments/AOT/AOT_stimuli/rescaled_final/1528_rv.mp4	0.0	176.51266479492188	
12	132.94923496246338	fix_post	2		12	10.0	2.5	/experiments/AOT/AOT_stimuli/rescaled_final/1528_rv.mp4	0.0	176.62915086746216	0.09999203681945801
13	133.04922699928284	fix_pre	0		120	11.0	2.5	/experiments/AOT/AOT_stimuli/rescaled_final/0878_rv.mp4	0.0	176.72914290428162	1.0000181198120117
13	134.04924511909485	movie	1		244	11.0	2.5	/experiments/AOT/AOT_stimuli/rescaled_final/0878_rv.mp4	0.0	177.72916102409363	2.499969005584717
13	134.43232989311218	pulse	1	t		11.0	2.5	/experiments/AOT/AOT_stimuli/rescaled_final/0878_rv.mp4	0.0	178.11224579811096	
13	136.0326828956604	pulse	1	t		11.0	2.5	/experiments/AOT/AOT_stimuli/rescaled_final/0878_rv.mp4	0.0	179.71259880065918	
13	136.54921412467957	fix_post	2		12	11.0	2.5	/experiments/AOT/AOT_stimuli/rescaled_final/0878_rv.mp4	0.0	180.22913002967834	0.09999299049377441
14	136.64920711517334	fix_pre	0		119	12.0	2.5	/experiments/AOT/AOT_stimuli/rescaled_final/0714_fw.mp4	0.0	180.32912302017212	0.9916589260101318
14	137.63264799118042	pulse	0	t		12.0	2.5	/experiments/AOT/AOT_stimuli/rescaled_final/0714_fw.mp4	0.0	181.3125638961792	
14	137.64086604118347	movie	1		245	12.0	2.5	/experiments/AOT/AOT_stimuli/rescaled_final/0714_fw.mp4	0.0	181.32078194618225	2.508333921432495
14	139.2326500415802	pulse	1	t		12.0	2.5	/experiments/AOT/AOT_stimuli/rescaled_final/0714_fw.mp4	0.0	182.91256594657898	
14	140.14919996261597	fix_post	2		12	12.0	2.5	/experiments/AOT/AOT_stimuli/rescaled_final/0714_fw.mp4	0.0	183.82911586761475	0.09990310668945312
15	140.24910306930542	fix_pre	0		120	13.0	2.5	blank	1.0	183.9290189743042	1.0001459121704102
15	140.83269810676575	pulse	0	t		13.0	2.5	blank	1.0	184.51261401176453	
15	141.24924898147583	movie	1		300	13.0	2.5	blank	1.0	184.9291648864746	2.4998490810394287
15	142.43268704414368	pulse	1	t		13.0	2.5	blank	1.0	186.11260294914246	
15	143.74909806251526	fix_post	2		12	13.0	2.5	blank	1.0	187.42901396751404	0.10004496574401855
16	143.84914302825928	fix_pre	0		120	14.0	2.5	/experiments/AOT/AOT_stimuli/rescaled_final/2133_fw.mp4	0.0	187.52905893325806	1.0000450611114502
16	144.0327000617981	pulse	0	t		14.0	2.5	/experiments/AOT/AOT_stimuli/rescaled_final/2133_fw.mp4	0.0	187.71261596679688	
16	144.84918808937073	movie	1		243	14.0	2.5	/experiments/AOT/AOT_stimuli/rescaled_final/2133_fw.mp4	0.0	188.5291039943695	2.5000250339508057
16	145.63266611099243	pulse	1	t		14.0	2.5	/experiments/AOT/AOT_stimuli/rescaled_final/2133_fw.mp4	0.0	189.3125820159912	
16	147.23099303245544	pulse	1	t		14.0	2.5	/experiments/AOT/AOT_stimuli/rescaled_final/2133_fw.mp4	0.0	190.91090893745422	
16	147.34921312332153	fix_post	2		12	14.0	2.5	/experiments/AOT/AOT_stimuli/rescaled_final/2133_fw.mp4	0.0	191.0291290283203	0.10000991821289062
17	147.44922304153442	fix_pre	0		120	15.0	2.5	/experiments/AOT/AOT_stimuli/rescaled_final/0919_fw.mp4	0.0	191.1291389465332	0.9999668598175049
17	148.44918990135193	movie	1		243	15.0	2.5	/experiments/AOT/AOT_stimuli/rescaled_final/0919_fw.mp4	0.0	192.1291058063507	2.4999940395355225
17	148.8323109149933	pulse	1	t		15.0	2.5	/experiments/AOT/AOT_stimuli/rescaled_final/0919_fw.mp4	0.0	192.51222681999207	
17	150.43256902694702	pulse	1	t		15.0	2.5	/experiments/AOT/AOT_stimuli/rescaled_final/0919_fw.mp4	0.0	194.1124849319458	
17	150.94918394088745	fix_post	2		12	15.0	2.5	/experiments/AOT/AOT_stimuli/rescaled_final/0919_fw.mp4	0.0	194.62909984588623	0.09995818138122559
18	151.04914212226868	fix_pre	0		119	16.0	2.5	/experiments/AOT/AOT_stimuli/rescaled_final/0986_rv.mp4	0.0	194.72905802726746	0.9916248321533203
18	152.0326669216156	pulse	0	t		16.0	2.5	/experiments/AOT/AOT_stimuli/rescaled_final/0986_rv.mp4	0.0	195.71258282661438	
18	152.040766954422	movie	1		245	16.0	2.5	/experiments/AOT/AOT_stimuli/rescaled_final/0986_rv.mp4	0.0	195.72068285942078	2.508345127105713
18	153.63221096992493	pulse	1	t		16.0	2.5	/experiments/AOT/AOT_stimuli/rescaled_final/0986_rv.mp4	0.0	197.3121268749237	
18	154.5491120815277	fix_post	2		12	16.0	2.5	/experiments/AOT/AOT_stimuli/rescaled_final/0986_rv.mp4	0.0	198.2290279865265	0.1000058650970459
19	154.64911794662476	fix_pre	0		120	17.0	2.5	/experiments/AOT/AOT_stimuli/rescaled_final/1144_fw.mp4	0.0	198.32903385162354	0.9999890327453613
19	155.23264908790588	pulse	0	t		17.0	2.5	/experiments/AOT/AOT_stimuli/rescaled_final/1144_fw.mp4	0.0	198.91256499290466	
19	155.64910697937012	movie	1		243	17.0	2.5	/experiments/AOT/AOT_stimuli/rescaled_final/1144_fw.mp4	0.0	199.3290228843689	2.500066041946411
19	156.8326930999756	pulse	1	t		17.0	2.5	/experiments/AOT/AOT_stimuli/rescaled_final/1144_fw.mp4	0.0	200.51260900497437	
19	158.14917302131653	fix_post	2		12	17.0	2.5	/experiments/AOT/AOT_stimuli/rescaled_final/1144_fw.mp4	0.0	201.8290889263153	0.0999748706817627
20	158.2491478919983	fix_pre	0		120	18.0	2.5	/experiments/AOT/AOT_stimuli/rescaled_final/1571_rv.mp4	0.0	201.92906379699707	1.0001120567321777
20	158.43260312080383	pulse	0	t		18.0	2.5	/experiments/AOT/AOT_stimuli/rescaled_final/1571_rv.mp4	0.0	202.1125190258026	
20	159.24925994873047	movie	1		243	18.0	2.5	/experiments/AOT/AOT_stimuli/rescaled_final/1571_rv.mp4	0.0	202.92917585372925	2.4998531341552734
20	160.03260612487793	pulse	1	t		18.0	2.5	/experiments/AOT/AOT_stimuli/rescaled_final/1571_rv.mp4	0.0	203.7125220298767	
20	161.63093304634094	pulse	1	t		18.0	2.5	/experiments/AOT/AOT_stimuli/rescaled_final/1571_rv.mp4	0.0	205.31084895133972	
20	161.74911308288574	fix_post	2		12	18.0	2.5	/experiments/AOT/AOT_stimuli/rescaled_final/1571_rv.mp4	0.0	205.42902898788452	0.09996795654296875
21	161.8490810394287	fix_pre	0		120	19.0	2.5	blank	1.0	205.5289969444275	1.000082015991211
21	162.84916305541992	movie	1		300	19.0	2.5	blank	1.0	206.5290789604187	2.4998838901519775
21	163.23257112503052	pulse	1	t		19.0	2.5	blank	1.0	206.9124870300293	
21	164.8325550556183	pulse	1	t		19.0	2.5	blank	1.0	208.51247096061707	
21	165.3490469455719	fix_post	2		12	19.0	2.5	blank	1.0	209.02896285057068	0.1000370979309082
22	165.4490840435028	fix_pre	0		119	20.0	2.5	/experiments/AOT/AOT_stimuli/rescaled_final/0829_fw.mp4	0.0	209.1289999485016	0.9916629791259766
22	166.43258690834045	pulse	0	t		20.0	2.5	/experiments/AOT/AOT_stimuli/rescaled_final/0829_fw.mp4	0.0	210.11250281333923	
22	166.44074702262878	movie	1		246	20.0	2.5	/experiments/AOT/AOT_stimuli/rescaled_final/0829_fw.mp4	0.0	210.12066292762756	2.5083060264587402
22	168.03243398666382	pulse	1	t		20.0	2.5	/experiments/AOT/AOT_stimuli/rescaled_final/0829_fw.mp4	0.0	211.7123498916626	
22	168.94905304908752	fix_post	2		12	20.0	2.5	/experiments/AOT/AOT_stimuli/rescaled_final/0829_fw.mp4	0.0	212.6289689540863	0.09998703002929688
23	169.04904007911682	fix_pre	0		120	21.0	2.5	/experiments/AOT/AOT_stimuli/rescaled_final/1227_rv.mp4	0.0	212.7289559841156	1.000058889389038
23	169.63256001472473	pulse	0	t		21.0	2.5	/experiments/AOT/AOT_stimuli/rescaled_final/1227_rv.mp4	0.0	213.3124759197235	
23	170.04909896850586	movie	1		243	21.0	2.5	/experiments/AOT/AOT_stimuli/rescaled_final/1227_rv.mp4	0.0	213.72901487350464	2.4999639987945557
23	171.23262810707092	pulse	1	t		21.0	2.5	/experiments/AOT/AOT_stimuli/rescaled_final/1227_rv.mp4	0.0	214.9125440120697	
23	172.54906296730042	fix_post	2		12	21.0	2.5	/experiments/AOT/AOT_stimuli/rescaled_final/1227_rv.mp4	0.0	216.2289788722992	0.10000896453857422
24	172.649071931839	fix_pre	0		120	22.0	2.5	/experiments/AOT/AOT_stimuli/rescaled_final/0456_fw.mp4	0.0	216.32898783683777	0.999993085861206
24	172.83258199691772	pulse	0	t		22.0	2.5	/experiments/AOT/AOT_stimuli/rescaled_final/0456_fw.mp4	0.0	216.5124979019165	
24	173.6490650177002	movie	1		244	22.0	2.5	/experiments/AOT/AOT_stimuli/rescaled_final/0456_fw.mp4	0.0	217.32898092269897	2.5001049041748047
24	174.43257403373718	pulse	1	t		22.0	2.5	/experiments/AOT/AOT_stimuli/rescaled_final/0456_fw.mp4	0.0	218.11248993873596	
24	176.0309009552002	pulse	1	t		22.0	2.5	/experiments/AOT/AOT_stimuli/rescaled_final/0456_fw.mp4	0.0	219.71081686019897	
24	176.149169921875	fix_post	2		12	22.0	2.5	/experiments/AOT/AOT_stimuli/rescaled_final/0456_fw.mp4	0.0	219.82908582687378	0.09981417655944824
25	176.24898409843445	fix_pre	0		120	23.0	2.5	/experiments/AOT/AOT_stimuli/rescaled_final/1267_fw.mp4	0.0	219.92890000343323	1.000072956085205
25	177.24905705451965	movie	1		246	23.0	2.5	/experiments/AOT/AOT_stimuli/rescaled_final/1267_fw.mp4	0.0	220.92897295951843	2.5002448558807373
25	177.63193202018738	pulse	1	t		23.0	2.5	/experiments/AOT/AOT_stimuli/rescaled_final/1267_fw.mp4	0.0	221.31184792518616	
25	179.23220205307007	pulse	1	t		23.0	2.5	/experiments/AOT/AOT_stimuli/rescaled_final/1267_fw.mp4	0.0	222.91211795806885	
25	179.7493019104004	fix_post	2		12	23.0	2.5	/experiments/AOT/AOT_stimuli/rescaled_final/1267_fw.mp4	0.0	223.42921781539917	0.0999760627746582
26	179.84927797317505	fix_pre	0		119	24.0	2.5	/experiments/AOT/AOT_stimuli/rescaled_final/1286_rv.mp4	0.0	223.52919387817383	0.9914031028747559
26	180.8324999809265	pulse	0	t		24.0	2.5	/experiments/AOT/AOT_stimuli/rescaled_final/1286_rv.mp4	0.0	224.5124158859253	
26	180.8406810760498	movie	1		245	24.0	2.5	/experiments/AOT/AOT_stimuli/rescaled_final/1286_rv.mp4	0.0	224.52059698104858	2.5084588527679443
26	182.43219995498657	pulse	1	t		24.0	2.5	/experiments/AOT/AOT_stimuli/rescaled_final/1286_rv.mp4	0.0	226.11211585998535	
26	183.34913992881775	fix_post	2		12	24.0	2.5	/experiments/AOT/AOT_stimuli/rescaled_final/1286_rv.mp4	0.0	227.02905583381653	0.09987998008728027
27	183.44901990890503	fix_pre	0		120	25.0	2.5	/experiments/AOT/AOT_stimuli/rescaled_final/0682_rv.mp4	0.0	227.1289358139038	0.999993085861206
27	184.03248190879822	pulse	0	t		25.0	2.5	/experiments/AOT/AOT_stimuli/rescaled_final/0682_rv.mp4	0.0	227.712397813797	
27	184.44901299476624	movie	1		244	25.0	2.5	/experiments/AOT/AOT_stimuli/rescaled_final/0682_rv.mp4	0.0	228.12892889976501	2.49993896484375
27	185.63249707221985	pulse	1	t		25.0	2.5	/experiments/AOT/AOT_stimuli/rescaled_final/0682_rv.mp4	0.0	229.31241297721863	
27	186.94895195960999	fix_post	2		12	25.0	2.5	/experiments/AOT/AOT_stimuli/rescaled_final/0682_rv.mp4	0.0	230.62886786460876	0.10009098052978516
28	187.04904294013977	fix_pre	0		120	26.0	2.5	/experiments/AOT/AOT_stimuli/rescaled_final/0245_rv.mp4	0.0	230.72895884513855	0.9999279975891113
28	187.23245406150818	pulse	0	t		26.0	2.5	/experiments/AOT/AOT_stimuli/rescaled_final/0245_rv.mp4	0.0	230.91236996650696	
28	188.04897093772888	movie	1		243	26.0	2.5	/experiments/AOT/AOT_stimuli/rescaled_final/0245_rv.mp4	0.0	231.72888684272766	2.4999430179595947
28	188.83243107795715	pulse	1	t		26.0	2.5	/experiments/AOT/AOT_stimuli/rescaled_final/0245_rv.mp4	0.0	232.51234698295593	
28	190.432785987854	pulse	1	t		26.0	2.5	/experiments/AOT/AOT_stimuli/rescaled_final/0245_rv.mp4	0.0	234.11270189285278	
28	190.54891395568848	fix_post	2		12	26.0	2.5	/experiments/AOT/AOT_stimuli/rescaled_final/0245_rv.mp4	0.0	234.22882986068726	0.10003805160522461
29	190.6489520072937	fix_pre	0		120	27.0	2.5	/experiments/AOT/AOT_stimuli/rescaled_final/1040_rv.mp4	0.0	234.32886791229248	0.9999699592590332
29	191.64892196655273	movie	1		243	27.0	2.5	/experiments/AOT/AOT_stimuli/rescaled_final/1040_rv.mp4	0.0	235.3288378715515	2.4999840259552
29	192.03351712226868	pulse	1	t		27.0	2.5	/experiments/AOT/AOT_stimuli/rescaled_final/1040_rv.mp4	0.0	235.71343302726746	
29	193.63234090805054	pulse	1	t		27.0	2.5	/experiments/AOT/AOT_stimuli/rescaled_final/1040_rv.mp4	0.0	237.31225681304932	
29	194.14890599250793	fix_post	2		12	27.0	2.5	/experiments/AOT/AOT_stimuli/rescaled_final/1040_rv.mp4	0.0	237.8288218975067	0.0999600887298584
30	194.2488660812378	fix_pre	0		119	28.0	2.5	blank	1.0	237.92878198623657	0.9917058944702148
30	195.23240900039673	pulse	0	t		28.0	2.5	blank	1.0	238.9123249053955	
30	195.240571975708	movie	1		301	28.0	2.5	blank	1.0	238.9204878807068	2.508341073989868
30	196.832377910614	pulse	1	t		28.0	2.5	blank	1.0	240.5122938156128	
30	197.74891304969788	fix_post	2		12	28.0	2.5	blank	1.0	241.42882895469666	0.09995388984680176
31	197.84886693954468	fix_pre	0		120	29.0	2.5	/experiments/AOT/AOT_stimuli/rescaled_final/1683_fw.mp4	0.0	241.52878284454346	1.0000970363616943
31	198.43241810798645	pulse	0	t		29.0	2.5	/experiments/AOT/AOT_stimuli/rescaled_final/1683_fw.mp4	0.0	242.11233401298523	
31	198.84896397590637	movie	1		241	29.0	2.5	/experiments/AOT/AOT_stimuli/rescaled_final/1683_fw.mp4	0.0	242.52887988090515	2.4998810291290283
31	200.03241896629333	pulse	1	t		29.0	2.5	/experiments/AOT/AOT_stimuli/rescaled_final/1683_fw.mp4	0.0	243.71233487129211	
31	201.3488450050354	fix_post	2		12	29.0	2.5	/experiments/AOT/AOT_stimuli/rescaled_final/1683_fw.mp4	0.0	245.02876091003418	0.10010504722595215
32	201.44895005226135	fix_pre	0		120	30.0	2.5	/experiments/AOT/AOT_stimuli/rescaled_final/0211_rv.mp4	0.0	245.12886595726013	0.9999830722808838
32	201.63231706619263	pulse	0	t		30.0	2.5	/experiments/AOT/AOT_stimuli/rescaled_final/0211_rv.mp4	0.0	245.3122329711914	
32	202.44893312454224	movie	1		244	30.0	2.5	/experiments/AOT/AOT_stimuli/rescaled_final/0211_rv.mp4	0.0	246.12884902954102	2.499941825866699
32	203.23245406150818	pulse	1	t		30.0	2.5	/experiments/AOT/AOT_stimuli/rescaled_final/0211_rv.mp4	0.0	246.91236996650696	
32	204.83078503608704	pulse	1	t		30.0	2.5	/experiments/AOT/AOT_stimuli/rescaled_final/0211_rv.mp4	0.0	248.51070094108582	
32	204.94887495040894	fix_post	2		12	30.0	2.5	/experiments/AOT/AOT_stimuli/rescaled_final/0211_rv.mp4	0.0	248.62879085540771	0.09995698928833008
33	205.04883193969727	fix_pre	0		120	31.0	2.5	/experiments/AOT/AOT_stimuli/rescaled_final/0004_rv.mp4	0.0	248.72874784469604	1.0000150203704834
33	206.04884696006775	movie	1		243	31.0	2.5	/experiments/AOT/AOT_stimuli/rescaled_final/0004_rv.mp4	0.0	249.72876286506653	2.5000481605529785
33	206.43166708946228	pulse	1	t		31.0	2.5	/experiments/AOT/AOT_stimuli/rescaled_final/0004_rv.mp4	0.0	250.11158299446106	
33	208.0323770046234	pulse	1	t		31.0	2.5	/experiments/AOT/AOT_stimuli/rescaled_final/0004_rv.mp4	0.0	251.7122929096222	
33	208.54889512062073	fix_post	2		12	31.0	2.5	/experiments/AOT/AOT_stimuli/rescaled_final/0004_rv.mp4	0.0	252.2288110256195	0.09989285469055176
34	208.64878797531128	fix_pre	0		119	32.0	2.5	/experiments/AOT/AOT_stimuli/rescaled_final/0189_fw.mp4	0.0	252.32870388031006	0.9917490482330322
34	209.63229894638062	pulse	0	t		32.0	2.5	/experiments/AOT/AOT_stimuli/rescaled_final/0189_fw.mp4	0.0	253.3122148513794	
34	209.6405370235443	movie	1		245	32.0	2.5	/experiments/AOT/AOT_stimuli/rescaled_final/0189_fw.mp4	0.0	253.3204529285431	2.5082099437713623
34	211.23205590248108	pulse	1	t		32.0	2.5	/experiments/AOT/AOT_stimuli/rescaled_final/0189_fw.mp4	0.0	254.91197180747986	
34	212.14874696731567	fix_post	2		12	32.0	2.5	/experiments/AOT/AOT_stimuli/rescaled_final/0189_fw.mp4	0.0	255.82866287231445	0.10010194778442383
35	212.2488489151001	fix_pre	0		120	33.0	2.5	/experiments/AOT/AOT_stimuli/rescaled_final/0211_rv.mp4	0.0	255.92876482009888	1.0000460147857666
35	212.83230209350586	pulse	0	t		33.0	2.5	/experiments/AOT/AOT_stimuli/rescaled_final/0211_rv.mp4	0.0	256.51221799850464	
35	213.24889492988586	movie	1		245	33.0	2.5	/experiments/AOT/AOT_stimuli/rescaled_final/0211_rv.mp4	0.0	256.92881083488464	2.499917984008789
35	214.43240189552307	pulse	1	t		33.0	2.5	/experiments/AOT/AOT_stimuli/rescaled_final/0211_rv.mp4	0.0	258.11231780052185	
35	215.74881291389465	fix_post	2		12	33.0	2.5	/experiments/AOT/AOT_stimuli/rescaled_final/0211_rv.mp4	0.0	259.42872881889343	0.09992003440856934
36	215.84873294830322	fix_pre	0		120	34.0	2.5	blank	1.0	259.528648853302	1.00006103515625
36	216.03233003616333	pulse	0	t		34.0	2.5	blank	1.0	259.7122459411621	
36	216.84879398345947	movie	1		300	34.0	2.5	blank	1.0	260.52870988845825	2.5000181198120117
36	217.63228011131287	pulse	1	t		34.0	2.5	blank	1.0	261.31219601631165	
36	219.23227500915527	pulse	1	t		34.0	2.5	blank	1.0	262.91219091415405	
36	219.34881210327148	fix_post	2		12	34.0	2.5	blank	1.0	263.02872800827026	0.0999448299407959
37	219.44875693321228	fix_pre	0		120	35.0	2.5	/experiments/AOT/AOT_stimuli/rescaled_final/1328_fw.mp4	0.0	263.12867283821106	1.0001111030578613
37	220.44886803627014	movie	1		245	35.0	2.5	/experiments/AOT/AOT_stimuli/rescaled_final/1328_fw.mp4	0.0	264.1287839412689	2.499454975128174
37	220.83188009262085	pulse	1	t		35.0	2.5	/experiments/AOT/AOT_stimuli/rescaled_final/1328_fw.mp4	0.0	264.51179599761963	
37	222.4322590827942	pulse	1	t		35.0	2.5	/experiments/AOT/AOT_stimuli/rescaled_final/1328_fw.mp4	0.0	266.11217498779297	
37	222.94832301139832	fix_post	2		12	35.0	2.5	/experiments/AOT/AOT_stimuli/rescaled_final/1328_fw.mp4	0.0	266.6282389163971	0.10054397583007812
38	223.0488669872284	fix_pre	0		119	36.0	2.5	/experiments/AOT/AOT_stimuli/rescaled_final/0878_fw.mp4	0.0	266.7287828922272	0.9915680885314941
38	224.0322780609131	pulse	0	t		36.0	2.5	/experiments/AOT/AOT_stimuli/rescaled_final/0878_fw.mp4	0.0	267.71219396591187	
38	224.0404350757599	movie	1		245	36.0	2.5	/experiments/AOT/AOT_stimuli/rescaled_final/0878_fw.mp4	0.0	267.72035098075867	2.5083069801330566
38	225.63199400901794	pulse	1	t		36.0	2.5	/experiments/AOT/AOT_stimuli/rescaled_final/0878_fw.mp4	0.0	269.3119099140167	
38	226.54874205589294	fix_post	2		12	36.0	2.5	/experiments/AOT/AOT_stimuli/rescaled_final/0878_fw.mp4	0.0	270.2286579608917	0.10006999969482422
39	226.64881205558777	fix_pre	0		120	37.0	2.5	/experiments/AOT/AOT_stimuli/rescaled_final/1253_rv.mp4	0.0	270.32872796058655	0.9999308586120605
39	227.23226404190063	pulse	0	t		37.0	2.5	/experiments/AOT/AOT_stimuli/rescaled_final/1253_rv.mp4	0.0	270.9121799468994	
39	227.64874291419983	movie	1		243	37.0	2.5	/experiments/AOT/AOT_stimuli/rescaled_final/1253_rv.mp4	0.0	271.3286588191986	2.5000951290130615
39	228.8323380947113	pulse	1	t		37.0	2.5	/experiments/AOT/AOT_stimuli/rescaled_final/1253_rv.mp4	0.0	272.5122539997101	
39	230.1488380432129	fix_post	2		12	37.0	2.5	/experiments/AOT/AOT_stimuli/rescaled_final/1253_rv.mp4	0.0	273.82875394821167	0.09995388984680176
40	230.2487919330597	fix_pre	0		120	38.0	2.5	/experiments/AOT/AOT_stimuli/rescaled_final/1021_rv.mp4	0.0	273.9287078380585	0.9999339580535889
40	230.43224096298218	pulse	0	t		38.0	2.5	/experiments/AOT/AOT_stimuli/rescaled_final/1021_rv.mp4	0.0	274.11215686798096	
40	231.24872589111328	movie	1		246	38.0	2.5	/experiments/AOT/AOT_stimuli/rescaled_final/1021_rv.mp4	0.0	274.92864179611206	2.5000720024108887
40	232.032222032547	pulse	1	t		38.0	2.5	/experiments/AOT/AOT_stimuli/rescaled_final/1021_rv.mp4	0.0	275.7121379375458	
40	233.63031697273254	pulse	1	t		38.0	2.5	/experiments/AOT/AOT_stimuli/rescaled_final/1021_rv.mp4	0.0	277.3102328777313	
40	233.74879789352417	fix_post	2		12	38.0	2.5	/experiments/AOT/AOT_stimuli/rescaled_final/1021_rv.mp4	0.0	277.42871379852295	0.09999418258666992
41	233.84879207611084	fix_pre	0		120	39.0	2.5	/experiments/AOT/AOT_stimuli/rescaled_final/0048_rv.mp4	0.0	277.5287079811096	1.000126838684082
41	234.84891891479492	movie	1		245	39.0	2.5	/experiments/AOT/AOT_stimuli/rescaled_final/0048_rv.mp4	0.0	278.5288348197937	2.49983811378479
41	235.23206090927124	pulse	1	t		39.0	2.5	/experiments/AOT/AOT_stimuli/rescaled_final/0048_rv.mp4	0.0	278.91197681427	
41	236.83223295211792	pulse	1	t		39.0	2.5	/experiments/AOT/AOT_stimuli/rescaled_final/0048_rv.mp4	0.0	280.5121488571167	
41	237.3487570285797	fix_post	2		12	39.0	2.5	/experiments/AOT/AOT_stimuli/rescaled_final/0048_rv.mp4	0.0	281.0286729335785	0.09997391700744629
42	237.44873094558716	fix_pre	0		119	40.0	2.5	/experiments/AOT/AOT_stimuli/rescaled_final/1040_fw.mp4	0.0	281.12864685058594	0.9916720390319824
42	238.4321849346161	pulse	0	t		40.0	2.5	/experiments/AOT/AOT_stimuli/rescaled_final/1040_fw.mp4	0.0	282.11210083961487	
42	238.44040298461914	movie	1		246	40.0	2.5	/experiments/AOT/AOT_stimuli/rescaled_final/1040_fw.mp4	0.0	282.1203188896179	2.5078699588775635
42	240.0316219329834	pulse	1	t		40.0	2.5	/experiments/AOT/AOT_stimuli/rescaled_final/1040_fw.mp4	0.0	283.7115378379822	
42	240.9482729434967	fix_post	2		12	40.0	2.5	/experiments/AOT/AOT_stimuli/rescaled_final/1040_fw.mp4	0.0	284.6281888484955	0.10038614273071289
43	241.04865908622742	fix_pre	0		120	41.0	2.5	blank	1.0	284.7285749912262	0.9999978542327881
43	241.63213896751404	pulse	0	t		41.0	2.5	blank	1.0	285.3120548725128	
43	242.0486569404602	movie	1		300	41.0	2.5	blank	1.0	285.728572845459	2.4999489784240723
43	243.2321970462799	pulse	1	t		41.0	2.5	blank	1.0	286.9121129512787	
43	244.54860591888428	fix_post	2		12	41.0	2.5	blank	1.0	288.22852182388306	0.10002708435058594
44	244.64863300323486	fix_pre	0		120	42.0	2.5	/experiments/AOT/AOT_stimuli/rescaled_final/0590_fw.mp4	0.0	288.32854890823364	1.0000290870666504
44	244.83220410346985	pulse	0	t		42.0	2.5	/experiments/AOT/AOT_stimuli/rescaled_final/0590_fw.mp4	0.0	288.5121200084686	
44	245.6486620903015	movie	1		244	42.0	2.5	/experiments/AOT/AOT_stimuli/rescaled_final/0590_fw.mp4	0.0	289.3285779953003	2.49996280670166
44	246.43211698532104	pulse	1	t		42.0	2.5	/experiments/AOT/AOT_stimuli/rescaled_final/0590_fw.mp4	0.0	290.1120328903198	
44	248.03056693077087	pulse	1	t		42.0	2.5	/experiments/AOT/AOT_stimuli/rescaled_final/0590_fw.mp4	0.0	291.71048283576965	
44	248.14862489700317	fix_post	2		12	42.0	2.5	/experiments/AOT/AOT_stimuli/rescaled_final/0590_fw.mp4	0.0	291.82854080200195	0.10001111030578613
45	248.24863600730896	fix_pre	0		120	43.0	2.5	/experiments/AOT/AOT_stimuli/rescaled_final/2113_rv.mp4	0.0	291.92855191230774	0.9999580383300781
45	249.24859404563904	movie	1		243	43.0	2.5	/experiments/AOT/AOT_stimuli/rescaled_final/2113_rv.mp4	0.0	292.9285099506378	2.5000689029693604
45	249.63196802139282	pulse	1	t		43.0	2.5	/experiments/AOT/AOT_stimuli/rescaled_final/2113_rv.mp4	0.0	293.3118839263916	
45	251.2321228981018	pulse	1	t		43.0	2.5	/experiments/AOT/AOT_stimuli/rescaled_final/2113_rv.mp4	0.0	294.9120388031006	
45	251.7486629486084	fix_post	2		12	43.0	2.5	/experiments/AOT/AOT_stimuli/rescaled_final/2113_rv.mp4	0.0	295.4285788536072	0.09989309310913086
46	251.84855604171753	fix_pre	0		119	44.0	2.5	/experiments/AOT/AOT_stimuli/rescaled_final/1775_fw.mp4	0.0	295.5284719467163	0.9916808605194092
46	252.83215403556824	pulse	0	t		44.0	2.5	/experiments/AOT/AOT_stimuli/rescaled_final/1775_fw.mp4	0.0	296.512069940567	
46	252.84023690223694	movie	1		246	44.0	2.5	/experiments/AOT/AOT_stimuli/rescaled_final/1775_fw.mp4	0.0	296.5201528072357	2.508324146270752
46	254.4314250946045	pulse	1	t		44.0	2.5	/experiments/AOT/AOT_stimuli/rescaled_final/1775_fw.mp4	0.0	298.11134099960327	
46	255.3485610485077	fix_post	2		12	44.0	2.5	/experiments/AOT/AOT_stimuli/rescaled_final/1775_fw.mp4	0.0	299.02847695350647	0.0999760627746582
47	255.44853711128235	fix_pre	0		120	45.0	2.5	/experiments/AOT/AOT_stimuli/rescaled_final/0406_fw.mp4	0.0	299.1284530162811	1.0000817775726318
47	256.0320360660553	pulse	0	t		45.0	2.5	/experiments/AOT/AOT_stimuli/rescaled_final/0406_fw.mp4	0.0	299.7119519710541	
47	256.448618888855	movie	1		247	45.0	2.5	/experiments/AOT/AOT_stimuli/rescaled_final/0406_fw.mp4	0.0	300.12853479385376	2.499951124191284
47	257.6320569515228	pulse	1	t		45.0	2.5	/experiments/AOT/AOT_stimuli/rescaled_final/0406_fw.mp4	0.0	301.3119728565216	
47	258.94857001304626	fix_post	2		12	45.0	2.5	/experiments/AOT/AOT_stimuli/rescaled_final/0406_fw.mp4	0.0	302.62848591804504	0.10012388229370117
48	259.04869389533997	fix_pre	0		120	46.0	2.5	/experiments/AOT/AOT_stimuli/rescaled_final/2063_rv.mp4	0.0	302.72860980033875	0.9998462200164795
48	259.23205494880676	pulse	0	t		46.0	2.5	/experiments/AOT/AOT_stimuli/rescaled_final/2063_rv.mp4	0.0	302.91197085380554	
48	260.04854011535645	movie	1		245	46.0	2.5	/experiments/AOT/AOT_stimuli/rescaled_final/2063_rv.mp4	0.0	303.7284560203552	2.5001108646392822
48	260.8320219516754	pulse	1	t		46.0	2.5	/experiments/AOT/AOT_stimuli/rescaled_final/2063_rv.mp4	0.0	304.5119378566742	
48	262.4307029247284	pulse	1	t		46.0	2.5	/experiments/AOT/AOT_stimuli/rescaled_final/2063_rv.mp4	0.0	306.1106188297272	
48	262.5486509799957	fix_post	2		12	46.0	2.5	/experiments/AOT/AOT_stimuli/rescaled_final/2063_rv.mp4	0.0	306.2285668849945	0.09984898567199707
49	262.6484999656677	fix_pre	0		120	47.0	2.5	/experiments/AOT/AOT_stimuli/rescaled_final/0754_rv.mp4	0.0	306.3284158706665	1.0000691413879395
49	263.64856910705566	movie	1		245	47.0	2.5	/experiments/AOT/AOT_stimuli/rescaled_final/0754_rv.mp4	0.0	307.32848501205444	2.4999639987945557
49	264.031760931015	pulse	1	t		47.0	2.5	/experiments/AOT/AOT_stimuli/rescaled_final/0754_rv.mp4	0.0	307.7116768360138	
49	265.63212299346924	pulse	1	t		47.0	2.5	/experiments/AOT/AOT_stimuli/rescaled_final/0754_rv.mp4	0.0	309.312038898468	
49	266.1485331058502	fix_post	2		12	47.0	2.5	/experiments/AOT/AOT_stimuli/rescaled_final/0754_rv.mp4	0.0	309.828449010849	0.10003089904785156
50	266.24856400489807	fix_pre	0		119	48.0	2.5	/experiments/AOT/AOT_stimuli/rescaled_final/1332_fw.mp4	0.0	309.92847990989685	0.9917240142822266
50	267.23209595680237	pulse	0	t		48.0	2.5	/experiments/AOT/AOT_stimuli/rescaled_final/1332_fw.mp4	0.0	310.91201186180115	
50	267.2402880191803	movie	1		243	48.0	2.5	/experiments/AOT/AOT_stimuli/rescaled_final/1332_fw.mp4	0.0	310.9202039241791	2.5082790851593018
50	268.83190298080444	pulse	1	t		48.0	2.5	/experiments/AOT/AOT_stimuli/rescaled_final/1332_fw.mp4	0.0	312.5118188858032	
50	269.7485671043396	fix_post	2		12	48.0	2.5	/experiments/AOT/AOT_stimuli/rescaled_final/1332_fw.mp4	0.0	313.4284830093384	0.1000068187713623
51	269.84857392311096	fix_pre	0		120	49.0	2.5	blank	1.0	313.52848982810974	1.0000081062316895
51	270.4321060180664	pulse	0	t		49.0	2.5	blank	1.0	314.1120219230652	
51	270.84858202934265	movie	1		300	49.0	2.5	blank	1.0	314.52849793434143	2.499932050704956
51	272.0320210456848	pulse	1	t		49.0	2.5	blank	1.0	315.7119369506836	
51	273.3485140800476	fix_post	2		12	49.0	2.5	blank	1.0	317.0284299850464	0.10001087188720703
52	273.4485249519348	fix_pre	0		120	50.0	2.5	/experiments/AOT/AOT_stimuli/rescaled_final/0242_fw.mp4	0.0	317.1284408569336	1.0000240802764893
52	273.6320779323578	pulse	0	t		50.0	2.5	/experiments/AOT/AOT_stimuli/rescaled_final/0242_fw.mp4	0.0	317.31199383735657	
52	274.4485490322113	movie	1		246	50.0	2.5	/experiments/AOT/AOT_stimuli/rescaled_final/0242_fw.mp4	0.0	318.1284649372101	2.499958038330078
52	275.2320239543915	pulse	1	t		50.0	2.5	/experiments/AOT/AOT_stimuli/rescaled_final/0242_fw.mp4	0.0	318.91193985939026	
52	276.8305160999298	pulse	1	t		50.0	2.5	/experiments/AOT/AOT_stimuli/rescaled_final/0242_fw.mp4	0.0	320.5104320049286	
52	276.9485070705414	fix_post	2		12	50.0	2.5	/experiments/AOT/AOT_stimuli/rescaled_final/0242_fw.mp4	0.0	320.62842297554016	0.10008096694946289
53	277.04858803749084	fix_pre	0		120	51.0	2.5	/experiments/AOT/AOT_stimuli/rescaled_final/0593_fw.mp4	0.0	320.7285039424896	0.9999520778656006
53	278.04854011535645	movie	1		244	51.0	2.5	/experiments/AOT/AOT_stimuli/rescaled_final/0593_fw.mp4	0.0	321.7284560203552	2.5000219345092773
53	278.43235301971436	pulse	1	t		51.0	2.5	/experiments/AOT/AOT_stimuli/rescaled_final/0593_fw.mp4	0.0	322.11226892471313	
53	280.0319769382477	pulse	1	t		51.0	2.5	/experiments/AOT/AOT_stimuli/rescaled_final/0593_fw.mp4	0.0	323.71189284324646	
53	280.5485620498657	fix_post	2		12	51.0	2.5	/experiments/AOT/AOT_stimuli/rescaled_final/0593_fw.mp4	0.0	324.2284779548645	0.0998539924621582
54	280.6484160423279	fix_pre	0		119	52.0	2.5	/experiments/AOT/AOT_stimuli/rescaled_final/0919_rv.mp4	0.0	324.32833194732666	0.99173903465271
54	281.6319589614868	pulse	0	t		52.0	2.5	/experiments/AOT/AOT_stimuli/rescaled_final/0919_rv.mp4	0.0	325.3118748664856	
54	281.6401550769806	movie	1		245	52.0	2.5	/experiments/AOT/AOT_stimuli/rescaled_final/0919_rv.mp4	0.0	325.32007098197937	2.508302927017212
54	283.2317020893097	pulse	1	t		52.0	2.5	/experiments/AOT/AOT_stimuli/rescaled_final/0919_rv.mp4	0.0	326.9116179943085	
54	284.1484580039978	fix_post	2		12	52.0	2.5	/experiments/AOT/AOT_stimuli/rescaled_final/0919_rv.mp4	0.0	327.8283739089966	0.10005807876586914
55	284.2485160827637	fix_pre	0		120	53.0	2.5	/experiments/AOT/AOT_stimuli/rescaled_final/1626_rv.mp4	0.0	327.92843198776245	0.9999358654022217
55	284.8320119380951	pulse	0	t		53.0	2.5	/experiments/AOT/AOT_stimuli/rescaled_final/1626_rv.mp4	0.0	328.5119278430939	
55	285.2484519481659	movie	1		245	53.0	2.5	/experiments/AOT/AOT_stimuli/rescaled_final/1626_rv.mp4	0.0	328.9283678531647	2.5000181198120117
55	286.4319770336151	pulse	1	t		53.0	2.5	/experiments/AOT/AOT_stimuli/rescaled_final/1626_rv.mp4	0.0	330.1118929386139	
55	287.7484700679779	fix_post	2		12	53.0	2.5	/experiments/AOT/AOT_stimuli/rescaled_final/1626_rv.mp4	0.0	331.4283859729767	0.09996294975280762
56	287.8484330177307	fix_pre	0		120	54.0	2.5	/experiments/AOT/AOT_stimuli/rescaled_final/0672_fw.mp4	0.0	331.5283489227295	1.000032901763916
56	288.03203201293945	pulse	0	t		54.0	2.5	/experiments/AOT/AOT_stimuli/rescaled_final/0672_fw.mp4	0.0	331.71194791793823	
56	288.84846591949463	movie	1		245	54.0	2.5	/experiments/AOT/AOT_stimuli/rescaled_final/0672_fw.mp4	0.0	332.5283818244934	2.499791145324707
56	289.6315369606018	pulse	1	t		54.0	2.5	/experiments/AOT/AOT_stimuli/rescaled_final/0672_fw.mp4	0.0	333.3114528656006	
56	291.2299110889435	pulse	1	t		54.0	2.5	/experiments/AOT/AOT_stimuli/rescaled_final/0672_fw.mp4	0.0	334.90982699394226	
56	291.34825706481934	fix_post	2		12	54.0	2.5	/experiments/AOT/AOT_stimuli/rescaled_final/0672_fw.mp4	0.0	335.0281729698181	0.1000528335571289
57	291.44830989837646	fix_pre	0		120	55.0	2.5	/experiments/AOT/AOT_stimuli/rescaled_final/0839_rv.mp4	0.0	335.12822580337524	1.0001420974731445
57	292.4484519958496	movie	1		244	55.0	2.5	/experiments/AOT/AOT_stimuli/rescaled_final/0839_rv.mp4	0.0	336.1283679008484	2.499990940093994
57	292.8330979347229	pulse	1	t		55.0	2.5	/experiments/AOT/AOT_stimuli/rescaled_final/0839_rv.mp4	0.0	336.5130138397217	
57	294.4318768978119	pulse	1	t		55.0	2.5	/experiments/AOT/AOT_stimuli/rescaled_final/0839_rv.mp4	0.0	338.11179280281067	
57	294.9484429359436	fix_post	2		12	55.0	2.5	/experiments/AOT/AOT_stimuli/rescaled_final/0839_rv.mp4	0.0	338.6283588409424	0.10000014305114746
58	295.04844307899475	fix_pre	0		119	56.0	2.5	blank	1.0	338.72835898399353	0.9915828704833984
58	296.0318319797516	pulse	0	t		56.0	2.5	blank	1.0	339.71174788475037	
58	296.04002594947815	movie	1		301	56.0	2.5	blank	1.0	339.71994185447693	2.508357048034668
58	297.63188004493713	pulse	1	t		56.0	2.5	blank	1.0	341.3117959499359	
58	298.5483829975128	fix_post	2		12	56.0	2.5	blank	1.0	342.2282989025116	0.10006499290466309
59	298.6484479904175	fix_pre	0		120	57.0	2.5	/experiments/AOT/AOT_stimuli/rescaled_final/1487_rv.mp4	0.0	342.32836389541626	0.999953031539917
59	299.23192596435547	pulse	0	t		57.0	2.5	/experiments/AOT/AOT_stimuli/rescaled_final/1487_rv.mp4	0.0	342.91184186935425	
59	299.6484010219574	movie	1		248	57.0	2.5	/experiments/AOT/AOT_stimuli/rescaled_final/1487_rv.mp4	0.0	343.3283169269562	2.499940872192383
59	300.8319671154022	pulse	1	t		57.0	2.5	/experiments/AOT/AOT_stimuli/rescaled_final/1487_rv.mp4	0.0	344.511883020401	
59	302.1483418941498	fix_post	2		12	57.0	2.5	/experiments/AOT/AOT_stimuli/rescaled_final/1487_rv.mp4	0.0	345.82825779914856	0.10003209114074707
60	302.2483739852905	fix_pre	0		120	58.0	2.5	/experiments/AOT/AOT_stimuli/rescaled_final/1430_rv.mp4	0.0	345.9282898902893	1.0000181198120117
60	302.43184995651245	pulse	0	t		58.0	2.5	/experiments/AOT/AOT_stimuli/rescaled_final/1430_rv.mp4	0.0	346.11176586151123	
60	303.24839210510254	movie	1		245	58.0	2.5	/experiments/AOT/AOT_stimuli/rescaled_final/1430_rv.mp4	0.0	346.9283080101013	2.500093936920166
60	304.0318419933319	pulse	1	t		58.0	2.5	/experiments/AOT/AOT_stimuli/rescaled_final/1430_rv.mp4	0.0	347.7117578983307	
60	305.6279649734497	pulse	1	t		58.0	2.5	/experiments/AOT/AOT_stimuli/rescaled_final/1430_rv.mp4	0.0	349.3078808784485	
60	305.7484860420227	fix_post	2		12	58.0	2.5	/experiments/AOT/AOT_stimuli/rescaled_final/1430_rv.mp4	0.0	349.4284019470215	0.09986686706542969
61	305.84835290908813	fix_pre	0		120	59.0	2.5	/experiments/AOT/AOT_stimuli/rescaled_final/1772_fw.mp4	0.0	349.5282688140869	1.0000340938568115
61	306.84838700294495	movie	1		244	59.0	2.5	/experiments/AOT/AOT_stimuli/rescaled_final/1772_fw.mp4	0.0	350.5283029079437	2.4999868869781494
61	307.2318489551544	pulse	1	t		59.0	2.5	/experiments/AOT/AOT_stimuli/rescaled_final/1772_fw.mp4	0.0	350.9117648601532	
61	308.83179092407227	pulse	1	t		59.0	2.5	/experiments/AOT/AOT_stimuli/rescaled_final/1772_fw.mp4	0.0	352.51170682907104	
61	309.3483738899231	fix_post	2		12	59.0	2.5	/experiments/AOT/AOT_stimuli/rescaled_final/1772_fw.mp4	0.0	353.0282897949219	0.09995222091674805
62	309.44832611083984	fix_pre	0		119	60.0	2.5	/experiments/AOT/AOT_stimuli/rescaled_final/1253_rv.mp4	0.0	353.1282420158386	0.9918408393859863
62	310.4317419528961	pulse	0	t		60.0	2.5	/experiments/AOT/AOT_stimuli/rescaled_final/1253_rv.mp4	0.0	354.1116578578949	
62	310.44016695022583	movie	1		245	60.0	2.5	/experiments/AOT/AOT_stimuli/rescaled_final/1253_rv.mp4	0.0	354.1200828552246	2.508223056793213
62	312.0316889286041	pulse	1	t		60.0	2.5	/experiments/AOT/AOT_stimuli/rescaled_final/1253_rv.mp4	0.0	355.7116048336029	
62	312.94839000701904	fix_post	2		12	60.0	2.5	/experiments/AOT/AOT_stimuli/rescaled_final/1253_rv.mp4	0.0	356.6283059120178	0.09994101524353027
63	313.0483310222626	fix_pre	0		120	61.0	2.5	/experiments/AOT/AOT_stimuli/rescaled_final/0839_rv.mp4	0.0	356.72824692726135	1.0000309944152832
63	313.6319890022278	pulse	0	t		61.0	2.5	/experiments/AOT/AOT_stimuli/rescaled_final/0839_rv.mp4	0.0	357.31190490722656	
63	314.04836201667786	movie	1		245	61.0	2.5	/experiments/AOT/AOT_stimuli/rescaled_final/0839_rv.mp4	0.0	357.72827792167664	2.4998619556427
63	315.2318890094757	pulse	1	t		61.0	2.5	/experiments/AOT/AOT_stimuli/rescaled_final/0839_rv.mp4	0.0	358.9118049144745	
63	316.54822397232056	fix_post	2		12	61.0	2.5	/experiments/AOT/AOT_stimuli/rescaled_final/0839_rv.mp4	0.0	360.22813987731934	0.10010695457458496
64	316.64833092689514	fix_pre	0		120	62.0	2.5	blank	1.0	360.3282468318939	0.9999520778656006
64	316.83173394203186	pulse	0	t		62.0	2.5	blank	1.0	360.51164984703064	
64	317.64828300476074	movie	1		300	62.0	2.5	blank	1.0	361.3281989097595	2.5000200271606445
64	318.43178510665894	pulse	1	t		62.0	2.5	blank	1.0	362.1117010116577	
64	320.03170895576477	pulse	1	t		62.0	2.5	blank	1.0	363.71162486076355	
64	320.1483030319214	fix_post	2		12	62.0	2.5	blank	1.0	363.82821893692017	0.09997296333312988
65	320.2482759952545	fix_pre	0		120	63.0	2.5	/experiments/AOT/AOT_stimuli/rescaled_final/0620_fw.mp4	0.0	363.9281919002533	1.000014066696167
65	321.2482900619507	movie	1		245	63.0	2.5	/experiments/AOT/AOT_stimuli/rescaled_final/0620_fw.mp4	0.0	364.92820596694946	2.5000078678131104
65	321.63150000572205	pulse	1	t		63.0	2.5	/experiments/AOT/AOT_stimuli/rescaled_final/0620_fw.mp4	0.0	365.3114159107208	
65	323.2317159175873	pulse	1	t		63.0	2.5	/experiments/AOT/AOT_stimuli/rescaled_final/0620_fw.mp4	0.0	366.91163182258606	
65	323.7482979297638	fix_post	2		12	63.0	2.5	/experiments/AOT/AOT_stimuli/rescaled_final/0620_fw.mp4	0.0	367.4282138347626	0.09996819496154785
66	323.84826612472534	fix_pre	0		119	64.0	2.5	/experiments/AOT/AOT_stimuli/rescaled_final/1464_fw.mp4	0.0	367.5281820297241	0.9916379451751709
66	324.83169198036194	pulse	0	t		64.0	2.5	/experiments/AOT/AOT_stimuli/rescaled_final/1464_fw.mp4	0.0	368.5116078853607	
66	324.8399040699005	movie	1		248	64.0	2.5	/experiments/AOT/AOT_stimuli/rescaled_final/1464_fw.mp4	0.0	368.5198199748993	2.5083868503570557
66	326.4311499595642	pulse	1	t		64.0	2.5	/experiments/AOT/AOT_stimuli/rescaled_final/1464_fw.mp4	0.0	370.111065864563	
66	327.34829092025757	fix_post	2		12	64.0	2.5	/experiments/AOT/AOT_stimuli/rescaled_final/1464_fw.mp4	0.0	371.02820682525635	0.09999918937683105
67	327.4482901096344	fix_pre	0		120	65.0	2.5	/experiments/AOT/AOT_stimuli/rescaled_final/2113_rv.mp4	0.0	371.1282060146332	0.999992847442627
67	328.03186106681824	pulse	0	t		65.0	2.5	/experiments/AOT/AOT_stimuli/rescaled_final/2113_rv.mp4	0.0	371.711776971817	
67	328.448282957077	movie	1		246	65.0	2.5	/experiments/AOT/AOT_stimuli/rescaled_final/2113_rv.mp4	0.0	372.1281988620758	2.4998390674591064
67	329.6318850517273	pulse	1	t		65.0	2.5	/experiments/AOT/AOT_stimuli/rescaled_final/2113_rv.mp4	0.0	373.3118009567261	
67	330.94812202453613	fix_post	2		12	65.0	2.5	/experiments/AOT/AOT_stimuli/rescaled_final/2113_rv.mp4	0.0	374.6280379295349	0.10007786750793457
68	331.04819989204407	fix_pre	0		120	66.0	2.5	/experiments/AOT/AOT_stimuli/rescaled_final/0829_rv.mp4	0.0	374.72811579704285	0.9999861717224121
68	331.23172402381897	pulse	0	t		66.0	2.5	/experiments/AOT/AOT_stimuli/rescaled_final/0829_rv.mp4	0.0	374.91163992881775	
68	332.0481860637665	movie	1		243	66.0	2.5	/experiments/AOT/AOT_stimuli/rescaled_final/0829_rv.mp4	0.0	375.72810196876526	2.500046968460083
68	332.831650018692	pulse	1	t		66.0	2.5	/experiments/AOT/AOT_stimuli/rescaled_final/0829_rv.mp4	0.0	376.5115659236908	
68	334.430202960968	pulse	1	t		66.0	2.5	/experiments/AOT/AOT_stimuli/rescaled_final/0829_rv.mp4	0.0	378.1101188659668	
68	334.54823303222656	fix_post	2		12	66.0	2.5	/experiments/AOT/AOT_stimuli/rescaled_final/0829_rv.mp4	0.0	378.22814893722534	0.09990191459655762
69	334.6481349468231	fix_pre	0		120	67.0	2.5	/experiments/AOT/AOT_stimuli/rescaled_final/1200_rv.mp4	0.0	378.3280508518219	1.000020980834961
69	335.6481559276581	movie	1		243	67.0	2.5	/experiments/AOT/AOT_stimuli/rescaled_final/1200_rv.mp4	0.0	379.32807183265686	2.5000791549682617
69	336.0314950942993	pulse	1	t		67.0	2.5	/experiments/AOT/AOT_stimuli/rescaled_final/1200_rv.mp4	0.0	379.7114109992981	
69	337.6316969394684	pulse	1	t		67.0	2.5	/experiments/AOT/AOT_stimuli/rescaled_final/1200_rv.mp4	0.0	381.31161284446716	
69	338.14823508262634	fix_post	2		12	67.0	2.5	/experiments/AOT/AOT_stimuli/rescaled_final/1200_rv.mp4	0.0	381.8281509876251	0.09993386268615723
70	338.2481689453125	fix_pre	0		119	68.0	2.5	blank	1.0	381.9280848503113	0.9916701316833496
70	339.2318260669708	pulse	0	t		68.0	2.5	blank	1.0	382.9117419719696	
70	339.23983907699585	movie	1		301	68.0	2.5	blank	1.0	382.91975498199463	2.5083060264587402
70	340.83162808418274	pulse	1	t		68.0	2.5	blank	1.0	384.5115439891815	
70	341.7481451034546	fix_post	2		12	68.0	2.5	blank	1.0	385.42806100845337	0.09998679161071777
71	341.8481318950653	fix_pre	0		120	69.0	2.5	/experiments/AOT/AOT_stimuli/rescaled_final/0242_rv.mp4	0.0	385.5280478000641	1.0000581741333008
71	342.43171191215515	pulse	0	t		69.0	2.5	/experiments/AOT/AOT_stimuli/rescaled_final/0242_rv.mp4	0.0	386.11162781715393	
71	342.8481900691986	movie	1		247	69.0	2.5	/experiments/AOT/AOT_stimuli/rescaled_final/0242_rv.mp4	0.0	386.5281059741974	2.500018835067749
71	344.03187799453735	pulse	1	t		69.0	2.5	/experiments/AOT/AOT_stimuli/rescaled_final/0242_rv.mp4	0.0	387.71179389953613	
71	345.34820890426636	fix_post	2		12	69.0	2.5	/experiments/AOT/AOT_stimuli/rescaled_final/0242_rv.mp4	0.0	389.02812480926514	0.09991312026977539
72	345.44812202453613	fix_pre	0		120	70.0	2.5	/experiments/AOT/AOT_stimuli/rescaled_final/1793_fw.mp4	0.0	389.1280379295349	0.9996938705444336
72	345.6312909126282	pulse	0	t		70.0	2.5	/experiments/AOT/AOT_stimuli/rescaled_final/1793_fw.mp4	0.0	389.31120681762695	
72	346.44781589508057	movie	1		247	70.0	2.5	/experiments/AOT/AOT_stimuli/rescaled_final/1793_fw.mp4	0.0	390.12773180007935	2.5004491806030273
72	347.2318649291992	pulse	1	t		70.0	2.5	/experiments/AOT/AOT_stimuli/rescaled_final/1793_fw.mp4	0.0	390.911780834198	
72	348.831738948822	pulse	1	t		70.0	2.5	/experiments/AOT/AOT_stimuli/rescaled_final/1793_fw.mp4	0.0	392.5116548538208	
72	348.9482650756836	fix_post	2		12	70.0	2.5	/experiments/AOT/AOT_stimuli/rescaled_final/1793_fw.mp4	0.0	392.6281809806824	0.09984993934631348
73	349.0481150150299	fix_pre	0		120	71.0	2.5	/experiments/AOT/AOT_stimuli/rescaled_final/1257_rv.mp4	0.0	392.7280309200287	1.000040054321289
73	350.0481550693512	movie	1		248	71.0	2.5	/experiments/AOT/AOT_stimuli/rescaled_final/1257_rv.mp4	0.0	393.72807097435	2.499940872192383
73	350.43228912353516	pulse	1	t		71.0	2.5	/experiments/AOT/AOT_stimuli/rescaled_final/1257_rv.mp4	0.0	394.11220502853394	
73	352.03163504600525	pulse	1	t		71.0	2.5	/experiments/AOT/AOT_stimuli/rescaled_final/1257_rv.mp4	0.0	395.711550951004	
73	352.5480959415436	fix_post	2		12	71.0	2.5	/experiments/AOT/AOT_stimuli/rescaled_final/1257_rv.mp4	0.0	396.22801184654236	0.10001397132873535
74	352.6481099128723	fix_pre	0		119	72.0	2.5	/experiments/AOT/AOT_stimuli/rescaled_final/1325_rv.mp4	0.0	396.3280258178711	0.9916360378265381
74	353.63157200813293	pulse	0	t		72.0	2.5	/experiments/AOT/AOT_stimuli/rescaled_final/1325_rv.mp4	0.0	397.3114879131317	
74	353.63974595069885	movie	1		244	72.0	2.5	/experiments/AOT/AOT_stimuli/rescaled_final/1325_rv.mp4	0.0	397.31966185569763	2.50844407081604
74	355.23131489753723	pulse	1	t		72.0	2.5	/experiments/AOT/AOT_stimuli/rescaled_final/1325_rv.mp4	0.0	398.911230802536	
74	356.1481900215149	fix_post	2		12	72.0	2.5	/experiments/AOT/AOT_stimuli/rescaled_final/1325_rv.mp4	0.0	399.8281059265137	0.0999600887298584
75	356.24815011024475	fix_pre	0		120	73.0	2.5	/experiments/AOT/AOT_stimuli/rescaled_final/0381_rv.mp4	0.0	399.92806601524353	0.9999358654022217
75	356.8315861225128	pulse	0	t		73.0	2.5	/experiments/AOT/AOT_stimuli/rescaled_final/0381_rv.mp4	0.0	400.5115020275116	
75	357.248085975647	movie	1		246	73.0	2.5	/experiments/AOT/AOT_stimuli/rescaled_final/0381_rv.mp4	0.0	400.92800188064575	2.499974012374878
75	358.431853055954	pulse	1	t		73.0	2.5	/experiments/AOT/AOT_stimuli/rescaled_final/0381_rv.mp4	0.0	402.11176896095276	
75	359.74805998802185	fix_post	2		12	73.0	2.5	/experiments/AOT/AOT_stimuli/rescaled_final/0381_rv.mp4	0.0	403.42797589302063	0.10002708435058594
76	359.84808707237244	fix_pre	0		120	74.0	2.5	/experiments/AOT/AOT_stimuli/rescaled_final/1227_rv.mp4	0.0	403.5280029773712	1.0000598430633545
76	360.0315511226654	pulse	0	t		74.0	2.5	/experiments/AOT/AOT_stimuli/rescaled_final/1227_rv.mp4	0.0	403.7114670276642	
76	360.8481469154358	movie	1		243	74.0	2.5	/experiments/AOT/AOT_stimuli/rescaled_final/1227_rv.mp4	0.0	404.52806282043457	2.4999260902404785
76	361.63154911994934	pulse	1	t		74.0	2.5	/experiments/AOT/AOT_stimuli/rescaled_final/1227_rv.mp4	0.0	405.3114650249481	
76	363.2302579879761	pulse	1	t		74.0	2.5	/experiments/AOT/AOT_stimuli/rescaled_final/1227_rv.mp4	0.0	406.91017389297485	
76	363.34807300567627	fix_post	2		12	74.0	2.5	/experiments/AOT/AOT_stimuli/rescaled_final/1227_rv.mp4	0.0	407.02798891067505	0.10013508796691895
77	363.4482080936432	fix_pre	0		120	75.0	2.5	blank	1.0	407.12812399864197	0.9998259544372559
77	364.44803404808044	movie	1		300	75.0	2.5	blank	1.0	408.1279499530792	2.5000250339508057
77	364.83158898353577	pulse	1	t		75.0	2.5	blank	1.0	408.51150488853455	
77	366.43153500556946	pulse	1	t		75.0	2.5	blank	1.0	410.11145091056824	
77	366.94805908203125	fix_post	2		12	75.0	2.5	blank	1.0	410.62797498703003	0.10001301765441895
78	367.04807209968567	fix_pre	0		119	76.0	2.5	/experiments/AOT/AOT_stimuli/rescaled_final/1345_rv.mp4	0.0	410.72798800468445	0.9916119575500488
78	368.0315589904785	pulse	0	t		76.0	2.5	/experiments/AOT/AOT_stimuli/rescaled_final/1345_rv.mp4	0.0	411.7114748954773	
78	368.0396840572357	movie	1		245	76.0	2.5	/experiments/AOT/AOT_stimuli/rescaled_final/1345_rv.mp4	0.0	411.7195999622345	2.508272886276245
78	369.6312210559845	pulse	1	t		76.0	2.5	/experiments/AOT/AOT_stimuli/rescaled_final/1345_rv.mp4	0.0	413.3111369609833	
78	370.54795694351196	fix_post	2		12	76.0	2.5	/experiments/AOT/AOT_stimuli/rescaled_final/1345_rv.mp4	0.0	414.22787284851074	0.10008406639099121
79	370.64804100990295	fix_pre	0		120	77.0	2.5	/experiments/AOT/AOT_stimuli/rescaled_final/0501_rv.mp4	0.0	414.32795691490173	0.9999549388885498
79	371.2315180301666	pulse	0	t		77.0	2.5	/experiments/AOT/AOT_stimuli/rescaled_final/0501_rv.mp4	0.0	414.9114339351654	
79	371.6479959487915	movie	1		243	77.0	2.5	/experiments/AOT/AOT_stimuli/rescaled_final/0501_rv.mp4	0.0	415.3279118537903	2.5001959800720215
79	372.8316640853882	pulse	1	t		77.0	2.5	/experiments/AOT/AOT_stimuli/rescaled_final/0501_rv.mp4	0.0	416.51157999038696	
79	374.1481919288635	fix_post	2		12	77.0	2.5	/experiments/AOT/AOT_stimuli/rescaled_final/0501_rv.mp4	0.0	417.8281078338623	0.09976601600646973
80	374.24795794487	fix_pre	0		120	78.0	2.5	/experiments/AOT/AOT_stimuli/rescaled_final/1360_rv.mp4	0.0	417.9278738498688	1.000063180923462
80	374.431706905365	pulse	0	t		78.0	2.5	/experiments/AOT/AOT_stimuli/rescaled_final/1360_rv.mp4	0.0	418.11162281036377	
80	375.24802112579346	movie	1		243	78.0	2.5	/experiments/AOT/AOT_stimuli/rescaled_final/1360_rv.mp4	0.0	418.92793703079224	2.4999938011169434
80	376.0315589904785	pulse	1	t		78.0	2.5	/experiments/AOT/AOT_stimuli/rescaled_final/1360_rv.mp4	0.0	419.7114748954773	
80	377.6302881240845	pulse	1	t		78.0	2.5	/experiments/AOT/AOT_stimuli/rescaled_final/1360_rv.mp4	0.0	421.31020402908325	
80	377.7480149269104	fix_post	2		12	78.0	2.5	/experiments/AOT/AOT_stimuli/rescaled_final/1360_rv.mp4	0.0	421.4279308319092	0.10010504722595215
81	377.84811997413635	fix_pre	0		120	79.0	2.5	/experiments/AOT/AOT_stimuli/rescaled_final/1203_rv.mp4	0.0	421.52803587913513	0.9998190402984619
81	378.8479390144348	movie	1		244	79.0	2.5	/experiments/AOT/AOT_stimuli/rescaled_final/1203_rv.mp4	0.0	422.5278549194336	2.5001420974731445
81	379.2314929962158	pulse	1	t		79.0	2.5	/experiments/AOT/AOT_stimuli/rescaled_final/1203_rv.mp4	0.0	422.9114089012146	
81	380.83144903182983	pulse	1	t		79.0	2.5	/experiments/AOT/AOT_stimuli/rescaled_final/1203_rv.mp4	0.0	424.5113649368286	
81	381.34808111190796	fix_post	2		12	79.0	2.5	/experiments/AOT/AOT_stimuli/rescaled_final/1203_rv.mp4	0.0	425.02799701690674	0.09990787506103516
82	381.447988986969	fix_pre	0		119	80.0	2.5	/experiments/AOT/AOT_stimuli/rescaled_final/0246_fw.mp4	0.0	425.1279048919678	0.9916849136352539
82	382.43152594566345	pulse	0	t		80.0	2.5	/experiments/AOT/AOT_stimuli/rescaled_final/0246_fw.mp4	0.0	426.11144185066223	
82	382.43967390060425	movie	1		245	80.0	2.5	/experiments/AOT/AOT_stimuli/rescaled_final/0246_fw.mp4	0.0	426.119589805603	2.508395195007324
82	384.0312011241913	pulse	1	t		80.0	2.5	/experiments/AOT/AOT_stimuli/rescaled_final/0246_fw.mp4	0.0	427.71111702919006	
82	384.9480690956116	fix_post	2		12	80.0	2.5	/experiments/AOT/AOT_stimuli/rescaled_final/0246_fw.mp4	0.0	428.62798500061035	0.09991097450256348
83	385.04798007011414	fix_pre	0		120	81.0	2.5	/experiments/AOT/AOT_stimuli/rescaled_final/0239_rv.mp4	0.0	428.7278959751129	1.0000698566436768
83	385.6315031051636	pulse	0	t		81.0	2.5	/experiments/AOT/AOT_stimuli/rescaled_final/0239_rv.mp4	0.0	429.31141901016235	
83	386.0480499267578	movie	1		244	81.0	2.5	/experiments/AOT/AOT_stimuli/rescaled_final/0239_rv.mp4	0.0	429.7279658317566	2.4999780654907227
83	387.23157811164856	pulse	1	t		81.0	2.5	/experiments/AOT/AOT_stimuli/rescaled_final/0239_rv.mp4	0.0	430.91149401664734	
83	388.54802799224854	fix_post	2		12	81.0	2.5	/experiments/AOT/AOT_stimuli/rescaled_final/0239_rv.mp4	0.0	432.2279438972473	0.10001707077026367
84	388.6480450630188	fix_pre	0		120	82.0	2.5	/experiments/AOT/AOT_stimuli/rescaled_final/1683_rv.mp4	0.0	432.3279609680176	0.9999990463256836
84	388.8314850330353	pulse	0	t		82.0	2.5	/experiments/AOT/AOT_stimuli/rescaled_final/1683_rv.mp4	0.0	432.51140093803406	
84	389.6480441093445	movie	1		243	82.0	2.5	/experiments/AOT/AOT_stimuli/rescaled_final/1683_rv.mp4	0.0	433.32796001434326	2.49993896484375
84	390.4313371181488	pulse	1	t		82.0	2.5	/experiments/AOT/AOT_stimuli/rescaled_final/1683_rv.mp4	0.0	434.1112530231476	
84	392.02973794937134	pulse	1	t		82.0	2.5	/experiments/AOT/AOT_stimuli/rescaled_final/1683_rv.mp4	0.0	435.7096538543701	
84	392.14798307418823	fix_post	2		12	82.0	2.5	/experiments/AOT/AOT_stimuli/rescaled_final/1683_rv.mp4	0.0	435.827898979187	0.10000491142272949
85	392.24798798561096	fix_pre	0		120	83.0	2.5	blank	1.0	435.92790389060974	1.0000550746917725
85	393.24804306030273	movie	1		300	83.0	2.5	blank	1.0	436.9279589653015	2.499897003173828
85	393.631413936615	pulse	1	t		83.0	2.5	blank	1.0	437.31132984161377	
85	395.23134899139404	pulse	1	t		83.0	2.5	blank	1.0	438.9112648963928	
85	395.74794006347656	fix_post	2		12	83.0	2.5	blank	1.0	439.42785596847534	0.10003995895385742
87	395.8479800224304	stim	0		1716					439.5278959274292	14.299864053726196
87	396.8313970565796	pulse	0	t						440.51131296157837	
87	398.4314410686493	pulse	0	t						442.11135697364807	
87	400.0313529968262	pulse	0	t						443.71126890182495	
87	401.6310119628906	pulse	0	t						445.3109278678894	
87	403.23116302490234	pulse	0	t						446.9110789299011	
87	404.83130407333374	pulse	0	t						448.5112199783325	
87	406.4313681125641	pulse	0	t						450.11128401756287	
87	408.0314030647278	pulse	0	t						451.71131896972656	
87	409.6312680244446	pulse	0	t						453.31118392944336	
