trial_nr	onset	event_type	phase	response	nr_frames	movie_index	movie_duration	movie_file	blank	onset_abs	duration
0	0.18332695960998535	stim	0		1					81.68238282203674	0.008198022842407227
0	0.18072199821472168	response	0	space						81.67977786064148	
1	0.19152498245239258	stim	0		4655					81.69058084487915	38.8099410533905
1	38.986685037612915	pulse	0	t						120.48574090003967	
1	39.001466035842896	stim	1		1715					120.50052189826965	14.297951936721802
1	40.581218957901	pulse	1	t						122.08027482032776	
1	42.18142509460449	pulse	1	t						123.68048095703125	
1	43.78158688545227	pulse	1	t						125.28064274787903	
1	45.38187599182129	pulse	1	t						126.88093185424805	
1	46.98212504386902	pulse	1	t						128.48118090629578	
1	48.58231592178345	pulse	1	t						130.0813717842102	
1	50.1825749874115	pulse	1	t						131.68163084983826	
1	51.78266787528992	pulse	1	t						133.28172373771667	
2	53.2994179725647	fix_pre	0		11	0.0	2.5	/experiments/knapen_AOT/AOT_stimuli/rescaled_final/0996_rv.mp4	0.0	134.79847383499146	0.09168601036071777
2	53.38305902481079	pulse	0	t		0.0	2.5	/experiments/knapen_AOT/AOT_stimuli/rescaled_final/0996_rv.mp4	0.0	134.88211488723755	
2	53.391103982925415	movie	1		243	0.0	2.5	/experiments/knapen_AOT/AOT_stimuli/rescaled_final/0996_rv.mp4	0.0	134.89015984535217	2.508744955062866
2	54.98724007606506	pulse	1	t		0.0	2.5	/experiments/knapen_AOT/AOT_stimuli/rescaled_final/0996_rv.mp4	0.0	136.48629593849182	
2	55.89984893798828	fix_post	2		12	0.0	2.5	/experiments/knapen_AOT/AOT_stimuli/rescaled_final/0996_rv.mp4	0.0	137.39890480041504	0.1000509262084961
3	55.99989986419678	fix_pre	0		120	1.0	2.5	/experiments/knapen_AOT/AOT_stimuli/rescaled_final/0996_fw.mp4	0.0	137.49895572662354	1.0001001358032227
3	56.57593488693237	pulse	0	t		1.0	2.5	/experiments/knapen_AOT/AOT_stimuli/rescaled_final/0996_fw.mp4	0.0	138.07499074935913	
3	57.0	movie	1		243	1.0	2.5	/experiments/knapen_AOT/AOT_stimuli/rescaled_final/0996_fw.mp4	0.0	138.49905586242676	2.500498056411743
3	58.17599296569824	pulse	1	t		1.0	2.5	/experiments/knapen_AOT/AOT_stimuli/rescaled_final/0996_fw.mp4	0.0	139.675048828125	
3	59.50049805641174	fix_post	2		12	1.0	2.5	/experiments/knapen_AOT/AOT_stimuli/rescaled_final/0996_fw.mp4	0.0	140.9995539188385	0.09994983673095703
4	59.6004478931427	fix_pre	0		120	2.0	2.5	/experiments/knapen_AOT/AOT_stimuli/rescaled_final/2111_rv.mp4	0.0	141.09950375556946	1.0000991821289062
4	59.77554702758789	pulse	0	t		2.0	2.5	/experiments/knapen_AOT/AOT_stimuli/rescaled_final/2111_rv.mp4	0.0	141.27460289001465	
4	60.600547075271606	movie	1		243	2.0	2.5	/experiments/knapen_AOT/AOT_stimuli/rescaled_final/2111_rv.mp4	0.0	142.09960293769836	2.5005109310150146
4	61.3757688999176	pulse	1	t		2.0	2.5	/experiments/knapen_AOT/AOT_stimuli/rescaled_final/2111_rv.mp4	0.0	142.87482476234436	
4	62.97616505622864	pulse	1	t		2.0	2.5	/experiments/knapen_AOT/AOT_stimuli/rescaled_final/2111_rv.mp4	0.0	144.4752209186554	
4	63.10105800628662	fix_post	2		12	2.0	2.5	/experiments/knapen_AOT/AOT_stimuli/rescaled_final/2111_rv.mp4	0.0	144.60011386871338	0.09995102882385254
5	63.201009035110474	fix_pre	0		120	3.0	2.5	/experiments/knapen_AOT/AOT_stimuli/rescaled_final/1905_rv.mp4	0.0	144.70006489753723	1.000143051147461
5	64.20115208625793	movie	1		241	3.0	2.5	/experiments/knapen_AOT/AOT_stimuli/rescaled_final/1905_rv.mp4	0.0	145.7002079486847	2.4921298027038574
5	64.5764548778534	pulse	1	t		3.0	2.5	/experiments/knapen_AOT/AOT_stimuli/rescaled_final/1905_rv.mp4	0.0	146.07551074028015	
5	66.17669892311096	pulse	1	t		3.0	2.5	/experiments/knapen_AOT/AOT_stimuli/rescaled_final/1905_rv.mp4	0.0	147.67575478553772	
5	66.69328188896179	fix_post	2		12	3.0	2.5	/experiments/knapen_AOT/AOT_stimuli/rescaled_final/1905_rv.mp4	0.0	148.19233775138855	0.09991216659545898
6	66.79319405555725	fix_pre	0		119	4.0	2.5	/experiments/knapen_AOT/AOT_stimuli/rescaled_final/0778_rv.mp4	0.0	148.292249917984	0.991844892501831
6	67.77677297592163	pulse	0	t		4.0	2.5	/experiments/knapen_AOT/AOT_stimuli/rescaled_final/0778_rv.mp4	0.0	149.2758288383484	
6	67.78503894805908	movie	1		244	4.0	2.5	/experiments/knapen_AOT/AOT_stimuli/rescaled_final/0778_rv.mp4	0.0	149.28409481048584	2.5086281299591064
6	69.37762999534607	pulse	1	t		4.0	2.5	/experiments/knapen_AOT/AOT_stimuli/rescaled_final/0778_rv.mp4	0.0	150.87668585777283	
6	70.29366707801819	fix_post	2		9	4.0	2.5	/experiments/knapen_AOT/AOT_stimuli/rescaled_final/0778_rv.mp4	0.0	151.79272294044495	0.10001778602600098
7	70.39368486404419	fix_pre	0		120	5.0	2.5	blank	1.0	151.89274072647095	1.000171184539795
7	70.97737503051758	pulse	0	t		5.0	2.5	blank	1.0	152.47643089294434	
7	71.39385604858398	movie	1		300	5.0	2.5	blank	1.0	152.89291191101074	2.500370979309082
7	72.5776150226593	pulse	1	t		5.0	2.5	blank	1.0	154.07667088508606	
7	73.89422702789307	fix_post	2		12	5.0	2.5	blank	1.0	155.39328289031982	0.10002684593200684
8	73.99425387382507	fix_pre	0		120	6.0	2.5	/experiments/knapen_AOT/AOT_stimuli/rescaled_final/1342_rv.mp4	0.0	155.49330973625183	1.0001811981201172
8	74.17775702476501	pulse	0	t		6.0	2.5	/experiments/knapen_AOT/AOT_stimuli/rescaled_final/1342_rv.mp4	0.0	155.67681288719177	
8	74.99443507194519	movie	1		243	6.0	2.5	/experiments/knapen_AOT/AOT_stimuli/rescaled_final/1342_rv.mp4	0.0	156.49349093437195	2.500339984893799
8	75.7779529094696	pulse	1	t		6.0	2.5	/experiments/knapen_AOT/AOT_stimuli/rescaled_final/1342_rv.mp4	0.0	157.27700877189636	
8	77.37807989120483	pulse	1	t		6.0	2.5	/experiments/knapen_AOT/AOT_stimuli/rescaled_final/1342_rv.mp4	0.0	158.8771357536316	
8	77.49477505683899	fix_post	2		12	6.0	2.5	/experiments/knapen_AOT/AOT_stimuli/rescaled_final/1342_rv.mp4	0.0	158.99383091926575	0.10003495216369629
9	77.59481000900269	fix_pre	0		119	7.0	2.5	/experiments/knapen_AOT/AOT_stimuli/rescaled_final/1709_fw.mp4	0.0	159.09386587142944	0.9917340278625488
9	78.58654403686523	movie	1		242	7.0	2.5	/experiments/knapen_AOT/AOT_stimuli/rescaled_final/1709_fw.mp4	0.0	160.085599899292	2.5004959106445312
9	78.97863388061523	pulse	1	t		7.0	2.5	/experiments/knapen_AOT/AOT_stimuli/rescaled_final/1709_fw.mp4	0.0	160.477689743042	
9	80.57877802848816	pulse	1	t		7.0	2.5	/experiments/knapen_AOT/AOT_stimuli/rescaled_final/1709_fw.mp4	0.0	162.07783389091492	
9	81.08703994750977	fix_post	2		12	7.0	2.5	/experiments/knapen_AOT/AOT_stimuli/rescaled_final/1709_fw.mp4	0.0	162.58609580993652	0.09991312026977539
10	81.18695306777954	fix_pre	0		120	8.0	2.5	/experiments/knapen_AOT/AOT_stimuli/rescaled_final/0202_fw.mp4	0.0	162.6860089302063	1.0001838207244873
10	82.17894196510315	pulse	0	t		8.0	2.5	/experiments/knapen_AOT/AOT_stimuli/rescaled_final/0202_fw.mp4	0.0	163.6779978275299	
10	82.18713688850403	movie	1		244	8.0	2.5	/experiments/knapen_AOT/AOT_stimuli/rescaled_final/0202_fw.mp4	0.0	163.6861927509308	2.508683204650879
10	83.77976703643799	pulse	1	t		8.0	2.5	/experiments/knapen_AOT/AOT_stimuli/rescaled_final/0202_fw.mp4	0.0	165.27882289886475	
10	84.69582009315491	fix_post	2		12	8.0	2.5	/experiments/knapen_AOT/AOT_stimuli/rescaled_final/0202_fw.mp4	0.0	166.19487595558167	0.10004687309265137
11	84.79586696624756	fix_pre	0		120	9.0	2.5	/experiments/knapen_AOT/AOT_stimuli/rescaled_final/1808_rv.mp4	0.0	166.29492282867432	1.000114917755127
11	85.37953591346741	pulse	0	t		9.0	2.5	/experiments/knapen_AOT/AOT_stimuli/rescaled_final/1808_rv.mp4	0.0	166.87859177589417	
11	85.79598188400269	movie	1		242	9.0	2.5	/experiments/knapen_AOT/AOT_stimuli/rescaled_final/1808_rv.mp4	0.0	167.29503774642944	2.5005481243133545
11	86.97985506057739	pulse	1	t		9.0	2.5	/experiments/knapen_AOT/AOT_stimuli/rescaled_final/1808_rv.mp4	0.0	168.47891092300415	
11	88.29653000831604	fix_post	2		12	9.0	2.5	/experiments/knapen_AOT/AOT_stimuli/rescaled_final/1808_rv.mp4	0.0	169.7955858707428	0.09987902641296387
12	88.396409034729	fix_pre	0		120	10.0	2.5	/experiments/knapen_AOT/AOT_stimuli/rescaled_final/0868_rv.mp4	0.0	169.89546489715576	1.0000810623168945
12	88.57990193367004	pulse	0	t		10.0	2.5	/experiments/knapen_AOT/AOT_stimuli/rescaled_final/0868_rv.mp4	0.0	170.0789577960968	
12	89.3964900970459	movie	1		243	10.0	2.5	/experiments/knapen_AOT/AOT_stimuli/rescaled_final/0868_rv.mp4	0.0	170.89554595947266	2.500527858734131
12	90.18018507957458	pulse	1	t		10.0	2.5	/experiments/knapen_AOT/AOT_stimuli/rescaled_final/0868_rv.mp4	0.0	171.67924094200134	
12	91.78052806854248	pulse	1	t		10.0	2.5	/experiments/knapen_AOT/AOT_stimuli/rescaled_final/0868_rv.mp4	0.0	173.27958393096924	
12	91.89701795578003	fix_post	2		12	10.0	2.5	/experiments/knapen_AOT/AOT_stimuli/rescaled_final/0868_rv.mp4	0.0	173.3960738182068	0.09996891021728516
13	91.99698686599731	fix_pre	0		119	11.0	2.5	/experiments/knapen_AOT/AOT_stimuli/rescaled_final/1172_fw.mp4	0.0	173.49604272842407	0.9918100833892822
13	92.9887969493866	movie	1		242	11.0	2.5	/experiments/knapen_AOT/AOT_stimuli/rescaled_final/1172_fw.mp4	0.0	174.48785281181335	2.500378131866455
13	93.37668704986572	pulse	1	t		11.0	2.5	/experiments/knapen_AOT/AOT_stimuli/rescaled_final/1172_fw.mp4	0.0	174.87574291229248	
13	94.98088002204895	pulse	1	t		11.0	2.5	/experiments/knapen_AOT/AOT_stimuli/rescaled_final/1172_fw.mp4	0.0	176.4799358844757	
13	95.48917508125305	fix_post	2		12	11.0	2.5	/experiments/knapen_AOT/AOT_stimuli/rescaled_final/1172_fw.mp4	0.0	176.9882309436798	0.09995079040527344
14	95.58912587165833	fix_pre	0		120	12.0	2.5	/experiments/knapen_AOT/AOT_stimuli/rescaled_final/2119_rv.mp4	0.0	177.08818173408508	1.0001552104949951
14	96.58120894432068	pulse	0	t		12.0	2.5	/experiments/knapen_AOT/AOT_stimuli/rescaled_final/2119_rv.mp4	0.0	178.08026480674744	
14	96.58928108215332	movie	1		249	12.0	2.5	/experiments/knapen_AOT/AOT_stimuli/rescaled_final/2119_rv.mp4	0.0	178.08833694458008	2.5086519718170166
14	98.18213486671448	pulse	1	t		12.0	2.5	/experiments/knapen_AOT/AOT_stimuli/rescaled_final/2119_rv.mp4	0.0	179.68119072914124	
14	99.09793305397034	fix_post	2		12	12.0	2.5	/experiments/knapen_AOT/AOT_stimuli/rescaled_final/2119_rv.mp4	0.0	180.5969889163971	0.10011696815490723
15	99.19805002212524	fix_pre	0		120	13.0	2.5	blank	1.0	180.697105884552	1.0001380443572998
15	99.78159093856812	pulse	0	t		13.0	2.5	blank	1.0	181.28064680099487	
15	100.19818806648254	movie	1		300	13.0	2.5	blank	1.0	181.6972439289093	2.500321865081787
15	101.3818850517273	pulse	1	t		13.0	2.5	blank	1.0	182.88094091415405	
15	102.69850993156433	fix_post	2		12	13.0	2.5	blank	1.0	184.1975657939911	0.10000109672546387
16	102.7985110282898	fix_pre	0		120	14.0	2.5	/experiments/knapen_AOT/AOT_stimuli/rescaled_final/0681_rv.mp4	0.0	184.29756689071655	1.0001299381256104
16	102.98215389251709	pulse	0	t		14.0	2.5	/experiments/knapen_AOT/AOT_stimuli/rescaled_final/0681_rv.mp4	0.0	184.48120975494385	
16	103.7986409664154	movie	1		242	14.0	2.5	/experiments/knapen_AOT/AOT_stimuli/rescaled_final/0681_rv.mp4	0.0	185.29769682884216	2.50052809715271
16	104.58231997489929	pulse	1	t		14.0	2.5	/experiments/knapen_AOT/AOT_stimuli/rescaled_final/0681_rv.mp4	0.0	186.08137583732605	
16	106.18267798423767	pulse	1	t		14.0	2.5	/experiments/knapen_AOT/AOT_stimuli/rescaled_final/0681_rv.mp4	0.0	187.68173384666443	
16	106.29916906356812	fix_post	2		12	14.0	2.5	/experiments/knapen_AOT/AOT_stimuli/rescaled_final/0681_rv.mp4	0.0	187.79822492599487	0.09994792938232422
17	106.39911699295044	fix_pre	0		120	15.0	2.5	/experiments/knapen_AOT/AOT_stimuli/rescaled_final/1383_rv.mp4	0.0	187.8981728553772	1.0000488758087158
17	107.39916586875916	movie	1		241	15.0	2.5	/experiments/knapen_AOT/AOT_stimuli/rescaled_final/1383_rv.mp4	0.0	188.8982217311859	2.4921700954437256
17	107.78339290618896	pulse	1	t		15.0	2.5	/experiments/knapen_AOT/AOT_stimuli/rescaled_final/1383_rv.mp4	0.0	189.28244876861572	
17	109.38303899765015	pulse	1	t		15.0	2.5	/experiments/knapen_AOT/AOT_stimuli/rescaled_final/1383_rv.mp4	0.0	190.8820948600769	
17	109.89133596420288	fix_post	2		12	15.0	2.5	/experiments/knapen_AOT/AOT_stimuli/rescaled_final/1383_rv.mp4	0.0	191.39039182662964	0.09992003440856934
18	109.99125599861145	fix_pre	0		120	16.0	2.5	/experiments/knapen_AOT/AOT_stimuli/rescaled_final/0734_rv.mp4	0.0	191.4903118610382	1.0001108646392822
18	110.98327898979187	pulse	0	t		16.0	2.5	/experiments/knapen_AOT/AOT_stimuli/rescaled_final/0734_rv.mp4	0.0	192.48233485221863	
18	110.99136686325073	movie	1		244	16.0	2.5	/experiments/knapen_AOT/AOT_stimuli/rescaled_final/0734_rv.mp4	0.0	192.4904227256775	2.508784055709839
18	112.5842399597168	pulse	1	t		16.0	2.5	/experiments/knapen_AOT/AOT_stimuli/rescaled_final/0734_rv.mp4	0.0	194.08329582214355	
18	113.50015091896057	fix_post	2		12	16.0	2.5	/experiments/knapen_AOT/AOT_stimuli/rescaled_final/0734_rv.mp4	0.0	194.99920678138733	0.09997916221618652
19	113.60013008117676	fix_pre	0		120	17.0	2.5	/experiments/knapen_AOT/AOT_stimuli/rescaled_final/2099_fw.mp4	0.0	195.09918594360352	1.0001378059387207
19	114.17619395256042	pulse	0	t		17.0	2.5	/experiments/knapen_AOT/AOT_stimuli/rescaled_final/2099_fw.mp4	0.0	195.67524981498718	
19	114.60026788711548	movie	1		243	17.0	2.5	/experiments/knapen_AOT/AOT_stimuli/rescaled_final/2099_fw.mp4	0.0	196.09932374954224	2.5004560947418213
19	115.77609395980835	pulse	1	t		17.0	2.5	/experiments/knapen_AOT/AOT_stimuli/rescaled_final/2099_fw.mp4	0.0	197.2751498222351	
19	117.1007239818573	fix_post	2		12	17.0	2.5	/experiments/knapen_AOT/AOT_stimuli/rescaled_final/2099_fw.mp4	0.0	198.59977984428406	0.09996294975280762
20	117.20068693161011	fix_pre	0		120	18.0	2.5	/experiments/knapen_AOT/AOT_stimuli/rescaled_final/1383_rv.mp4	0.0	198.69974279403687	1.0001189708709717
20	117.3766119480133	pulse	0	t		18.0	2.5	/experiments/knapen_AOT/AOT_stimuli/rescaled_final/1383_rv.mp4	0.0	198.87566781044006	
20	118.20080590248108	movie	1		242	18.0	2.5	/experiments/knapen_AOT/AOT_stimuli/rescaled_final/1383_rv.mp4	0.0	199.69986176490784	2.5003411769866943
20	118.97613286972046	pulse	1	t		18.0	2.5	/experiments/knapen_AOT/AOT_stimuli/rescaled_final/1383_rv.mp4	0.0	200.47518873214722	
20	120.57627296447754	pulse	1	t		18.0	2.5	/experiments/knapen_AOT/AOT_stimuli/rescaled_final/1383_rv.mp4	0.0	202.0753288269043	
20	120.70114707946777	fix_post	2		12	18.0	2.5	/experiments/knapen_AOT/AOT_stimuli/rescaled_final/1383_rv.mp4	0.0	202.20020294189453	0.10012483596801758
21	120.80127191543579	fix_pre	0		120	19.0	2.5	/experiments/knapen_AOT/AOT_stimuli/rescaled_final/1996_rv.mp4	0.0	202.30032777786255	1.0000500679016113
21	121.8013219833374	movie	1		241	19.0	2.5	/experiments/knapen_AOT/AOT_stimuli/rescaled_final/1996_rv.mp4	0.0	203.30037784576416	2.492201089859009
21	122.17654800415039	pulse	1	t		19.0	2.5	/experiments/knapen_AOT/AOT_stimuli/rescaled_final/1996_rv.mp4	0.0	203.67560386657715	
21	123.77687788009644	pulse	1	t		19.0	2.5	/experiments/knapen_AOT/AOT_stimuli/rescaled_final/1996_rv.mp4	0.0	205.2759337425232	
21	124.29352307319641	fix_post	2		12	19.0	2.5	/experiments/knapen_AOT/AOT_stimuli/rescaled_final/1996_rv.mp4	0.0	205.79257893562317	0.09987688064575195
22	124.39339995384216	fix_pre	0		119	20.0	2.5	/experiments/knapen_AOT/AOT_stimuli/rescaled_final/1889_rv.mp4	0.0	205.89245581626892	0.9918479919433594
22	125.37715888023376	pulse	0	t		20.0	2.5	/experiments/knapen_AOT/AOT_stimuli/rescaled_final/1889_rv.mp4	0.0	206.87621474266052	
22	125.38524794578552	movie	1		244	20.0	2.5	/experiments/knapen_AOT/AOT_stimuli/rescaled_final/1889_rv.mp4	0.0	206.88430380821228	2.5086820125579834
22	126.98120188713074	pulse	1	t		20.0	2.5	/experiments/knapen_AOT/AOT_stimuli/rescaled_final/1889_rv.mp4	0.0	208.4802577495575	
22	127.8939299583435	fix_post	2		12	20.0	2.5	/experiments/knapen_AOT/AOT_stimuli/rescaled_final/1889_rv.mp4	0.0	209.39298582077026	0.10006213188171387
23	127.99399209022522	fix_pre	0		120	21.0	2.5	blank	1.0	209.49304795265198	1.0000479221343994
23	128.5775430202484	pulse	0	t		21.0	2.5	blank	1.0	210.07659888267517	
23	128.99404001235962	movie	1		300	21.0	2.5	blank	1.0	210.49309587478638	2.5004210472106934
23	130.17771005630493	pulse	1	t		21.0	2.5	blank	1.0	211.6767659187317	
23	131.4944610595703	fix_post	2		12	21.0	2.5	blank	1.0	212.99351692199707	0.09998703002929688
24	131.5944480895996	fix_pre	0		120	22.0	2.5	/experiments/knapen_AOT/AOT_stimuli/rescaled_final/1419_rv.mp4	0.0	213.09350395202637	1.0001568794250488
24	131.77811908721924	pulse	0	t		22.0	2.5	/experiments/knapen_AOT/AOT_stimuli/rescaled_final/1419_rv.mp4	0.0	213.277174949646	
24	132.59460496902466	movie	1		239	22.0	2.5	/experiments/knapen_AOT/AOT_stimuli/rescaled_final/1419_rv.mp4	0.0	214.09366083145142	2.500602960586548
24	133.3784110546112	pulse	1	t		22.0	2.5	/experiments/knapen_AOT/AOT_stimuli/rescaled_final/1419_rv.mp4	0.0	214.87746691703796	
24	134.97861003875732	pulse	1	t		22.0	2.5	/experiments/knapen_AOT/AOT_stimuli/rescaled_final/1419_rv.mp4	0.0	216.47766590118408	
24	135.0952079296112	fix_post	2		12	22.0	2.5	/experiments/knapen_AOT/AOT_stimuli/rescaled_final/1419_rv.mp4	0.0	216.59426379203796	0.09985804557800293
25	135.1950659751892	fix_pre	0		120	23.0	2.5	/experiments/knapen_AOT/AOT_stimuli/rescaled_final/0093_rv.mp4	0.0	216.69412183761597	1.000154972076416
25	136.19522094726562	movie	1		242	23.0	2.5	/experiments/knapen_AOT/AOT_stimuli/rescaled_final/0093_rv.mp4	0.0	217.69427680969238	2.4920151233673096
25	136.57921600341797	pulse	1	t		23.0	2.5	/experiments/knapen_AOT/AOT_stimuli/rescaled_final/0093_rv.mp4	0.0	218.07827186584473	
25	138.17902398109436	pulse	1	t		23.0	2.5	/experiments/knapen_AOT/AOT_stimuli/rescaled_final/0093_rv.mp4	0.0	219.67807984352112	
25	138.68723607063293	fix_post	2		12	23.0	2.5	/experiments/knapen_AOT/AOT_stimuli/rescaled_final/0093_rv.mp4	0.0	220.1862919330597	0.10004591941833496
26	138.78728199005127	fix_pre	0		120	24.0	2.5	/experiments/knapen_AOT/AOT_stimuli/rescaled_final/0160_fw.mp4	0.0	220.28633785247803	1.0000550746917725
26	139.77932596206665	pulse	0	t		24.0	2.5	/experiments/knapen_AOT/AOT_stimuli/rescaled_final/0160_fw.mp4	0.0	221.2783818244934	
26	139.78733706474304	movie	1		243	24.0	2.5	/experiments/knapen_AOT/AOT_stimuli/rescaled_final/0160_fw.mp4	0.0	221.2863929271698	2.5087668895721436
26	141.38014602661133	pulse	1	t		24.0	2.5	/experiments/knapen_AOT/AOT_stimuli/rescaled_final/0160_fw.mp4	0.0	222.8792018890381	
26	142.29610395431519	fix_post	2		12	24.0	2.5	/experiments/knapen_AOT/AOT_stimuli/rescaled_final/0160_fw.mp4	0.0	223.79515981674194	0.10001707077026367
27	142.39612102508545	fix_pre	0		120	25.0	2.5	/experiments/knapen_AOT/AOT_stimuli/rescaled_final/0897_rv.mp4	0.0	223.8951768875122	1.0001130104064941
27	142.97963309288025	pulse	0	t		25.0	2.5	/experiments/knapen_AOT/AOT_stimuli/rescaled_final/0897_rv.mp4	0.0	224.478688955307	
27	143.39623403549194	movie	1		243	25.0	2.5	/experiments/knapen_AOT/AOT_stimuli/rescaled_final/0897_rv.mp4	0.0	224.8952898979187	2.5004160404205322
27	144.580069065094	pulse	1	t		25.0	2.5	/experiments/knapen_AOT/AOT_stimuli/rescaled_final/0897_rv.mp4	0.0	226.07912492752075	
27	145.89665007591248	fix_post	2		12	25.0	2.5	/experiments/knapen_AOT/AOT_stimuli/rescaled_final/0897_rv.mp4	0.0	227.39570593833923	0.0999748706817627
28	145.99662494659424	fix_pre	0		120	26.0	2.5	blank	1.0	227.495680809021	1.0001931190490723
28	146.1802680492401	pulse	0	t		26.0	2.5	blank	1.0	227.67932391166687	
28	146.9968180656433	movie	1		300	26.0	2.5	blank	1.0	228.49587392807007	2.50036883354187
28	147.78054094314575	pulse	1	t		26.0	2.5	blank	1.0	229.2795968055725	
28	149.3805639743805	pulse	1	t		26.0	2.5	blank	1.0	230.87961983680725	
28	149.49718689918518	fix_post	2		12	26.0	2.5	blank	1.0	230.99624276161194	0.10006403923034668
29	149.59725093841553	fix_pre	0		120	27.0	2.5	/experiments/knapen_AOT/AOT_stimuli/rescaled_final/1667_fw.mp4	0.0	231.09630680084229	1.0000860691070557
29	150.59733700752258	movie	1		242	27.0	2.5	/experiments/knapen_AOT/AOT_stimuli/rescaled_final/1667_fw.mp4	0.0	232.09639286994934	2.492013931274414
29	150.98455095291138	pulse	1	t		27.0	2.5	/experiments/knapen_AOT/AOT_stimuli/rescaled_final/1667_fw.mp4	0.0	232.48360681533813	
29	152.58121705055237	pulse	1	t		27.0	2.5	/experiments/knapen_AOT/AOT_stimuli/rescaled_final/1667_fw.mp4	0.0	234.08027291297913	
29	153.089350938797	fix_post	2		12	27.0	2.5	/experiments/knapen_AOT/AOT_stimuli/rescaled_final/1667_fw.mp4	0.0	234.58840680122375	0.1000220775604248
30	153.18937301635742	fix_pre	0		120	28.0	2.5	/experiments/knapen_AOT/AOT_stimuli/rescaled_final/0546_fw.mp4	0.0	234.68842887878418	1.0000970363616943
30	154.18145298957825	pulse	0	t		28.0	2.5	/experiments/knapen_AOT/AOT_stimuli/rescaled_final/0546_fw.mp4	0.0	235.680508852005	
30	154.18947005271912	movie	1		244	28.0	2.5	/experiments/knapen_AOT/AOT_stimuli/rescaled_final/0546_fw.mp4	0.0	235.68852591514587	2.5088489055633545
30	155.782124042511	pulse	1	t		28.0	2.5	/experiments/knapen_AOT/AOT_stimuli/rescaled_final/0546_fw.mp4	0.0	237.28117990493774	
30	156.69831895828247	fix_post	2		12	28.0	2.5	/experiments/knapen_AOT/AOT_stimuli/rescaled_final/0546_fw.mp4	0.0	238.19737482070923	0.09994006156921387
31	156.79825901985168	fix_pre	0		120	29.0	2.5	/experiments/knapen_AOT/AOT_stimuli/rescaled_final/1223_rv.mp4	0.0	238.29731488227844	1.000114917755127
31	157.38180088996887	pulse	0	t		29.0	2.5	/experiments/knapen_AOT/AOT_stimuli/rescaled_final/1223_rv.mp4	0.0	238.88085675239563	
31	157.7983739376068	movie	1		243	29.0	2.5	/experiments/knapen_AOT/AOT_stimuli/rescaled_final/1223_rv.mp4	0.0	239.29742980003357	2.5004830360412598
31	158.97833895683289	pulse	1	t		29.0	2.5	/experiments/knapen_AOT/AOT_stimuli/rescaled_final/1223_rv.mp4	0.0	240.47739481925964	
31	160.29885697364807	fix_post	2		12	29.0	2.5	/experiments/knapen_AOT/AOT_stimuli/rescaled_final/1223_rv.mp4	0.0	241.79791283607483	0.09993600845336914
32	160.39879298210144	fix_pre	0		120	30.0	2.5	/experiments/knapen_AOT/AOT_stimuli/rescaled_final/0489_fw.mp4	0.0	241.8978488445282	1.0001509189605713
32	160.5824420452118	pulse	0	t		30.0	2.5	/experiments/knapen_AOT/AOT_stimuli/rescaled_final/0489_fw.mp4	0.0	242.08149790763855	
32	161.398943901062	movie	1		243	30.0	2.5	/experiments/knapen_AOT/AOT_stimuli/rescaled_final/0489_fw.mp4	0.0	242.89799976348877	2.5004830360412598
32	162.18262887001038	pulse	1	t		30.0	2.5	/experiments/knapen_AOT/AOT_stimuli/rescaled_final/0489_fw.mp4	0.0	243.68168473243713	
32	163.78269004821777	pulse	1	t		30.0	2.5	/experiments/knapen_AOT/AOT_stimuli/rescaled_final/0489_fw.mp4	0.0	245.28174591064453	
32	163.89942693710327	fix_post	2		12	30.0	2.5	/experiments/knapen_AOT/AOT_stimuli/rescaled_final/0489_fw.mp4	0.0	245.39848279953003	0.09991812705993652
33	163.9993450641632	fix_pre	0		120	31.0	2.5	/experiments/knapen_AOT/AOT_stimuli/rescaled_final/0207_fw.mp4	0.0	245.49840092658997	1.0001578330993652
33	164.99950289726257	movie	1		241	31.0	2.5	/experiments/knapen_AOT/AOT_stimuli/rescaled_final/0207_fw.mp4	0.0	246.49855875968933	2.492077112197876
33	165.3835690021515	pulse	1	t		31.0	2.5	/experiments/knapen_AOT/AOT_stimuli/rescaled_final/0207_fw.mp4	0.0	246.88262486457825	
33	166.9759180545807	pulse	1	t		31.0	2.5	/experiments/knapen_AOT/AOT_stimuli/rescaled_final/0207_fw.mp4	0.0	248.47497391700745	
33	167.49158000946045	fix_post	2		12	31.0	2.5	/experiments/knapen_AOT/AOT_stimuli/rescaled_final/0207_fw.mp4	0.0	248.9906358718872	0.09992790222167969
34	167.59150791168213	fix_pre	0		120	32.0	2.5	/experiments/knapen_AOT/AOT_stimuli/rescaled_final/0975_rv.mp4	0.0	249.0905637741089	1.0001239776611328
34	168.5759449005127	pulse	0	t		32.0	2.5	/experiments/knapen_AOT/AOT_stimuli/rescaled_final/0975_rv.mp4	0.0	250.07500076293945	
34	168.59163188934326	movie	1		243	32.0	2.5	/experiments/knapen_AOT/AOT_stimuli/rescaled_final/0975_rv.mp4	0.0	250.09068775177002	2.5087192058563232
34	170.18413400650024	pulse	1	t		32.0	2.5	/experiments/knapen_AOT/AOT_stimuli/rescaled_final/0975_rv.mp4	0.0	251.683189868927	
34	171.10035109519958	fix_post	2		12	32.0	2.5	/experiments/knapen_AOT/AOT_stimuli/rescaled_final/0975_rv.mp4	0.0	252.59940695762634	0.10004878044128418
35	171.20039987564087	fix_pre	0		120	33.0	2.5	blank	1.0	252.69945573806763	1.0001020431518555
35	171.77642488479614	pulse	0	t		33.0	2.5	blank	1.0	253.2754807472229	
35	172.20050191879272	movie	1		300	33.0	2.5	blank	1.0	253.69955778121948	2.500411033630371
35	173.37584590911865	pulse	1	t		33.0	2.5	blank	1.0	254.8749017715454	
35	174.7009129524231	fix_post	2		12	33.0	2.5	blank	1.0	256.19996881484985	0.09997391700744629
36	174.80088686943054	fix_pre	0		120	34.0	2.5	/experiments/knapen_AOT/AOT_stimuli/rescaled_final/0824_rv.mp4	0.0	256.2999427318573	1.0002570152282715
36	174.97608089447021	pulse	0	t		34.0	2.5	/experiments/knapen_AOT/AOT_stimuli/rescaled_final/0824_rv.mp4	0.0	256.475136756897	
36	175.8011438846588	movie	1		243	34.0	2.5	/experiments/knapen_AOT/AOT_stimuli/rescaled_final/0824_rv.mp4	0.0	257.30019974708557	2.500373125076294
36	176.5763430595398	pulse	1	t		34.0	2.5	/experiments/knapen_AOT/AOT_stimuli/rescaled_final/0824_rv.mp4	0.0	258.07539892196655	
36	178.17662596702576	pulse	1	t		34.0	2.5	/experiments/knapen_AOT/AOT_stimuli/rescaled_final/0824_rv.mp4	0.0	259.6756818294525	
36	178.3015170097351	fix_post	2		12	34.0	2.5	/experiments/knapen_AOT/AOT_stimuli/rescaled_final/0824_rv.mp4	0.0	259.80057287216187	0.09992790222167969
37	178.4014449119568	fix_pre	0		119	35.0	2.5	/experiments/knapen_AOT/AOT_stimuli/rescaled_final/0458_fw.mp4	0.0	259.90050077438354	0.9918920993804932
37	179.39333701133728	movie	1		243	35.0	2.5	/experiments/knapen_AOT/AOT_stimuli/rescaled_final/0458_fw.mp4	0.0	260.89239287376404	2.500343084335327
37	179.77759790420532	pulse	1	t		35.0	2.5	/experiments/knapen_AOT/AOT_stimuli/rescaled_final/0458_fw.mp4	0.0	261.2766537666321	
37	181.37710905075073	pulse	1	t		35.0	2.5	/experiments/knapen_AOT/AOT_stimuli/rescaled_final/0458_fw.mp4	0.0	262.8761649131775	
37	181.8936800956726	fix_post	2		12	35.0	2.5	/experiments/knapen_AOT/AOT_stimuli/rescaled_final/0458_fw.mp4	0.0	263.39273595809937	0.09994387626647949
38	181.9936239719391	fix_pre	0		119	36.0	2.5	/experiments/knapen_AOT/AOT_stimuli/rescaled_final/1521_rv.mp4	0.0	263.49267983436584	0.991818904876709
38	182.97727298736572	pulse	0	t		36.0	2.5	/experiments/knapen_AOT/AOT_stimuli/rescaled_final/1521_rv.mp4	0.0	264.4763288497925	
38	182.9854428768158	movie	1		245	36.0	2.5	/experiments/knapen_AOT/AOT_stimuli/rescaled_final/1521_rv.mp4	0.0	264.48449873924255	2.5087430477142334
38	184.57837390899658	pulse	1	t		36.0	2.5	/experiments/knapen_AOT/AOT_stimuli/rescaled_final/1521_rv.mp4	0.0	266.07742977142334	
38	185.49418592453003	fix_post	2		12	36.0	2.5	/experiments/knapen_AOT/AOT_stimuli/rescaled_final/1521_rv.mp4	0.0	266.9932417869568	0.10012412071228027
39	185.5943100452423	fix_pre	0		120	37.0	2.5	/experiments/knapen_AOT/AOT_stimuli/rescaled_final/1905_fw.mp4	0.0	267.09336590766907	1.0000238418579102
39	186.17789006233215	pulse	0	t		37.0	2.5	/experiments/knapen_AOT/AOT_stimuli/rescaled_final/1905_fw.mp4	0.0	267.6769459247589	
39	186.59433388710022	movie	1		242	37.0	2.5	/experiments/knapen_AOT/AOT_stimuli/rescaled_final/1905_fw.mp4	0.0	268.093389749527	2.500486135482788
39	187.77812790870667	pulse	1	t		37.0	2.5	/experiments/knapen_AOT/AOT_stimuli/rescaled_final/1905_fw.mp4	0.0	269.2771837711334	
39	189.094820022583	fix_post	2		12	37.0	2.5	/experiments/knapen_AOT/AOT_stimuli/rescaled_final/1905_fw.mp4	0.0	270.59387588500977	0.09994006156921387
40	189.19476008415222	fix_pre	0		120	38.0	2.5	/experiments/knapen_AOT/AOT_stimuli/rescaled_final/1085_fw.mp4	0.0	270.693815946579	1.000154972076416
40	189.3782069683075	pulse	0	t		38.0	2.5	/experiments/knapen_AOT/AOT_stimuli/rescaled_final/1085_fw.mp4	0.0	270.87726283073425	
40	190.19491505622864	movie	1		243	38.0	2.5	/experiments/knapen_AOT/AOT_stimuli/rescaled_final/1085_fw.mp4	0.0	271.6939709186554	2.5003609657287598
40	190.97852087020874	pulse	1	t		38.0	2.5	/experiments/knapen_AOT/AOT_stimuli/rescaled_final/1085_fw.mp4	0.0	272.4775767326355	
40	192.57889890670776	pulse	1	t		38.0	2.5	/experiments/knapen_AOT/AOT_stimuli/rescaled_final/1085_fw.mp4	0.0	274.0779547691345	
40	192.6952760219574	fix_post	2		12	38.0	2.5	/experiments/knapen_AOT/AOT_stimuli/rescaled_final/1085_fw.mp4	0.0	274.19433188438416	0.10000896453857422
41	192.79528498649597	fix_pre	0		117	39.0	2.5	/experiments/knapen_AOT/AOT_stimuli/rescaled_final/0202_fw.mp4	0.0	274.29434084892273	0.9918169975280762
41	193.78710198402405	movie	1		243	39.0	2.5	/experiments/knapen_AOT/AOT_stimuli/rescaled_final/0202_fw.mp4	0.0	275.2861578464508	2.500437021255493
41	194.17916297912598	pulse	1	t		39.0	2.5	/experiments/knapen_AOT/AOT_stimuli/rescaled_final/0202_fw.mp4	0.0	275.67821884155273	
41	195.7792239189148	pulse	1	t		39.0	2.5	/experiments/knapen_AOT/AOT_stimuli/rescaled_final/0202_fw.mp4	0.0	277.27827978134155	
41	196.28753900527954	fix_post	2		12	39.0	2.5	/experiments/knapen_AOT/AOT_stimuli/rescaled_final/0202_fw.mp4	0.0	277.7865948677063	0.09990406036376953
42	196.3874430656433	fix_pre	0		120	40.0	2.5	blank	1.0	277.88649892807007	1.0001988410949707
42	197.37944388389587	pulse	0	t		40.0	2.5	blank	1.0	278.87849974632263	
42	197.38764190673828	movie	1		301	40.0	2.5	blank	1.0	278.88669776916504	2.5087130069732666
42	198.97969794273376	pulse	1	t		40.0	2.5	blank	1.0	280.4787538051605	
42	199.89635491371155	fix_post	2		12	40.0	2.5	blank	1.0	281.3954107761383	0.09998106956481934
43	199.99633598327637	fix_pre	0		120	41.0	2.5	/experiments/knapen_AOT/AOT_stimuli/rescaled_final/1875_rv.mp4	0.0	281.4953918457031	1.0001819133758545
43	200.58009696006775	pulse	0	t		41.0	2.5	/experiments/knapen_AOT/AOT_stimuli/rescaled_final/1875_rv.mp4	0.0	282.0791528224945	
43	200.99651789665222	movie	1		242	41.0	2.5	/experiments/knapen_AOT/AOT_stimuli/rescaled_final/1875_rv.mp4	0.0	282.495573759079	2.5005130767822266
43	202.18034195899963	pulse	1	t		41.0	2.5	/experiments/knapen_AOT/AOT_stimuli/rescaled_final/1875_rv.mp4	0.0	283.6793978214264	
43	203.49703097343445	fix_post	2		12	41.0	2.5	/experiments/knapen_AOT/AOT_stimuli/rescaled_final/1875_rv.mp4	0.0	284.9960868358612	0.09989190101623535
44	203.59692287445068	fix_pre	0		120	42.0	2.5	/experiments/knapen_AOT/AOT_stimuli/rescaled_final/1342_rv.mp4	0.0	285.09597873687744	1.0001521110534668
44	203.78048586845398	pulse	0	t		42.0	2.5	/experiments/knapen_AOT/AOT_stimuli/rescaled_final/1342_rv.mp4	0.0	285.27954173088074	
44	204.59707498550415	movie	1		243	42.0	2.5	/experiments/knapen_AOT/AOT_stimuli/rescaled_final/1342_rv.mp4	0.0	286.0961308479309	2.5003108978271484
44	205.38063597679138	pulse	1	t		42.0	2.5	/experiments/knapen_AOT/AOT_stimuli/rescaled_final/1342_rv.mp4	0.0	286.87969183921814	
44	206.98056888580322	pulse	1	t		42.0	2.5	/experiments/knapen_AOT/AOT_stimuli/rescaled_final/1342_rv.mp4	0.0	288.47962474823	
44	207.0973858833313	fix_post	2		12	42.0	2.5	/experiments/knapen_AOT/AOT_stimuli/rescaled_final/1342_rv.mp4	0.0	288.59644174575806	0.10002303123474121
45	207.19740891456604	fix_pre	0		119	43.0	2.5	/experiments/knapen_AOT/AOT_stimuli/rescaled_final/1279_fw.mp4	0.0	288.6964647769928	0.9917919635772705
45	208.1892008781433	movie	1		243	43.0	2.5	/experiments/knapen_AOT/AOT_stimuli/rescaled_final/1279_fw.mp4	0.0	289.68825674057007	2.500441074371338
45	208.58130288124084	pulse	1	t		43.0	2.5	/experiments/knapen_AOT/AOT_stimuli/rescaled_final/1279_fw.mp4	0.0	290.0803587436676	
45	210.18145895004272	pulse	1	t		43.0	2.5	/experiments/knapen_AOT/AOT_stimuli/rescaled_final/1279_fw.mp4	0.0	291.6805148124695	
45	210.68964195251465	fix_post	2		12	43.0	2.5	/experiments/knapen_AOT/AOT_stimuli/rescaled_final/1279_fw.mp4	0.0	292.1886978149414	0.09997010231018066
46	210.78961205482483	fix_pre	0		120	44.0	2.5	/experiments/knapen_AOT/AOT_stimuli/rescaled_final/0528_fw.mp4	0.0	292.2886679172516	1.0001988410949707
46	211.7816128730774	pulse	0	t		44.0	2.5	/experiments/knapen_AOT/AOT_stimuli/rescaled_final/0528_fw.mp4	0.0	293.28066873550415	
46	211.7898108959198	movie	1		245	44.0	2.5	/experiments/knapen_AOT/AOT_stimuli/rescaled_final/0528_fw.mp4	0.0	293.28886675834656	2.508653163909912
46	213.38313698768616	pulse	1	t		44.0	2.5	/experiments/knapen_AOT/AOT_stimuli/rescaled_final/0528_fw.mp4	0.0	294.8821928501129	
46	214.2984640598297	fix_post	2		12	44.0	2.5	/experiments/knapen_AOT/AOT_stimuli/rescaled_final/0528_fw.mp4	0.0	295.79751992225647	0.09999799728393555
47	214.39846205711365	fix_pre	0		120	45.0	2.5	/experiments/knapen_AOT/AOT_stimuli/rescaled_final/0403_rv.mp4	0.0	295.8975179195404	1.0001659393310547
47	214.98214292526245	pulse	0	t		45.0	2.5	/experiments/knapen_AOT/AOT_stimuli/rescaled_final/0403_rv.mp4	0.0	296.4811987876892	
47	215.3986279964447	movie	1		242	45.0	2.5	/experiments/knapen_AOT/AOT_stimuli/rescaled_final/0403_rv.mp4	0.0	296.89768385887146	2.500546932220459
47	216.58240008354187	pulse	1	t		45.0	2.5	/experiments/knapen_AOT/AOT_stimuli/rescaled_final/0403_rv.mp4	0.0	298.0814559459686	
47	217.89917492866516	fix_post	2		12	45.0	2.5	/experiments/knapen_AOT/AOT_stimuli/rescaled_final/0403_rv.mp4	0.0	299.3982307910919	0.09989094734191895
48	217.99906587600708	fix_pre	0		120	46.0	2.5	/experiments/knapen_AOT/AOT_stimuli/rescaled_final/0082_fw.mp4	0.0	299.49812173843384	1.0000841617584229
48	218.18258595466614	pulse	0	t		46.0	2.5	/experiments/knapen_AOT/AOT_stimuli/rescaled_final/0082_fw.mp4	0.0	299.6816418170929	
48	218.9991500377655	movie	1		243	46.0	2.5	/experiments/knapen_AOT/AOT_stimuli/rescaled_final/0082_fw.mp4	0.0	300.49820590019226	2.500380039215088
48	219.78278708457947	pulse	1	t		46.0	2.5	/experiments/knapen_AOT/AOT_stimuli/rescaled_final/0082_fw.mp4	0.0	301.2818429470062	
48	221.3826220035553	pulse	1	t		46.0	2.5	/experiments/knapen_AOT/AOT_stimuli/rescaled_final/0082_fw.mp4	0.0	302.88167786598206	
48	221.4995300769806	fix_post	2		12	46.0	2.5	/experiments/knapen_AOT/AOT_stimuli/rescaled_final/0082_fw.mp4	0.0	302.99858593940735	0.10000991821289062
49	221.59953999519348	fix_pre	0		119	47.0	2.5	/experiments/knapen_AOT/AOT_stimuli/rescaled_final/0247_rv.mp4	0.0	303.09859585762024	0.991818904876709
49	222.5913589000702	movie	1		243	47.0	2.5	/experiments/knapen_AOT/AOT_stimuli/rescaled_final/0247_rv.mp4	0.0	304.09041476249695	2.5004661083221436
49	222.97937107086182	pulse	1	t		47.0	2.5	/experiments/knapen_AOT/AOT_stimuli/rescaled_final/0247_rv.mp4	0.0	304.4784269332886	
49	224.57634902000427	pulse	1	t		47.0	2.5	/experiments/knapen_AOT/AOT_stimuli/rescaled_final/0247_rv.mp4	0.0	306.07540488243103	
49	225.09182500839233	fix_post	2		12	47.0	2.5	/experiments/knapen_AOT/AOT_stimuli/rescaled_final/0247_rv.mp4	0.0	306.5908808708191	0.09995508193969727
50	225.19178009033203	fix_pre	0		120	48.0	2.5	blank	1.0	306.6908359527588	1.0001778602600098
50	226.17634892463684	pulse	0	t		48.0	2.5	blank	1.0	307.6754047870636	
50	226.19195795059204	movie	1		301	48.0	2.5	blank	1.0	307.6910138130188	2.508669137954712
50	227.77643609046936	pulse	1	t		48.0	2.5	blank	1.0	309.2754919528961	
50	228.70062708854675	fix_post	2		12	48.0	2.5	blank	1.0	310.1996829509735	0.10000491142272949
51	228.80063199996948	fix_pre	0		120	49.0	2.5	/experiments/knapen_AOT/AOT_stimuli/rescaled_final/0229_rv.mp4	0.0	310.29968786239624	1.0001800060272217
51	229.37683200836182	pulse	0	t		49.0	2.5	/experiments/knapen_AOT/AOT_stimuli/rescaled_final/0229_rv.mp4	0.0	310.8758878707886	
51	229.8008120059967	movie	1		242	49.0	2.5	/experiments/knapen_AOT/AOT_stimuli/rescaled_final/0229_rv.mp4	0.0	311.29986786842346	2.5004708766937256
51	230.9803009033203	pulse	1	t		49.0	2.5	/experiments/knapen_AOT/AOT_stimuli/rescaled_final/0229_rv.mp4	0.0	312.47935676574707	
51	232.30128288269043	fix_post	2		12	49.0	2.5	/experiments/knapen_AOT/AOT_stimuli/rescaled_final/0229_rv.mp4	0.0	313.8003387451172	0.09993505477905273
52	232.40121793746948	fix_pre	0		120	50.0	2.5	/experiments/knapen_AOT/AOT_stimuli/rescaled_final/0235_rv.mp4	0.0	313.90027379989624	1.0001001358032227
52	232.57657098770142	pulse	0	t		50.0	2.5	/experiments/knapen_AOT/AOT_stimuli/rescaled_final/0235_rv.mp4	0.0	314.0756268501282	
52	233.4013180732727	movie	1		243	50.0	2.5	/experiments/knapen_AOT/AOT_stimuli/rescaled_final/0235_rv.mp4	0.0	314.90037393569946	2.4920740127563477
52	234.17662906646729	pulse	1	t		50.0	2.5	/experiments/knapen_AOT/AOT_stimuli/rescaled_final/0235_rv.mp4	0.0	315.67568492889404	
52	235.7768039703369	pulse	1	t		50.0	2.5	/experiments/knapen_AOT/AOT_stimuli/rescaled_final/0235_rv.mp4	0.0	317.2758598327637	
52	235.89339208602905	fix_post	2		12	50.0	2.5	/experiments/knapen_AOT/AOT_stimuli/rescaled_final/0235_rv.mp4	0.0	317.3924479484558	0.1000208854675293
53	235.99341297149658	fix_pre	0		120	51.0	2.5	/experiments/knapen_AOT/AOT_stimuli/rescaled_final/1881_fw.mp4	0.0	317.49246883392334	1.0000989437103271
53	236.9935119152069	movie	1		244	51.0	2.5	/experiments/knapen_AOT/AOT_stimuli/rescaled_final/1881_fw.mp4	0.0	318.49256777763367	2.500352144241333
53	237.37739896774292	pulse	1	t		51.0	2.5	/experiments/knapen_AOT/AOT_stimuli/rescaled_final/1881_fw.mp4	0.0	318.8764548301697	
53	238.97751903533936	pulse	1	t		51.0	2.5	/experiments/knapen_AOT/AOT_stimuli/rescaled_final/1881_fw.mp4	0.0	320.4765748977661	
53	239.49386405944824	fix_post	2		12	51.0	2.5	/experiments/knapen_AOT/AOT_stimuli/rescaled_final/1881_fw.mp4	0.0	320.992919921875	0.10006499290466309
54	239.5939290523529	fix_pre	0		119	52.0	2.5	/experiments/knapen_AOT/AOT_stimuli/rescaled_final/0564_fw.mp4	0.0	321.09298491477966	0.991811990737915
54	240.57760787010193	pulse	0	t		52.0	2.5	/experiments/knapen_AOT/AOT_stimuli/rescaled_final/0564_fw.mp4	0.0	322.0766637325287	
54	240.58574104309082	movie	1		243	52.0	2.5	/experiments/knapen_AOT/AOT_stimuli/rescaled_final/0564_fw.mp4	0.0	322.0847969055176	2.5087928771972656
54	242.17909407615662	pulse	1	t		52.0	2.5	/experiments/knapen_AOT/AOT_stimuli/rescaled_final/0564_fw.mp4	0.0	323.6781499385834	
54	243.0945339202881	fix_post	2		12	52.0	2.5	/experiments/knapen_AOT/AOT_stimuli/rescaled_final/0564_fw.mp4	0.0	324.59358978271484	0.09990715980529785
55	243.19444108009338	fix_pre	0		120	53.0	2.5	/experiments/knapen_AOT/AOT_stimuli/rescaled_final/0997_rv.mp4	0.0	324.69349694252014	1.0001418590545654
55	243.77804398536682	pulse	0	t		53.0	2.5	/experiments/knapen_AOT/AOT_stimuli/rescaled_final/0997_rv.mp4	0.0	325.2770998477936	
55	244.19458293914795	movie	1		243	53.0	2.5	/experiments/knapen_AOT/AOT_stimuli/rescaled_final/0997_rv.mp4	0.0	325.6936388015747	2.5004539489746094
55	245.3783700466156	pulse	1	t		53.0	2.5	/experiments/knapen_AOT/AOT_stimuli/rescaled_final/0997_rv.mp4	0.0	326.87742590904236	
55	246.69503688812256	fix_post	2		12	53.0	2.5	/experiments/knapen_AOT/AOT_stimuli/rescaled_final/0997_rv.mp4	0.0	328.1940927505493	0.09992814064025879
56	246.79496502876282	fix_pre	0		120	54.0	2.5	/experiments/knapen_AOT/AOT_stimuli/rescaled_final/0751_fw.mp4	0.0	328.2940208911896	1.0001928806304932
56	246.97857093811035	pulse	0	t		54.0	2.5	/experiments/knapen_AOT/AOT_stimuli/rescaled_final/0751_fw.mp4	0.0	328.4776268005371	
56	247.7951579093933	movie	1		245	54.0	2.5	/experiments/knapen_AOT/AOT_stimuli/rescaled_final/0751_fw.mp4	0.0	329.29421377182007	2.50034499168396
56	248.57875108718872	pulse	1	t		54.0	2.5	/experiments/knapen_AOT/AOT_stimuli/rescaled_final/0751_fw.mp4	0.0	330.0778069496155	
56	250.1764030456543	pulse	1	t		54.0	2.5	/experiments/knapen_AOT/AOT_stimuli/rescaled_final/0751_fw.mp4	0.0	331.67545890808105	
56	250.29550290107727	fix_post	2		12	54.0	2.5	/experiments/knapen_AOT/AOT_stimuli/rescaled_final/0751_fw.mp4	0.0	331.794558763504	0.10004115104675293
57	250.39554405212402	fix_pre	0		120	55.0	2.5	/experiments/knapen_AOT/AOT_stimuli/rescaled_final/0493_rv.mp4	0.0	331.8945999145508	1.000121831893921
57	251.39566588401794	movie	1		241	55.0	2.5	/experiments/knapen_AOT/AOT_stimuli/rescaled_final/0493_rv.mp4	0.0	332.8947217464447	2.492082118988037
57	251.77961897850037	pulse	1	t		55.0	2.5	/experiments/knapen_AOT/AOT_stimuli/rescaled_final/0493_rv.mp4	0.0	333.2786748409271	
57	253.37962293624878	pulse	1	t		55.0	2.5	/experiments/knapen_AOT/AOT_stimuli/rescaled_final/0493_rv.mp4	0.0	334.87867879867554	
57	253.88774800300598	fix_post	2		12	55.0	2.5	/experiments/knapen_AOT/AOT_stimuli/rescaled_final/0493_rv.mp4	0.0	335.38680386543274	0.09994196891784668
58	253.98768997192383	fix_pre	0		118	56.0	2.5	blank	1.0	335.4867458343506	1.0001509189605713
58	254.9797420501709	pulse	0	t		56.0	2.5	blank	1.0	336.47879791259766	
58	254.9878408908844	movie	1		301	56.0	2.5	blank	1.0	336.48689675331116	2.508737087249756
58	256.5799729824066	pulse	1	t		56.0	2.5	blank	1.0	338.0790288448334	
58	257.49657797813416	fix_post	2		12	56.0	2.5	blank	1.0	338.9956338405609	0.09998798370361328
59	257.59656596183777	fix_pre	0		120	57.0	2.5	/experiments/knapen_AOT/AOT_stimuli/rescaled_final/1072_rv.mp4	0.0	339.0956218242645	1.0002350807189941
59	258.18024802207947	pulse	0	t		57.0	2.5	/experiments/knapen_AOT/AOT_stimuli/rescaled_final/1072_rv.mp4	0.0	339.6793038845062	
59	258.59680104255676	movie	1		242	57.0	2.5	/experiments/knapen_AOT/AOT_stimuli/rescaled_final/1072_rv.mp4	0.0	340.0958569049835	2.5005009174346924
59	259.78052496910095	pulse	1	t		57.0	2.5	/experiments/knapen_AOT/AOT_stimuli/rescaled_final/1072_rv.mp4	0.0	341.2795808315277	
59	261.09730195999146	fix_post	2		12	57.0	2.5	/experiments/knapen_AOT/AOT_stimuli/rescaled_final/1072_rv.mp4	0.0	342.5963578224182	0.0998849868774414
60	261.1971869468689	fix_pre	0		120	58.0	2.5	/experiments/knapen_AOT/AOT_stimuli/rescaled_final/1267_fw.mp4	0.0	342.69624280929565	1.000054121017456
60	261.3806960582733	pulse	0	t		58.0	2.5	/experiments/knapen_AOT/AOT_stimuli/rescaled_final/1267_fw.mp4	0.0	342.8797519207001	
60	262.19724106788635	movie	1		244	58.0	2.5	/experiments/knapen_AOT/AOT_stimuli/rescaled_final/1267_fw.mp4	0.0	343.6962969303131	2.500415802001953
60	262.98087191581726	pulse	1	t		58.0	2.5	/experiments/knapen_AOT/AOT_stimuli/rescaled_final/1267_fw.mp4	0.0	344.479927778244	
60	264.58135986328125	pulse	1	t		58.0	2.5	/experiments/knapen_AOT/AOT_stimuli/rescaled_final/1267_fw.mp4	0.0	346.080415725708	
60	264.6976568698883	fix_post	2		12	58.0	2.5	/experiments/knapen_AOT/AOT_stimuli/rescaled_final/1267_fw.mp4	0.0	346.19671273231506	0.10003209114074707
61	264.79768896102905	fix_pre	0		120	59.0	2.5	/experiments/knapen_AOT/AOT_stimuli/rescaled_final/0559_fw.mp4	0.0	346.2967448234558	1.0001790523529053
61	265.79786801338196	movie	1		241	59.0	2.5	/experiments/knapen_AOT/AOT_stimuli/rescaled_final/0559_fw.mp4	0.0	347.2969238758087	2.492121934890747
61	266.18206691741943	pulse	1	t		59.0	2.5	/experiments/knapen_AOT/AOT_stimuli/rescaled_final/0559_fw.mp4	0.0	347.6811227798462	
61	267.7816529273987	pulse	1	t		59.0	2.5	/experiments/knapen_AOT/AOT_stimuli/rescaled_final/0559_fw.mp4	0.0	349.28070878982544	
61	268.2899899482727	fix_post	2		12	59.0	2.5	/experiments/knapen_AOT/AOT_stimuli/rescaled_final/0559_fw.mp4	0.0	349.78904581069946	0.09987497329711914
62	268.3898649215698	fix_pre	0		120	60.0	2.5	/experiments/knapen_AOT/AOT_stimuli/rescaled_final/0564_rv.mp4	0.0	349.8889207839966	1.0001461505889893
62	269.3818678855896	pulse	0	t		60.0	2.5	/experiments/knapen_AOT/AOT_stimuli/rescaled_final/0564_rv.mp4	0.0	350.88092374801636	
62	269.3900110721588	movie	1		243	60.0	2.5	/experiments/knapen_AOT/AOT_stimuli/rescaled_final/0564_rv.mp4	0.0	350.88906693458557	2.508754014968872
62	270.98260498046875	pulse	1	t		60.0	2.5	/experiments/knapen_AOT/AOT_stimuli/rescaled_final/0564_rv.mp4	0.0	352.4816608428955	
62	271.8987650871277	fix_post	2		12	60.0	2.5	/experiments/knapen_AOT/AOT_stimuli/rescaled_final/0564_rv.mp4	0.0	353.39782094955444	0.1000969409942627
63	271.99886202812195	fix_pre	0		120	61.0	2.5	/experiments/knapen_AOT/AOT_stimuli/rescaled_final/1279_rv.mp4	0.0	353.4979178905487	1.0000238418579102
63	272.58235001564026	pulse	0	t		61.0	2.5	/experiments/knapen_AOT/AOT_stimuli/rescaled_final/1279_rv.mp4	0.0	354.081405878067	
63	272.99888586997986	movie	1		243	61.0	2.5	/experiments/knapen_AOT/AOT_stimuli/rescaled_final/1279_rv.mp4	0.0	354.4979417324066	2.500495195388794
63	274.1827759742737	pulse	1	t		61.0	2.5	/experiments/knapen_AOT/AOT_stimuli/rescaled_final/1279_rv.mp4	0.0	355.68183183670044	
63	275.49938106536865	fix_post	2		12	61.0	2.5	/experiments/knapen_AOT/AOT_stimuli/rescaled_final/1279_rv.mp4	0.0	356.9984369277954	0.09994697570800781
64	275.59932804107666	fix_pre	0		120	62.0	2.5	blank	1.0	357.0983839035034	1.0001158714294434
64	275.7827830314636	pulse	0	t		62.0	2.5	blank	1.0	357.2818388938904	
64	276.5994439125061	movie	1		300	62.0	2.5	blank	1.0	358.09849977493286	2.5003631114959717
64	277.3830850124359	pulse	1	t		62.0	2.5	blank	1.0	358.88214087486267	
64	278.98335003852844	pulse	1	t		62.0	2.5	blank	1.0	360.4824059009552	
64	279.0998070240021	fix_post	2		12	62.0	2.5	blank	1.0	360.59886288642883	0.1000359058380127
65	279.1998429298401	fix_pre	0		120	63.0	2.5	/experiments/knapen_AOT/AOT_stimuli/rescaled_final/1933_fw.mp4	0.0	360.69889879226685	1.000154972076416
65	280.1999979019165	movie	1		243	63.0	2.5	/experiments/knapen_AOT/AOT_stimuli/rescaled_final/1933_fw.mp4	0.0	361.69905376434326	2.5004000663757324
65	280.5849120616913	pulse	1	t		63.0	2.5	/experiments/knapen_AOT/AOT_stimuli/rescaled_final/1933_fw.mp4	0.0	362.08396792411804	
65	282.17643094062805	pulse	1	t		63.0	2.5	/experiments/knapen_AOT/AOT_stimuli/rescaled_final/1933_fw.mp4	0.0	363.6754868030548	
65	282.70039796829224	fix_post	2		11	63.0	2.5	/experiments/knapen_AOT/AOT_stimuli/rescaled_final/1933_fw.mp4	0.0	364.199453830719	0.09166407585144043
66	282.7920620441437	fix_pre	0		120	64.0	2.5	/experiments/knapen_AOT/AOT_stimuli/rescaled_final/0593_fw.mp4	0.0	364.29111790657043	1.0001029968261719
66	283.7764880657196	pulse	0	t		64.0	2.5	/experiments/knapen_AOT/AOT_stimuli/rescaled_final/0593_fw.mp4	0.0	365.27554392814636	
66	283.79216504096985	movie	1		243	64.0	2.5	/experiments/knapen_AOT/AOT_stimuli/rescaled_final/0593_fw.mp4	0.0	365.2912209033966	2.508699893951416
66	285.37609004974365	pulse	1	t		64.0	2.5	/experiments/knapen_AOT/AOT_stimuli/rescaled_final/0593_fw.mp4	0.0	366.8751459121704	
66	286.30086493492126	fix_post	2		12	64.0	2.5	/experiments/knapen_AOT/AOT_stimuli/rescaled_final/0593_fw.mp4	0.0	367.799920797348	0.10002899169921875
67	286.4008939266205	fix_pre	0		120	65.0	2.5	/experiments/knapen_AOT/AOT_stimuli/rescaled_final/0418_rv.mp4	0.0	367.89994978904724	1.0001940727233887
67	286.97623205184937	pulse	0	t		65.0	2.5	/experiments/knapen_AOT/AOT_stimuli/rescaled_final/0418_rv.mp4	0.0	368.4752879142761	
67	287.4010879993439	movie	1		243	65.0	2.5	/experiments/knapen_AOT/AOT_stimuli/rescaled_final/0418_rv.mp4	0.0	368.90014386177063	2.5004000663757324
67	288.5811150074005	pulse	1	t		65.0	2.5	/experiments/knapen_AOT/AOT_stimuli/rescaled_final/0418_rv.mp4	0.0	370.08017086982727	
67	289.9014880657196	fix_post	2		12	65.0	2.5	/experiments/knapen_AOT/AOT_stimuli/rescaled_final/0418_rv.mp4	0.0	371.40054392814636	0.10001683235168457
68	290.0015048980713	fix_pre	0		120	66.0	2.5	/experiments/knapen_AOT/AOT_stimuli/rescaled_final/0418_fw.mp4	0.0	371.50056076049805	1.000075101852417
68	290.1765868663788	pulse	0	t		66.0	2.5	/experiments/knapen_AOT/AOT_stimuli/rescaled_final/0418_fw.mp4	0.0	371.67564272880554	
68	291.0015799999237	movie	1		243	66.0	2.5	/experiments/knapen_AOT/AOT_stimuli/rescaled_final/0418_fw.mp4	0.0	372.50063586235046	2.5004630088806152
68	291.77688789367676	pulse	1	t		66.0	2.5	/experiments/knapen_AOT/AOT_stimuli/rescaled_final/0418_fw.mp4	0.0	373.2759437561035	
68	293.37717390060425	pulse	1	t		66.0	2.5	/experiments/knapen_AOT/AOT_stimuli/rescaled_final/0418_fw.mp4	0.0	374.876229763031	
68	293.5020430088043	fix_post	2		12	66.0	2.5	/experiments/knapen_AOT/AOT_stimuli/rescaled_final/0418_fw.mp4	0.0	375.0010988712311	0.09994888305664062
69	293.60199189186096	fix_pre	0		120	67.0	2.5	/experiments/knapen_AOT/AOT_stimuli/rescaled_final/0364_fw.mp4	0.0	375.1010477542877	1.000195026397705
69	294.60218691825867	movie	1		243	67.0	2.5	/experiments/knapen_AOT/AOT_stimuli/rescaled_final/0364_fw.mp4	0.0	376.1012427806854	2.4919331073760986
69	294.9773678779602	pulse	1	t		67.0	2.5	/experiments/knapen_AOT/AOT_stimuli/rescaled_final/0364_fw.mp4	0.0	376.47642374038696	
69	296.5777850151062	pulse	1	t		67.0	2.5	/experiments/knapen_AOT/AOT_stimuli/rescaled_final/0364_fw.mp4	0.0	378.07684087753296	
69	297.09412002563477	fix_post	2		12	67.0	2.5	/experiments/knapen_AOT/AOT_stimuli/rescaled_final/0364_fw.mp4	0.0	378.5931758880615	0.10007786750793457
70	297.1941978931427	fix_pre	0		119	68.0	2.5	/experiments/knapen_AOT/AOT_stimuli/rescaled_final/1320_fw.mp4	0.0	378.69325375556946	0.9918642044067383
70	298.1778700351715	pulse	0	t		68.0	2.5	/experiments/knapen_AOT/AOT_stimuli/rescaled_final/1320_fw.mp4	0.0	379.67692589759827	
70	298.18606209754944	movie	1		244	68.0	2.5	/experiments/knapen_AOT/AOT_stimuli/rescaled_final/1320_fw.mp4	0.0	379.6851179599762	2.5086889266967773
70	299.77935695648193	pulse	1	t		68.0	2.5	/experiments/knapen_AOT/AOT_stimuli/rescaled_final/1320_fw.mp4	0.0	381.2784128189087	
70	300.6947510242462	fix_post	2		12	68.0	2.5	/experiments/knapen_AOT/AOT_stimuli/rescaled_final/1320_fw.mp4	0.0	382.193806886673	0.10004186630249023
71	300.7947928905487	fix_pre	0		120	69.0	2.5	blank	1.0	382.29384875297546	1.0000979900360107
71	301.37835693359375	pulse	0	t		69.0	2.5	blank	1.0	382.8774127960205	
71	301.7948908805847	movie	1		300	69.0	2.5	blank	1.0	383.2939467430115	2.5004241466522217
71	302.97853899002075	pulse	1	t		69.0	2.5	blank	1.0	384.4775948524475	
71	304.29531502723694	fix_post	2		12	69.0	2.5	blank	1.0	385.7943708896637	0.09992504119873047
72	304.39524006843567	fix_pre	0		120	70.0	2.5	/experiments/knapen_AOT/AOT_stimuli/rescaled_final/0160_rv.mp4	0.0	385.8942959308624	1.000147819519043
72	304.57872200012207	pulse	0	t		70.0	2.5	/experiments/knapen_AOT/AOT_stimuli/rescaled_final/0160_rv.mp4	0.0	386.0777778625488	
72	305.3953878879547	movie	1		242	70.0	2.5	/experiments/knapen_AOT/AOT_stimuli/rescaled_final/0160_rv.mp4	0.0	386.89444375038147	2.5005111694335938
72	306.1791169643402	pulse	1	t		70.0	2.5	/experiments/knapen_AOT/AOT_stimuli/rescaled_final/0160_rv.mp4	0.0	387.67817282676697	
72	307.7791109085083	pulse	1	t		70.0	2.5	/experiments/knapen_AOT/AOT_stimuli/rescaled_final/0160_rv.mp4	0.0	389.27816677093506	
72	307.8958990573883	fix_post	2		12	70.0	2.5	/experiments/knapen_AOT/AOT_stimuli/rescaled_final/0160_rv.mp4	0.0	389.39495491981506	0.09993791580200195
73	307.9958369731903	fix_pre	0		120	71.0	2.5	/experiments/knapen_AOT/AOT_stimuli/rescaled_final/1157_fw.mp4	0.0	389.49489283561707	1.0001680850982666
73	308.9960050582886	movie	1		242	71.0	2.5	/experiments/knapen_AOT/AOT_stimuli/rescaled_final/1157_fw.mp4	0.0	390.49506092071533	2.4920859336853027
73	309.37987899780273	pulse	1	t		71.0	2.5	/experiments/knapen_AOT/AOT_stimuli/rescaled_final/1157_fw.mp4	0.0	390.8789348602295	
73	310.9797420501709	pulse	1	t		71.0	2.5	/experiments/knapen_AOT/AOT_stimuli/rescaled_final/1157_fw.mp4	0.0	392.47879791259766	
73	311.4880909919739	fix_post	2		12	71.0	2.5	/experiments/knapen_AOT/AOT_stimuli/rescaled_final/1157_fw.mp4	0.0	392.98714685440063	0.0998680591583252
74	311.5879590511322	fix_pre	0		120	72.0	2.5	/experiments/knapen_AOT/AOT_stimuli/rescaled_final/1287_fw.mp4	0.0	393.08701491355896	1.000241994857788
74	312.5800700187683	pulse	0	t		72.0	2.5	/experiments/knapen_AOT/AOT_stimuli/rescaled_final/1287_fw.mp4	0.0	394.07912588119507	
74	312.58820104599	movie	1		244	72.0	2.5	/experiments/knapen_AOT/AOT_stimuli/rescaled_final/1287_fw.mp4	0.0	394.08725690841675	2.508664846420288
74	314.1806609630585	pulse	1	t		72.0	2.5	/experiments/knapen_AOT/AOT_stimuli/rescaled_final/1287_fw.mp4	0.0	395.67971682548523	
74	315.0968658924103	fix_post	2		12	72.0	2.5	/experiments/knapen_AOT/AOT_stimuli/rescaled_final/1287_fw.mp4	0.0	396.59592175483704	0.10005807876586914
75	315.19692397117615	fix_pre	0		120	73.0	2.5	/experiments/knapen_AOT/AOT_stimuli/rescaled_final/0501_rv.mp4	0.0	396.6959798336029	1.0001599788665771
75	315.78049302101135	pulse	0	t		73.0	2.5	/experiments/knapen_AOT/AOT_stimuli/rescaled_final/0501_rv.mp4	0.0	397.2795488834381	
75	316.1970839500427	movie	1		239	73.0	2.5	/experiments/knapen_AOT/AOT_stimuli/rescaled_final/0501_rv.mp4	0.0	397.6961398124695	2.5004191398620605
75	317.38069891929626	pulse	1	t		73.0	2.5	/experiments/knapen_AOT/AOT_stimuli/rescaled_final/0501_rv.mp4	0.0	398.879754781723	
75	318.6975030899048	fix_post	2		12	73.0	2.5	/experiments/knapen_AOT/AOT_stimuli/rescaled_final/0501_rv.mp4	0.0	400.19655895233154	0.09988594055175781
76	318.79738903045654	fix_pre	0		120	74.0	2.5	/experiments/knapen_AOT/AOT_stimuli/rescaled_final/0824_fw.mp4	0.0	400.2964448928833	1.0001180171966553
76	318.980947971344	pulse	0	t		74.0	2.5	/experiments/knapen_AOT/AOT_stimuli/rescaled_final/0824_fw.mp4	0.0	400.48000383377075	
76	319.7975070476532	movie	1		243	74.0	2.5	/experiments/knapen_AOT/AOT_stimuli/rescaled_final/0824_fw.mp4	0.0	401.29656291007996	2.500515937805176
76	320.58131194114685	pulse	1	t		74.0	2.5	/experiments/knapen_AOT/AOT_stimuli/rescaled_final/0824_fw.mp4	0.0	402.0803678035736	
76	322.18118500709534	pulse	1	t		74.0	2.5	/experiments/knapen_AOT/AOT_stimuli/rescaled_final/0824_fw.mp4	0.0	403.6802408695221	
76	322.2980229854584	fix_post	2		12	74.0	2.5	/experiments/knapen_AOT/AOT_stimuli/rescaled_final/0824_fw.mp4	0.0	403.79707884788513	0.09996604919433594
77	322.3979890346527	fix_pre	0		120	75.0	2.5	/experiments/knapen_AOT/AOT_stimuli/rescaled_final/0644_fw.mp4	0.0	403.89704489707947	1.0001440048217773
77	323.3981330394745	movie	1		241	75.0	2.5	/experiments/knapen_AOT/AOT_stimuli/rescaled_final/0644_fw.mp4	0.0	404.89718890190125	2.492205858230591
77	323.78600001335144	pulse	1	t		75.0	2.5	/experiments/knapen_AOT/AOT_stimuli/rescaled_final/0644_fw.mp4	0.0	405.2850558757782	
77	325.38190507888794	pulse	1	t		75.0	2.5	/experiments/knapen_AOT/AOT_stimuli/rescaled_final/0644_fw.mp4	0.0	406.8809609413147	
77	325.8903388977051	fix_post	2		12	75.0	2.5	/experiments/knapen_AOT/AOT_stimuli/rescaled_final/0644_fw.mp4	0.0	407.38939476013184	0.09984016418457031
78	325.99017906188965	fix_pre	0		120	76.0	2.5	blank	1.0	407.4892349243164	1.0001788139343262
78	326.9822359085083	pulse	0	t		76.0	2.5	blank	1.0	408.48129177093506	
78	326.990357875824	movie	1		301	76.0	2.5	blank	1.0	408.48941373825073	2.5086541175842285
78	328.58248591423035	pulse	1	t		76.0	2.5	blank	1.0	410.0815417766571	
78	329.4990119934082	fix_post	2		12	76.0	2.5	blank	1.0	410.99806785583496	0.10004496574401855
79	329.5990569591522	fix_pre	0		120	77.0	2.5	/experiments/knapen_AOT/AOT_stimuli/rescaled_final/0088_rv.mp4	0.0	411.098112821579	1.0002009868621826
79	330.18261098861694	pulse	0	t		77.0	2.5	/experiments/knapen_AOT/AOT_stimuli/rescaled_final/0088_rv.mp4	0.0	411.6816668510437	
79	330.5992579460144	movie	1		243	77.0	2.5	/experiments/knapen_AOT/AOT_stimuli/rescaled_final/0088_rv.mp4	0.0	412.09831380844116	2.500293016433716
79	331.78291606903076	pulse	1	t		77.0	2.5	/experiments/knapen_AOT/AOT_stimuli/rescaled_final/0088_rv.mp4	0.0	413.2819719314575	
79	333.0995509624481	fix_post	2		12	77.0	2.5	/experiments/knapen_AOT/AOT_stimuli/rescaled_final/0088_rv.mp4	0.0	414.5986068248749	0.09997200965881348
80	333.19952297210693	fix_pre	0		120	78.0	2.5	/experiments/knapen_AOT/AOT_stimuli/rescaled_final/2110_fw.mp4	0.0	414.6985788345337	1.000169038772583
80	333.38319301605225	pulse	0	t		78.0	2.5	/experiments/knapen_AOT/AOT_stimuli/rescaled_final/2110_fw.mp4	0.0	414.882248878479	
80	334.1996920108795	movie	1		244	78.0	2.5	/experiments/knapen_AOT/AOT_stimuli/rescaled_final/2110_fw.mp4	0.0	415.6987478733063	2.500382900238037
80	334.9834430217743	pulse	1	t		78.0	2.5	/experiments/knapen_AOT/AOT_stimuli/rescaled_final/2110_fw.mp4	0.0	416.48249888420105	
80	336.583988904953	pulse	1	t		78.0	2.5	/experiments/knapen_AOT/AOT_stimuli/rescaled_final/2110_fw.mp4	0.0	418.08304476737976	
80	336.70007491111755	fix_post	2		12	78.0	2.5	/experiments/knapen_AOT/AOT_stimuli/rescaled_final/2110_fw.mp4	0.0	418.1991307735443	0.10002899169921875
81	336.8001039028168	fix_pre	0		120	79.0	2.5	/experiments/knapen_AOT/AOT_stimuli/rescaled_final/1019_fw.mp4	0.0	418.29915976524353	1.0000691413879395
81	337.8001730442047	movie	1		243	79.0	2.5	/experiments/knapen_AOT/AOT_stimuli/rescaled_final/1019_fw.mp4	0.0	419.29922890663147	2.492100954055786
81	338.1876449584961	pulse	1	t		79.0	2.5	/experiments/knapen_AOT/AOT_stimuli/rescaled_final/1019_fw.mp4	0.0	419.68670082092285	
81	339.7767879962921	pulse	1	t		79.0	2.5	/experiments/knapen_AOT/AOT_stimuli/rescaled_final/1019_fw.mp4	0.0	421.2758438587189	
81	340.2922739982605	fix_post	2		12	79.0	2.5	/experiments/knapen_AOT/AOT_stimuli/rescaled_final/1019_fw.mp4	0.0	421.79132986068726	0.10002398490905762
82	340.39229798316956	fix_pre	0		120	80.0	2.5	/experiments/knapen_AOT/AOT_stimuli/rescaled_final/0791_fw.mp4	0.0	421.8913538455963	1.0001580715179443
82	341.3767149448395	pulse	0	t		80.0	2.5	/experiments/knapen_AOT/AOT_stimuli/rescaled_final/0791_fw.mp4	0.0	422.87577080726624	
82	341.3924560546875	movie	1		244	80.0	2.5	/experiments/knapen_AOT/AOT_stimuli/rescaled_final/0791_fw.mp4	0.0	422.89151191711426	2.5087878704071045
82	342.9763059616089	pulse	1	t		80.0	2.5	/experiments/knapen_AOT/AOT_stimuli/rescaled_final/0791_fw.mp4	0.0	424.47536182403564	
82	343.9012439250946	fix_post	2		12	80.0	2.5	/experiments/knapen_AOT/AOT_stimuli/rescaled_final/0791_fw.mp4	0.0	425.40029978752136	0.09993505477905273
83	344.00117897987366	fix_pre	0		120	81.0	2.5	/experiments/knapen_AOT/AOT_stimuli/rescaled_final/2110_rv.mp4	0.0	425.5002348423004	1.0001609325408936
83	344.577241897583	pulse	0	t		81.0	2.5	/experiments/knapen_AOT/AOT_stimuli/rescaled_final/2110_rv.mp4	0.0	426.07629776000977	
83	345.00133991241455	movie	1		244	81.0	2.5	/experiments/knapen_AOT/AOT_stimuli/rescaled_final/2110_rv.mp4	0.0	426.5003957748413	2.500331163406372
83	346.177857875824	pulse	1	t		81.0	2.5	/experiments/knapen_AOT/AOT_stimuli/rescaled_final/2110_rv.mp4	0.0	427.67691373825073	
83	347.5016710758209	fix_post	2		12	81.0	2.5	/experiments/knapen_AOT/AOT_stimuli/rescaled_final/2110_rv.mp4	0.0	429.0007269382477	0.10000991821289062
84	347.6016809940338	fix_pre	0		120	82.0	2.5	/experiments/knapen_AOT/AOT_stimuli/rescaled_final/0024_fw.mp4	0.0	429.10073685646057	1.000140905380249
84	347.7768678665161	pulse	0	t		82.0	2.5	/experiments/knapen_AOT/AOT_stimuli/rescaled_final/0024_fw.mp4	0.0	429.27592372894287	
84	348.60182189941406	movie	1		244	82.0	2.5	/experiments/knapen_AOT/AOT_stimuli/rescaled_final/0024_fw.mp4	0.0	430.1008777618408	2.5004570484161377
84	349.3771300315857	pulse	1	t		82.0	2.5	/experiments/knapen_AOT/AOT_stimuli/rescaled_final/0024_fw.mp4	0.0	430.87618589401245	
84	350.9773690700531	pulse	1	t		82.0	2.5	/experiments/knapen_AOT/AOT_stimuli/rescaled_final/0024_fw.mp4	0.0	432.47642493247986	
84	351.1022789478302	fix_post	2		12	82.0	2.5	/experiments/knapen_AOT/AOT_stimuli/rescaled_final/0024_fw.mp4	0.0	432.60133481025696	0.09994912147521973
85	351.2022280693054	fix_pre	0		120	83.0	2.5	blank	1.0	432.7012839317322	1.000180959701538
85	352.20240902900696	movie	1		299	83.0	2.5	blank	1.0	433.7014648914337	2.4920639991760254
85	352.5776460170746	pulse	1	t		83.0	2.5	blank	1.0	434.07670187950134	
85	354.1778099536896	pulse	1	t		83.0	2.5	blank	1.0	435.67686581611633	
85	354.694473028183	fix_post	2		12	83.0	2.5	blank	1.0	436.19352889060974	0.09998202323913574
87	354.7944550514221	stim	0		1716					436.2935109138489	14.30213189125061
87	355.7780759334564	pulse	0	t						437.2771317958832	
87	357.3783280849457	pulse	0	t						438.87738394737244	
87	358.9785649776459	pulse	0	t						440.47762084007263	
87	360.57876086235046	pulse	0	t						442.0778167247772	
87	362.1790370941162	pulse	0	t						443.67809295654297	
87	363.77921986579895	pulse	0	t						445.2782757282257	
87	365.3795208930969	pulse	0	t						446.8785767555237	
87	366.97969603538513	pulse	0	t						448.4787518978119	
87	368.580039024353	pulse	0	t						450.0790948867798	
