trial_nr	onset	event_type	phase	response	nr_frames	movie_index	movie_duration	movie_file	blank	onset_abs	duration
0	0.2082500457763672	stim	0		1703					27.838032960891724	14.193723917007446
0	14.393801927566528	response	0	space						42.023584842681885	
1	14.401973962783813	stim	0		4211					42.03175687789917	35.107332944869995
1	49.49974012374878	pulse	0	t						77.12952303886414	
1	49.50930690765381	stim	1		1715					77.13908982276917	14.30002212524414
1	51.09092092514038	pulse	1	t						78.72070384025574	
1	52.69125008583069	pulse	1	t						80.32103300094604	
1	54.291367053985596	pulse	1	t						81.92114996910095	
1	55.89170503616333	pulse	1	t						83.52148795127869	
1	57.491939067840576	pulse	1	t						85.12172198295593	
1	59.09213399887085	pulse	1	t						86.7219169139862	
1	60.692259073257446	pulse	1	t						88.3220419883728	
1	62.29260993003845	pulse	1	t						89.92239284515381	
2	63.80932903289795	fix_pre	0		11	0.0	2.5	/experiments/knapen_AOT/AOT_stimuli/rescaled_final/1428_rv.mp4	0.0	91.4391119480133	0.10015702247619629
2	63.892887115478516	pulse	0	t		0.0	2.5	/experiments/knapen_AOT/AOT_stimuli/rescaled_final/1428_rv.mp4	0.0	91.52267003059387	
2	63.909486055374146	movie	1		248	0.0	2.5	/experiments/knapen_AOT/AOT_stimuli/rescaled_final/1428_rv.mp4	0.0	91.5392689704895	2.5002970695495605
2	65.49375200271606	pulse	1	t		0.0	2.5	/experiments/knapen_AOT/AOT_stimuli/rescaled_final/1428_rv.mp4	0.0	93.12353491783142	
2	66.4097831249237	fix_post	2		12	0.0	2.5	/experiments/knapen_AOT/AOT_stimuli/rescaled_final/1428_rv.mp4	0.0	94.03956604003906	0.09996485710144043
3	66.50974798202515	fix_pre	0		120	1.0	2.5	/experiments/knapen_AOT/AOT_stimuli/rescaled_final/0761_fw.mp4	0.0	94.1395308971405	1.0001270771026611
3	67.09332203865051	pulse	0	t		1.0	2.5	/experiments/knapen_AOT/AOT_stimuli/rescaled_final/0761_fw.mp4	0.0	94.72310495376587	
3	67.50987505912781	movie	1		246	1.0	2.5	/experiments/knapen_AOT/AOT_stimuli/rescaled_final/0761_fw.mp4	0.0	95.13965797424316	2.500359058380127
3	68.68960905075073	pulse	1	t		1.0	2.5	/experiments/knapen_AOT/AOT_stimuli/rescaled_final/0761_fw.mp4	0.0	96.31939196586609	
3	70.01023411750793	fix_post	2		12	1.0	2.5	/experiments/knapen_AOT/AOT_stimuli/rescaled_final/0761_fw.mp4	0.0	97.64001703262329	0.1000218391418457
4	70.11025595664978	fix_pre	0		120	2.0	2.5	/experiments/knapen_AOT/AOT_stimuli/rescaled_final/2016_fw.mp4	0.0	97.74003887176514	1.0001850128173828
4	70.2939190864563	pulse	0	t		2.0	2.5	/experiments/knapen_AOT/AOT_stimuli/rescaled_final/2016_fw.mp4	0.0	97.92370200157166	
4	71.11044096946716	movie	1		243	2.0	2.5	/experiments/knapen_AOT/AOT_stimuli/rescaled_final/2016_fw.mp4	0.0	98.74022388458252	2.50032901763916
4	71.89406394958496	pulse	1	t		2.0	2.5	/experiments/knapen_AOT/AOT_stimuli/rescaled_final/2016_fw.mp4	0.0	99.52384686470032	
4	73.49433898925781	pulse	1	t		2.0	2.5	/experiments/knapen_AOT/AOT_stimuli/rescaled_final/2016_fw.mp4	0.0	101.12412190437317	
4	73.61076998710632	fix_post	2		12	2.0	2.5	/experiments/knapen_AOT/AOT_stimuli/rescaled_final/2016_fw.mp4	0.0	101.24055290222168	0.10005402565002441
5	73.71082401275635	fix_pre	0		120	3.0	2.5	/experiments/knapen_AOT/AOT_stimuli/rescaled_final/1761_rv.mp4	0.0	101.3406069278717	1.0001509189605713
5	74.71097493171692	movie	1		243	3.0	2.5	/experiments/knapen_AOT/AOT_stimuli/rescaled_final/1761_rv.mp4	0.0	102.34075784683228	2.492082118988037
5	75.09519910812378	pulse	1	t		3.0	2.5	/experiments/knapen_AOT/AOT_stimuli/rescaled_final/1761_rv.mp4	0.0	102.72498202323914	
5	76.69486498832703	pulse	1	t		3.0	2.5	/experiments/knapen_AOT/AOT_stimuli/rescaled_final/1761_rv.mp4	0.0	104.32464790344238	
5	77.20305705070496	fix_post	2		12	3.0	2.5	/experiments/knapen_AOT/AOT_stimuli/rescaled_final/1761_rv.mp4	0.0	104.83283996582031	0.09999608993530273
6	77.30305314064026	fix_pre	0		120	4.0	2.5	/experiments/knapen_AOT/AOT_stimuli/rescaled_final/1595_rv.mp4	0.0	104.93283605575562	1.000079870223999
6	78.29514908790588	pulse	0	t		4.0	2.5	/experiments/knapen_AOT/AOT_stimuli/rescaled_final/1595_rv.mp4	0.0	105.92493200302124	
6	78.30313301086426	movie	1		245	4.0	2.5	/experiments/knapen_AOT/AOT_stimuli/rescaled_final/1595_rv.mp4	0.0	105.93291592597961	2.508718967437744
6	79.89640092849731	pulse	1	t		4.0	2.5	/experiments/knapen_AOT/AOT_stimuli/rescaled_final/1595_rv.mp4	0.0	107.52618384361267	
6	80.811851978302	fix_post	2		12	4.0	2.5	/experiments/knapen_AOT/AOT_stimuli/rescaled_final/1595_rv.mp4	0.0	108.44163489341736	0.10006093978881836
7	80.91191291809082	fix_pre	0		120	5.0	2.5	/experiments/knapen_AOT/AOT_stimuli/rescaled_final/1261_rv.mp4	0.0	108.54169583320618	1.0001301765441895
7	81.48810291290283	pulse	0	t		5.0	2.5	/experiments/knapen_AOT/AOT_stimuli/rescaled_final/1261_rv.mp4	0.0	109.11788582801819	
7	81.91204309463501	movie	1		244	5.0	2.5	/experiments/knapen_AOT/AOT_stimuli/rescaled_final/1261_rv.mp4	0.0	109.54182600975037	2.500337839126587
7	83.08776211738586	pulse	1	t		5.0	2.5	/experiments/knapen_AOT/AOT_stimuli/rescaled_final/1261_rv.mp4	0.0	110.71754503250122	
7	84.4123809337616	fix_post	2		12	5.0	2.5	/experiments/knapen_AOT/AOT_stimuli/rescaled_final/1261_rv.mp4	0.0	112.04216384887695	0.10001206398010254
8	84.5123929977417	fix_pre	0		120	6.0	2.5	/experiments/knapen_AOT/AOT_stimuli/rescaled_final/1791_fw.mp4	0.0	112.14217591285706	1.0001671314239502
8	84.68846702575684	pulse	0	t		6.0	2.5	/experiments/knapen_AOT/AOT_stimuli/rescaled_final/1791_fw.mp4	0.0	112.31824994087219	
8	85.51256012916565	movie	1		245	6.0	2.5	/experiments/knapen_AOT/AOT_stimuli/rescaled_final/1791_fw.mp4	0.0	113.142343044281	2.500375986099243
8	86.28869605064392	pulse	1	t		6.0	2.5	/experiments/knapen_AOT/AOT_stimuli/rescaled_final/1791_fw.mp4	0.0	113.91847896575928	
8	87.88808298110962	pulse	1	t		6.0	2.5	/experiments/knapen_AOT/AOT_stimuli/rescaled_final/1791_fw.mp4	0.0	115.51786589622498	
8	88.01293611526489	fix_post	2		12	6.0	2.5	/experiments/knapen_AOT/AOT_stimuli/rescaled_final/1791_fw.mp4	0.0	115.64271903038025	0.10004281997680664
9	88.1129789352417	fix_pre	0		120	7.0	2.5	blank	1.0	115.74276185035706	1.0001280307769775
9	89.11310696601868	movie	1		299	7.0	2.5	blank	1.0	116.74288988113403	2.4920430183410645
9	89.48827195167542	pulse	1	t		7.0	2.5	blank	1.0	117.11805486679077	
9	91.08852791786194	pulse	1	t		7.0	2.5	blank	1.0	118.7183108329773	
9	91.60514998435974	fix_post	2		12	7.0	2.5	blank	1.0	119.2349328994751	0.10000896453857422
10	91.70515894889832	fix_pre	0		119	8.0	2.5	/experiments/knapen_AOT/AOT_stimuli/rescaled_final/2103_fw.mp4	0.0	119.33494186401367	0.9918529987335205
10	92.68888092041016	pulse	0	t		8.0	2.5	/experiments/knapen_AOT/AOT_stimuli/rescaled_final/2103_fw.mp4	0.0	120.31866383552551	
10	92.69701194763184	movie	1		244	8.0	2.5	/experiments/knapen_AOT/AOT_stimuli/rescaled_final/2103_fw.mp4	0.0	120.32679486274719	2.5086400508880615
10	94.29295802116394	pulse	1	t		8.0	2.5	/experiments/knapen_AOT/AOT_stimuli/rescaled_final/2103_fw.mp4	0.0	121.9227409362793	
10	95.2056519985199	fix_post	2		12	8.0	2.5	/experiments/knapen_AOT/AOT_stimuli/rescaled_final/2103_fw.mp4	0.0	122.83543491363525	0.10005593299865723
11	95.30570793151855	fix_pre	0		120	9.0	2.5	/experiments/knapen_AOT/AOT_stimuli/rescaled_final/0183_rv.mp4	0.0	122.93549084663391	1.0001401901245117
11	95.88926601409912	pulse	0	t		9.0	2.5	/experiments/knapen_AOT/AOT_stimuli/rescaled_final/0183_rv.mp4	0.0	123.51904892921448	
11	96.30584812164307	movie	1		244	9.0	2.5	/experiments/knapen_AOT/AOT_stimuli/rescaled_final/0183_rv.mp4	0.0	123.93563103675842	2.5003550052642822
11	97.48952412605286	pulse	1	t		9.0	2.5	/experiments/knapen_AOT/AOT_stimuli/rescaled_final/0183_rv.mp4	0.0	125.11930704116821	
11	98.80620312690735	fix_post	2		12	9.0	2.5	/experiments/knapen_AOT/AOT_stimuli/rescaled_final/0183_rv.mp4	0.0	126.4359860420227	0.10004401206970215
12	98.90624713897705	fix_pre	0		120	10.0	2.5	/experiments/knapen_AOT/AOT_stimuli/rescaled_final/1446_rv.mp4	0.0	126.53603005409241	1.0001308917999268
12	99.08976101875305	pulse	0	t		10.0	2.5	/experiments/knapen_AOT/AOT_stimuli/rescaled_final/1446_rv.mp4	0.0	126.71954393386841	
12	99.90637803077698	movie	1		244	10.0	2.5	/experiments/knapen_AOT/AOT_stimuli/rescaled_final/1446_rv.mp4	0.0	127.53616094589233	2.5003740787506104
12	100.69009900093079	pulse	1	t		10.0	2.5	/experiments/knapen_AOT/AOT_stimuli/rescaled_final/1446_rv.mp4	0.0	128.31988191604614	
12	102.29019808769226	pulse	1	t		10.0	2.5	/experiments/knapen_AOT/AOT_stimuli/rescaled_final/1446_rv.mp4	0.0	129.91998100280762	
12	102.40675210952759	fix_post	2		12	10.0	2.5	/experiments/knapen_AOT/AOT_stimuli/rescaled_final/1446_rv.mp4	0.0	130.03653502464294	0.10006093978881836
13	102.5068130493164	fix_pre	0		120	11.0	2.5	/experiments/knapen_AOT/AOT_stimuli/rescaled_final/1895_rv.mp4	0.0	130.13659596443176	1.000114917755127
13	103.50692796707153	movie	1		245	11.0	2.5	/experiments/knapen_AOT/AOT_stimuli/rescaled_final/1895_rv.mp4	0.0	131.1367108821869	2.4920260906219482
13	103.89184594154358	pulse	1	t		11.0	2.5	/experiments/knapen_AOT/AOT_stimuli/rescaled_final/1895_rv.mp4	0.0	131.52162885665894	
13	105.49070811271667	pulse	1	t		11.0	2.5	/experiments/knapen_AOT/AOT_stimuli/rescaled_final/1895_rv.mp4	0.0	133.12049102783203	
13	105.99895405769348	fix_post	2		12	11.0	2.5	/experiments/knapen_AOT/AOT_stimuli/rescaled_final/1895_rv.mp4	0.0	133.62873697280884	0.10001707077026367
14	106.09897112846375	fix_pre	0		120	12.0	2.5	blank	1.0	133.7287540435791	1.0001838207244873
14	107.09106206893921	pulse	0	t		12.0	2.5	blank	1.0	134.72084498405457	
14	107.09915494918823	movie	1		301	12.0	2.5	blank	1.0	134.7289378643036	2.508709192276001
14	108.69126605987549	pulse	1	t		12.0	2.5	blank	1.0	136.32104897499084	
14	109.60786414146423	fix_post	2		12	12.0	2.5	blank	1.0	137.2376470565796	0.10004091262817383
15	109.70790505409241	fix_pre	0		120	13.0	2.5	/experiments/knapen_AOT/AOT_stimuli/rescaled_final/1472_fw.mp4	0.0	137.33768796920776	1.0002069473266602
15	110.29140496253967	pulse	0	t		13.0	2.5	/experiments/knapen_AOT/AOT_stimuli/rescaled_final/1472_fw.mp4	0.0	137.92118787765503	
15	110.70811200141907	movie	1		241	13.0	2.5	/experiments/knapen_AOT/AOT_stimuli/rescaled_final/1472_fw.mp4	0.0	138.33789491653442	2.5002939701080322
15	111.89171695709229	pulse	1	t		13.0	2.5	/experiments/knapen_AOT/AOT_stimuli/rescaled_final/1472_fw.mp4	0.0	139.52149987220764	
15	113.2084059715271	fix_post	2		12	13.0	2.5	/experiments/knapen_AOT/AOT_stimuli/rescaled_final/1472_fw.mp4	0.0	140.83818888664246	0.09997105598449707
16	113.3083770275116	fix_pre	0		120	14.0	2.5	/experiments/knapen_AOT/AOT_stimuli/rescaled_final/0093_fw.mp4	0.0	140.93815994262695	1.0001320838928223
16	113.49196696281433	pulse	0	t		14.0	2.5	/experiments/knapen_AOT/AOT_stimuli/rescaled_final/0093_fw.mp4	0.0	141.1217498779297	
16	114.30850911140442	movie	1		245	14.0	2.5	/experiments/knapen_AOT/AOT_stimuli/rescaled_final/0093_fw.mp4	0.0	141.93829202651978	2.5003650188446045
16	115.09225392341614	pulse	1	t		14.0	2.5	/experiments/knapen_AOT/AOT_stimuli/rescaled_final/0093_fw.mp4	0.0	142.7220368385315	
16	116.69244503974915	pulse	1	t		14.0	2.5	/experiments/knapen_AOT/AOT_stimuli/rescaled_final/0093_fw.mp4	0.0	144.3222279548645	
16	116.80887413024902	fix_post	2		12	14.0	2.5	/experiments/knapen_AOT/AOT_stimuli/rescaled_final/0093_fw.mp4	0.0	144.43865704536438	0.10002994537353516
17	116.90890407562256	fix_pre	0		120	15.0	2.5	/experiments/knapen_AOT/AOT_stimuli/rescaled_final/0192_rv.mp4	0.0	144.53868699073792	1.0002000331878662
17	117.90910410881042	movie	1		245	15.0	2.5	/experiments/knapen_AOT/AOT_stimuli/rescaled_final/0192_rv.mp4	0.0	145.53888702392578	2.491990804672241
17	118.2934980392456	pulse	1	t		15.0	2.5	/experiments/knapen_AOT/AOT_stimuli/rescaled_final/0192_rv.mp4	0.0	145.92328095436096	
17	119.8927960395813	pulse	1	t		15.0	2.5	/experiments/knapen_AOT/AOT_stimuli/rescaled_final/0192_rv.mp4	0.0	147.52257895469666	
17	120.40109491348267	fix_post	2		12	15.0	2.5	/experiments/knapen_AOT/AOT_stimuli/rescaled_final/0192_rv.mp4	0.0	148.03087782859802	0.10001111030578613
18	120.50110602378845	fix_pre	0		120	16.0	2.5	/experiments/knapen_AOT/AOT_stimuli/rescaled_final/0405_fw.mp4	0.0	148.1308889389038	1.0001521110534668
18	121.49318194389343	pulse	0	t		16.0	2.5	/experiments/knapen_AOT/AOT_stimuli/rescaled_final/0405_fw.mp4	0.0	149.1229648590088	
18	121.50125813484192	movie	1		245	16.0	2.5	/experiments/knapen_AOT/AOT_stimuli/rescaled_final/0405_fw.mp4	0.0	149.13104104995728	2.5086889266967773
18	123.09470701217651	pulse	1	t		16.0	2.5	/experiments/knapen_AOT/AOT_stimuli/rescaled_final/0405_fw.mp4	0.0	150.72448992729187	
18	124.0099470615387	fix_post	2		12	16.0	2.5	/experiments/knapen_AOT/AOT_stimuli/rescaled_final/0405_fw.mp4	0.0	151.63972997665405	0.10011792182922363
19	124.11006498336792	fix_pre	0		120	17.0	2.5	/experiments/knapen_AOT/AOT_stimuli/rescaled_final/1939_rv.mp4	0.0	151.73984789848328	1.0000519752502441
19	124.69358396530151	pulse	0	t		17.0	2.5	/experiments/knapen_AOT/AOT_stimuli/rescaled_final/1939_rv.mp4	0.0	152.32336688041687	
19	125.11011695861816	movie	1		244	17.0	2.5	/experiments/knapen_AOT/AOT_stimuli/rescaled_final/1939_rv.mp4	0.0	152.73989987373352	2.5004050731658936
19	126.2938780784607	pulse	1	t		17.0	2.5	/experiments/knapen_AOT/AOT_stimuli/rescaled_final/1939_rv.mp4	0.0	153.92366099357605	
19	127.61052203178406	fix_post	2		12	17.0	2.5	/experiments/knapen_AOT/AOT_stimuli/rescaled_final/1939_rv.mp4	0.0	155.2403049468994	0.10000395774841309
20	127.71052598953247	fix_pre	0		120	18.0	2.5	/experiments/knapen_AOT/AOT_stimuli/rescaled_final/0571_fw.mp4	0.0	155.34030890464783	1.0001380443572998
20	127.8940269947052	pulse	0	t		18.0	2.5	/experiments/knapen_AOT/AOT_stimuli/rescaled_final/0571_fw.mp4	0.0	155.52380990982056	
20	128.71066403388977	movie	1		243	18.0	2.5	/experiments/knapen_AOT/AOT_stimuli/rescaled_final/0571_fw.mp4	0.0	156.34044694900513	2.5003700256347656
20	129.49427700042725	pulse	1	t		18.0	2.5	/experiments/knapen_AOT/AOT_stimuli/rescaled_final/0571_fw.mp4	0.0	157.1240599155426	
20	131.09471106529236	pulse	1	t		18.0	2.5	/experiments/knapen_AOT/AOT_stimuli/rescaled_final/0571_fw.mp4	0.0	158.72449398040771	
20	131.21103405952454	fix_post	2		12	18.0	2.5	/experiments/knapen_AOT/AOT_stimuli/rescaled_final/0571_fw.mp4	0.0	158.8408169746399	0.10002398490905762
21	131.3110580444336	fix_pre	0		120	19.0	2.5	blank	1.0	158.94084095954895	1.0001389980316162
21	132.3111970424652	movie	1		299	19.0	2.5	blank	1.0	159.94097995758057	2.492064952850342
21	132.69484400749207	pulse	1	t		19.0	2.5	blank	1.0	160.32462692260742	
21	134.29501605033875	pulse	1	t		19.0	2.5	blank	1.0	161.9247989654541	
21	134.80326199531555	fix_post	2		12	19.0	2.5	blank	1.0	162.4330449104309	0.100006103515625
22	134.90326809883118	fix_pre	0		120	20.0	2.5	/experiments/knapen_AOT/AOT_stimuli/rescaled_final/1601_rv.mp4	0.0	162.53305101394653	1.0001788139343262
22	135.8952820301056	pulse	0	t		20.0	2.5	/experiments/knapen_AOT/AOT_stimuli/rescaled_final/1601_rv.mp4	0.0	163.52506494522095	
22	135.9034469127655	movie	1		244	20.0	2.5	/experiments/knapen_AOT/AOT_stimuli/rescaled_final/1601_rv.mp4	0.0	163.53322982788086	2.508660078048706
22	137.49653506278992	pulse	1	t		20.0	2.5	/experiments/knapen_AOT/AOT_stimuli/rescaled_final/1601_rv.mp4	0.0	165.12631797790527	
22	138.4121069908142	fix_post	2		12	20.0	2.5	/experiments/knapen_AOT/AOT_stimuli/rescaled_final/1601_rv.mp4	0.0	166.04188990592957	0.10005593299865723
23	138.51216292381287	fix_pre	0		120	21.0	2.5	/experiments/knapen_AOT/AOT_stimuli/rescaled_final/1202_fw.mp4	0.0	166.14194583892822	1.0001120567321777
23	139.09579992294312	pulse	0	t		21.0	2.5	/experiments/knapen_AOT/AOT_stimuli/rescaled_final/1202_fw.mp4	0.0	166.72558283805847	
23	139.51227498054504	movie	1		244	21.0	2.5	/experiments/knapen_AOT/AOT_stimuli/rescaled_final/1202_fw.mp4	0.0	167.1420578956604	2.5004210472106934
23	140.6960690021515	pulse	1	t		21.0	2.5	/experiments/knapen_AOT/AOT_stimuli/rescaled_final/1202_fw.mp4	0.0	168.32585191726685	
23	142.01269602775574	fix_post	2		12	21.0	2.5	/experiments/knapen_AOT/AOT_stimuli/rescaled_final/1202_fw.mp4	0.0	169.6424789428711	0.09999990463256836
24	142.1126959323883	fix_pre	0		120	22.0	2.5	/experiments/knapen_AOT/AOT_stimuli/rescaled_final/2097_fw.mp4	0.0	169.74247884750366	1.0001020431518555
24	142.28866910934448	pulse	0	t		22.0	2.5	/experiments/knapen_AOT/AOT_stimuli/rescaled_final/2097_fw.mp4	0.0	169.91845202445984	
24	143.11279797554016	movie	1		243	22.0	2.5	/experiments/knapen_AOT/AOT_stimuli/rescaled_final/2097_fw.mp4	0.0	170.74258089065552	2.5004091262817383
24	143.88896107673645	pulse	1	t		22.0	2.5	/experiments/knapen_AOT/AOT_stimuli/rescaled_final/2097_fw.mp4	0.0	171.5187439918518	
24	145.4965479373932	pulse	1	t		22.0	2.5	/experiments/knapen_AOT/AOT_stimuli/rescaled_final/2097_fw.mp4	0.0	173.12633085250854	
24	145.6132071018219	fix_post	2		12	22.0	2.5	/experiments/knapen_AOT/AOT_stimuli/rescaled_final/2097_fw.mp4	0.0	173.24299001693726	0.10000395774841309
25	145.7132110595703	fix_pre	0		119	23.0	2.5	/experiments/knapen_AOT/AOT_stimuli/rescaled_final/1092_fw.mp4	0.0	173.34299397468567	0.9918038845062256
25	146.70501494407654	movie	1		244	23.0	2.5	/experiments/knapen_AOT/AOT_stimuli/rescaled_final/1092_fw.mp4	0.0	174.3347978591919	2.5004591941833496
25	147.09305906295776	pulse	1	t		23.0	2.5	/experiments/knapen_AOT/AOT_stimuli/rescaled_final/1092_fw.mp4	0.0	174.72284197807312	
25	148.68873691558838	pulse	1	t		23.0	2.5	/experiments/knapen_AOT/AOT_stimuli/rescaled_final/1092_fw.mp4	0.0	176.31851983070374	
25	149.2054741382599	fix_post	2		12	23.0	2.5	/experiments/knapen_AOT/AOT_stimuli/rescaled_final/1092_fw.mp4	0.0	176.83525705337524	0.09992790222167969
26	149.30540204048157	fix_pre	0		119	24.0	2.5	/experiments/knapen_AOT/AOT_stimuli/rescaled_final/0756_rv.mp4	0.0	176.93518495559692	0.991811990737915
26	150.28903198242188	pulse	0	t		24.0	2.5	/experiments/knapen_AOT/AOT_stimuli/rescaled_final/0756_rv.mp4	0.0	177.91881489753723	
26	150.29721403121948	movie	1		247	24.0	2.5	/experiments/knapen_AOT/AOT_stimuli/rescaled_final/0756_rv.mp4	0.0	177.92699694633484	2.508733034133911
26	151.89386510849	pulse	1	t		24.0	2.5	/experiments/knapen_AOT/AOT_stimuli/rescaled_final/0756_rv.mp4	0.0	179.52364802360535	
26	152.8059470653534	fix_post	2		12	24.0	2.5	/experiments/knapen_AOT/AOT_stimuli/rescaled_final/0756_rv.mp4	0.0	180.43572998046875	0.09999489784240723
27	152.9059419631958	fix_pre	0		120	25.0	2.5	/experiments/knapen_AOT/AOT_stimuli/rescaled_final/2124_fw.mp4	0.0	180.53572487831116	1.0001680850982666
27	153.48953104019165	pulse	0	t		25.0	2.5	/experiments/knapen_AOT/AOT_stimuli/rescaled_final/2124_fw.mp4	0.0	181.119313955307	
27	153.90611004829407	movie	1		244	25.0	2.5	/experiments/knapen_AOT/AOT_stimuli/rescaled_final/2124_fw.mp4	0.0	181.53589296340942	2.5003669261932373
27	155.08989596366882	pulse	1	t		25.0	2.5	/experiments/knapen_AOT/AOT_stimuli/rescaled_final/2124_fw.mp4	0.0	182.71967887878418	
27	156.4064769744873	fix_post	2		12	25.0	2.5	/experiments/knapen_AOT/AOT_stimuli/rescaled_final/2124_fw.mp4	0.0	184.03625988960266	0.10001206398010254
28	156.5064890384674	fix_pre	0		120	26.0	2.5	blank	1.0	184.13627195358276	1.00016188621521
28	156.68999314308167	pulse	0	t		26.0	2.5	blank	1.0	184.31977605819702	
28	157.50665092468262	movie	1		300	26.0	2.5	blank	1.0	185.13643383979797	2.5003771781921387
28	158.29021096229553	pulse	1	t		26.0	2.5	blank	1.0	185.9199938774109	
28	159.89049100875854	pulse	1	t		26.0	2.5	blank	1.0	187.5202739238739	
28	160.00702810287476	fix_post	2		12	26.0	2.5	blank	1.0	187.6368110179901	0.10004091262817383
29	160.10706901550293	fix_pre	0		119	27.0	2.5	/experiments/knapen_AOT/AOT_stimuli/rescaled_final/0598_fw.mp4	0.0	187.7368519306183	0.991818904876709
29	161.09888792037964	movie	1		247	27.0	2.5	/experiments/knapen_AOT/AOT_stimuli/rescaled_final/0598_fw.mp4	0.0	188.728670835495	2.5003201961517334
29	161.49079608917236	pulse	1	t		27.0	2.5	/experiments/knapen_AOT/AOT_stimuli/rescaled_final/0598_fw.mp4	0.0	189.12057900428772	
29	163.09108805656433	pulse	1	t		27.0	2.5	/experiments/knapen_AOT/AOT_stimuli/rescaled_final/0598_fw.mp4	0.0	190.7208709716797	
29	163.59920811653137	fix_post	2		12	27.0	2.5	/experiments/knapen_AOT/AOT_stimuli/rescaled_final/0598_fw.mp4	0.0	191.22899103164673	0.10001397132873535
30	163.6992220878601	fix_pre	0		120	28.0	2.5	/experiments/knapen_AOT/AOT_stimuli/rescaled_final/0426_rv.mp4	0.0	191.32900500297546	1.0002570152282715
30	164.69121193885803	pulse	0	t		28.0	2.5	/experiments/knapen_AOT/AOT_stimuli/rescaled_final/0426_rv.mp4	0.0	192.3209948539734	
30	164.69947910308838	movie	1		246	28.0	2.5	/experiments/knapen_AOT/AOT_stimuli/rescaled_final/0426_rv.mp4	0.0	192.32926201820374	2.508631944656372
30	166.2921919822693	pulse	1	t		28.0	2.5	/experiments/knapen_AOT/AOT_stimuli/rescaled_final/0426_rv.mp4	0.0	193.92197489738464	
30	167.20811104774475	fix_post	2		12	28.0	2.5	/experiments/knapen_AOT/AOT_stimuli/rescaled_final/0426_rv.mp4	0.0	194.8378939628601	0.0999910831451416
31	167.3081021308899	fix_pre	0		120	29.0	2.5	/experiments/knapen_AOT/AOT_stimuli/rescaled_final/2105_fw.mp4	0.0	194.93788504600525	1.0001459121704102
31	167.89177298545837	pulse	0	t		29.0	2.5	/experiments/knapen_AOT/AOT_stimuli/rescaled_final/2105_fw.mp4	0.0	195.52155590057373	
31	168.3082480430603	movie	1		243	29.0	2.5	/experiments/knapen_AOT/AOT_stimuli/rescaled_final/2105_fw.mp4	0.0	195.93803095817566	2.5003740787506104
31	169.4921169281006	pulse	1	t		29.0	2.5	/experiments/knapen_AOT/AOT_stimuli/rescaled_final/2105_fw.mp4	0.0	197.12189984321594	
31	170.8086221218109	fix_post	2		10	29.0	2.5	/experiments/knapen_AOT/AOT_stimuli/rescaled_final/2105_fw.mp4	0.0	198.43840503692627	0.1000359058380127
32	170.90865802764893	fix_pre	0		120	30.0	2.5	/experiments/knapen_AOT/AOT_stimuli/rescaled_final/1756_rv.mp4	0.0	198.53844094276428	1.000119924545288
32	171.09225797653198	pulse	0	t		30.0	2.5	/experiments/knapen_AOT/AOT_stimuli/rescaled_final/1756_rv.mp4	0.0	198.72204089164734	
32	171.9087779521942	movie	1		243	30.0	2.5	/experiments/knapen_AOT/AOT_stimuli/rescaled_final/1756_rv.mp4	0.0	199.53856086730957	2.500375986099243
32	172.6923189163208	pulse	1	t		30.0	2.5	/experiments/knapen_AOT/AOT_stimuli/rescaled_final/1756_rv.mp4	0.0	200.32210183143616	
32	174.2923309803009	pulse	1	t		30.0	2.5	/experiments/knapen_AOT/AOT_stimuli/rescaled_final/1756_rv.mp4	0.0	201.92211389541626	
32	174.40915393829346	fix_post	2		12	30.0	2.5	/experiments/knapen_AOT/AOT_stimuli/rescaled_final/1756_rv.mp4	0.0	202.0389368534088	0.1000220775604248
33	174.50917601585388	fix_pre	0		119	31.0	2.5	/experiments/knapen_AOT/AOT_stimuli/rescaled_final/2166_rv.mp4	0.0	202.13895893096924	0.991779088973999
33	175.50095510482788	movie	1		245	31.0	2.5	/experiments/knapen_AOT/AOT_stimuli/rescaled_final/2166_rv.mp4	0.0	203.13073801994324	2.5003809928894043
33	175.8930540084839	pulse	1	t		31.0	2.5	/experiments/knapen_AOT/AOT_stimuli/rescaled_final/2166_rv.mp4	0.0	203.52283692359924	
33	177.49321103096008	pulse	1	t		31.0	2.5	/experiments/knapen_AOT/AOT_stimuli/rescaled_final/2166_rv.mp4	0.0	205.12299394607544	
33	178.00133609771729	fix_post	2		12	31.0	2.5	/experiments/knapen_AOT/AOT_stimuli/rescaled_final/2166_rv.mp4	0.0	205.63111901283264	0.10002803802490234
34	178.1013641357422	fix_pre	0		120	32.0	2.5	/experiments/knapen_AOT/AOT_stimuli/rescaled_final/0658_rv.mp4	0.0	205.73114705085754	1.0002319812774658
34	179.09331512451172	pulse	0	t		32.0	2.5	/experiments/knapen_AOT/AOT_stimuli/rescaled_final/0658_rv.mp4	0.0	206.72309803962708	
34	179.10159611701965	movie	1		245	32.0	2.5	/experiments/knapen_AOT/AOT_stimuli/rescaled_final/0658_rv.mp4	0.0	206.731379032135	2.508631944656372
34	180.69477701187134	pulse	1	t		32.0	2.5	/experiments/knapen_AOT/AOT_stimuli/rescaled_final/0658_rv.mp4	0.0	208.3245599269867	
34	181.61022806167603	fix_post	2		12	32.0	2.5	/experiments/knapen_AOT/AOT_stimuli/rescaled_final/0658_rv.mp4	0.0	209.24001097679138	0.10000300407409668
35	181.71023106575012	fix_pre	0		120	33.0	2.5	/experiments/knapen_AOT/AOT_stimuli/rescaled_final/1773_fw.mp4	0.0	209.34001398086548	1.000148057937622
35	182.29386806488037	pulse	0	t		33.0	2.5	/experiments/knapen_AOT/AOT_stimuli/rescaled_final/1773_fw.mp4	0.0	209.92365097999573	
35	182.71037912368774	movie	1		244	33.0	2.5	/experiments/knapen_AOT/AOT_stimuli/rescaled_final/1773_fw.mp4	0.0	210.3401620388031	2.5003719329833984
35	183.894140958786	pulse	1	t		33.0	2.5	/experiments/knapen_AOT/AOT_stimuli/rescaled_final/1773_fw.mp4	0.0	211.52392387390137	
35	185.21075105667114	fix_post	2		12	33.0	2.5	/experiments/knapen_AOT/AOT_stimuli/rescaled_final/1773_fw.mp4	0.0	212.8405339717865	0.10002899169921875
36	185.31078004837036	fix_pre	0		120	34.0	2.5	/experiments/knapen_AOT/AOT_stimuli/rescaled_final/0740_rv.mp4	0.0	212.94056296348572	1.000140905380249
36	185.49438095092773	pulse	0	t		34.0	2.5	/experiments/knapen_AOT/AOT_stimuli/rescaled_final/0740_rv.mp4	0.0	213.1241638660431	
36	186.3109209537506	movie	1		246	34.0	2.5	/experiments/knapen_AOT/AOT_stimuli/rescaled_final/0740_rv.mp4	0.0	213.94070386886597	2.5003559589385986
36	187.09452104568481	pulse	1	t		34.0	2.5	/experiments/knapen_AOT/AOT_stimuli/rescaled_final/0740_rv.mp4	0.0	214.72430396080017	
36	188.69487810134888	pulse	1	t		34.0	2.5	/experiments/knapen_AOT/AOT_stimuli/rescaled_final/0740_rv.mp4	0.0	216.32466101646423	
36	188.8112769126892	fix_post	2		12	34.0	2.5	/experiments/knapen_AOT/AOT_stimuli/rescaled_final/0740_rv.mp4	0.0	216.44105982780457	0.1000511646270752
37	188.91132807731628	fix_pre	0		120	35.0	2.5	blank	1.0	216.54111099243164	1.0001239776611328
37	189.91145205497742	movie	1		299	35.0	2.5	blank	1.0	217.54123497009277	2.492119073867798
37	190.29512095451355	pulse	1	t		35.0	2.5	blank	1.0	217.9249038696289	
37	191.89528012275696	pulse	1	t		35.0	2.5	blank	1.0	219.52506303787231	
37	192.40357112884521	fix_post	2		12	35.0	2.5	blank	1.0	220.03335404396057	0.09993290901184082
38	192.50350403785706	fix_pre	0		120	36.0	2.5	/experiments/knapen_AOT/AOT_stimuli/rescaled_final/1643_fw.mp4	0.0	220.1332869529724	1.0002639293670654
38	193.48809790611267	pulse	0	t		36.0	2.5	/experiments/knapen_AOT/AOT_stimuli/rescaled_final/1643_fw.mp4	0.0	221.11788082122803	
38	193.50376796722412	movie	1		244	36.0	2.5	/experiments/knapen_AOT/AOT_stimuli/rescaled_final/1643_fw.mp4	0.0	221.13355088233948	2.50858998298645
38	195.09617590904236	pulse	1	t		36.0	2.5	/experiments/knapen_AOT/AOT_stimuli/rescaled_final/1643_fw.mp4	0.0	222.72595882415771	
38	196.01235795021057	fix_post	2		12	36.0	2.5	/experiments/knapen_AOT/AOT_stimuli/rescaled_final/1643_fw.mp4	0.0	223.64214086532593	0.1000370979309082
39	196.11239504814148	fix_pre	0		120	37.0	2.5	/experiments/knapen_AOT/AOT_stimuli/rescaled_final/0582_rv.mp4	0.0	223.74217796325684	1.000175952911377
39	196.6885540485382	pulse	0	t		37.0	2.5	/experiments/knapen_AOT/AOT_stimuli/rescaled_final/0582_rv.mp4	0.0	224.31833696365356	
39	197.11257100105286	movie	1		245	37.0	2.5	/experiments/knapen_AOT/AOT_stimuli/rescaled_final/0582_rv.mp4	0.0	224.7423539161682	2.5003340244293213
39	198.29191207885742	pulse	1	t		37.0	2.5	/experiments/knapen_AOT/AOT_stimuli/rescaled_final/0582_rv.mp4	0.0	225.92169499397278	
39	199.61290502548218	fix_post	2		12	37.0	2.5	/experiments/knapen_AOT/AOT_stimuli/rescaled_final/0582_rv.mp4	0.0	227.24268794059753	0.10000300407409668
40	199.71290802955627	fix_pre	0		120	38.0	2.5	/experiments/knapen_AOT/AOT_stimuli/rescaled_final/1835_rv.mp4	0.0	227.34269094467163	1.0001869201660156
40	199.88819313049316	pulse	0	t		38.0	2.5	/experiments/knapen_AOT/AOT_stimuli/rescaled_final/1835_rv.mp4	0.0	227.51797604560852	
40	200.7130949497223	movie	1		243	38.0	2.5	/experiments/knapen_AOT/AOT_stimuli/rescaled_final/1835_rv.mp4	0.0	228.34287786483765	2.5003490447998047
40	201.48833203315735	pulse	1	t		38.0	2.5	/experiments/knapen_AOT/AOT_stimuli/rescaled_final/1835_rv.mp4	0.0	229.1181149482727	
40	203.08860111236572	pulse	1	t		38.0	2.5	/experiments/knapen_AOT/AOT_stimuli/rescaled_final/1835_rv.mp4	0.0	230.71838402748108	
40	203.2134439945221	fix_post	2		12	38.0	2.5	/experiments/knapen_AOT/AOT_stimuli/rescaled_final/1835_rv.mp4	0.0	230.84322690963745	0.10002398490905762
41	203.31346797943115	fix_pre	0		119	39.0	2.5	/experiments/knapen_AOT/AOT_stimuli/rescaled_final/1453_rv.mp4	0.0	230.9432508945465	0.9918029308319092
41	204.30527091026306	movie	1		244	39.0	2.5	/experiments/knapen_AOT/AOT_stimuli/rescaled_final/1453_rv.mp4	0.0	231.93505382537842	2.5003671646118164
41	204.68945693969727	pulse	1	t		39.0	2.5	/experiments/knapen_AOT/AOT_stimuli/rescaled_final/1453_rv.mp4	0.0	232.31923985481262	
41	206.28910398483276	pulse	1	t		39.0	2.5	/experiments/knapen_AOT/AOT_stimuli/rescaled_final/1453_rv.mp4	0.0	233.91888689994812	
41	206.80563807487488	fix_post	2		12	39.0	2.5	/experiments/knapen_AOT/AOT_stimuli/rescaled_final/1453_rv.mp4	0.0	234.43542098999023	0.10003304481506348
42	206.90567111968994	fix_pre	0		119	40.0	2.5	/experiments/knapen_AOT/AOT_stimuli/rescaled_final/0219_rv.mp4	0.0	234.5354540348053	0.9918978214263916
42	207.88929390907288	pulse	0	t		40.0	2.5	/experiments/knapen_AOT/AOT_stimuli/rescaled_final/0219_rv.mp4	0.0	235.51907682418823	
42	207.89756894111633	movie	1		245	40.0	2.5	/experiments/knapen_AOT/AOT_stimuli/rescaled_final/0219_rv.mp4	0.0	235.5273518562317	2.5086050033569336
42	209.4907579421997	pulse	1	t		40.0	2.5	/experiments/knapen_AOT/AOT_stimuli/rescaled_final/0219_rv.mp4	0.0	237.12054085731506	
42	210.40617394447327	fix_post	2		12	40.0	2.5	/experiments/knapen_AOT/AOT_stimuli/rescaled_final/0219_rv.mp4	0.0	238.03595685958862	0.10003805160522461
43	210.5062119960785	fix_pre	0		120	41.0	2.5	blank	1.0	238.13599491119385	1.0001490116119385
43	211.08975505828857	pulse	0	t		41.0	2.5	blank	1.0	238.71953797340393	
43	211.50636100769043	movie	1		300	41.0	2.5	blank	1.0	239.1361439228058	2.5003509521484375
43	212.69015312194824	pulse	1	t		41.0	2.5	blank	1.0	240.3199360370636	
43	214.00671195983887	fix_post	2		12	41.0	2.5	blank	1.0	241.63649487495422	0.10004115104675293
44	214.10675311088562	fix_pre	0		120	42.0	2.5	/experiments/knapen_AOT/AOT_stimuli/rescaled_final/1768_rv.mp4	0.0	241.73653602600098	1.000126838684082
44	214.29026913642883	pulse	0	t		42.0	2.5	/experiments/knapen_AOT/AOT_stimuli/rescaled_final/1768_rv.mp4	0.0	241.9200520515442	
44	215.1068799495697	movie	1		244	42.0	2.5	/experiments/knapen_AOT/AOT_stimuli/rescaled_final/1768_rv.mp4	0.0	242.73666286468506	2.500364065170288
44	215.89045095443726	pulse	1	t		42.0	2.5	/experiments/knapen_AOT/AOT_stimuli/rescaled_final/1768_rv.mp4	0.0	243.5202338695526	
44	217.49424290657043	pulse	1	t		42.0	2.5	/experiments/knapen_AOT/AOT_stimuli/rescaled_final/1768_rv.mp4	0.0	245.1240258216858	
44	217.60724401474	fix_post	2		12	42.0	2.5	/experiments/knapen_AOT/AOT_stimuli/rescaled_final/1768_rv.mp4	0.0	245.23702692985535	0.10003304481506348
45	217.70727705955505	fix_pre	0		120	43.0	2.5	/experiments/knapen_AOT/AOT_stimuli/rescaled_final/1967_fw.mp4	0.0	245.3370599746704	1.0001518726348877
45	218.70742893218994	movie	1		244	43.0	2.5	/experiments/knapen_AOT/AOT_stimuli/rescaled_final/1967_fw.mp4	0.0	246.3372118473053	2.492030143737793
45	219.0956780910492	pulse	1	t		43.0	2.5	/experiments/knapen_AOT/AOT_stimuli/rescaled_final/1967_fw.mp4	0.0	246.72546100616455	
45	220.69125413894653	pulse	1	t		43.0	2.5	/experiments/knapen_AOT/AOT_stimuli/rescaled_final/1967_fw.mp4	0.0	248.3210370540619	
45	221.19945907592773	fix_post	2		12	43.0	2.5	/experiments/knapen_AOT/AOT_stimuli/rescaled_final/1967_fw.mp4	0.0	248.8292419910431	0.10010004043579102
46	221.29955911636353	fix_pre	0		120	44.0	2.5	/experiments/knapen_AOT/AOT_stimuli/rescaled_final/1168_fw.mp4	0.0	248.92934203147888	1.0001180171966553
46	222.29139804840088	pulse	0	t		44.0	2.5	/experiments/knapen_AOT/AOT_stimuli/rescaled_final/1168_fw.mp4	0.0	249.92118096351624	
46	222.29967713356018	movie	1		245	44.0	2.5	/experiments/knapen_AOT/AOT_stimuli/rescaled_final/1168_fw.mp4	0.0	249.92946004867554	2.5086348056793213
46	223.89224195480347	pulse	1	t		44.0	2.5	/experiments/knapen_AOT/AOT_stimuli/rescaled_final/1168_fw.mp4	0.0	251.52202486991882	
46	224.8083119392395	fix_post	2		12	44.0	2.5	/experiments/knapen_AOT/AOT_stimuli/rescaled_final/1168_fw.mp4	0.0	252.43809485435486	0.10001301765441895
47	224.90832495689392	fix_pre	0		120	45.0	2.5	/experiments/knapen_AOT/AOT_stimuli/rescaled_final/0267_fw.mp4	0.0	252.53810787200928	1.0002210140228271
47	225.491956949234	pulse	0	t		45.0	2.5	/experiments/knapen_AOT/AOT_stimuli/rescaled_final/0267_fw.mp4	0.0	253.12173986434937	
47	225.90854597091675	movie	1		246	45.0	2.5	/experiments/knapen_AOT/AOT_stimuli/rescaled_final/0267_fw.mp4	0.0	253.5383288860321	2.5003581047058105
47	227.09227514266968	pulse	1	t		45.0	2.5	/experiments/knapen_AOT/AOT_stimuli/rescaled_final/0267_fw.mp4	0.0	254.72205805778503	
47	228.40890407562256	fix_post	2		12	45.0	2.5	/experiments/knapen_AOT/AOT_stimuli/rescaled_final/0267_fw.mp4	0.0	256.0386869907379	0.10000896453857422
48	228.50891304016113	fix_pre	0		117	46.0	2.5	/experiments/knapen_AOT/AOT_stimuli/rescaled_final/0658_rv.mp4	0.0	256.1386959552765	1.000154972076416
48	228.69236302375793	pulse	0	t		46.0	2.5	/experiments/knapen_AOT/AOT_stimuli/rescaled_final/0658_rv.mp4	0.0	256.3221459388733	
48	229.50906801223755	movie	1		244	46.0	2.5	/experiments/knapen_AOT/AOT_stimuli/rescaled_final/0658_rv.mp4	0.0	257.1388509273529	2.500314950942993
48	230.29271697998047	pulse	1	t		46.0	2.5	/experiments/knapen_AOT/AOT_stimuli/rescaled_final/0658_rv.mp4	0.0	257.9224998950958	
48	231.89279413223267	pulse	1	t		46.0	2.5	/experiments/knapen_AOT/AOT_stimuli/rescaled_final/0658_rv.mp4	0.0	259.522577047348	
48	232.00938296318054	fix_post	2		12	46.0	2.5	/experiments/knapen_AOT/AOT_stimuli/rescaled_final/0658_rv.mp4	0.0	259.6391658782959	0.10006308555603027
49	232.10944604873657	fix_pre	0		119	47.0	2.5	blank	1.0	259.73922896385193	0.99180006980896
49	233.10124611854553	movie	1		300	47.0	2.5	blank	1.0	260.7310290336609	2.5004019737243652
49	233.493145942688	pulse	1	t		47.0	2.5	blank	1.0	261.12292885780334	
49	235.09330797195435	pulse	1	t		47.0	2.5	blank	1.0	262.7230908870697	
49	235.6016480922699	fix_post	2		12	47.0	2.5	blank	1.0	263.23143100738525	0.09998202323913574
50	235.70163011550903	fix_pre	0		120	48.0	2.5	/experiments/knapen_AOT/AOT_stimuli/rescaled_final/0088_fw.mp4	0.0	263.3314130306244	1.0001499652862549
50	236.6936960220337	pulse	0	t		48.0	2.5	/experiments/knapen_AOT/AOT_stimuli/rescaled_final/0088_fw.mp4	0.0	264.32347893714905	
50	236.7017800807953	movie	1		247	48.0	2.5	/experiments/knapen_AOT/AOT_stimuli/rescaled_final/0088_fw.mp4	0.0	264.33156299591064	2.508718967437744
50	238.2951009273529	pulse	1	t		48.0	2.5	/experiments/knapen_AOT/AOT_stimuli/rescaled_final/0088_fw.mp4	0.0	265.92488384246826	
50	239.21049904823303	fix_post	2		12	48.0	2.5	/experiments/knapen_AOT/AOT_stimuli/rescaled_final/0088_fw.mp4	0.0	266.8402819633484	0.10010886192321777
51	239.31060791015625	fix_pre	0		120	49.0	2.5	/experiments/knapen_AOT/AOT_stimuli/rescaled_final/1097_fw.mp4	0.0	266.9403908252716	1.0000650882720947
51	239.89410495758057	pulse	0	t		49.0	2.5	/experiments/knapen_AOT/AOT_stimuli/rescaled_final/1097_fw.mp4	0.0	267.5238878726959	
51	240.31067299842834	movie	1		245	49.0	2.5	/experiments/knapen_AOT/AOT_stimuli/rescaled_final/1097_fw.mp4	0.0	267.9404559135437	2.5003459453582764
51	241.49433398246765	pulse	1	t		49.0	2.5	/experiments/knapen_AOT/AOT_stimuli/rescaled_final/1097_fw.mp4	0.0	269.124116897583	
51	242.81101894378662	fix_post	2		12	49.0	2.5	/experiments/knapen_AOT/AOT_stimuli/rescaled_final/1097_fw.mp4	0.0	270.440801858902	0.09999299049377441
52	242.9110119342804	fix_pre	0		120	50.0	2.5	/experiments/knapen_AOT/AOT_stimuli/rescaled_final/0927_rv.mp4	0.0	270.54079484939575	1.000176191329956
52	243.09455704689026	pulse	0	t		50.0	2.5	/experiments/knapen_AOT/AOT_stimuli/rescaled_final/0927_rv.mp4	0.0	270.7243399620056	
52	243.91118812561035	movie	1		243	50.0	2.5	/experiments/knapen_AOT/AOT_stimuli/rescaled_final/0927_rv.mp4	0.0	271.5409710407257	2.500339984893799
52	244.6948001384735	pulse	1	t		50.0	2.5	/experiments/knapen_AOT/AOT_stimuli/rescaled_final/0927_rv.mp4	0.0	272.32458305358887	
52	246.29488801956177	pulse	1	t		50.0	2.5	/experiments/knapen_AOT/AOT_stimuli/rescaled_final/0927_rv.mp4	0.0	273.9246709346771	
52	246.41152811050415	fix_post	2		12	50.0	2.5	/experiments/knapen_AOT/AOT_stimuli/rescaled_final/0927_rv.mp4	0.0	274.0413110256195	0.10002589225769043
53	246.51155400276184	fix_pre	0		120	51.0	2.5	/experiments/knapen_AOT/AOT_stimuli/rescaled_final/0426_fw.mp4	0.0	274.1413369178772	1.0001590251922607
53	247.5117130279541	movie	1		244	51.0	2.5	/experiments/knapen_AOT/AOT_stimuli/rescaled_final/0426_fw.mp4	0.0	275.14149594306946	2.4920310974121094
53	247.89591002464294	pulse	1	t		51.0	2.5	/experiments/knapen_AOT/AOT_stimuli/rescaled_final/0426_fw.mp4	0.0	275.5256929397583	
53	249.49554800987244	pulse	1	t		51.0	2.5	/experiments/knapen_AOT/AOT_stimuli/rescaled_final/0426_fw.mp4	0.0	277.1253309249878	
53	250.0037441253662	fix_post	2		12	51.0	2.5	/experiments/knapen_AOT/AOT_stimuli/rescaled_final/0426_fw.mp4	0.0	277.63352704048157	0.10001397132873535
54	250.10375809669495	fix_pre	0		120	52.0	2.5	/experiments/knapen_AOT/AOT_stimuli/rescaled_final/1835_fw.mp4	0.0	277.7335410118103	1.0001819133758545
54	251.09587812423706	pulse	0	t		52.0	2.5	/experiments/knapen_AOT/AOT_stimuli/rescaled_final/1835_fw.mp4	0.0	278.7256610393524	
54	251.1039400100708	movie	1		244	52.0	2.5	/experiments/knapen_AOT/AOT_stimuli/rescaled_final/1835_fw.mp4	0.0	278.73372292518616	2.508676052093506
54	252.69722199440002	pulse	1	t		52.0	2.5	/experiments/knapen_AOT/AOT_stimuli/rescaled_final/1835_fw.mp4	0.0	280.3270049095154	
54	253.6126160621643	fix_post	2		12	52.0	2.5	/experiments/knapen_AOT/AOT_stimuli/rescaled_final/1835_fw.mp4	0.0	281.24239897727966	0.10003089904785156
55	253.71264696121216	fix_pre	0		120	53.0	2.5	/experiments/knapen_AOT/AOT_stimuli/rescaled_final/0443_fw.mp4	0.0	281.3424298763275	1.0001730918884277
55	254.28891396522522	pulse	0	t		53.0	2.5	/experiments/knapen_AOT/AOT_stimuli/rescaled_final/0443_fw.mp4	0.0	281.9186968803406	
55	254.7128200531006	movie	1		245	53.0	2.5	/experiments/knapen_AOT/AOT_stimuli/rescaled_final/0443_fw.mp4	0.0	282.34260296821594	2.5003578662872314
55	255.89258193969727	pulse	1	t		53.0	2.5	/experiments/knapen_AOT/AOT_stimuli/rescaled_final/0443_fw.mp4	0.0	283.5223648548126	
55	257.2131779193878	fix_post	2		12	53.0	2.5	/experiments/knapen_AOT/AOT_stimuli/rescaled_final/0443_fw.mp4	0.0	284.8429608345032	0.1000211238861084
56	257.3131990432739	fix_pre	0		120	54.0	2.5	/experiments/knapen_AOT/AOT_stimuli/rescaled_final/1542_rv.mp4	0.0	284.9429819583893	1.0001718997955322
56	257.48911213874817	pulse	0	t		54.0	2.5	/experiments/knapen_AOT/AOT_stimuli/rescaled_final/1542_rv.mp4	0.0	285.1188950538635	
56	258.31337094306946	movie	1		244	54.0	2.5	/experiments/knapen_AOT/AOT_stimuli/rescaled_final/1542_rv.mp4	0.0	285.9431538581848	2.5003161430358887
56	259.0895519256592	pulse	1	t		54.0	2.5	/experiments/knapen_AOT/AOT_stimuli/rescaled_final/1542_rv.mp4	0.0	286.71933484077454	
56	260.69742798805237	pulse	1	t		54.0	2.5	/experiments/knapen_AOT/AOT_stimuli/rescaled_final/1542_rv.mp4	0.0	288.3272109031677	
56	260.81368708610535	fix_post	2		12	54.0	2.5	/experiments/knapen_AOT/AOT_stimuli/rescaled_final/1542_rv.mp4	0.0	288.4434700012207	0.1000669002532959
57	260.91375398635864	fix_pre	0		120	55.0	2.5	blank	1.0	288.543536901474	1.0001461505889893
57	261.91390013694763	movie	1		299	55.0	2.5	blank	1.0	289.543683052063	2.492018938064575
57	262.2898790836334	pulse	1	t		55.0	2.5	blank	1.0	289.9196619987488	
57	263.88932609558105	pulse	1	t		55.0	2.5	blank	1.0	291.5191090106964	
57	264.4059190750122	fix_post	2		12	55.0	2.5	blank	1.0	292.03570199012756	0.10002899169921875
58	264.5059480667114	fix_pre	0		119	56.0	2.5	/experiments/knapen_AOT/AOT_stimuli/rescaled_final/1097_fw.mp4	0.0	292.1357309818268	0.9917919635772705
58	265.48957109451294	pulse	0	t		56.0	2.5	/experiments/knapen_AOT/AOT_stimuli/rescaled_final/1097_fw.mp4	0.0	293.1193540096283	
58	265.4977400302887	movie	1		246	56.0	2.5	/experiments/knapen_AOT/AOT_stimuli/rescaled_final/1097_fw.mp4	0.0	293.12752294540405	2.5087389945983887
58	267.09024596214294	pulse	1	t		56.0	2.5	/experiments/knapen_AOT/AOT_stimuli/rescaled_final/1097_fw.mp4	0.0	294.7200288772583	
58	268.0064790248871	fix_post	2		12	56.0	2.5	/experiments/knapen_AOT/AOT_stimuli/rescaled_final/1097_fw.mp4	0.0	295.63626194000244	0.0999898910522461
59	268.10646891593933	fix_pre	0		120	57.0	2.5	/experiments/knapen_AOT/AOT_stimuli/rescaled_final/1587_rv.mp4	0.0	295.7362518310547	1.0001411437988281
59	268.69011902809143	pulse	0	t		57.0	2.5	/experiments/knapen_AOT/AOT_stimuli/rescaled_final/1587_rv.mp4	0.0	296.3199019432068	
59	269.10661005973816	movie	1		245	57.0	2.5	/experiments/knapen_AOT/AOT_stimuli/rescaled_final/1587_rv.mp4	0.0	296.7363929748535	2.500361919403076
59	270.2903981208801	pulse	1	t		57.0	2.5	/experiments/knapen_AOT/AOT_stimuli/rescaled_final/1587_rv.mp4	0.0	297.9201810359955	
59	271.60697197914124	fix_post	2		12	57.0	2.5	/experiments/knapen_AOT/AOT_stimuli/rescaled_final/1587_rv.mp4	0.0	299.2367548942566	0.10002398490905762
60	271.7069959640503	fix_pre	0		120	58.0	2.5	/experiments/knapen_AOT/AOT_stimuli/rescaled_final/0367_fw.mp4	0.0	299.33677887916565	1.0001640319824219
60	271.89046597480774	pulse	0	t		58.0	2.5	/experiments/knapen_AOT/AOT_stimuli/rescaled_final/0367_fw.mp4	0.0	299.5202488899231	
60	272.7071599960327	movie	1		244	58.0	2.5	/experiments/knapen_AOT/AOT_stimuli/rescaled_final/0367_fw.mp4	0.0	300.33694291114807	2.5003581047058105
60	273.49073696136475	pulse	1	t		58.0	2.5	/experiments/knapen_AOT/AOT_stimuli/rescaled_final/0367_fw.mp4	0.0	301.1205198764801	
60	275.0885999202728	pulse	1	t		58.0	2.5	/experiments/knapen_AOT/AOT_stimuli/rescaled_final/0367_fw.mp4	0.0	302.7183828353882	
60	275.2075181007385	fix_post	2		12	58.0	2.5	/experiments/knapen_AOT/AOT_stimuli/rescaled_final/0367_fw.mp4	0.0	302.8373010158539	0.1000528335571289
61	275.30757093429565	fix_pre	0		120	59.0	2.5	/experiments/knapen_AOT/AOT_stimuli/rescaled_final/0249_fw.mp4	0.0	302.937353849411	1.0001389980316162
61	276.30770993232727	movie	1		243	59.0	2.5	/experiments/knapen_AOT/AOT_stimuli/rescaled_final/0249_fw.mp4	0.0	303.9374928474426	2.492004156112671
61	276.6925320625305	pulse	1	t		59.0	2.5	/experiments/knapen_AOT/AOT_stimuli/rescaled_final/0249_fw.mp4	0.0	304.3223149776459	
61	278.2915620803833	pulse	1	t		59.0	2.5	/experiments/knapen_AOT/AOT_stimuli/rescaled_final/0249_fw.mp4	0.0	305.92134499549866	
61	278.79971408843994	fix_post	2		12	59.0	2.5	/experiments/knapen_AOT/AOT_stimuli/rescaled_final/0249_fw.mp4	0.0	306.4294970035553	0.09999895095825195
62	278.8997130393982	fix_pre	0		120	60.0	2.5	/experiments/knapen_AOT/AOT_stimuli/rescaled_final/1967_rv.mp4	0.0	306.52949595451355	1.0001869201660156
62	279.8916709423065	pulse	0	t		60.0	2.5	/experiments/knapen_AOT/AOT_stimuli/rescaled_final/1967_rv.mp4	0.0	307.5214538574219	
62	279.8998999595642	movie	1		246	60.0	2.5	/experiments/knapen_AOT/AOT_stimuli/rescaled_final/1967_rv.mp4	0.0	307.52968287467957	2.5087080001831055
62	281.4924249649048	pulse	1	t		60.0	2.5	/experiments/knapen_AOT/AOT_stimuli/rescaled_final/1967_rv.mp4	0.0	309.12220788002014	
62	282.4086079597473	fix_post	2		12	60.0	2.5	/experiments/knapen_AOT/AOT_stimuli/rescaled_final/1967_rv.mp4	0.0	310.03839087486267	0.10006213188171387
63	282.508670091629	fix_pre	0		120	61.0	2.5	blank	1.0	310.1384530067444	1.0001099109649658
63	283.09230613708496	pulse	0	t		61.0	2.5	blank	1.0	310.7220890522003	
63	283.508780002594	movie	1		300	61.0	2.5	blank	1.0	311.13856291770935	2.500354051589966
63	284.6923940181732	pulse	1	t		61.0	2.5	blank	1.0	312.3221769332886	
63	286.00913405418396	fix_post	2		12	61.0	2.5	blank	1.0	313.6389169692993	0.10000491142272949
64	286.1091389656067	fix_pre	0		120	62.0	2.5	/experiments/knapen_AOT/AOT_stimuli/rescaled_final/0405_rv.mp4	0.0	313.73892188072205	1.0001721382141113
64	286.29268193244934	pulse	0	t		62.0	2.5	/experiments/knapen_AOT/AOT_stimuli/rescaled_final/0405_rv.mp4	0.0	313.9224648475647	
64	287.1093111038208	movie	1		244	62.0	2.5	/experiments/knapen_AOT/AOT_stimuli/rescaled_final/0405_rv.mp4	0.0	314.73909401893616	2.5003528594970703
64	287.8928599357605	pulse	1	t		62.0	2.5	/experiments/knapen_AOT/AOT_stimuli/rescaled_final/0405_rv.mp4	0.0	315.52264285087585	
64	289.49487590789795	pulse	1	t		62.0	2.5	/experiments/knapen_AOT/AOT_stimuli/rescaled_final/0405_rv.mp4	0.0	317.1246588230133	
64	289.60966396331787	fix_post	2		12	62.0	2.5	/experiments/knapen_AOT/AOT_stimuli/rescaled_final/0405_rv.mp4	0.0	317.2394468784332	0.10004997253417969
65	289.70971393585205	fix_pre	0		117	63.0	2.5	/experiments/knapen_AOT/AOT_stimuli/rescaled_final/2103_rv.mp4	0.0	317.3394968509674	0.991854190826416
65	290.70156812667847	movie	1		244	63.0	2.5	/experiments/knapen_AOT/AOT_stimuli/rescaled_final/2103_rv.mp4	0.0	318.3313510417938	2.5003199577331543
65	291.09347009658813	pulse	1	t		63.0	2.5	/experiments/knapen_AOT/AOT_stimuli/rescaled_final/2103_rv.mp4	0.0	318.7232530117035	
65	292.6936340332031	pulse	1	t		63.0	2.5	/experiments/knapen_AOT/AOT_stimuli/rescaled_final/2103_rv.mp4	0.0	320.3234169483185	
65	293.2018880844116	fix_post	2		12	63.0	2.5	/experiments/knapen_AOT/AOT_stimuli/rescaled_final/2103_rv.mp4	0.0	320.831670999527	0.10002994537353516
66	293.30191802978516	fix_pre	0		120	64.0	2.5	/experiments/knapen_AOT/AOT_stimuli/rescaled_final/1181_fw.mp4	0.0	320.9317009449005	1.0001280307769775
66	294.2939031124115	pulse	0	t		64.0	2.5	/experiments/knapen_AOT/AOT_stimuli/rescaled_final/1181_fw.mp4	0.0	321.92368602752686	
66	294.30204606056213	movie	1		245	64.0	2.5	/experiments/knapen_AOT/AOT_stimuli/rescaled_final/1181_fw.mp4	0.0	321.9318289756775	2.5086848735809326
66	295.8946521282196	pulse	1	t		64.0	2.5	/experiments/knapen_AOT/AOT_stimuli/rescaled_final/1181_fw.mp4	0.0	323.52443504333496	
66	296.81073093414307	fix_post	2		12	64.0	2.5	/experiments/knapen_AOT/AOT_stimuli/rescaled_final/1181_fw.mp4	0.0	324.4405138492584	0.10004997253417969
67	296.91078090667725	fix_pre	0		120	65.0	2.5	/experiments/knapen_AOT/AOT_stimuli/rescaled_final/0532_fw.mp4	0.0	324.5405638217926	1.0001890659332275
67	297.494323015213	pulse	0	t		65.0	2.5	/experiments/knapen_AOT/AOT_stimuli/rescaled_final/0532_fw.mp4	0.0	325.12410593032837	
67	297.9109699726105	movie	1		245	65.0	2.5	/experiments/knapen_AOT/AOT_stimuli/rescaled_final/0532_fw.mp4	0.0	325.54075288772583	2.5003371238708496
67	299.09476613998413	pulse	1	t		65.0	2.5	/experiments/knapen_AOT/AOT_stimuli/rescaled_final/0532_fw.mp4	0.0	326.7245490550995	
67	300.4113070964813	fix_post	2		12	65.0	2.5	/experiments/knapen_AOT/AOT_stimuli/rescaled_final/0532_fw.mp4	0.0	328.0410900115967	0.09997296333312988
68	300.51128005981445	fix_pre	0		120	66.0	2.5	/experiments/knapen_AOT/AOT_stimuli/rescaled_final/0388_fw.mp4	0.0	328.1410629749298	1.0001728534698486
68	300.69485306739807	pulse	0	t		66.0	2.5	/experiments/knapen_AOT/AOT_stimuli/rescaled_final/0388_fw.mp4	0.0	328.3246359825134	
68	301.5114529132843	movie	1		244	66.0	2.5	/experiments/knapen_AOT/AOT_stimuli/rescaled_final/0388_fw.mp4	0.0	329.14123582839966	2.5004420280456543
68	302.2951729297638	pulse	1	t		66.0	2.5	/experiments/knapen_AOT/AOT_stimuli/rescaled_final/0388_fw.mp4	0.0	329.92495584487915	
68	303.8929569721222	pulse	1	t		66.0	2.5	/experiments/knapen_AOT/AOT_stimuli/rescaled_final/0388_fw.mp4	0.0	331.52273988723755	
68	304.01189494132996	fix_post	2		12	66.0	2.5	/experiments/knapen_AOT/AOT_stimuli/rescaled_final/0388_fw.mp4	0.0	331.6416778564453	0.09991002082824707
69	304.1118049621582	fix_pre	0		120	67.0	2.5	/experiments/knapen_AOT/AOT_stimuli/rescaled_final/0704_fw.mp4	0.0	331.74158787727356	1.0001981258392334
69	305.11200308799744	movie	1		243	67.0	2.5	/experiments/knapen_AOT/AOT_stimuli/rescaled_final/0704_fw.mp4	0.0	332.7417860031128	2.492004871368408
69	305.49609994888306	pulse	1	t		67.0	2.5	/experiments/knapen_AOT/AOT_stimuli/rescaled_final/0704_fw.mp4	0.0	333.1258828639984	
69	307.08853101730347	pulse	1	t		67.0	2.5	/experiments/knapen_AOT/AOT_stimuli/rescaled_final/0704_fw.mp4	0.0	334.7183139324188	
69	307.60400795936584	fix_post	2		12	67.0	2.5	/experiments/knapen_AOT/AOT_stimuli/rescaled_final/0704_fw.mp4	0.0	335.2337908744812	0.10002899169921875
70	307.70403695106506	fix_pre	0		120	68.0	2.5	/experiments/knapen_AOT/AOT_stimuli/rescaled_final/1155_rv.mp4	0.0	335.3338198661804	1.0001389980316162
70	308.68860507011414	pulse	0	t		68.0	2.5	/experiments/knapen_AOT/AOT_stimuli/rescaled_final/1155_rv.mp4	0.0	336.3183879852295	
70	308.7041759490967	movie	1		246	68.0	2.5	/experiments/knapen_AOT/AOT_stimuli/rescaled_final/1155_rv.mp4	0.0	336.33395886421204	2.5087761878967285
70	310.30064702033997	pulse	1	t		68.0	2.5	/experiments/knapen_AOT/AOT_stimuli/rescaled_final/1155_rv.mp4	0.0	337.9304299354553	
70	311.2129521369934	fix_post	2		12	68.0	2.5	/experiments/knapen_AOT/AOT_stimuli/rescaled_final/1155_rv.mp4	0.0	338.84273505210876	0.09996294975280762
71	311.3129150867462	fix_pre	0		120	69.0	2.5	/experiments/knapen_AOT/AOT_stimuli/rescaled_final/0474_fw.mp4	0.0	338.9426980018616	1.0001308917999268
71	311.88908290863037	pulse	0	t		69.0	2.5	/experiments/knapen_AOT/AOT_stimuli/rescaled_final/0474_fw.mp4	0.0	339.5188658237457	
71	312.31304597854614	movie	1		245	69.0	2.5	/experiments/knapen_AOT/AOT_stimuli/rescaled_final/0474_fw.mp4	0.0	339.9428288936615	2.500368118286133
71	313.48966002464294	pulse	1	t		69.0	2.5	/experiments/knapen_AOT/AOT_stimuli/rescaled_final/0474_fw.mp4	0.0	341.1194429397583	
71	314.8134140968323	fix_post	2		12	69.0	2.5	/experiments/knapen_AOT/AOT_stimuli/rescaled_final/0474_fw.mp4	0.0	342.44319701194763	0.10009193420410156
72	314.9135060310364	fix_pre	0		120	70.0	2.5	blank	1.0	342.54328894615173	1.0001499652862549
72	315.0886061191559	pulse	0	t		70.0	2.5	blank	1.0	342.71838903427124	
72	315.91365599632263	movie	1		300	70.0	2.5	blank	1.0	343.543438911438	2.500378131866455
72	316.6887969970703	pulse	1	t		70.0	2.5	blank	1.0	344.31857991218567	
72	318.28911995887756	pulse	1	t		70.0	2.5	blank	1.0	345.9189028739929	
72	318.4140341281891	fix_post	2		12	70.0	2.5	blank	1.0	346.04381704330444	0.0999908447265625
73	318.51402497291565	fix_pre	0		119	71.0	2.5	/experiments/knapen_AOT/AOT_stimuli/rescaled_final/1419_rv.mp4	0.0	346.143807888031	0.991779088973999
73	319.50580406188965	movie	1		245	71.0	2.5	/experiments/knapen_AOT/AOT_stimuli/rescaled_final/1419_rv.mp4	0.0	347.135586977005	2.500356912612915
73	319.8941011428833	pulse	1	t		71.0	2.5	/experiments/knapen_AOT/AOT_stimuli/rescaled_final/1419_rv.mp4	0.0	347.52388405799866	
73	321.48963713645935	pulse	1	t		71.0	2.5	/experiments/knapen_AOT/AOT_stimuli/rescaled_final/1419_rv.mp4	0.0	349.1194200515747	
73	322.00616097450256	fix_post	2		12	71.0	2.5	/experiments/knapen_AOT/AOT_stimuli/rescaled_final/1419_rv.mp4	0.0	349.6359438896179	0.10000896453857422
74	322.10616993904114	fix_pre	0		119	72.0	2.5	/experiments/knapen_AOT/AOT_stimuli/rescaled_final/0740_fw.mp4	0.0	349.7359528541565	0.9918801784515381
74	323.08986711502075	pulse	0	t		72.0	2.5	/experiments/knapen_AOT/AOT_stimuli/rescaled_final/0740_fw.mp4	0.0	350.7196500301361	
74	323.0980501174927	movie	1		247	72.0	2.5	/experiments/knapen_AOT/AOT_stimuli/rescaled_final/0740_fw.mp4	0.0	350.72783303260803	2.5086870193481445
74	324.6906590461731	pulse	1	t		72.0	2.5	/experiments/knapen_AOT/AOT_stimuli/rescaled_final/0740_fw.mp4	0.0	352.32044196128845	
74	325.6067371368408	fix_post	2		12	72.0	2.5	/experiments/knapen_AOT/AOT_stimuli/rescaled_final/0740_fw.mp4	0.0	353.2365200519562	0.09998083114624023
75	325.70671796798706	fix_pre	0		120	73.0	2.5	/experiments/knapen_AOT/AOT_stimuli/rescaled_final/0927_rv.mp4	0.0	353.3365008831024	1.0001959800720215
75	326.2903320789337	pulse	0	t		73.0	2.5	/experiments/knapen_AOT/AOT_stimuli/rescaled_final/0927_rv.mp4	0.0	353.9201149940491	
75	326.7069139480591	movie	1		243	73.0	2.5	/experiments/knapen_AOT/AOT_stimuli/rescaled_final/0927_rv.mp4	0.0	354.33669686317444	2.5003061294555664
75	327.8906240463257	pulse	1	t		73.0	2.5	/experiments/knapen_AOT/AOT_stimuli/rescaled_final/0927_rv.mp4	0.0	355.52040696144104	
75	329.20722007751465	fix_post	2		12	73.0	2.5	/experiments/knapen_AOT/AOT_stimuli/rescaled_final/0927_rv.mp4	0.0	356.83700299263	0.10003089904785156
76	329.3072509765625	fix_pre	0		120	74.0	2.5	/experiments/knapen_AOT/AOT_stimuli/rescaled_final/0527_fw.mp4	0.0	356.93703389167786	1.0001821517944336
76	329.49090099334717	pulse	0	t		74.0	2.5	/experiments/knapen_AOT/AOT_stimuli/rescaled_final/0527_fw.mp4	0.0	357.1206839084625	
76	330.30743312835693	movie	1		244	74.0	2.5	/experiments/knapen_AOT/AOT_stimuli/rescaled_final/0527_fw.mp4	0.0	357.9372160434723	2.500342845916748
76	331.0911109447479	pulse	1	t		74.0	2.5	/experiments/knapen_AOT/AOT_stimuli/rescaled_final/0527_fw.mp4	0.0	358.7208938598633	
76	332.6913249492645	pulse	1	t		74.0	2.5	/experiments/knapen_AOT/AOT_stimuli/rescaled_final/0527_fw.mp4	0.0	360.3211078643799	
76	332.8077759742737	fix_post	2		12	74.0	2.5	/experiments/knapen_AOT/AOT_stimuli/rescaled_final/0527_fw.mp4	0.0	360.43755888938904	0.10003113746643066
77	332.9078071117401	fix_pre	0		120	75.0	2.5	/experiments/knapen_AOT/AOT_stimuli/rescaled_final/0993_rv.mp4	0.0	360.53759002685547	1.001159906387329
77	333.90896701812744	movie	1		238	75.0	2.5	/experiments/knapen_AOT/AOT_stimuli/rescaled_final/0993_rv.mp4	0.0	361.5387499332428	2.49104905128479
77	334.2919521331787	pulse	1	t		75.0	2.5	/experiments/knapen_AOT/AOT_stimuli/rescaled_final/0993_rv.mp4	0.0	361.92173504829407	
77	335.89186096191406	pulse	1	t		75.0	2.5	/experiments/knapen_AOT/AOT_stimuli/rescaled_final/0993_rv.mp4	0.0	363.5216438770294	
77	336.40001606941223	fix_post	2		12	75.0	2.5	/experiments/knapen_AOT/AOT_stimuli/rescaled_final/0993_rv.mp4	0.0	364.0297989845276	0.1000058650970459
78	336.5000219345093	fix_pre	0		120	76.0	2.5	/experiments/knapen_AOT/AOT_stimuli/rescaled_final/2018_fw.mp4	0.0	364.12980484962463	1.000157117843628
78	337.49208092689514	pulse	0	t		76.0	2.5	/experiments/knapen_AOT/AOT_stimuli/rescaled_final/2018_fw.mp4	0.0	365.1218638420105	
78	337.5001790523529	movie	1		245	76.0	2.5	/experiments/knapen_AOT/AOT_stimuli/rescaled_final/2018_fw.mp4	0.0	365.12996196746826	2.5086679458618164
78	339.093514919281	pulse	1	t		76.0	2.5	/experiments/knapen_AOT/AOT_stimuli/rescaled_final/2018_fw.mp4	0.0	366.72329783439636	
78	340.0088469982147	fix_post	2		12	76.0	2.5	/experiments/knapen_AOT/AOT_stimuli/rescaled_final/2018_fw.mp4	0.0	367.6386299133301	0.10007190704345703
79	340.1089189052582	fix_pre	0		120	77.0	2.5	blank	1.0	367.73870182037354	1.0001201629638672
79	340.69237208366394	pulse	0	t		77.0	2.5	blank	1.0	368.3221549987793	
79	341.10903906822205	movie	1		300	77.0	2.5	blank	1.0	368.7388219833374	2.500354051589966
79	342.2927939891815	pulse	1	t		77.0	2.5	blank	1.0	369.9225769042969	
79	343.609393119812	fix_post	2		12	77.0	2.5	blank	1.0	371.23917603492737	0.1000368595123291
80	343.70942997932434	fix_pre	0		120	78.0	2.5	/experiments/knapen_AOT/AOT_stimuli/rescaled_final/1834_fw.mp4	0.0	371.3392128944397	1.0001270771026611
80	343.8930559158325	pulse	0	t		78.0	2.5	/experiments/knapen_AOT/AOT_stimuli/rescaled_final/1834_fw.mp4	0.0	371.5228388309479	
80	344.709557056427	movie	1		244	78.0	2.5	/experiments/knapen_AOT/AOT_stimuli/rescaled_final/1834_fw.mp4	0.0	372.33933997154236	2.5004470348358154
80	345.49324202537537	pulse	1	t		78.0	2.5	/experiments/knapen_AOT/AOT_stimuli/rescaled_final/1834_fw.mp4	0.0	373.1230249404907	
80	347.09345602989197	pulse	1	t		78.0	2.5	/experiments/knapen_AOT/AOT_stimuli/rescaled_final/1834_fw.mp4	0.0	374.7232389450073	
80	347.2100040912628	fix_post	2		12	78.0	2.5	/experiments/knapen_AOT/AOT_stimuli/rescaled_final/1834_fw.mp4	0.0	374.8397870063782	0.09994792938232422
81	347.30995202064514	fix_pre	0		120	79.0	2.5	/experiments/knapen_AOT/AOT_stimuli/rescaled_final/1494_fw.mp4	0.0	374.9397349357605	1.0001308917999268
81	348.31008291244507	movie	1		244	79.0	2.5	/experiments/knapen_AOT/AOT_stimuli/rescaled_final/1494_fw.mp4	0.0	375.9398658275604	2.4920601844787598
81	348.69481801986694	pulse	1	t		79.0	2.5	/experiments/knapen_AOT/AOT_stimuli/rescaled_final/1494_fw.mp4	0.0	376.3246009349823	
81	350.29402804374695	pulse	1	t		79.0	2.5	/experiments/knapen_AOT/AOT_stimuli/rescaled_final/1494_fw.mp4	0.0	377.9238109588623	
81	350.8021430969238	fix_post	2		12	79.0	2.5	/experiments/knapen_AOT/AOT_stimuli/rescaled_final/1494_fw.mp4	0.0	378.4319260120392	0.10001087188720703
82	350.90215396881104	fix_pre	0		120	80.0	2.5	/experiments/knapen_AOT/AOT_stimuli/rescaled_final/1175_rv.mp4	0.0	378.5319368839264	1.000128984451294
82	351.8942439556122	pulse	0	t		80.0	2.5	/experiments/knapen_AOT/AOT_stimuli/rescaled_final/1175_rv.mp4	0.0	379.52402687072754	
82	351.90228295326233	movie	1		246	80.0	2.5	/experiments/knapen_AOT/AOT_stimuli/rescaled_final/1175_rv.mp4	0.0	379.5320658683777	2.50874400138855
82	353.4956250190735	pulse	1	t		80.0	2.5	/experiments/knapen_AOT/AOT_stimuli/rescaled_final/1175_rv.mp4	0.0	381.12540793418884	
82	354.4110269546509	fix_post	2		12	80.0	2.5	/experiments/knapen_AOT/AOT_stimuli/rescaled_final/1175_rv.mp4	0.0	382.04080986976624	0.10005903244018555
83	354.51108598709106	fix_pre	0		120	81.0	2.5	/experiments/knapen_AOT/AOT_stimuli/rescaled_final/1587_rv.mp4	0.0	382.1408689022064	1.0001170635223389
83	355.0946490764618	pulse	0	t		81.0	2.5	/experiments/knapen_AOT/AOT_stimuli/rescaled_final/1587_rv.mp4	0.0	382.72443199157715	
83	355.5112030506134	movie	1		245	81.0	2.5	/experiments/knapen_AOT/AOT_stimuli/rescaled_final/1587_rv.mp4	0.0	383.14098596572876	2.500356912612915
83	356.69501209259033	pulse	1	t		81.0	2.5	/experiments/knapen_AOT/AOT_stimuli/rescaled_final/1587_rv.mp4	0.0	384.3247950077057	
83	358.0115599632263	fix_post	2		12	81.0	2.5	/experiments/knapen_AOT/AOT_stimuli/rescaled_final/1587_rv.mp4	0.0	385.6413428783417	0.10001206398010254
84	358.1115720272064	fix_pre	0		120	82.0	2.5	/experiments/knapen_AOT/AOT_stimuli/rescaled_final/0076_rv.mp4	0.0	385.7413549423218	1.0001559257507324
84	358.2950859069824	pulse	0	t		82.0	2.5	/experiments/knapen_AOT/AOT_stimuli/rescaled_final/0076_rv.mp4	0.0	385.9248688220978	
84	359.11172795295715	movie	1		243	82.0	2.5	/experiments/knapen_AOT/AOT_stimuli/rescaled_final/0076_rv.mp4	0.0	386.7415108680725	2.5003721714019775
84	359.8952510356903	pulse	1	t		82.0	2.5	/experiments/knapen_AOT/AOT_stimuli/rescaled_final/0076_rv.mp4	0.0	387.52503395080566	
84	361.49562191963196	pulse	1	t		82.0	2.5	/experiments/knapen_AOT/AOT_stimuli/rescaled_final/0076_rv.mp4	0.0	389.1254048347473	
84	361.61210012435913	fix_post	2		12	82.0	2.5	/experiments/knapen_AOT/AOT_stimuli/rescaled_final/0076_rv.mp4	0.0	389.2418830394745	0.1000528335571289
85	361.71215295791626	fix_pre	0		120	83.0	2.5	blank	1.0	389.3419358730316	1.0000841617584229
85	362.7122371196747	movie	1		299	83.0	2.5	blank	1.0	390.34202003479004	2.4920859336853027
85	363.09592294692993	pulse	1	t		83.0	2.5	blank	1.0	390.7257058620453	
85	364.69614005088806	pulse	1	t		83.0	2.5	blank	1.0	392.3259229660034	
85	365.20432305336	fix_post	2		12	83.0	2.5	blank	1.0	392.83410596847534	0.10000395774841309
87	365.3043270111084	stim	0		1716					392.93410992622375	14.302290916442871
87	366.2889769077301	pulse	0	t						393.91875982284546	
87	367.88934111595154	pulse	0	t						395.5191240310669	
87	369.48832511901855	pulse	0	t						397.1181080341339	
87	371.08855390548706	pulse	0	t						398.7183368206024	
87	372.68891406059265	pulse	0	t						400.318696975708	
87	374.2890899181366	pulse	0	t						401.91887283325195	
87	375.8892641067505	pulse	0	t						403.51904702186584	
87	377.4896020889282	pulse	0	t						405.1193850040436	
87	379.0898220539093	pulse	0	t						406.71960496902466	
