trial_nr	onset	event_type	phase	response	nr_frames	movie_index	movie_duration	movie_file	blank	onset_abs	duration
0	0.20816802978515625	stim	0		99					24.14359402656555	0.8250548839569092
0	1.0252039432525635	response	0	space						24.96062994003296	
1	1.0332229137420654	stim	0		4910					24.96864891052246	40.95204305648804
1	41.97046399116516	pulse	0	t						65.90588998794556	
1	41.9852659702301	stim	1		1715					65.9206919670105	14.297878980636597
1	43.56492781639099	pulse	1	t						67.50035381317139	
1	45.16507601737976	pulse	1	t						69.10050201416016	
1	46.765169858932495	pulse	1	t						70.70059585571289	
1	48.365540981292725	pulse	1	t						72.30096697807312	
1	49.96585488319397	pulse	1	t						73.90128087997437	
1	51.566001892089844	pulse	1	t						75.50142788887024	
1	53.16616082191467	pulse	1	t						77.10158681869507	
1	54.766453981399536	pulse	1	t						78.70187997817993	
2	56.2831449508667	fix_pre	0		11	0.0	2.5	/experiments/knapen_AOT/AOT_stimuli/rescaled_final/0526_rv.mp4	0.0	80.2185709476471	0.09177803993225098
2	56.36671781539917	pulse	0	t		0.0	2.5	/experiments/knapen_AOT/AOT_stimuli/rescaled_final/0526_rv.mp4	0.0	80.30214381217957	
2	56.37492299079895	movie	1		245	0.0	2.5	/experiments/knapen_AOT/AOT_stimuli/rescaled_final/0526_rv.mp4	0.0	80.31034898757935	2.5086028575897217
2	57.9674768447876	pulse	1	t		0.0	2.5	/experiments/knapen_AOT/AOT_stimuli/rescaled_final/0526_rv.mp4	0.0	81.902902841568	
2	58.88352584838867	fix_post	2		12	0.0	2.5	/experiments/knapen_AOT/AOT_stimuli/rescaled_final/0526_rv.mp4	0.0	82.81895184516907	0.1000220775604248
3	58.9835479259491	fix_pre	0		120	1.0	2.5	/experiments/knapen_AOT/AOT_stimuli/rescaled_final/1754_fw.mp4	0.0	82.91897392272949	1.00016188621521
3	59.567221879959106	pulse	0	t		1.0	2.5	/experiments/knapen_AOT/AOT_stimuli/rescaled_final/1754_fw.mp4	0.0	83.5026478767395	
3	59.98370981216431	movie	1		247	1.0	2.5	/experiments/knapen_AOT/AOT_stimuli/rescaled_final/1754_fw.mp4	0.0	83.9191358089447	2.5003809928894043
3	61.16374492645264	pulse	1	t		1.0	2.5	/experiments/knapen_AOT/AOT_stimuli/rescaled_final/1754_fw.mp4	0.0	85.09917092323303	
3	62.48409080505371	fix_post	2		12	1.0	2.5	/experiments/knapen_AOT/AOT_stimuli/rescaled_final/1754_fw.mp4	0.0	86.4195168018341	0.10000300407409668
4	62.58409380912781	fix_pre	0		120	2.0	2.5	/experiments/knapen_AOT/AOT_stimuli/rescaled_final/1160_rv.mp4	0.0	86.5195198059082	1.0001721382141113
4	62.76016402244568	pulse	0	t		2.0	2.5	/experiments/knapen_AOT/AOT_stimuli/rescaled_final/1160_rv.mp4	0.0	86.69559001922607	
4	63.58426594734192	movie	1		244	2.0	2.5	/experiments/knapen_AOT/AOT_stimuli/rescaled_final/1160_rv.mp4	0.0	87.51969194412231	2.5003650188446045
4	64.36047792434692	pulse	1	t		2.0	2.5	/experiments/knapen_AOT/AOT_stimuli/rescaled_final/1160_rv.mp4	0.0	88.29590392112732	
4	65.96829390525818	pulse	1	t		2.0	2.5	/experiments/knapen_AOT/AOT_stimuli/rescaled_final/1160_rv.mp4	0.0	89.90371990203857	
4	66.08463096618652	fix_post	2		12	2.0	2.5	/experiments/knapen_AOT/AOT_stimuli/rescaled_final/1160_rv.mp4	0.0	90.02005696296692	0.1000669002532959
5	66.18469786643982	fix_pre	0		120	3.0	2.5	/experiments/knapen_AOT/AOT_stimuli/rescaled_final/1222_rv.mp4	0.0	90.12012386322021	1.0001449584960938
5	67.18484282493591	movie	1		242	3.0	2.5	/experiments/knapen_AOT/AOT_stimuli/rescaled_final/1222_rv.mp4	0.0	91.12026882171631	2.491978168487549
5	67.5600528717041	pulse	1	t		3.0	2.5	/experiments/knapen_AOT/AOT_stimuli/rescaled_final/1222_rv.mp4	0.0	91.4954788684845	
5	69.1603410243988	pulse	1	t		3.0	2.5	/experiments/knapen_AOT/AOT_stimuli/rescaled_final/1222_rv.mp4	0.0	93.0957670211792	
5	69.67682099342346	fix_post	2		12	3.0	2.5	/experiments/knapen_AOT/AOT_stimuli/rescaled_final/1222_rv.mp4	0.0	93.61224699020386	0.10003900527954102
6	69.776859998703	fix_pre	0		119	4.0	2.5	/experiments/knapen_AOT/AOT_stimuli/rescaled_final/1108_rv.mp4	0.0	93.7122859954834	0.9918379783630371
6	70.76057386398315	pulse	0	t		4.0	2.5	/experiments/knapen_AOT/AOT_stimuli/rescaled_final/1108_rv.mp4	0.0	94.69599986076355	
6	70.76869797706604	movie	1		244	4.0	2.5	/experiments/knapen_AOT/AOT_stimuli/rescaled_final/1108_rv.mp4	0.0	94.70412397384644	2.5086779594421387
6	72.36160492897034	pulse	1	t		4.0	2.5	/experiments/knapen_AOT/AOT_stimuli/rescaled_final/1108_rv.mp4	0.0	96.29703092575073	
6	73.27737593650818	fix_post	2		12	4.0	2.5	/experiments/knapen_AOT/AOT_stimuli/rescaled_final/1108_rv.mp4	0.0	97.21280193328857	0.10008597373962402
7	73.3774619102478	fix_pre	0		120	5.0	2.5	/experiments/knapen_AOT/AOT_stimuli/rescaled_final/2075_rv.mp4	0.0	97.3128879070282	1.0000910758972168
7	73.96107983589172	pulse	0	t		5.0	2.5	/experiments/knapen_AOT/AOT_stimuli/rescaled_final/2075_rv.mp4	0.0	97.89650583267212	
7	74.37755298614502	movie	1		244	5.0	2.5	/experiments/knapen_AOT/AOT_stimuli/rescaled_final/2075_rv.mp4	0.0	98.31297898292542	2.500375986099243
7	75.56129193305969	pulse	1	t		5.0	2.5	/experiments/knapen_AOT/AOT_stimuli/rescaled_final/2075_rv.mp4	0.0	99.49671792984009	
7	76.87792897224426	fix_post	2		12	5.0	2.5	/experiments/knapen_AOT/AOT_stimuli/rescaled_final/2075_rv.mp4	0.0	100.81335496902466	0.09998297691345215
8	76.97791194915771	fix_pre	0		120	6.0	2.5	blank	1.0	100.91333794593811	1.0001568794250488
8	77.16144394874573	pulse	0	t		6.0	2.5	blank	1.0	101.09686994552612	
8	77.97806882858276	movie	1		300	6.0	2.5	blank	1.0	101.91349482536316	2.5004169940948486
8	78.76169300079346	pulse	1	t		6.0	2.5	blank	1.0	102.69711899757385	
8	80.36209297180176	pulse	1	t		6.0	2.5	blank	1.0	104.29751896858215	
8	80.47848582267761	fix_post	2		12	6.0	2.5	blank	1.0	104.41391181945801	0.09997701644897461
9	80.57846283912659	fix_pre	0		120	7.0	2.5	/experiments/knapen_AOT/AOT_stimuli/rescaled_final/0386_fw.mp4	0.0	104.51388883590698	1.0001330375671387
9	81.57859587669373	movie	1		244	7.0	2.5	/experiments/knapen_AOT/AOT_stimuli/rescaled_final/0386_fw.mp4	0.0	105.51402187347412	2.4920401573181152
9	81.96699285507202	pulse	1	t		7.0	2.5	/experiments/knapen_AOT/AOT_stimuli/rescaled_final/0386_fw.mp4	0.0	105.90241885185242	
9	83.56258487701416	pulse	1	t		7.0	2.5	/experiments/knapen_AOT/AOT_stimuli/rescaled_final/0386_fw.mp4	0.0	107.49801087379456	
9	84.07063603401184	fix_post	2		12	7.0	2.5	/experiments/knapen_AOT/AOT_stimuli/rescaled_final/0386_fw.mp4	0.0	108.00606203079224	0.10002493858337402
10	84.17066097259521	fix_pre	0		120	8.0	2.5	/experiments/knapen_AOT/AOT_stimuli/rescaled_final/2160_rv.mp4	0.0	108.10608696937561	1.0001709461212158
10	85.16278100013733	pulse	0	t		8.0	2.5	/experiments/knapen_AOT/AOT_stimuli/rescaled_final/2160_rv.mp4	0.0	109.09820699691772	
10	85.17083191871643	movie	1		246	8.0	2.5	/experiments/knapen_AOT/AOT_stimuli/rescaled_final/2160_rv.mp4	0.0	109.10625791549683	2.508678913116455
10	86.76436281204224	pulse	1	t		8.0	2.5	/experiments/knapen_AOT/AOT_stimuli/rescaled_final/2160_rv.mp4	0.0	110.69978880882263	
10	87.67951083183289	fix_post	2		12	8.0	2.5	/experiments/knapen_AOT/AOT_stimuli/rescaled_final/2160_rv.mp4	0.0	111.61493682861328	0.10003519058227539
11	87.77954602241516	fix_pre	0		120	9.0	2.5	/experiments/knapen_AOT/AOT_stimuli/rescaled_final/1645_fw.mp4	0.0	111.71497201919556	1.0001649856567383
11	88.36315488815308	pulse	0	t		9.0	2.5	/experiments/knapen_AOT/AOT_stimuli/rescaled_final/1645_fw.mp4	0.0	112.29858088493347	
11	88.7797110080719	movie	1		246	9.0	2.5	/experiments/knapen_AOT/AOT_stimuli/rescaled_final/1645_fw.mp4	0.0	112.7151370048523	2.500321865081787
11	89.9634759426117	pulse	1	t		9.0	2.5	/experiments/knapen_AOT/AOT_stimuli/rescaled_final/1645_fw.mp4	0.0	113.89890193939209	
11	91.28003287315369	fix_post	2		12	9.0	2.5	/experiments/knapen_AOT/AOT_stimuli/rescaled_final/1645_fw.mp4	0.0	115.21545886993408	0.10002398490905762
12	91.38005685806274	fix_pre	0		120	10.0	2.5	/experiments/knapen_AOT/AOT_stimuli/rescaled_final/1839_rv.mp4	0.0	115.31548285484314	1.0001821517944336
12	91.56373596191406	pulse	0	t		10.0	2.5	/experiments/knapen_AOT/AOT_stimuli/rescaled_final/1839_rv.mp4	0.0	115.49916195869446	
12	92.38023900985718	movie	1		244	10.0	2.5	/experiments/knapen_AOT/AOT_stimuli/rescaled_final/1839_rv.mp4	0.0	116.31566500663757	2.500351905822754
12	93.16389799118042	pulse	1	t		10.0	2.5	/experiments/knapen_AOT/AOT_stimuli/rescaled_final/1839_rv.mp4	0.0	117.09932398796082	
12	94.76417589187622	pulse	1	t		10.0	2.5	/experiments/knapen_AOT/AOT_stimuli/rescaled_final/1839_rv.mp4	0.0	118.69960188865662	
12	94.88059091567993	fix_post	2		12	10.0	2.5	/experiments/knapen_AOT/AOT_stimuli/rescaled_final/1839_rv.mp4	0.0	118.81601691246033	0.10001492500305176
13	94.98060584068298	fix_pre	0		120	11.0	2.5	/experiments/knapen_AOT/AOT_stimuli/rescaled_final/0851_fw.mp4	0.0	118.91603183746338	1.0001790523529053
13	95.98078489303589	movie	1		243	11.0	2.5	/experiments/knapen_AOT/AOT_stimuli/rescaled_final/0851_fw.mp4	0.0	119.91621088981628	2.492025136947632
13	96.3647928237915	pulse	1	t		11.0	2.5	/experiments/knapen_AOT/AOT_stimuli/rescaled_final/0851_fw.mp4	0.0	120.3002188205719	
13	97.964674949646	pulse	1	t		11.0	2.5	/experiments/knapen_AOT/AOT_stimuli/rescaled_final/0851_fw.mp4	0.0	121.90010094642639	
13	98.47281002998352	fix_post	2		12	11.0	2.5	/experiments/knapen_AOT/AOT_stimuli/rescaled_final/0851_fw.mp4	0.0	122.40823602676392	0.09999585151672363
14	98.57280588150024	fix_pre	0		120	12.0	2.5	/experiments/knapen_AOT/AOT_stimuli/rescaled_final/1303_rv.mp4	0.0	122.50823187828064	1.0001521110534668
14	99.56491780281067	pulse	0	t		12.0	2.5	/experiments/knapen_AOT/AOT_stimuli/rescaled_final/1303_rv.mp4	0.0	123.50034379959106	
14	99.57295799255371	movie	1		244	12.0	2.5	/experiments/knapen_AOT/AOT_stimuli/rescaled_final/1303_rv.mp4	0.0	123.5083839893341	2.5087878704071045
14	101.16546082496643	pulse	1	t		12.0	2.5	/experiments/knapen_AOT/AOT_stimuli/rescaled_final/1303_rv.mp4	0.0	125.10088682174683	
14	102.08174586296082	fix_post	2		12	12.0	2.5	/experiments/knapen_AOT/AOT_stimuli/rescaled_final/1303_rv.mp4	0.0	126.01717185974121	0.0999300479888916
15	102.1816759109497	fix_pre	0		120	13.0	2.5	blank	1.0	126.1171019077301	1.0001559257507324
15	102.76534080505371	pulse	0	t		13.0	2.5	blank	1.0	126.7007668018341	
15	103.18183183670044	movie	1		300	13.0	2.5	blank	1.0	127.11725783348083	2.500411033630371
15	104.36563086509705	pulse	1	t		13.0	2.5	blank	1.0	128.30105686187744	
15	105.68224287033081	fix_post	2		12	13.0	2.5	blank	1.0	129.6176688671112	0.10009503364562988
16	105.78233790397644	fix_pre	0		120	14.0	2.5	/experiments/knapen_AOT/AOT_stimuli/rescaled_final/0964_fw.mp4	0.0	129.71776390075684	1.0000429153442383
16	105.96589493751526	pulse	0	t		14.0	2.5	/experiments/knapen_AOT/AOT_stimuli/rescaled_final/0964_fw.mp4	0.0	129.90132093429565	
16	106.78238081932068	movie	1		243	14.0	2.5	/experiments/knapen_AOT/AOT_stimuli/rescaled_final/0964_fw.mp4	0.0	130.71780681610107	2.500343084335327
16	107.56609082221985	pulse	1	t		14.0	2.5	/experiments/knapen_AOT/AOT_stimuli/rescaled_final/0964_fw.mp4	0.0	131.50151681900024	
16	109.16607189178467	pulse	1	t		14.0	2.5	/experiments/knapen_AOT/AOT_stimuli/rescaled_final/0964_fw.mp4	0.0	133.10149788856506	
16	109.282723903656	fix_post	2		12	14.0	2.5	/experiments/knapen_AOT/AOT_stimuli/rescaled_final/0964_fw.mp4	0.0	133.2181499004364	0.1000211238861084
17	109.38274502754211	fix_pre	0		120	15.0	2.5	/experiments/knapen_AOT/AOT_stimuli/rescaled_final/0612_fw.mp4	0.0	133.3181710243225	1.0001659393310547
17	110.38291096687317	movie	1		242	15.0	2.5	/experiments/knapen_AOT/AOT_stimuli/rescaled_final/0612_fw.mp4	0.0	134.31833696365356	2.4920430183410645
17	110.76681995391846	pulse	1	t		15.0	2.5	/experiments/knapen_AOT/AOT_stimuli/rescaled_final/0612_fw.mp4	0.0	134.70224595069885	
17	112.36671686172485	pulse	1	t		15.0	2.5	/experiments/knapen_AOT/AOT_stimuli/rescaled_final/0612_fw.mp4	0.0	136.30214285850525	
17	112.87495398521423	fix_post	2		12	15.0	2.5	/experiments/knapen_AOT/AOT_stimuli/rescaled_final/0612_fw.mp4	0.0	136.81037998199463	0.10002303123474121
18	112.97497701644897	fix_pre	0		120	16.0	2.5	/experiments/knapen_AOT/AOT_stimuli/rescaled_final/0244_fw.mp4	0.0	136.91040301322937	1.0001299381256104
18	113.96710896492004	pulse	0	t		16.0	2.5	/experiments/knapen_AOT/AOT_stimuli/rescaled_final/0244_fw.mp4	0.0	137.90253496170044	
18	113.97510695457458	movie	1		245	16.0	2.5	/experiments/knapen_AOT/AOT_stimuli/rescaled_final/0244_fw.mp4	0.0	137.91053295135498	2.5087249279022217
18	115.56777381896973	pulse	1	t		16.0	2.5	/experiments/knapen_AOT/AOT_stimuli/rescaled_final/0244_fw.mp4	0.0	139.50319981575012	
18	116.4838318824768	fix_post	2		12	16.0	2.5	/experiments/knapen_AOT/AOT_stimuli/rescaled_final/0244_fw.mp4	0.0	140.4192578792572	0.10002303123474121
19	116.58385491371155	fix_pre	0		120	17.0	2.5	/experiments/knapen_AOT/AOT_stimuli/rescaled_final/1379_fw.mp4	0.0	140.51928091049194	1.0001509189605713
19	117.16765093803406	pulse	0	t		17.0	2.5	/experiments/knapen_AOT/AOT_stimuli/rescaled_final/1379_fw.mp4	0.0	141.10307693481445	
19	117.58400583267212	movie	1		244	17.0	2.5	/experiments/knapen_AOT/AOT_stimuli/rescaled_final/1379_fw.mp4	0.0	141.51943182945251	2.50034499168396
19	118.76784086227417	pulse	1	t		17.0	2.5	/experiments/knapen_AOT/AOT_stimuli/rescaled_final/1379_fw.mp4	0.0	142.70326685905457	
19	120.08435082435608	fix_post	2		12	17.0	2.5	/experiments/knapen_AOT/AOT_stimuli/rescaled_final/1379_fw.mp4	0.0	144.01977682113647	0.1000361442565918
20	120.18438696861267	fix_pre	0		120	18.0	2.5	/experiments/knapen_AOT/AOT_stimuli/rescaled_final/1511_rv.mp4	0.0	144.11981296539307	1.0001640319824219
20	120.36048984527588	pulse	0	t		18.0	2.5	/experiments/knapen_AOT/AOT_stimuli/rescaled_final/1511_rv.mp4	0.0	144.29591584205627	
20	121.18455100059509	movie	1		243	18.0	2.5	/experiments/knapen_AOT/AOT_stimuli/rescaled_final/1511_rv.mp4	0.0	145.1199769973755	2.5003468990325928
20	121.96084880828857	pulse	1	t		18.0	2.5	/experiments/knapen_AOT/AOT_stimuli/rescaled_final/1511_rv.mp4	0.0	145.89627480506897	
20	123.56860399246216	pulse	1	t		18.0	2.5	/experiments/knapen_AOT/AOT_stimuli/rescaled_final/1511_rv.mp4	0.0	147.50402998924255	
20	123.68489789962769	fix_post	2		12	18.0	2.5	/experiments/knapen_AOT/AOT_stimuli/rescaled_final/1511_rv.mp4	0.0	147.62032389640808	0.10001611709594727
21	123.78491401672363	fix_pre	0		120	19.0	2.5	/experiments/knapen_AOT/AOT_stimuli/rescaled_final/1618_rv.mp4	0.0	147.72034001350403	1.0001659393310547
21	124.78507995605469	movie	1		246	19.0	2.5	/experiments/knapen_AOT/AOT_stimuli/rescaled_final/1618_rv.mp4	0.0	148.72050595283508	2.4920308589935303
21	125.16906595230103	pulse	1	t		19.0	2.5	/experiments/knapen_AOT/AOT_stimuli/rescaled_final/1618_rv.mp4	0.0	149.10449194908142	
21	126.76147985458374	pulse	1	t		19.0	2.5	/experiments/knapen_AOT/AOT_stimuli/rescaled_final/1618_rv.mp4	0.0	150.69690585136414	
21	127.27711081504822	fix_post	2		12	19.0	2.5	/experiments/knapen_AOT/AOT_stimuli/rescaled_final/1618_rv.mp4	0.0	151.2125368118286	0.10002398490905762
22	127.37713479995728	fix_pre	0		119	20.0	2.5	/experiments/knapen_AOT/AOT_stimuli/rescaled_final/1907_fw.mp4	0.0	151.31256079673767	0.9918010234832764
22	128.3608319759369	pulse	0	t		20.0	2.5	/experiments/knapen_AOT/AOT_stimuli/rescaled_final/1907_fw.mp4	0.0	152.29625797271729	
22	128.36893582344055	movie	1		245	20.0	2.5	/experiments/knapen_AOT/AOT_stimuli/rescaled_final/1907_fw.mp4	0.0	152.30436182022095	2.5087060928344727
22	129.96184587478638	pulse	1	t		20.0	2.5	/experiments/knapen_AOT/AOT_stimuli/rescaled_final/1907_fw.mp4	0.0	153.89727187156677	
22	130.87764191627502	fix_post	2		12	20.0	2.5	/experiments/knapen_AOT/AOT_stimuli/rescaled_final/1907_fw.mp4	0.0	154.81306791305542	0.10002803802490234
23	130.97766995429993	fix_pre	0		120	21.0	2.5	blank	1.0	154.91309595108032	1.0002470016479492
23	131.5612199306488	pulse	0	t		21.0	2.5	blank	1.0	155.4966459274292	
23	131.97791695594788	movie	1		300	21.0	2.5	blank	1.0	155.91334295272827	2.50026798248291
23	133.1615560054779	pulse	1	t		21.0	2.5	blank	1.0	157.0969820022583	
23	134.4781849384308	fix_post	2		12	21.0	2.5	blank	1.0	158.41361093521118	0.10000300407409668
24	134.57818794250488	fix_pre	0		120	22.0	2.5	/experiments/knapen_AOT/AOT_stimuli/rescaled_final/1091_fw.mp4	0.0	158.51361393928528	1.000190019607544
24	134.76180791854858	pulse	0	t		22.0	2.5	/experiments/knapen_AOT/AOT_stimuli/rescaled_final/1091_fw.mp4	0.0	158.69723391532898	
24	135.57837796211243	movie	1		244	22.0	2.5	/experiments/knapen_AOT/AOT_stimuli/rescaled_final/1091_fw.mp4	0.0	159.51380395889282	2.500432014465332
24	136.36205887794495	pulse	1	t		22.0	2.5	/experiments/knapen_AOT/AOT_stimuli/rescaled_final/1091_fw.mp4	0.0	160.29748487472534	
24	137.96233701705933	pulse	1	t		22.0	2.5	/experiments/knapen_AOT/AOT_stimuli/rescaled_final/1091_fw.mp4	0.0	161.89776301383972	
24	138.07880997657776	fix_post	2		12	22.0	2.5	/experiments/knapen_AOT/AOT_stimuli/rescaled_final/1091_fw.mp4	0.0	162.01423597335815	0.09999585151672363
25	138.17880582809448	fix_pre	0		120	23.0	2.5	/experiments/knapen_AOT/AOT_stimuli/rescaled_final/1618_rv.mp4	0.0	162.11423182487488	1.0001142024993896
25	139.17892003059387	movie	1		246	23.0	2.5	/experiments/knapen_AOT/AOT_stimuli/rescaled_final/1618_rv.mp4	0.0	163.11434602737427	2.492025852203369
25	139.56307697296143	pulse	1	t		23.0	2.5	/experiments/knapen_AOT/AOT_stimuli/rescaled_final/1618_rv.mp4	0.0	163.49850296974182	
25	141.16284203529358	pulse	1	t		23.0	2.5	/experiments/knapen_AOT/AOT_stimuli/rescaled_final/1618_rv.mp4	0.0	165.09826803207397	
25	141.67094588279724	fix_post	2		12	23.0	2.5	/experiments/knapen_AOT/AOT_stimuli/rescaled_final/1618_rv.mp4	0.0	165.60637187957764	0.1000051498413086
26	141.77095103263855	fix_pre	0		120	24.0	2.5	/experiments/knapen_AOT/AOT_stimuli/rescaled_final/1930_fw.mp4	0.0	165.70637702941895	1.0001428127288818
26	142.76299285888672	pulse	0	t		24.0	2.5	/experiments/knapen_AOT/AOT_stimuli/rescaled_final/1930_fw.mp4	0.0	166.69841885566711	
26	142.77109384536743	movie	1		246	24.0	2.5	/experiments/knapen_AOT/AOT_stimuli/rescaled_final/1930_fw.mp4	0.0	166.70651984214783	2.5087380409240723
26	144.3636839389801	pulse	1	t		24.0	2.5	/experiments/knapen_AOT/AOT_stimuli/rescaled_final/1930_fw.mp4	0.0	168.2991099357605	
26	145.2798318862915	fix_post	2		12	24.0	2.5	/experiments/knapen_AOT/AOT_stimuli/rescaled_final/1930_fw.mp4	0.0	169.2152578830719	0.0999751091003418
27	145.37980699539185	fix_pre	0		120	25.0	2.5	/experiments/knapen_AOT/AOT_stimuli/rescaled_final/1499_fw.mp4	0.0	169.31523299217224	1.0002028942108154
27	145.9634828567505	pulse	0	t		25.0	2.5	/experiments/knapen_AOT/AOT_stimuli/rescaled_final/1499_fw.mp4	0.0	169.89890885353088	
27	146.38000988960266	movie	1		244	25.0	2.5	/experiments/knapen_AOT/AOT_stimuli/rescaled_final/1499_fw.mp4	0.0	170.31543588638306	2.5003349781036377
27	147.5638608932495	pulse	1	t		25.0	2.5	/experiments/knapen_AOT/AOT_stimuli/rescaled_final/1499_fw.mp4	0.0	171.4992868900299	
27	148.8803448677063	fix_post	2		12	25.0	2.5	/experiments/knapen_AOT/AOT_stimuli/rescaled_final/1499_fw.mp4	0.0	172.8157708644867	0.0999901294708252
28	148.98033499717712	fix_pre	0		120	26.0	2.5	blank	1.0	172.91576099395752	1.0001640319824219
28	149.1640019416809	pulse	0	t		26.0	2.5	blank	1.0	173.0994279384613	
28	149.98049902915955	movie	1		300	26.0	2.5	blank	1.0	173.91592502593994	2.500419855117798
28	150.76413583755493	pulse	1	t		26.0	2.5	blank	1.0	174.69956183433533	
28	152.3643820285797	pulse	1	t		26.0	2.5	blank	1.0	176.2998080253601	
28	152.48091888427734	fix_post	2		12	26.0	2.5	blank	1.0	176.41634488105774	0.09998393058776855
29	152.5809028148651	fix_pre	0		120	27.0	2.5	/experiments/knapen_AOT/AOT_stimuli/rescaled_final/0521_fw.mp4	0.0	176.5163288116455	1.000162124633789
29	153.5810649394989	movie	1		243	27.0	2.5	/experiments/knapen_AOT/AOT_stimuli/rescaled_final/0521_fw.mp4	0.0	177.5164909362793	2.492003917694092
29	153.96535181999207	pulse	1	t		27.0	2.5	/experiments/knapen_AOT/AOT_stimuli/rescaled_final/0521_fw.mp4	0.0	177.90077781677246	
29	155.56493282318115	pulse	1	t		27.0	2.5	/experiments/knapen_AOT/AOT_stimuli/rescaled_final/0521_fw.mp4	0.0	179.50035881996155	
29	156.073068857193	fix_post	2		12	27.0	2.5	/experiments/knapen_AOT/AOT_stimuli/rescaled_final/0521_fw.mp4	0.0	180.0084948539734	0.10002613067626953
30	156.17309498786926	fix_pre	0		120	28.0	2.5	/experiments/knapen_AOT/AOT_stimuli/rescaled_final/0596_rv.mp4	0.0	180.10852098464966	1.000216007232666
30	157.1651759147644	pulse	0	t		28.0	2.5	/experiments/knapen_AOT/AOT_stimuli/rescaled_final/0596_rv.mp4	0.0	181.1006019115448	
30	157.17331099510193	movie	1		245	28.0	2.5	/experiments/knapen_AOT/AOT_stimuli/rescaled_final/0596_rv.mp4	0.0	181.10873699188232	2.508664846420288
30	158.76672196388245	pulse	1	t		28.0	2.5	/experiments/knapen_AOT/AOT_stimuli/rescaled_final/0596_rv.mp4	0.0	182.70214796066284	
30	159.68197584152222	fix_post	2		12	28.0	2.5	/experiments/knapen_AOT/AOT_stimuli/rescaled_final/0596_rv.mp4	0.0	183.6174018383026	0.09998703002929688
31	159.7819628715515	fix_pre	0		120	29.0	2.5	/experiments/knapen_AOT/AOT_stimuli/rescaled_final/0479_rv.mp4	0.0	183.7173888683319	1.0001530647277832
31	160.36564683914185	pulse	0	t		29.0	2.5	/experiments/knapen_AOT/AOT_stimuli/rescaled_final/0479_rv.mp4	0.0	184.30107283592224	
31	160.7821159362793	movie	1		243	29.0	2.5	/experiments/knapen_AOT/AOT_stimuli/rescaled_final/0479_rv.mp4	0.0	184.7175419330597	2.500372886657715
31	161.9659388065338	pulse	1	t		29.0	2.5	/experiments/knapen_AOT/AOT_stimuli/rescaled_final/0479_rv.mp4	0.0	185.9013648033142	
31	163.282488822937	fix_post	2		12	29.0	2.5	/experiments/knapen_AOT/AOT_stimuli/rescaled_final/0479_rv.mp4	0.0	187.2179148197174	0.10005402565002441
32	163.38254284858704	fix_pre	0		120	30.0	2.5	/experiments/knapen_AOT/AOT_stimuli/rescaled_final/1747_fw.mp4	0.0	187.31796884536743	1.0001370906829834
32	163.56605195999146	pulse	0	t		30.0	2.5	/experiments/knapen_AOT/AOT_stimuli/rescaled_final/1747_fw.mp4	0.0	187.50147795677185	
32	164.38267993927002	movie	1		243	30.0	2.5	/experiments/knapen_AOT/AOT_stimuli/rescaled_final/1747_fw.mp4	0.0	188.31810593605042	2.5003199577331543
32	165.16629695892334	pulse	1	t		30.0	2.5	/experiments/knapen_AOT/AOT_stimuli/rescaled_final/1747_fw.mp4	0.0	189.10172295570374	
32	166.76649284362793	pulse	1	t		30.0	2.5	/experiments/knapen_AOT/AOT_stimuli/rescaled_final/1747_fw.mp4	0.0	190.70191884040833	
32	166.88299989700317	fix_post	2		12	30.0	2.5	/experiments/knapen_AOT/AOT_stimuli/rescaled_final/1747_fw.mp4	0.0	190.81842589378357	0.10005903244018555
33	166.98305892944336	fix_pre	0		120	31.0	2.5	/experiments/knapen_AOT/AOT_stimuli/rescaled_final/0829_fw.mp4	0.0	190.91848492622375	1.000135898590088
33	167.98319482803345	movie	1		242	31.0	2.5	/experiments/knapen_AOT/AOT_stimuli/rescaled_final/0829_fw.mp4	0.0	191.91862082481384	2.4920690059661865
33	168.3675398826599	pulse	1	t		31.0	2.5	/experiments/knapen_AOT/AOT_stimuli/rescaled_final/0829_fw.mp4	0.0	192.3029658794403	
33	169.96714997291565	pulse	1	t		31.0	2.5	/experiments/knapen_AOT/AOT_stimuli/rescaled_final/0829_fw.mp4	0.0	193.90257596969604	
33	170.47526383399963	fix_post	2		12	31.0	2.5	/experiments/knapen_AOT/AOT_stimuli/rescaled_final/0829_fw.mp4	0.0	194.41068983078003	0.09996914863586426
34	170.5752329826355	fix_pre	0		120	32.0	2.5	/experiments/knapen_AOT/AOT_stimuli/rescaled_final/1040_fw.mp4	0.0	194.5106589794159	1.0002729892730713
34	171.56724882125854	pulse	0	t		32.0	2.5	/experiments/knapen_AOT/AOT_stimuli/rescaled_final/1040_fw.mp4	0.0	195.50267481803894	
34	171.57550597190857	movie	1		245	32.0	2.5	/experiments/knapen_AOT/AOT_stimuli/rescaled_final/1040_fw.mp4	0.0	195.51093196868896	2.508575916290283
34	173.17184901237488	pulse	1	t		32.0	2.5	/experiments/knapen_AOT/AOT_stimuli/rescaled_final/1040_fw.mp4	0.0	197.10727500915527	
34	174.08408188819885	fix_post	2		9	32.0	2.5	/experiments/knapen_AOT/AOT_stimuli/rescaled_final/1040_fw.mp4	0.0	198.01950788497925	0.10003995895385742
35	174.1841218471527	fix_pre	0		120	33.0	2.5	blank	1.0	198.1195478439331	1.000169038772583
35	174.76021194458008	pulse	0	t		33.0	2.5	blank	1.0	198.69563794136047	
35	175.1842908859253	movie	1		300	33.0	2.5	blank	1.0	199.1197168827057	2.500365972518921
35	176.36059880256653	pulse	1	t		33.0	2.5	blank	1.0	200.29602479934692	
35	177.6846568584442	fix_post	2		12	33.0	2.5	blank	1.0	201.6200828552246	0.09996509552001953
36	177.78462195396423	fix_pre	0		120	34.0	2.5	/experiments/knapen_AOT/AOT_stimuli/rescaled_final/1427_rv.mp4	0.0	201.72004795074463	1.0001890659332275
36	177.96069598197937	pulse	0	t		34.0	2.5	/experiments/knapen_AOT/AOT_stimuli/rescaled_final/1427_rv.mp4	0.0	201.89612197875977	
36	178.78481101989746	movie	1		248	34.0	2.5	/experiments/knapen_AOT/AOT_stimuli/rescaled_final/1427_rv.mp4	0.0	202.72023701667786	2.500403881072998
36	179.56098580360413	pulse	1	t		34.0	2.5	/experiments/knapen_AOT/AOT_stimuli/rescaled_final/1427_rv.mp4	0.0	203.49641180038452	
36	181.16034197807312	pulse	1	t		34.0	2.5	/experiments/knapen_AOT/AOT_stimuli/rescaled_final/1427_rv.mp4	0.0	205.09576797485352	
36	181.28521490097046	fix_post	2		12	34.0	2.5	/experiments/knapen_AOT/AOT_stimuli/rescaled_final/1427_rv.mp4	0.0	205.22064089775085	0.10001611709594727
37	181.3852310180664	fix_pre	0		120	35.0	2.5	/experiments/knapen_AOT/AOT_stimuli/rescaled_final/0397_fw.mp4	0.0	205.3206570148468	1.0001399517059326
37	182.38537096977234	movie	1		243	35.0	2.5	/experiments/knapen_AOT/AOT_stimuli/rescaled_final/0397_fw.mp4	0.0	206.32079696655273	2.4921040534973145
37	182.76054787635803	pulse	1	t		35.0	2.5	/experiments/knapen_AOT/AOT_stimuli/rescaled_final/0397_fw.mp4	0.0	206.69597387313843	
37	184.36094999313354	pulse	1	t		35.0	2.5	/experiments/knapen_AOT/AOT_stimuli/rescaled_final/0397_fw.mp4	0.0	208.29637598991394	
37	184.87747502326965	fix_post	2		12	35.0	2.5	/experiments/knapen_AOT/AOT_stimuli/rescaled_final/0397_fw.mp4	0.0	208.81290102005005	0.09993886947631836
38	184.97741389274597	fix_pre	0		119	36.0	2.5	/experiments/knapen_AOT/AOT_stimuli/rescaled_final/1630_fw.mp4	0.0	208.91283988952637	0.9918169975280762
38	185.96104502677917	pulse	0	t		36.0	2.5	/experiments/knapen_AOT/AOT_stimuli/rescaled_final/1630_fw.mp4	0.0	209.89647102355957	
38	185.96923089027405	movie	1		244	36.0	2.5	/experiments/knapen_AOT/AOT_stimuli/rescaled_final/1630_fw.mp4	0.0	209.90465688705444	2.508721113204956
38	187.56244802474976	pulse	1	t		36.0	2.5	/experiments/knapen_AOT/AOT_stimuli/rescaled_final/1630_fw.mp4	0.0	211.49787402153015	
38	188.477952003479	fix_post	2		12	36.0	2.5	/experiments/knapen_AOT/AOT_stimuli/rescaled_final/1630_fw.mp4	0.0	212.4133780002594	0.09997081756591797
39	188.57792282104492	fix_pre	0		120	37.0	2.5	/experiments/knapen_AOT/AOT_stimuli/rescaled_final/1183_rv.mp4	0.0	212.51334881782532	1.000157117843628
39	189.16164183616638	pulse	0	t		37.0	2.5	/experiments/knapen_AOT/AOT_stimuli/rescaled_final/1183_rv.mp4	0.0	213.09706783294678	
39	189.57807993888855	movie	1		244	37.0	2.5	/experiments/knapen_AOT/AOT_stimuli/rescaled_final/1183_rv.mp4	0.0	213.51350593566895	2.500369071960449
39	190.76190781593323	pulse	1	t		37.0	2.5	/experiments/knapen_AOT/AOT_stimuli/rescaled_final/1183_rv.mp4	0.0	214.69733381271362	
39	192.078449010849	fix_post	2		12	37.0	2.5	/experiments/knapen_AOT/AOT_stimuli/rescaled_final/1183_rv.mp4	0.0	216.0138750076294	0.1000368595123291
40	192.17848587036133	fix_pre	0		120	38.0	2.5	/experiments/knapen_AOT/AOT_stimuli/rescaled_final/0126_rv.mp4	0.0	216.11391186714172	1.0001530647277832
40	192.36207699775696	pulse	0	t		38.0	2.5	/experiments/knapen_AOT/AOT_stimuli/rescaled_final/0126_rv.mp4	0.0	216.29750299453735	
40	193.1786389350891	movie	1		243	38.0	2.5	/experiments/knapen_AOT/AOT_stimuli/rescaled_final/0126_rv.mp4	0.0	217.1140649318695	2.500372886657715
40	193.96223402023315	pulse	1	t		38.0	2.5	/experiments/knapen_AOT/AOT_stimuli/rescaled_final/0126_rv.mp4	0.0	217.89766001701355	
40	195.56230282783508	pulse	1	t		38.0	2.5	/experiments/knapen_AOT/AOT_stimuli/rescaled_final/0126_rv.mp4	0.0	219.49772882461548	
40	195.67901182174683	fix_post	2		12	38.0	2.5	/experiments/knapen_AOT/AOT_stimuli/rescaled_final/0126_rv.mp4	0.0	219.61443781852722	0.10001420974731445
41	195.77902603149414	fix_pre	0		119	39.0	2.5	/experiments/knapen_AOT/AOT_stimuli/rescaled_final/1813_fw.mp4	0.0	219.71445202827454	0.9918129444122314
41	196.77083897590637	movie	1		244	39.0	2.5	/experiments/knapen_AOT/AOT_stimuli/rescaled_final/1813_fw.mp4	0.0	220.70626497268677	2.5003910064697266
41	197.16287899017334	pulse	1	t		39.0	2.5	/experiments/knapen_AOT/AOT_stimuli/rescaled_final/1813_fw.mp4	0.0	221.09830498695374	
41	198.76304292678833	pulse	1	t		39.0	2.5	/experiments/knapen_AOT/AOT_stimuli/rescaled_final/1813_fw.mp4	0.0	222.69846892356873	
41	199.2712299823761	fix_post	2		12	39.0	2.5	/experiments/knapen_AOT/AOT_stimuli/rescaled_final/1813_fw.mp4	0.0	223.2066559791565	0.09998798370361328
42	199.3712179660797	fix_pre	0		120	40.0	2.5	/experiments/knapen_AOT/AOT_stimuli/rescaled_final/1654_rv.mp4	0.0	223.3066439628601	1.0002119541168213
42	200.36318802833557	pulse	0	t		40.0	2.5	/experiments/knapen_AOT/AOT_stimuli/rescaled_final/1654_rv.mp4	0.0	224.29861402511597	
42	200.37142992019653	movie	1		245	40.0	2.5	/experiments/knapen_AOT/AOT_stimuli/rescaled_final/1654_rv.mp4	0.0	224.30685591697693	2.5086469650268555
42	201.9677028656006	pulse	1	t		40.0	2.5	/experiments/knapen_AOT/AOT_stimuli/rescaled_final/1654_rv.mp4	0.0	225.90312886238098	
42	202.8800768852234	fix_post	2		12	40.0	2.5	/experiments/knapen_AOT/AOT_stimuli/rescaled_final/1654_rv.mp4	0.0	226.81550288200378	0.10002613067626953
43	202.98010301589966	fix_pre	0		120	41.0	2.5	/experiments/knapen_AOT/AOT_stimuli/rescaled_final/0617_fw.mp4	0.0	226.91552901268005	1.0001578330993652
43	203.56386590003967	pulse	0	t		41.0	2.5	/experiments/knapen_AOT/AOT_stimuli/rescaled_final/0617_fw.mp4	0.0	227.49929189682007	
43	203.98026084899902	movie	1		245	41.0	2.5	/experiments/knapen_AOT/AOT_stimuli/rescaled_final/0617_fw.mp4	0.0	227.91568684577942	2.50040602684021
43	205.16413187980652	pulse	1	t		41.0	2.5	/experiments/knapen_AOT/AOT_stimuli/rescaled_final/0617_fw.mp4	0.0	229.0995578765869	
43	206.48066687583923	fix_post	2		12	41.0	2.5	/experiments/knapen_AOT/AOT_stimuli/rescaled_final/0617_fw.mp4	0.0	230.41609287261963	0.10000395774841309
44	206.58067083358765	fix_pre	0		120	42.0	2.5	blank	1.0	230.51609683036804	1.000143051147461
44	206.76420402526855	pulse	0	t		42.0	2.5	blank	1.0	230.69963002204895	
44	207.5808138847351	movie	1		299	42.0	2.5	blank	1.0	231.5162398815155	2.4920570850372314
44	208.36444783210754	pulse	1	t		42.0	2.5	blank	1.0	232.29987382888794	
44	209.96483397483826	pulse	1	t		42.0	2.5	blank	1.0	233.90025997161865	
44	210.07287096977234	fix_post	2		12	42.0	2.5	blank	1.0	234.00829696655273	0.09996390342712402
45	210.17283487319946	fix_pre	0		120	43.0	2.5	/experiments/knapen_AOT/AOT_stimuli/rescaled_final/0366_rv.mp4	0.0	234.10826086997986	1.0001559257507324
45	211.1729907989502	movie	1		244	43.0	2.5	/experiments/knapen_AOT/AOT_stimuli/rescaled_final/0366_rv.mp4	0.0	235.1084167957306	2.5004122257232666
45	211.56499600410461	pulse	1	t		43.0	2.5	/experiments/knapen_AOT/AOT_stimuli/rescaled_final/0366_rv.mp4	0.0	235.500422000885	
45	213.16517186164856	pulse	1	t		43.0	2.5	/experiments/knapen_AOT/AOT_stimuli/rescaled_final/0366_rv.mp4	0.0	237.10059785842896	
45	213.67340302467346	fix_post	2		12	43.0	2.5	/experiments/knapen_AOT/AOT_stimuli/rescaled_final/0366_rv.mp4	0.0	237.60882902145386	0.09999299049377441
46	213.77339601516724	fix_pre	0		120	44.0	2.5	/experiments/knapen_AOT/AOT_stimuli/rescaled_final/1179_fw.mp4	0.0	237.70882201194763	1.0001938343048096
46	214.76539397239685	pulse	0	t		44.0	2.5	/experiments/knapen_AOT/AOT_stimuli/rescaled_final/1179_fw.mp4	0.0	238.70081996917725	
46	214.77358984947205	movie	1		245	44.0	2.5	/experiments/knapen_AOT/AOT_stimuli/rescaled_final/1179_fw.mp4	0.0	238.70901584625244	2.5086469650268555
46	216.36602783203125	pulse	1	t		44.0	2.5	/experiments/knapen_AOT/AOT_stimuli/rescaled_final/1179_fw.mp4	0.0	240.30145382881165	
46	217.2822368144989	fix_post	2		12	44.0	2.5	/experiments/knapen_AOT/AOT_stimuli/rescaled_final/1179_fw.mp4	0.0	241.2176628112793	0.10003399848937988
47	217.38227081298828	fix_pre	0		120	45.0	2.5	/experiments/knapen_AOT/AOT_stimuli/rescaled_final/2167_rv.mp4	0.0	241.31769680976868	1.000197172164917
47	217.9660348892212	pulse	0	t		45.0	2.5	/experiments/knapen_AOT/AOT_stimuli/rescaled_final/2167_rv.mp4	0.0	241.9014608860016	
47	218.3824679851532	movie	1		243	45.0	2.5	/experiments/knapen_AOT/AOT_stimuli/rescaled_final/2167_rv.mp4	0.0	242.3178939819336	2.500295877456665
47	219.56630301475525	pulse	1	t		45.0	2.5	/experiments/knapen_AOT/AOT_stimuli/rescaled_final/2167_rv.mp4	0.0	243.50172901153564	
47	220.88276386260986	fix_post	2		12	45.0	2.5	/experiments/knapen_AOT/AOT_stimuli/rescaled_final/2167_rv.mp4	0.0	244.81818985939026	0.1000521183013916
48	220.98281598091125	fix_pre	0		120	46.0	2.5	/experiments/knapen_AOT/AOT_stimuli/rescaled_final/0116_fw.mp4	0.0	244.91824197769165	1.0001308917999268
48	221.16630482673645	pulse	0	t		46.0	2.5	/experiments/knapen_AOT/AOT_stimuli/rescaled_final/0116_fw.mp4	0.0	245.10173082351685	
48	221.98294687271118	movie	1		246	46.0	2.5	/experiments/knapen_AOT/AOT_stimuli/rescaled_final/0116_fw.mp4	0.0	245.91837286949158	2.5003750324249268
48	222.76662182807922	pulse	1	t		46.0	2.5	/experiments/knapen_AOT/AOT_stimuli/rescaled_final/0116_fw.mp4	0.0	246.70204782485962	
48	224.3670530319214	pulse	1	t		46.0	2.5	/experiments/knapen_AOT/AOT_stimuli/rescaled_final/0116_fw.mp4	0.0	248.30247902870178	
48	224.4833219051361	fix_post	2		12	46.0	2.5	/experiments/knapen_AOT/AOT_stimuli/rescaled_final/0116_fw.mp4	0.0	248.4187479019165	0.10003495216369629
49	224.5833568572998	fix_pre	0		119	47.0	2.5	/experiments/knapen_AOT/AOT_stimuli/rescaled_final/1647_fw.mp4	0.0	248.5187828540802	0.99180006980896
49	225.57515692710876	movie	1		244	47.0	2.5	/experiments/knapen_AOT/AOT_stimuli/rescaled_final/1647_fw.mp4	0.0	249.51058292388916	2.5003468990325928
49	225.96325993537903	pulse	1	t		47.0	2.5	/experiments/knapen_AOT/AOT_stimuli/rescaled_final/1647_fw.mp4	0.0	249.89868593215942	
49	227.56724882125854	pulse	1	t		47.0	2.5	/experiments/knapen_AOT/AOT_stimuli/rescaled_final/1647_fw.mp4	0.0	251.50267481803894	
49	228.07550382614136	fix_post	2		12	47.0	2.5	/experiments/knapen_AOT/AOT_stimuli/rescaled_final/1647_fw.mp4	0.0	252.01092982292175	0.10005402565002441
50	228.17555785179138	fix_pre	0		120	48.0	2.5	blank	1.0	252.11098384857178	1.0002000331878662
50	229.16763496398926	pulse	0	t		48.0	2.5	blank	1.0	253.10306096076965	
50	229.17575788497925	movie	1		301	48.0	2.5	blank	1.0	253.11118388175964	2.508655071258545
50	230.76790595054626	pulse	1	t		48.0	2.5	blank	1.0	254.70333194732666	
50	231.6844129562378	fix_post	2		9	48.0	2.5	blank	1.0	255.6198389530182	0.09999585151672363
51	231.78440880775452	fix_pre	0		120	49.0	2.5	/experiments/knapen_AOT/AOT_stimuli/rescaled_final/0366_rv.mp4	0.0	255.7198348045349	1.0001389980316162
51	232.36061191558838	pulse	0	t		49.0	2.5	/experiments/knapen_AOT/AOT_stimuli/rescaled_final/0366_rv.mp4	0.0	256.2960379123688	
51	232.78454780578613	movie	1		244	49.0	2.5	/experiments/knapen_AOT/AOT_stimuli/rescaled_final/0366_rv.mp4	0.0	256.7199738025665	2.5004031658172607
51	233.96835088729858	pulse	1	t		49.0	2.5	/experiments/knapen_AOT/AOT_stimuli/rescaled_final/0366_rv.mp4	0.0	257.903776884079	
51	235.2849509716034	fix_post	2		12	49.0	2.5	/experiments/knapen_AOT/AOT_stimuli/rescaled_final/0366_rv.mp4	0.0	259.2203769683838	0.0999898910522461
52	235.38494086265564	fix_pre	0		120	50.0	2.5	/experiments/knapen_AOT/AOT_stimuli/rescaled_final/2161_rv.mp4	0.0	259.32036685943604	1.0001649856567383
52	235.56017684936523	pulse	0	t		50.0	2.5	/experiments/knapen_AOT/AOT_stimuli/rescaled_final/2161_rv.mp4	0.0	259.49560284614563	
52	236.38510584831238	movie	1		244	50.0	2.5	/experiments/knapen_AOT/AOT_stimuli/rescaled_final/2161_rv.mp4	0.0	260.3205318450928	2.5003721714019775
52	237.16043090820312	pulse	1	t		50.0	2.5	/experiments/knapen_AOT/AOT_stimuli/rescaled_final/2161_rv.mp4	0.0	261.0958569049835	
52	238.76063179969788	pulse	1	t		50.0	2.5	/experiments/knapen_AOT/AOT_stimuli/rescaled_final/2161_rv.mp4	0.0	262.69605779647827	
52	238.88547801971436	fix_post	2		12	50.0	2.5	/experiments/knapen_AOT/AOT_stimuli/rescaled_final/2161_rv.mp4	0.0	262.82090401649475	0.10001683235168457
53	238.98549485206604	fix_pre	0		120	51.0	2.5	/experiments/knapen_AOT/AOT_stimuli/rescaled_final/1040_fw.mp4	0.0	262.92092084884644	1.000133991241455
53	239.9856288433075	movie	1		242	51.0	2.5	/experiments/knapen_AOT/AOT_stimuli/rescaled_final/1040_fw.mp4	0.0	263.9210548400879	2.49206805229187
53	240.36100602149963	pulse	1	t		51.0	2.5	/experiments/knapen_AOT/AOT_stimuli/rescaled_final/1040_fw.mp4	0.0	264.29643201828003	
53	241.9612169265747	pulse	1	t		51.0	2.5	/experiments/knapen_AOT/AOT_stimuli/rescaled_final/1040_fw.mp4	0.0	265.8966429233551	
53	242.47769689559937	fix_post	2		12	51.0	2.5	/experiments/knapen_AOT/AOT_stimuli/rescaled_final/1040_fw.mp4	0.0	266.41312289237976	0.09997892379760742
54	242.57767581939697	fix_pre	0		119	52.0	2.5	/experiments/knapen_AOT/AOT_stimuli/rescaled_final/1406_fw.mp4	0.0	266.51310181617737	0.99186110496521
54	243.5613889694214	pulse	0	t		52.0	2.5	/experiments/knapen_AOT/AOT_stimuli/rescaled_final/1406_fw.mp4	0.0	267.4968149662018	
54	243.56953692436218	movie	1		245	52.0	2.5	/experiments/knapen_AOT/AOT_stimuli/rescaled_final/1406_fw.mp4	0.0	267.5049629211426	2.5086560249328613
54	245.1663420200348	pulse	1	t		52.0	2.5	/experiments/knapen_AOT/AOT_stimuli/rescaled_final/1406_fw.mp4	0.0	269.1017680168152	
54	246.07819294929504	fix_post	2		12	52.0	2.5	/experiments/knapen_AOT/AOT_stimuli/rescaled_final/1406_fw.mp4	0.0	270.01361894607544	0.10005998611450195
55	246.17825293540955	fix_pre	0		120	53.0	2.5	/experiments/knapen_AOT/AOT_stimuli/rescaled_final/0732_rv.mp4	0.0	270.11367893218994	1.0001609325408936
55	246.76187086105347	pulse	0	t		53.0	2.5	/experiments/knapen_AOT/AOT_stimuli/rescaled_final/0732_rv.mp4	0.0	270.69729685783386	
55	247.17841386795044	movie	1		245	53.0	2.5	/experiments/knapen_AOT/AOT_stimuli/rescaled_final/0732_rv.mp4	0.0	271.11383986473083	2.5003199577331543
55	248.3621859550476	pulse	1	t		53.0	2.5	/experiments/knapen_AOT/AOT_stimuli/rescaled_final/0732_rv.mp4	0.0	272.297611951828	
55	249.6787338256836	fix_post	2		12	53.0	2.5	/experiments/knapen_AOT/AOT_stimuli/rescaled_final/0732_rv.mp4	0.0	273.614159822464	0.10005402565002441
56	249.77878785133362	fix_pre	0		120	54.0	2.5	blank	1.0	273.714213848114	1.000204086303711
56	249.96227288246155	pulse	0	t		54.0	2.5	blank	1.0	273.89769887924194	
56	250.77899193763733	movie	1		300	54.0	2.5	blank	1.0	274.7144179344177	2.500300884246826
56	251.56260681152344	pulse	1	t		54.0	2.5	blank	1.0	275.49803280830383	
56	253.16276597976685	pulse	1	t		54.0	2.5	blank	1.0	277.09819197654724	
56	253.27929282188416	fix_post	2		12	54.0	2.5	blank	1.0	277.21471881866455	0.1000051498413086
57	253.37929797172546	fix_pre	0		120	55.0	2.5	/experiments/knapen_AOT/AOT_stimuli/rescaled_final/1073_fw.mp4	0.0	277.31472396850586	1.0001449584960938
57	254.37944293022156	movie	1		242	55.0	2.5	/experiments/knapen_AOT/AOT_stimuli/rescaled_final/1073_fw.mp4	0.0	278.31486892700195	2.4920449256896973
57	254.76385283470154	pulse	1	t		55.0	2.5	/experiments/knapen_AOT/AOT_stimuli/rescaled_final/1073_fw.mp4	0.0	278.69927883148193	
57	256.3632550239563	pulse	1	t		55.0	2.5	/experiments/knapen_AOT/AOT_stimuli/rescaled_final/1073_fw.mp4	0.0	280.2986810207367	
57	256.87148785591125	fix_post	2		12	55.0	2.5	/experiments/knapen_AOT/AOT_stimuli/rescaled_final/1073_fw.mp4	0.0	280.80691385269165	0.10001206398010254
58	256.97149991989136	fix_pre	0		120	56.0	2.5	/experiments/knapen_AOT/AOT_stimuli/rescaled_final/1183_rv.mp4	0.0	280.90692591667175	1.0001840591430664
58	257.96357893943787	pulse	0	t		56.0	2.5	/experiments/knapen_AOT/AOT_stimuli/rescaled_final/1183_rv.mp4	0.0	281.89900493621826	
58	257.9716839790344	movie	1		245	56.0	2.5	/experiments/knapen_AOT/AOT_stimuli/rescaled_final/1183_rv.mp4	0.0	281.9071099758148	2.508685827255249
58	259.5644688606262	pulse	1	t		56.0	2.5	/experiments/knapen_AOT/AOT_stimuli/rescaled_final/1183_rv.mp4	0.0	283.4998948574066	
58	260.4803698062897	fix_post	2		12	56.0	2.5	/experiments/knapen_AOT/AOT_stimuli/rescaled_final/1183_rv.mp4	0.0	284.41579580307007	0.10001111030578613
59	260.58038091659546	fix_pre	0		120	57.0	2.5	/experiments/knapen_AOT/AOT_stimuli/rescaled_final/1754_rv.mp4	0.0	284.51580691337585	1.00016188621521
59	261.1640419960022	pulse	0	t		57.0	2.5	/experiments/knapen_AOT/AOT_stimuli/rescaled_final/1754_rv.mp4	0.0	285.0994679927826	
59	261.58054280281067	movie	1		247	57.0	2.5	/experiments/knapen_AOT/AOT_stimuli/rescaled_final/1754_rv.mp4	0.0	285.51596879959106	2.5003581047058105
59	262.7642958164215	pulse	1	t		57.0	2.5	/experiments/knapen_AOT/AOT_stimuli/rescaled_final/1754_rv.mp4	0.0	286.6997218132019	
59	264.0809009075165	fix_post	2		12	57.0	2.5	/experiments/knapen_AOT/AOT_stimuli/rescaled_final/1754_rv.mp4	0.0	288.0163269042969	0.10007095336914062
60	264.1809718608856	fix_pre	0		120	58.0	2.5	/experiments/knapen_AOT/AOT_stimuli/rescaled_final/1952_fw.mp4	0.0	288.116397857666	1.0001120567321777
60	264.36451601982117	pulse	0	t		58.0	2.5	/experiments/knapen_AOT/AOT_stimuli/rescaled_final/1952_fw.mp4	0.0	288.29994201660156	
60	265.1810839176178	movie	1		245	58.0	2.5	/experiments/knapen_AOT/AOT_stimuli/rescaled_final/1952_fw.mp4	0.0	289.1165099143982	2.5003979206085205
60	265.9647469520569	pulse	1	t		58.0	2.5	/experiments/knapen_AOT/AOT_stimuli/rescaled_final/1952_fw.mp4	0.0	289.9001729488373	
60	267.5650098323822	pulse	1	t		58.0	2.5	/experiments/knapen_AOT/AOT_stimuli/rescaled_final/1952_fw.mp4	0.0	291.5004358291626	
60	267.6814818382263	fix_post	2		12	58.0	2.5	/experiments/knapen_AOT/AOT_stimuli/rescaled_final/1952_fw.mp4	0.0	291.6169078350067	0.10000801086425781
61	267.7814898490906	fix_pre	0		120	59.0	2.5	/experiments/knapen_AOT/AOT_stimuli/rescaled_final/1686_fw.mp4	0.0	291.716915845871	1.0001070499420166
61	268.7815968990326	movie	1		243	59.0	2.5	/experiments/knapen_AOT/AOT_stimuli/rescaled_final/1686_fw.mp4	0.0	292.717022895813	2.4920380115509033
61	269.1699159145355	pulse	1	t		59.0	2.5	/experiments/knapen_AOT/AOT_stimuli/rescaled_final/1686_fw.mp4	0.0	293.1053419113159	
61	270.7655518054962	pulse	1	t		59.0	2.5	/experiments/knapen_AOT/AOT_stimuli/rescaled_final/1686_fw.mp4	0.0	294.7009778022766	
61	271.2736349105835	fix_post	2		12	59.0	2.5	/experiments/knapen_AOT/AOT_stimuli/rescaled_final/1686_fw.mp4	0.0	295.2090609073639	0.10003399848937988
62	271.3736689090729	fix_pre	0		120	60.0	2.5	/experiments/knapen_AOT/AOT_stimuli/rescaled_final/1054_fw.mp4	0.0	295.30909490585327	1.0001709461212158
62	272.36575293540955	pulse	0	t		60.0	2.5	/experiments/knapen_AOT/AOT_stimuli/rescaled_final/1054_fw.mp4	0.0	296.30117893218994	
62	272.3738398551941	movie	1		244	60.0	2.5	/experiments/knapen_AOT/AOT_stimuli/rescaled_final/1054_fw.mp4	0.0	296.3092658519745	2.508716106414795
62	273.9664669036865	pulse	1	t		60.0	2.5	/experiments/knapen_AOT/AOT_stimuli/rescaled_final/1054_fw.mp4	0.0	297.9018929004669	
62	274.8825559616089	fix_post	2		12	60.0	2.5	/experiments/knapen_AOT/AOT_stimuli/rescaled_final/1054_fw.mp4	0.0	298.8179819583893	0.09998297691345215
63	274.98253893852234	fix_pre	0		120	61.0	2.5	blank	1.0	298.91796493530273	1.0002119541168213
63	275.56611800193787	pulse	0	t		61.0	2.5	blank	1.0	299.50154399871826	
63	275.98275089263916	movie	1		300	61.0	2.5	blank	1.0	299.91817688941956	2.5003299713134766
63	277.16649103164673	pulse	1	t		61.0	2.5	blank	1.0	301.1019170284271	
63	278.48308086395264	fix_post	2		12	61.0	2.5	blank	1.0	302.41850686073303	0.09997797012329102
64	278.5830588340759	fix_pre	0		120	62.0	2.5	/experiments/knapen_AOT/AOT_stimuli/rescaled_final/0678_rv.mp4	0.0	302.5184848308563	1.0001940727233887
64	278.76672887802124	pulse	0	t		62.0	2.5	/experiments/knapen_AOT/AOT_stimuli/rescaled_final/0678_rv.mp4	0.0	302.70215487480164	
64	279.5832529067993	movie	1		244	62.0	2.5	/experiments/knapen_AOT/AOT_stimuli/rescaled_final/0678_rv.mp4	0.0	303.5186789035797	2.500338077545166
64	280.36694288253784	pulse	1	t		62.0	2.5	/experiments/knapen_AOT/AOT_stimuli/rescaled_final/0678_rv.mp4	0.0	304.30236887931824	
64	281.9671788215637	pulse	1	t		62.0	2.5	/experiments/knapen_AOT/AOT_stimuli/rescaled_final/0678_rv.mp4	0.0	305.9026048183441	
64	282.0835909843445	fix_post	2		12	62.0	2.5	/experiments/knapen_AOT/AOT_stimuli/rescaled_final/0678_rv.mp4	0.0	306.0190169811249	0.10002493858337402
65	282.18361592292786	fix_pre	0		120	63.0	2.5	/experiments/knapen_AOT/AOT_stimuli/rescaled_final/0596_fw.mp4	0.0	306.11904191970825	1.0001709461212158
65	283.1837868690491	movie	1		243	63.0	2.5	/experiments/knapen_AOT/AOT_stimuli/rescaled_final/0596_fw.mp4	0.0	307.11921286582947	2.4920151233673096
65	283.5679860115051	pulse	1	t		63.0	2.5	/experiments/knapen_AOT/AOT_stimuli/rescaled_final/0596_fw.mp4	0.0	307.5034120082855	
65	285.16770696640015	pulse	1	t		63.0	2.5	/experiments/knapen_AOT/AOT_stimuli/rescaled_final/0596_fw.mp4	0.0	309.10313296318054	
65	285.6758019924164	fix_post	2		12	63.0	2.5	/experiments/knapen_AOT/AOT_stimuli/rescaled_final/0596_fw.mp4	0.0	309.6112279891968	0.10005688667297363
66	285.77585887908936	fix_pre	0		120	64.0	2.5	/experiments/knapen_AOT/AOT_stimuli/rescaled_final/0508_rv.mp4	0.0	309.71128487586975	1.0001349449157715
66	286.76794695854187	pulse	0	t		64.0	2.5	/experiments/knapen_AOT/AOT_stimuli/rescaled_final/0508_rv.mp4	0.0	310.70337295532227	
66	286.7759938240051	movie	1		246	64.0	2.5	/experiments/knapen_AOT/AOT_stimuli/rescaled_final/0508_rv.mp4	0.0	310.7114198207855	2.508671998977661
66	288.3686809539795	pulse	1	t		64.0	2.5	/experiments/knapen_AOT/AOT_stimuli/rescaled_final/0508_rv.mp4	0.0	312.3041069507599	
66	289.2846658229828	fix_post	2		12	64.0	2.5	/experiments/knapen_AOT/AOT_stimuli/rescaled_final/0508_rv.mp4	0.0	313.2200918197632	0.10003018379211426
67	289.3846960067749	fix_pre	0		120	65.0	2.5	/experiments/knapen_AOT/AOT_stimuli/rescaled_final/1463_fw.mp4	0.0	313.3201220035553	1.00016188621521
67	289.9607980251312	pulse	0	t		65.0	2.5	/experiments/knapen_AOT/AOT_stimuli/rescaled_final/1463_fw.mp4	0.0	313.8962240219116	
67	290.3848578929901	movie	1		244	65.0	2.5	/experiments/knapen_AOT/AOT_stimuli/rescaled_final/1463_fw.mp4	0.0	314.3202838897705	2.5003440380096436
67	291.5613548755646	pulse	1	t		65.0	2.5	/experiments/knapen_AOT/AOT_stimuli/rescaled_final/1463_fw.mp4	0.0	315.49678087234497	
67	292.88520193099976	fix_post	2		10	65.0	2.5	/experiments/knapen_AOT/AOT_stimuli/rescaled_final/1463_fw.mp4	0.0	316.82062792778015	0.1001119613647461
68	292.9853138923645	fix_pre	0		120	66.0	2.5	/experiments/knapen_AOT/AOT_stimuli/rescaled_final/1578_rv.mp4	0.0	316.9207398891449	1.0000970363616943
68	293.1613039970398	pulse	0	t		66.0	2.5	/experiments/knapen_AOT/AOT_stimuli/rescaled_final/1578_rv.mp4	0.0	317.0967299938202	
68	293.9854109287262	movie	1		247	66.0	2.5	/experiments/knapen_AOT/AOT_stimuli/rescaled_final/1578_rv.mp4	0.0	317.9208369255066	2.5003209114074707
68	294.7608518600464	pulse	1	t		66.0	2.5	/experiments/knapen_AOT/AOT_stimuli/rescaled_final/1578_rv.mp4	0.0	318.6962778568268	
68	296.36086201667786	pulse	1	t		66.0	2.5	/experiments/knapen_AOT/AOT_stimuli/rescaled_final/1578_rv.mp4	0.0	320.29628801345825	
68	296.48573184013367	fix_post	2		12	66.0	2.5	/experiments/knapen_AOT/AOT_stimuli/rescaled_final/1578_rv.mp4	0.0	320.42115783691406	0.10005807876586914
69	296.58578991889954	fix_pre	0		120	67.0	2.5	/experiments/knapen_AOT/AOT_stimuli/rescaled_final/1427_fw.mp4	0.0	320.52121591567993	1.0001380443572998
69	297.58592796325684	movie	1		247	67.0	2.5	/experiments/knapen_AOT/AOT_stimuli/rescaled_final/1427_fw.mp4	0.0	321.52135396003723	2.492020845413208
69	297.9611430168152	pulse	1	t		67.0	2.5	/experiments/knapen_AOT/AOT_stimuli/rescaled_final/1427_fw.mp4	0.0	321.8965690135956	
69	299.5615379810333	pulse	1	t		67.0	2.5	/experiments/knapen_AOT/AOT_stimuli/rescaled_final/1427_fw.mp4	0.0	323.4969639778137	
69	300.07794880867004	fix_post	2		12	67.0	2.5	/experiments/knapen_AOT/AOT_stimuli/rescaled_final/1427_fw.mp4	0.0	324.01337480545044	0.10001015663146973
70	300.1779589653015	fix_pre	0		119	68.0	2.5	blank	1.0	324.1133849620819	0.9918599128723145
70	301.16164088249207	pulse	0	t		68.0	2.5	blank	1.0	325.09706687927246	
70	301.1698188781738	movie	1		301	68.0	2.5	blank	1.0	325.1052448749542	2.508692979812622
70	302.7620189189911	pulse	1	t		68.0	2.5	blank	1.0	326.6974449157715	
70	303.67851185798645	fix_post	2		12	68.0	2.5	blank	1.0	327.61393785476685	0.1000070571899414
71	303.7785189151764	fix_pre	0		120	69.0	2.5	/experiments/knapen_AOT/AOT_stimuli/rescaled_final/0526_fw.mp4	0.0	327.7139449119568	1.0001800060272217
71	304.3621199131012	pulse	0	t		69.0	2.5	/experiments/knapen_AOT/AOT_stimuli/rescaled_final/0526_fw.mp4	0.0	328.2975459098816	
71	304.7786989212036	movie	1		244	69.0	2.5	/experiments/knapen_AOT/AOT_stimuli/rescaled_final/0526_fw.mp4	0.0	328.714124917984	2.5003199577331543
71	305.9624218940735	pulse	1	t		69.0	2.5	/experiments/knapen_AOT/AOT_stimuli/rescaled_final/0526_fw.mp4	0.0	329.8978478908539	
71	307.27901887893677	fix_post	2		12	69.0	2.5	/experiments/knapen_AOT/AOT_stimuli/rescaled_final/0526_fw.mp4	0.0	331.21444487571716	0.10004305839538574
72	307.37906193733215	fix_pre	0		120	70.0	2.5	/experiments/knapen_AOT/AOT_stimuli/rescaled_final/0348_rv.mp4	0.0	331.31448793411255	1.000154972076416
72	307.56277084350586	pulse	0	t		70.0	2.5	/experiments/knapen_AOT/AOT_stimuli/rescaled_final/0348_rv.mp4	0.0	331.49819684028625	
72	308.37921690940857	movie	1		243	70.0	2.5	/experiments/knapen_AOT/AOT_stimuli/rescaled_final/0348_rv.mp4	0.0	332.31464290618896	2.500354051589966
72	309.16293692588806	pulse	1	t		70.0	2.5	/experiments/knapen_AOT/AOT_stimuli/rescaled_final/0348_rv.mp4	0.0	333.09836292266846	
72	310.7627499103546	pulse	1	t		70.0	2.5	/experiments/knapen_AOT/AOT_stimuli/rescaled_final/0348_rv.mp4	0.0	334.698175907135	
72	310.87957096099854	fix_post	2		12	70.0	2.5	/experiments/knapen_AOT/AOT_stimuli/rescaled_final/0348_rv.mp4	0.0	334.81499695777893	0.10002493858337402
73	310.9795958995819	fix_pre	0		120	71.0	2.5	/experiments/knapen_AOT/AOT_stimuli/rescaled_final/1220_rv.mp4	0.0	334.9150218963623	1.0001890659332275
73	311.97978496551514	movie	1		243	71.0	2.5	/experiments/knapen_AOT/AOT_stimuli/rescaled_final/1220_rv.mp4	0.0	335.91521096229553	2.491956949234009
73	312.3640239238739	pulse	1	t		71.0	2.5	/experiments/knapen_AOT/AOT_stimuli/rescaled_final/1220_rv.mp4	0.0	336.2994499206543	
73	313.96363592147827	pulse	1	t		71.0	2.5	/experiments/knapen_AOT/AOT_stimuli/rescaled_final/1220_rv.mp4	0.0	337.89906191825867	
73	314.47174191474915	fix_post	2		12	71.0	2.5	/experiments/knapen_AOT/AOT_stimuli/rescaled_final/1220_rv.mp4	0.0	338.40716791152954	0.10004806518554688
74	314.5717899799347	fix_pre	0		120	72.0	2.5	/experiments/knapen_AOT/AOT_stimuli/rescaled_final/0687_fw.mp4	0.0	338.5072159767151	1.0001459121704102
74	315.56388783454895	pulse	0	t		72.0	2.5	/experiments/knapen_AOT/AOT_stimuli/rescaled_final/0687_fw.mp4	0.0	339.49931383132935	
74	315.5719358921051	movie	1		246	72.0	2.5	/experiments/knapen_AOT/AOT_stimuli/rescaled_final/0687_fw.mp4	0.0	339.5073618888855	2.5086989402770996
74	317.1648750305176	pulse	1	t		72.0	2.5	/experiments/knapen_AOT/AOT_stimuli/rescaled_final/0687_fw.mp4	0.0	341.100301027298	
74	318.0806348323822	fix_post	2		12	72.0	2.5	/experiments/knapen_AOT/AOT_stimuli/rescaled_final/0687_fw.mp4	0.0	342.0160608291626	0.10005307197570801
75	318.1806879043579	fix_pre	0		120	73.0	2.5	/experiments/knapen_AOT/AOT_stimuli/rescaled_final/0146_fw.mp4	0.0	342.1161139011383	1.0001420974731445
75	318.7642619609833	pulse	0	t		73.0	2.5	/experiments/knapen_AOT/AOT_stimuli/rescaled_final/0146_fw.mp4	0.0	342.6996879577637	
75	319.18083000183105	movie	1		245	73.0	2.5	/experiments/knapen_AOT/AOT_stimuli/rescaled_final/0146_fw.mp4	0.0	343.11625599861145	2.5003268718719482
75	320.3645758628845	pulse	1	t		73.0	2.5	/experiments/knapen_AOT/AOT_stimuli/rescaled_final/0146_fw.mp4	0.0	344.3000018596649	
75	321.681156873703	fix_post	2		12	73.0	2.5	/experiments/knapen_AOT/AOT_stimuli/rescaled_final/0146_fw.mp4	0.0	345.6165828704834	0.10002994537353516
76	321.78118681907654	fix_pre	0		120	74.0	2.5	/experiments/knapen_AOT/AOT_stimuli/rescaled_final/0735_rv.mp4	0.0	345.71661281585693	1.0001871585845947
76	321.96494603157043	pulse	0	t		74.0	2.5	/experiments/knapen_AOT/AOT_stimuli/rescaled_final/0735_rv.mp4	0.0	345.90037202835083	
76	322.78137397766113	movie	1		246	74.0	2.5	/experiments/knapen_AOT/AOT_stimuli/rescaled_final/0735_rv.mp4	0.0	346.7167999744415	2.5003299713134766
76	323.5651478767395	pulse	1	t		74.0	2.5	/experiments/knapen_AOT/AOT_stimuli/rescaled_final/0735_rv.mp4	0.0	347.5005738735199	
76	325.16528391838074	pulse	1	t		74.0	2.5	/experiments/knapen_AOT/AOT_stimuli/rescaled_final/0735_rv.mp4	0.0	349.10070991516113	
76	325.2817039489746	fix_post	2		12	74.0	2.5	/experiments/knapen_AOT/AOT_stimuli/rescaled_final/0735_rv.mp4	0.0	349.217129945755	0.1000678539276123
77	325.3817718029022	fix_pre	0		120	75.0	2.5	/experiments/knapen_AOT/AOT_stimuli/rescaled_final/1436_rv.mp4	0.0	349.3171977996826	1.000096082687378
77	326.3818678855896	movie	1		243	75.0	2.5	/experiments/knapen_AOT/AOT_stimuli/rescaled_final/1436_rv.mp4	0.0	350.31729388237	2.4920430183410645
77	326.7662179470062	pulse	1	t		75.0	2.5	/experiments/knapen_AOT/AOT_stimuli/rescaled_final/1436_rv.mp4	0.0	350.7016439437866	
77	328.3657898902893	pulse	1	t		75.0	2.5	/experiments/knapen_AOT/AOT_stimuli/rescaled_final/1436_rv.mp4	0.0	352.3012158870697	
77	328.87391090393066	fix_post	2		12	75.0	2.5	/experiments/knapen_AOT/AOT_stimuli/rescaled_final/1436_rv.mp4	0.0	352.80933690071106	0.10003304481506348
78	328.9739439487457	fix_pre	0		120	76.0	2.5	blank	1.0	352.9093699455261	1.0002310276031494
78	329.96600580215454	pulse	0	t		76.0	2.5	blank	1.0	353.90143179893494	
78	329.9741749763489	movie	1		301	76.0	2.5	blank	1.0	353.9096009731293	2.5086989402770996
78	331.56614685058594	pulse	1	t		76.0	2.5	blank	1.0	355.50157284736633	
78	332.482873916626	fix_post	2		12	76.0	2.5	blank	1.0	356.4182999134064	0.0999600887298584
79	332.58283400535583	fix_pre	0		120	77.0	2.5	/experiments/knapen_AOT/AOT_stimuli/rescaled_final/0091_rv.mp4	0.0	356.51826000213623	1.0001368522644043
79	333.16653299331665	pulse	0	t		77.0	2.5	/experiments/knapen_AOT/AOT_stimuli/rescaled_final/0091_rv.mp4	0.0	357.10195899009705	
79	333.58297085762024	movie	1		246	77.0	2.5	/experiments/knapen_AOT/AOT_stimuli/rescaled_final/0091_rv.mp4	0.0	357.51839685440063	2.5003371238708496
79	334.7668068408966	pulse	1	t		77.0	2.5	/experiments/knapen_AOT/AOT_stimuli/rescaled_final/0091_rv.mp4	0.0	358.702232837677	
79	336.0833079814911	fix_post	2		12	77.0	2.5	/experiments/knapen_AOT/AOT_stimuli/rescaled_final/0091_rv.mp4	0.0	360.0187339782715	0.10003995895385742
80	336.18334794044495	fix_pre	0		120	78.0	2.5	/experiments/knapen_AOT/AOT_stimuli/rescaled_final/1695_fw.mp4	0.0	360.11877393722534	1.0001659393310547
80	336.36695981025696	pulse	0	t		78.0	2.5	/experiments/knapen_AOT/AOT_stimuli/rescaled_final/1695_fw.mp4	0.0	360.30238580703735	
80	337.183513879776	movie	1		243	78.0	2.5	/experiments/knapen_AOT/AOT_stimuli/rescaled_final/1695_fw.mp4	0.0	361.1189398765564	2.5003371238708496
80	337.96718287467957	pulse	1	t		78.0	2.5	/experiments/knapen_AOT/AOT_stimuli/rescaled_final/1695_fw.mp4	0.0	361.90260887145996	
80	339.56745195388794	pulse	1	t		78.0	2.5	/experiments/knapen_AOT/AOT_stimuli/rescaled_final/1695_fw.mp4	0.0	363.50287795066833	
80	339.68385100364685	fix_post	2		12	78.0	2.5	/experiments/knapen_AOT/AOT_stimuli/rescaled_final/1695_fw.mp4	0.0	363.61927700042725	0.1000669002532959
81	339.78391790390015	fix_pre	0		120	79.0	2.5	/experiments/knapen_AOT/AOT_stimuli/rescaled_final/1522_rv.mp4	0.0	363.71934390068054	1.000108003616333
81	340.7840259075165	movie	1		243	79.0	2.5	/experiments/knapen_AOT/AOT_stimuli/rescaled_final/1522_rv.mp4	0.0	364.7194519042969	2.4920620918273926
81	341.1687319278717	pulse	1	t		79.0	2.5	/experiments/knapen_AOT/AOT_stimuli/rescaled_final/1522_rv.mp4	0.0	365.1041579246521	
81	342.76056599617004	pulse	1	t		79.0	2.5	/experiments/knapen_AOT/AOT_stimuli/rescaled_final/1522_rv.mp4	0.0	366.69599199295044	
81	343.2760879993439	fix_post	2		12	79.0	2.5	/experiments/knapen_AOT/AOT_stimuli/rescaled_final/1522_rv.mp4	0.0	367.21151399612427	0.10004687309265137
82	343.3761348724365	fix_pre	0		120	80.0	2.5	/experiments/knapen_AOT/AOT_stimuli/rescaled_final/1515_rv.mp4	0.0	367.3115608692169	1.0001590251922607
82	344.3605709075928	pulse	0	t		80.0	2.5	/experiments/knapen_AOT/AOT_stimuli/rescaled_final/1515_rv.mp4	0.0	368.29599690437317	
82	344.3762938976288	movie	1		245	80.0	2.5	/experiments/knapen_AOT/AOT_stimuli/rescaled_final/1515_rv.mp4	0.0	368.3117198944092	2.5086629390716553
82	345.9698498249054	pulse	1	t		80.0	2.5	/experiments/knapen_AOT/AOT_stimuli/rescaled_final/1515_rv.mp4	0.0	369.9052758216858	
82	346.88495683670044	fix_post	2		12	80.0	2.5	/experiments/knapen_AOT/AOT_stimuli/rescaled_final/1515_rv.mp4	0.0	370.82038283348083	0.1000211238861084
83	346.98497796058655	fix_pre	0		120	81.0	2.5	/experiments/knapen_AOT/AOT_stimuli/rescaled_final/1829_fw.mp4	0.0	370.92040395736694	1.0001509189605713
83	347.5604088306427	pulse	0	t		81.0	2.5	/experiments/knapen_AOT/AOT_stimuli/rescaled_final/1829_fw.mp4	0.0	371.4958348274231	
83	347.9851288795471	movie	1		246	81.0	2.5	/experiments/knapen_AOT/AOT_stimuli/rescaled_final/1829_fw.mp4	0.0	371.9205548763275	2.5003581047058105
83	349.1647210121155	pulse	1	t		81.0	2.5	/experiments/knapen_AOT/AOT_stimuli/rescaled_final/1829_fw.mp4	0.0	373.1001470088959	
83	350.48548698425293	fix_post	2		12	81.0	2.5	/experiments/knapen_AOT/AOT_stimuli/rescaled_final/1829_fw.mp4	0.0	374.4209129810333	0.10008788108825684
84	350.5855748653412	fix_pre	0		120	82.0	2.5	/experiments/knapen_AOT/AOT_stimuli/rescaled_final/2130_fw.mp4	0.0	374.5210008621216	1.0001111030578613
84	350.76067996025085	pulse	0	t		82.0	2.5	/experiments/knapen_AOT/AOT_stimuli/rescaled_final/2130_fw.mp4	0.0	374.69610595703125	
84	351.58568596839905	movie	1		243	82.0	2.5	/experiments/knapen_AOT/AOT_stimuli/rescaled_final/2130_fw.mp4	0.0	375.52111196517944	2.5003418922424316
84	352.3609538078308	pulse	1	t		82.0	2.5	/experiments/knapen_AOT/AOT_stimuli/rescaled_final/2130_fw.mp4	0.0	376.2963798046112	
84	353.961149930954	pulse	1	t		82.0	2.5	/experiments/knapen_AOT/AOT_stimuli/rescaled_final/2130_fw.mp4	0.0	377.8965759277344	
84	354.0860278606415	fix_post	2		12	82.0	2.5	/experiments/knapen_AOT/AOT_stimuli/rescaled_final/2130_fw.mp4	0.0	378.0214538574219	0.1000051498413086
85	354.1860330104828	fix_pre	0		119	83.0	2.5	blank	1.0	378.1214590072632	0.9918348789215088
85	355.1778678894043	movie	1		300	83.0	2.5	blank	1.0	379.1132938861847	2.500369071960449
85	355.56156301498413	pulse	1	t		83.0	2.5	blank	1.0	379.4969890117645	
85	357.16169691085815	pulse	1	t		83.0	2.5	blank	1.0	381.09712290763855	
85	357.67823696136475	fix_post	2		12	83.0	2.5	blank	1.0	381.61366295814514	0.10000300407409668
87	357.77823996543884	stim	0		1716					381.71366596221924	14.3022780418396
87	358.7619118690491	pulse	0	t						382.69733786582947	
87	360.36213994026184	pulse	0	t						384.29756593704224	
87	361.9624559879303	pulse	0	t						385.8978819847107	
87	363.5626368522644	pulse	0	t						387.4980628490448	
87	365.162889957428	pulse	0	t						389.0983159542084	
87	366.7630259990692	pulse	0	t						390.6984519958496	
87	368.3633379936218	pulse	0	t						392.2987639904022	
87	369.96353697776794	pulse	0	t						393.89896297454834	
87	371.5638778209686	pulse	0	t						395.499303817749	
