trial_nr	onset	event_type	phase	response	nr_frames	movie_index	movie_duration	movie_file	blank	onset_abs	duration
0	0.15831613540649414	stim	0		254					24.17138910293579	2.116532802581787
0	2.266940116882324	response	0	space						26.28001308441162	
1	2.2748489379882812	stim	0		6054					26.287921905517578	50.4497230052948
1	52.71415114402771	pulse	0	t						76.727224111557	
1	52.72457194328308	stim	1		1717					76.73764491081238	14.308333158493042
1	54.309049129486084	pulse	1	t						78.32212209701538	
1	55.908222913742065	pulse	1	t						79.92129588127136	
1	57.508121967315674	pulse	1	t						81.52119493484497	
1	59.10811710357666	pulse	1	t						83.12119007110596	
1	60.70812511444092	pulse	1	t						84.72119808197021	
1	62.3079879283905	pulse	1	t						86.3210608959198	
1	63.90800213813782	pulse	1	t						87.92107510566711	
1	65.50884103775024	pulse	1	t						89.52191400527954	
2	67.03290510177612	fix_pre	0		11	0.0	2.5	/experiments/AOT/AOT_stimuli/rescaled_final/0676_rv.mp4	0.0	91.04597806930542	0.09162497520446777
2	67.10889005661011	pulse	0	t		0.0	2.5	/experiments/AOT/AOT_stimuli/rescaled_final/0676_rv.mp4	0.0	91.1219630241394	
2	67.12453007698059	movie	1		243	0.0	2.5	/experiments/AOT/AOT_stimuli/rescaled_final/0676_rv.mp4	0.0	91.13760304450989	2.508362054824829
2	68.71604514122009	pulse	1	t		0.0	2.5	/experiments/AOT/AOT_stimuli/rescaled_final/0676_rv.mp4	0.0	92.72911810874939	
2	69.63289213180542	fix_post	2		12	0.0	2.5	/experiments/AOT/AOT_stimuli/rescaled_final/0676_rv.mp4	0.0	93.64596509933472	0.10001277923583984
3	69.73290491104126	fix_pre	0		120	1.0	2.5	/experiments/AOT/AOT_stimuli/rescaled_final/1944_fw.mp4	0.0	93.74597787857056	1.000035047531128
3	70.30888414382935	pulse	0	t		1.0	2.5	/experiments/AOT/AOT_stimuli/rescaled_final/1944_fw.mp4	0.0	94.32195711135864	
3	70.73293995857239	movie	1		244	1.0	2.5	/experiments/AOT/AOT_stimuli/rescaled_final/1944_fw.mp4	0.0	94.74601292610168	2.500009059906006
3	71.91635799407959	pulse	1	t		1.0	2.5	/experiments/AOT/AOT_stimuli/rescaled_final/1944_fw.mp4	0.0	95.92943096160889	
3	73.2329490184784	fix_post	2		12	1.0	2.5	/experiments/AOT/AOT_stimuli/rescaled_final/1944_fw.mp4	0.0	97.24602198600769	0.09998893737792969
4	73.33293795585632	fix_pre	0		120	2.0	2.5	/experiments/AOT/AOT_stimuli/rescaled_final/0102_fw.mp4	0.0	97.34601092338562	0.9999401569366455
4	73.50875091552734	pulse	0	t		2.0	2.5	/experiments/AOT/AOT_stimuli/rescaled_final/0102_fw.mp4	0.0	97.52182388305664	
4	74.33287811279297	movie	1		246	2.0	2.5	/experiments/AOT/AOT_stimuli/rescaled_final/0102_fw.mp4	0.0	98.34595108032227	2.500051975250244
4	75.10956597328186	pulse	1	t		2.0	2.5	/experiments/AOT/AOT_stimuli/rescaled_final/0102_fw.mp4	0.0	99.12263894081116	
4	76.7146999835968	pulse	1	t		2.0	2.5	/experiments/AOT/AOT_stimuli/rescaled_final/0102_fw.mp4	0.0	100.7277729511261	
4	76.83293008804321	fix_post	2		12	2.0	2.5	/experiments/AOT/AOT_stimuli/rescaled_final/0102_fw.mp4	0.0	100.84600305557251	0.0995628833770752
5	76.93249297142029	fix_pre	0		120	3.0	2.5	/experiments/AOT/AOT_stimuli/rescaled_final/0600_rv.mp4	0.0	100.94556593894958	1.0001730918884277
5	77.93266606330872	movie	1		245	3.0	2.5	/experiments/AOT/AOT_stimuli/rescaled_final/0600_rv.mp4	0.0	101.94573903083801	2.5002238750457764
5	78.31565809249878	pulse	1	t		3.0	2.5	/experiments/AOT/AOT_stimuli/rescaled_final/0600_rv.mp4	0.0	102.32873106002808	
5	79.9081039428711	pulse	1	t		3.0	2.5	/experiments/AOT/AOT_stimuli/rescaled_final/0600_rv.mp4	0.0	103.92117691040039	
5	80.43288993835449	fix_post	2		12	3.0	2.5	/experiments/AOT/AOT_stimuli/rescaled_final/0600_rv.mp4	0.0	104.44596290588379	0.10011410713195801
6	80.53300404548645	fix_pre	0		119	4.0	2.5	/experiments/AOT/AOT_stimuli/rescaled_final/1735_fw.mp4	0.0	104.54607701301575	0.9915370941162109
6	81.50890302658081	pulse	0	t		4.0	2.5	/experiments/AOT/AOT_stimuli/rescaled_final/1735_fw.mp4	0.0	105.52197599411011	
6	81.52454113960266	movie	1		245	4.0	2.5	/experiments/AOT/AOT_stimuli/rescaled_final/1735_fw.mp4	0.0	105.53761410713196	2.50836181640625
6	83.11640810966492	pulse	1	t		4.0	2.5	/experiments/AOT/AOT_stimuli/rescaled_final/1735_fw.mp4	0.0	107.12948107719421	
6	84.03290295600891	fix_post	2		12	4.0	2.5	/experiments/AOT/AOT_stimuli/rescaled_final/1735_fw.mp4	0.0	108.04597592353821	0.09990906715393066
7	84.13281202316284	fix_pre	0		120	5.0	2.5	blank	1.0	108.14588499069214	1.000020980834961
7	84.70884704589844	pulse	0	t		5.0	2.5	blank	1.0	108.72192001342773	
7	85.1328330039978	movie	1		300	5.0	2.5	blank	1.0	109.1459059715271	2.500023126602173
7	86.30871891975403	pulse	1	t		5.0	2.5	blank	1.0	110.32179188728333	
7	87.63285613059998	fix_post	2		12	5.0	2.5	blank	1.0	111.64592909812927	0.1000058650970459
8	87.73286199569702	fix_pre	0		120	6.0	2.5	/experiments/AOT/AOT_stimuli/rescaled_final/1748_fw.mp4	0.0	111.74593496322632	0.9999880790710449
8	87.90877604484558	pulse	0	t		6.0	2.5	/experiments/AOT/AOT_stimuli/rescaled_final/1748_fw.mp4	0.0	111.92184901237488	
8	88.73285007476807	movie	1		242	6.0	2.5	/experiments/AOT/AOT_stimuli/rescaled_final/1748_fw.mp4	0.0	112.74592304229736	2.499940872192383
8	89.50885009765625	pulse	1	t		6.0	2.5	/experiments/AOT/AOT_stimuli/rescaled_final/1748_fw.mp4	0.0	113.52192306518555	
8	91.11426091194153	pulse	1	t		6.0	2.5	/experiments/AOT/AOT_stimuli/rescaled_final/1748_fw.mp4	0.0	115.12733387947083	
8	91.23279094696045	fix_post	2		12	6.0	2.5	/experiments/AOT/AOT_stimuli/rescaled_final/1748_fw.mp4	0.0	115.24586391448975	0.09997916221618652
9	91.33277010917664	fix_pre	0		120	7.0	2.5	/experiments/AOT/AOT_stimuli/rescaled_final/0003_rv.mp4	0.0	115.34584307670593	0.9999768733978271
9	92.33274698257446	movie	1		245	7.0	2.5	/experiments/AOT/AOT_stimuli/rescaled_final/0003_rv.mp4	0.0	116.34581995010376	2.500049114227295
9	92.7157211303711	pulse	1	t		7.0	2.5	/experiments/AOT/AOT_stimuli/rescaled_final/0003_rv.mp4	0.0	116.72879409790039	
9	94.3080530166626	pulse	1	t		7.0	2.5	/experiments/AOT/AOT_stimuli/rescaled_final/0003_rv.mp4	0.0	118.3211259841919	
9	94.83279609680176	fix_post	2		12	7.0	2.5	/experiments/AOT/AOT_stimuli/rescaled_final/0003_rv.mp4	0.0	118.84586906433105	0.10008382797241211
10	94.93287992477417	fix_pre	0		118	8.0	2.5	/experiments/AOT/AOT_stimuli/rescaled_final/0715_rv.mp4	0.0	118.94595289230347	0.9832601547241211
10	95.90790390968323	pulse	0	t		8.0	2.5	/experiments/AOT/AOT_stimuli/rescaled_final/0715_rv.mp4	0.0	119.92097687721252	
10	95.91614007949829	movie	1		246	8.0	2.5	/experiments/AOT/AOT_stimuli/rescaled_final/0715_rv.mp4	0.0	119.92921304702759	2.5083348751068115
10	97.51643013954163	pulse	1	t		8.0	2.5	/experiments/AOT/AOT_stimuli/rescaled_final/0715_rv.mp4	0.0	121.52950310707092	
10	98.4244749546051	fix_post	2		12	8.0	2.5	/experiments/AOT/AOT_stimuli/rescaled_final/0715_rv.mp4	0.0	122.4375479221344	0.09996414184570312
11	98.5244390964508	fix_pre	0		120	9.0	2.5	/experiments/AOT/AOT_stimuli/rescaled_final/1520_fw.mp4	0.0	122.5375120639801	0.9999940395355225
11	99.10880994796753	pulse	0	t		9.0	2.5	/experiments/AOT/AOT_stimuli/rescaled_final/1520_fw.mp4	0.0	123.12188291549683	
11	99.52443313598633	movie	1		246	9.0	2.5	/experiments/AOT/AOT_stimuli/rescaled_final/1520_fw.mp4	0.0	123.53750610351562	2.499600887298584
11	100.70902609825134	pulse	1	t		9.0	2.5	/experiments/AOT/AOT_stimuli/rescaled_final/1520_fw.mp4	0.0	124.72209906578064	
11	102.02403402328491	fix_post	2		12	9.0	2.5	/experiments/AOT/AOT_stimuli/rescaled_final/1520_fw.mp4	0.0	126.03710699081421	0.10038399696350098
12	102.12441802024841	fix_pre	0		120	10.0	2.5	/experiments/AOT/AOT_stimuli/rescaled_final/0583_fw.mp4	0.0	126.13749098777771	1.0001039505004883
12	102.30883812904358	pulse	0	t		10.0	2.5	/experiments/AOT/AOT_stimuli/rescaled_final/0583_fw.mp4	0.0	126.32191109657288	
12	103.1245219707489	movie	1		244	10.0	2.5	/experiments/AOT/AOT_stimuli/rescaled_final/0583_fw.mp4	0.0	127.1375949382782	2.499851942062378
12	103.90873193740845	pulse	1	t		10.0	2.5	/experiments/AOT/AOT_stimuli/rescaled_final/0583_fw.mp4	0.0	127.92180490493774	
12	105.50891494750977	pulse	1	t		10.0	2.5	/experiments/AOT/AOT_stimuli/rescaled_final/0583_fw.mp4	0.0	129.52198791503906	
12	105.62437391281128	fix_post	2		12	10.0	2.5	/experiments/AOT/AOT_stimuli/rescaled_final/0583_fw.mp4	0.0	129.63744688034058	0.1000971794128418
13	105.72447109222412	fix_pre	0		120	11.0	2.5	/experiments/AOT/AOT_stimuli/rescaled_final/1331_rv.mp4	0.0	129.73754405975342	0.9998519420623779
13	106.7243230342865	movie	1		245	11.0	2.5	/experiments/AOT/AOT_stimuli/rescaled_final/1331_rv.mp4	0.0	130.7373960018158	2.500072956085205
13	107.11632204055786	pulse	1	t		11.0	2.5	/experiments/AOT/AOT_stimuli/rescaled_final/1331_rv.mp4	0.0	131.12939500808716	
13	108.70882391929626	pulse	1	t		11.0	2.5	/experiments/AOT/AOT_stimuli/rescaled_final/1331_rv.mp4	0.0	132.72189688682556	
13	109.2243959903717	fix_post	2		12	11.0	2.5	/experiments/AOT/AOT_stimuli/rescaled_final/1331_rv.mp4	0.0	133.237468957901	0.09999203681945801
14	109.32438802719116	fix_pre	0		119	12.0	2.5	/experiments/AOT/AOT_stimuli/rescaled_final/2083_fw.mp4	0.0	133.33746099472046	0.9917089939117432
14	110.30794501304626	pulse	0	t		12.0	2.5	/experiments/AOT/AOT_stimuli/rescaled_final/2083_fw.mp4	0.0	134.32101798057556	
14	110.3160970211029	movie	1		244	12.0	2.5	/experiments/AOT/AOT_stimuli/rescaled_final/2083_fw.mp4	0.0	134.3291699886322	2.508301019668579
14	111.90789294242859	pulse	1	t		12.0	2.5	/experiments/AOT/AOT_stimuli/rescaled_final/2083_fw.mp4	0.0	135.92096590995789	
14	112.82439804077148	fix_post	2		12	12.0	2.5	/experiments/AOT/AOT_stimuli/rescaled_final/2083_fw.mp4	0.0	136.83747100830078	0.09998488426208496
15	112.92438292503357	fix_pre	0		120	13.0	2.5	/experiments/AOT/AOT_stimuli/rescaled_final/1810_rv.mp4	0.0	136.93745589256287	0.9999611377716064
15	113.5078821182251	pulse	0	t		13.0	2.5	/experiments/AOT/AOT_stimuli/rescaled_final/1810_rv.mp4	0.0	137.5209550857544	
15	113.92434406280518	movie	1		243	13.0	2.5	/experiments/AOT/AOT_stimuli/rescaled_final/1810_rv.mp4	0.0	137.93741703033447	2.4999918937683105
15	115.1095941066742	pulse	1	t		13.0	2.5	/experiments/AOT/AOT_stimuli/rescaled_final/1810_rv.mp4	0.0	139.1226670742035	
15	116.42433595657349	fix_post	2		12	13.0	2.5	/experiments/AOT/AOT_stimuli/rescaled_final/1810_rv.mp4	0.0	140.43740892410278	0.10002613067626953
16	116.52436208724976	fix_pre	0		120	14.0	2.5	blank	1.0	140.53743505477905	0.9999659061431885
16	116.70870900154114	pulse	0	t		14.0	2.5	blank	1.0	140.72178196907043	
16	117.52432799339294	movie	1		300	14.0	2.5	blank	1.0	141.53740096092224	2.5000200271606445
16	118.30872392654419	pulse	1	t		14.0	2.5	blank	1.0	142.3217968940735	
16	119.90865111351013	pulse	1	t		14.0	2.5	blank	1.0	143.92172408103943	
16	120.02434802055359	fix_post	2		12	14.0	2.5	blank	1.0	144.03742098808289	0.09993410110473633
17	120.12428212165833	fix_pre	0		120	15.0	2.5	/experiments/AOT/AOT_stimuli/rescaled_final/0583_rv.mp4	0.0	144.13735508918762	0.999992847442627
17	121.12427496910095	movie	1		243	15.0	2.5	/experiments/AOT/AOT_stimuli/rescaled_final/0583_rv.mp4	0.0	145.13734793663025	2.500175952911377
17	121.51624202728271	pulse	1	t		15.0	2.5	/experiments/AOT/AOT_stimuli/rescaled_final/0583_rv.mp4	0.0	145.529314994812	
17	123.10867810249329	pulse	1	t		15.0	2.5	/experiments/AOT/AOT_stimuli/rescaled_final/0583_rv.mp4	0.0	147.12175107002258	
17	123.62445092201233	fix_post	2		12	15.0	2.5	/experiments/AOT/AOT_stimuli/rescaled_final/0583_rv.mp4	0.0	147.63752388954163	0.09994101524353027
18	123.72439193725586	fix_pre	0		120	16.0	2.5	/experiments/AOT/AOT_stimuli/rescaled_final/1877_rv.mp4	0.0	147.73746490478516	0.9999210834503174
18	124.7086410522461	pulse	0	t		16.0	2.5	/experiments/AOT/AOT_stimuli/rescaled_final/1877_rv.mp4	0.0	148.7217140197754	
18	124.72431302070618	movie	1		245	16.0	2.5	/experiments/AOT/AOT_stimuli/rescaled_final/1877_rv.mp4	0.0	148.73738598823547	2.508270025253296
18	126.31598210334778	pulse	1	t		16.0	2.5	/experiments/AOT/AOT_stimuli/rescaled_final/1877_rv.mp4	0.0	150.32905507087708	
18	127.23258304595947	fix_post	2		12	16.0	2.5	/experiments/AOT/AOT_stimuli/rescaled_final/1877_rv.mp4	0.0	151.24565601348877	0.10004687309265137
19	127.33262991905212	fix_pre	0		120	17.0	2.5	/experiments/AOT/AOT_stimuli/rescaled_final/1300_rv.mp4	0.0	151.34570288658142	1.0000431537628174
19	127.9078209400177	pulse	0	t		17.0	2.5	/experiments/AOT/AOT_stimuli/rescaled_final/1300_rv.mp4	0.0	151.920893907547	
19	128.33267307281494	movie	1		246	17.0	2.5	/experiments/AOT/AOT_stimuli/rescaled_final/1300_rv.mp4	0.0	152.34574604034424	2.500001907348633
19	129.5090799331665	pulse	1	t		17.0	2.5	/experiments/AOT/AOT_stimuli/rescaled_final/1300_rv.mp4	0.0	153.5221529006958	
19	130.83267498016357	fix_post	2		12	17.0	2.5	/experiments/AOT/AOT_stimuli/rescaled_final/1300_rv.mp4	0.0	154.84574794769287	0.09995794296264648
20	130.93263292312622	fix_pre	0		120	18.0	2.5	/experiments/AOT/AOT_stimuli/rescaled_final/2028_fw.mp4	0.0	154.94570589065552	0.9996001720428467
20	131.10864901542664	pulse	0	t		18.0	2.5	/experiments/AOT/AOT_stimuli/rescaled_final/2028_fw.mp4	0.0	155.12172198295593	
20	131.93223309516907	movie	1		243	18.0	2.5	/experiments/AOT/AOT_stimuli/rescaled_final/2028_fw.mp4	0.0	155.94530606269836	2.5006439685821533
20	132.71567392349243	pulse	1	t		18.0	2.5	/experiments/AOT/AOT_stimuli/rescaled_final/2028_fw.mp4	0.0	156.72874689102173	
20	134.3148009777069	pulse	1	t		18.0	2.5	/experiments/AOT/AOT_stimuli/rescaled_final/2028_fw.mp4	0.0	158.3278739452362	
20	134.43287706375122	fix_post	2		12	18.0	2.5	/experiments/AOT/AOT_stimuli/rescaled_final/2028_fw.mp4	0.0	158.44595003128052	0.09956693649291992
21	134.53244400024414	fix_pre	0		120	19.0	2.5	/experiments/AOT/AOT_stimuli/rescaled_final/0302_fw.mp4	0.0	158.54551696777344	1.000169038772583
21	135.53261303901672	movie	1		243	19.0	2.5	/experiments/AOT/AOT_stimuli/rescaled_final/0302_fw.mp4	0.0	159.54568600654602	2.500019073486328
21	135.91637110710144	pulse	1	t		19.0	2.5	/experiments/AOT/AOT_stimuli/rescaled_final/0302_fw.mp4	0.0	159.92944407463074	
21	137.50877499580383	pulse	1	t		19.0	2.5	/experiments/AOT/AOT_stimuli/rescaled_final/0302_fw.mp4	0.0	161.52184796333313	
21	138.03263211250305	fix_post	2		12	19.0	2.5	/experiments/AOT/AOT_stimuli/rescaled_final/0302_fw.mp4	0.0	162.04570508003235	0.09998083114624023
22	138.1326129436493	fix_pre	0		119	20.0	2.5	blank	1.0	162.1456859111786	0.9916009902954102
22	139.10855412483215	pulse	0	t		20.0	2.5	blank	1.0	163.12162709236145	
22	139.1242139339447	movie	1		301	20.0	2.5	blank	1.0	163.137286901474	2.508327007293701
22	140.708594083786	pulse	1	t		20.0	2.5	blank	1.0	164.7216670513153	
22	141.6325409412384	fix_post	2		12	20.0	2.5	blank	1.0	165.6456139087677	0.10001802444458008
23	141.73255896568298	fix_pre	0		120	21.0	2.5	/experiments/AOT/AOT_stimuli/rescaled_final/1091_rv.mp4	0.0	165.74563193321228	0.9999721050262451
23	142.30858993530273	pulse	0	t		21.0	2.5	/experiments/AOT/AOT_stimuli/rescaled_final/1091_rv.mp4	0.0	166.32166290283203	
23	142.73253107070923	movie	1		245	21.0	2.5	/experiments/AOT/AOT_stimuli/rescaled_final/1091_rv.mp4	0.0	166.74560403823853	2.5000460147857666
23	143.90892910957336	pulse	1	t		21.0	2.5	/experiments/AOT/AOT_stimuli/rescaled_final/1091_rv.mp4	0.0	167.92200207710266	
23	145.232577085495	fix_post	2		12	21.0	2.5	/experiments/AOT/AOT_stimuli/rescaled_final/1091_rv.mp4	0.0	169.2456500530243	0.09996795654296875
24	145.33254504203796	fix_pre	0		120	22.0	2.5	/experiments/AOT/AOT_stimuli/rescaled_final/2138_fw.mp4	0.0	169.34561800956726	0.9999589920043945
24	145.5085301399231	pulse	0	t		22.0	2.5	/experiments/AOT/AOT_stimuli/rescaled_final/2138_fw.mp4	0.0	169.5216031074524	
24	146.33250403404236	movie	1		244	22.0	2.5	/experiments/AOT/AOT_stimuli/rescaled_final/2138_fw.mp4	0.0	170.34557700157166	2.4999730587005615
24	147.10923790931702	pulse	1	t		22.0	2.5	/experiments/AOT/AOT_stimuli/rescaled_final/2138_fw.mp4	0.0	171.1223108768463	
24	148.71511006355286	pulse	1	t		22.0	2.5	/experiments/AOT/AOT_stimuli/rescaled_final/2138_fw.mp4	0.0	172.72818303108215	
24	148.83247709274292	fix_post	2		12	22.0	2.5	/experiments/AOT/AOT_stimuli/rescaled_final/2138_fw.mp4	0.0	172.84555006027222	0.10012102127075195
25	148.93259811401367	fix_pre	0		120	23.0	2.5	/experiments/AOT/AOT_stimuli/rescaled_final/1988_rv.mp4	0.0	172.94567108154297	0.9999740123748779
25	149.93257212638855	movie	1		244	23.0	2.5	/experiments/AOT/AOT_stimuli/rescaled_final/1988_rv.mp4	0.0	173.94564509391785	2.5000548362731934
25	150.31706309318542	pulse	1	t		23.0	2.5	/experiments/AOT/AOT_stimuli/rescaled_final/1988_rv.mp4	0.0	174.33013606071472	
25	151.90867495536804	pulse	1	t		23.0	2.5	/experiments/AOT/AOT_stimuli/rescaled_final/1988_rv.mp4	0.0	175.92174792289734	
25	152.43262696266174	fix_post	2		12	23.0	2.5	/experiments/AOT/AOT_stimuli/rescaled_final/1988_rv.mp4	0.0	176.44569993019104	0.09942412376403809
26	152.53205108642578	fix_pre	0		119	24.0	2.5	/experiments/AOT/AOT_stimuli/rescaled_final/1356_fw.mp4	0.0	176.54512405395508	0.9920799732208252
26	153.50862193107605	pulse	0	t		24.0	2.5	/experiments/AOT/AOT_stimuli/rescaled_final/1356_fw.mp4	0.0	177.52169489860535	
26	153.5241310596466	movie	1		244	24.0	2.5	/experiments/AOT/AOT_stimuli/rescaled_final/1356_fw.mp4	0.0	177.5372040271759	2.5078978538513184
26	155.11564707756042	pulse	1	t		24.0	2.5	/experiments/AOT/AOT_stimuli/rescaled_final/1356_fw.mp4	0.0	179.12872004508972	
26	156.03202891349792	fix_post	2		12	24.0	2.5	/experiments/AOT/AOT_stimuli/rescaled_final/1356_fw.mp4	0.0	180.04510188102722	0.10048723220825195
27	156.13251614570618	fix_pre	0		120	25.0	2.5	/experiments/AOT/AOT_stimuli/rescaled_final/0067_fw.mp4	0.0	180.14558911323547	0.9999759197235107
27	156.70859813690186	pulse	0	t		25.0	2.5	/experiments/AOT/AOT_stimuli/rescaled_final/0067_fw.mp4	0.0	180.72167110443115	
27	157.1324920654297	movie	1		246	25.0	2.5	/experiments/AOT/AOT_stimuli/rescaled_final/0067_fw.mp4	0.0	181.14556503295898	2.500140905380249
27	158.31606793403625	pulse	1	t		25.0	2.5	/experiments/AOT/AOT_stimuli/rescaled_final/0067_fw.mp4	0.0	182.32914090156555	
27	159.63263297080994	fix_post	2		12	25.0	2.5	/experiments/AOT/AOT_stimuli/rescaled_final/0067_fw.mp4	0.0	183.64570593833923	0.09986305236816406
28	159.7324960231781	fix_pre	0		120	26.0	2.5	/experiments/AOT/AOT_stimuli/rescaled_final/1296_rv.mp4	0.0	183.7455689907074	0.9999029636383057
28	159.90846991539001	pulse	0	t		26.0	2.5	/experiments/AOT/AOT_stimuli/rescaled_final/1296_rv.mp4	0.0	183.9215428829193	
28	160.7323989868164	movie	1		244	26.0	2.5	/experiments/AOT/AOT_stimuli/rescaled_final/1296_rv.mp4	0.0	184.7454719543457	2.4997329711914062
28	161.51595091819763	pulse	1	t		26.0	2.5	/experiments/AOT/AOT_stimuli/rescaled_final/1296_rv.mp4	0.0	185.52902388572693	
28	163.11446595191956	pulse	1	t		26.0	2.5	/experiments/AOT/AOT_stimuli/rescaled_final/1296_rv.mp4	0.0	187.12753891944885	
28	163.2321319580078	fix_post	2		12	26.0	2.5	/experiments/AOT/AOT_stimuli/rescaled_final/1296_rv.mp4	0.0	187.2452049255371	0.10030603408813477
29	163.33243799209595	fix_pre	0		120	27.0	2.5	blank	1.0	187.34551095962524	1.0001001358032227
29	164.33253812789917	movie	1		300	27.0	2.5	blank	1.0	188.34561109542847	2.499933958053589
29	164.715961933136	pulse	1	t		27.0	2.5	blank	1.0	188.72903490066528	
29	166.308443069458	pulse	1	t		27.0	2.5	blank	1.0	190.3215160369873	
29	166.83247208595276	fix_post	2		12	27.0	2.5	blank	1.0	190.84554505348206	0.10009193420410156
30	166.93256402015686	fix_pre	0		119	28.0	2.5	/experiments/AOT/AOT_stimuli/rescaled_final/1652_rv.mp4	0.0	190.94563698768616	0.9916150569915771
30	167.90853905677795	pulse	0	t		28.0	2.5	/experiments/AOT/AOT_stimuli/rescaled_final/1652_rv.mp4	0.0	191.92161202430725	
30	167.92417907714844	movie	1		246	28.0	2.5	/experiments/AOT/AOT_stimuli/rescaled_final/1652_rv.mp4	0.0	191.93725204467773	2.5078868865966797
30	169.5154960155487	pulse	1	t		28.0	2.5	/experiments/AOT/AOT_stimuli/rescaled_final/1652_rv.mp4	0.0	193.528568983078	
30	170.43206596374512	fix_post	2		12	28.0	2.5	/experiments/AOT/AOT_stimuli/rescaled_final/1652_rv.mp4	0.0	194.4451389312744	0.10036396980285645
31	170.53242993354797	fix_pre	0		120	29.0	2.5	/experiments/AOT/AOT_stimuli/rescaled_final/0006_fw.mp4	0.0	194.54550290107727	0.999953031539917
31	171.10844111442566	pulse	0	t		29.0	2.5	/experiments/AOT/AOT_stimuli/rescaled_final/0006_fw.mp4	0.0	195.12151408195496	
31	171.5323829650879	movie	1		242	29.0	2.5	/experiments/AOT/AOT_stimuli/rescaled_final/0006_fw.mp4	0.0	195.5454559326172	2.500030040740967
31	172.7160770893097	pulse	1	t		29.0	2.5	/experiments/AOT/AOT_stimuli/rescaled_final/0006_fw.mp4	0.0	196.729150056839	
31	174.03241300582886	fix_post	2		12	29.0	2.5	/experiments/AOT/AOT_stimuli/rescaled_final/0006_fw.mp4	0.0	198.04548597335815	0.10010790824890137
32	174.13252091407776	fix_pre	0		120	30.0	2.5	/experiments/AOT/AOT_stimuli/rescaled_final/0480_rv.mp4	0.0	198.14559388160706	0.9998250007629395
32	174.30836606025696	pulse	0	t		30.0	2.5	/experiments/AOT/AOT_stimuli/rescaled_final/0480_rv.mp4	0.0	198.32143902778625	
32	175.1323459148407	movie	1		245	30.0	2.5	/experiments/AOT/AOT_stimuli/rescaled_final/0480_rv.mp4	0.0	199.14541888237	2.5000391006469727
32	175.90912103652954	pulse	1	t		30.0	2.5	/experiments/AOT/AOT_stimuli/rescaled_final/0480_rv.mp4	0.0	199.92219400405884	
32	177.5119330883026	pulse	1	t		30.0	2.5	/experiments/AOT/AOT_stimuli/rescaled_final/0480_rv.mp4	0.0	201.5250060558319	
32	177.63238501548767	fix_post	2		12	30.0	2.5	/experiments/AOT/AOT_stimuli/rescaled_final/0480_rv.mp4	0.0	201.64545798301697	0.10004401206970215
33	177.73242902755737	fix_pre	0		120	31.0	2.5	/experiments/AOT/AOT_stimuli/rescaled_final/0296_fw.mp4	0.0	201.74550199508667	0.9999160766601562
33	178.73234510421753	movie	1		243	31.0	2.5	/experiments/AOT/AOT_stimuli/rescaled_final/0296_fw.mp4	0.0	202.74541807174683	2.4999818801879883
33	179.11620903015137	pulse	1	t		31.0	2.5	/experiments/AOT/AOT_stimuli/rescaled_final/0296_fw.mp4	0.0	203.12928199768066	
33	180.715882062912	pulse	1	t		31.0	2.5	/experiments/AOT/AOT_stimuli/rescaled_final/0296_fw.mp4	0.0	204.72895503044128	
33	181.23232698440552	fix_post	2		12	31.0	2.5	/experiments/AOT/AOT_stimuli/rescaled_final/0296_fw.mp4	0.0	205.24539995193481	0.09999394416809082
34	181.3323209285736	fix_pre	0		119	32.0	2.5	/experiments/AOT/AOT_stimuli/rescaled_final/0366_fw.mp4	0.0	205.3453938961029	0.9916892051696777
34	182.31591796875	pulse	0	t		32.0	2.5	/experiments/AOT/AOT_stimuli/rescaled_final/0366_fw.mp4	0.0	206.3289909362793	
34	182.3240101337433	movie	1		245	32.0	2.5	/experiments/AOT/AOT_stimuli/rescaled_final/0366_fw.mp4	0.0	206.33708310127258	2.5083019733428955
34	183.9158079624176	pulse	1	t		32.0	2.5	/experiments/AOT/AOT_stimuli/rescaled_final/0366_fw.mp4	0.0	207.9288809299469	
34	184.83231210708618	fix_post	2		12	32.0	2.5	/experiments/AOT/AOT_stimuli/rescaled_final/0366_fw.mp4	0.0	208.84538507461548	0.1000208854675293
35	184.9323329925537	fix_pre	0		120	33.0	2.5	/experiments/AOT/AOT_stimuli/rescaled_final/1537_fw.mp4	0.0	208.945405960083	1.000020980834961
35	185.50835990905762	pulse	0	t		33.0	2.5	/experiments/AOT/AOT_stimuli/rescaled_final/1537_fw.mp4	0.0	209.5214328765869	
35	185.93235397338867	movie	1		245	33.0	2.5	/experiments/AOT/AOT_stimuli/rescaled_final/1537_fw.mp4	0.0	209.94542694091797	2.5000741481781006
35	187.1084680557251	pulse	1	t		33.0	2.5	/experiments/AOT/AOT_stimuli/rescaled_final/1537_fw.mp4	0.0	211.1215410232544	
35	188.43242812156677	fix_post	2		12	33.0	2.5	/experiments/AOT/AOT_stimuli/rescaled_final/1537_fw.mp4	0.0	212.44550108909607	0.09993696212768555
36	188.53236508369446	fix_pre	0		120	34.0	2.5	blank	1.0	212.54543805122375	0.9997639656066895
36	188.70833206176758	pulse	0	t		34.0	2.5	blank	1.0	212.72140502929688	
36	189.53212904930115	movie	1		300	34.0	2.5	blank	1.0	213.54520201683044	2.5002100467681885
36	190.30813002586365	pulse	1	t		34.0	2.5	blank	1.0	214.32120299339294	
36	191.90828704833984	pulse	1	t		34.0	2.5	blank	1.0	215.92136001586914	
36	192.03233909606934	fix_post	2		12	34.0	2.5	blank	1.0	216.04541206359863	0.10002899169921875
37	192.13236808776855	fix_pre	0		120	35.0	2.5	/experiments/AOT/AOT_stimuli/rescaled_final/0969_rv.mp4	0.0	216.14544105529785	0.9999508857727051
37	193.13231897354126	movie	1		244	35.0	2.5	/experiments/AOT/AOT_stimuli/rescaled_final/0969_rv.mp4	0.0	217.14539194107056	2.499998092651367
37	193.51539707183838	pulse	1	t		35.0	2.5	/experiments/AOT/AOT_stimuli/rescaled_final/0969_rv.mp4	0.0	217.52847003936768	
37	195.1158459186554	pulse	1	t		35.0	2.5	/experiments/AOT/AOT_stimuli/rescaled_final/0969_rv.mp4	0.0	219.1289188861847	
37	195.63231706619263	fix_post	2		12	35.0	2.5	/experiments/AOT/AOT_stimuli/rescaled_final/0969_rv.mp4	0.0	219.64539003372192	0.09992194175720215
38	195.73223900794983	fix_pre	0		119	36.0	2.5	/experiments/AOT/AOT_stimuli/rescaled_final/1652_fw.mp4	0.0	219.74531197547913	0.9916880130767822
38	196.71570110321045	pulse	0	t		36.0	2.5	/experiments/AOT/AOT_stimuli/rescaled_final/1652_fw.mp4	0.0	220.72877407073975	
38	196.7239270210266	movie	1		244	36.0	2.5	/experiments/AOT/AOT_stimuli/rescaled_final/1652_fw.mp4	0.0	220.7369999885559	2.5083749294281006
38	198.31566309928894	pulse	1	t		36.0	2.5	/experiments/AOT/AOT_stimuli/rescaled_final/1652_fw.mp4	0.0	222.32873606681824	
38	199.2323019504547	fix_post	2		12	36.0	2.5	/experiments/AOT/AOT_stimuli/rescaled_final/1652_fw.mp4	0.0	223.245374917984	0.09994101524353027
39	199.33224296569824	fix_pre	0		120	37.0	2.5	/experiments/AOT/AOT_stimuli/rescaled_final/1863_fw.mp4	0.0	223.34531593322754	1.0000629425048828
39	199.9157531261444	pulse	0	t		37.0	2.5	/experiments/AOT/AOT_stimuli/rescaled_final/1863_fw.mp4	0.0	223.9288260936737	
39	200.33230590820312	movie	1		245	37.0	2.5	/experiments/AOT/AOT_stimuli/rescaled_final/1863_fw.mp4	0.0	224.34537887573242	2.499962091445923
39	201.51585006713867	pulse	1	t		37.0	2.5	/experiments/AOT/AOT_stimuli/rescaled_final/1863_fw.mp4	0.0	225.52892303466797	
39	202.83226799964905	fix_post	2		12	37.0	2.5	/experiments/AOT/AOT_stimuli/rescaled_final/1863_fw.mp4	0.0	226.84534096717834	0.10001897811889648
40	202.93228697776794	fix_pre	0		120	38.0	2.5	/experiments/AOT/AOT_stimuli/rescaled_final/0902_rv.mp4	0.0	226.94535994529724	0.9999690055847168
40	203.1158299446106	pulse	0	t		38.0	2.5	/experiments/AOT/AOT_stimuli/rescaled_final/0902_rv.mp4	0.0	227.1289029121399	
40	203.93225598335266	movie	1		246	38.0	2.5	/experiments/AOT/AOT_stimuli/rescaled_final/0902_rv.mp4	0.0	227.94532895088196	2.5000529289245605
40	204.70830392837524	pulse	1	t		38.0	2.5	/experiments/AOT/AOT_stimuli/rescaled_final/0902_rv.mp4	0.0	228.72137689590454	
40	206.31573700904846	pulse	1	t		38.0	2.5	/experiments/AOT/AOT_stimuli/rescaled_final/0902_rv.mp4	0.0	230.32880997657776	
40	206.43230891227722	fix_post	2		12	38.0	2.5	/experiments/AOT/AOT_stimuli/rescaled_final/0902_rv.mp4	0.0	230.44538187980652	0.09988117218017578
41	206.5321900844574	fix_pre	0		120	39.0	2.5	/experiments/AOT/AOT_stimuli/rescaled_final/1887_rv.mp4	0.0	230.5452630519867	1.0001239776611328
41	207.53231406211853	movie	1		246	39.0	2.5	/experiments/AOT/AOT_stimuli/rescaled_final/1887_rv.mp4	0.0	231.54538702964783	2.4998838901519775
41	207.91658997535706	pulse	1	t		39.0	2.5	/experiments/AOT/AOT_stimuli/rescaled_final/1887_rv.mp4	0.0	231.92966294288635	
41	209.51587200164795	pulse	1	t		39.0	2.5	/experiments/AOT/AOT_stimuli/rescaled_final/1887_rv.mp4	0.0	233.52894496917725	
41	210.0321979522705	fix_post	2		12	39.0	2.5	/experiments/AOT/AOT_stimuli/rescaled_final/1887_rv.mp4	0.0	234.0452709197998	0.10007715225219727
42	210.1322751045227	fix_pre	0		119	40.0	2.5	blank	1.0	234.145348072052	0.991595983505249
42	211.11566996574402	pulse	0	t		40.0	2.5	blank	1.0	235.12874293327332	
42	211.12387108802795	movie	1		301	40.0	2.5	blank	1.0	235.13694405555725	2.5084149837493896
42	212.71569991111755	pulse	1	t		40.0	2.5	blank	1.0	236.72877287864685	
42	213.63228607177734	fix_post	2		12	40.0	2.5	blank	1.0	237.64535903930664	0.09999585151672363
43	213.73228192329407	fix_pre	0		120	41.0	2.5	/experiments/AOT/AOT_stimuli/rescaled_final/1031_rv.mp4	0.0	237.74535489082336	0.9999520778656006
43	214.31572604179382	pulse	0	t		41.0	2.5	/experiments/AOT/AOT_stimuli/rescaled_final/1031_rv.mp4	0.0	238.32879900932312	
43	214.73223400115967	movie	1		244	41.0	2.5	/experiments/AOT/AOT_stimuli/rescaled_final/1031_rv.mp4	0.0	238.74530696868896	2.5000150203704834
43	215.9157691001892	pulse	1	t		41.0	2.5	/experiments/AOT/AOT_stimuli/rescaled_final/1031_rv.mp4	0.0	239.9288420677185	
43	217.23224902153015	fix_post	2		12	41.0	2.5	/experiments/AOT/AOT_stimuli/rescaled_final/1031_rv.mp4	0.0	241.24532198905945	0.0998690128326416
44	217.3321180343628	fix_pre	0		120	42.0	2.5	/experiments/AOT/AOT_stimuli/rescaled_final/1126_rv.mp4	0.0	241.3451910018921	1.0001609325408936
44	217.5156979560852	pulse	0	t		42.0	2.5	/experiments/AOT/AOT_stimuli/rescaled_final/1126_rv.mp4	0.0	241.5287709236145	
44	218.3322789669037	movie	1		245	42.0	2.5	/experiments/AOT/AOT_stimuli/rescaled_final/1126_rv.mp4	0.0	242.34535193443298	2.49992299079895
44	219.10827207565308	pulse	1	t		42.0	2.5	/experiments/AOT/AOT_stimuli/rescaled_final/1126_rv.mp4	0.0	243.12134504318237	
44	220.7117941379547	pulse	1	t		42.0	2.5	/experiments/AOT/AOT_stimuli/rescaled_final/1126_rv.mp4	0.0	244.724867105484	
44	220.83220195770264	fix_post	2		12	42.0	2.5	/experiments/AOT/AOT_stimuli/rescaled_final/1126_rv.mp4	0.0	244.84527492523193	0.10001015663146973
45	220.9322121143341	fix_pre	0		120	43.0	2.5	/experiments/AOT/AOT_stimuli/rescaled_final/0532_fw.mp4	0.0	244.9452850818634	1.0000429153442383
45	221.93225502967834	movie	1		244	43.0	2.5	/experiments/AOT/AOT_stimuli/rescaled_final/0532_fw.mp4	0.0	245.94532799720764	2.499933958053589
45	222.31686806678772	pulse	1	t		43.0	2.5	/experiments/AOT/AOT_stimuli/rescaled_final/0532_fw.mp4	0.0	246.32994103431702	
45	223.9082911014557	pulse	1	t		43.0	2.5	/experiments/AOT/AOT_stimuli/rescaled_final/0532_fw.mp4	0.0	247.92136406898499	
45	224.43218898773193	fix_post	2		12	43.0	2.5	/experiments/AOT/AOT_stimuli/rescaled_final/0532_fw.mp4	0.0	248.44526195526123	0.10002398490905762
46	224.532212972641	fix_pre	0		119	44.0	2.5	/experiments/AOT/AOT_stimuli/rescaled_final/1112_fw.mp4	0.0	248.5452859401703	0.9916410446166992
46	225.5157070159912	pulse	0	t		44.0	2.5	/experiments/AOT/AOT_stimuli/rescaled_final/1112_fw.mp4	0.0	249.5287799835205	
46	225.5238540172577	movie	1		244	44.0	2.5	/experiments/AOT/AOT_stimuli/rescaled_final/1112_fw.mp4	0.0	249.536926984787	2.508280038833618
46	227.11522912979126	pulse	1	t		44.0	2.5	/experiments/AOT/AOT_stimuli/rescaled_final/1112_fw.mp4	0.0	251.12830209732056	
46	228.0321340560913	fix_post	2		12	44.0	2.5	/experiments/AOT/AOT_stimuli/rescaled_final/1112_fw.mp4	0.0	252.0452070236206	0.10007286071777344
47	228.13220691680908	fix_pre	0		120	45.0	2.5	/experiments/AOT/AOT_stimuli/rescaled_final/1182_rv.mp4	0.0	252.14527988433838	1.000049114227295
47	228.71569204330444	pulse	0	t		45.0	2.5	/experiments/AOT/AOT_stimuli/rescaled_final/1182_rv.mp4	0.0	252.72876501083374	
47	229.13225603103638	movie	1		244	45.0	2.5	/experiments/AOT/AOT_stimuli/rescaled_final/1182_rv.mp4	0.0	253.14532899856567	2.499880075454712
47	230.3157320022583	pulse	1	t		45.0	2.5	/experiments/AOT/AOT_stimuli/rescaled_final/1182_rv.mp4	0.0	254.3288049697876	
47	231.6321361064911	fix_post	2		12	45.0	2.5	/experiments/AOT/AOT_stimuli/rescaled_final/1182_rv.mp4	0.0	255.64520907402039	0.09998202323913574
48	231.73211812973022	fix_pre	0		120	46.0	2.5	/experiments/AOT/AOT_stimuli/rescaled_final/1944_fw.mp4	0.0	255.74519109725952	1.000020980834961
48	231.91565012931824	pulse	0	t		46.0	2.5	/experiments/AOT/AOT_stimuli/rescaled_final/1944_fw.mp4	0.0	255.92872309684753	
48	232.73213911056519	movie	1		244	46.0	2.5	/experiments/AOT/AOT_stimuli/rescaled_final/1944_fw.mp4	0.0	256.7452120780945	2.5000648498535156
48	233.5157310962677	pulse	1	t		46.0	2.5	/experiments/AOT/AOT_stimuli/rescaled_final/1944_fw.mp4	0.0	257.528804063797	
48	235.1142499446869	pulse	1	t		46.0	2.5	/experiments/AOT/AOT_stimuli/rescaled_final/1944_fw.mp4	0.0	259.1273229122162	
48	235.2322039604187	fix_post	2		12	46.0	2.5	/experiments/AOT/AOT_stimuli/rescaled_final/1944_fw.mp4	0.0	259.245276927948	0.09993410110473633
49	235.33213806152344	fix_pre	0		120	47.0	2.5	/experiments/AOT/AOT_stimuli/rescaled_final/1671_rv.mp4	0.0	259.34521102905273	1.0000319480895996
49	236.33217000961304	movie	1		243	47.0	2.5	/experiments/AOT/AOT_stimuli/rescaled_final/1671_rv.mp4	0.0	260.34524297714233	2.499484062194824
49	236.7152669429779	pulse	1	t		47.0	2.5	/experiments/AOT/AOT_stimuli/rescaled_final/1671_rv.mp4	0.0	260.7283399105072	
49	238.30821704864502	pulse	1	t		47.0	2.5	/experiments/AOT/AOT_stimuli/rescaled_final/1671_rv.mp4	0.0	262.3212900161743	
49	238.83165407180786	fix_post	2		12	47.0	2.5	/experiments/AOT/AOT_stimuli/rescaled_final/1671_rv.mp4	0.0	262.84472703933716	0.10042095184326172
50	238.93207502365112	fix_pre	0		119	48.0	2.5	blank	1.0	262.9451479911804	0.991710901260376
50	239.90811014175415	pulse	0	t		48.0	2.5	blank	1.0	263.92118310928345	
50	239.9237859249115	movie	1		301	48.0	2.5	blank	1.0	263.9368588924408	2.507880210876465
50	241.51563811302185	pulse	1	t		48.0	2.5	blank	1.0	265.52871108055115	
50	242.43166613578796	fix_post	2		12	48.0	2.5	blank	1.0	266.44473910331726	0.10052180290222168
51	242.53218793869019	fix_pre	0		120	49.0	2.5	/experiments/AOT/AOT_stimuli/rescaled_final/1679_rv.mp4	0.0	266.5452609062195	0.9999949932098389
51	243.11515402793884	pulse	0	t		49.0	2.5	/experiments/AOT/AOT_stimuli/rescaled_final/1679_rv.mp4	0.0	267.12822699546814	
51	243.53218293190002	movie	1		242	49.0	2.5	/experiments/AOT/AOT_stimuli/rescaled_final/1679_rv.mp4	0.0	267.5452558994293	2.4996790885925293
51	244.7152440547943	pulse	1	t		49.0	2.5	/experiments/AOT/AOT_stimuli/rescaled_final/1679_rv.mp4	0.0	268.7283170223236	
51	246.03186202049255	fix_post	2		12	49.0	2.5	/experiments/AOT/AOT_stimuli/rescaled_final/1679_rv.mp4	0.0	270.04493498802185	0.10042595863342285
52	246.13228797912598	fix_pre	0		120	50.0	2.5	/experiments/AOT/AOT_stimuli/rescaled_final/0681_rv.mp4	0.0	270.1453609466553	0.9997889995574951
52	246.3154079914093	pulse	0	t		50.0	2.5	/experiments/AOT/AOT_stimuli/rescaled_final/0681_rv.mp4	0.0	270.3284809589386	
52	247.13207697868347	movie	1		243	50.0	2.5	/experiments/AOT/AOT_stimuli/rescaled_final/0681_rv.mp4	0.0	271.14514994621277	2.4999639987945557
52	247.91556310653687	pulse	1	t		50.0	2.5	/experiments/AOT/AOT_stimuli/rescaled_final/0681_rv.mp4	0.0	271.92863607406616	
52	249.5138759613037	pulse	1	t		50.0	2.5	/experiments/AOT/AOT_stimuli/rescaled_final/0681_rv.mp4	0.0	273.526948928833	
52	249.63204097747803	fix_post	2		12	50.0	2.5	/experiments/AOT/AOT_stimuli/rescaled_final/0681_rv.mp4	0.0	273.6451139450073	0.10006999969482422
53	249.73211097717285	fix_pre	0		120	51.0	2.5	/experiments/AOT/AOT_stimuli/rescaled_final/1179_fw.mp4	0.0	273.74518394470215	0.999953031539917
53	250.73206400871277	movie	1		246	51.0	2.5	/experiments/AOT/AOT_stimuli/rescaled_final/1179_fw.mp4	0.0	274.74513697624207	2.499505043029785
53	251.11500000953674	pulse	1	t		51.0	2.5	/experiments/AOT/AOT_stimuli/rescaled_final/1179_fw.mp4	0.0	275.12807297706604	
53	252.71554112434387	pulse	1	t		51.0	2.5	/experiments/AOT/AOT_stimuli/rescaled_final/1179_fw.mp4	0.0	276.72861409187317	
53	253.23156905174255	fix_post	2		12	51.0	2.5	/experiments/AOT/AOT_stimuli/rescaled_final/1179_fw.mp4	0.0	277.24464201927185	0.10044693946838379
54	253.33201599121094	fix_pre	0		119	52.0	2.5	/experiments/AOT/AOT_stimuli/rescaled_final/0457_fw.mp4	0.0	277.34508895874023	0.9916729927062988
54	254.31550312042236	pulse	0	t		52.0	2.5	/experiments/AOT/AOT_stimuli/rescaled_final/0457_fw.mp4	0.0	278.32857608795166	
54	254.32368898391724	movie	1		248	52.0	2.5	/experiments/AOT/AOT_stimuli/rescaled_final/0457_fw.mp4	0.0	278.33676195144653	2.5083200931549072
54	255.91534805297852	pulse	1	t		52.0	2.5	/experiments/AOT/AOT_stimuli/rescaled_final/0457_fw.mp4	0.0	279.9284210205078	
54	256.83200907707214	fix_post	2		12	52.0	2.5	/experiments/AOT/AOT_stimuli/rescaled_final/0457_fw.mp4	0.0	280.84508204460144	0.09997105598449707
55	256.93198013305664	fix_pre	0		120	53.0	2.5	/experiments/AOT/AOT_stimuli/rescaled_final/0127_rv.mp4	0.0	280.94505310058594	1.0000078678131104
55	257.5154609680176	pulse	0	t		53.0	2.5	/experiments/AOT/AOT_stimuli/rescaled_final/0127_rv.mp4	0.0	281.5285339355469	
55	257.93198800086975	movie	1		246	53.0	2.5	/experiments/AOT/AOT_stimuli/rescaled_final/0127_rv.mp4	0.0	281.94506096839905	2.499994993209839
55	259.11554408073425	pulse	1	t		53.0	2.5	/experiments/AOT/AOT_stimuli/rescaled_final/0127_rv.mp4	0.0	283.12861704826355	
55	260.4319829940796	fix_post	2		12	53.0	2.5	/experiments/AOT/AOT_stimuli/rescaled_final/0127_rv.mp4	0.0	284.4450559616089	0.09999394416809082
56	260.5319769382477	fix_pre	0		120	54.0	2.5	/experiments/AOT/AOT_stimuli/rescaled_final/0821_fw.mp4	0.0	284.545049905777	0.9999611377716064
56	260.715548992157	pulse	0	t		54.0	2.5	/experiments/AOT/AOT_stimuli/rescaled_final/0821_fw.mp4	0.0	284.7286219596863	
56	261.5319380760193	movie	1		244	54.0	2.5	/experiments/AOT/AOT_stimuli/rescaled_final/0821_fw.mp4	0.0	285.5450110435486	2.499660015106201
56	262.3155360221863	pulse	1	t		54.0	2.5	/experiments/AOT/AOT_stimuli/rescaled_final/0821_fw.mp4	0.0	286.3286089897156	
56	263.9139759540558	pulse	1	t		54.0	2.5	/experiments/AOT/AOT_stimuli/rescaled_final/0821_fw.mp4	0.0	287.9270489215851	
56	264.0315980911255	fix_post	2		12	54.0	2.5	/experiments/AOT/AOT_stimuli/rescaled_final/0821_fw.mp4	0.0	288.0446710586548	0.1004190444946289
57	264.1320171356201	fix_pre	0		120	55.0	2.5	blank	1.0	288.1450901031494	0.9999299049377441
57	265.13194704055786	movie	1		300	55.0	2.5	blank	1.0	289.14502000808716	2.5000219345092773
57	265.5154790878296	pulse	1	t		55.0	2.5	blank	1.0	289.5285520553589	
57	267.1154320240021	pulse	1	t		55.0	2.5	blank	1.0	291.1285049915314	
57	267.63196897506714	fix_post	2		12	55.0	2.5	blank	1.0	291.64504194259644	0.10004210472106934
58	267.7320110797882	fix_pre	0		119	56.0	2.5	/experiments/AOT/AOT_stimuli/rescaled_final/1944_rv.mp4	0.0	291.7450840473175	0.9915828704833984
58	268.7154519557953	pulse	0	t		56.0	2.5	/experiments/AOT/AOT_stimuli/rescaled_final/1944_rv.mp4	0.0	292.7285249233246	
58	268.7235939502716	movie	1		244	56.0	2.5	/experiments/AOT/AOT_stimuli/rescaled_final/1944_rv.mp4	0.0	292.7366669178009	2.508316993713379
58	270.315052986145	pulse	1	t		56.0	2.5	/experiments/AOT/AOT_stimuli/rescaled_final/1944_rv.mp4	0.0	294.3281259536743	
58	271.231910943985	fix_post	2		12	56.0	2.5	/experiments/AOT/AOT_stimuli/rescaled_final/1944_rv.mp4	0.0	295.2449839115143	0.10005807876586914
59	271.33196902275085	fix_pre	0		120	57.0	2.5	/experiments/AOT/AOT_stimuli/rescaled_final/0726_fw.mp4	0.0	295.34504199028015	0.9999730587005615
59	271.9154040813446	pulse	0	t		57.0	2.5	/experiments/AOT/AOT_stimuli/rescaled_final/0726_fw.mp4	0.0	295.9284770488739	
59	272.3319420814514	movie	1		248	57.0	2.5	/experiments/AOT/AOT_stimuli/rescaled_final/0726_fw.mp4	0.0	296.3450150489807	2.5000698566436768
59	273.5154550075531	pulse	1	t		57.0	2.5	/experiments/AOT/AOT_stimuli/rescaled_final/0726_fw.mp4	0.0	297.5285279750824	
59	274.8320119380951	fix_post	2		12	57.0	2.5	/experiments/AOT/AOT_stimuli/rescaled_final/0726_fw.mp4	0.0	298.8450849056244	0.09997797012329102
60	274.9319899082184	fix_pre	0		120	58.0	2.5	/experiments/AOT/AOT_stimuli/rescaled_final/2098_fw.mp4	0.0	298.9450628757477	1.0000190734863281
60	275.11538004875183	pulse	0	t		58.0	2.5	/experiments/AOT/AOT_stimuli/rescaled_final/2098_fw.mp4	0.0	299.1284530162811	
60	275.9320089817047	movie	1		248	58.0	2.5	/experiments/AOT/AOT_stimuli/rescaled_final/2098_fw.mp4	0.0	299.945081949234	2.4998810291290283
60	276.71542406082153	pulse	1	t		58.0	2.5	/experiments/AOT/AOT_stimuli/rescaled_final/2098_fw.mp4	0.0	300.72849702835083	
60	278.31534004211426	pulse	1	t		58.0	2.5	/experiments/AOT/AOT_stimuli/rescaled_final/2098_fw.mp4	0.0	302.32841300964355	
60	278.43189001083374	fix_post	2		12	58.0	2.5	/experiments/AOT/AOT_stimuli/rescaled_final/2098_fw.mp4	0.0	302.44496297836304	0.10001611709594727
61	278.5319061279297	fix_pre	0		120	59.0	2.5	/experiments/AOT/AOT_stimuli/rescaled_final/1175_rv.mp4	0.0	302.544979095459	0.9999938011169434
61	279.53189992904663	movie	1		245	59.0	2.5	/experiments/AOT/AOT_stimuli/rescaled_final/1175_rv.mp4	0.0	303.5449728965759	2.5000691413879395
61	279.91548204421997	pulse	1	t		59.0	2.5	/experiments/AOT/AOT_stimuli/rescaled_final/1175_rv.mp4	0.0	303.92855501174927	
61	281.51544308662415	pulse	1	t		59.0	2.5	/experiments/AOT/AOT_stimuli/rescaled_final/1175_rv.mp4	0.0	305.52851605415344	
61	282.03196907043457	fix_post	2		12	59.0	2.5	/experiments/AOT/AOT_stimuli/rescaled_final/1175_rv.mp4	0.0	306.04504203796387	0.09999585151672363
62	282.1319649219513	fix_pre	0		119	60.0	2.5	/experiments/AOT/AOT_stimuli/rescaled_final/1629_fw.mp4	0.0	306.1450378894806	0.9915640354156494
62	283.1154000759125	pulse	0	t		60.0	2.5	/experiments/AOT/AOT_stimuli/rescaled_final/1629_fw.mp4	0.0	307.1284730434418	
62	283.12352895736694	movie	1		245	60.0	2.5	/experiments/AOT/AOT_stimuli/rescaled_final/1629_fw.mp4	0.0	307.13660192489624	2.508430004119873
62	284.7163190841675	pulse	1	t		60.0	2.5	/experiments/AOT/AOT_stimuli/rescaled_final/1629_fw.mp4	0.0	308.7293920516968	
62	285.6319589614868	fix_post	2		12	60.0	2.5	/experiments/AOT/AOT_stimuli/rescaled_final/1629_fw.mp4	0.0	309.6450319290161	0.09998512268066406
63	285.7319440841675	fix_pre	0		120	61.0	2.5	/experiments/AOT/AOT_stimuli/rescaled_final/0733_rv.mp4	0.0	309.7450170516968	0.9999549388885498
63	286.31534004211426	pulse	0	t		61.0	2.5	/experiments/AOT/AOT_stimuli/rescaled_final/0733_rv.mp4	0.0	310.32841300964355	
63	286.73189902305603	movie	1		246	61.0	2.5	/experiments/AOT/AOT_stimuli/rescaled_final/0733_rv.mp4	0.0	310.7449719905853	2.4999399185180664
63	287.9154829978943	pulse	1	t		61.0	2.5	/experiments/AOT/AOT_stimuli/rescaled_final/0733_rv.mp4	0.0	311.9285559654236	
63	289.2318389415741	fix_post	2		12	61.0	2.5	/experiments/AOT/AOT_stimuli/rescaled_final/0733_rv.mp4	0.0	313.2449119091034	0.10002899169921875
64	289.3318679332733	fix_pre	0		120	62.0	2.5	blank	1.0	313.3449409008026	0.9999351501464844
64	289.5154490470886	pulse	0	t		62.0	2.5	blank	1.0	313.5285220146179	
64	290.3318030834198	movie	1		300	62.0	2.5	blank	1.0	314.3448760509491	2.500087022781372
64	291.1154320240021	pulse	1	t		62.0	2.5	blank	1.0	315.1285049915314	
64	292.7153649330139	pulse	1	t		62.0	2.5	blank	1.0	316.7284379005432	
64	292.8318901062012	fix_post	2		12	62.0	2.5	blank	1.0	316.84496307373047	0.09989380836486816
65	292.93178391456604	fix_pre	0		120	63.0	2.5	/experiments/AOT/AOT_stimuli/rescaled_final/1255_fw.mp4	0.0	316.94485688209534	1.000016212463379
65	293.9318001270294	movie	1		243	63.0	2.5	/experiments/AOT/AOT_stimuli/rescaled_final/1255_fw.mp4	0.0	317.9448730945587	2.500098943710327
65	294.3150300979614	pulse	1	t		63.0	2.5	/experiments/AOT/AOT_stimuli/rescaled_final/1255_fw.mp4	0.0	318.3281030654907	
65	295.9155161380768	pulse	1	t		63.0	2.5	/experiments/AOT/AOT_stimuli/rescaled_final/1255_fw.mp4	0.0	319.9285891056061	
65	296.43189907073975	fix_post	2		12	63.0	2.5	/experiments/AOT/AOT_stimuli/rescaled_final/1255_fw.mp4	0.0	320.44497203826904	0.09998583793640137
66	296.53188490867615	fix_pre	0		119	64.0	2.5	/experiments/AOT/AOT_stimuli/rescaled_final/0182_fw.mp4	0.0	320.54495787620544	0.9915721416473389
66	297.51539611816406	pulse	0	t		64.0	2.5	/experiments/AOT/AOT_stimuli/rescaled_final/0182_fw.mp4	0.0	321.52846908569336	
66	297.5234570503235	movie	1		245	64.0	2.5	/experiments/AOT/AOT_stimuli/rescaled_final/0182_fw.mp4	0.0	321.5365300178528	2.5079500675201416
66	299.1154260635376	pulse	1	t		64.0	2.5	/experiments/AOT/AOT_stimuli/rescaled_final/0182_fw.mp4	0.0	323.1284990310669	
66	300.0314071178436	fix_post	2		12	64.0	2.5	/experiments/AOT/AOT_stimuli/rescaled_final/0182_fw.mp4	0.0	324.0444800853729	0.10006093978881836
67	300.13146805763245	fix_pre	0		120	65.0	2.5	/experiments/AOT/AOT_stimuli/rescaled_final/0940_rv.mp4	0.0	324.14454102516174	1.000427007675171
67	300.71545600891113	pulse	0	t		65.0	2.5	/experiments/AOT/AOT_stimuli/rescaled_final/0940_rv.mp4	0.0	324.72852897644043	
67	301.1318950653076	movie	1		245	65.0	2.5	/experiments/AOT/AOT_stimuli/rescaled_final/0940_rv.mp4	0.0	325.1449680328369	2.4998998641967773
67	302.31519508361816	pulse	1	t		65.0	2.5	/experiments/AOT/AOT_stimuli/rescaled_final/0940_rv.mp4	0.0	326.32826805114746	
67	303.6317949295044	fix_post	2		12	65.0	2.5	/experiments/AOT/AOT_stimuli/rescaled_final/0940_rv.mp4	0.0	327.6448678970337	0.09994816780090332
68	303.7317430973053	fix_pre	0		120	66.0	2.5	/experiments/AOT/AOT_stimuli/rescaled_final/0662_fw.mp4	0.0	327.7448160648346	1.000229835510254
68	303.91528391838074	pulse	0	t		66.0	2.5	/experiments/AOT/AOT_stimuli/rescaled_final/0662_fw.mp4	0.0	327.92835688591003	
68	304.73197293281555	movie	1		243	66.0	2.5	/experiments/AOT/AOT_stimuli/rescaled_final/0662_fw.mp4	0.0	328.74504590034485	2.4998891353607178
68	305.51524901390076	pulse	1	t		66.0	2.5	/experiments/AOT/AOT_stimuli/rescaled_final/0662_fw.mp4	0.0	329.52832198143005	
68	307.11359691619873	pulse	1	t		66.0	2.5	/experiments/AOT/AOT_stimuli/rescaled_final/0662_fw.mp4	0.0	331.126669883728	
68	307.23186206817627	fix_post	2		12	66.0	2.5	/experiments/AOT/AOT_stimuli/rescaled_final/0662_fw.mp4	0.0	331.24493503570557	0.09996485710144043
69	307.3318269252777	fix_pre	0		120	67.0	2.5	/experiments/AOT/AOT_stimuli/rescaled_final/2098_rv.mp4	0.0	331.344899892807	0.9999852180480957
69	308.3318121433258	movie	1		245	67.0	2.5	/experiments/AOT/AOT_stimuli/rescaled_final/2098_rv.mp4	0.0	332.3448851108551	2.4996228218078613
69	308.7163989543915	pulse	1	t		67.0	2.5	/experiments/AOT/AOT_stimuli/rescaled_final/2098_rv.mp4	0.0	332.7294719219208	
69	310.3152220249176	pulse	1	t		67.0	2.5	/experiments/AOT/AOT_stimuli/rescaled_final/2098_rv.mp4	0.0	334.3282949924469	
69	310.83143496513367	fix_post	2		12	67.0	2.5	/experiments/AOT/AOT_stimuli/rescaled_final/2098_rv.mp4	0.0	334.84450793266296	0.1003561019897461
70	310.9317910671234	fix_pre	0		119	68.0	2.5	/experiments/AOT/AOT_stimuli/rescaled_final/0794_fw.mp4	0.0	334.9448640346527	0.9916548728942871
70	311.91522693634033	pulse	0	t		68.0	2.5	/experiments/AOT/AOT_stimuli/rescaled_final/0794_fw.mp4	0.0	335.92829990386963	
70	311.9234459400177	movie	1		246	68.0	2.5	/experiments/AOT/AOT_stimuli/rescaled_final/0794_fw.mp4	0.0	335.936518907547	2.5082759857177734
70	313.5167169570923	pulse	1	t		68.0	2.5	/experiments/AOT/AOT_stimuli/rescaled_final/0794_fw.mp4	0.0	337.5297899246216	
70	314.4317219257355	fix_post	2		12	68.0	2.5	/experiments/AOT/AOT_stimuli/rescaled_final/0794_fw.mp4	0.0	338.44479489326477	0.10004520416259766
71	314.53176712989807	fix_pre	0		120	69.0	2.5	blank	1.0	338.54484009742737	0.9999239444732666
71	315.1152060031891	pulse	0	t		69.0	2.5	blank	1.0	339.1282789707184	
71	315.53169107437134	movie	1		300	69.0	2.5	blank	1.0	339.54476404190063	2.5000128746032715
71	316.7152581214905	pulse	1	t		69.0	2.5	blank	1.0	340.7283310890198	
71	318.0317039489746	fix_post	2		12	69.0	2.5	blank	1.0	342.0447769165039	0.10001111030578613
72	318.1317150592804	fix_pre	0		120	70.0	2.5	/experiments/AOT/AOT_stimuli/rescaled_final/0280_rv.mp4	0.0	342.1447880268097	0.9999508857727051
72	318.3152711391449	pulse	0	t		70.0	2.5	/experiments/AOT/AOT_stimuli/rescaled_final/0280_rv.mp4	0.0	342.3283441066742	
72	319.1316659450531	movie	1		245	70.0	2.5	/experiments/AOT/AOT_stimuli/rescaled_final/0280_rv.mp4	0.0	343.1447389125824	2.500068187713623
72	319.91523814201355	pulse	1	t		70.0	2.5	/experiments/AOT/AOT_stimuli/rescaled_final/0280_rv.mp4	0.0	343.92831110954285	
72	321.51342701911926	pulse	1	t		70.0	2.5	/experiments/AOT/AOT_stimuli/rescaled_final/0280_rv.mp4	0.0	345.52649998664856	
72	321.6317341327667	fix_post	2		12	70.0	2.5	/experiments/AOT/AOT_stimuli/rescaled_final/0280_rv.mp4	0.0	345.644807100296	0.10003089904785156
73	321.7317650318146	fix_pre	0		120	71.0	2.5	/experiments/AOT/AOT_stimuli/rescaled_final/1842_fw.mp4	0.0	345.7448379993439	0.9999489784240723
73	322.73171401023865	movie	1		244	71.0	2.5	/experiments/AOT/AOT_stimuli/rescaled_final/1842_fw.mp4	0.0	346.74478697776794	2.500030040740967
73	323.11651396751404	pulse	1	t		71.0	2.5	/experiments/AOT/AOT_stimuli/rescaled_final/1842_fw.mp4	0.0	347.12958693504333	
73	324.71520709991455	pulse	1	t		71.0	2.5	/experiments/AOT/AOT_stimuli/rescaled_final/1842_fw.mp4	0.0	348.72828006744385	
73	325.2317440509796	fix_post	2		12	71.0	2.5	/experiments/AOT/AOT_stimuli/rescaled_final/1842_fw.mp4	0.0	349.2448170185089	0.09988689422607422
74	325.3316309452057	fix_pre	0		119	72.0	2.5	/experiments/AOT/AOT_stimuli/rescaled_final/1757_fw.mp4	0.0	349.344703912735	0.9916830062866211
74	326.3152189254761	pulse	0	t		72.0	2.5	/experiments/AOT/AOT_stimuli/rescaled_final/1757_fw.mp4	0.0	350.32829189300537	
74	326.3233139514923	movie	1		244	72.0	2.5	/experiments/AOT/AOT_stimuli/rescaled_final/1757_fw.mp4	0.0	350.3363869190216	2.5084640979766846
74	327.91546511650085	pulse	1	t		72.0	2.5	/experiments/AOT/AOT_stimuli/rescaled_final/1757_fw.mp4	0.0	351.92853808403015	
74	328.831778049469	fix_post	2		12	72.0	2.5	/experiments/AOT/AOT_stimuli/rescaled_final/1757_fw.mp4	0.0	352.8448510169983	0.09989786148071289
75	328.9316759109497	fix_pre	0		120	73.0	2.5	/experiments/AOT/AOT_stimuli/rescaled_final/1016_rv.mp4	0.0	352.944748878479	1.0000181198120117
75	329.51514506340027	pulse	0	t		73.0	2.5	/experiments/AOT/AOT_stimuli/rescaled_final/1016_rv.mp4	0.0	353.52821803092957	
75	329.9316940307617	movie	1		244	73.0	2.5	/experiments/AOT/AOT_stimuli/rescaled_final/1016_rv.mp4	0.0	353.944766998291	2.499506950378418
75	331.1152379512787	pulse	1	t		73.0	2.5	/experiments/AOT/AOT_stimuli/rescaled_final/1016_rv.mp4	0.0	355.128310918808	
75	332.43120098114014	fix_post	2		12	73.0	2.5	/experiments/AOT/AOT_stimuli/rescaled_final/1016_rv.mp4	0.0	356.44427394866943	0.10038208961486816
76	332.531583070755	fix_pre	0		120	74.0	2.5	/experiments/AOT/AOT_stimuli/rescaled_final/1205_rv.mp4	0.0	356.5446560382843	1.0001220703125
76	332.715145111084	pulse	0	t		74.0	2.5	/experiments/AOT/AOT_stimuli/rescaled_final/1205_rv.mp4	0.0	356.7282180786133	
76	333.5317051410675	movie	1		245	74.0	2.5	/experiments/AOT/AOT_stimuli/rescaled_final/1205_rv.mp4	0.0	357.5447781085968	2.4995148181915283
76	334.3151710033417	pulse	1	t		74.0	2.5	/experiments/AOT/AOT_stimuli/rescaled_final/1205_rv.mp4	0.0	358.328243970871	
76	335.91376209259033	pulse	1	t		74.0	2.5	/experiments/AOT/AOT_stimuli/rescaled_final/1205_rv.mp4	0.0	359.92683506011963	
76	336.03121995925903	fix_post	2		12	74.0	2.5	/experiments/AOT/AOT_stimuli/rescaled_final/1205_rv.mp4	0.0	360.04429292678833	0.10039305686950684
77	336.13161301612854	fix_pre	0		120	75.0	2.5	/experiments/AOT/AOT_stimuli/rescaled_final/0373_rv.mp4	0.0	360.14468598365784	1.0000479221343994
77	337.13166093826294	movie	1		244	75.0	2.5	/experiments/AOT/AOT_stimuli/rescaled_final/0373_rv.mp4	0.0	361.14473390579224	2.5000550746917725
77	337.5150101184845	pulse	1	t		75.0	2.5	/experiments/AOT/AOT_stimuli/rescaled_final/0373_rv.mp4	0.0	361.5280830860138	
77	339.1151421070099	pulse	1	t		75.0	2.5	/experiments/AOT/AOT_stimuli/rescaled_final/0373_rv.mp4	0.0	363.1282150745392	
77	339.6317160129547	fix_post	2		12	75.0	2.5	/experiments/AOT/AOT_stimuli/rescaled_final/0373_rv.mp4	0.0	363.644788980484	0.0999751091003418
78	339.73169112205505	fix_pre	0		119	76.0	2.5	/experiments/AOT/AOT_stimuli/rescaled_final/1918_rv.mp4	0.0	363.74476408958435	0.9917218685150146
78	340.7151839733124	pulse	0	t		76.0	2.5	/experiments/AOT/AOT_stimuli/rescaled_final/1918_rv.mp4	0.0	364.7282569408417	
78	340.72341299057007	movie	1		243	76.0	2.5	/experiments/AOT/AOT_stimuli/rescaled_final/1918_rv.mp4	0.0	364.73648595809937	2.508186101913452
78	342.3161389827728	pulse	1	t		76.0	2.5	/experiments/AOT/AOT_stimuli/rescaled_final/1918_rv.mp4	0.0	366.3292119503021	
78	343.2315990924835	fix_post	2		12	76.0	2.5	/experiments/AOT/AOT_stimuli/rescaled_final/1918_rv.mp4	0.0	367.2446720600128	0.09998393058776855
79	343.3315830230713	fix_pre	0		120	77.0	2.5	blank	1.0	367.3446559906006	1.0001530647277832
79	343.9151260852814	pulse	0	t		77.0	2.5	blank	1.0	367.92819905281067	
79	344.3317360877991	movie	1		300	77.0	2.5	blank	1.0	368.34480905532837	2.4997758865356445
79	345.51516103744507	pulse	1	t		77.0	2.5	blank	1.0	369.52823400497437	
79	346.8315119743347	fix_post	2		12	77.0	2.5	blank	1.0	370.844584941864	0.10007810592651367
80	346.93159008026123	fix_pre	0		120	78.0	2.5	/experiments/AOT/AOT_stimuli/rescaled_final/1098_fw.mp4	0.0	370.9446630477905	0.9999849796295166
80	347.1151030063629	pulse	0	t		78.0	2.5	/experiments/AOT/AOT_stimuli/rescaled_final/1098_fw.mp4	0.0	371.1281759738922	
80	347.93157505989075	movie	1		246	78.0	2.5	/experiments/AOT/AOT_stimuli/rescaled_final/1098_fw.mp4	0.0	371.94464802742004	2.5000219345092773
80	348.71514892578125	pulse	1	t		78.0	2.5	/experiments/AOT/AOT_stimuli/rescaled_final/1098_fw.mp4	0.0	372.72822189331055	
80	350.3111400604248	pulse	1	t		78.0	2.5	/experiments/AOT/AOT_stimuli/rescaled_final/1098_fw.mp4	0.0	374.3242130279541	
80	350.4315969944	fix_post	2		12	78.0	2.5	/experiments/AOT/AOT_stimuli/rescaled_final/1098_fw.mp4	0.0	374.4446699619293	0.09996795654296875
81	350.531564950943	fix_pre	0		120	79.0	2.5	/experiments/AOT/AOT_stimuli/rescaled_final/1877_fw.mp4	0.0	374.5446379184723	1.0000090599060059
81	351.531574010849	movie	1		245	79.0	2.5	/experiments/AOT/AOT_stimuli/rescaled_final/1877_fw.mp4	0.0	375.5446469783783	2.500067949295044
81	351.91608595848083	pulse	1	t		79.0	2.5	/experiments/AOT/AOT_stimuli/rescaled_final/1877_fw.mp4	0.0	375.92915892601013	
81	353.5151219367981	pulse	1	t		79.0	2.5	/experiments/AOT/AOT_stimuli/rescaled_final/1877_fw.mp4	0.0	377.5281949043274	
81	354.03164196014404	fix_post	2		12	79.0	2.5	/experiments/AOT/AOT_stimuli/rescaled_final/1877_fw.mp4	0.0	378.04471492767334	0.09997415542602539
82	354.13161611557007	fix_pre	0		119	80.0	2.5	/experiments/AOT/AOT_stimuli/rescaled_final/0596_rv.mp4	0.0	378.14468908309937	0.9912159442901611
82	355.11510491371155	pulse	0	t		80.0	2.5	/experiments/AOT/AOT_stimuli/rescaled_final/0596_rv.mp4	0.0	379.12817788124084	
82	355.12283205986023	movie	1		247	80.0	2.5	/experiments/AOT/AOT_stimuli/rescaled_final/0596_rv.mp4	0.0	379.1359050273895	2.508970022201538
82	356.7148549556732	pulse	1	t		80.0	2.5	/experiments/AOT/AOT_stimuli/rescaled_final/0596_rv.mp4	0.0	380.7279279232025	
82	357.63180208206177	fix_post	2		12	80.0	2.5	/experiments/AOT/AOT_stimuli/rescaled_final/0596_rv.mp4	0.0	381.64487504959106	0.10001993179321289
83	357.731822013855	fix_pre	0		120	81.0	2.5	/experiments/AOT/AOT_stimuli/rescaled_final/1002_fw.mp4	0.0	381.7448949813843	0.9996991157531738
83	358.314964056015	pulse	0	t		81.0	2.5	/experiments/AOT/AOT_stimuli/rescaled_final/1002_fw.mp4	0.0	382.3280370235443	
83	358.73152112960815	movie	1		245	81.0	2.5	/experiments/AOT/AOT_stimuli/rescaled_final/1002_fw.mp4	0.0	382.74459409713745	2.499598979949951
83	359.91518092155457	pulse	1	t		81.0	2.5	/experiments/AOT/AOT_stimuli/rescaled_final/1002_fw.mp4	0.0	383.92825388908386	
83	361.2311201095581	fix_post	2		12	81.0	2.5	/experiments/AOT/AOT_stimuli/rescaled_final/1002_fw.mp4	0.0	385.2441930770874	0.10045194625854492
84	361.33157205581665	fix_pre	0		120	82.0	2.5	/experiments/AOT/AOT_stimuli/rescaled_final/1893_fw.mp4	0.0	385.34464502334595	0.9996778964996338
84	361.51505994796753	pulse	0	t		82.0	2.5	/experiments/AOT/AOT_stimuli/rescaled_final/1893_fw.mp4	0.0	385.5281329154968	
84	362.3312499523163	movie	1		243	82.0	2.5	/experiments/AOT/AOT_stimuli/rescaled_final/1893_fw.mp4	0.0	386.3443229198456	2.5002450942993164
84	363.114951133728	pulse	1	t		82.0	2.5	/experiments/AOT/AOT_stimuli/rescaled_final/1893_fw.mp4	0.0	387.1280241012573	
84	364.7136080265045	pulse	1	t		82.0	2.5	/experiments/AOT/AOT_stimuli/rescaled_final/1893_fw.mp4	0.0	388.7266809940338	
84	364.8314950466156	fix_post	2		12	82.0	2.5	/experiments/AOT/AOT_stimuli/rescaled_final/1893_fw.mp4	0.0	388.8445680141449	0.10004997253417969
85	364.9315450191498	fix_pre	0		120	83.0	2.5	blank	1.0	388.9446179866791	0.9999969005584717
85	365.93154191970825	movie	1		300	83.0	2.5	blank	1.0	389.94461488723755	2.499864101409912
85	366.3149769306183	pulse	1	t		83.0	2.5	blank	1.0	390.3280498981476	
85	367.9149670600891	pulse	1	t		83.0	2.5	blank	1.0	391.9280400276184	
85	368.43140602111816	fix_post	2		12	83.0	2.5	blank	1.0	392.44447898864746	0.10007309913635254
87	368.5314791202545	stim	0		1716					392.5445520877838	14.299919843673706
87	369.5149381160736	pulse	0	t						393.5280110836029	
87	371.114953994751	pulse	0	t						395.1280269622803	
87	372.71489906311035	pulse	0	t						396.72797203063965	
87	374.31497597694397	pulse	0	t						398.32804894447327	
87	375.91496205329895	pulse	0	t						399.92803502082825	
87	377.51491498947144	pulse	0	t						401.52798795700073	
87	379.1149160861969	pulse	0	t						403.1279890537262	
87	380.71495604515076	pulse	0	t						404.72802901268005	
87	382.3149690628052	pulse	0	t						406.3280420303345	
