trial_nr	onset	event_type	phase	response	nr_frames	movie_index	movie_duration	movie_file	blank	onset_abs	duration
0	0.20850586891174316	stim	0		91					27.7608380317688	0.7582271099090576
0	0.9588329792022705	response	0	space						28.511165142059326	
1	0.9667329788208008	stim	0		4625					28.519065141677856	38.55966782569885
1	39.51146483421326	pulse	0	t						67.06379699707031	
1	39.52640080451965	stim	1		1715					67.07873296737671	14.298228025436401
1	41.10623383522034	pulse	1	t						68.65856599807739	
1	42.70651078224182	pulse	1	t						70.25884294509888	
1	44.3067147731781	pulse	1	t						71.85904693603516	
1	45.907020807266235	pulse	1	t						73.45935297012329	
1	47.507152795791626	pulse	1	t						75.05948495864868	
1	49.107486963272095	pulse	1	t						76.65981912612915	
1	50.70771789550781	pulse	1	t						78.26005005836487	
1	52.30797791481018	pulse	1	t						79.86031007766724	
2	53.824628829956055	fix_pre	0		11	0.0	2.5	/experiments/knapen_AOT/AOT_stimuli/rescaled_final/1754_fw.mp4	0.0	81.37696099281311	0.10840916633605957
2	53.9082407951355	pulse	0	t		0.0	2.5	/experiments/knapen_AOT/AOT_stimuli/rescaled_final/1754_fw.mp4	0.0	81.46057295799255	
2	53.933037996292114	movie	1		245	0.0	2.5	/experiments/knapen_AOT/AOT_stimuli/rescaled_final/1754_fw.mp4	0.0	81.48537015914917	2.492090940475464
2	55.513030767440796	pulse	1	t		0.0	2.5	/experiments/knapen_AOT/AOT_stimuli/rescaled_final/1754_fw.mp4	0.0	83.06536293029785	
2	56.42512893676758	fix_post	2		12	0.0	2.5	/experiments/knapen_AOT/AOT_stimuli/rescaled_final/1754_fw.mp4	0.0	83.97746109962463	0.09989595413208008
3	56.52502489089966	fix_pre	0		120	1.0	2.5	/experiments/knapen_AOT/AOT_stimuli/rescaled_final/1120_rv.mp4	0.0	84.07735705375671	1.0001320838928223
3	57.10866189002991	pulse	0	t		1.0	2.5	/experiments/knapen_AOT/AOT_stimuli/rescaled_final/1120_rv.mp4	0.0	84.66099405288696	
3	57.52515697479248	movie	1		244	1.0	2.5	/experiments/knapen_AOT/AOT_stimuli/rescaled_final/1120_rv.mp4	0.0	85.07748913764954	2.500516891479492
3	58.70910096168518	pulse	1	t		1.0	2.5	/experiments/knapen_AOT/AOT_stimuli/rescaled_final/1120_rv.mp4	0.0	86.26143312454224	
3	60.02567386627197	fix_post	2		12	1.0	2.5	/experiments/knapen_AOT/AOT_stimuli/rescaled_final/1120_rv.mp4	0.0	87.57800602912903	0.09987998008728027
4	60.12555384635925	fix_pre	0		120	2.0	2.5	/experiments/knapen_AOT/AOT_stimuli/rescaled_final/1653_rv.mp4	0.0	87.67788600921631	1.0001749992370605
4	60.30163884162903	pulse	0	t		2.0	2.5	/experiments/knapen_AOT/AOT_stimuli/rescaled_final/1653_rv.mp4	0.0	87.85397100448608	
4	61.12572884559631	movie	1		244	2.0	2.5	/experiments/knapen_AOT/AOT_stimuli/rescaled_final/1653_rv.mp4	0.0	88.67806100845337	2.500473976135254
4	61.90196895599365	pulse	1	t		2.0	2.5	/experiments/knapen_AOT/AOT_stimuli/rescaled_final/1653_rv.mp4	0.0	89.45430111885071	
4	63.50143480300903	pulse	1	t		2.0	2.5	/experiments/knapen_AOT/AOT_stimuli/rescaled_final/1653_rv.mp4	0.0	91.05376696586609	
4	63.62620282173157	fix_post	2		12	2.0	2.5	/experiments/knapen_AOT/AOT_stimuli/rescaled_final/1653_rv.mp4	0.0	91.17853498458862	0.09992003440856934
5	63.72612285614014	fix_pre	0		120	3.0	2.5	/experiments/knapen_AOT/AOT_stimuli/rescaled_final/0952_fw.mp4	0.0	91.27845501899719	1.0001239776611328
5	64.72624683380127	movie	1		246	3.0	2.5	/experiments/knapen_AOT/AOT_stimuli/rescaled_final/0952_fw.mp4	0.0	92.27857899665833	2.4920549392700195
5	65.10146379470825	pulse	1	t		3.0	2.5	/experiments/knapen_AOT/AOT_stimuli/rescaled_final/0952_fw.mp4	0.0	92.65379595756531	
5	66.70181798934937	pulse	1	t		3.0	2.5	/experiments/knapen_AOT/AOT_stimuli/rescaled_final/0952_fw.mp4	0.0	94.25415015220642	
5	67.21830177307129	fix_post	2		12	3.0	2.5	/experiments/knapen_AOT/AOT_stimuli/rescaled_final/0952_fw.mp4	0.0	94.77063393592834	0.10002613067626953
6	67.31832790374756	fix_pre	0		119	4.0	2.5	/experiments/knapen_AOT/AOT_stimuli/rescaled_final/1680_rv.mp4	0.0	94.87066006660461	0.9918229579925537
6	68.30202889442444	pulse	0	t		4.0	2.5	/experiments/knapen_AOT/AOT_stimuli/rescaled_final/1680_rv.mp4	0.0	95.8543610572815	
6	68.31015086174011	movie	1		245	4.0	2.5	/experiments/knapen_AOT/AOT_stimuli/rescaled_final/1680_rv.mp4	0.0	95.86248302459717	2.5086419582366943
6	69.90373086929321	pulse	1	t		4.0	2.5	/experiments/knapen_AOT/AOT_stimuli/rescaled_final/1680_rv.mp4	0.0	97.45606303215027	
6	70.8187928199768	fix_post	2		12	4.0	2.5	/experiments/knapen_AOT/AOT_stimuli/rescaled_final/1680_rv.mp4	0.0	98.37112498283386	0.10008907318115234
7	70.91888189315796	fix_pre	0		120	5.0	2.5	/experiments/knapen_AOT/AOT_stimuli/rescaled_final/0021_fw.mp4	0.0	98.47121405601501	1.0001258850097656
7	71.50254583358765	pulse	0	t		5.0	2.5	/experiments/knapen_AOT/AOT_stimuli/rescaled_final/0021_fw.mp4	0.0	99.0548779964447	
7	71.91900777816772	movie	1		246	5.0	2.5	/experiments/knapen_AOT/AOT_stimuli/rescaled_final/0021_fw.mp4	0.0	99.47133994102478	2.500490188598633
7	73.10278391838074	pulse	1	t		5.0	2.5	/experiments/knapen_AOT/AOT_stimuli/rescaled_final/0021_fw.mp4	0.0	100.6551160812378	
7	74.41949796676636	fix_post	2		12	5.0	2.5	/experiments/knapen_AOT/AOT_stimuli/rescaled_final/0021_fw.mp4	0.0	101.97183012962341	0.09993600845336914
8	74.51943397521973	fix_pre	0		120	6.0	2.5	blank	1.0	102.07176613807678	1.0001118183135986
8	74.70293092727661	pulse	0	t		6.0	2.5	blank	1.0	102.25526309013367	
8	75.51954579353333	movie	1		300	6.0	2.5	blank	1.0	103.07187795639038	2.5004100799560547
8	76.30316591262817	pulse	1	t		6.0	2.5	blank	1.0	103.85549807548523	
8	77.90348482131958	pulse	1	t		6.0	2.5	blank	1.0	105.45581698417664	
8	78.01995587348938	fix_post	2		12	6.0	2.5	blank	1.0	105.57228803634644	0.09995603561401367
9	78.1199119091034	fix_pre	0		120	7.0	2.5	/experiments/knapen_AOT/AOT_stimuli/rescaled_final/0294_fw.mp4	0.0	105.67224407196045	1.000135898590088
9	79.12004780769348	movie	1		244	7.0	2.5	/experiments/knapen_AOT/AOT_stimuli/rescaled_final/0294_fw.mp4	0.0	106.67237997055054	2.4920451641082764
9	79.50426483154297	pulse	1	t		7.0	2.5	/experiments/knapen_AOT/AOT_stimuli/rescaled_final/0294_fw.mp4	0.0	107.05659699440002	
9	81.10390377044678	pulse	1	t		7.0	2.5	/experiments/knapen_AOT/AOT_stimuli/rescaled_final/0294_fw.mp4	0.0	108.65623593330383	
9	81.61209297180176	fix_post	2		12	7.0	2.5	/experiments/knapen_AOT/AOT_stimuli/rescaled_final/0294_fw.mp4	0.0	109.16442513465881	0.1000068187713623
10	81.71209979057312	fix_pre	0		120	8.0	2.5	/experiments/knapen_AOT/AOT_stimuli/rescaled_final/0260_rv.mp4	0.0	109.26443195343018	1.0002491474151611
10	82.70411992073059	pulse	0	t		8.0	2.5	/experiments/knapen_AOT/AOT_stimuli/rescaled_final/0260_rv.mp4	0.0	110.25645208358765	
10	82.71234893798828	movie	1		247	8.0	2.5	/experiments/knapen_AOT/AOT_stimuli/rescaled_final/0260_rv.mp4	0.0	110.26468110084534	2.508641004562378
10	84.30469799041748	pulse	1	t		8.0	2.5	/experiments/knapen_AOT/AOT_stimuli/rescaled_final/0260_rv.mp4	0.0	111.85703015327454	
10	85.22098994255066	fix_post	2		12	8.0	2.5	/experiments/knapen_AOT/AOT_stimuli/rescaled_final/0260_rv.mp4	0.0	112.77332210540771	0.09999895095825195
11	85.32098889350891	fix_pre	0		120	9.0	2.5	/experiments/knapen_AOT/AOT_stimuli/rescaled_final/0132_fw.mp4	0.0	112.87332105636597	1.0002520084381104
11	85.9047338962555	pulse	0	t		9.0	2.5	/experiments/knapen_AOT/AOT_stimuli/rescaled_final/0132_fw.mp4	0.0	113.45706605911255	
11	86.32124090194702	movie	1		245	9.0	2.5	/experiments/knapen_AOT/AOT_stimuli/rescaled_final/0132_fw.mp4	0.0	113.87357306480408	2.500274896621704
11	87.50493383407593	pulse	1	t		9.0	2.5	/experiments/knapen_AOT/AOT_stimuli/rescaled_final/0132_fw.mp4	0.0	115.05726599693298	
11	88.82151579856873	fix_post	2		12	9.0	2.5	/experiments/knapen_AOT/AOT_stimuli/rescaled_final/0132_fw.mp4	0.0	116.37384796142578	0.10003113746643066
12	88.92154693603516	fix_pre	0		120	10.0	2.5	/experiments/knapen_AOT/AOT_stimuli/rescaled_final/0656_fw.mp4	0.0	116.47387909889221	1.0001389980316162
12	89.10508394241333	pulse	0	t		10.0	2.5	/experiments/knapen_AOT/AOT_stimuli/rescaled_final/0656_fw.mp4	0.0	116.65741610527039	
12	89.92168593406677	movie	1		245	10.0	2.5	/experiments/knapen_AOT/AOT_stimuli/rescaled_final/0656_fw.mp4	0.0	117.47401809692383	2.500432014465332
12	90.7054078578949	pulse	1	t		10.0	2.5	/experiments/knapen_AOT/AOT_stimuli/rescaled_final/0656_fw.mp4	0.0	118.25774002075195	
12	92.3031358718872	pulse	1	t		10.0	2.5	/experiments/knapen_AOT/AOT_stimuli/rescaled_final/0656_fw.mp4	0.0	119.85546803474426	
12	92.4221179485321	fix_post	2		12	10.0	2.5	/experiments/knapen_AOT/AOT_stimuli/rescaled_final/0656_fw.mp4	0.0	119.97445011138916	0.0999288558959961
13	92.5220468044281	fix_pre	0		119	11.0	2.5	/experiments/knapen_AOT/AOT_stimuli/rescaled_final/0967_rv.mp4	0.0	120.07437896728516	0.991811990737915
13	93.51385879516602	movie	1		246	11.0	2.5	/experiments/knapen_AOT/AOT_stimuli/rescaled_final/0967_rv.mp4	0.0	121.06619095802307	2.500441074371338
13	93.90591287612915	pulse	1	t		11.0	2.5	/experiments/knapen_AOT/AOT_stimuli/rescaled_final/0967_rv.mp4	0.0	121.4582450389862	
13	95.50603079795837	pulse	1	t		11.0	2.5	/experiments/knapen_AOT/AOT_stimuli/rescaled_final/0967_rv.mp4	0.0	123.05836296081543	
13	96.01429986953735	fix_post	2		12	11.0	2.5	/experiments/knapen_AOT/AOT_stimuli/rescaled_final/0967_rv.mp4	0.0	123.56663203239441	0.09999489784240723
14	96.11429476737976	fix_pre	0		120	12.0	2.5	/experiments/knapen_AOT/AOT_stimuli/rescaled_final/1906_fw.mp4	0.0	123.66662693023682	1.0001590251922607
14	97.10634684562683	pulse	0	t		12.0	2.5	/experiments/knapen_AOT/AOT_stimuli/rescaled_final/1906_fw.mp4	0.0	124.65867900848389	
14	97.11445379257202	movie	1		248	12.0	2.5	/experiments/knapen_AOT/AOT_stimuli/rescaled_final/1906_fw.mp4	0.0	124.66678595542908	2.5086541175842285
14	98.70693397521973	pulse	1	t		12.0	2.5	/experiments/knapen_AOT/AOT_stimuli/rescaled_final/1906_fw.mp4	0.0	126.25926613807678	
14	99.62310791015625	fix_post	2		12	12.0	2.5	/experiments/knapen_AOT/AOT_stimuli/rescaled_final/1906_fw.mp4	0.0	127.1754400730133	0.10000801086425781
15	99.72311592102051	fix_pre	0		120	13.0	2.5	blank	1.0	127.27544808387756	1.000208854675293
15	100.30684089660645	pulse	0	t		13.0	2.5	blank	1.0	127.8591730594635	
15	100.7233247756958	movie	1		300	13.0	2.5	blank	1.0	128.27565693855286	2.500465154647827
15	101.90705490112305	pulse	1	t		13.0	2.5	blank	1.0	129.4593870639801	
15	103.22378993034363	fix_post	2		9	13.0	2.5	blank	1.0	130.77612209320068	0.09992384910583496
16	103.32371377944946	fix_pre	0		120	14.0	2.5	/experiments/knapen_AOT/AOT_stimuli/rescaled_final/2145_fw.mp4	0.0	130.87604594230652	1.0000882148742676
16	103.50719690322876	pulse	0	t		14.0	2.5	/experiments/knapen_AOT/AOT_stimuli/rescaled_final/2145_fw.mp4	0.0	131.05952906608582	
16	104.32380199432373	movie	1		245	14.0	2.5	/experiments/knapen_AOT/AOT_stimuli/rescaled_final/2145_fw.mp4	0.0	131.8761341571808	2.5004019737243652
16	105.1076238155365	pulse	1	t		14.0	2.5	/experiments/knapen_AOT/AOT_stimuli/rescaled_final/2145_fw.mp4	0.0	132.65995597839355	
16	106.70777988433838	pulse	1	t		14.0	2.5	/experiments/knapen_AOT/AOT_stimuli/rescaled_final/2145_fw.mp4	0.0	134.26011204719543	
16	106.8242039680481	fix_post	2		12	14.0	2.5	/experiments/knapen_AOT/AOT_stimuli/rescaled_final/2145_fw.mp4	0.0	134.37653613090515	0.10001683235168457
17	106.92422080039978	fix_pre	0		120	15.0	2.5	/experiments/knapen_AOT/AOT_stimuli/rescaled_final/0482_rv.mp4	0.0	134.47655296325684	1.0001981258392334
17	107.92441892623901	movie	1		242	15.0	2.5	/experiments/knapen_AOT/AOT_stimuli/rescaled_final/0482_rv.mp4	0.0	135.47675108909607	2.4920809268951416
17	108.30848789215088	pulse	1	t		15.0	2.5	/experiments/knapen_AOT/AOT_stimuli/rescaled_final/0482_rv.mp4	0.0	135.86082005500793	
17	109.90813684463501	pulse	1	t		15.0	2.5	/experiments/knapen_AOT/AOT_stimuli/rescaled_final/0482_rv.mp4	0.0	137.46046900749207	
17	110.41649985313416	fix_post	2		12	15.0	2.5	/experiments/knapen_AOT/AOT_stimuli/rescaled_final/0482_rv.mp4	0.0	137.9688320159912	0.0999150276184082
18	110.51641488075256	fix_pre	0		120	16.0	2.5	/experiments/knapen_AOT/AOT_stimuli/rescaled_final/0021_rv.mp4	0.0	138.06874704360962	1.000166893005371
18	111.50855088233948	pulse	0	t		16.0	2.5	/experiments/knapen_AOT/AOT_stimuli/rescaled_final/0021_rv.mp4	0.0	139.06088304519653	
18	111.51658177375793	movie	1		246	16.0	2.5	/experiments/knapen_AOT/AOT_stimuli/rescaled_final/0021_rv.mp4	0.0	139.068913936615	2.508657217025757
18	113.11248278617859	pulse	1	t		16.0	2.5	/experiments/knapen_AOT/AOT_stimuli/rescaled_final/0021_rv.mp4	0.0	140.66481494903564	
18	114.02523899078369	fix_post	2		12	16.0	2.5	/experiments/knapen_AOT/AOT_stimuli/rescaled_final/0021_rv.mp4	0.0	141.57757115364075	0.10003185272216797
19	114.12527084350586	fix_pre	0		120	17.0	2.5	/experiments/knapen_AOT/AOT_stimuli/rescaled_final/0111_fw.mp4	0.0	141.67760300636292	1.0001890659332275
19	114.70898294448853	pulse	0	t		17.0	2.5	/experiments/knapen_AOT/AOT_stimuli/rescaled_final/0111_fw.mp4	0.0	142.26131510734558	
19	115.12545990943909	movie	1		245	17.0	2.5	/experiments/knapen_AOT/AOT_stimuli/rescaled_final/0111_fw.mp4	0.0	142.67779207229614	2.5005040168762207
19	116.3092098236084	pulse	1	t		17.0	2.5	/experiments/knapen_AOT/AOT_stimuli/rescaled_final/0111_fw.mp4	0.0	143.86154198646545	
19	117.62596392631531	fix_post	2		12	17.0	2.5	/experiments/knapen_AOT/AOT_stimuli/rescaled_final/0111_fw.mp4	0.0	145.17829608917236	0.09989786148071289
20	117.72586178779602	fix_pre	0		120	18.0	2.5	/experiments/knapen_AOT/AOT_stimuli/rescaled_final/1298_fw.mp4	0.0	145.27819395065308	1.0001070499420166
20	117.90207481384277	pulse	0	t		18.0	2.5	/experiments/knapen_AOT/AOT_stimuli/rescaled_final/1298_fw.mp4	0.0	145.45440697669983	
20	118.72596883773804	movie	1		244	18.0	2.5	/experiments/knapen_AOT/AOT_stimuli/rescaled_final/1298_fw.mp4	0.0	146.2783010005951	2.5003299713134766
20	119.50225877761841	pulse	1	t		18.0	2.5	/experiments/knapen_AOT/AOT_stimuli/rescaled_final/1298_fw.mp4	0.0	147.05459094047546	
20	121.10991287231445	pulse	1	t		18.0	2.5	/experiments/knapen_AOT/AOT_stimuli/rescaled_final/1298_fw.mp4	0.0	148.6622450351715	
20	121.22629880905151	fix_post	2		12	18.0	2.5	/experiments/knapen_AOT/AOT_stimuli/rescaled_final/1298_fw.mp4	0.0	148.77863097190857	0.10011410713195801
21	121.32641291618347	fix_pre	0		120	19.0	2.5	blank	1.0	148.87874507904053	1.000087022781372
21	122.32649993896484	movie	1		299	19.0	2.5	blank	1.0	149.8788321018219	2.492116928100586
21	122.70267796516418	pulse	1	t		19.0	2.5	blank	1.0	150.25501012802124	
21	124.30286478996277	pulse	1	t		19.0	2.5	blank	1.0	151.85519695281982	
21	124.81861686706543	fix_post	2		12	19.0	2.5	blank	1.0	152.37094902992249	0.10002994537353516
22	124.91864681243896	fix_pre	0		119	20.0	2.5	/experiments/knapen_AOT/AOT_stimuli/rescaled_final/0786_fw.mp4	0.0	152.47097897529602	0.9917941093444824
22	125.90221691131592	pulse	0	t		20.0	2.5	/experiments/knapen_AOT/AOT_stimuli/rescaled_final/0786_fw.mp4	0.0	153.45454907417297	
22	125.91044092178345	movie	1		246	20.0	2.5	/experiments/knapen_AOT/AOT_stimuli/rescaled_final/0786_fw.mp4	0.0	153.4627730846405	2.5087978839874268
22	127.50365281105042	pulse	1	t		20.0	2.5	/experiments/knapen_AOT/AOT_stimuli/rescaled_final/0786_fw.mp4	0.0	155.05598497390747	
22	128.41923880577087	fix_post	2		12	20.0	2.5	/experiments/knapen_AOT/AOT_stimuli/rescaled_final/0786_fw.mp4	0.0	155.97157096862793	0.09990406036376953
23	128.51914286613464	fix_pre	0		120	21.0	2.5	/experiments/knapen_AOT/AOT_stimuli/rescaled_final/1232_rv.mp4	0.0	156.0714750289917	1.0001459121704102
23	129.10284090042114	pulse	0	t		21.0	2.5	/experiments/knapen_AOT/AOT_stimuli/rescaled_final/1232_rv.mp4	0.0	156.6551730632782	
23	129.51928877830505	movie	1		245	21.0	2.5	/experiments/knapen_AOT/AOT_stimuli/rescaled_final/1232_rv.mp4	0.0	157.0716209411621	2.500312089920044
23	130.7031228542328	pulse	1	t		21.0	2.5	/experiments/knapen_AOT/AOT_stimuli/rescaled_final/1232_rv.mp4	0.0	158.25545501708984	
23	132.0196008682251	fix_post	2		12	21.0	2.5	/experiments/knapen_AOT/AOT_stimuli/rescaled_final/1232_rv.mp4	0.0	159.57193303108215	0.1000669002532959
24	132.1196677684784	fix_pre	0		120	22.0	2.5	/experiments/knapen_AOT/AOT_stimuli/rescaled_final/0928_fw.mp4	0.0	159.67199993133545	1.0001471042633057
24	132.30318593978882	pulse	0	t		22.0	2.5	/experiments/knapen_AOT/AOT_stimuli/rescaled_final/0928_fw.mp4	0.0	159.85551810264587	
24	133.1198148727417	movie	1		244	22.0	2.5	/experiments/knapen_AOT/AOT_stimuli/rescaled_final/0928_fw.mp4	0.0	160.67214703559875	2.5003480911254883
24	133.90350484848022	pulse	1	t		22.0	2.5	/experiments/knapen_AOT/AOT_stimuli/rescaled_final/0928_fw.mp4	0.0	161.45583701133728	
24	135.50365591049194	pulse	1	t		22.0	2.5	/experiments/knapen_AOT/AOT_stimuli/rescaled_final/0928_fw.mp4	0.0	163.055988073349	
24	135.6201629638672	fix_post	2		12	22.0	2.5	/experiments/knapen_AOT/AOT_stimuli/rescaled_final/0928_fw.mp4	0.0	163.17249512672424	0.10002493858337402
25	135.72018790245056	fix_pre	0		119	23.0	2.5	/experiments/knapen_AOT/AOT_stimuli/rescaled_final/1414_fw.mp4	0.0	163.27252006530762	0.9918510913848877
25	136.71203899383545	movie	1		244	23.0	2.5	/experiments/knapen_AOT/AOT_stimuli/rescaled_final/1414_fw.mp4	0.0	164.2643711566925	2.5004239082336426
25	137.1040267944336	pulse	1	t		23.0	2.5	/experiments/knapen_AOT/AOT_stimuli/rescaled_final/1414_fw.mp4	0.0	164.65635895729065	
25	138.704167842865	pulse	1	t		23.0	2.5	/experiments/knapen_AOT/AOT_stimuli/rescaled_final/1414_fw.mp4	0.0	166.25650000572205	
25	139.2124629020691	fix_post	2		12	23.0	2.5	/experiments/knapen_AOT/AOT_stimuli/rescaled_final/1414_fw.mp4	0.0	166.76479506492615	0.0999300479888916
26	139.31239295005798	fix_pre	0		120	24.0	2.5	/experiments/knapen_AOT/AOT_stimuli/rescaled_final/1698_fw.mp4	0.0	166.86472511291504	1.0002009868621826
26	140.30440998077393	pulse	0	t		24.0	2.5	/experiments/knapen_AOT/AOT_stimuli/rescaled_final/1698_fw.mp4	0.0	167.85674214363098	
26	140.31259393692017	movie	1		246	24.0	2.5	/experiments/knapen_AOT/AOT_stimuli/rescaled_final/1698_fw.mp4	0.0	167.86492609977722	2.508723020553589
26	141.90525078773499	pulse	1	t		24.0	2.5	/experiments/knapen_AOT/AOT_stimuli/rescaled_final/1698_fw.mp4	0.0	169.45758295059204	
26	142.82131695747375	fix_post	2		12	24.0	2.5	/experiments/knapen_AOT/AOT_stimuli/rescaled_final/1698_fw.mp4	0.0	170.3736491203308	0.09997701644897461
27	142.92129397392273	fix_pre	0		120	25.0	2.5	/experiments/knapen_AOT/AOT_stimuli/rescaled_final/0928_fw.mp4	0.0	170.47362613677979	1.0001089572906494
27	143.50503182411194	pulse	0	t		25.0	2.5	/experiments/knapen_AOT/AOT_stimuli/rescaled_final/0928_fw.mp4	0.0	171.057363986969	
27	143.92140293121338	movie	1		244	25.0	2.5	/experiments/knapen_AOT/AOT_stimuli/rescaled_final/0928_fw.mp4	0.0	171.47373509407043	2.5004079341888428
27	145.1051948070526	pulse	1	t		25.0	2.5	/experiments/knapen_AOT/AOT_stimuli/rescaled_final/0928_fw.mp4	0.0	172.65752696990967	
27	146.42181086540222	fix_post	2		12	25.0	2.5	/experiments/knapen_AOT/AOT_stimuli/rescaled_final/0928_fw.mp4	0.0	173.97414302825928	0.10000801086425781
28	146.52181887626648	fix_pre	0		120	26.0	2.5	blank	1.0	174.07415103912354	1.0001261234283447
28	146.70538783073425	pulse	0	t		26.0	2.5	blank	1.0	174.2577199935913	
28	147.52194499969482	movie	1		300	26.0	2.5	blank	1.0	175.07427716255188	2.500391960144043
28	148.3055968284607	pulse	1	t		26.0	2.5	blank	1.0	175.85792899131775	
28	149.90583086013794	pulse	1	t		26.0	2.5	blank	1.0	177.458163022995	
28	150.02233695983887	fix_post	2		12	26.0	2.5	blank	1.0	177.57466912269592	0.10001397132873535
29	150.1223509311676	fix_pre	0		119	27.0	2.5	/experiments/knapen_AOT/AOT_stimuli/rescaled_final/0185_rv.mp4	0.0	177.67468309402466	0.9918599128723145
29	151.11421084403992	movie	1		246	27.0	2.5	/experiments/knapen_AOT/AOT_stimuli/rescaled_final/0185_rv.mp4	0.0	178.66654300689697	2.5003249645233154
29	151.50618290901184	pulse	1	t		27.0	2.5	/experiments/knapen_AOT/AOT_stimuli/rescaled_final/0185_rv.mp4	0.0	179.0585150718689	
29	153.1063289642334	pulse	1	t		27.0	2.5	/experiments/knapen_AOT/AOT_stimuli/rescaled_final/0185_rv.mp4	0.0	180.65866112709045	
29	153.61453580856323	fix_post	2		12	27.0	2.5	/experiments/knapen_AOT/AOT_stimuli/rescaled_final/0185_rv.mp4	0.0	181.1668679714203	0.10009098052978516
30	153.71462678909302	fix_pre	0		120	28.0	2.5	/experiments/knapen_AOT/AOT_stimuli/rescaled_final/1680_fw.mp4	0.0	181.26695895195007	1.0000951290130615
30	154.70657587051392	pulse	0	t		28.0	2.5	/experiments/knapen_AOT/AOT_stimuli/rescaled_final/1680_fw.mp4	0.0	182.25890803337097	
30	154.71472191810608	movie	1		245	28.0	2.5	/experiments/knapen_AOT/AOT_stimuli/rescaled_final/1680_fw.mp4	0.0	182.26705408096313	2.5086629390716553
30	156.30748081207275	pulse	1	t		28.0	2.5	/experiments/knapen_AOT/AOT_stimuli/rescaled_final/1680_fw.mp4	0.0	183.8598129749298	
30	157.22338485717773	fix_post	2		12	28.0	2.5	/experiments/knapen_AOT/AOT_stimuli/rescaled_final/1680_fw.mp4	0.0	184.7757170200348	0.1000211238861084
31	157.32340598106384	fix_pre	0		120	29.0	2.5	/experiments/knapen_AOT/AOT_stimuli/rescaled_final/0507_fw.mp4	0.0	184.8757381439209	1.0001578330993652
31	157.90716290473938	pulse	0	t		29.0	2.5	/experiments/knapen_AOT/AOT_stimuli/rescaled_final/0507_fw.mp4	0.0	185.45949506759644	
31	158.3235638141632	movie	1		244	29.0	2.5	/experiments/knapen_AOT/AOT_stimuli/rescaled_final/0507_fw.mp4	0.0	185.87589597702026	2.5003349781036377
31	159.50737500190735	pulse	1	t		29.0	2.5	/experiments/knapen_AOT/AOT_stimuli/rescaled_final/0507_fw.mp4	0.0	187.0597071647644	
31	160.82389879226685	fix_post	2		12	29.0	2.5	/experiments/knapen_AOT/AOT_stimuli/rescaled_final/0507_fw.mp4	0.0	188.3762309551239	0.10011911392211914
32	160.92401790618896	fix_pre	0		120	30.0	2.5	/experiments/knapen_AOT/AOT_stimuli/rescaled_final/0529_fw.mp4	0.0	188.47635006904602	1.000108003616333
32	161.10756492614746	pulse	0	t		30.0	2.5	/experiments/knapen_AOT/AOT_stimuli/rescaled_final/0529_fw.mp4	0.0	188.65989708900452	
32	161.9241259098053	movie	1		244	30.0	2.5	/experiments/knapen_AOT/AOT_stimuli/rescaled_final/0529_fw.mp4	0.0	189.47645807266235	2.5004730224609375
32	162.70777797698975	pulse	1	t		30.0	2.5	/experiments/knapen_AOT/AOT_stimuli/rescaled_final/0529_fw.mp4	0.0	190.2601101398468	
32	164.30787587165833	pulse	1	t		30.0	2.5	/experiments/knapen_AOT/AOT_stimuli/rescaled_final/0529_fw.mp4	0.0	191.86020803451538	
32	164.42459893226624	fix_post	2		12	30.0	2.5	/experiments/knapen_AOT/AOT_stimuli/rescaled_final/0529_fw.mp4	0.0	191.9769310951233	0.09987688064575195
33	164.524475812912	fix_pre	0		120	31.0	2.5	/experiments/knapen_AOT/AOT_stimuli/rescaled_final/1232_fw.mp4	0.0	192.07680797576904	1.000148057937622
33	165.5246238708496	movie	1		241	31.0	2.5	/experiments/knapen_AOT/AOT_stimuli/rescaled_final/1232_fw.mp4	0.0	193.07695603370667	2.4920639991760254
33	165.90876388549805	pulse	1	t		31.0	2.5	/experiments/knapen_AOT/AOT_stimuli/rescaled_final/1232_fw.mp4	0.0	193.4610960483551	
33	167.50866198539734	pulse	1	t		31.0	2.5	/experiments/knapen_AOT/AOT_stimuli/rescaled_final/1232_fw.mp4	0.0	195.0609941482544	
33	168.01668787002563	fix_post	2		12	31.0	2.5	/experiments/knapen_AOT/AOT_stimuli/rescaled_final/1232_fw.mp4	0.0	195.5690200328827	0.10004305839538574
34	168.11673092842102	fix_pre	0		120	32.0	2.5	/experiments/knapen_AOT/AOT_stimuli/rescaled_final/1366_rv.mp4	0.0	195.66906309127808	1.0001580715179443
34	169.10877895355225	pulse	0	t		32.0	2.5	/experiments/knapen_AOT/AOT_stimuli/rescaled_final/1366_rv.mp4	0.0	196.6611111164093	
34	169.11688899993896	movie	1		247	32.0	2.5	/experiments/knapen_AOT/AOT_stimuli/rescaled_final/1366_rv.mp4	0.0	196.66922116279602	2.5087859630584717
34	170.70939588546753	pulse	1	t		32.0	2.5	/experiments/knapen_AOT/AOT_stimuli/rescaled_final/1366_rv.mp4	0.0	198.26172804832458	
34	171.62567496299744	fix_post	2		12	32.0	2.5	/experiments/knapen_AOT/AOT_stimuli/rescaled_final/1366_rv.mp4	0.0	199.1780071258545	0.09990191459655762
35	171.725576877594	fix_pre	0		120	33.0	2.5	/experiments/knapen_AOT/AOT_stimuli/rescaled_final/0427_fw.mp4	0.0	199.27790904045105	1.000195026397705
35	172.30167198181152	pulse	0	t		33.0	2.5	/experiments/knapen_AOT/AOT_stimuli/rescaled_final/0427_fw.mp4	0.0	199.85400414466858	
35	172.7257719039917	movie	1		245	33.0	2.5	/experiments/knapen_AOT/AOT_stimuli/rescaled_final/0427_fw.mp4	0.0	200.27810406684875	2.5004289150238037
35	173.90960097312927	pulse	1	t		33.0	2.5	/experiments/knapen_AOT/AOT_stimuli/rescaled_final/0427_fw.mp4	0.0	201.46193313598633	
35	175.2262008190155	fix_post	2		12	33.0	2.5	/experiments/knapen_AOT/AOT_stimuli/rescaled_final/0427_fw.mp4	0.0	202.77853298187256	0.09984803199768066
36	175.32604885101318	fix_pre	0		120	34.0	2.5	blank	1.0	202.87838101387024	1.0002429485321045
36	175.50223398208618	pulse	0	t		34.0	2.5	blank	1.0	203.05456614494324	
36	176.3262917995453	movie	1		300	34.0	2.5	blank	1.0	203.87862396240234	2.5003631114959717
36	177.10251879692078	pulse	1	t		34.0	2.5	blank	1.0	204.65485095977783	
36	178.7017879486084	pulse	1	t		34.0	2.5	blank	1.0	206.25412011146545	
36	178.82665491104126	fix_post	2		12	34.0	2.5	blank	1.0	206.37898707389832	0.09998798370361328
37	178.92664289474487	fix_pre	0		120	35.0	2.5	/experiments/knapen_AOT/AOT_stimuli/rescaled_final/1653_rv.mp4	0.0	206.47897505760193	1.000195026397705
37	179.92683792114258	movie	1		243	35.0	2.5	/experiments/knapen_AOT/AOT_stimuli/rescaled_final/1653_rv.mp4	0.0	207.47917008399963	2.4920129776000977
37	180.30201292037964	pulse	1	t		35.0	2.5	/experiments/knapen_AOT/AOT_stimuli/rescaled_final/1653_rv.mp4	0.0	207.8543450832367	
37	181.90234994888306	pulse	1	t		35.0	2.5	/experiments/knapen_AOT/AOT_stimuli/rescaled_final/1653_rv.mp4	0.0	209.4546821117401	
37	182.41885089874268	fix_post	2		12	35.0	2.5	/experiments/knapen_AOT/AOT_stimuli/rescaled_final/1653_rv.mp4	0.0	209.97118306159973	0.10000801086425781
38	182.51885890960693	fix_pre	0		119	36.0	2.5	/experiments/knapen_AOT/AOT_stimuli/rescaled_final/0952_fw.mp4	0.0	210.071191072464	0.9918138980865479
38	183.50260281562805	pulse	0	t		36.0	2.5	/experiments/knapen_AOT/AOT_stimuli/rescaled_final/0952_fw.mp4	0.0	211.0549349784851	
38	183.51067280769348	movie	1		247	36.0	2.5	/experiments/knapen_AOT/AOT_stimuli/rescaled_final/0952_fw.mp4	0.0	211.06300497055054	2.508763074874878
38	185.10711097717285	pulse	1	t		36.0	2.5	/experiments/knapen_AOT/AOT_stimuli/rescaled_final/0952_fw.mp4	0.0	212.6594431400299	
38	186.01943588256836	fix_post	2		12	36.0	2.5	/experiments/knapen_AOT/AOT_stimuli/rescaled_final/0952_fw.mp4	0.0	213.57176804542542	0.0999910831451416
39	186.1194269657135	fix_pre	0		120	37.0	2.5	/experiments/knapen_AOT/AOT_stimuli/rescaled_final/1269_fw.mp4	0.0	213.67175912857056	1.000114917755127
39	186.70300698280334	pulse	0	t		37.0	2.5	/experiments/knapen_AOT/AOT_stimuli/rescaled_final/1269_fw.mp4	0.0	214.2553391456604	
39	187.11954188346863	movie	1		246	37.0	2.5	/experiments/knapen_AOT/AOT_stimuli/rescaled_final/1269_fw.mp4	0.0	214.67187404632568	2.500351905822754
39	188.3034119606018	pulse	1	t		37.0	2.5	/experiments/knapen_AOT/AOT_stimuli/rescaled_final/1269_fw.mp4	0.0	215.85574412345886	
39	189.61989378929138	fix_post	2		12	37.0	2.5	/experiments/knapen_AOT/AOT_stimuli/rescaled_final/1269_fw.mp4	0.0	217.17222595214844	0.10004019737243652
40	189.71993398666382	fix_pre	0		120	38.0	2.5	/experiments/knapen_AOT/AOT_stimuli/rescaled_final/1906_rv.mp4	0.0	217.27226614952087	1.0001769065856934
40	189.90346693992615	pulse	0	t		38.0	2.5	/experiments/knapen_AOT/AOT_stimuli/rescaled_final/1906_rv.mp4	0.0	217.4557991027832	
40	190.7201108932495	movie	1		248	38.0	2.5	/experiments/knapen_AOT/AOT_stimuli/rescaled_final/1906_rv.mp4	0.0	218.27244305610657	2.5003318786621094
40	191.50394797325134	pulse	1	t		38.0	2.5	/experiments/knapen_AOT/AOT_stimuli/rescaled_final/1906_rv.mp4	0.0	219.0562801361084	
40	193.10395193099976	pulse	1	t		38.0	2.5	/experiments/knapen_AOT/AOT_stimuli/rescaled_final/1906_rv.mp4	0.0	220.6562840938568	
40	193.22044277191162	fix_post	2		12	38.0	2.5	/experiments/knapen_AOT/AOT_stimuli/rescaled_final/1906_rv.mp4	0.0	220.77277493476868	0.1000211238861084
41	193.32046389579773	fix_pre	0		120	39.0	2.5	/experiments/knapen_AOT/AOT_stimuli/rescaled_final/1109_fw.mp4	0.0	220.87279605865479	1.000143051147461
41	194.3206069469452	movie	1		244	39.0	2.5	/experiments/knapen_AOT/AOT_stimuli/rescaled_final/1109_fw.mp4	0.0	221.87293910980225	2.49204683303833
41	194.7045238018036	pulse	1	t		39.0	2.5	/experiments/knapen_AOT/AOT_stimuli/rescaled_final/1109_fw.mp4	0.0	222.25685596466064	
41	196.30447793006897	pulse	1	t		39.0	2.5	/experiments/knapen_AOT/AOT_stimuli/rescaled_final/1109_fw.mp4	0.0	223.85681009292603	
41	196.81265377998352	fix_post	2		12	39.0	2.5	/experiments/knapen_AOT/AOT_stimuli/rescaled_final/1109_fw.mp4	0.0	224.36498594284058	0.10003209114074707
42	196.91268587112427	fix_pre	0		120	40.0	2.5	/experiments/knapen_AOT/AOT_stimuli/rescaled_final/2042_fw.mp4	0.0	224.46501803398132	1.0001709461212158
42	197.90477395057678	pulse	0	t		40.0	2.5	/experiments/knapen_AOT/AOT_stimuli/rescaled_final/2042_fw.mp4	0.0	225.45710611343384	
42	197.91285681724548	movie	1		249	40.0	2.5	/experiments/knapen_AOT/AOT_stimuli/rescaled_final/2042_fw.mp4	0.0	225.46518898010254	2.508653163909912
42	199.50541877746582	pulse	1	t		40.0	2.5	/experiments/knapen_AOT/AOT_stimuli/rescaled_final/2042_fw.mp4	0.0	227.05775094032288	
42	200.4215099811554	fix_post	2		12	40.0	2.5	/experiments/knapen_AOT/AOT_stimuli/rescaled_final/2042_fw.mp4	0.0	227.97384214401245	0.10001683235168457
43	200.52152681350708	fix_pre	0		120	41.0	2.5	/experiments/knapen_AOT/AOT_stimuli/rescaled_final/1176_rv.mp4	0.0	228.07385897636414	1.0001330375671387
43	201.10509991645813	pulse	0	t		41.0	2.5	/experiments/knapen_AOT/AOT_stimuli/rescaled_final/1176_rv.mp4	0.0	228.65743207931519	
43	201.52165985107422	movie	1		245	41.0	2.5	/experiments/knapen_AOT/AOT_stimuli/rescaled_final/1176_rv.mp4	0.0	229.07399201393127	2.500507116317749
43	202.70562982559204	pulse	1	t		41.0	2.5	/experiments/knapen_AOT/AOT_stimuli/rescaled_final/1176_rv.mp4	0.0	230.2579619884491	
43	204.02216696739197	fix_post	2		12	41.0	2.5	/experiments/knapen_AOT/AOT_stimuli/rescaled_final/1176_rv.mp4	0.0	231.57449913024902	0.09991598129272461
44	204.1220829486847	fix_pre	0		120	42.0	2.5	blank	1.0	231.67441511154175	1.000154972076416
44	204.30573678016663	pulse	0	t		42.0	2.5	blank	1.0	231.85806894302368	
44	205.1222379207611	movie	1		300	42.0	2.5	blank	1.0	232.67457008361816	2.5003809928894043
44	205.9059979915619	pulse	1	t		42.0	2.5	blank	1.0	233.45833015441895	
44	207.50611090660095	pulse	1	t		42.0	2.5	blank	1.0	235.058443069458	
44	207.6226189136505	fix_post	2		12	42.0	2.5	blank	1.0	235.17495107650757	0.0999898910522461
45	207.72260880470276	fix_pre	0		120	43.0	2.5	/experiments/knapen_AOT/AOT_stimuli/rescaled_final/0482_rv.mp4	0.0	235.27494096755981	1.0001940727233887
45	208.72280287742615	movie	1		244	43.0	2.5	/experiments/knapen_AOT/AOT_stimuli/rescaled_final/0482_rv.mp4	0.0	236.2751350402832	2.492011070251465
45	209.1075439453125	pulse	1	t		43.0	2.5	/experiments/knapen_AOT/AOT_stimuli/rescaled_final/0482_rv.mp4	0.0	236.65987610816956	
45	210.70669198036194	pulse	1	t		43.0	2.5	/experiments/knapen_AOT/AOT_stimuli/rescaled_final/0482_rv.mp4	0.0	238.259024143219	
45	211.2148139476776	fix_post	2		12	43.0	2.5	/experiments/knapen_AOT/AOT_stimuli/rescaled_final/0482_rv.mp4	0.0	238.76714611053467	0.10003089904785156
46	211.31484484672546	fix_pre	0		120	44.0	2.5	/experiments/knapen_AOT/AOT_stimuli/rescaled_final/0640_fw.mp4	0.0	238.86717700958252	1.0001730918884277
46	212.30694699287415	pulse	0	t		44.0	2.5	/experiments/knapen_AOT/AOT_stimuli/rescaled_final/0640_fw.mp4	0.0	239.8592791557312	
46	212.3150179386139	movie	1		247	44.0	2.5	/experiments/knapen_AOT/AOT_stimuli/rescaled_final/0640_fw.mp4	0.0	239.86735010147095	2.5086958408355713
46	213.90753889083862	pulse	1	t		44.0	2.5	/experiments/knapen_AOT/AOT_stimuli/rescaled_final/0640_fw.mp4	0.0	241.45987105369568	
46	214.82371377944946	fix_post	2		12	44.0	2.5	/experiments/knapen_AOT/AOT_stimuli/rescaled_final/0640_fw.mp4	0.0	242.37604594230652	0.09999418258666992
47	214.92370796203613	fix_pre	0		120	45.0	2.5	/experiments/knapen_AOT/AOT_stimuli/rescaled_final/0084_rv.mp4	0.0	242.4760401248932	1.000190019607544
47	215.5073049068451	pulse	0	t		45.0	2.5	/experiments/knapen_AOT/AOT_stimuli/rescaled_final/0084_rv.mp4	0.0	243.05963706970215	
47	215.92389798164368	movie	1		246	45.0	2.5	/experiments/knapen_AOT/AOT_stimuli/rescaled_final/0084_rv.mp4	0.0	243.47623014450073	2.5003268718719482
47	217.10776090621948	pulse	1	t		45.0	2.5	/experiments/knapen_AOT/AOT_stimuli/rescaled_final/0084_rv.mp4	0.0	244.66009306907654	
47	218.42422485351562	fix_post	2		12	45.0	2.5	/experiments/knapen_AOT/AOT_stimuli/rescaled_final/0084_rv.mp4	0.0	245.97655701637268	0.0999760627746582
48	218.52420091629028	fix_pre	0		120	46.0	2.5	/experiments/knapen_AOT/AOT_stimuli/rescaled_final/1694_fw.mp4	0.0	246.07653307914734	1.000190019607544
48	218.7078628540039	pulse	0	t		46.0	2.5	/experiments/knapen_AOT/AOT_stimuli/rescaled_final/1694_fw.mp4	0.0	246.26019501686096	
48	219.52439093589783	movie	1		245	46.0	2.5	/experiments/knapen_AOT/AOT_stimuli/rescaled_final/1694_fw.mp4	0.0	247.07672309875488	2.500337839126587
48	220.30816197395325	pulse	1	t		46.0	2.5	/experiments/knapen_AOT/AOT_stimuli/rescaled_final/1694_fw.mp4	0.0	247.8604941368103	
48	221.9083878993988	pulse	1	t		46.0	2.5	/experiments/knapen_AOT/AOT_stimuli/rescaled_final/1694_fw.mp4	0.0	249.46072006225586	
48	222.0247287750244	fix_post	2		12	46.0	2.5	/experiments/knapen_AOT/AOT_stimuli/rescaled_final/1694_fw.mp4	0.0	249.57706093788147	0.10005402565002441
49	222.12478280067444	fix_pre	0		120	47.0	2.5	blank	1.0	249.6771149635315	1.0001380443572998
49	223.12492084503174	movie	1		299	47.0	2.5	blank	1.0	250.6772530078888	2.492064952850342
49	223.5084569454193	pulse	1	t		47.0	2.5	blank	1.0	251.06078910827637	
49	225.10132694244385	pulse	1	t		47.0	2.5	blank	1.0	252.6536591053009	
49	225.61698579788208	fix_post	2		12	47.0	2.5	blank	1.0	253.16931796073914	0.09999799728393555
50	225.71698379516602	fix_pre	0		120	48.0	2.5	/experiments/knapen_AOT/AOT_stimuli/rescaled_final/0784_fw.mp4	0.0	253.26931595802307	1.0001580715179443
50	226.70149993896484	pulse	0	t		48.0	2.5	/experiments/knapen_AOT/AOT_stimuli/rescaled_final/0784_fw.mp4	0.0	254.2538321018219	
50	226.71714186668396	movie	1		248	48.0	2.5	/experiments/knapen_AOT/AOT_stimuli/rescaled_final/0784_fw.mp4	0.0	254.26947402954102	2.508697032928467
50	228.30962300300598	pulse	1	t		48.0	2.5	/experiments/knapen_AOT/AOT_stimuli/rescaled_final/0784_fw.mp4	0.0	255.86195516586304	
50	229.22583889961243	fix_post	2		12	48.0	2.5	/experiments/knapen_AOT/AOT_stimuli/rescaled_final/0784_fw.mp4	0.0	256.7781710624695	0.10001707077026367
51	229.3258559703827	fix_pre	0		120	49.0	2.5	/experiments/knapen_AOT/AOT_stimuli/rescaled_final/0142_fw.mp4	0.0	256.87818813323975	1.0001459121704102
51	229.90199398994446	pulse	0	t		49.0	2.5	/experiments/knapen_AOT/AOT_stimuli/rescaled_final/0142_fw.mp4	0.0	257.4543261528015	
51	230.3260018825531	movie	1		248	49.0	2.5	/experiments/knapen_AOT/AOT_stimuli/rescaled_final/0142_fw.mp4	0.0	257.87833404541016	2.5004689693450928
51	231.50185585021973	pulse	1	t		49.0	2.5	/experiments/knapen_AOT/AOT_stimuli/rescaled_final/0142_fw.mp4	0.0	259.0541880130768	
51	232.8264708518982	fix_post	2		12	49.0	2.5	/experiments/knapen_AOT/AOT_stimuli/rescaled_final/0142_fw.mp4	0.0	260.37880301475525	0.09991812705993652
52	232.92638897895813	fix_pre	0		120	50.0	2.5	/experiments/knapen_AOT/AOT_stimuli/rescaled_final/0068_fw.mp4	0.0	260.4787211418152	1.0005040168762207
52	233.1016058921814	pulse	0	t		50.0	2.5	/experiments/knapen_AOT/AOT_stimuli/rescaled_final/0068_fw.mp4	0.0	260.65393805503845	
52	233.92689299583435	movie	1		243	50.0	2.5	/experiments/knapen_AOT/AOT_stimuli/rescaled_final/0068_fw.mp4	0.0	261.4792251586914	2.5000219345092773
52	234.70183277130127	pulse	1	t		50.0	2.5	/experiments/knapen_AOT/AOT_stimuli/rescaled_final/0068_fw.mp4	0.0	262.2541649341583	
52	236.30212998390198	pulse	1	t		50.0	2.5	/experiments/knapen_AOT/AOT_stimuli/rescaled_final/0068_fw.mp4	0.0	263.85446214675903	
52	236.42691493034363	fix_post	2		12	50.0	2.5	/experiments/knapen_AOT/AOT_stimuli/rescaled_final/0068_fw.mp4	0.0	263.9792470932007	0.09999799728393555
53	236.52691292762756	fix_pre	0		119	51.0	2.5	/experiments/knapen_AOT/AOT_stimuli/rescaled_final/1538_fw.mp4	0.0	264.0792450904846	0.9918570518493652
53	237.51876997947693	movie	1		245	51.0	2.5	/experiments/knapen_AOT/AOT_stimuli/rescaled_final/1538_fw.mp4	0.0	265.071102142334	2.500342845916748
53	237.90286684036255	pulse	1	t		51.0	2.5	/experiments/knapen_AOT/AOT_stimuli/rescaled_final/1538_fw.mp4	0.0	265.4551990032196	
53	239.50258994102478	pulse	1	t		51.0	2.5	/experiments/knapen_AOT/AOT_stimuli/rescaled_final/1538_fw.mp4	0.0	267.05492210388184	
53	240.01911282539368	fix_post	2		12	51.0	2.5	/experiments/knapen_AOT/AOT_stimuli/rescaled_final/1538_fw.mp4	0.0	267.57144498825073	0.10006499290466309
54	240.11917781829834	fix_pre	0		119	52.0	2.5	/experiments/knapen_AOT/AOT_stimuli/rescaled_final/0543_rv.mp4	0.0	267.6715099811554	0.9917900562286377
54	241.10286283493042	pulse	0	t		52.0	2.5	/experiments/knapen_AOT/AOT_stimuli/rescaled_final/0543_rv.mp4	0.0	268.6551949977875	
54	241.11096787452698	movie	1		248	52.0	2.5	/experiments/knapen_AOT/AOT_stimuli/rescaled_final/0543_rv.mp4	0.0	268.66330003738403	2.5086591243743896
54	242.70361399650574	pulse	1	t		52.0	2.5	/experiments/knapen_AOT/AOT_stimuli/rescaled_final/0543_rv.mp4	0.0	270.2559461593628	
54	243.61962699890137	fix_post	2		12	52.0	2.5	/experiments/knapen_AOT/AOT_stimuli/rescaled_final/0543_rv.mp4	0.0	271.1719591617584	0.1000359058380127
55	243.71966290473938	fix_pre	0		120	53.0	2.5	/experiments/knapen_AOT/AOT_stimuli/rescaled_final/1206_fw.mp4	0.0	271.27199506759644	1.0001640319824219
55	244.30324292182922	pulse	0	t		53.0	2.5	/experiments/knapen_AOT/AOT_stimuli/rescaled_final/1206_fw.mp4	0.0	271.8555750846863	
55	244.7198269367218	movie	1		245	53.0	2.5	/experiments/knapen_AOT/AOT_stimuli/rescaled_final/1206_fw.mp4	0.0	272.27215909957886	2.5004758834838867
55	245.90361785888672	pulse	1	t		53.0	2.5	/experiments/knapen_AOT/AOT_stimuli/rescaled_final/1206_fw.mp4	0.0	273.4559500217438	
55	247.2203028202057	fix_post	2		12	53.0	2.5	/experiments/knapen_AOT/AOT_stimuli/rescaled_final/1206_fw.mp4	0.0	274.77263498306274	0.09987497329711914
56	247.3201777935028	fix_pre	0		120	54.0	2.5	/experiments/knapen_AOT/AOT_stimuli/rescaled_final/1785_fw.mp4	0.0	274.87250995635986	1.0002021789550781
56	247.50377488136292	pulse	0	t		54.0	2.5	/experiments/knapen_AOT/AOT_stimuli/rescaled_final/1785_fw.mp4	0.0	275.05610704421997	
56	248.32037997245789	movie	1		244	54.0	2.5	/experiments/knapen_AOT/AOT_stimuli/rescaled_final/1785_fw.mp4	0.0	275.87271213531494	2.500443935394287
56	249.10402989387512	pulse	1	t		54.0	2.5	/experiments/knapen_AOT/AOT_stimuli/rescaled_final/1785_fw.mp4	0.0	276.6563620567322	
56	250.70434379577637	pulse	1	t		54.0	2.5	/experiments/knapen_AOT/AOT_stimuli/rescaled_final/1785_fw.mp4	0.0	278.2566759586334	
56	250.82082390785217	fix_post	2		12	54.0	2.5	/experiments/knapen_AOT/AOT_stimuli/rescaled_final/1785_fw.mp4	0.0	278.37315607070923	0.09992694854736328
57	250.92075085639954	fix_pre	0		120	55.0	2.5	/experiments/knapen_AOT/AOT_stimuli/rescaled_final/0044_rv.mp4	0.0	278.4730830192566	1.000133991241455
57	251.920884847641	movie	1		244	55.0	2.5	/experiments/knapen_AOT/AOT_stimuli/rescaled_final/0044_rv.mp4	0.0	279.47321701049805	2.4920129776000977
57	252.3057038784027	pulse	1	t		55.0	2.5	/experiments/knapen_AOT/AOT_stimuli/rescaled_final/0044_rv.mp4	0.0	279.85803604125977	
57	253.90479278564453	pulse	1	t		55.0	2.5	/experiments/knapen_AOT/AOT_stimuli/rescaled_final/0044_rv.mp4	0.0	281.4571249485016	
57	254.4128978252411	fix_post	2		12	55.0	2.5	/experiments/knapen_AOT/AOT_stimuli/rescaled_final/0044_rv.mp4	0.0	281.96522998809814	0.10002303123474121
58	254.51292085647583	fix_pre	0		120	56.0	2.5	blank	1.0	282.0652530193329	1.000175952911377
58	255.50500082969666	pulse	0	t		56.0	2.5	blank	1.0	283.0573329925537	
58	255.5130968093872	movie	1		301	56.0	2.5	blank	1.0	283.06542897224426	2.508756160736084
58	257.1051518917084	pulse	1	t		56.0	2.5	blank	1.0	284.65748405456543	
58	258.0218529701233	fix_post	2		12	56.0	2.5	blank	1.0	285.57418513298035	0.10000896453857422
59	258.12186193466187	fix_pre	0		120	57.0	2.5	/experiments/knapen_AOT/AOT_stimuli/rescaled_final/0973_fw.mp4	0.0	285.6741940975189	1.0000858306884766
59	258.70553278923035	pulse	0	t		57.0	2.5	/experiments/knapen_AOT/AOT_stimuli/rescaled_final/0973_fw.mp4	0.0	286.2578649520874	
59	259.12194776535034	movie	1		245	57.0	2.5	/experiments/knapen_AOT/AOT_stimuli/rescaled_final/0973_fw.mp4	0.0	286.6742799282074	2.5003821849823
59	260.30583596229553	pulse	1	t		57.0	2.5	/experiments/knapen_AOT/AOT_stimuli/rescaled_final/0973_fw.mp4	0.0	287.8581681251526	
59	261.62232995033264	fix_post	2		12	57.0	2.5	/experiments/knapen_AOT/AOT_stimuli/rescaled_final/0973_fw.mp4	0.0	289.1746621131897	0.10001492500305176
60	261.7223448753357	fix_pre	0		120	58.0	2.5	/experiments/knapen_AOT/AOT_stimuli/rescaled_final/0568_fw.mp4	0.0	289.27467703819275	1.0001540184020996
60	261.9058737754822	pulse	0	t		58.0	2.5	/experiments/knapen_AOT/AOT_stimuli/rescaled_final/0568_fw.mp4	0.0	289.45820593833923	
60	262.7224988937378	movie	1		245	58.0	2.5	/experiments/knapen_AOT/AOT_stimuli/rescaled_final/0568_fw.mp4	0.0	290.27483105659485	2.5003600120544434
60	263.50610995292664	pulse	1	t		58.0	2.5	/experiments/knapen_AOT/AOT_stimuli/rescaled_final/0568_fw.mp4	0.0	291.0584421157837	
60	265.1064658164978	pulse	1	t		58.0	2.5	/experiments/knapen_AOT/AOT_stimuli/rescaled_final/0568_fw.mp4	0.0	292.65879797935486	
60	265.22285890579224	fix_post	2		12	58.0	2.5	/experiments/knapen_AOT/AOT_stimuli/rescaled_final/0568_fw.mp4	0.0	292.7751910686493	0.10001897811889648
61	265.32287788391113	fix_pre	0		120	59.0	2.5	/experiments/knapen_AOT/AOT_stimuli/rescaled_final/1315_rv.mp4	0.0	292.8752100467682	1.0001709461212158
61	266.32304883003235	movie	1		246	59.0	2.5	/experiments/knapen_AOT/AOT_stimuli/rescaled_final/1315_rv.mp4	0.0	293.8753809928894	2.492079973220825
61	266.7072379589081	pulse	1	t		59.0	2.5	/experiments/knapen_AOT/AOT_stimuli/rescaled_final/1315_rv.mp4	0.0	294.25957012176514	
61	268.3069198131561	pulse	1	t		59.0	2.5	/experiments/knapen_AOT/AOT_stimuli/rescaled_final/1315_rv.mp4	0.0	295.8592519760132	
61	268.8151288032532	fix_post	2		12	59.0	2.5	/experiments/knapen_AOT/AOT_stimuli/rescaled_final/1315_rv.mp4	0.0	296.36746096611023	0.09995508193969727
62	268.91508388519287	fix_pre	0		120	60.0	2.5	/experiments/knapen_AOT/AOT_stimuli/rescaled_final/0531_rv.mp4	0.0	296.4674160480499	1.0001769065856934
62	269.9070839881897	pulse	0	t		60.0	2.5	/experiments/knapen_AOT/AOT_stimuli/rescaled_final/0531_rv.mp4	0.0	297.45941615104675	
62	269.91526079177856	movie	1		247	60.0	2.5	/experiments/knapen_AOT/AOT_stimuli/rescaled_final/0531_rv.mp4	0.0	297.4675929546356	2.5087850093841553
62	271.5076367855072	pulse	1	t		60.0	2.5	/experiments/knapen_AOT/AOT_stimuli/rescaled_final/0531_rv.mp4	0.0	299.05996894836426	
62	272.4240458011627	fix_post	2		12	60.0	2.5	/experiments/knapen_AOT/AOT_stimuli/rescaled_final/0531_rv.mp4	0.0	299.9763779640198	0.09992718696594238
63	272.52397298812866	fix_pre	0		120	61.0	2.5	blank	1.0	300.0763051509857	1.0001678466796875
63	273.1077139377594	pulse	0	t		61.0	2.5	blank	1.0	300.66004610061646	
63	273.52414083480835	movie	1		300	61.0	2.5	blank	1.0	301.0764729976654	2.5003550052642822
63	274.7078309059143	pulse	1	t		61.0	2.5	blank	1.0	302.26016306877136	
63	276.02449584007263	fix_post	2		12	61.0	2.5	blank	1.0	303.5768280029297	0.09997415542602539
64	276.12446999549866	fix_pre	0		120	62.0	2.5	/experiments/knapen_AOT/AOT_stimuli/rescaled_final/1120_fw.mp4	0.0	303.6768021583557	1.0001568794250488
64	276.3080348968506	pulse	0	t		62.0	2.5	/experiments/knapen_AOT/AOT_stimuli/rescaled_final/1120_fw.mp4	0.0	303.86036705970764	
64	277.1246268749237	movie	1		246	62.0	2.5	/experiments/knapen_AOT/AOT_stimuli/rescaled_final/1120_fw.mp4	0.0	304.67695903778076	2.5003790855407715
64	277.9082658290863	pulse	1	t		62.0	2.5	/experiments/knapen_AOT/AOT_stimuli/rescaled_final/1120_fw.mp4	0.0	305.46059799194336	
64	279.50861287117004	pulse	1	t		62.0	2.5	/experiments/knapen_AOT/AOT_stimuli/rescaled_final/1120_fw.mp4	0.0	307.0609450340271	
64	279.6250059604645	fix_post	2		12	62.0	2.5	/experiments/knapen_AOT/AOT_stimuli/rescaled_final/1120_fw.mp4	0.0	307.17733812332153	0.10001802444458008
65	279.72502398490906	fix_pre	0		119	63.0	2.5	/experiments/knapen_AOT/AOT_stimuli/rescaled_final/1123_rv.mp4	0.0	307.2773561477661	0.9918568134307861
65	280.71688079833984	movie	1		245	63.0	2.5	/experiments/knapen_AOT/AOT_stimuli/rescaled_final/1123_rv.mp4	0.0	308.2692129611969	2.500338077545166
65	281.10890793800354	pulse	1	t		63.0	2.5	/experiments/knapen_AOT/AOT_stimuli/rescaled_final/1123_rv.mp4	0.0	308.6612401008606	
65	282.70904994010925	pulse	1	t		63.0	2.5	/experiments/knapen_AOT/AOT_stimuli/rescaled_final/1123_rv.mp4	0.0	310.2613821029663	
65	283.217218875885	fix_post	2		12	63.0	2.5	/experiments/knapen_AOT/AOT_stimuli/rescaled_final/1123_rv.mp4	0.0	310.76955103874207	0.1000070571899414
66	283.31722593307495	fix_pre	0		120	64.0	2.5	/experiments/knapen_AOT/AOT_stimuli/rescaled_final/1852_fw.mp4	0.0	310.869558095932	1.0002028942108154
66	284.30206179618835	pulse	0	t		64.0	2.5	/experiments/knapen_AOT/AOT_stimuli/rescaled_final/1852_fw.mp4	0.0	311.8543939590454	
66	284.31742882728577	movie	1		246	64.0	2.5	/experiments/knapen_AOT/AOT_stimuli/rescaled_final/1852_fw.mp4	0.0	311.8697609901428	2.508780002593994
66	285.9098858833313	pulse	1	t		64.0	2.5	/experiments/knapen_AOT/AOT_stimuli/rescaled_final/1852_fw.mp4	0.0	313.46221804618835	
66	286.82620882987976	fix_post	2		12	64.0	2.5	/experiments/knapen_AOT/AOT_stimuli/rescaled_final/1852_fw.mp4	0.0	314.3785409927368	0.09990501403808594
67	286.92611384391785	fix_pre	0		120	65.0	2.5	/experiments/knapen_AOT/AOT_stimuli/rescaled_final/1167_fw.mp4	0.0	314.4784460067749	1.0001349449157715
67	287.5022828578949	pulse	0	t		65.0	2.5	/experiments/knapen_AOT/AOT_stimuli/rescaled_final/1167_fw.mp4	0.0	315.05461502075195	
67	287.9262487888336	movie	1		245	65.0	2.5	/experiments/knapen_AOT/AOT_stimuli/rescaled_final/1167_fw.mp4	0.0	315.4785809516907	2.5004210472106934
67	289.1056089401245	pulse	1	t		65.0	2.5	/experiments/knapen_AOT/AOT_stimuli/rescaled_final/1167_fw.mp4	0.0	316.65794110298157	
67	290.4266698360443	fix_post	2		12	65.0	2.5	/experiments/knapen_AOT/AOT_stimuli/rescaled_final/1167_fw.mp4	0.0	317.97900199890137	0.09997916221618652
68	290.5266489982605	fix_pre	0		120	66.0	2.5	/experiments/knapen_AOT/AOT_stimuli/rescaled_final/1576_rv.mp4	0.0	318.07898116111755	1.0001678466796875
68	290.7028977870941	pulse	0	t		66.0	2.5	/experiments/knapen_AOT/AOT_stimuli/rescaled_final/1576_rv.mp4	0.0	318.2552299499512	
68	291.5268168449402	movie	1		246	66.0	2.5	/experiments/knapen_AOT/AOT_stimuli/rescaled_final/1576_rv.mp4	0.0	319.07914900779724	2.5004160404205322
68	292.3023428916931	pulse	1	t		66.0	2.5	/experiments/knapen_AOT/AOT_stimuli/rescaled_final/1576_rv.mp4	0.0	319.85467505455017	
68	293.90234780311584	pulse	1	t		66.0	2.5	/experiments/knapen_AOT/AOT_stimuli/rescaled_final/1576_rv.mp4	0.0	321.4546799659729	
68	294.0272328853607	fix_post	2		12	66.0	2.5	/experiments/knapen_AOT/AOT_stimuli/rescaled_final/1576_rv.mp4	0.0	321.5795650482178	0.09996604919433594
69	294.12719893455505	fix_pre	0		119	67.0	2.5	/experiments/knapen_AOT/AOT_stimuli/rescaled_final/0973_rv.mp4	0.0	321.6795310974121	0.9918320178985596
69	295.1190309524536	movie	1		245	67.0	2.5	/experiments/knapen_AOT/AOT_stimuli/rescaled_final/0973_rv.mp4	0.0	322.67136311531067	2.5003180503845215
69	295.5036549568176	pulse	1	t		67.0	2.5	/experiments/knapen_AOT/AOT_stimuli/rescaled_final/0973_rv.mp4	0.0	323.0559871196747	
69	297.1029679775238	pulse	1	t		67.0	2.5	/experiments/knapen_AOT/AOT_stimuli/rescaled_final/0973_rv.mp4	0.0	324.65530014038086	
69	297.61934900283813	fix_post	2		12	67.0	2.5	/experiments/knapen_AOT/AOT_stimuli/rescaled_final/0973_rv.mp4	0.0	325.1716811656952	0.1000208854675293
70	297.71936988830566	fix_pre	0		115	68.0	2.5	blank	1.0	325.2717020511627	0.9918630123138428
70	298.7030439376831	pulse	0	t		68.0	2.5	blank	1.0	326.25537610054016	
70	298.7112329006195	movie	1		301	68.0	2.5	blank	1.0	326.26356506347656	2.508692979812622
70	300.30329489707947	pulse	1	t		68.0	2.5	blank	1.0	327.8556270599365	
70	301.21992588043213	fix_post	2		12	68.0	2.5	blank	1.0	328.7722580432892	0.09999704360961914
71	301.31992292404175	fix_pre	0		120	69.0	2.5	/experiments/knapen_AOT/AOT_stimuli/rescaled_final/1377_rv.mp4	0.0	328.8722550868988	1.000148057937622
71	301.9035837650299	pulse	0	t		69.0	2.5	/experiments/knapen_AOT/AOT_stimuli/rescaled_final/1377_rv.mp4	0.0	329.45591592788696	
71	302.32007098197937	movie	1		245	69.0	2.5	/experiments/knapen_AOT/AOT_stimuli/rescaled_final/1377_rv.mp4	0.0	329.8724031448364	2.500452995300293
71	303.5038878917694	pulse	1	t		69.0	2.5	/experiments/knapen_AOT/AOT_stimuli/rescaled_final/1377_rv.mp4	0.0	331.05622005462646	
71	304.82052397727966	fix_post	2		12	69.0	2.5	/experiments/knapen_AOT/AOT_stimuli/rescaled_final/1377_rv.mp4	0.0	332.3728561401367	0.10000395774841309
72	304.9205279350281	fix_pre	0		120	70.0	2.5	/experiments/knapen_AOT/AOT_stimuli/rescaled_final/0442_fw.mp4	0.0	332.47286009788513	1.0001640319824219
72	305.1040909290314	pulse	0	t		70.0	2.5	/experiments/knapen_AOT/AOT_stimuli/rescaled_final/0442_fw.mp4	0.0	332.6564230918884	
72	305.9206919670105	movie	1		247	70.0	2.5	/experiments/knapen_AOT/AOT_stimuli/rescaled_final/0442_fw.mp4	0.0	333.47302412986755	2.5002849102020264
72	306.7042329311371	pulse	1	t		70.0	2.5	/experiments/knapen_AOT/AOT_stimuli/rescaled_final/0442_fw.mp4	0.0	334.25656509399414	
72	308.30461597442627	pulse	1	t		70.0	2.5	/experiments/knapen_AOT/AOT_stimuli/rescaled_final/0442_fw.mp4	0.0	335.8569481372833	
72	308.4209768772125	fix_post	2		12	70.0	2.5	/experiments/knapen_AOT/AOT_stimuli/rescaled_final/0442_fw.mp4	0.0	335.9733090400696	0.10000491142272949
73	308.52098178863525	fix_pre	0		119	71.0	2.5	/experiments/knapen_AOT/AOT_stimuli/rescaled_final/0442_rv.mp4	0.0	336.0733139514923	0.9918169975280762
73	309.51279878616333	movie	1		248	71.0	2.5	/experiments/knapen_AOT/AOT_stimuli/rescaled_final/0442_rv.mp4	0.0	337.0651309490204	2.500361204147339
73	309.9014058113098	pulse	1	t		71.0	2.5	/experiments/knapen_AOT/AOT_stimuli/rescaled_final/0442_rv.mp4	0.0	337.45373797416687	
73	311.50511598587036	pulse	1	t		71.0	2.5	/experiments/knapen_AOT/AOT_stimuli/rescaled_final/0442_rv.mp4	0.0	339.0574481487274	
73	312.01315999031067	fix_post	2		12	71.0	2.5	/experiments/knapen_AOT/AOT_stimuli/rescaled_final/0442_rv.mp4	0.0	339.5654921531677	0.10008692741394043
74	312.1132469177246	fix_pre	0		120	72.0	2.5	/experiments/knapen_AOT/AOT_stimuli/rescaled_final/1221_rv.mp4	0.0	339.66557908058167	1.0001270771026611
74	313.10520696640015	pulse	0	t		72.0	2.5	/experiments/knapen_AOT/AOT_stimuli/rescaled_final/1221_rv.mp4	0.0	340.6575391292572	
74	313.11337399482727	movie	1		248	72.0	2.5	/experiments/knapen_AOT/AOT_stimuli/rescaled_final/1221_rv.mp4	0.0	340.6657061576843	2.5087568759918213
74	314.7060549259186	pulse	1	t		72.0	2.5	/experiments/knapen_AOT/AOT_stimuli/rescaled_final/1221_rv.mp4	0.0	342.25838708877563	
74	315.6221308708191	fix_post	2		12	72.0	2.5	/experiments/knapen_AOT/AOT_stimuli/rescaled_final/1221_rv.mp4	0.0	343.17446303367615	0.09995007514953613
75	315.7220809459686	fix_pre	0		120	73.0	2.5	/experiments/knapen_AOT/AOT_stimuli/rescaled_final/0784_rv.mp4	0.0	343.2744131088257	1.0001628398895264
75	316.3058249950409	pulse	0	t		73.0	2.5	/experiments/knapen_AOT/AOT_stimuli/rescaled_final/0784_rv.mp4	0.0	343.85815715789795	
75	316.72224378585815	movie	1		247	73.0	2.5	/experiments/knapen_AOT/AOT_stimuli/rescaled_final/0784_rv.mp4	0.0	344.2745759487152	2.5003089904785156
75	317.90174889564514	pulse	1	t		73.0	2.5	/experiments/knapen_AOT/AOT_stimuli/rescaled_final/0784_rv.mp4	0.0	345.4540810585022	
75	319.22255277633667	fix_post	2		12	73.0	2.5	/experiments/knapen_AOT/AOT_stimuli/rescaled_final/0784_rv.mp4	0.0	346.7748849391937	0.100128173828125
76	319.3226809501648	fix_pre	0		120	74.0	2.5	/experiments/knapen_AOT/AOT_stimuli/rescaled_final/1221_rv.mp4	0.0	346.87501311302185	1.0000629425048828
76	319.5061459541321	pulse	0	t		74.0	2.5	/experiments/knapen_AOT/AOT_stimuli/rescaled_final/1221_rv.mp4	0.0	347.05847811698914	
76	320.3227438926697	movie	1		246	74.0	2.5	/experiments/knapen_AOT/AOT_stimuli/rescaled_final/1221_rv.mp4	0.0	347.87507605552673	2.5004138946533203
76	321.1064507961273	pulse	1	t		74.0	2.5	/experiments/knapen_AOT/AOT_stimuli/rescaled_final/1221_rv.mp4	0.0	348.6587829589844	
76	322.7066898345947	pulse	1	t		74.0	2.5	/experiments/knapen_AOT/AOT_stimuli/rescaled_final/1221_rv.mp4	0.0	350.2590219974518	
76	322.823157787323	fix_post	2		12	74.0	2.5	/experiments/knapen_AOT/AOT_stimuli/rescaled_final/1221_rv.mp4	0.0	350.37548995018005	0.09999799728393555
77	322.92315578460693	fix_pre	0		119	75.0	2.5	/experiments/knapen_AOT/AOT_stimuli/rescaled_final/0424_rv.mp4	0.0	350.475487947464	0.9919230937957764
77	323.9150788784027	movie	1		247	75.0	2.5	/experiments/knapen_AOT/AOT_stimuli/rescaled_final/0424_rv.mp4	0.0	351.46741104125977	2.500368118286133
77	324.30284094810486	pulse	1	t		75.0	2.5	/experiments/knapen_AOT/AOT_stimuli/rescaled_final/0424_rv.mp4	0.0	351.8551731109619	
77	325.9071078300476	pulse	1	t		75.0	2.5	/experiments/knapen_AOT/AOT_stimuli/rescaled_final/0424_rv.mp4	0.0	353.45943999290466	
77	326.41544699668884	fix_post	2		12	75.0	2.5	/experiments/knapen_AOT/AOT_stimuli/rescaled_final/0424_rv.mp4	0.0	353.9677791595459	0.09990477561950684
78	326.51535177230835	fix_pre	0		120	76.0	2.5	blank	1.0	354.0676839351654	1.0001962184906006
78	327.5073699951172	pulse	0	t		76.0	2.5	blank	1.0	355.05970215797424	
78	327.51554799079895	movie	1		301	76.0	2.5	blank	1.0	355.067880153656	2.5086898803710938
78	329.10763478279114	pulse	1	t		76.0	2.5	blank	1.0	356.6599669456482	
78	330.02423787117004	fix_post	2		12	76.0	2.5	blank	1.0	357.5765700340271	0.09996390342712402
79	330.12420177459717	fix_pre	0		120	77.0	2.5	/experiments/knapen_AOT/AOT_stimuli/rescaled_final/0529_fw.mp4	0.0	357.6765339374542	1.0001840591430664
79	330.70791697502136	pulse	0	t		77.0	2.5	/experiments/knapen_AOT/AOT_stimuli/rescaled_final/0529_fw.mp4	0.0	358.2602491378784	
79	331.12438583374023	movie	1		247	77.0	2.5	/experiments/knapen_AOT/AOT_stimuli/rescaled_final/0529_fw.mp4	0.0	358.6767179965973	2.50051212310791
79	332.30824089050293	pulse	1	t		77.0	2.5	/experiments/knapen_AOT/AOT_stimuli/rescaled_final/0529_fw.mp4	0.0	359.86057305336	
79	333.62489795684814	fix_post	2		12	77.0	2.5	/experiments/knapen_AOT/AOT_stimuli/rescaled_final/0529_fw.mp4	0.0	361.1772301197052	0.09984493255615234
80	333.7247428894043	fix_pre	0		120	78.0	2.5	/experiments/knapen_AOT/AOT_stimuli/rescaled_final/0928_rv.mp4	0.0	361.27707505226135	1.000298023223877
80	333.90829277038574	pulse	0	t		78.0	2.5	/experiments/knapen_AOT/AOT_stimuli/rescaled_final/0928_rv.mp4	0.0	361.4606249332428	
80	334.7250409126282	movie	1		246	78.0	2.5	/experiments/knapen_AOT/AOT_stimuli/rescaled_final/0928_rv.mp4	0.0	362.27737307548523	2.5002338886260986
80	335.50860691070557	pulse	1	t		78.0	2.5	/experiments/knapen_AOT/AOT_stimuli/rescaled_final/0928_rv.mp4	0.0	363.0609390735626	
80	337.1088008880615	pulse	1	t		78.0	2.5	/experiments/knapen_AOT/AOT_stimuli/rescaled_final/0928_rv.mp4	0.0	364.6611330509186	
80	337.2252748012543	fix_post	2		11	78.0	2.5	/experiments/knapen_AOT/AOT_stimuli/rescaled_final/0928_rv.mp4	0.0	364.7776069641113	0.09171414375305176
81	337.3169889450073	fix_pre	0		120	79.0	2.5	/experiments/knapen_AOT/AOT_stimuli/rescaled_final/1538_rv.mp4	0.0	364.8693211078644	1.0002028942108154
81	338.31719183921814	movie	1		245	79.0	2.5	/experiments/knapen_AOT/AOT_stimuli/rescaled_final/1538_rv.mp4	0.0	365.8695240020752	2.5004701614379883
81	338.7091989517212	pulse	1	t		79.0	2.5	/experiments/knapen_AOT/AOT_stimuli/rescaled_final/1538_rv.mp4	0.0	366.26153111457825	
81	340.3018708229065	pulse	1	t		79.0	2.5	/experiments/knapen_AOT/AOT_stimuli/rescaled_final/1538_rv.mp4	0.0	367.85420298576355	
81	340.8176620006561	fix_post	2		12	79.0	2.5	/experiments/knapen_AOT/AOT_stimuli/rescaled_final/1538_rv.mp4	0.0	368.3699941635132	0.09983682632446289
82	340.9174988269806	fix_pre	0		120	80.0	2.5	/experiments/knapen_AOT/AOT_stimuli/rescaled_final/0294_rv.mp4	0.0	368.46983098983765	1.000197172164917
82	341.90203285217285	pulse	0	t		80.0	2.5	/experiments/knapen_AOT/AOT_stimuli/rescaled_final/0294_rv.mp4	0.0	369.4543650150299	
82	341.9176959991455	movie	1		247	80.0	2.5	/experiments/knapen_AOT/AOT_stimuli/rescaled_final/0294_rv.mp4	0.0	369.47002816200256	2.5086867809295654
82	343.51093196868896	pulse	1	t		80.0	2.5	/experiments/knapen_AOT/AOT_stimuli/rescaled_final/0294_rv.mp4	0.0	371.063264131546	
82	344.4263827800751	fix_post	2		12	80.0	2.5	/experiments/knapen_AOT/AOT_stimuli/rescaled_final/0294_rv.mp4	0.0	371.97871494293213	0.09997415542602539
83	344.5263569355011	fix_pre	0		120	81.0	2.5	/experiments/knapen_AOT/AOT_stimuli/rescaled_final/1251_fw.mp4	0.0	372.07868909835815	1.0001919269561768
83	345.10190987586975	pulse	0	t		81.0	2.5	/experiments/knapen_AOT/AOT_stimuli/rescaled_final/1251_fw.mp4	0.0	372.6542420387268	
83	345.5265488624573	movie	1		246	81.0	2.5	/experiments/knapen_AOT/AOT_stimuli/rescaled_final/1251_fw.mp4	0.0	373.07888102531433	2.5004770755767822
83	346.7030107975006	pulse	1	t		81.0	2.5	/experiments/knapen_AOT/AOT_stimuli/rescaled_final/1251_fw.mp4	0.0	374.25534296035767	
83	348.02702593803406	fix_post	2		12	81.0	2.5	/experiments/knapen_AOT/AOT_stimuli/rescaled_final/1251_fw.mp4	0.0	375.5793581008911	0.09987902641296387
84	348.126904964447	fix_pre	0		120	82.0	2.5	blank	1.0	375.6792371273041	1.0001399517059326
84	348.3020877838135	pulse	0	t		82.0	2.5	blank	1.0	375.85441994667053	
84	349.12704491615295	movie	1		300	82.0	2.5	blank	1.0	376.67937707901	2.5004169940948486
84	349.90236592292786	pulse	1	t		82.0	2.5	blank	1.0	377.4546980857849	
84	351.5026819705963	pulse	1	t		82.0	2.5	blank	1.0	379.05501413345337	
84	351.6274619102478	fix_post	2		12	82.0	2.5	blank	1.0	379.17979407310486	0.09997797012329102
85	351.7274398803711	fix_pre	0		120	83.0	2.5	/experiments/knapen_AOT/AOT_stimuli/rescaled_final/1468_rv.mp4	0.0	379.27977204322815	1.0001499652862549
85	352.72758984565735	movie	1		243	83.0	2.5	/experiments/knapen_AOT/AOT_stimuli/rescaled_final/1468_rv.mp4	0.0	380.2799220085144	2.4920620918273926
85	353.10285782814026	pulse	1	t		83.0	2.5	/experiments/knapen_AOT/AOT_stimuli/rescaled_final/1468_rv.mp4	0.0	380.6551899909973	
85	354.7031829357147	pulse	1	t		83.0	2.5	/experiments/knapen_AOT/AOT_stimuli/rescaled_final/1468_rv.mp4	0.0	382.2555150985718	
85	355.21965193748474	fix_post	2		12	83.0	2.5	/experiments/knapen_AOT/AOT_stimuli/rescaled_final/1468_rv.mp4	0.0	382.7719841003418	0.10005497932434082
87	355.3197069168091	stim	0		1716					382.87203907966614	14.302161931991577
87	356.3034088611603	pulse	0	t						383.85574102401733	
87	357.9036409854889	pulse	0	t						385.45597314834595	
87	359.50382685661316	pulse	0	t						387.0561590194702	
87	361.1040258407593	pulse	0	t						388.65635800361633	
87	362.70432686805725	pulse	0	t						390.2566590309143	
87	364.3045868873596	pulse	0	t						391.8569190502167	
87	365.9047999382019	pulse	0	t						393.45713210105896	
87	367.50496077537537	pulse	0	t						395.0572929382324	
87	369.10517382621765	pulse	0	t						396.6575059890747	
