trial_nr	onset	event_type	phase	response	nr_frames	movie_index	movie_duration	movie_file	blank	onset_abs	duration
0	0.1997990608215332	stim	0		29					21.59796905517578	0.24173307418823242
0	0.4334580898284912	response	0	space						21.83162808418274	
1	0.4415321350097656	stim	0		4730					21.839702129364014	39.43493103981018
1	39.86139702796936	pulse	0	t						61.25956702232361	
1	39.876463174819946	stim	1		1715					61.274633169174194	14.298173904418945
1	41.45615911483765	pulse	1	t						62.854329109191895	
1	43.056363105773926	pulse	1	t						64.45453310012817	
1	44.65673112869263	pulse	1	t						66.05490112304688	
1	46.25688600540161	pulse	1	t						67.65505599975586	
1	47.85712909698486	pulse	1	t						69.25529909133911	
1	49.45729303359985	pulse	1	t						70.8554630279541	
1	51.05762815475464	pulse	1	t						72.45579814910889	
1	52.65782904624939	pulse	1	t						74.05599904060364	
2	54.17463707923889	fix_pre	0		11	0.0	2.5	/experiments/knapen_AOT/AOT_stimuli/rescaled_final/1746_fw.mp4	0.0	75.57280707359314	0.09168815612792969
2	54.25808000564575	pulse	0	t		0.0	2.5	/experiments/knapen_AOT/AOT_stimuli/rescaled_final/1746_fw.mp4	0.0	75.65625	
2	54.26632523536682	movie	1		242	0.0	2.5	/experiments/knapen_AOT/AOT_stimuli/rescaled_final/1746_fw.mp4	0.0	75.66449522972107	2.508718967437744
2	55.85877323150635	pulse	1	t		0.0	2.5	/experiments/knapen_AOT/AOT_stimuli/rescaled_final/1746_fw.mp4	0.0	77.2569432258606	
2	56.775044202804565	fix_post	2		12	0.0	2.5	/experiments/knapen_AOT/AOT_stimuli/rescaled_final/1746_fw.mp4	0.0	78.17321419715881	0.09996485710144043
3	56.875009059906006	fix_pre	0		120	1.0	2.5	/experiments/knapen_AOT/AOT_stimuli/rescaled_final/0757_rv.mp4	0.0	78.27317905426025	1.0001029968261719
3	57.458707094192505	pulse	0	t		1.0	2.5	/experiments/knapen_AOT/AOT_stimuli/rescaled_final/0757_rv.mp4	0.0	78.85687708854675	
3	57.87511205673218	movie	1		244	1.0	2.5	/experiments/knapen_AOT/AOT_stimuli/rescaled_final/0757_rv.mp4	0.0	79.27328205108643	2.5004310607910156
3	59.05891418457031	pulse	1	t		1.0	2.5	/experiments/knapen_AOT/AOT_stimuli/rescaled_final/0757_rv.mp4	0.0	80.45708417892456	
3	60.37554311752319	fix_post	2		12	1.0	2.5	/experiments/knapen_AOT/AOT_stimuli/rescaled_final/0757_rv.mp4	0.0	81.77371311187744	0.10004210472106934
4	60.47558522224426	fix_pre	0		120	2.0	2.5	/experiments/knapen_AOT/AOT_stimuli/rescaled_final/1754_rv.mp4	0.0	81.87375521659851	1.0001189708709717
4	60.65907311439514	pulse	0	t		2.0	2.5	/experiments/knapen_AOT/AOT_stimuli/rescaled_final/1754_rv.mp4	0.0	82.05724310874939	
4	61.475704193115234	movie	1		245	2.0	2.5	/experiments/knapen_AOT/AOT_stimuli/rescaled_final/1754_rv.mp4	0.0	82.87387418746948	2.5003678798675537
4	62.259308099746704	pulse	1	t		2.0	2.5	/experiments/knapen_AOT/AOT_stimuli/rescaled_final/1754_rv.mp4	0.0	83.65747809410095	
4	63.85702610015869	pulse	1	t		2.0	2.5	/experiments/knapen_AOT/AOT_stimuli/rescaled_final/1754_rv.mp4	0.0	85.25519609451294	
4	63.97607207298279	fix_post	2		12	2.0	2.5	/experiments/knapen_AOT/AOT_stimuli/rescaled_final/1754_rv.mp4	0.0	85.37424206733704	0.0999910831451416
5	64.07606315612793	fix_pre	0		120	3.0	2.5	/experiments/knapen_AOT/AOT_stimuli/rescaled_final/0443_fw.mp4	0.0	85.47423315048218	1.0001270771026611
5	65.07619023323059	movie	1		239	3.0	2.5	/experiments/knapen_AOT/AOT_stimuli/rescaled_final/0443_fw.mp4	0.0	86.47436022758484	2.4921178817749023
5	65.46032118797302	pulse	1	t		3.0	2.5	/experiments/knapen_AOT/AOT_stimuli/rescaled_final/0443_fw.mp4	0.0	86.85849118232727	
5	67.06006002426147	pulse	1	t		3.0	2.5	/experiments/knapen_AOT/AOT_stimuli/rescaled_final/0443_fw.mp4	0.0	88.45823001861572	
5	67.5683081150055	fix_post	2		12	3.0	2.5	/experiments/knapen_AOT/AOT_stimuli/rescaled_final/0443_fw.mp4	0.0	88.96647810935974	0.09994292259216309
6	67.66825103759766	fix_pre	0		120	4.0	2.5	/experiments/knapen_AOT/AOT_stimuli/rescaled_final/1233_rv.mp4	0.0	89.0664210319519	1.0001499652862549
6	68.66025400161743	pulse	0	t		4.0	2.5	/experiments/knapen_AOT/AOT_stimuli/rescaled_final/1233_rv.mp4	0.0	90.05842399597168	
6	68.66840100288391	movie	1		244	4.0	2.5	/experiments/knapen_AOT/AOT_stimuli/rescaled_final/1233_rv.mp4	0.0	90.06657099723816	2.5088040828704834
6	70.26103806495667	pulse	1	t		4.0	2.5	/experiments/knapen_AOT/AOT_stimuli/rescaled_final/1233_rv.mp4	0.0	91.65920805931091	
6	71.1772050857544	fix_post	2		12	4.0	2.5	/experiments/knapen_AOT/AOT_stimuli/rescaled_final/1233_rv.mp4	0.0	92.57537508010864	0.09993600845336914
7	71.27714109420776	fix_pre	0		120	5.0	2.5	/experiments/knapen_AOT/AOT_stimuli/rescaled_final/1365_rv.mp4	0.0	92.67531108856201	1.0002551078796387
7	71.86083316802979	pulse	0	t		5.0	2.5	/experiments/knapen_AOT/AOT_stimuli/rescaled_final/1365_rv.mp4	0.0	93.25900316238403	
7	72.2773962020874	movie	1		243	5.0	2.5	/experiments/knapen_AOT/AOT_stimuli/rescaled_final/1365_rv.mp4	0.0	93.67556619644165	2.5004420280456543
7	73.46100616455078	pulse	1	t		5.0	2.5	/experiments/knapen_AOT/AOT_stimuli/rescaled_final/1365_rv.mp4	0.0	94.85917615890503	
7	74.77783823013306	fix_post	2		12	5.0	2.5	/experiments/knapen_AOT/AOT_stimuli/rescaled_final/1365_rv.mp4	0.0	96.1760082244873	0.09987497329711914
8	74.87771320343018	fix_pre	0		120	6.0	2.5	blank	1.0	96.27588319778442	1.0001108646392822
8	75.06118702888489	pulse	0	t		6.0	2.5	blank	1.0	96.45935702323914	
8	75.87782406806946	movie	1		300	6.0	2.5	blank	1.0	97.2759940624237	2.5003409385681152
8	76.6614580154419	pulse	1	t		6.0	2.5	blank	1.0	98.05962800979614	
8	78.26174807548523	pulse	1	t		6.0	2.5	blank	1.0	99.65991806983948	
8	78.37816500663757	fix_post	2		12	6.0	2.5	blank	1.0	99.77633500099182	0.10001707077026367
9	78.47818207740784	fix_pre	0		120	7.0	2.5	/experiments/knapen_AOT/AOT_stimuli/rescaled_final/2153_fw.mp4	0.0	99.87635207176208	1.0001740455627441
9	79.47835612297058	movie	1		241	7.0	2.5	/experiments/knapen_AOT/AOT_stimuli/rescaled_final/2153_fw.mp4	0.0	100.87652611732483	2.4921629428863525
9	79.86235809326172	pulse	1	t		7.0	2.5	/experiments/knapen_AOT/AOT_stimuli/rescaled_final/2153_fw.mp4	0.0	101.26052808761597	
9	81.4621741771698	pulse	1	t		7.0	2.5	/experiments/knapen_AOT/AOT_stimuli/rescaled_final/2153_fw.mp4	0.0	102.86034417152405	
9	81.97051906585693	fix_post	2		12	7.0	2.5	/experiments/knapen_AOT/AOT_stimuli/rescaled_final/2153_fw.mp4	0.0	103.36868906021118	0.09995102882385254
10	82.07047009468079	fix_pre	0		120	8.0	2.5	/experiments/knapen_AOT/AOT_stimuli/rescaled_final/1395_rv.mp4	0.0	103.46864008903503	1.0001459121704102
10	83.06238722801208	pulse	0	t		8.0	2.5	/experiments/knapen_AOT/AOT_stimuli/rescaled_final/1395_rv.mp4	0.0	104.46055722236633	
10	83.0706160068512	movie	1		243	8.0	2.5	/experiments/knapen_AOT/AOT_stimuli/rescaled_final/1395_rv.mp4	0.0	104.46878600120544	2.508622169494629
10	84.66303420066833	pulse	1	t		8.0	2.5	/experiments/knapen_AOT/AOT_stimuli/rescaled_final/1395_rv.mp4	0.0	106.06120419502258	
10	85.57923817634583	fix_post	2		12	8.0	2.5	/experiments/knapen_AOT/AOT_stimuli/rescaled_final/1395_rv.mp4	0.0	106.97740817070007	0.10010886192321777
11	85.67934703826904	fix_pre	0		120	9.0	2.5	/experiments/knapen_AOT/AOT_stimuli/rescaled_final/1960_rv.mp4	0.0	107.07751703262329	1.0001420974731445
11	86.26282811164856	pulse	0	t		9.0	2.5	/experiments/knapen_AOT/AOT_stimuli/rescaled_final/1960_rv.mp4	0.0	107.66099810600281	
11	86.67948913574219	movie	1		242	9.0	2.5	/experiments/knapen_AOT/AOT_stimuli/rescaled_final/1960_rv.mp4	0.0	108.07765913009644	2.5004820823669434
11	87.86320614814758	pulse	1	t		9.0	2.5	/experiments/knapen_AOT/AOT_stimuli/rescaled_final/1960_rv.mp4	0.0	109.26137614250183	
11	89.17997121810913	fix_post	2		12	9.0	2.5	/experiments/knapen_AOT/AOT_stimuli/rescaled_final/1960_rv.mp4	0.0	110.57814121246338	0.09989595413208008
12	89.27986717224121	fix_pre	0		120	10.0	2.5	/experiments/knapen_AOT/AOT_stimuli/rescaled_final/1054_fw.mp4	0.0	110.67803716659546	1.0001368522644043
12	89.46333408355713	pulse	0	t		10.0	2.5	/experiments/knapen_AOT/AOT_stimuli/rescaled_final/1054_fw.mp4	0.0	110.86150407791138	
12	90.28000402450562	movie	1		242	10.0	2.5	/experiments/knapen_AOT/AOT_stimuli/rescaled_final/1054_fw.mp4	0.0	111.67817401885986	2.500369071960449
12	91.06367516517639	pulse	1	t		10.0	2.5	/experiments/knapen_AOT/AOT_stimuli/rescaled_final/1054_fw.mp4	0.0	112.46184515953064	
12	92.66562414169312	pulse	1	t		10.0	2.5	/experiments/knapen_AOT/AOT_stimuli/rescaled_final/1054_fw.mp4	0.0	114.06379413604736	
12	92.78037309646606	fix_post	2		12	10.0	2.5	/experiments/knapen_AOT/AOT_stimuli/rescaled_final/1054_fw.mp4	0.0	114.17854309082031	0.10002303123474121
13	92.8803961277008	fix_pre	0		119	11.0	2.5	/experiments/knapen_AOT/AOT_stimuli/rescaled_final/0572_rv.mp4	0.0	114.27856612205505	0.9917778968811035
13	93.87217402458191	movie	1		243	11.0	2.5	/experiments/knapen_AOT/AOT_stimuli/rescaled_final/0572_rv.mp4	0.0	115.27034401893616	2.500452995300293
13	94.2642650604248	pulse	1	t		11.0	2.5	/experiments/knapen_AOT/AOT_stimuli/rescaled_final/0572_rv.mp4	0.0	115.66243505477905	
13	95.85692715644836	pulse	1	t		11.0	2.5	/experiments/knapen_AOT/AOT_stimuli/rescaled_final/0572_rv.mp4	0.0	117.25509715080261	
13	96.3726270198822	fix_post	2		12	11.0	2.5	/experiments/knapen_AOT/AOT_stimuli/rescaled_final/0572_rv.mp4	0.0	117.77079701423645	0.100006103515625
14	96.47263312339783	fix_pre	0		120	12.0	2.5	/experiments/knapen_AOT/AOT_stimuli/rescaled_final/0120_fw.mp4	0.0	117.87080311775208	1.0001320838928223
14	97.45704412460327	pulse	0	t		12.0	2.5	/experiments/knapen_AOT/AOT_stimuli/rescaled_final/0120_fw.mp4	0.0	118.85521411895752	
14	97.47276520729065	movie	1		244	12.0	2.5	/experiments/knapen_AOT/AOT_stimuli/rescaled_final/0120_fw.mp4	0.0	118.8709352016449	2.5086519718170166
14	99.06894016265869	pulse	1	t		12.0	2.5	/experiments/knapen_AOT/AOT_stimuli/rescaled_final/0120_fw.mp4	0.0	120.46711015701294	
14	99.98141717910767	fix_post	2		12	12.0	2.5	/experiments/knapen_AOT/AOT_stimuli/rescaled_final/0120_fw.mp4	0.0	121.37958717346191	0.09996700286865234
15	100.08138418197632	fix_pre	0		120	13.0	2.5	/experiments/knapen_AOT/AOT_stimuli/rescaled_final/0356_fw.mp4	0.0	121.47955417633057	1.000309944152832
15	100.65671515464783	pulse	0	t		13.0	2.5	/experiments/knapen_AOT/AOT_stimuli/rescaled_final/0356_fw.mp4	0.0	122.05488514900208	
15	101.08169412612915	movie	1		242	13.0	2.5	/experiments/knapen_AOT/AOT_stimuli/rescaled_final/0356_fw.mp4	0.0	122.4798641204834	2.500369071960449
15	102.25720715522766	pulse	1	t		13.0	2.5	/experiments/knapen_AOT/AOT_stimuli/rescaled_final/0356_fw.mp4	0.0	123.65537714958191	
15	103.5820631980896	fix_post	2		12	13.0	2.5	/experiments/knapen_AOT/AOT_stimuli/rescaled_final/0356_fw.mp4	0.0	124.98023319244385	0.09998297691345215
16	103.68204617500305	fix_pre	0		120	14.0	2.5	blank	1.0	125.0802161693573	1.0000529289245605
16	103.85718703269958	pulse	0	t		14.0	2.5	blank	1.0	125.25535702705383	
16	104.68209910392761	movie	1		300	14.0	2.5	blank	1.0	126.08026909828186	2.5004100799560547
16	105.45740413665771	pulse	1	t		14.0	2.5	blank	1.0	126.85557413101196	
16	107.0576581954956	pulse	1	t		14.0	2.5	blank	1.0	128.45582818984985	
16	107.18250918388367	fix_post	2		12	14.0	2.5	blank	1.0	128.58067917823792	0.09998488426208496
17	107.28249406814575	fix_pre	0		119	15.0	2.5	/experiments/knapen_AOT/AOT_stimuli/rescaled_final/0768_fw.mp4	0.0	128.6806640625	0.9918301105499268
17	108.27432417869568	movie	1		243	15.0	2.5	/experiments/knapen_AOT/AOT_stimuli/rescaled_final/0768_fw.mp4	0.0	129.67249417304993	2.5004758834838867
17	108.65844702720642	pulse	1	t		15.0	2.5	/experiments/knapen_AOT/AOT_stimuli/rescaled_final/0768_fw.mp4	0.0	130.05661702156067	
17	110.25806522369385	pulse	1	t		15.0	2.5	/experiments/knapen_AOT/AOT_stimuli/rescaled_final/0768_fw.mp4	0.0	131.6562352180481	
17	110.77480006217957	fix_post	2		12	15.0	2.5	/experiments/knapen_AOT/AOT_stimuli/rescaled_final/0768_fw.mp4	0.0	132.1729700565338	0.09995007514953613
18	110.8747501373291	fix_pre	0		119	16.0	2.5	/experiments/knapen_AOT/AOT_stimuli/rescaled_final/0871_fw.mp4	0.0	132.27292013168335	0.9917659759521484
18	111.85832905769348	pulse	0	t		16.0	2.5	/experiments/knapen_AOT/AOT_stimuli/rescaled_final/0871_fw.mp4	0.0	133.25649905204773	
18	111.86651611328125	movie	1		244	16.0	2.5	/experiments/knapen_AOT/AOT_stimuli/rescaled_final/0871_fw.mp4	0.0	133.2646861076355	2.5087809562683105
18	113.45929002761841	pulse	1	t		16.0	2.5	/experiments/knapen_AOT/AOT_stimuli/rescaled_final/0871_fw.mp4	0.0	134.85746002197266	
18	114.37529706954956	fix_post	2		12	16.0	2.5	/experiments/knapen_AOT/AOT_stimuli/rescaled_final/0871_fw.mp4	0.0	135.7734670639038	0.09994006156921387
19	114.47523713111877	fix_pre	0		120	17.0	2.5	/experiments/knapen_AOT/AOT_stimuli/rescaled_final/0855_rv.mp4	0.0	135.87340712547302	1.00016188621521
19	115.05893015861511	pulse	0	t		17.0	2.5	/experiments/knapen_AOT/AOT_stimuli/rescaled_final/0855_rv.mp4	0.0	136.45710015296936	
19	115.47539901733398	movie	1		243	17.0	2.5	/experiments/knapen_AOT/AOT_stimuli/rescaled_final/0855_rv.mp4	0.0	136.87356901168823	2.500490188598633
19	116.6591591835022	pulse	1	t		17.0	2.5	/experiments/knapen_AOT/AOT_stimuli/rescaled_final/0855_rv.mp4	0.0	138.05732917785645	
19	117.97588920593262	fix_post	2		12	17.0	2.5	/experiments/knapen_AOT/AOT_stimuli/rescaled_final/0855_rv.mp4	0.0	139.37405920028687	0.09999299049377441
20	118.07588219642639	fix_pre	0		120	18.0	2.5	/experiments/knapen_AOT/AOT_stimuli/rescaled_final/1641_rv.mp4	0.0	139.47405219078064	1.0001168251037598
20	118.25935006141663	pulse	0	t		18.0	2.5	/experiments/knapen_AOT/AOT_stimuli/rescaled_final/1641_rv.mp4	0.0	139.65752005577087	
20	119.07599902153015	movie	1		242	18.0	2.5	/experiments/knapen_AOT/AOT_stimuli/rescaled_final/1641_rv.mp4	0.0	140.4741690158844	2.5004591941833496
20	119.8596351146698	pulse	1	t		18.0	2.5	/experiments/knapen_AOT/AOT_stimuli/rescaled_final/1641_rv.mp4	0.0	141.25780510902405	
20	121.46119904518127	pulse	1	t		18.0	2.5	/experiments/knapen_AOT/AOT_stimuli/rescaled_final/1641_rv.mp4	0.0	142.85936903953552	
20	121.5764582157135	fix_post	2		12	18.0	2.5	/experiments/knapen_AOT/AOT_stimuli/rescaled_final/1641_rv.mp4	0.0	142.97462821006775	0.09989690780639648
21	121.6763551235199	fix_pre	0		120	19.0	2.5	/experiments/knapen_AOT/AOT_stimuli/rescaled_final/0833_fw.mp4	0.0	143.07452511787415	1.0000989437103271
21	122.67645406723022	movie	1		241	19.0	2.5	/experiments/knapen_AOT/AOT_stimuli/rescaled_final/0833_fw.mp4	0.0	144.07462406158447	2.4920780658721924
21	123.06139206886292	pulse	1	t		19.0	2.5	/experiments/knapen_AOT/AOT_stimuli/rescaled_final/0833_fw.mp4	0.0	144.45956206321716	
21	124.66025710105896	pulse	1	t		19.0	2.5	/experiments/knapen_AOT/AOT_stimuli/rescaled_final/0833_fw.mp4	0.0	146.0584270954132	
21	125.16853213310242	fix_post	2		8	19.0	2.5	/experiments/knapen_AOT/AOT_stimuli/rescaled_final/0833_fw.mp4	0.0	146.56670212745667	0.10002708435058594
22	125.268559217453	fix_pre	0		120	20.0	2.5	blank	1.0	146.66672921180725	1.0000808238983154
22	126.26065301895142	pulse	0	t		20.0	2.5	blank	1.0	147.65882301330566	
22	126.26864004135132	movie	1		301	20.0	2.5	blank	1.0	147.66681003570557	2.508800983428955
22	127.86077523231506	pulse	1	t		20.0	2.5	blank	1.0	149.2589452266693	
22	128.77744102478027	fix_post	2		12	20.0	2.5	blank	1.0	150.17561101913452	0.10001611709594727
23	128.87745714187622	fix_pre	0		120	21.0	2.5	/experiments/knapen_AOT/AOT_stimuli/rescaled_final/1627_fw.mp4	0.0	150.27562713623047	1.0001220703125
23	129.46098113059998	pulse	0	t		21.0	2.5	/experiments/knapen_AOT/AOT_stimuli/rescaled_final/1627_fw.mp4	0.0	150.85915112495422	
23	129.87757921218872	movie	1		242	21.0	2.5	/experiments/knapen_AOT/AOT_stimuli/rescaled_final/1627_fw.mp4	0.0	151.27574920654297	2.5004448890686035
23	131.06130123138428	pulse	1	t		21.0	2.5	/experiments/knapen_AOT/AOT_stimuli/rescaled_final/1627_fw.mp4	0.0	152.45947122573853	
23	132.37802410125732	fix_post	2		12	21.0	2.5	/experiments/knapen_AOT/AOT_stimuli/rescaled_final/1627_fw.mp4	0.0	153.77619409561157	0.09993600845336914
24	132.4779601097107	fix_pre	0		120	22.0	2.5	/experiments/knapen_AOT/AOT_stimuli/rescaled_final/1685_rv.mp4	0.0	153.87613010406494	1.0001349449157715
24	132.66155314445496	pulse	0	t		22.0	2.5	/experiments/knapen_AOT/AOT_stimuli/rescaled_final/1685_rv.mp4	0.0	154.0597231388092	
24	133.47809505462646	movie	1		242	22.0	2.5	/experiments/knapen_AOT/AOT_stimuli/rescaled_final/1685_rv.mp4	0.0	154.8762650489807	2.5004971027374268
24	134.261794090271	pulse	1	t		22.0	2.5	/experiments/knapen_AOT/AOT_stimuli/rescaled_final/1685_rv.mp4	0.0	155.65996408462524	
24	135.86201119422913	pulse	1	t		22.0	2.5	/experiments/knapen_AOT/AOT_stimuli/rescaled_final/1685_rv.mp4	0.0	157.26018118858337	
24	135.9785921573639	fix_post	2		12	22.0	2.5	/experiments/knapen_AOT/AOT_stimuli/rescaled_final/1685_rv.mp4	0.0	157.37676215171814	0.09991884231567383
25	136.07851099967957	fix_pre	0		120	23.0	2.5	/experiments/knapen_AOT/AOT_stimuli/rescaled_final/1368_rv.mp4	0.0	157.4766809940338	1.0001180171966553
25	137.07862901687622	movie	1		241	23.0	2.5	/experiments/knapen_AOT/AOT_stimuli/rescaled_final/1368_rv.mp4	0.0	158.47679901123047	2.4921231269836426
25	137.463525056839	pulse	1	t		23.0	2.5	/experiments/knapen_AOT/AOT_stimuli/rescaled_final/1368_rv.mp4	0.0	158.86169505119324	
25	139.06243109703064	pulse	1	t		23.0	2.5	/experiments/knapen_AOT/AOT_stimuli/rescaled_final/1368_rv.mp4	0.0	160.4606010913849	
25	139.57075214385986	fix_post	2		12	23.0	2.5	/experiments/knapen_AOT/AOT_stimuli/rescaled_final/1368_rv.mp4	0.0	160.9689221382141	0.09995293617248535
26	139.67070508003235	fix_pre	0		120	24.0	2.5	/experiments/knapen_AOT/AOT_stimuli/rescaled_final/0727_fw.mp4	0.0	161.0688750743866	1.0000989437103271
26	140.66279816627502	pulse	0	t		24.0	2.5	/experiments/knapen_AOT/AOT_stimuli/rescaled_final/0727_fw.mp4	0.0	162.06096816062927	
26	140.67080402374268	movie	1		246	24.0	2.5	/experiments/knapen_AOT/AOT_stimuli/rescaled_final/0727_fw.mp4	0.0	162.06897401809692	2.5087649822235107
26	142.2633581161499	pulse	1	t		24.0	2.5	/experiments/knapen_AOT/AOT_stimuli/rescaled_final/0727_fw.mp4	0.0	163.66152811050415	
26	143.1795690059662	fix_post	2		12	24.0	2.5	/experiments/knapen_AOT/AOT_stimuli/rescaled_final/0727_fw.mp4	0.0	164.57773900032043	0.10000014305114746
27	143.27956914901733	fix_pre	0		120	25.0	2.5	/experiments/knapen_AOT/AOT_stimuli/rescaled_final/0340_fw.mp4	0.0	164.67773914337158	1.0001349449157715
27	143.8631100654602	pulse	0	t		25.0	2.5	/experiments/knapen_AOT/AOT_stimuli/rescaled_final/0340_fw.mp4	0.0	165.26128005981445	
27	144.2797040939331	movie	1		243	25.0	2.5	/experiments/knapen_AOT/AOT_stimuli/rescaled_final/0340_fw.mp4	0.0	165.67787408828735	2.5003740787506104
27	145.46349620819092	pulse	1	t		25.0	2.5	/experiments/knapen_AOT/AOT_stimuli/rescaled_final/0340_fw.mp4	0.0	166.86166620254517	
27	146.78007817268372	fix_post	2		12	25.0	2.5	/experiments/knapen_AOT/AOT_stimuli/rescaled_final/0340_fw.mp4	0.0	168.17824816703796	0.09999704360961914
28	146.88007521629333	fix_pre	0		120	26.0	2.5	/experiments/knapen_AOT/AOT_stimuli/rescaled_final/0186_rv.mp4	0.0	168.27824521064758	1.0001368522644043
28	147.05610013008118	pulse	0	t		26.0	2.5	/experiments/knapen_AOT/AOT_stimuli/rescaled_final/0186_rv.mp4	0.0	168.45427012443542	
28	147.88021206855774	movie	1		243	26.0	2.5	/experiments/knapen_AOT/AOT_stimuli/rescaled_final/0186_rv.mp4	0.0	169.278382062912	2.500610113143921
28	148.65649700164795	pulse	1	t		26.0	2.5	/experiments/knapen_AOT/AOT_stimuli/rescaled_final/0186_rv.mp4	0.0	170.0546669960022	
28	150.26441311836243	pulse	1	t		26.0	2.5	/experiments/knapen_AOT/AOT_stimuli/rescaled_final/0186_rv.mp4	0.0	171.66258311271667	
28	150.38082218170166	fix_post	2		12	26.0	2.5	/experiments/knapen_AOT/AOT_stimuli/rescaled_final/0186_rv.mp4	0.0	171.7789921760559	0.09978199005126953
29	150.48060417175293	fix_pre	0		120	27.0	2.5	/experiments/knapen_AOT/AOT_stimuli/rescaled_final/0543_rv.mp4	0.0	171.87877416610718	1.0001440048217773
29	151.4807481765747	movie	1		242	27.0	2.5	/experiments/knapen_AOT/AOT_stimuli/rescaled_final/0543_rv.mp4	0.0	172.87891817092896	2.4921939373016357
29	151.8648760318756	pulse	1	t		27.0	2.5	/experiments/knapen_AOT/AOT_stimuli/rescaled_final/0543_rv.mp4	0.0	173.26304602622986	
29	153.4564552307129	pulse	1	t		27.0	2.5	/experiments/knapen_AOT/AOT_stimuli/rescaled_final/0543_rv.mp4	0.0	174.85462522506714	
29	153.97294211387634	fix_post	2		12	27.0	2.5	/experiments/knapen_AOT/AOT_stimuli/rescaled_final/0543_rv.mp4	0.0	175.3711121082306	0.09996294975280762
30	154.07290506362915	fix_pre	0		119	28.0	2.5	blank	1.0	175.4710750579834	0.9917800426483154
30	155.05642914772034	pulse	0	t		28.0	2.5	blank	1.0	176.45459914207458	
30	155.06468510627747	movie	1		301	28.0	2.5	blank	1.0	176.4628551006317	2.5086960792541504
30	156.6566870212555	pulse	1	t		28.0	2.5	blank	1.0	178.05485701560974	
30	157.57338118553162	fix_post	2		12	28.0	2.5	blank	1.0	178.97155117988586	0.1000208854675293
31	157.67340207099915	fix_pre	0		120	29.0	2.5	/experiments/knapen_AOT/AOT_stimuli/rescaled_final/0097_rv.mp4	0.0	179.0715720653534	1.0001599788665771
31	158.25703501701355	pulse	0	t		29.0	2.5	/experiments/knapen_AOT/AOT_stimuli/rescaled_final/0097_rv.mp4	0.0	179.6552050113678	
31	158.67356204986572	movie	1		244	29.0	2.5	/experiments/knapen_AOT/AOT_stimuli/rescaled_final/0097_rv.mp4	0.0	180.07173204421997	2.5003509521484375
31	159.85726404190063	pulse	1	t		29.0	2.5	/experiments/knapen_AOT/AOT_stimuli/rescaled_final/0097_rv.mp4	0.0	181.25543403625488	
31	161.17391300201416	fix_post	2		12	29.0	2.5	/experiments/knapen_AOT/AOT_stimuli/rescaled_final/0097_rv.mp4	0.0	182.5720829963684	0.0999910831451416
32	161.2739040851593	fix_pre	0		120	30.0	2.5	/experiments/knapen_AOT/AOT_stimuli/rescaled_final/2053_rv.mp4	0.0	182.67207407951355	1.0001220703125
32	161.45744609832764	pulse	0	t		30.0	2.5	/experiments/knapen_AOT/AOT_stimuli/rescaled_final/2053_rv.mp4	0.0	182.85561609268188	
32	162.2740261554718	movie	1		243	30.0	2.5	/experiments/knapen_AOT/AOT_stimuli/rescaled_final/2053_rv.mp4	0.0	183.67219614982605	2.500572919845581
32	163.05770802497864	pulse	1	t		30.0	2.5	/experiments/knapen_AOT/AOT_stimuli/rescaled_final/2053_rv.mp4	0.0	184.45587801933289	
32	164.65769505500793	pulse	1	t		30.0	2.5	/experiments/knapen_AOT/AOT_stimuli/rescaled_final/2053_rv.mp4	0.0	186.05586504936218	
32	164.77459907531738	fix_post	2		12	30.0	2.5	/experiments/knapen_AOT/AOT_stimuli/rescaled_final/2053_rv.mp4	0.0	186.17276906967163	0.09984898567199707
33	164.87444806098938	fix_pre	0		119	31.0	2.5	/experiments/knapen_AOT/AOT_stimuli/rescaled_final/2029_fw.mp4	0.0	186.27261805534363	0.9918050765991211
33	165.8662531375885	movie	1		243	31.0	2.5	/experiments/knapen_AOT/AOT_stimuli/rescaled_final/2029_fw.mp4	0.0	187.26442313194275	2.5004119873046875
33	166.25820922851562	pulse	1	t		31.0	2.5	/experiments/knapen_AOT/AOT_stimuli/rescaled_final/2029_fw.mp4	0.0	187.65637922286987	
33	167.858332157135	pulse	1	t		31.0	2.5	/experiments/knapen_AOT/AOT_stimuli/rescaled_final/2029_fw.mp4	0.0	189.25650215148926	
33	168.3666651248932	fix_post	2		12	31.0	2.5	/experiments/knapen_AOT/AOT_stimuli/rescaled_final/2029_fw.mp4	0.0	189.76483511924744	0.09998703002929688
34	168.46665215492249	fix_pre	0		120	32.0	2.5	/experiments/knapen_AOT/AOT_stimuli/rescaled_final/1466_fw.mp4	0.0	189.86482214927673	1.0001659393310547
34	169.45869302749634	pulse	0	t		32.0	2.5	/experiments/knapen_AOT/AOT_stimuli/rescaled_final/1466_fw.mp4	0.0	190.8568630218506	
34	169.46681809425354	movie	1		243	32.0	2.5	/experiments/knapen_AOT/AOT_stimuli/rescaled_final/1466_fw.mp4	0.0	190.8649880886078	2.5086710453033447
34	171.05945801734924	pulse	1	t		32.0	2.5	/experiments/knapen_AOT/AOT_stimuli/rescaled_final/1466_fw.mp4	0.0	192.4576280117035	
34	171.97548913955688	fix_post	2		12	32.0	2.5	/experiments/knapen_AOT/AOT_stimuli/rescaled_final/1466_fw.mp4	0.0	193.37365913391113	0.10003304481506348
35	172.07552218437195	fix_pre	0		120	33.0	2.5	blank	1.0	193.4736921787262	1.0001578330993652
35	172.65918111801147	pulse	0	t		33.0	2.5	blank	1.0	194.05735111236572	
35	173.0756800174713	movie	1		300	33.0	2.5	blank	1.0	194.47385001182556	2.500357151031494
35	174.25929713249207	pulse	1	t		33.0	2.5	blank	1.0	195.6574671268463	
35	175.5760371685028	fix_post	2		12	33.0	2.5	blank	1.0	196.97420716285706	0.09999203681945801
36	175.67602920532227	fix_pre	0		120	34.0	2.5	/experiments/knapen_AOT/AOT_stimuli/rescaled_final/0476_rv.mp4	0.0	197.0741991996765	1.0001509189605713
36	175.85965013504028	pulse	0	t		34.0	2.5	/experiments/knapen_AOT/AOT_stimuli/rescaled_final/0476_rv.mp4	0.0	197.25782012939453	
36	176.67618012428284	movie	1		243	34.0	2.5	/experiments/knapen_AOT/AOT_stimuli/rescaled_final/0476_rv.mp4	0.0	198.07435011863708	2.5005099773406982
36	177.46000123023987	pulse	1	t		34.0	2.5	/experiments/knapen_AOT/AOT_stimuli/rescaled_final/0476_rv.mp4	0.0	198.85817122459412	
36	179.05990314483643	pulse	1	t		34.0	2.5	/experiments/knapen_AOT/AOT_stimuli/rescaled_final/0476_rv.mp4	0.0	200.45807313919067	
36	179.17669010162354	fix_post	2		12	34.0	2.5	/experiments/knapen_AOT/AOT_stimuli/rescaled_final/0476_rv.mp4	0.0	200.57486009597778	0.09994101524353027
37	179.27663111686707	fix_pre	0		120	35.0	2.5	/experiments/knapen_AOT/AOT_stimuli/rescaled_final/0619_fw.mp4	0.0	200.6748011112213	1.000169038772583
37	180.27680015563965	movie	1		241	35.0	2.5	/experiments/knapen_AOT/AOT_stimuli/rescaled_final/0619_fw.mp4	0.0	201.6749701499939	2.492094039916992
37	180.6609401702881	pulse	1	t		35.0	2.5	/experiments/knapen_AOT/AOT_stimuli/rescaled_final/0619_fw.mp4	0.0	202.05911016464233	
37	182.2606110572815	pulse	1	t		35.0	2.5	/experiments/knapen_AOT/AOT_stimuli/rescaled_final/0619_fw.mp4	0.0	203.65878105163574	
37	182.76889419555664	fix_post	2		12	35.0	2.5	/experiments/knapen_AOT/AOT_stimuli/rescaled_final/0619_fw.mp4	0.0	204.1670641899109	0.09993791580200195
38	182.86883211135864	fix_pre	0		120	36.0	2.5	/experiments/knapen_AOT/AOT_stimuli/rescaled_final/1733_rv.mp4	0.0	204.2670021057129	1.0001020431518555
38	183.86085104942322	pulse	0	t		36.0	2.5	/experiments/knapen_AOT/AOT_stimuli/rescaled_final/1733_rv.mp4	0.0	205.25902104377747	
38	183.8689341545105	movie	1		243	36.0	2.5	/experiments/knapen_AOT/AOT_stimuli/rescaled_final/1733_rv.mp4	0.0	205.26710414886475	2.5087430477142334
38	185.461599111557	pulse	1	t		36.0	2.5	/experiments/knapen_AOT/AOT_stimuli/rescaled_final/1733_rv.mp4	0.0	206.85976910591125	
38	186.37767720222473	fix_post	2		12	36.0	2.5	/experiments/knapen_AOT/AOT_stimuli/rescaled_final/1733_rv.mp4	0.0	207.77584719657898	0.10002779960632324
39	186.47770500183105	fix_pre	0		119	37.0	2.5	/experiments/knapen_AOT/AOT_stimuli/rescaled_final/0913_fw.mp4	0.0	207.8758749961853	1.0001702308654785
39	187.06129217147827	pulse	0	t		37.0	2.5	/experiments/knapen_AOT/AOT_stimuli/rescaled_final/0913_fw.mp4	0.0	208.45946216583252	
39	187.47787523269653	movie	1		243	37.0	2.5	/experiments/knapen_AOT/AOT_stimuli/rescaled_final/0913_fw.mp4	0.0	208.87604522705078	2.500321865081787
39	188.66161823272705	pulse	1	t		37.0	2.5	/experiments/knapen_AOT/AOT_stimuli/rescaled_final/0913_fw.mp4	0.0	210.0597882270813	
39	189.97819709777832	fix_post	2		12	37.0	2.5	/experiments/knapen_AOT/AOT_stimuli/rescaled_final/0913_fw.mp4	0.0	211.37636709213257	0.10000205039978027
40	190.0781991481781	fix_pre	0		120	38.0	2.5	/experiments/knapen_AOT/AOT_stimuli/rescaled_final/1038_fw.mp4	0.0	211.47636914253235	1.0001418590545654
40	190.2618851661682	pulse	0	t		38.0	2.5	/experiments/knapen_AOT/AOT_stimuli/rescaled_final/1038_fw.mp4	0.0	211.66005516052246	
40	191.07834100723267	movie	1		242	38.0	2.5	/experiments/knapen_AOT/AOT_stimuli/rescaled_final/1038_fw.mp4	0.0	212.4765110015869	2.500542163848877
40	191.862065076828	pulse	1	t		38.0	2.5	/experiments/knapen_AOT/AOT_stimuli/rescaled_final/1038_fw.mp4	0.0	213.26023507118225	
40	193.46207308769226	pulse	1	t		38.0	2.5	/experiments/knapen_AOT/AOT_stimuli/rescaled_final/1038_fw.mp4	0.0	214.8602430820465	
40	193.57888317108154	fix_post	2		12	38.0	2.5	/experiments/knapen_AOT/AOT_stimuli/rescaled_final/1038_fw.mp4	0.0	214.9770531654358	0.09987401962280273
41	193.67875719070435	fix_pre	0		120	39.0	2.5	/experiments/knapen_AOT/AOT_stimuli/rescaled_final/1567_rv.mp4	0.0	215.0769271850586	1.0001919269561768
41	194.67894911766052	movie	1		242	39.0	2.5	/experiments/knapen_AOT/AOT_stimuli/rescaled_final/1567_rv.mp4	0.0	216.07711911201477	2.4921579360961914
41	195.06297516822815	pulse	1	t		39.0	2.5	/experiments/knapen_AOT/AOT_stimuli/rescaled_final/1567_rv.mp4	0.0	216.4611451625824	
41	196.66268706321716	pulse	1	t		39.0	2.5	/experiments/knapen_AOT/AOT_stimuli/rescaled_final/1567_rv.mp4	0.0	218.0608570575714	
41	197.1711070537567	fix_post	2		12	39.0	2.5	/experiments/knapen_AOT/AOT_stimuli/rescaled_final/1567_rv.mp4	0.0	218.56927704811096	0.09987998008728027
42	197.270987033844	fix_pre	0		120	40.0	2.5	/experiments/knapen_AOT/AOT_stimuli/rescaled_final/1803_rv.mp4	0.0	218.66915702819824	1.0000760555267334
42	198.26306819915771	pulse	0	t		40.0	2.5	/experiments/knapen_AOT/AOT_stimuli/rescaled_final/1803_rv.mp4	0.0	219.66123819351196	
42	198.27106308937073	movie	1		243	40.0	2.5	/experiments/knapen_AOT/AOT_stimuli/rescaled_final/1803_rv.mp4	0.0	219.66923308372498	2.5087881088256836
42	199.86399602890015	pulse	1	t		40.0	2.5	/experiments/knapen_AOT/AOT_stimuli/rescaled_final/1803_rv.mp4	0.0	221.2621660232544	
42	200.7798511981964	fix_post	2		12	40.0	2.5	/experiments/knapen_AOT/AOT_stimuli/rescaled_final/1803_rv.mp4	0.0	222.17802119255066	0.09996795654296875
43	200.87981915473938	fix_pre	0		120	41.0	2.5	/experiments/knapen_AOT/AOT_stimuli/rescaled_final/0619_fw.mp4	0.0	222.27798914909363	1.0002059936523438
43	201.4634771347046	pulse	0	t		41.0	2.5	/experiments/knapen_AOT/AOT_stimuli/rescaled_final/0619_fw.mp4	0.0	222.86164712905884	
43	201.88002514839172	movie	1		242	41.0	2.5	/experiments/knapen_AOT/AOT_stimuli/rescaled_final/0619_fw.mp4	0.0	223.27819514274597	2.500347852706909
43	203.06373119354248	pulse	1	t		41.0	2.5	/experiments/knapen_AOT/AOT_stimuli/rescaled_final/0619_fw.mp4	0.0	224.46190118789673	
43	204.38037300109863	fix_post	2		12	41.0	2.5	/experiments/knapen_AOT/AOT_stimuli/rescaled_final/0619_fw.mp4	0.0	225.77854299545288	0.10002803802490234
44	204.48040103912354	fix_pre	0		120	42.0	2.5	blank	1.0	225.87857103347778	1.0000979900360107
44	204.66397404670715	pulse	0	t		42.0	2.5	blank	1.0	226.0621440410614	
44	205.48049902915955	movie	1		300	42.0	2.5	blank	1.0	226.8786690235138	2.5004160404205322
44	206.26411509513855	pulse	1	t		42.0	2.5	blank	1.0	227.6622850894928	
44	207.85687518119812	pulse	1	t		42.0	2.5	blank	1.0	229.25504517555237	
44	207.98091506958008	fix_post	2		12	42.0	2.5	blank	1.0	229.37908506393433	0.1000051498413086
45	208.0809202194214	fix_pre	0		120	43.0	2.5	/experiments/knapen_AOT/AOT_stimuli/rescaled_final/0910_rv.mp4	0.0	229.47909021377563	1.0001168251037598
45	209.08103704452515	movie	1		241	43.0	2.5	/experiments/knapen_AOT/AOT_stimuli/rescaled_final/0910_rv.mp4	0.0	230.4792070388794	2.492082118988037
45	209.4692530632019	pulse	1	t		43.0	2.5	/experiments/knapen_AOT/AOT_stimuli/rescaled_final/0910_rv.mp4	0.0	230.86742305755615	
45	211.05755019187927	pulse	1	t		43.0	2.5	/experiments/knapen_AOT/AOT_stimuli/rescaled_final/0910_rv.mp4	0.0	232.45572018623352	
45	211.57311916351318	fix_post	2		12	43.0	2.5	/experiments/knapen_AOT/AOT_stimuli/rescaled_final/0910_rv.mp4	0.0	232.97128915786743	0.09995388984680176
46	211.67307305335999	fix_pre	0		120	44.0	2.5	/experiments/knapen_AOT/AOT_stimuli/rescaled_final/0350_rv.mp4	0.0	233.07124304771423	1.0002291202545166
46	212.65755200386047	pulse	0	t		44.0	2.5	/experiments/knapen_AOT/AOT_stimuli/rescaled_final/0350_rv.mp4	0.0	234.05572199821472	
46	212.6733021736145	movie	1		243	44.0	2.5	/experiments/knapen_AOT/AOT_stimuli/rescaled_final/0350_rv.mp4	0.0	234.07147216796875	2.508681058883667
46	214.25708103179932	pulse	1	t		44.0	2.5	/experiments/knapen_AOT/AOT_stimuli/rescaled_final/0350_rv.mp4	0.0	235.65525102615356	
46	215.18198323249817	fix_post	2		12	44.0	2.5	/experiments/knapen_AOT/AOT_stimuli/rescaled_final/0350_rv.mp4	0.0	236.58015322685242	0.09998893737792969
47	215.2819721698761	fix_pre	0		120	45.0	2.5	/experiments/knapen_AOT/AOT_stimuli/rescaled_final/1697_fw.mp4	0.0	236.68014216423035	1.000119924545288
47	215.85716700553894	pulse	0	t		45.0	2.5	/experiments/knapen_AOT/AOT_stimuli/rescaled_final/1697_fw.mp4	0.0	237.2553369998932	
47	216.2820920944214	movie	1		242	45.0	2.5	/experiments/knapen_AOT/AOT_stimuli/rescaled_final/1697_fw.mp4	0.0	237.68026208877563	2.500580072402954
47	217.45805716514587	pulse	1	t		45.0	2.5	/experiments/knapen_AOT/AOT_stimuli/rescaled_final/1697_fw.mp4	0.0	238.85622715950012	
47	218.78267216682434	fix_post	2		12	45.0	2.5	/experiments/knapen_AOT/AOT_stimuli/rescaled_final/1697_fw.mp4	0.0	240.1808421611786	0.09988999366760254
48	218.88256216049194	fix_pre	0		120	46.0	2.5	/experiments/knapen_AOT/AOT_stimuli/rescaled_final/1273_fw.mp4	0.0	240.2807321548462	1.000105857849121
48	219.05775117874146	pulse	0	t		46.0	2.5	/experiments/knapen_AOT/AOT_stimuli/rescaled_final/1273_fw.mp4	0.0	240.4559211730957	
48	219.88266801834106	movie	1		244	46.0	2.5	/experiments/knapen_AOT/AOT_stimuli/rescaled_final/1273_fw.mp4	0.0	241.2808380126953	2.500380039215088
48	220.65797114372253	pulse	1	t		46.0	2.5	/experiments/knapen_AOT/AOT_stimuli/rescaled_final/1273_fw.mp4	0.0	242.05614113807678	
48	222.25819611549377	pulse	1	t		46.0	2.5	/experiments/knapen_AOT/AOT_stimuli/rescaled_final/1273_fw.mp4	0.0	243.65636610984802	
48	222.38304805755615	fix_post	2		12	46.0	2.5	/experiments/knapen_AOT/AOT_stimuli/rescaled_final/1273_fw.mp4	0.0	243.7812180519104	0.09996199607849121
49	222.48301005363464	fix_pre	0		119	47.0	2.5	/experiments/knapen_AOT/AOT_stimuli/rescaled_final/0660_fw.mp4	0.0	243.8811800479889	0.9918789863586426
49	223.4748890399933	movie	1		242	47.0	2.5	/experiments/knapen_AOT/AOT_stimuli/rescaled_final/0660_fw.mp4	0.0	244.87305903434753	2.500383138656616
49	223.85896921157837	pulse	1	t		47.0	2.5	/experiments/knapen_AOT/AOT_stimuli/rescaled_final/0660_fw.mp4	0.0	245.25713920593262	
49	225.4589741230011	pulse	1	t		47.0	2.5	/experiments/knapen_AOT/AOT_stimuli/rescaled_final/0660_fw.mp4	0.0	246.85714411735535	
49	225.9752721786499	fix_post	2		12	47.0	2.5	/experiments/knapen_AOT/AOT_stimuli/rescaled_final/0660_fw.mp4	0.0	247.37344217300415	0.09999585151672363
50	226.07526803016663	fix_pre	0		119	48.0	2.5	/experiments/knapen_AOT/AOT_stimuli/rescaled_final/0144_fw.mp4	0.0	247.47343802452087	0.9917781352996826
50	227.05884909629822	pulse	0	t		48.0	2.5	/experiments/knapen_AOT/AOT_stimuli/rescaled_final/0144_fw.mp4	0.0	248.45701909065247	
50	227.0670461654663	movie	1		243	48.0	2.5	/experiments/knapen_AOT/AOT_stimuli/rescaled_final/0144_fw.mp4	0.0	248.46521615982056	2.5087220668792725
50	228.65979599952698	pulse	1	t		48.0	2.5	/experiments/knapen_AOT/AOT_stimuli/rescaled_final/0144_fw.mp4	0.0	250.05796599388123	
50	229.57576823234558	fix_post	2		12	48.0	2.5	/experiments/knapen_AOT/AOT_stimuli/rescaled_final/0144_fw.mp4	0.0	250.97393822669983	0.10001087188720703
51	229.6757791042328	fix_pre	0		120	49.0	2.5	blank	1.0	251.07394909858704	1.0001630783081055
51	230.25933623313904	pulse	0	t		49.0	2.5	blank	1.0	251.6575062274933	
51	230.6759421825409	movie	1		300	49.0	2.5	blank	1.0	252.07411217689514	2.5004448890686035
51	231.85970902442932	pulse	1	t		49.0	2.5	blank	1.0	253.25787901878357	
51	233.1763870716095	fix_post	2		12	49.0	2.5	blank	1.0	254.57455706596375	0.0999290943145752
52	233.27631616592407	fix_pre	0		120	50.0	2.5	/experiments/knapen_AOT/AOT_stimuli/rescaled_final/1179_fw.mp4	0.0	254.67448616027832	1.000257968902588
52	233.45988607406616	pulse	0	t		50.0	2.5	/experiments/knapen_AOT/AOT_stimuli/rescaled_final/1179_fw.mp4	0.0	254.8580560684204	
52	234.27657413482666	movie	1		243	50.0	2.5	/experiments/knapen_AOT/AOT_stimuli/rescaled_final/1179_fw.mp4	0.0	255.6747441291809	2.5003418922424316
52	235.0601031780243	pulse	1	t		50.0	2.5	/experiments/knapen_AOT/AOT_stimuli/rescaled_final/1179_fw.mp4	0.0	256.45827317237854	
52	236.66024017333984	pulse	1	t		50.0	2.5	/experiments/knapen_AOT/AOT_stimuli/rescaled_final/1179_fw.mp4	0.0	258.0584101676941	
52	236.7769160270691	fix_post	2		12	50.0	2.5	/experiments/knapen_AOT/AOT_stimuli/rescaled_final/1179_fw.mp4	0.0	258.17508602142334	0.09992504119873047
53	236.87684106826782	fix_pre	0		119	51.0	2.5	/experiments/knapen_AOT/AOT_stimuli/rescaled_final/1233_rv.mp4	0.0	258.27501106262207	0.9918351173400879
53	237.8686761856079	movie	1		243	51.0	2.5	/experiments/knapen_AOT/AOT_stimuli/rescaled_final/1233_rv.mp4	0.0	259.26684617996216	2.500372886657715
53	238.26081705093384	pulse	1	t		51.0	2.5	/experiments/knapen_AOT/AOT_stimuli/rescaled_final/1233_rv.mp4	0.0	259.6589870452881	
53	239.8609721660614	pulse	1	t		51.0	2.5	/experiments/knapen_AOT/AOT_stimuli/rescaled_final/1233_rv.mp4	0.0	261.25914216041565	
53	240.36904907226562	fix_post	2		12	51.0	2.5	/experiments/knapen_AOT/AOT_stimuli/rescaled_final/1233_rv.mp4	0.0	261.7672190666199	0.09997797012329102
54	240.46902704238892	fix_pre	0		120	52.0	2.5	/experiments/knapen_AOT/AOT_stimuli/rescaled_final/1153_fw.mp4	0.0	261.86719703674316	1.0001590251922607
54	241.46112418174744	pulse	0	t		52.0	2.5	/experiments/knapen_AOT/AOT_stimuli/rescaled_final/1153_fw.mp4	0.0	262.8592941761017	
54	241.46918606758118	movie	1		243	52.0	2.5	/experiments/knapen_AOT/AOT_stimuli/rescaled_final/1153_fw.mp4	0.0	262.8673560619354	2.5087790489196777
54	243.0617561340332	pulse	1	t		52.0	2.5	/experiments/knapen_AOT/AOT_stimuli/rescaled_final/1153_fw.mp4	0.0	264.45992612838745	
54	243.97796511650085	fix_post	2		12	52.0	2.5	/experiments/knapen_AOT/AOT_stimuli/rescaled_final/1153_fw.mp4	0.0	265.3761351108551	0.09997105598449707
55	244.07793617248535	fix_pre	0		120	53.0	2.5	/experiments/knapen_AOT/AOT_stimuli/rescaled_final/1465_rv.mp4	0.0	265.4761061668396	1.0001318454742432
55	244.66169118881226	pulse	0	t		53.0	2.5	/experiments/knapen_AOT/AOT_stimuli/rescaled_final/1465_rv.mp4	0.0	266.0598611831665	
55	245.0780680179596	movie	1		244	53.0	2.5	/experiments/knapen_AOT/AOT_stimuli/rescaled_final/1465_rv.mp4	0.0	266.47623801231384	2.5004141330718994
55	246.26184701919556	pulse	1	t		53.0	2.5	/experiments/knapen_AOT/AOT_stimuli/rescaled_final/1465_rv.mp4	0.0	267.6600170135498	
55	247.5784821510315	fix_post	2		12	53.0	2.5	/experiments/knapen_AOT/AOT_stimuli/rescaled_final/1465_rv.mp4	0.0	268.97665214538574	0.10001087188720703
56	247.6784930229187	fix_pre	0		120	54.0	2.5	/experiments/knapen_AOT/AOT_stimuli/rescaled_final/1627_rv.mp4	0.0	269.07666301727295	1.000216007232666
56	247.86207222938538	pulse	0	t		54.0	2.5	/experiments/knapen_AOT/AOT_stimuli/rescaled_final/1627_rv.mp4	0.0	269.2602422237396	
56	248.67870903015137	movie	1		242	54.0	2.5	/experiments/knapen_AOT/AOT_stimuli/rescaled_final/1627_rv.mp4	0.0	270.0768790245056	2.500368118286133
56	249.46220707893372	pulse	1	t		54.0	2.5	/experiments/knapen_AOT/AOT_stimuli/rescaled_final/1627_rv.mp4	0.0	270.86037707328796	
56	251.06289911270142	pulse	1	t		54.0	2.5	/experiments/knapen_AOT/AOT_stimuli/rescaled_final/1627_rv.mp4	0.0	272.46106910705566	
56	251.1790771484375	fix_post	2		12	54.0	2.5	/experiments/knapen_AOT/AOT_stimuli/rescaled_final/1627_rv.mp4	0.0	272.57724714279175	0.09993791580200195
57	251.2790150642395	fix_pre	0		116	55.0	2.5	/experiments/knapen_AOT/AOT_stimuli/rescaled_final/1963_rv.mp4	0.0	272.67718505859375	1.000115156173706
57	252.2791302204132	movie	1		242	55.0	2.5	/experiments/knapen_AOT/AOT_stimuli/rescaled_final/1963_rv.mp4	0.0	273.67730021476746	2.4920380115509033
57	252.6635820865631	pulse	1	t		55.0	2.5	/experiments/knapen_AOT/AOT_stimuli/rescaled_final/1963_rv.mp4	0.0	274.06175208091736	
57	254.2631480693817	pulse	1	t		55.0	2.5	/experiments/knapen_AOT/AOT_stimuli/rescaled_final/1963_rv.mp4	0.0	275.66131806373596	
57	254.7711682319641	fix_post	2		12	55.0	2.5	/experiments/knapen_AOT/AOT_stimuli/rescaled_final/1963_rv.mp4	0.0	276.16933822631836	0.10005593299865723
58	254.87122416496277	fix_pre	0		120	56.0	2.5	blank	1.0	276.269394159317	1.0001800060272217
58	255.86319708824158	pulse	0	t		56.0	2.5	blank	1.0	277.2613670825958	
58	255.87140417099	movie	1		301	56.0	2.5	blank	1.0	277.26957416534424	2.5086510181427
58	257.4633722305298	pulse	1	t		56.0	2.5	blank	1.0	278.86154222488403	
58	258.3800551891327	fix_post	2		12	56.0	2.5	blank	1.0	279.77822518348694	0.10001087188720703
59	258.4800660610199	fix_pre	0		120	57.0	2.5	/experiments/knapen_AOT/AOT_stimuli/rescaled_final/0447_rv.mp4	0.0	279.87823605537415	1.000175952911377
59	259.06381916999817	pulse	0	t		57.0	2.5	/experiments/knapen_AOT/AOT_stimuli/rescaled_final/0447_rv.mp4	0.0	280.4619891643524	
59	259.4802420139313	movie	1		243	57.0	2.5	/experiments/knapen_AOT/AOT_stimuli/rescaled_final/0447_rv.mp4	0.0	280.8784120082855	2.5004920959472656
59	260.66414999961853	pulse	1	t		57.0	2.5	/experiments/knapen_AOT/AOT_stimuli/rescaled_final/0447_rv.mp4	0.0	282.0623199939728	
59	261.98073410987854	fix_post	2		12	57.0	2.5	/experiments/knapen_AOT/AOT_stimuli/rescaled_final/0447_rv.mp4	0.0	283.3789041042328	0.09990191459655762
60	262.0806360244751	fix_pre	0		120	58.0	2.5	/experiments/knapen_AOT/AOT_stimuli/rescaled_final/1179_fw.mp4	0.0	283.47880601882935	1.0001881122589111
60	262.25675106048584	pulse	0	t		58.0	2.5	/experiments/knapen_AOT/AOT_stimuli/rescaled_final/1179_fw.mp4	0.0	283.6549210548401	
60	263.080824136734	movie	1		243	58.0	2.5	/experiments/knapen_AOT/AOT_stimuli/rescaled_final/1179_fw.mp4	0.0	284.47899413108826	2.500308036804199
60	263.85704803466797	pulse	1	t		58.0	2.5	/experiments/knapen_AOT/AOT_stimuli/rescaled_final/1179_fw.mp4	0.0	285.2552180290222	
60	265.4643931388855	pulse	1	t		58.0	2.5	/experiments/knapen_AOT/AOT_stimuli/rescaled_final/1179_fw.mp4	0.0	286.86256313323975	
60	265.5811321735382	fix_post	2		12	58.0	2.5	/experiments/knapen_AOT/AOT_stimuli/rescaled_final/1179_fw.mp4	0.0	286.97930216789246	0.10001087188720703
61	265.6811430454254	fix_pre	0		119	59.0	2.5	/experiments/knapen_AOT/AOT_stimuli/rescaled_final/1276_fw.mp4	0.0	287.07931303977966	0.9918360710144043
61	266.6729791164398	movie	1		243	59.0	2.5	/experiments/knapen_AOT/AOT_stimuli/rescaled_final/1276_fw.mp4	0.0	288.07114911079407	2.5005640983581543
61	267.05769515037537	pulse	1	t		59.0	2.5	/experiments/knapen_AOT/AOT_stimuli/rescaled_final/1276_fw.mp4	0.0	288.4558651447296	
61	268.6567220687866	pulse	1	t		59.0	2.5	/experiments/knapen_AOT/AOT_stimuli/rescaled_final/1276_fw.mp4	0.0	290.05489206314087	
61	269.173543214798	fix_post	2		12	59.0	2.5	/experiments/knapen_AOT/AOT_stimuli/rescaled_final/1276_fw.mp4	0.0	290.5717132091522	0.0998678207397461
62	269.2734110355377	fix_pre	0		119	60.0	2.5	/experiments/knapen_AOT/AOT_stimuli/rescaled_final/0241_fw.mp4	0.0	290.67158102989197	0.9917421340942383
62	270.2569751739502	pulse	0	t		60.0	2.5	/experiments/knapen_AOT/AOT_stimuli/rescaled_final/0241_fw.mp4	0.0	291.65514516830444	
62	270.26515316963196	movie	1		243	60.0	2.5	/experiments/knapen_AOT/AOT_stimuli/rescaled_final/0241_fw.mp4	0.0	291.6633231639862	2.5087690353393555
62	271.86196208000183	pulse	1	t		60.0	2.5	/experiments/knapen_AOT/AOT_stimuli/rescaled_final/0241_fw.mp4	0.0	293.2601320743561	
62	272.7739222049713	fix_post	2		12	60.0	2.5	/experiments/knapen_AOT/AOT_stimuli/rescaled_final/0241_fw.mp4	0.0	294.17209219932556	0.10001182556152344
63	272.87393403053284	fix_pre	0		120	61.0	2.5	/experiments/knapen_AOT/AOT_stimuli/rescaled_final/1406_rv.mp4	0.0	294.2721040248871	1.0001461505889893
63	273.45746421813965	pulse	0	t		61.0	2.5	/experiments/knapen_AOT/AOT_stimuli/rescaled_final/1406_rv.mp4	0.0	294.8556342124939	
63	273.8740801811218	movie	1		242	61.0	2.5	/experiments/knapen_AOT/AOT_stimuli/rescaled_final/1406_rv.mp4	0.0	295.2722501754761	2.5004348754882812
63	275.05792713165283	pulse	1	t		61.0	2.5	/experiments/knapen_AOT/AOT_stimuli/rescaled_final/1406_rv.mp4	0.0	296.4560971260071	
63	276.3745150566101	fix_post	2		12	61.0	2.5	/experiments/knapen_AOT/AOT_stimuli/rescaled_final/1406_rv.mp4	0.0	297.77268505096436	0.09997105598449707
64	276.4744861125946	fix_pre	0		120	62.0	2.5	/experiments/knapen_AOT/AOT_stimuli/rescaled_final/1141_rv.mp4	0.0	297.87265610694885	1.0000920295715332
64	276.6580340862274	pulse	0	t		62.0	2.5	/experiments/knapen_AOT/AOT_stimuli/rescaled_final/1141_rv.mp4	0.0	298.05620408058167	
64	277.47457814216614	movie	1		243	62.0	2.5	/experiments/knapen_AOT/AOT_stimuli/rescaled_final/1141_rv.mp4	0.0	298.8727481365204	2.5005269050598145
64	278.25819420814514	pulse	1	t		62.0	2.5	/experiments/knapen_AOT/AOT_stimuli/rescaled_final/1141_rv.mp4	0.0	299.6563642024994	
64	279.8584520816803	pulse	1	t		62.0	2.5	/experiments/knapen_AOT/AOT_stimuli/rescaled_final/1141_rv.mp4	0.0	301.25662207603455	
64	279.97510504722595	fix_post	2		12	62.0	2.5	/experiments/knapen_AOT/AOT_stimuli/rescaled_final/1141_rv.mp4	0.0	301.3732750415802	0.09990906715393066
65	280.0750141143799	fix_pre	0		120	63.0	2.5	blank	1.0	301.47318410873413	1.0001070499420166
65	281.0751211643219	movie	1		299	63.0	2.5	blank	1.0	302.47329115867615	2.4920239448547363
65	281.4587490558624	pulse	1	t		63.0	2.5	blank	1.0	302.8569190502167	
65	283.058954000473	pulse	1	t		63.0	2.5	blank	1.0	304.45712399482727	
65	283.56714510917664	fix_post	2		12	63.0	2.5	blank	1.0	304.9653151035309	0.10001897811889648
66	283.66716408729553	fix_pre	0		120	64.0	2.5	/experiments/knapen_AOT/AOT_stimuli/rescaled_final/0809_fw.mp4	0.0	305.0653340816498	1.000157117843628
66	284.65917921066284	pulse	0	t		64.0	2.5	/experiments/knapen_AOT/AOT_stimuli/rescaled_final/0809_fw.mp4	0.0	306.0573492050171	
66	284.66732120513916	movie	1		243	64.0	2.5	/experiments/knapen_AOT/AOT_stimuli/rescaled_final/0809_fw.mp4	0.0	306.0654911994934	2.508746862411499
66	286.26407122612	pulse	1	t		64.0	2.5	/experiments/knapen_AOT/AOT_stimuli/rescaled_final/0809_fw.mp4	0.0	307.66224122047424	
66	287.17606806755066	fix_post	2		12	64.0	2.5	/experiments/knapen_AOT/AOT_stimuli/rescaled_final/0809_fw.mp4	0.0	308.5742380619049	0.09998703002929688
67	287.27605509757996	fix_pre	0		120	65.0	2.5	/experiments/knapen_AOT/AOT_stimuli/rescaled_final/0091_rv.mp4	0.0	308.6742250919342	1.0001640319824219
67	287.8595972061157	pulse	0	t		65.0	2.5	/experiments/knapen_AOT/AOT_stimuli/rescaled_final/0091_rv.mp4	0.0	309.25776720046997	
67	288.2762191295624	movie	1		244	65.0	2.5	/experiments/knapen_AOT/AOT_stimuli/rescaled_final/0091_rv.mp4	0.0	309.6743891239166	2.5004379749298096
67	289.4599721431732	pulse	1	t		65.0	2.5	/experiments/knapen_AOT/AOT_stimuli/rescaled_final/0091_rv.mp4	0.0	310.85814213752747	
67	290.7766571044922	fix_post	2		12	65.0	2.5	/experiments/knapen_AOT/AOT_stimuli/rescaled_final/0091_rv.mp4	0.0	312.17482709884644	0.09994697570800781
68	290.8766040802002	fix_pre	0		120	66.0	2.5	/experiments/knapen_AOT/AOT_stimuli/rescaled_final/1374_rv.mp4	0.0	312.27477407455444	1.0002119541168213
68	291.060161113739	pulse	0	t		66.0	2.5	/experiments/knapen_AOT/AOT_stimuli/rescaled_final/1374_rv.mp4	0.0	312.45833110809326	
68	291.876816034317	movie	1		242	66.0	2.5	/experiments/knapen_AOT/AOT_stimuli/rescaled_final/1374_rv.mp4	0.0	313.27498602867126	2.50030517578125
68	292.66031408309937	pulse	1	t		66.0	2.5	/experiments/knapen_AOT/AOT_stimuli/rescaled_final/1374_rv.mp4	0.0	314.0584840774536	
68	294.26051020622253	pulse	1	t		66.0	2.5	/experiments/knapen_AOT/AOT_stimuli/rescaled_final/1374_rv.mp4	0.0	315.6586802005768	
68	294.37712121009827	fix_post	2		12	66.0	2.5	/experiments/knapen_AOT/AOT_stimuli/rescaled_final/1374_rv.mp4	0.0	315.7752912044525	0.09999895095825195
69	294.4771201610565	fix_pre	0		120	67.0	2.5	/experiments/knapen_AOT/AOT_stimuli/rescaled_final/1466_rv.mp4	0.0	315.87529015541077	1.0002498626708984
69	295.4773700237274	movie	1		241	67.0	2.5	/experiments/knapen_AOT/AOT_stimuli/rescaled_final/1466_rv.mp4	0.0	316.87554001808167	2.492027997970581
69	295.861426115036	pulse	1	t		67.0	2.5	/experiments/knapen_AOT/AOT_stimuli/rescaled_final/1466_rv.mp4	0.0	317.25959610939026	
69	297.4611999988556	pulse	1	t		67.0	2.5	/experiments/knapen_AOT/AOT_stimuli/rescaled_final/1466_rv.mp4	0.0	318.85936999320984	
69	297.969398021698	fix_post	2		12	67.0	2.5	/experiments/knapen_AOT/AOT_stimuli/rescaled_final/1466_rv.mp4	0.0	319.36756801605225	0.10001897811889648
70	298.0694169998169	fix_pre	0		120	68.0	2.5	/experiments/knapen_AOT/AOT_stimuli/rescaled_final/0199_rv.mp4	0.0	319.46758699417114	1.0000731945037842
70	299.0613160133362	pulse	0	t		68.0	2.5	/experiments/knapen_AOT/AOT_stimuli/rescaled_final/0199_rv.mp4	0.0	320.45948600769043	
70	299.0694901943207	movie	1		245	68.0	2.5	/experiments/knapen_AOT/AOT_stimuli/rescaled_final/0199_rv.mp4	0.0	320.4676601886749	2.5086870193481445
70	300.6660931110382	pulse	1	t		68.0	2.5	/experiments/knapen_AOT/AOT_stimuli/rescaled_final/0199_rv.mp4	0.0	322.06426310539246	
70	301.5781772136688	fix_post	2		12	68.0	2.5	/experiments/knapen_AOT/AOT_stimuli/rescaled_final/0199_rv.mp4	0.0	322.97634720802307	0.10006594657897949
71	301.6782431602478	fix_pre	0		120	69.0	2.5	/experiments/knapen_AOT/AOT_stimuli/rescaled_final/2015_rv.mp4	0.0	323.07641315460205	1.0001940727233887
71	302.2617812156677	pulse	0	t		69.0	2.5	/experiments/knapen_AOT/AOT_stimuli/rescaled_final/2015_rv.mp4	0.0	323.659951210022	
71	302.6784372329712	movie	1		242	69.0	2.5	/experiments/knapen_AOT/AOT_stimuli/rescaled_final/2015_rv.mp4	0.0	324.07660722732544	2.5003578662872314
71	303.86218214035034	pulse	1	t		69.0	2.5	/experiments/knapen_AOT/AOT_stimuli/rescaled_final/2015_rv.mp4	0.0	325.2603521347046	
71	305.1787950992584	fix_post	2		12	69.0	2.5	/experiments/knapen_AOT/AOT_stimuli/rescaled_final/2015_rv.mp4	0.0	326.57696509361267	0.09996509552001953
72	305.27876019477844	fix_pre	0		120	70.0	2.5	blank	1.0	326.6769301891327	1.0001459121704102
72	305.4622230529785	pulse	0	t		70.0	2.5	blank	1.0	326.86039304733276	
72	306.27890610694885	movie	1		300	70.0	2.5	blank	1.0	327.6770761013031	2.5004160404205322
72	307.0625112056732	pulse	1	t		70.0	2.5	blank	1.0	328.46068120002747	
72	308.6627621650696	pulse	1	t		70.0	2.5	blank	1.0	330.0609321594238	
72	308.7793221473694	fix_post	2		12	70.0	2.5	blank	1.0	330.17749214172363	0.09993290901184082
73	308.8792550563812	fix_pre	0		120	71.0	2.5	/experiments/knapen_AOT/AOT_stimuli/rescaled_final/2053_rv.mp4	0.0	330.2774250507355	1.0002281665802002
73	309.8794832229614	movie	1		242	71.0	2.5	/experiments/knapen_AOT/AOT_stimuli/rescaled_final/2053_rv.mp4	0.0	331.2776532173157	2.492051839828491
73	310.2633650302887	pulse	1	t		71.0	2.5	/experiments/knapen_AOT/AOT_stimuli/rescaled_final/2053_rv.mp4	0.0	331.66153502464294	
73	311.863224029541	pulse	1	t		71.0	2.5	/experiments/knapen_AOT/AOT_stimuli/rescaled_final/2053_rv.mp4	0.0	333.26139402389526	
73	312.3715350627899	fix_post	2		12	71.0	2.5	/experiments/knapen_AOT/AOT_stimuli/rescaled_final/2053_rv.mp4	0.0	333.76970505714417	0.09995913505554199
74	312.47149419784546	fix_pre	0		120	72.0	2.5	/experiments/knapen_AOT/AOT_stimuli/rescaled_final/0139_fw.mp4	0.0	333.8696641921997	1.000121831893921
74	313.46349000930786	pulse	0	t		72.0	2.5	/experiments/knapen_AOT/AOT_stimuli/rescaled_final/0139_fw.mp4	0.0	334.8616600036621	
74	313.4716160297394	movie	1		239	72.0	2.5	/experiments/knapen_AOT/AOT_stimuli/rescaled_final/0139_fw.mp4	0.0	334.8697860240936	2.508723020553589
74	315.0644040107727	pulse	1	t		72.0	2.5	/experiments/knapen_AOT/AOT_stimuli/rescaled_final/0139_fw.mp4	0.0	336.46257400512695	
74	315.98033905029297	fix_post	2		12	72.0	2.5	/experiments/knapen_AOT/AOT_stimuli/rescaled_final/0139_fw.mp4	0.0	337.3785090446472	0.10001301765441895
75	316.0803520679474	fix_pre	0		120	73.0	2.5	/experiments/knapen_AOT/AOT_stimuli/rescaled_final/1280_fw.mp4	0.0	337.47852206230164	1.00018310546875
75	316.663969039917	pulse	0	t		73.0	2.5	/experiments/knapen_AOT/AOT_stimuli/rescaled_final/1280_fw.mp4	0.0	338.06213903427124	
75	317.08053517341614	movie	1		242	73.0	2.5	/experiments/knapen_AOT/AOT_stimuli/rescaled_final/1280_fw.mp4	0.0	338.4787051677704	2.5004239082336426
75	318.2562961578369	pulse	1	t		73.0	2.5	/experiments/knapen_AOT/AOT_stimuli/rescaled_final/1280_fw.mp4	0.0	339.65446615219116	
75	319.5809590816498	fix_post	2		12	73.0	2.5	/experiments/knapen_AOT/AOT_stimuli/rescaled_final/1280_fw.mp4	0.0	340.979129076004	0.09993195533752441
76	319.6808910369873	fix_pre	0		120	74.0	2.5	/experiments/knapen_AOT/AOT_stimuli/rescaled_final/0515_rv.mp4	0.0	341.07906103134155	1.0001211166381836
76	319.86446809768677	pulse	0	t		74.0	2.5	/experiments/knapen_AOT/AOT_stimuli/rescaled_final/0515_rv.mp4	0.0	341.262638092041	
76	320.6810121536255	movie	1		244	74.0	2.5	/experiments/knapen_AOT/AOT_stimuli/rescaled_final/0515_rv.mp4	0.0	342.07918214797974	2.500443935394287
76	321.4564411640167	pulse	1	t		74.0	2.5	/experiments/knapen_AOT/AOT_stimuli/rescaled_final/0515_rv.mp4	0.0	342.854611158371	
76	323.056529045105	pulse	1	t		74.0	2.5	/experiments/knapen_AOT/AOT_stimuli/rescaled_final/0515_rv.mp4	0.0	344.45469903945923	
76	323.1814560890198	fix_post	2		12	74.0	2.5	/experiments/knapen_AOT/AOT_stimuli/rescaled_final/0515_rv.mp4	0.0	344.579626083374	0.100006103515625
77	323.2814621925354	fix_pre	0		120	75.0	2.5	/experiments/knapen_AOT/AOT_stimuli/rescaled_final/1321_fw.mp4	0.0	344.67963218688965	1.0001659393310547
77	324.28162813186646	movie	1		242	75.0	2.5	/experiments/knapen_AOT/AOT_stimuli/rescaled_final/1321_fw.mp4	0.0	345.6797981262207	2.492136001586914
77	324.65679121017456	pulse	1	t		75.0	2.5	/experiments/knapen_AOT/AOT_stimuli/rescaled_final/1321_fw.mp4	0.0	346.0549612045288	
77	326.25715804100037	pulse	1	t		75.0	2.5	/experiments/knapen_AOT/AOT_stimuli/rescaled_final/1321_fw.mp4	0.0	347.6553280353546	
77	326.77376413345337	fix_post	2		12	75.0	2.5	/experiments/knapen_AOT/AOT_stimuli/rescaled_final/1321_fw.mp4	0.0	348.1719341278076	0.0999150276184082
78	326.8736791610718	fix_pre	0		119	76.0	2.5	/experiments/knapen_AOT/AOT_stimuli/rescaled_final/1906_fw.mp4	0.0	348.271849155426	0.9918019771575928
78	327.85725712776184	pulse	0	t		76.0	2.5	/experiments/knapen_AOT/AOT_stimuli/rescaled_final/1906_fw.mp4	0.0	349.2554271221161	
78	327.86548113822937	movie	1		246	76.0	2.5	/experiments/knapen_AOT/AOT_stimuli/rescaled_final/1906_fw.mp4	0.0	349.2636511325836	2.5086700916290283
78	329.45805311203003	pulse	1	t		76.0	2.5	/experiments/knapen_AOT/AOT_stimuli/rescaled_final/1906_fw.mp4	0.0	350.8562231063843	
78	330.3741512298584	fix_post	2		12	76.0	2.5	/experiments/knapen_AOT/AOT_stimuli/rescaled_final/1906_fw.mp4	0.0	351.77232122421265	0.0999917984008789
79	330.4741430282593	fix_pre	0		120	77.0	2.5	blank	1.0	351.8723130226135	1.000244140625
79	331.0577390193939	pulse	0	t		77.0	2.5	blank	1.0	352.45590901374817	
79	331.4743871688843	movie	1		300	77.0	2.5	blank	1.0	352.8725571632385	2.500385046005249
79	332.6580271720886	pulse	1	t		77.0	2.5	blank	1.0	354.05619716644287	
79	333.9747722148895	fix_post	2		12	77.0	2.5	blank	1.0	355.3729422092438	0.09999799728393555
80	334.07477021217346	fix_pre	0		120	78.0	2.5	/experiments/knapen_AOT/AOT_stimuli/rescaled_final/1963_fw.mp4	0.0	355.4729402065277	1.000152826309204
80	334.2582070827484	pulse	0	t		78.0	2.5	/experiments/knapen_AOT/AOT_stimuli/rescaled_final/1963_fw.mp4	0.0	355.65637707710266	
80	335.07492303848267	movie	1		243	78.0	2.5	/experiments/knapen_AOT/AOT_stimuli/rescaled_final/1963_fw.mp4	0.0	356.4730930328369	2.5004570484161377
80	335.85851311683655	pulse	1	t		78.0	2.5	/experiments/knapen_AOT/AOT_stimuli/rescaled_final/1963_fw.mp4	0.0	357.2566831111908	
80	337.45859718322754	pulse	1	t		78.0	2.5	/experiments/knapen_AOT/AOT_stimuli/rescaled_final/1963_fw.mp4	0.0	358.8567671775818	
80	337.5753800868988	fix_post	2		12	78.0	2.5	/experiments/knapen_AOT/AOT_stimuli/rescaled_final/1963_fw.mp4	0.0	358.97355008125305	0.09991312026977539
81	337.6752932071686	fix_pre	0		119	79.0	2.5	/experiments/knapen_AOT/AOT_stimuli/rescaled_final/0437_fw.mp4	0.0	359.0734632015228	0.9917478561401367
81	338.6670410633087	movie	1		242	79.0	2.5	/experiments/knapen_AOT/AOT_stimuli/rescaled_final/0437_fw.mp4	0.0	360.06521105766296	2.5005111694335938
81	339.05899715423584	pulse	1	t		79.0	2.5	/experiments/knapen_AOT/AOT_stimuli/rescaled_final/0437_fw.mp4	0.0	360.4571671485901	
81	340.65920519828796	pulse	1	t		79.0	2.5	/experiments/knapen_AOT/AOT_stimuli/rescaled_final/0437_fw.mp4	0.0	362.0573751926422	
81	341.1675522327423	fix_post	2		12	79.0	2.5	/experiments/knapen_AOT/AOT_stimuli/rescaled_final/0437_fw.mp4	0.0	362.56572222709656	0.0998997688293457
82	341.26745200157166	fix_pre	0		120	80.0	2.5	/experiments/knapen_AOT/AOT_stimuli/rescaled_final/0443_rv.mp4	0.0	362.6656219959259	1.0000951290130615
82	342.2594151496887	pulse	0	t		80.0	2.5	/experiments/knapen_AOT/AOT_stimuli/rescaled_final/0443_rv.mp4	0.0	363.65758514404297	
82	342.2675471305847	movie	1		244	80.0	2.5	/experiments/knapen_AOT/AOT_stimuli/rescaled_final/0443_rv.mp4	0.0	363.66571712493896	2.508800983428955
82	343.8601531982422	pulse	1	t		80.0	2.5	/experiments/knapen_AOT/AOT_stimuli/rescaled_final/0443_rv.mp4	0.0	365.25832319259644	
82	344.7763481140137	fix_post	2		12	80.0	2.5	/experiments/knapen_AOT/AOT_stimuli/rescaled_final/0443_rv.mp4	0.0	366.1745181083679	0.1000220775604248
83	344.8763701915741	fix_pre	0		120	81.0	2.5	/experiments/knapen_AOT/AOT_stimuli/rescaled_final/1911_rv.mp4	0.0	366.27454018592834	1.0001239776611328
83	345.4599812030792	pulse	0	t		81.0	2.5	/experiments/knapen_AOT/AOT_stimuli/rescaled_final/1911_rv.mp4	0.0	366.8581511974335	
83	345.87649416923523	movie	1		242	81.0	2.5	/experiments/knapen_AOT/AOT_stimuli/rescaled_final/1911_rv.mp4	0.0	367.2746641635895	2.5005078315734863
83	347.06026220321655	pulse	1	t		81.0	2.5	/experiments/knapen_AOT/AOT_stimuli/rescaled_final/1911_rv.mp4	0.0	368.4584321975708	
83	348.3770020008087	fix_post	2		12	81.0	2.5	/experiments/knapen_AOT/AOT_stimuli/rescaled_final/1911_rv.mp4	0.0	369.77517199516296	0.09989213943481445
84	348.47689414024353	fix_pre	0		120	82.0	2.5	blank	1.0	369.8750641345978	1.0001029968261719
84	348.66037106513977	pulse	0	t		82.0	2.5	blank	1.0	370.058541059494	
84	349.4769971370697	movie	1		300	82.0	2.5	blank	1.0	370.87516713142395	2.500511884689331
84	350.2606551647186	pulse	1	t		82.0	2.5	blank	1.0	371.6588251590729	
84	351.86097407341003	pulse	1	t		82.0	2.5	blank	1.0	373.2591440677643	
84	351.97750902175903	fix_post	2		12	82.0	2.5	blank	1.0	373.3756790161133	0.09987211227416992
85	352.0773811340332	fix_pre	0		120	83.0	2.5	/experiments/knapen_AOT/AOT_stimuli/rescaled_final/1233_fw.mp4	0.0	373.47555112838745	1.0001699924468994
85	353.0775511264801	movie	1		242	83.0	2.5	/experiments/knapen_AOT/AOT_stimuli/rescaled_final/1233_fw.mp4	0.0	374.47572112083435	2.4921820163726807
85	353.4620552062988	pulse	1	t		83.0	2.5	/experiments/knapen_AOT/AOT_stimuli/rescaled_final/1233_fw.mp4	0.0	374.8602252006531	
85	355.06130814552307	pulse	1	t		83.0	2.5	/experiments/knapen_AOT/AOT_stimuli/rescaled_final/1233_fw.mp4	0.0	376.4594781398773	
85	355.5697331428528	fix_post	2		12	83.0	2.5	/experiments/knapen_AOT/AOT_stimuli/rescaled_final/1233_fw.mp4	0.0	376.96790313720703	0.0998849868774414
87	355.6696181297302	stim	0		1716					377.0677881240845	14.302226066589355
87	356.66162514686584	pulse	0	t						378.0597951412201	
87	358.2618992328644	pulse	0	t						379.6600692272186	
87	359.86208510398865	pulse	0	t						381.2602550983429	
87	361.46226501464844	pulse	0	t						382.8604350090027	
87	363.06252217292786	pulse	0	t						384.4606921672821	
87	364.66284823417664	pulse	0	t						386.0610182285309	
87	366.2630670070648	pulse	0	t						387.66123700141907	
87	367.86325216293335	pulse	0	t						389.2614221572876	
87	369.4634201526642	pulse	0	t						390.86159014701843	
