trial_nr	onset	event_type	phase	response	nr_frames	movie_index	movie_duration	movie_file	blank	onset_abs	duration
0	0.16651678085327148	stim	0		34					18.478180646896362	0.2832961082458496
0	0.4418306350708008	response	0	space						18.75349450111389	
1	0.4498128890991211	stim	0		4248					18.761476755142212	35.41688632965088
1	35.85691261291504	pulse	0	t						54.16857647895813	
1	35.86669921875	stim	1		1716					54.17836308479309	14.307268142700195
1	37.44735813140869	pulse	1	t						55.75902199745178	
1	39.04753041267395	pulse	1	t						57.35919427871704	
1	40.64770197868347	pulse	1	t						58.95936584472656	
1	42.24795937538147	pulse	1	t						60.55962324142456	
1	43.84840750694275	pulse	1	t						62.16007137298584	
1	45.448495388031006	pulse	1	t						63.7601592540741	
1	47.04192876815796	pulse	1	t						65.35359263420105	
1	48.64081692695618	pulse	1	t						66.95248079299927	
2	50.173967361450195	fix_pre	0		9	0.0	2.5	/experiments/Knapen_AOT/AOT_stimuli/rescaled_final/1524_fw.mp4	0.0	68.48563122749329	0.09181451797485352
2	50.24116539955139	pulse	0	t		0.0	2.5	/experiments/Knapen_AOT/AOT_stimuli/rescaled_final/1524_fw.mp4	0.0	68.55282926559448	
2	50.26578187942505	movie	1		269	0.0	2.5	/experiments/Knapen_AOT/AOT_stimuli/rescaled_final/1524_fw.mp4	0.0	68.57744574546814	2.491926431655884
2	51.8413360118866	pulse	1	t		0.0	2.5	/experiments/Knapen_AOT/AOT_stimuli/rescaled_final/1524_fw.mp4	0.0	70.15299987792969	
2	52.75770831108093	fix_post	2		12	0.0	2.5	/experiments/Knapen_AOT/AOT_stimuli/rescaled_final/1524_fw.mp4	0.0	71.06937217712402	0.10000181198120117
3	52.857710123062134	fix_pre	0		120	1.0	2.5	/experiments/Knapen_AOT/AOT_stimuli/rescaled_final/0019_fw.mp4	0.0	71.16937398910522	1.0084667205810547
3	53.44131064414978	pulse	0	t		1.0	2.5	/experiments/Knapen_AOT/AOT_stimuli/rescaled_final/0019_fw.mp4	0.0	71.75297451019287	
3	53.86617684364319	movie	1		288	1.0	2.5	/experiments/Knapen_AOT/AOT_stimuli/rescaled_final/0019_fw.mp4	0.0	72.17784070968628	2.492051839828491
3	55.041651487350464	pulse	1	t		1.0	2.5	/experiments/Knapen_AOT/AOT_stimuli/rescaled_final/0019_fw.mp4	0.0	73.35331535339355	
3	56.35822868347168	fix_post	2		12	1.0	2.5	/experiments/Knapen_AOT/AOT_stimuli/rescaled_final/0019_fw.mp4	0.0	74.66989254951477	0.10001373291015625
4	56.458242416381836	fix_pre	0		120	2.0	2.5	/experiments/Knapen_AOT/AOT_stimuli/rescaled_final/1815_rv.mp4	0.0	74.76990628242493	1.008469581604004
4	56.641998291015625	pulse	0	t		2.0	2.5	/experiments/Knapen_AOT/AOT_stimuli/rescaled_final/1815_rv.mp4	0.0	74.95366215705872	
4	57.46671199798584	movie	1		285	2.0	2.5	/experiments/Knapen_AOT/AOT_stimuli/rescaled_final/1815_rv.mp4	0.0	75.77837586402893	2.492090940475464
4	58.24226522445679	pulse	1	t		2.0	2.5	/experiments/Knapen_AOT/AOT_stimuli/rescaled_final/1815_rv.mp4	0.0	76.55392909049988	
4	59.842190742492676	pulse	1	t		2.0	2.5	/experiments/Knapen_AOT/AOT_stimuli/rescaled_final/1815_rv.mp4	0.0	78.15385460853577	
4	59.958802938461304	fix_post	2		12	2.0	2.5	/experiments/Knapen_AOT/AOT_stimuli/rescaled_final/1815_rv.mp4	0.0	78.2704668045044	0.1000056266784668
5	60.05880856513977	fix_pre	0		120	3.0	2.5	/experiments/Knapen_AOT/AOT_stimuli/rescaled_final/0820_fw.mp4	0.0	78.37047243118286	1.0084669589996338
5	61.067275524139404	movie	1		281	3.0	2.5	/experiments/Knapen_AOT/AOT_stimuli/rescaled_final/0820_fw.mp4	0.0	79.3789393901825	2.492037057876587
5	61.44253993034363	pulse	1	t		3.0	2.5	/experiments/Knapen_AOT/AOT_stimuli/rescaled_final/0820_fw.mp4	0.0	79.75420379638672	
5	63.042691469192505	pulse	1	t		3.0	2.5	/experiments/Knapen_AOT/AOT_stimuli/rescaled_final/0820_fw.mp4	0.0	81.3543553352356	
5	63.55931258201599	fix_post	2		12	3.0	2.5	/experiments/Knapen_AOT/AOT_stimuli/rescaled_final/0820_fw.mp4	0.0	81.87097644805908	0.10004639625549316
6	63.659358978271484	fix_pre	0		119	4.0	2.5	/experiments/Knapen_AOT/AOT_stimuli/rescaled_final/0647_rv.mp4	0.0	81.97102284431458	1.000119924545288
6	64.64296889305115	pulse	0	t		4.0	2.5	/experiments/Knapen_AOT/AOT_stimuli/rescaled_final/0647_rv.mp4	0.0	82.95463275909424	
6	64.65947890281677	movie	1		281	4.0	2.5	/experiments/Knapen_AOT/AOT_stimuli/rescaled_final/0647_rv.mp4	0.0	82.97114276885986	2.5004801750183105
6	66.24318218231201	pulse	1	t		4.0	2.5	/experiments/Knapen_AOT/AOT_stimuli/rescaled_final/0647_rv.mp4	0.0	84.5548460483551	
6	67.15995907783508	fix_post	2		12	4.0	2.5	/experiments/Knapen_AOT/AOT_stimuli/rescaled_final/0647_rv.mp4	0.0	85.47162294387817	0.09993290901184082
7	67.25989198684692	fix_pre	0		120	5.0	2.5	blank	1.0	85.57155585289001	1.0001451969146729
7	67.84350109100342	pulse	0	t		5.0	2.5	blank	1.0	86.15516495704651	
7	68.2600371837616	movie	1		300	5.0	2.5	blank	1.0	86.57170104980469	2.500352621078491
7	69.44374060630798	pulse	1	t		5.0	2.5	blank	1.0	87.75540447235107	
7	70.76038980484009	fix_post	2		12	5.0	2.5	blank	1.0	89.07205367088318	0.10002946853637695
8	70.86041927337646	fix_pre	0		120	6.0	2.5	/experiments/Knapen_AOT/AOT_stimuli/rescaled_final/1072_rv.mp4	0.0	89.17208313941956	1.0085906982421875
8	71.04400110244751	pulse	0	t		6.0	2.5	/experiments/Knapen_AOT/AOT_stimuli/rescaled_final/1072_rv.mp4	0.0	89.3556649684906	
8	71.86900997161865	movie	1		288	6.0	2.5	/experiments/Knapen_AOT/AOT_stimuli/rescaled_final/1072_rv.mp4	0.0	90.18067383766174	2.491936445236206
8	72.64208674430847	pulse	1	t		6.0	2.5	/experiments/Knapen_AOT/AOT_stimuli/rescaled_final/1072_rv.mp4	0.0	90.95375061035156	
8	74.24446082115173	pulse	1	t		6.0	2.5	/experiments/Knapen_AOT/AOT_stimuli/rescaled_final/1072_rv.mp4	0.0	92.55612468719482	
8	74.36094641685486	fix_post	2		12	6.0	2.5	/experiments/Knapen_AOT/AOT_stimuli/rescaled_final/1072_rv.mp4	0.0	92.67261028289795	0.10002565383911133
9	74.46097207069397	fix_pre	0		120	7.0	2.5	/experiments/Knapen_AOT/AOT_stimuli/rescaled_final/1002_rv.mp4	0.0	92.77263593673706	1.0084915161132812
9	75.46946358680725	movie	1		283	7.0	2.5	/experiments/Knapen_AOT/AOT_stimuli/rescaled_final/1002_rv.mp4	0.0	93.78112745285034	2.4921019077301025
9	75.8427140712738	pulse	1	t		7.0	2.5	/experiments/Knapen_AOT/AOT_stimuli/rescaled_final/1002_rv.mp4	0.0	94.1543779373169	
9	77.44430708885193	pulse	1	t		7.0	2.5	/experiments/Knapen_AOT/AOT_stimuli/rescaled_final/1002_rv.mp4	0.0	95.75597095489502	
9	77.96156549453735	fix_post	2		12	7.0	2.5	/experiments/Knapen_AOT/AOT_stimuli/rescaled_final/1002_rv.mp4	0.0	96.27322936058044	0.09993839263916016
10	78.06150388717651	fix_pre	0		119	8.0	2.5	/experiments/Knapen_AOT/AOT_stimuli/rescaled_final/1980_fw.mp4	0.0	96.3731677532196	1.0001747608184814
10	79.04513740539551	pulse	0	t		8.0	2.5	/experiments/Knapen_AOT/AOT_stimuli/rescaled_final/1980_fw.mp4	0.0	97.3568012714386	
10	79.061678647995	movie	1		286	8.0	2.5	/experiments/Knapen_AOT/AOT_stimuli/rescaled_final/1980_fw.mp4	0.0	97.37334251403809	2.500340223312378
10	80.6437611579895	pulse	1	t		8.0	2.5	/experiments/Knapen_AOT/AOT_stimuli/rescaled_final/1980_fw.mp4	0.0	98.95542502403259	
10	81.56201887130737	fix_post	2		12	8.0	2.5	/experiments/Knapen_AOT/AOT_stimuli/rescaled_final/1980_fw.mp4	0.0	99.87368273735046	0.10001921653747559
11	81.66203808784485	fix_pre	0		120	9.0	2.5	/experiments/Knapen_AOT/AOT_stimuli/rescaled_final/1793_rv.mp4	0.0	99.97370195388794	1.0085153579711914
11	82.2455701828003	pulse	0	t		9.0	2.5	/experiments/Knapen_AOT/AOT_stimuli/rescaled_final/1793_rv.mp4	0.0	100.55723404884338	
11	82.67055344581604	movie	1		285	9.0	2.5	/experiments/Knapen_AOT/AOT_stimuli/rescaled_final/1793_rv.mp4	0.0	100.98221731185913	2.4920313358306885
11	83.84626150131226	pulse	1	t		9.0	2.5	/experiments/Knapen_AOT/AOT_stimuli/rescaled_final/1793_rv.mp4	0.0	102.15792536735535	
11	85.16258478164673	fix_post	2		12	9.0	2.5	/experiments/Knapen_AOT/AOT_stimuli/rescaled_final/1793_rv.mp4	0.0	103.47424864768982	0.09999895095825195
12	85.26258373260498	fix_pre	0		120	10.0	2.5	/experiments/Knapen_AOT/AOT_stimuli/rescaled_final/1815_rv.mp4	0.0	103.57424759864807	1.0084965229034424
12	85.44618201255798	pulse	0	t		10.0	2.5	/experiments/Knapen_AOT/AOT_stimuli/rescaled_final/1815_rv.mp4	0.0	103.75784587860107	
12	86.27108025550842	movie	1		287	10.0	2.5	/experiments/Knapen_AOT/AOT_stimuli/rescaled_final/1815_rv.mp4	0.0	104.58274412155151	2.4920456409454346
12	87.04548001289368	pulse	1	t		10.0	2.5	/experiments/Knapen_AOT/AOT_stimuli/rescaled_final/1815_rv.mp4	0.0	105.35714387893677	
12	88.64445757865906	pulse	1	t		10.0	2.5	/experiments/Knapen_AOT/AOT_stimuli/rescaled_final/1815_rv.mp4	0.0	106.95612144470215	
12	88.76312589645386	fix_post	2		12	10.0	2.5	/experiments/Knapen_AOT/AOT_stimuli/rescaled_final/1815_rv.mp4	0.0	107.07478976249695	0.10011863708496094
13	88.86324453353882	fix_pre	0		120	11.0	2.5	/experiments/Knapen_AOT/AOT_stimuli/rescaled_final/0627_fw.mp4	0.0	107.17490839958191	1.008368968963623
13	89.87161350250244	movie	1		290	11.0	2.5	/experiments/Knapen_AOT/AOT_stimuli/rescaled_final/0627_fw.mp4	0.0	108.18327736854553	2.4920499324798584
13	90.24520826339722	pulse	1	t		11.0	2.5	/experiments/Knapen_AOT/AOT_stimuli/rescaled_final/0627_fw.mp4	0.0	108.55687212944031	
13	91.8450334072113	pulse	1	t		11.0	2.5	/experiments/Knapen_AOT/AOT_stimuli/rescaled_final/0627_fw.mp4	0.0	110.1566972732544	
13	92.3636634349823	fix_post	2		12	11.0	2.5	/experiments/Knapen_AOT/AOT_stimuli/rescaled_final/0627_fw.mp4	0.0	110.67532730102539	0.09999299049377441
14	92.46365642547607	fix_pre	0		119	12.0	2.5	blank	1.0	110.77532029151917	0.9918167591094971
14	93.44728755950928	pulse	0	t		12.0	2.5	blank	1.0	111.75895142555237	
14	93.45547318458557	movie	1		301	12.0	2.5	blank	1.0	111.76713705062866	2.5087478160858154
14	95.04786944389343	pulse	1	t		12.0	2.5	blank	1.0	113.35953330993652	
14	95.96422100067139	fix_post	2		12	12.0	2.5	blank	1.0	114.27588486671448	0.10001182556152344
15	96.06423282623291	fix_pre	0		120	13.0	2.5	/experiments/Knapen_AOT/AOT_stimuli/rescaled_final/0022_rv.mp4	0.0	114.375896692276	1.0084576606750488
15	96.64785575866699	pulse	0	t		13.0	2.5	/experiments/Knapen_AOT/AOT_stimuli/rescaled_final/0022_rv.mp4	0.0	114.95951962471008	
15	97.07269048690796	movie	1		290	13.0	2.5	/experiments/Knapen_AOT/AOT_stimuli/rescaled_final/0022_rv.mp4	0.0	115.38435435295105	2.492037296295166
15	98.24619030952454	pulse	1	t		13.0	2.5	/experiments/Knapen_AOT/AOT_stimuli/rescaled_final/0022_rv.mp4	0.0	116.55785417556763	
15	99.56472778320312	fix_post	2		12	13.0	2.5	/experiments/Knapen_AOT/AOT_stimuli/rescaled_final/0022_rv.mp4	0.0	117.87639164924622	0.10014557838439941
16	99.66487336158752	fix_pre	0		120	14.0	2.5	/experiments/Knapen_AOT/AOT_stimuli/rescaled_final/1794_rv.mp4	0.0	117.97653722763062	1.008394718170166
16	99.84830856323242	pulse	0	t		14.0	2.5	/experiments/Knapen_AOT/AOT_stimuli/rescaled_final/1794_rv.mp4	0.0	118.15997242927551	
16	100.67326807975769	movie	1		285	14.0	2.5	/experiments/Knapen_AOT/AOT_stimuli/rescaled_final/1794_rv.mp4	0.0	118.98493194580078	2.4919984340667725
16	101.4465982913971	pulse	1	t		14.0	2.5	/experiments/Knapen_AOT/AOT_stimuli/rescaled_final/1794_rv.mp4	0.0	119.75826215744019	
16	103.04881572723389	pulse	1	t		14.0	2.5	/experiments/Knapen_AOT/AOT_stimuli/rescaled_final/1794_rv.mp4	0.0	121.36047959327698	
16	103.16526651382446	fix_post	2		12	14.0	2.5	/experiments/Knapen_AOT/AOT_stimuli/rescaled_final/1794_rv.mp4	0.0	121.47693037986755	0.10002279281616211
17	103.26528930664062	fix_pre	0		120	15.0	2.5	/experiments/Knapen_AOT/AOT_stimuli/rescaled_final/1918_fw.mp4	0.0	121.57695317268372	1.0085208415985107
17	104.27381014823914	movie	1		277	15.0	2.5	/experiments/Knapen_AOT/AOT_stimuli/rescaled_final/1918_fw.mp4	0.0	122.58547401428223	2.4920120239257812
17	104.64721965789795	pulse	1	t		15.0	2.5	/experiments/Knapen_AOT/AOT_stimuli/rescaled_final/1918_fw.mp4	0.0	122.95888352394104	
17	106.24887323379517	pulse	1	t		15.0	2.5	/experiments/Knapen_AOT/AOT_stimuli/rescaled_final/1918_fw.mp4	0.0	124.56053709983826	
17	106.76582217216492	fix_post	2		12	15.0	2.5	/experiments/Knapen_AOT/AOT_stimuli/rescaled_final/1918_fw.mp4	0.0	125.07748603820801	0.10001349449157715
18	106.8658356666565	fix_pre	0		118	16.0	2.5	/experiments/Knapen_AOT/AOT_stimuli/rescaled_final/1574_fw.mp4	0.0	125.17749953269958	0.9919834136962891
18	107.84157037734985	pulse	0	t		16.0	2.5	/experiments/Knapen_AOT/AOT_stimuli/rescaled_final/1574_fw.mp4	0.0	126.15323424339294	
18	107.85781908035278	movie	1		281	16.0	2.5	/experiments/Knapen_AOT/AOT_stimuli/rescaled_final/1574_fw.mp4	0.0	126.16948294639587	2.5002009868621826
18	109.44164395332336	pulse	1	t		16.0	2.5	/experiments/Knapen_AOT/AOT_stimuli/rescaled_final/1574_fw.mp4	0.0	127.75330781936646	
18	110.35802006721497	fix_post	2		12	16.0	2.5	/experiments/Knapen_AOT/AOT_stimuli/rescaled_final/1574_fw.mp4	0.0	128.66968393325806	0.10002255439758301
19	110.45804262161255	fix_pre	0		120	17.0	2.5	/experiments/Knapen_AOT/AOT_stimuli/rescaled_final/0057_rv.mp4	0.0	128.76970648765564	1.0085475444793701
19	111.04172849655151	pulse	0	t		17.0	2.5	/experiments/Knapen_AOT/AOT_stimuli/rescaled_final/0057_rv.mp4	0.0	129.3533923625946	
19	111.46659016609192	movie	1		285	17.0	2.5	/experiments/Knapen_AOT/AOT_stimuli/rescaled_final/0057_rv.mp4	0.0	129.778254032135	2.4919660091400146
19	112.64195513725281	pulse	1	t		17.0	2.5	/experiments/Knapen_AOT/AOT_stimuli/rescaled_final/0057_rv.mp4	0.0	130.9536190032959	
19	113.95855617523193	fix_post	2		12	17.0	2.5	/experiments/Knapen_AOT/AOT_stimuli/rescaled_final/0057_rv.mp4	0.0	132.27022004127502	0.10003805160522461
20	114.05859422683716	fix_pre	0		120	18.0	2.5	/experiments/Knapen_AOT/AOT_stimuli/rescaled_final/0809_fw.mp4	0.0	132.37025809288025	1.0085124969482422
20	114.24208188056946	pulse	0	t		18.0	2.5	/experiments/Knapen_AOT/AOT_stimuli/rescaled_final/0809_fw.mp4	0.0	132.55374574661255	
20	115.0671067237854	movie	1		283	18.0	2.5	/experiments/Knapen_AOT/AOT_stimuli/rescaled_final/0809_fw.mp4	0.0	133.3787705898285	2.4921176433563232
20	115.8423388004303	pulse	1	t		18.0	2.5	/experiments/Knapen_AOT/AOT_stimuli/rescaled_final/0809_fw.mp4	0.0	134.1540026664734	
20	117.44303774833679	pulse	1	t		18.0	2.5	/experiments/Knapen_AOT/AOT_stimuli/rescaled_final/0809_fw.mp4	0.0	135.75470161437988	
20	117.55922436714172	fix_post	2		12	18.0	2.5	/experiments/Knapen_AOT/AOT_stimuli/rescaled_final/0809_fw.mp4	0.0	135.87088823318481	0.0999460220336914
21	117.65917038917542	fix_pre	0		120	19.0	2.5	/experiments/Knapen_AOT/AOT_stimuli/rescaled_final/1738_rv.mp4	0.0	135.9708342552185	1.0084774494171143
21	118.66764783859253	movie	1		277	19.0	2.5	/experiments/Knapen_AOT/AOT_stimuli/rescaled_final/1738_rv.mp4	0.0	136.97931170463562	2.4920473098754883
21	119.04284429550171	pulse	1	t		19.0	2.5	/experiments/Knapen_AOT/AOT_stimuli/rescaled_final/1738_rv.mp4	0.0	137.3545081615448	
21	120.64307498931885	pulse	1	t		19.0	2.5	/experiments/Knapen_AOT/AOT_stimuli/rescaled_final/1738_rv.mp4	0.0	138.95473885536194	
21	121.15969514846802	fix_post	2		12	19.0	2.5	/experiments/Knapen_AOT/AOT_stimuli/rescaled_final/1738_rv.mp4	0.0	139.4713590145111	0.09999966621398926
22	121.259694814682	fix_pre	0		119	20.0	2.5	blank	1.0	139.5713586807251	0.9917843341827393
22	122.2433078289032	pulse	0	t		20.0	2.5	blank	1.0	140.5549716949463	
22	122.25147914886475	movie	1		301	20.0	2.5	blank	1.0	140.56314301490784	2.5087125301361084
22	123.84375333786011	pulse	1	t		20.0	2.5	blank	1.0	142.1554172039032	
22	124.76019167900085	fix_post	2		12	20.0	2.5	blank	1.0	143.07185554504395	0.10014557838439941
23	124.86033725738525	fix_pre	0		120	21.0	2.5	/experiments/Knapen_AOT/AOT_stimuli/rescaled_final/1329_rv.mp4	0.0	143.17200112342834	1.0083727836608887
23	125.44399571418762	pulse	0	t		21.0	2.5	/experiments/Knapen_AOT/AOT_stimuli/rescaled_final/1329_rv.mp4	0.0	143.7556595802307	
23	125.86871004104614	movie	1		271	21.0	2.5	/experiments/Knapen_AOT/AOT_stimuli/rescaled_final/1329_rv.mp4	0.0	144.18037390708923	2.4920217990875244
23	127.04421305656433	pulse	1	t		21.0	2.5	/experiments/Knapen_AOT/AOT_stimuli/rescaled_final/1329_rv.mp4	0.0	145.35587692260742	
23	128.36073184013367	fix_post	2		12	21.0	2.5	/experiments/Knapen_AOT/AOT_stimuli/rescaled_final/1329_rv.mp4	0.0	146.67239570617676	0.10002374649047852
24	128.46075558662415	fix_pre	0		120	22.0	2.5	/experiments/Knapen_AOT/AOT_stimuli/rescaled_final/0143_rv.mp4	0.0	146.77241945266724	1.008573293685913
24	128.6442687511444	pulse	0	t		22.0	2.5	/experiments/Knapen_AOT/AOT_stimuli/rescaled_final/0143_rv.mp4	0.0	146.9559326171875	
24	129.46932888031006	movie	1		285	22.0	2.5	/experiments/Knapen_AOT/AOT_stimuli/rescaled_final/0143_rv.mp4	0.0	147.78099274635315	2.491947650909424
24	130.2424738407135	pulse	1	t		22.0	2.5	/experiments/Knapen_AOT/AOT_stimuli/rescaled_final/0143_rv.mp4	0.0	148.5541377067566	
24	131.84320378303528	pulse	1	t		22.0	2.5	/experiments/Knapen_AOT/AOT_stimuli/rescaled_final/0143_rv.mp4	0.0	150.15486764907837	
24	131.96127653121948	fix_post	2		12	22.0	2.5	/experiments/Knapen_AOT/AOT_stimuli/rescaled_final/0143_rv.mp4	0.0	150.27294039726257	0.10007357597351074
25	132.061350107193	fix_pre	0		120	23.0	2.5	/experiments/Knapen_AOT/AOT_stimuli/rescaled_final/0984_fw.mp4	0.0	150.37301397323608	1.0084593296051025
25	133.0698094367981	movie	1		286	23.0	2.5	/experiments/Knapen_AOT/AOT_stimuli/rescaled_final/0984_fw.mp4	0.0	151.3814733028412	2.4921107292175293
25	133.44356322288513	pulse	1	t		23.0	2.5	/experiments/Knapen_AOT/AOT_stimuli/rescaled_final/0984_fw.mp4	0.0	151.75522708892822	
25	135.04304313659668	pulse	1	t		23.0	2.5	/experiments/Knapen_AOT/AOT_stimuli/rescaled_final/0984_fw.mp4	0.0	153.35470700263977	
25	135.56192016601562	fix_post	2		12	23.0	2.5	/experiments/Knapen_AOT/AOT_stimuli/rescaled_final/0984_fw.mp4	0.0	153.87358403205872	0.09992671012878418
26	135.6618468761444	fix_pre	0		119	24.0	2.5	/experiments/Knapen_AOT/AOT_stimuli/rescaled_final/1397_fw.mp4	0.0	153.9735107421875	1.000178575515747
26	136.6454417705536	pulse	0	t		24.0	2.5	/experiments/Knapen_AOT/AOT_stimuli/rescaled_final/1397_fw.mp4	0.0	154.95710563659668	
26	136.66202545166016	movie	1		265	24.0	2.5	/experiments/Knapen_AOT/AOT_stimuli/rescaled_final/1397_fw.mp4	0.0	154.97368931770325	2.50034236907959
26	138.244304895401	pulse	1	t		24.0	2.5	/experiments/Knapen_AOT/AOT_stimuli/rescaled_final/1397_fw.mp4	0.0	156.5559687614441	
26	139.16236782073975	fix_post	2		12	24.0	2.5	/experiments/Knapen_AOT/AOT_stimuli/rescaled_final/1397_fw.mp4	0.0	157.47403168678284	0.10000920295715332
27	139.2623770236969	fix_pre	0		120	25.0	2.5	/experiments/Knapen_AOT/AOT_stimuli/rescaled_final/0150_fw.mp4	0.0	157.57404088974	1.008538007736206
27	139.84595942497253	pulse	0	t		25.0	2.5	/experiments/Knapen_AOT/AOT_stimuli/rescaled_final/0150_fw.mp4	0.0	158.15762329101562	
27	140.2709150314331	movie	1		286	25.0	2.5	/experiments/Knapen_AOT/AOT_stimuli/rescaled_final/0150_fw.mp4	0.0	158.5825788974762	2.4921910762786865
27	141.4444899559021	pulse	1	t		25.0	2.5	/experiments/Knapen_AOT/AOT_stimuli/rescaled_final/0150_fw.mp4	0.0	159.7561538219452	
27	142.7631061077118	fix_post	2		12	25.0	2.5	/experiments/Knapen_AOT/AOT_stimuli/rescaled_final/0150_fw.mp4	0.0	161.07476997375488	0.09985065460205078
28	142.86295676231384	fix_pre	0		120	26.0	2.5	/experiments/Knapen_AOT/AOT_stimuli/rescaled_final/0931_rv.mp4	0.0	161.17462062835693	1.0085084438323975
28	143.04679536819458	pulse	0	t		26.0	2.5	/experiments/Knapen_AOT/AOT_stimuli/rescaled_final/0931_rv.mp4	0.0	161.35845923423767	
28	143.87146520614624	movie	1		282	26.0	2.5	/experiments/Knapen_AOT/AOT_stimuli/rescaled_final/0931_rv.mp4	0.0	162.18312907218933	2.4919779300689697
28	144.64501762390137	pulse	1	t		26.0	2.5	/experiments/Knapen_AOT/AOT_stimuli/rescaled_final/0931_rv.mp4	0.0	162.95668148994446	
28	146.24510025978088	pulse	1	t		26.0	2.5	/experiments/Knapen_AOT/AOT_stimuli/rescaled_final/0931_rv.mp4	0.0	164.55676412582397	
28	146.3634431362152	fix_post	2		12	26.0	2.5	/experiments/Knapen_AOT/AOT_stimuli/rescaled_final/0931_rv.mp4	0.0	164.6751070022583	0.10001969337463379
29	146.46346282958984	fix_pre	0		120	27.0	2.5	blank	1.0	164.77512669563293	1.0001802444458008
29	147.46364307403564	movie	1		300	27.0	2.5	blank	1.0	165.77530694007874	2.500384569168091
29	147.8471713066101	pulse	1	t		27.0	2.5	blank	1.0	166.1588351726532	
29	149.44739270210266	pulse	1	t		27.0	2.5	blank	1.0	167.75905656814575	
29	149.96402764320374	fix_post	2		12	27.0	2.5	blank	1.0	168.27569150924683	0.09995341300964355
30	150.06398105621338	fix_pre	0		119	28.0	2.5	/experiments/Knapen_AOT/AOT_stimuli/rescaled_final/0564_rv.mp4	0.0	168.37564492225647	1.0003368854522705
30	151.04761815071106	pulse	0	t		28.0	2.5	/experiments/Knapen_AOT/AOT_stimuli/rescaled_final/0564_rv.mp4	0.0	169.35928201675415	
30	151.06431794166565	movie	1		287	28.0	2.5	/experiments/Knapen_AOT/AOT_stimuli/rescaled_final/0564_rv.mp4	0.0	169.37598180770874	2.500208854675293
30	152.64640855789185	pulse	1	t		28.0	2.5	/experiments/Knapen_AOT/AOT_stimuli/rescaled_final/0564_rv.mp4	0.0	170.95807242393494	
30	153.56452679634094	fix_post	2		12	28.0	2.5	/experiments/Knapen_AOT/AOT_stimuli/rescaled_final/0564_rv.mp4	0.0	171.87619066238403	0.10008955001831055
31	153.66461634635925	fix_pre	0		120	29.0	2.5	/experiments/Knapen_AOT/AOT_stimuli/rescaled_final/1037_rv.mp4	0.0	171.97628021240234	1.0084197521209717
31	154.24835443496704	pulse	0	t		29.0	2.5	/experiments/Knapen_AOT/AOT_stimuli/rescaled_final/1037_rv.mp4	0.0	172.56001830101013	
31	154.67303609848022	movie	1		288	29.0	2.5	/experiments/Knapen_AOT/AOT_stimuli/rescaled_final/1037_rv.mp4	0.0	172.98469996452332	2.492027759552002
31	155.84728479385376	pulse	1	t		29.0	2.5	/experiments/Knapen_AOT/AOT_stimuli/rescaled_final/1037_rv.mp4	0.0	174.15894865989685	
31	157.16506385803223	fix_post	2		12	29.0	2.5	/experiments/Knapen_AOT/AOT_stimuli/rescaled_final/1037_rv.mp4	0.0	175.47672772407532	0.10003781318664551
32	157.26510167121887	fix_pre	0		120	30.0	2.5	/experiments/Knapen_AOT/AOT_stimuli/rescaled_final/2153_fw.mp4	0.0	175.57676553726196	1.0084924697875977
32	157.44861245155334	pulse	0	t		30.0	2.5	/experiments/Knapen_AOT/AOT_stimuli/rescaled_final/2153_fw.mp4	0.0	175.76027631759644	
32	158.27359414100647	movie	1		281	30.0	2.5	/experiments/Knapen_AOT/AOT_stimuli/rescaled_final/2153_fw.mp4	0.0	176.58525800704956	2.492037534713745
32	159.04688000679016	pulse	1	t		30.0	2.5	/experiments/Knapen_AOT/AOT_stimuli/rescaled_final/2153_fw.mp4	0.0	177.35854387283325	
32	160.64699244499207	pulse	1	t		30.0	2.5	/experiments/Knapen_AOT/AOT_stimuli/rescaled_final/2153_fw.mp4	0.0	178.95865631103516	
32	160.76563167572021	fix_post	2		12	30.0	2.5	/experiments/Knapen_AOT/AOT_stimuli/rescaled_final/2153_fw.mp4	0.0	179.0772955417633	0.10003328323364258
33	160.86566495895386	fix_pre	0		120	31.0	2.5	/experiments/Knapen_AOT/AOT_stimuli/rescaled_final/1629_fw.mp4	0.0	179.17732882499695	1.0085160732269287
33	161.8741810321808	movie	1		277	31.0	2.5	/experiments/Knapen_AOT/AOT_stimuli/rescaled_final/1629_fw.mp4	0.0	180.18584489822388	2.491971254348755
33	162.24877953529358	pulse	1	t		31.0	2.5	/experiments/Knapen_AOT/AOT_stimuli/rescaled_final/1629_fw.mp4	0.0	180.56044340133667	
33	163.8476345539093	pulse	1	t		31.0	2.5	/experiments/Knapen_AOT/AOT_stimuli/rescaled_final/1629_fw.mp4	0.0	182.1592984199524	
33	164.36615228652954	fix_post	2		12	31.0	2.5	/experiments/Knapen_AOT/AOT_stimuli/rescaled_final/1629_fw.mp4	0.0	182.67781615257263	0.10001230239868164
34	164.46616458892822	fix_pre	0		119	32.0	2.5	/experiments/Knapen_AOT/AOT_stimuli/rescaled_final/2143_rv.mp4	0.0	182.7778284549713	1.0003085136413574
34	165.4420027732849	pulse	0	t		32.0	2.5	/experiments/Knapen_AOT/AOT_stimuli/rescaled_final/2143_rv.mp4	0.0	183.753666639328	
34	165.46647310256958	movie	1		289	32.0	2.5	/experiments/Knapen_AOT/AOT_stimuli/rescaled_final/2143_rv.mp4	0.0	183.77813696861267	2.5002129077911377
34	167.04199886322021	pulse	1	t		32.0	2.5	/experiments/Knapen_AOT/AOT_stimuli/rescaled_final/2143_rv.mp4	0.0	185.3536627292633	
34	167.96668601036072	fix_post	2		12	32.0	2.5	/experiments/Knapen_AOT/AOT_stimuli/rescaled_final/2143_rv.mp4	0.0	186.2783498764038	0.10001635551452637
35	168.06670236587524	fix_pre	0		120	33.0	2.5	/experiments/Knapen_AOT/AOT_stimuli/rescaled_final/0737_rv.mp4	0.0	186.37836623191833	1.0085656642913818
35	168.64202070236206	pulse	0	t		33.0	2.5	/experiments/Knapen_AOT/AOT_stimuli/rescaled_final/0737_rv.mp4	0.0	186.95368456840515	
35	169.07526803016663	movie	1		265	33.0	2.5	/experiments/Knapen_AOT/AOT_stimuli/rescaled_final/0737_rv.mp4	0.0	187.38693189620972	2.4920201301574707
35	170.24221658706665	pulse	1	t		33.0	2.5	/experiments/Knapen_AOT/AOT_stimuli/rescaled_final/0737_rv.mp4	0.0	188.55388045310974	
35	171.5672881603241	fix_post	2		12	33.0	2.5	/experiments/Knapen_AOT/AOT_stimuli/rescaled_final/0737_rv.mp4	0.0	189.8789520263672	0.09997892379760742
36	171.6672670841217	fix_pre	0		120	34.0	2.5	blank	1.0	189.9789309501648	1.0001296997070312
36	171.84242367744446	pulse	0	t		34.0	2.5	blank	1.0	190.15408754348755	
36	172.66739678382874	movie	1		300	34.0	2.5	blank	1.0	190.97906064987183	2.500389575958252
36	173.4426624774933	pulse	1	t		34.0	2.5	blank	1.0	191.75432634353638	
36	175.0429232120514	pulse	1	t		34.0	2.5	blank	1.0	193.35458707809448	
36	175.167786359787	fix_post	2		12	34.0	2.5	blank	1.0	193.47945022583008	0.10002517700195312
37	175.26781153678894	fix_pre	0		120	35.0	2.5	/experiments/Knapen_AOT/AOT_stimuli/rescaled_final/1909_fw.mp4	0.0	193.57947540283203	1.0085022449493408
37	176.27631378173828	movie	1		285	35.0	2.5	/experiments/Knapen_AOT/AOT_stimuli/rescaled_final/1909_fw.mp4	0.0	194.58797764778137	2.4919943809509277
37	176.6431634426117	pulse	1	t		35.0	2.5	/experiments/Knapen_AOT/AOT_stimuli/rescaled_final/1909_fw.mp4	0.0	194.95482730865479	
37	178.2414882183075	pulse	1	t		35.0	2.5	/experiments/Knapen_AOT/AOT_stimuli/rescaled_final/1909_fw.mp4	0.0	196.5531520843506	
37	178.7683081626892	fix_post	2		12	35.0	2.5	/experiments/Knapen_AOT/AOT_stimuli/rescaled_final/1909_fw.mp4	0.0	197.0799720287323	0.10004305839538574
38	178.8683512210846	fix_pre	0		118	36.0	2.5	/experiments/Knapen_AOT/AOT_stimuli/rescaled_final/1044_rv.mp4	0.0	197.18001508712769	0.9918396472930908
38	179.84374928474426	pulse	0	t		36.0	2.5	/experiments/Knapen_AOT/AOT_stimuli/rescaled_final/1044_rv.mp4	0.0	198.15541315078735	
38	179.86019086837769	movie	1		270	36.0	2.5	/experiments/Knapen_AOT/AOT_stimuli/rescaled_final/1044_rv.mp4	0.0	198.17185473442078	2.5003271102905273
38	181.44227600097656	pulse	1	t		36.0	2.5	/experiments/Knapen_AOT/AOT_stimuli/rescaled_final/1044_rv.mp4	0.0	199.75393986701965	
38	182.3605179786682	fix_post	2		12	36.0	2.5	/experiments/Knapen_AOT/AOT_stimuli/rescaled_final/1044_rv.mp4	0.0	200.6721818447113	0.10006999969482422
39	182.46058797836304	fix_pre	0		120	37.0	2.5	/experiments/Knapen_AOT/AOT_stimuli/rescaled_final/0022_fw.mp4	0.0	200.77225184440613	1.008446216583252
39	183.04423594474792	pulse	0	t		37.0	2.5	/experiments/Knapen_AOT/AOT_stimuli/rescaled_final/0022_fw.mp4	0.0	201.35589981079102	
39	183.4690341949463	movie	1		289	37.0	2.5	/experiments/Knapen_AOT/AOT_stimuli/rescaled_final/0022_fw.mp4	0.0	201.78069806098938	2.4920194149017334
39	184.6425793170929	pulse	1	t		37.0	2.5	/experiments/Knapen_AOT/AOT_stimuli/rescaled_final/0022_fw.mp4	0.0	202.954243183136	
39	185.96105360984802	fix_post	2		12	37.0	2.5	/experiments/Knapen_AOT/AOT_stimuli/rescaled_final/0022_fw.mp4	0.0	204.2727174758911	0.10000753402709961
40	186.06106114387512	fix_pre	0		120	38.0	2.5	/experiments/Knapen_AOT/AOT_stimuli/rescaled_final/2153_fw.mp4	0.0	204.3727250099182	1.0085225105285645
40	186.24449491500854	pulse	0	t		38.0	2.5	/experiments/Knapen_AOT/AOT_stimuli/rescaled_final/2153_fw.mp4	0.0	204.55615878105164	
40	187.0695836544037	movie	1		293	38.0	2.5	/experiments/Knapen_AOT/AOT_stimuli/rescaled_final/2153_fw.mp4	0.0	205.38124752044678	2.4920356273651123
40	187.8447322845459	pulse	1	t		38.0	2.5	/experiments/Knapen_AOT/AOT_stimuli/rescaled_final/2153_fw.mp4	0.0	206.156396150589	
40	189.442467212677	pulse	1	t		38.0	2.5	/experiments/Knapen_AOT/AOT_stimuli/rescaled_final/2153_fw.mp4	0.0	207.7541310787201	
40	189.5616192817688	fix_post	2		12	38.0	2.5	/experiments/Knapen_AOT/AOT_stimuli/rescaled_final/2153_fw.mp4	0.0	207.8732831478119	0.10003113746643066
41	189.66165041923523	fix_pre	0		120	39.0	2.5	/experiments/Knapen_AOT/AOT_stimuli/rescaled_final/0145_fw.mp4	0.0	207.97331428527832	1.0002648830413818
41	190.6619153022766	movie	1		296	39.0	2.5	/experiments/Knapen_AOT/AOT_stimuli/rescaled_final/0145_fw.mp4	0.0	208.9735791683197	2.5002264976501465
41	191.04158878326416	pulse	1	t		39.0	2.5	/experiments/Knapen_AOT/AOT_stimuli/rescaled_final/0145_fw.mp4	0.0	209.35325264930725	
41	192.64293956756592	pulse	1	t		39.0	2.5	/experiments/Knapen_AOT/AOT_stimuli/rescaled_final/0145_fw.mp4	0.0	210.954603433609	
41	193.16214179992676	fix_post	2		12	39.0	2.5	/experiments/Knapen_AOT/AOT_stimuli/rescaled_final/0145_fw.mp4	0.0	211.47380566596985	0.09999871253967285
42	193.26214051246643	fix_pre	0		119	40.0	2.5	blank	1.0	211.57380437850952	0.9918274879455566
42	194.2460973262787	pulse	0	t		40.0	2.5	blank	1.0	212.55776119232178	
42	194.253968000412	movie	1		301	40.0	2.5	blank	1.0	212.56563186645508	2.5087249279022217
42	195.84615063667297	pulse	1	t		40.0	2.5	blank	1.0	214.15781450271606	
42	196.7626929283142	fix_post	2		12	40.0	2.5	blank	1.0	215.0743567943573	0.10000944137573242
43	196.86270236968994	fix_pre	0		120	41.0	2.5	/experiments/Knapen_AOT/AOT_stimuli/rescaled_final/0853_fw.mp4	0.0	215.17436623573303	1.008509635925293
43	197.4464991092682	pulse	0	t		41.0	2.5	/experiments/Knapen_AOT/AOT_stimuli/rescaled_final/0853_fw.mp4	0.0	215.75816297531128	
43	197.87121200561523	movie	1		286	41.0	2.5	/experiments/Knapen_AOT/AOT_stimuli/rescaled_final/0853_fw.mp4	0.0	216.18287587165833	2.492016553878784
43	199.04506492614746	pulse	1	t		41.0	2.5	/experiments/Knapen_AOT/AOT_stimuli/rescaled_final/0853_fw.mp4	0.0	217.35672879219055	
43	200.36322855949402	fix_post	2		12	41.0	2.5	/experiments/Knapen_AOT/AOT_stimuli/rescaled_final/0853_fw.mp4	0.0	218.6748924255371	0.10004878044128418
44	200.4632773399353	fix_pre	0		120	42.0	2.5	/experiments/Knapen_AOT/AOT_stimuli/rescaled_final/2111_rv.mp4	0.0	218.7749412059784	1.0084869861602783
44	200.6467890739441	pulse	0	t		42.0	2.5	/experiments/Knapen_AOT/AOT_stimuli/rescaled_final/2111_rv.mp4	0.0	218.95845293998718	
44	201.47176432609558	movie	1		270	42.0	2.5	/experiments/Knapen_AOT/AOT_stimuli/rescaled_final/2111_rv.mp4	0.0	219.78342819213867	2.4920706748962402
44	202.245019197464	pulse	1	t		42.0	2.5	/experiments/Knapen_AOT/AOT_stimuli/rescaled_final/2111_rv.mp4	0.0	220.55668306350708	
44	203.84516024589539	pulse	1	t		42.0	2.5	/experiments/Knapen_AOT/AOT_stimuli/rescaled_final/2111_rv.mp4	0.0	222.15682411193848	
44	203.96383500099182	fix_post	2		12	42.0	2.5	/experiments/Knapen_AOT/AOT_stimuli/rescaled_final/2111_rv.mp4	0.0	222.2754988670349	0.10003352165222168
45	204.06386852264404	fix_pre	0		120	43.0	2.5	/experiments/Knapen_AOT/AOT_stimuli/rescaled_final/0022_rv.mp4	0.0	222.37553238868713	1.0084164142608643
45	205.0722849369049	movie	1		284	43.0	2.5	/experiments/Knapen_AOT/AOT_stimuli/rescaled_final/0022_rv.mp4	0.0	223.383948802948	2.4920520782470703
45	205.44570755958557	pulse	1	t		43.0	2.5	/experiments/Knapen_AOT/AOT_stimuli/rescaled_final/0022_rv.mp4	0.0	223.75737142562866	
45	207.04551196098328	pulse	1	t		43.0	2.5	/experiments/Knapen_AOT/AOT_stimuli/rescaled_final/0022_rv.mp4	0.0	225.35717582702637	
45	207.56433701515198	fix_post	2		12	43.0	2.5	/experiments/Knapen_AOT/AOT_stimuli/rescaled_final/0022_rv.mp4	0.0	225.87600088119507	0.10001349449157715
46	207.66435050964355	fix_pre	0		119	44.0	2.5	/experiments/Knapen_AOT/AOT_stimuli/rescaled_final/0042_rv.mp4	0.0	225.97601437568665	1.0001165866851807
46	208.6479754447937	pulse	0	t		44.0	2.5	/experiments/Knapen_AOT/AOT_stimuli/rescaled_final/0042_rv.mp4	0.0	226.9596393108368	
46	208.66446709632874	movie	1		283	44.0	2.5	/experiments/Knapen_AOT/AOT_stimuli/rescaled_final/0042_rv.mp4	0.0	226.97613096237183	2.5004453659057617
46	210.24886918067932	pulse	1	t		44.0	2.5	/experiments/Knapen_AOT/AOT_stimuli/rescaled_final/0042_rv.mp4	0.0	228.5605330467224	
46	211.1649124622345	fix_post	2		12	44.0	2.5	/experiments/Knapen_AOT/AOT_stimuli/rescaled_final/0042_rv.mp4	0.0	229.4765763282776	0.10000109672546387
47	211.26491355895996	fix_pre	0		120	45.0	2.5	/experiments/Knapen_AOT/AOT_stimuli/rescaled_final/0716_fw.mp4	0.0	229.57657742500305	1.0085322856903076
47	211.84843182563782	pulse	0	t		45.0	2.5	/experiments/Knapen_AOT/AOT_stimuli/rescaled_final/0716_fw.mp4	0.0	230.1600956916809	
47	212.27344584465027	movie	1		276	45.0	2.5	/experiments/Knapen_AOT/AOT_stimuli/rescaled_final/0716_fw.mp4	0.0	230.58510971069336	2.4919731616973877
47	213.446839094162	pulse	1	t		45.0	2.5	/experiments/Knapen_AOT/AOT_stimuli/rescaled_final/0716_fw.mp4	0.0	231.75850296020508	
47	214.76541900634766	fix_post	2		12	45.0	2.5	/experiments/Knapen_AOT/AOT_stimuli/rescaled_final/0716_fw.mp4	0.0	233.07708287239075	0.10000753402709961
48	214.86542654037476	fix_pre	0		120	46.0	2.5	/experiments/Knapen_AOT/AOT_stimuli/rescaled_final/0454_rv.mp4	0.0	233.17709040641785	1.0085785388946533
48	215.04170751571655	pulse	0	t		46.0	2.5	/experiments/Knapen_AOT/AOT_stimuli/rescaled_final/0454_rv.mp4	0.0	233.35337138175964	
48	215.8740050792694	movie	1		286	46.0	2.5	/experiments/Knapen_AOT/AOT_stimuli/rescaled_final/0454_rv.mp4	0.0	234.1856689453125	2.492074966430664
48	216.64703583717346	pulse	1	t		46.0	2.5	/experiments/Knapen_AOT/AOT_stimuli/rescaled_final/0454_rv.mp4	0.0	234.95869970321655	
48	218.2413411140442	pulse	1	t		46.0	2.5	/experiments/Knapen_AOT/AOT_stimuli/rescaled_final/0454_rv.mp4	0.0	236.55300498008728	
48	218.36608004570007	fix_post	2		12	46.0	2.5	/experiments/Knapen_AOT/AOT_stimuli/rescaled_final/0454_rv.mp4	0.0	236.67774391174316	0.09986209869384766
49	218.46594214439392	fix_pre	0		104	47.0	2.5	blank	1.0	236.777606010437	1.000166416168213
49	219.46610856056213	movie	1		300	47.0	2.5	blank	1.0	237.77777242660522	2.5003750324249268
49	219.84137511253357	pulse	1	t		47.0	2.5	blank	1.0	238.15303897857666	
49	221.44160842895508	pulse	1	t		47.0	2.5	blank	1.0	239.75327229499817	
49	221.96648359298706	fix_post	2		12	47.0	2.5	blank	1.0	240.27814745903015	0.10002350807189941
50	222.06650710105896	fix_pre	0		118	48.0	2.5	/experiments/Knapen_AOT/AOT_stimuli/rescaled_final/1079_fw.mp4	0.0	240.37817096710205	0.9917984008789062
50	223.04188203811646	pulse	0	t		48.0	2.5	/experiments/Knapen_AOT/AOT_stimuli/rescaled_final/1079_fw.mp4	0.0	241.35354590415955	
50	223.05830550193787	movie	1		288	48.0	2.5	/experiments/Knapen_AOT/AOT_stimuli/rescaled_final/1079_fw.mp4	0.0	241.36996936798096	2.50040602684021
50	224.64224243164062	pulse	1	t		48.0	2.5	/experiments/Knapen_AOT/AOT_stimuli/rescaled_final/1079_fw.mp4	0.0	242.95390629768372	
50	225.55871152877808	fix_post	2		12	48.0	2.5	/experiments/Knapen_AOT/AOT_stimuli/rescaled_final/1079_fw.mp4	0.0	243.87037539482117	0.10000824928283691
51	225.6587197780609	fix_pre	0		120	49.0	2.5	/experiments/Knapen_AOT/AOT_stimuli/rescaled_final/0846_rv.mp4	0.0	243.970383644104	1.0085151195526123
51	226.24248456954956	pulse	0	t		49.0	2.5	/experiments/Knapen_AOT/AOT_stimuli/rescaled_final/0846_rv.mp4	0.0	244.55414843559265	
51	226.66723489761353	movie	1		289	49.0	2.5	/experiments/Knapen_AOT/AOT_stimuli/rescaled_final/0846_rv.mp4	0.0	244.97889876365662	2.4920434951782227
51	227.8427016735077	pulse	1	t		49.0	2.5	/experiments/Knapen_AOT/AOT_stimuli/rescaled_final/0846_rv.mp4	0.0	246.15436553955078	
51	229.15927839279175	fix_post	2		12	49.0	2.5	/experiments/Knapen_AOT/AOT_stimuli/rescaled_final/0846_rv.mp4	0.0	247.47094225883484	0.1000056266784668
52	229.25928401947021	fix_pre	0		120	50.0	2.5	/experiments/Knapen_AOT/AOT_stimuli/rescaled_final/0215_rv.mp4	0.0	247.5709478855133	1.0084786415100098
52	229.44285464286804	pulse	0	t		50.0	2.5	/experiments/Knapen_AOT/AOT_stimuli/rescaled_final/0215_rv.mp4	0.0	247.75451850891113	
52	230.26776266098022	movie	1		283	50.0	2.5	/experiments/Knapen_AOT/AOT_stimuli/rescaled_final/0215_rv.mp4	0.0	248.57942652702332	2.4920763969421387
52	231.04322338104248	pulse	1	t		50.0	2.5	/experiments/Knapen_AOT/AOT_stimuli/rescaled_final/0215_rv.mp4	0.0	249.35488724708557	
52	232.6414351463318	pulse	1	t		50.0	2.5	/experiments/Knapen_AOT/AOT_stimuli/rescaled_final/0215_rv.mp4	0.0	250.95309901237488	
52	232.75983905792236	fix_post	2		12	50.0	2.5	/experiments/Knapen_AOT/AOT_stimuli/rescaled_final/0215_rv.mp4	0.0	251.07150292396545	0.09997034072875977
53	232.85980939865112	fix_pre	0		120	51.0	2.5	/experiments/Knapen_AOT/AOT_stimuli/rescaled_final/0853_fw.mp4	0.0	251.1714732646942	1.0084900856018066
53	233.86829948425293	movie	1		283	51.0	2.5	/experiments/Knapen_AOT/AOT_stimuli/rescaled_final/0853_fw.mp4	0.0	252.17996335029602	2.4920294284820557
53	234.2418179512024	pulse	1	t		51.0	2.5	/experiments/Knapen_AOT/AOT_stimuli/rescaled_final/0853_fw.mp4	0.0	252.55348181724548	
53	235.8416712284088	pulse	1	t		51.0	2.5	/experiments/Knapen_AOT/AOT_stimuli/rescaled_final/0853_fw.mp4	0.0	254.1533350944519	
53	236.36032891273499	fix_post	2		12	51.0	2.5	/experiments/Knapen_AOT/AOT_stimuli/rescaled_final/0853_fw.mp4	0.0	254.67199277877808	0.10010337829589844
54	236.46043229103088	fix_pre	0		119	52.0	2.5	/experiments/Knapen_AOT/AOT_stimuli/rescaled_final/0457_fw.mp4	0.0	254.77209615707397	1.000046730041504
54	237.4440176486969	pulse	0	t		52.0	2.5	/experiments/Knapen_AOT/AOT_stimuli/rescaled_final/0457_fw.mp4	0.0	255.75568151474	
54	237.4604790210724	movie	1		288	52.0	2.5	/experiments/Knapen_AOT/AOT_stimuli/rescaled_final/0457_fw.mp4	0.0	255.77214288711548	2.5004353523254395
54	239.0428764820099	pulse	1	t		52.0	2.5	/experiments/Knapen_AOT/AOT_stimuli/rescaled_final/0457_fw.mp4	0.0	257.354540348053	
54	239.96091437339783	fix_post	2		12	52.0	2.5	/experiments/Knapen_AOT/AOT_stimuli/rescaled_final/0457_fw.mp4	0.0	258.2725782394409	0.1000356674194336
55	240.06095004081726	fix_pre	0		120	53.0	2.5	/experiments/Knapen_AOT/AOT_stimuli/rescaled_final/0403_fw.mp4	0.0	258.37261390686035	1.0084505081176758
55	240.6445505619049	pulse	0	t		53.0	2.5	/experiments/Knapen_AOT/AOT_stimuli/rescaled_final/0403_fw.mp4	0.0	258.956214427948	
55	241.06940054893494	movie	1		281	53.0	2.5	/experiments/Knapen_AOT/AOT_stimuli/rescaled_final/0403_fw.mp4	0.0	259.381064414978	2.4920036792755127
55	242.24351906776428	pulse	1	t		53.0	2.5	/experiments/Knapen_AOT/AOT_stimuli/rescaled_final/0403_fw.mp4	0.0	260.5551829338074	
55	243.56140422821045	fix_post	2		12	53.0	2.5	/experiments/Knapen_AOT/AOT_stimuli/rescaled_final/0403_fw.mp4	0.0	261.87306809425354	0.10001015663146973
56	243.66141438484192	fix_pre	0		120	54.0	2.5	/experiments/Knapen_AOT/AOT_stimuli/rescaled_final/1905_rv.mp4	0.0	261.973078250885	1.0085108280181885
56	243.84527277946472	pulse	0	t		54.0	2.5	/experiments/Knapen_AOT/AOT_stimuli/rescaled_final/1905_rv.mp4	0.0	262.1569366455078	
56	244.6699252128601	movie	1		277	54.0	2.5	/experiments/Knapen_AOT/AOT_stimuli/rescaled_final/1905_rv.mp4	0.0	262.9815890789032	2.492035150527954
56	245.44330859184265	pulse	1	t		54.0	2.5	/experiments/Knapen_AOT/AOT_stimuli/rescaled_final/1905_rv.mp4	0.0	263.75497245788574	
56	247.04371786117554	pulse	1	t		54.0	2.5	/experiments/Knapen_AOT/AOT_stimuli/rescaled_final/1905_rv.mp4	0.0	265.3553817272186	
56	247.16196036338806	fix_post	2		12	54.0	2.5	/experiments/Knapen_AOT/AOT_stimuli/rescaled_final/1905_rv.mp4	0.0	265.47362422943115	0.1001439094543457
57	247.2621042728424	fix_pre	0		120	55.0	2.5	blank	1.0	265.5737681388855	1.0000691413879395
57	248.26217341423035	movie	1		300	55.0	2.5	blank	1.0	266.57383728027344	2.5003888607025146
57	248.64572310447693	pulse	1	t		55.0	2.5	blank	1.0	266.95738697052	
57	250.2459535598755	pulse	1	t		55.0	2.5	blank	1.0	268.5576174259186	
57	250.76256227493286	fix_post	2		12	55.0	2.5	blank	1.0	269.07422614097595	0.10000467300415039
58	250.862566947937	fix_pre	0		119	56.0	2.5	/experiments/Knapen_AOT/AOT_stimuli/rescaled_final/0647_fw.mp4	0.0	269.1742308139801	1.0084712505340576
58	251.84617114067078	pulse	0	t		56.0	2.5	/experiments/Knapen_AOT/AOT_stimuli/rescaled_final/0647_fw.mp4	0.0	270.15783500671387	
58	251.87103819847107	movie	1		284	56.0	2.5	/experiments/Knapen_AOT/AOT_stimuli/rescaled_final/0647_fw.mp4	0.0	270.18270206451416	2.4919984340667725
58	253.44583129882812	pulse	1	t		56.0	2.5	/experiments/Knapen_AOT/AOT_stimuli/rescaled_final/0647_fw.mp4	0.0	271.7574951648712	
58	254.36303663253784	fix_post	2		12	56.0	2.5	/experiments/Knapen_AOT/AOT_stimuli/rescaled_final/0647_fw.mp4	0.0	272.67470049858093	0.10003352165222168
59	254.46307015419006	fix_pre	0		120	57.0	2.5	/experiments/Knapen_AOT/AOT_stimuli/rescaled_final/1316_rv.mp4	0.0	272.77473402023315	1.0084943771362305
59	255.04665803909302	pulse	0	t		57.0	2.5	/experiments/Knapen_AOT/AOT_stimuli/rescaled_final/1316_rv.mp4	0.0	273.3583219051361	
59	255.4715645313263	movie	1		282	57.0	2.5	/experiments/Knapen_AOT/AOT_stimuli/rescaled_final/1316_rv.mp4	0.0	273.7832283973694	2.4920148849487305
59	256.64720582962036	pulse	1	t		57.0	2.5	/experiments/Knapen_AOT/AOT_stimuli/rescaled_final/1316_rv.mp4	0.0	274.95886969566345	
59	257.963579416275	fix_post	2		12	57.0	2.5	/experiments/Knapen_AOT/AOT_stimuli/rescaled_final/1316_rv.mp4	0.0	276.2752432823181	0.10002279281616211
60	258.0636022090912	fix_pre	0		120	58.0	2.5	/experiments/Knapen_AOT/AOT_stimuli/rescaled_final/0882_rv.mp4	0.0	276.3752660751343	1.0084829330444336
60	258.24716305732727	pulse	0	t		58.0	2.5	/experiments/Knapen_AOT/AOT_stimuli/rescaled_final/0882_rv.mp4	0.0	276.55882692337036	
60	259.0720851421356	movie	1		274	58.0	2.5	/experiments/Knapen_AOT/AOT_stimuli/rescaled_final/0882_rv.mp4	0.0	277.3837490081787	2.4920754432678223
60	259.84529519081116	pulse	1	t		58.0	2.5	/experiments/Knapen_AOT/AOT_stimuli/rescaled_final/0882_rv.mp4	0.0	278.15695905685425	
60	261.4456875324249	pulse	1	t		58.0	2.5	/experiments/Knapen_AOT/AOT_stimuli/rescaled_final/0882_rv.mp4	0.0	279.757351398468	
60	261.56416058540344	fix_post	2		12	58.0	2.5	/experiments/Knapen_AOT/AOT_stimuli/rescaled_final/0882_rv.mp4	0.0	279.87582445144653	0.10001444816589355
61	261.66417503356934	fix_pre	0		120	59.0	2.5	/experiments/Knapen_AOT/AOT_stimuli/rescaled_final/0338_fw.mp4	0.0	279.9758388996124	1.0085196495056152
61	262.67269468307495	movie	1		274	59.0	2.5	/experiments/Knapen_AOT/AOT_stimuli/rescaled_final/0338_fw.mp4	0.0	280.98435854911804	2.4920125007629395
61	263.04625821113586	pulse	1	t		59.0	2.5	/experiments/Knapen_AOT/AOT_stimuli/rescaled_final/0338_fw.mp4	0.0	281.35792207717896	
61	264.64857053756714	pulse	1	t		59.0	2.5	/experiments/Knapen_AOT/AOT_stimuli/rescaled_final/0338_fw.mp4	0.0	282.96023440361023	
61	265.1647071838379	fix_post	2		12	59.0	2.5	/experiments/Knapen_AOT/AOT_stimuli/rescaled_final/0338_fw.mp4	0.0	283.476371049881	0.09999942779541016
62	265.2647066116333	fix_pre	0		119	60.0	2.5	/experiments/Knapen_AOT/AOT_stimuli/rescaled_final/0145_fw.mp4	0.0	283.5763704776764	1.0085148811340332
62	266.24838614463806	pulse	0	t		60.0	2.5	/experiments/Knapen_AOT/AOT_stimuli/rescaled_final/0145_fw.mp4	0.0	284.56005001068115	
62	266.27322149276733	movie	1		290	60.0	2.5	/experiments/Knapen_AOT/AOT_stimuli/rescaled_final/0145_fw.mp4	0.0	284.5848853588104	2.492007255554199
62	267.847234249115	pulse	1	t		60.0	2.5	/experiments/Knapen_AOT/AOT_stimuli/rescaled_final/0145_fw.mp4	0.0	286.1588981151581	
62	268.76522874832153	fix_post	2		12	60.0	2.5	/experiments/Knapen_AOT/AOT_stimuli/rescaled_final/0145_fw.mp4	0.0	287.0768926143646	0.10004854202270508
63	268.86527729034424	fix_pre	0		120	61.0	2.5	/experiments/Knapen_AOT/AOT_stimuli/rescaled_final/0482_rv.mp4	0.0	287.17694115638733	1.0084259510040283
63	269.4489827156067	pulse	0	t		61.0	2.5	/experiments/Knapen_AOT/AOT_stimuli/rescaled_final/0482_rv.mp4	0.0	287.7606465816498	
63	269.87370324134827	movie	1		283	61.0	2.5	/experiments/Knapen_AOT/AOT_stimuli/rescaled_final/0482_rv.mp4	0.0	288.18536710739136	2.4920449256896973
63	271.0474317073822	pulse	1	t		61.0	2.5	/experiments/Knapen_AOT/AOT_stimuli/rescaled_final/0482_rv.mp4	0.0	289.3590955734253	
63	272.36574816703796	fix_post	2		12	61.0	2.5	/experiments/Knapen_AOT/AOT_stimuli/rescaled_final/0482_rv.mp4	0.0	290.67741203308105	0.1000361442565918
64	272.46578431129456	fix_pre	0		120	62.0	2.5	/experiments/Knapen_AOT/AOT_stimuli/rescaled_final/1808_rv.mp4	0.0	290.77744817733765	1.0085091590881348
64	272.64156675338745	pulse	0	t		62.0	2.5	/experiments/Knapen_AOT/AOT_stimuli/rescaled_final/1808_rv.mp4	0.0	290.95323061943054	
64	273.4742934703827	movie	1		277	62.0	2.5	/experiments/Knapen_AOT/AOT_stimuli/rescaled_final/1808_rv.mp4	0.0	291.7859573364258	2.4920032024383545
64	274.2416195869446	pulse	1	t		62.0	2.5	/experiments/Knapen_AOT/AOT_stimuli/rescaled_final/1808_rv.mp4	0.0	292.55328345298767	
64	275.8497030735016	pulse	1	t		62.0	2.5	/experiments/Knapen_AOT/AOT_stimuli/rescaled_final/1808_rv.mp4	0.0	294.1613669395447	
64	275.96629667282104	fix_post	2		12	62.0	2.5	/experiments/Knapen_AOT/AOT_stimuli/rescaled_final/1808_rv.mp4	0.0	294.27796053886414	0.10003328323364258
65	276.0663299560547	fix_pre	0		120	63.0	2.5	blank	1.0	294.3779938220978	1.0002543926239014
65	277.0665843486786	movie	1		299	63.0	2.5	blank	1.0	295.3782482147217	2.5002803802490234
65	277.4418637752533	pulse	1	t		63.0	2.5	blank	1.0	295.7535276412964	
65	279.0420780181885	pulse	1	t		63.0	2.5	blank	1.0	297.35374188423157	
65	279.5668647289276	fix_post	2		12	63.0	2.5	blank	1.0	297.8785285949707	0.10001039505004883
66	279.66687512397766	fix_pre	0		118	64.0	2.5	/experiments/Knapen_AOT/AOT_stimuli/rescaled_final/2147_fw.mp4	0.0	297.97853899002075	0.9917879104614258
66	280.6422507762909	pulse	0	t		64.0	2.5	/experiments/Knapen_AOT/AOT_stimuli/rescaled_final/2147_fw.mp4	0.0	298.953914642334	
66	280.6586630344391	movie	1		266	64.0	2.5	/experiments/Knapen_AOT/AOT_stimuli/rescaled_final/2147_fw.mp4	0.0	298.9703269004822	2.5005130767822266
66	282.2418637275696	pulse	1	t		64.0	2.5	/experiments/Knapen_AOT/AOT_stimuli/rescaled_final/2147_fw.mp4	0.0	300.55352759361267	
66	283.1591761112213	fix_post	2		12	64.0	2.5	/experiments/Knapen_AOT/AOT_stimuli/rescaled_final/2147_fw.mp4	0.0	301.4708399772644	0.09988069534301758
67	283.25905680656433	fix_pre	0		120	65.0	2.5	/experiments/Knapen_AOT/AOT_stimuli/rescaled_final/1922_rv.mp4	0.0	301.5707206726074	1.0084888935089111
67	283.8428144454956	pulse	0	t		65.0	2.5	/experiments/Knapen_AOT/AOT_stimuli/rescaled_final/1922_rv.mp4	0.0	302.1544783115387	
67	284.26754570007324	movie	1		281	65.0	2.5	/experiments/Knapen_AOT/AOT_stimuli/rescaled_final/1922_rv.mp4	0.0	302.57920956611633	2.4921131134033203
67	285.4430067539215	pulse	1	t		65.0	2.5	/experiments/Knapen_AOT/AOT_stimuli/rescaled_final/1922_rv.mp4	0.0	303.7546706199646	
67	286.75965881347656	fix_post	2		12	65.0	2.5	/experiments/Knapen_AOT/AOT_stimuli/rescaled_final/1922_rv.mp4	0.0	305.07132267951965	0.09999370574951172
68	286.8596525192261	fix_pre	0		120	66.0	2.5	/experiments/Knapen_AOT/AOT_stimuli/rescaled_final/2023_rv.mp4	0.0	305.17131638526917	1.0085625648498535
68	287.0432240962982	pulse	0	t		66.0	2.5	/experiments/Knapen_AOT/AOT_stimuli/rescaled_final/2023_rv.mp4	0.0	305.3548879623413	
68	287.8682150840759	movie	1		275	66.0	2.5	/experiments/Knapen_AOT/AOT_stimuli/rescaled_final/2023_rv.mp4	0.0	306.179878950119	2.4920616149902344
68	288.6434290409088	pulse	1	t		66.0	2.5	/experiments/Knapen_AOT/AOT_stimuli/rescaled_final/2023_rv.mp4	0.0	306.9550929069519	
68	290.2417941093445	pulse	1	t		66.0	2.5	/experiments/Knapen_AOT/AOT_stimuli/rescaled_final/2023_rv.mp4	0.0	308.5534579753876	
68	290.36027669906616	fix_post	2		12	66.0	2.5	/experiments/Knapen_AOT/AOT_stimuli/rescaled_final/2023_rv.mp4	0.0	308.67194056510925	0.09987211227416992
69	290.46014881134033	fix_pre	0		120	67.0	2.5	/experiments/Knapen_AOT/AOT_stimuli/rescaled_final/0758_fw.mp4	0.0	308.7718126773834	1.00848388671875
69	291.4686326980591	movie	1		269	67.0	2.5	/experiments/Knapen_AOT/AOT_stimuli/rescaled_final/0758_fw.mp4	0.0	309.7802965641022	2.4921040534973145
69	291.8425359725952	pulse	1	t		67.0	2.5	/experiments/Knapen_AOT/AOT_stimuli/rescaled_final/0758_fw.mp4	0.0	310.1541998386383	
69	293.44220876693726	pulse	1	t		67.0	2.5	/experiments/Knapen_AOT/AOT_stimuli/rescaled_final/0758_fw.mp4	0.0	311.75387263298035	
69	293.9607367515564	fix_post	2		12	67.0	2.5	/experiments/Knapen_AOT/AOT_stimuli/rescaled_final/0758_fw.mp4	0.0	312.2724006175995	0.09999394416809082
70	294.0607306957245	fix_pre	0		119	68.0	2.5	/experiments/Knapen_AOT/AOT_stimuli/rescaled_final/0257_rv.mp4	0.0	312.3723945617676	1.0001945495605469
70	295.0444791316986	pulse	0	t		68.0	2.5	/experiments/Knapen_AOT/AOT_stimuli/rescaled_final/0257_rv.mp4	0.0	313.3561429977417	
70	295.06092524528503	movie	1		277	68.0	2.5	/experiments/Knapen_AOT/AOT_stimuli/rescaled_final/0257_rv.mp4	0.0	313.3725891113281	2.500286817550659
70	296.6443507671356	pulse	1	t		68.0	2.5	/experiments/Knapen_AOT/AOT_stimuli/rescaled_final/0257_rv.mp4	0.0	314.9560146331787	
70	297.5612120628357	fix_post	2		12	68.0	2.5	/experiments/Knapen_AOT/AOT_stimuli/rescaled_final/0257_rv.mp4	0.0	315.8728759288788	0.10001945495605469
71	297.66123151779175	fix_pre	0		120	69.0	2.5	/experiments/Knapen_AOT/AOT_stimuli/rescaled_final/0457_fw.mp4	0.0	315.97289538383484	1.0084795951843262
71	298.2449142932892	pulse	0	t		69.0	2.5	/experiments/Knapen_AOT/AOT_stimuli/rescaled_final/0457_fw.mp4	0.0	316.5565781593323	
71	298.6697111129761	movie	1		273	69.0	2.5	/experiments/Knapen_AOT/AOT_stimuli/rescaled_final/0457_fw.mp4	0.0	316.98137497901917	2.4921841621398926
71	299.8430414199829	pulse	1	t		69.0	2.5	/experiments/Knapen_AOT/AOT_stimuli/rescaled_final/0457_fw.mp4	0.0	318.154705286026	
71	301.16189527511597	fix_post	2		12	69.0	2.5	/experiments/Knapen_AOT/AOT_stimuli/rescaled_final/0457_fw.mp4	0.0	319.47355914115906	0.09997439384460449
72	301.26186966896057	fix_pre	0		120	70.0	2.5	blank	1.0	319.57353353500366	1.0000555515289307
72	301.4453229904175	pulse	0	t		70.0	2.5	blank	1.0	319.75698685646057	
72	302.2619252204895	movie	1		300	70.0	2.5	blank	1.0	320.5735890865326	2.5005083084106445
72	303.0456190109253	pulse	1	t		70.0	2.5	blank	1.0	321.3572828769684	
72	304.64599347114563	pulse	1	t		70.0	2.5	blank	1.0	322.9576573371887	
72	304.76243352890015	fix_post	2		12	70.0	2.5	blank	1.0	323.07409739494324	0.09988880157470703
73	304.86232233047485	fix_pre	0		120	71.0	2.5	/experiments/Knapen_AOT/AOT_stimuli/rescaled_final/0512_rv.mp4	0.0	323.17398619651794	1.0085177421569824
73	305.87084007263184	movie	1		276	71.0	2.5	/experiments/Knapen_AOT/AOT_stimuli/rescaled_final/0512_rv.mp4	0.0	324.1825039386749	2.492079257965088
73	306.2447111606598	pulse	1	t		71.0	2.5	/experiments/Knapen_AOT/AOT_stimuli/rescaled_final/0512_rv.mp4	0.0	324.5563750267029	
73	307.84419322013855	pulse	1	t		71.0	2.5	/experiments/Knapen_AOT/AOT_stimuli/rescaled_final/0512_rv.mp4	0.0	326.15585708618164	
73	308.3629193305969	fix_post	2		12	71.0	2.5	/experiments/Knapen_AOT/AOT_stimuli/rescaled_final/0512_rv.mp4	0.0	326.67458319664	0.10001230239868164
74	308.4629316329956	fix_pre	0		119	72.0	2.5	/experiments/Knapen_AOT/AOT_stimuli/rescaled_final/1961_rv.mp4	0.0	326.7745954990387	1.0000736713409424
74	309.4465832710266	pulse	0	t		72.0	2.5	/experiments/Knapen_AOT/AOT_stimuli/rescaled_final/1961_rv.mp4	0.0	327.7582471370697	
74	309.46300530433655	movie	1		271	72.0	2.5	/experiments/Knapen_AOT/AOT_stimuli/rescaled_final/1961_rv.mp4	0.0	327.77466917037964	2.5003693103790283
74	311.0457181930542	pulse	1	t		72.0	2.5	/experiments/Knapen_AOT/AOT_stimuli/rescaled_final/1961_rv.mp4	0.0	329.3573820590973	
74	311.9633746147156	fix_post	2		12	72.0	2.5	/experiments/Knapen_AOT/AOT_stimuli/rescaled_final/1961_rv.mp4	0.0	330.27503848075867	0.10001444816589355
75	312.06338906288147	fix_pre	0		120	73.0	2.5	/experiments/Knapen_AOT/AOT_stimuli/rescaled_final/2147_rv.mp4	0.0	330.37505292892456	1.008533000946045
75	312.64702892303467	pulse	0	t		73.0	2.5	/experiments/Knapen_AOT/AOT_stimuli/rescaled_final/2147_rv.mp4	0.0	330.95869278907776	
75	313.0719220638275	movie	1		279	73.0	2.5	/experiments/Knapen_AOT/AOT_stimuli/rescaled_final/2147_rv.mp4	0.0	331.3835859298706	2.4919915199279785
75	314.2455976009369	pulse	1	t		73.0	2.5	/experiments/Knapen_AOT/AOT_stimuli/rescaled_final/2147_rv.mp4	0.0	332.55726146698	
75	315.5639135837555	fix_post	2		12	73.0	2.5	/experiments/Knapen_AOT/AOT_stimuli/rescaled_final/2147_rv.mp4	0.0	333.8755774497986	0.10016465187072754
76	315.6640782356262	fix_pre	0		120	74.0	2.5	/experiments/Knapen_AOT/AOT_stimuli/rescaled_final/0147_fw.mp4	0.0	333.9757421016693	1.008389949798584
76	315.84747314453125	pulse	0	t		74.0	2.5	/experiments/Knapen_AOT/AOT_stimuli/rescaled_final/0147_fw.mp4	0.0	334.15913701057434	
76	316.6724681854248	movie	1		271	74.0	2.5	/experiments/Knapen_AOT/AOT_stimuli/rescaled_final/0147_fw.mp4	0.0	334.9841320514679	2.492133617401123
76	317.44682455062866	pulse	1	t		74.0	2.5	/experiments/Knapen_AOT/AOT_stimuli/rescaled_final/0147_fw.mp4	0.0	335.75848841667175	
76	319.0481901168823	pulse	1	t		74.0	2.5	/experiments/Knapen_AOT/AOT_stimuli/rescaled_final/0147_fw.mp4	0.0	337.3598539829254	
76	319.1646018028259	fix_post	2		12	74.0	2.5	/experiments/Knapen_AOT/AOT_stimuli/rescaled_final/0147_fw.mp4	0.0	337.476265668869	0.09987139701843262
77	319.26447319984436	fix_pre	0		120	75.0	2.5	blank	1.0	337.57613706588745	1.0001683235168457
77	320.2646415233612	movie	1		300	75.0	2.5	blank	1.0	338.5763053894043	2.500420331954956
77	320.6489465236664	pulse	1	t		75.0	2.5	blank	1.0	338.9606103897095	
77	322.248854637146	pulse	1	t		75.0	2.5	blank	1.0	340.5605185031891	
77	322.76506185531616	fix_post	2		12	75.0	2.5	blank	1.0	341.07672572135925	0.10003972053527832
78	322.86510157585144	fix_pre	0		119	76.0	2.5	/experiments/Knapen_AOT/AOT_stimuli/rescaled_final/1941_rv.mp4	0.0	341.17676544189453	1.0084521770477295
78	323.84201526641846	pulse	0	t		76.0	2.5	/experiments/Knapen_AOT/AOT_stimuli/rescaled_final/1941_rv.mp4	0.0	342.15367913246155	
78	323.87355375289917	movie	1		270	76.0	2.5	/experiments/Knapen_AOT/AOT_stimuli/rescaled_final/1941_rv.mp4	0.0	342.18521761894226	2.491990804672241
78	325.44828176498413	pulse	1	t		76.0	2.5	/experiments/Knapen_AOT/AOT_stimuli/rescaled_final/1941_rv.mp4	0.0	343.7599456310272	
78	326.3655445575714	fix_post	2		12	76.0	2.5	/experiments/Knapen_AOT/AOT_stimuli/rescaled_final/1941_rv.mp4	0.0	344.6772084236145	0.10003829002380371
79	326.4655828475952	fix_pre	0		120	77.0	2.5	/experiments/Knapen_AOT/AOT_stimuli/rescaled_final/1061_fw.mp4	0.0	344.7772467136383	1.0085258483886719
79	327.0492889881134	pulse	0	t		77.0	2.5	/experiments/Knapen_AOT/AOT_stimuli/rescaled_final/1061_fw.mp4	0.0	345.3609528541565	
79	327.4741086959839	movie	1		265	77.0	2.5	/experiments/Knapen_AOT/AOT_stimuli/rescaled_final/1061_fw.mp4	0.0	345.785772562027	2.4919984340667725
79	328.6481032371521	pulse	1	t		77.0	2.5	/experiments/Knapen_AOT/AOT_stimuli/rescaled_final/1061_fw.mp4	0.0	346.9597671031952	
79	329.96610713005066	fix_post	2		12	77.0	2.5	/experiments/Knapen_AOT/AOT_stimuli/rescaled_final/1061_fw.mp4	0.0	348.27777099609375	0.10004806518554688
80	330.0661551952362	fix_pre	0		120	78.0	2.5	/experiments/Knapen_AOT/AOT_stimuli/rescaled_final/0005_fw.mp4	0.0	348.3778190612793	1.0085909366607666
80	330.2428946495056	pulse	0	t		78.0	2.5	/experiments/Knapen_AOT/AOT_stimuli/rescaled_final/0005_fw.mp4	0.0	348.5545585155487	
80	331.074746131897	movie	1		278	78.0	2.5	/experiments/Knapen_AOT/AOT_stimuli/rescaled_final/0005_fw.mp4	0.0	349.38640999794006	2.491884708404541
80	331.84839129447937	pulse	1	t		78.0	2.5	/experiments/Knapen_AOT/AOT_stimuli/rescaled_final/0005_fw.mp4	0.0	350.16005516052246	
80	333.4483141899109	pulse	1	t		78.0	2.5	/experiments/Knapen_AOT/AOT_stimuli/rescaled_final/0005_fw.mp4	0.0	351.759978055954	
80	333.5666308403015	fix_post	2		12	78.0	2.5	/experiments/Knapen_AOT/AOT_stimuli/rescaled_final/0005_fw.mp4	0.0	351.8782947063446	0.10002279281616211
81	333.6666536331177	fix_pre	0		120	79.0	2.5	/experiments/Knapen_AOT/AOT_stimuli/rescaled_final/0882_fw.mp4	0.0	351.97831749916077	1.0085241794586182
81	334.6751778125763	movie	1		273	79.0	2.5	/experiments/Knapen_AOT/AOT_stimuli/rescaled_final/0882_fw.mp4	0.0	352.9868416786194	2.4920480251312256
81	335.04226660728455	pulse	1	t		79.0	2.5	/experiments/Knapen_AOT/AOT_stimuli/rescaled_final/0882_fw.mp4	0.0	353.35393047332764	
81	336.64262890815735	pulse	1	t		79.0	2.5	/experiments/Knapen_AOT/AOT_stimuli/rescaled_final/0882_fw.mp4	0.0	354.95429277420044	
81	337.1672258377075	fix_post	2		12	79.0	2.5	/experiments/Knapen_AOT/AOT_stimuli/rescaled_final/0882_fw.mp4	0.0	355.4788897037506	0.10004186630249023
82	337.26726770401	fix_pre	0		118	80.0	2.5	/experiments/Knapen_AOT/AOT_stimuli/rescaled_final/1201_fw.mp4	0.0	355.5789315700531	1.000145673751831
82	338.24275636672974	pulse	0	t		80.0	2.5	/experiments/Knapen_AOT/AOT_stimuli/rescaled_final/1201_fw.mp4	0.0	356.5544202327728	
82	338.26741337776184	movie	1		262	80.0	2.5	/experiments/Knapen_AOT/AOT_stimuli/rescaled_final/1201_fw.mp4	0.0	356.57907724380493	2.4919517040252686
82	339.84299325942993	pulse	1	t		80.0	2.5	/experiments/Knapen_AOT/AOT_stimuli/rescaled_final/1201_fw.mp4	0.0	358.154657125473	
82	340.7593650817871	fix_post	2		12	80.0	2.5	/experiments/Knapen_AOT/AOT_stimuli/rescaled_final/1201_fw.mp4	0.0	359.0710289478302	0.1000375747680664
83	340.8594026565552	fix_pre	0		120	81.0	2.5	/experiments/Knapen_AOT/AOT_stimuli/rescaled_final/1808_fw.mp4	0.0	359.17106652259827	1.008573055267334
83	341.4431347846985	pulse	0	t		81.0	2.5	/experiments/Knapen_AOT/AOT_stimuli/rescaled_final/1808_fw.mp4	0.0	359.7547986507416	
83	341.8679757118225	movie	1		268	81.0	2.5	/experiments/Knapen_AOT/AOT_stimuli/rescaled_final/1808_fw.mp4	0.0	360.1796395778656	2.4919447898864746
83	343.0412030220032	pulse	1	t		81.0	2.5	/experiments/Knapen_AOT/AOT_stimuli/rescaled_final/1808_fw.mp4	0.0	361.35286688804626	
83	344.359920501709	fix_post	2		12	81.0	2.5	/experiments/Knapen_AOT/AOT_stimuli/rescaled_final/1808_fw.mp4	0.0	362.6715843677521	0.09997129440307617
84	344.45989179611206	fix_pre	0		120	82.0	2.5	/experiments/Knapen_AOT/AOT_stimuli/rescaled_final/0496_rv.mp4	0.0	362.77155566215515	1.0085511207580566
84	344.64353680610657	pulse	0	t		82.0	2.5	/experiments/Knapen_AOT/AOT_stimuli/rescaled_final/0496_rv.mp4	0.0	362.95520067214966	
84	345.4684429168701	movie	1		271	82.0	2.5	/experiments/Knapen_AOT/AOT_stimuli/rescaled_final/0496_rv.mp4	0.0	363.7801067829132	2.4920268058776855
84	346.24234533309937	pulse	1	t		82.0	2.5	/experiments/Knapen_AOT/AOT_stimuli/rescaled_final/0496_rv.mp4	0.0	364.55400919914246	
84	347.8422348499298	pulse	1	t		82.0	2.5	/experiments/Knapen_AOT/AOT_stimuli/rescaled_final/0496_rv.mp4	0.0	366.1538987159729	
84	347.9604697227478	fix_post	2		12	82.0	2.5	/experiments/Knapen_AOT/AOT_stimuli/rescaled_final/0496_rv.mp4	0.0	366.2721335887909	0.10007286071777344
85	348.0605425834656	fix_pre	0		120	83.0	2.5	blank	1.0	366.37220644950867	1.0000834465026855
85	349.06062602996826	movie	1		299	83.0	2.5	blank	1.0	367.37228989601135	2.5003674030303955
85	349.44438648223877	pulse	1	t		83.0	2.5	blank	1.0	367.75605034828186	
85	351.0445499420166	pulse	1	t		83.0	2.5	blank	1.0	369.3562138080597	
85	351.56099343299866	fix_post	2		12	83.0	2.5	blank	1.0	369.87265729904175	0.09998917579650879
87	351.66098260879517	stim	0		1716					369.97264647483826	14.30222463607788
87	352.64469051361084	pulse	0	t						370.95635437965393	
87	354.24492955207825	pulse	0	t						372.55659341812134	
87	355.8453698158264	pulse	0	t						374.1570336818695	
87	357.44557309150696	pulse	0	t						375.75723695755005	
87	359.04567980766296	pulse	0	t						377.35734367370605	
87	360.64589047431946	pulse	0	t						378.95755434036255	
87	362.24615931510925	pulse	0	t						380.55782318115234	
87	363.846373796463	pulse	0	t						382.1580376625061	
87	365.44665360450745	pulse	0	t						383.75831747055054	
