trial_nr	onset	event_type	phase	response	nr_frames	movie_index	movie_duration	movie_file	blank	onset_abs	duration
0	0.1664292812347412	stim	0		64					16.935271501541138	0.53334641456604
0	0.6916537284851074	response	0	space						17.460495948791504	
1	0.6997756958007812	stim	0		4404					17.468617916107178	36.71542930603027
1	37.39515566825867	pulse	0	t						54.16399788856506	
1	37.415205001831055	stim	1		1715					54.18404722213745	14.300564527511597
1	38.9894859790802	pulse	1	t						55.7583281993866	
1	40.58942270278931	pulse	1	t						57.3582649230957	
1	42.18954944610596	pulse	1	t						58.95839166641235	
1	43.78985786437988	pulse	1	t						60.55870008468628	
1	45.39007258415222	pulse	1	t						62.15891480445862	
1	46.99028038978577	pulse	1	t						63.75912261009216	
1	48.59059381484985	pulse	1	t						65.35943603515625	
1	50.19084715843201	pulse	1	t						66.9596893787384	
2	51.71576952934265	fix_pre	0		10	0.0	2.5	/experiments/Knapen_AOT/AOT_stimuli/rescaled_final/0067_fw.mp4	0.0	68.48461174964905	0.10009980201721191
2	51.79106402397156	pulse	0	t		0.0	2.5	/experiments/Knapen_AOT/AOT_stimuli/rescaled_final/0067_fw.mp4	0.0	68.55990624427795	
2	51.81586933135986	movie	1		289	0.0	2.5	/experiments/Knapen_AOT/AOT_stimuli/rescaled_final/0067_fw.mp4	0.0	68.58471155166626	2.4919614791870117
2	53.389771699905396	pulse	1	t		0.0	2.5	/experiments/Knapen_AOT/AOT_stimuli/rescaled_final/0067_fw.mp4	0.0	70.15861392021179	
2	54.307830810546875	fix_post	2		12	0.0	2.5	/experiments/Knapen_AOT/AOT_stimuli/rescaled_final/0067_fw.mp4	0.0	71.07667303085327	0.10003352165222168
3	54.4078643321991	fix_pre	0		120	1.0	2.5	/experiments/Knapen_AOT/AOT_stimuli/rescaled_final/1593_fw.mp4	0.0	71.1767065525055	1.0085368156433105
3	54.991525411605835	pulse	0	t		1.0	2.5	/experiments/Knapen_AOT/AOT_stimuli/rescaled_final/1593_fw.mp4	0.0	71.76036763191223	
3	55.41640114784241	movie	1		280	1.0	2.5	/experiments/Knapen_AOT/AOT_stimuli/rescaled_final/1593_fw.mp4	0.0	72.1852433681488	2.491982936859131
3	56.58946108818054	pulse	1	t		1.0	2.5	/experiments/Knapen_AOT/AOT_stimuli/rescaled_final/1593_fw.mp4	0.0	73.35830330848694	
3	57.90838408470154	fix_post	2		12	1.0	2.5	/experiments/Knapen_AOT/AOT_stimuli/rescaled_final/1593_fw.mp4	0.0	74.67722630500793	0.10001397132873535
4	58.00839805603027	fix_pre	0		120	2.0	2.5	/experiments/Knapen_AOT/AOT_stimuli/rescaled_final/0310_fw.mp4	0.0	74.77724027633667	1.008481502532959
4	58.191994190216064	pulse	0	t		2.0	2.5	/experiments/Knapen_AOT/AOT_stimuli/rescaled_final/0310_fw.mp4	0.0	74.96083641052246	
4	59.01687955856323	movie	1		287	2.0	2.5	/experiments/Knapen_AOT/AOT_stimuli/rescaled_final/0310_fw.mp4	0.0	75.78572177886963	2.492044687271118
4	59.79069542884827	pulse	1	t		2.0	2.5	/experiments/Knapen_AOT/AOT_stimuli/rescaled_final/0310_fw.mp4	0.0	76.55953764915466	
4	61.39012408256531	pulse	1	t		2.0	2.5	/experiments/Knapen_AOT/AOT_stimuli/rescaled_final/0310_fw.mp4	0.0	78.1589663028717	
4	61.50892424583435	fix_post	2		12	2.0	2.5	/experiments/Knapen_AOT/AOT_stimuli/rescaled_final/0310_fw.mp4	0.0	78.27776646614075	0.10001850128173828
5	61.60894274711609	fix_pre	0		120	3.0	2.5	/experiments/Knapen_AOT/AOT_stimuli/rescaled_final/0413_fw.mp4	0.0	78.37778496742249	1.0084834098815918
5	62.61742615699768	movie	1		277	3.0	2.5	/experiments/Knapen_AOT/AOT_stimuli/rescaled_final/0413_fw.mp4	0.0	79.38626837730408	2.4920334815979004
5	62.99108576774597	pulse	1	t		3.0	2.5	/experiments/Knapen_AOT/AOT_stimuli/rescaled_final/0413_fw.mp4	0.0	79.75992798805237	
5	64.59080743789673	pulse	1	t		3.0	2.5	/experiments/Knapen_AOT/AOT_stimuli/rescaled_final/0413_fw.mp4	0.0	81.35964965820312	
5	65.10945963859558	fix_post	2		12	3.0	2.5	/experiments/Knapen_AOT/AOT_stimuli/rescaled_final/0413_fw.mp4	0.0	81.87830185890198	0.10002803802490234
6	65.20948767662048	fix_pre	0		119	4.0	2.5	/experiments/Knapen_AOT/AOT_stimuli/rescaled_final/1827_rv.mp4	0.0	81.97832989692688	1.0001308917999268
6	66.19309449195862	pulse	0	t		4.0	2.5	/experiments/Knapen_AOT/AOT_stimuli/rescaled_final/1827_rv.mp4	0.0	82.96193671226501	
6	66.20961856842041	movie	1		287	4.0	2.5	/experiments/Knapen_AOT/AOT_stimuli/rescaled_final/1827_rv.mp4	0.0	82.9784607887268	2.500473737716675
6	67.79211068153381	pulse	1	t		4.0	2.5	/experiments/Knapen_AOT/AOT_stimuli/rescaled_final/1827_rv.mp4	0.0	84.56095290184021	
6	68.71009230613708	fix_post	2		12	4.0	2.5	/experiments/Knapen_AOT/AOT_stimuli/rescaled_final/1827_rv.mp4	0.0	85.47893452644348	0.10003924369812012
7	68.8101315498352	fix_pre	0		120	5.0	2.5	/experiments/Knapen_AOT/AOT_stimuli/rescaled_final/1919_rv.mp4	0.0	85.5789737701416	1.0084028244018555
7	69.39370536804199	pulse	0	t		5.0	2.5	/experiments/Knapen_AOT/AOT_stimuli/rescaled_final/1919_rv.mp4	0.0	86.16254758834839	
7	69.81853437423706	movie	1		288	5.0	2.5	/experiments/Knapen_AOT/AOT_stimuli/rescaled_final/1919_rv.mp4	0.0	86.58737659454346	2.4920058250427246
7	70.99221110343933	pulse	1	t		5.0	2.5	/experiments/Knapen_AOT/AOT_stimuli/rescaled_final/1919_rv.mp4	0.0	87.76105332374573	
7	72.31054019927979	fix_post	2		12	5.0	2.5	/experiments/Knapen_AOT/AOT_stimuli/rescaled_final/1919_rv.mp4	0.0	89.07938241958618	0.10002422332763672
8	72.41056442260742	fix_pre	0		120	6.0	2.5	/experiments/Knapen_AOT/AOT_stimuli/rescaled_final/2157_rv.mp4	0.0	89.17940664291382	1.008495569229126
8	72.59410452842712	pulse	0	t		6.0	2.5	/experiments/Knapen_AOT/AOT_stimuli/rescaled_final/2157_rv.mp4	0.0	89.36294674873352	
8	73.41905999183655	movie	1		277	6.0	2.5	/experiments/Knapen_AOT/AOT_stimuli/rescaled_final/2157_rv.mp4	0.0	90.18790221214294	2.4920454025268555
8	74.19204878807068	pulse	1	t		6.0	2.5	/experiments/Knapen_AOT/AOT_stimuli/rescaled_final/2157_rv.mp4	0.0	90.96089100837708	
8	75.79261374473572	pulse	1	t		6.0	2.5	/experiments/Knapen_AOT/AOT_stimuli/rescaled_final/2157_rv.mp4	0.0	92.56145596504211	
8	75.9111053943634	fix_post	2		12	6.0	2.5	/experiments/Knapen_AOT/AOT_stimuli/rescaled_final/2157_rv.mp4	0.0	92.6799476146698	0.10000157356262207
9	76.01110696792603	fix_pre	0		120	7.0	2.5	blank	1.0	92.77994918823242	1.0001404285430908
9	77.01124739646912	movie	1		300	7.0	2.5	blank	1.0	93.78008961677551	2.5003855228424072
9	77.39479470252991	pulse	1	t		7.0	2.5	blank	1.0	94.1636369228363	
9	78.99504971504211	pulse	1	t		7.0	2.5	blank	1.0	95.76389193534851	
9	79.51163291931152	fix_post	2		12	7.0	2.5	blank	1.0	96.28047513961792	0.1000223159790039
10	79.61165523529053	fix_pre	0		119	8.0	2.5	/experiments/Knapen_AOT/AOT_stimuli/rescaled_final/0405_rv.mp4	0.0	96.38049745559692	1.0001771450042725
10	80.59530138969421	pulse	0	t		8.0	2.5	/experiments/Knapen_AOT/AOT_stimuli/rescaled_final/0405_rv.mp4	0.0	97.36414361000061	
10	80.6118323802948	movie	1		295	8.0	2.5	/experiments/Knapen_AOT/AOT_stimuli/rescaled_final/0405_rv.mp4	0.0	97.3806746006012	2.500344753265381
10	82.19412922859192	pulse	1	t		8.0	2.5	/experiments/Knapen_AOT/AOT_stimuli/rescaled_final/0405_rv.mp4	0.0	98.96297144889832	
10	83.11217713356018	fix_post	2		12	8.0	2.5	/experiments/Knapen_AOT/AOT_stimuli/rescaled_final/0405_rv.mp4	0.0	99.88101935386658	0.10000777244567871
11	83.21218490600586	fix_pre	0		120	9.0	2.5	/experiments/Knapen_AOT/AOT_stimuli/rescaled_final/1536_rv.mp4	0.0	99.98102712631226	1.0085043907165527
11	83.79580545425415	pulse	0	t		9.0	2.5	/experiments/Knapen_AOT/AOT_stimuli/rescaled_final/1536_rv.mp4	0.0	100.56464767456055	
11	84.22068929672241	movie	1		278	9.0	2.5	/experiments/Knapen_AOT/AOT_stimuli/rescaled_final/1536_rv.mp4	0.0	100.98953151702881	2.4920225143432617
11	85.39613556861877	pulse	1	t		9.0	2.5	/experiments/Knapen_AOT/AOT_stimuli/rescaled_final/1536_rv.mp4	0.0	102.16497778892517	
11	86.71271181106567	fix_post	2		12	9.0	2.5	/experiments/Knapen_AOT/AOT_stimuli/rescaled_final/1536_rv.mp4	0.0	103.48155403137207	0.10003805160522461
12	86.8127498626709	fix_pre	0		120	10.0	2.5	/experiments/Knapen_AOT/AOT_stimuli/rescaled_final/1491_rv.mp4	0.0	103.5815920829773	1.0084800720214844
12	86.99632096290588	pulse	0	t		10.0	2.5	/experiments/Knapen_AOT/AOT_stimuli/rescaled_final/1491_rv.mp4	0.0	103.76516318321228	
12	87.82122993469238	movie	1		279	10.0	2.5	/experiments/Knapen_AOT/AOT_stimuli/rescaled_final/1491_rv.mp4	0.0	104.59007215499878	2.4920759201049805
12	88.59519696235657	pulse	1	t		10.0	2.5	/experiments/Knapen_AOT/AOT_stimuli/rescaled_final/1491_rv.mp4	0.0	105.36403918266296	
12	90.19696617126465	pulse	1	t		10.0	2.5	/experiments/Knapen_AOT/AOT_stimuli/rescaled_final/1491_rv.mp4	0.0	106.96580839157104	
12	90.31330585479736	fix_post	2		12	10.0	2.5	/experiments/Knapen_AOT/AOT_stimuli/rescaled_final/1491_rv.mp4	0.0	107.08214807510376	0.09997987747192383
13	90.41328573226929	fix_pre	0		120	11.0	2.5	/experiments/Knapen_AOT/AOT_stimuli/rescaled_final/0484_rv.mp4	0.0	107.18212795257568	1.008514165878296
13	91.42179989814758	movie	1		281	11.0	2.5	/experiments/Knapen_AOT/AOT_stimuli/rescaled_final/0484_rv.mp4	0.0	108.19064211845398	2.492185354232788
13	91.79607009887695	pulse	1	t		11.0	2.5	/experiments/Knapen_AOT/AOT_stimuli/rescaled_final/0484_rv.mp4	0.0	108.56491231918335	
13	93.39516735076904	pulse	1	t		11.0	2.5	/experiments/Knapen_AOT/AOT_stimuli/rescaled_final/0484_rv.mp4	0.0	110.16400957107544	
13	93.91398525238037	fix_post	2		12	11.0	2.5	/experiments/Knapen_AOT/AOT_stimuli/rescaled_final/0484_rv.mp4	0.0	110.68282747268677	0.09983706474304199
14	94.01382231712341	fix_pre	0		119	12.0	2.5	blank	1.0	110.78266453742981	0.9917988777160645
14	94.99040079116821	pulse	0	t		12.0	2.5	blank	1.0	111.75924301147461	
14	95.00562119483948	movie	1		301	12.0	2.5	blank	1.0	111.77446341514587	2.508737087249756
14	96.5897524356842	pulse	1	t		12.0	2.5	blank	1.0	113.3585946559906	
14	97.51435828208923	fix_post	2		12	12.0	2.5	blank	1.0	114.28320050239563	0.10002708435058594
15	97.61438536643982	fix_pre	0		120	13.0	2.5	/experiments/Knapen_AOT/AOT_stimuli/rescaled_final/0820_fw.mp4	0.0	114.38322758674622	1.0084857940673828
15	98.18977904319763	pulse	0	t		13.0	2.5	/experiments/Knapen_AOT/AOT_stimuli/rescaled_final/0820_fw.mp4	0.0	114.95862126350403	
15	98.6228711605072	movie	1		274	13.0	2.5	/experiments/Knapen_AOT/AOT_stimuli/rescaled_final/0820_fw.mp4	0.0	115.3917133808136	2.4920248985290527
15	99.7898542881012	pulse	1	t		13.0	2.5	/experiments/Knapen_AOT/AOT_stimuli/rescaled_final/0820_fw.mp4	0.0	116.55869650840759	
15	101.11489605903625	fix_post	2		12	13.0	2.5	/experiments/Knapen_AOT/AOT_stimuli/rescaled_final/0820_fw.mp4	0.0	117.88373827934265	0.10001230239868164
16	101.21490836143494	fix_pre	0		120	14.0	2.5	/experiments/Knapen_AOT/AOT_stimuli/rescaled_final/0087_rv.mp4	0.0	117.98375058174133	1.0086243152618408
16	101.39010739326477	pulse	0	t		14.0	2.5	/experiments/Knapen_AOT/AOT_stimuli/rescaled_final/0087_rv.mp4	0.0	118.15894961357117	
16	102.22353267669678	movie	1		283	14.0	2.5	/experiments/Knapen_AOT/AOT_stimuli/rescaled_final/0087_rv.mp4	0.0	118.99237489700317	2.4918885231018066
16	102.99034905433655	pulse	1	t		14.0	2.5	/experiments/Knapen_AOT/AOT_stimuli/rescaled_final/0087_rv.mp4	0.0	119.75919127464294	
16	104.59057402610779	pulse	1	t		14.0	2.5	/experiments/Knapen_AOT/AOT_stimuli/rescaled_final/0087_rv.mp4	0.0	121.35941624641418	
16	104.71542119979858	fix_post	2		12	14.0	2.5	/experiments/Knapen_AOT/AOT_stimuli/rescaled_final/0087_rv.mp4	0.0	121.48426342010498	0.10001993179321289
17	104.8154411315918	fix_pre	0		120	15.0	2.5	/experiments/Knapen_AOT/AOT_stimuli/rescaled_final/1610_fw.mp4	0.0	121.5842833518982	1.0085077285766602
17	105.82394886016846	movie	1		289	15.0	2.5	/experiments/Knapen_AOT/AOT_stimuli/rescaled_final/1610_fw.mp4	0.0	122.59279108047485	2.492025375366211
17	106.19087743759155	pulse	1	t		15.0	2.5	/experiments/Knapen_AOT/AOT_stimuli/rescaled_final/1610_fw.mp4	0.0	122.95971965789795	
17	107.79105520248413	pulse	1	t		15.0	2.5	/experiments/Knapen_AOT/AOT_stimuli/rescaled_final/1610_fw.mp4	0.0	124.55989742279053	
17	108.31597423553467	fix_post	2		12	15.0	2.5	/experiments/Knapen_AOT/AOT_stimuli/rescaled_final/1610_fw.mp4	0.0	125.08481645584106	0.10001182556152344
18	108.41598606109619	fix_pre	0		118	16.0	2.5	/experiments/Knapen_AOT/AOT_stimuli/rescaled_final/0910_rv.mp4	0.0	125.18482828140259	0.991875171661377
18	109.3914008140564	pulse	0	t		16.0	2.5	/experiments/Knapen_AOT/AOT_stimuli/rescaled_final/0910_rv.mp4	0.0	126.1602430343628	
18	109.40786123275757	movie	1		278	16.0	2.5	/experiments/Knapen_AOT/AOT_stimuli/rescaled_final/0910_rv.mp4	0.0	126.17670345306396	2.500321388244629
18	110.99024081230164	pulse	1	t		16.0	2.5	/experiments/Knapen_AOT/AOT_stimuli/rescaled_final/0910_rv.mp4	0.0	127.75908303260803	
18	111.9081826210022	fix_post	2		12	16.0	2.5	/experiments/Knapen_AOT/AOT_stimuli/rescaled_final/0910_rv.mp4	0.0	128.6770248413086	0.09999275207519531
19	112.00817537307739	fix_pre	0		120	17.0	2.5	/experiments/Knapen_AOT/AOT_stimuli/rescaled_final/1475_fw.mp4	0.0	128.7770175933838	1.0085151195526123
19	112.59179091453552	pulse	0	t		17.0	2.5	/experiments/Knapen_AOT/AOT_stimuli/rescaled_final/1475_fw.mp4	0.0	129.36063313484192	
19	113.01669049263	movie	1		285	17.0	2.5	/experiments/Knapen_AOT/AOT_stimuli/rescaled_final/1475_fw.mp4	0.0	129.7855327129364	2.492055892944336
19	114.19019150733948	pulse	1	t		17.0	2.5	/experiments/Knapen_AOT/AOT_stimuli/rescaled_final/1475_fw.mp4	0.0	130.95903372764587	
19	115.50874638557434	fix_post	2		12	17.0	2.5	/experiments/Knapen_AOT/AOT_stimuli/rescaled_final/1475_fw.mp4	0.0	132.27758860588074	0.10004997253417969
20	115.60879635810852	fix_pre	0		120	18.0	2.5	/experiments/Knapen_AOT/AOT_stimuli/rescaled_final/1416_fw.mp4	0.0	132.37763857841492	1.0084221363067627
20	115.79238986968994	pulse	0	t		18.0	2.5	/experiments/Knapen_AOT/AOT_stimuli/rescaled_final/1416_fw.mp4	0.0	132.56123208999634	
20	116.61721849441528	movie	1		291	18.0	2.5	/experiments/Knapen_AOT/AOT_stimuli/rescaled_final/1416_fw.mp4	0.0	133.38606071472168	2.492041826248169
20	117.39038443565369	pulse	1	t		18.0	2.5	/experiments/Knapen_AOT/AOT_stimuli/rescaled_final/1416_fw.mp4	0.0	134.15922665596008	
20	118.99095058441162	pulse	1	t		18.0	2.5	/experiments/Knapen_AOT/AOT_stimuli/rescaled_final/1416_fw.mp4	0.0	135.75979280471802	
20	119.10926032066345	fix_post	2		12	18.0	2.5	/experiments/Knapen_AOT/AOT_stimuli/rescaled_final/1416_fw.mp4	0.0	135.87810254096985	0.10005354881286621
21	119.20931386947632	fix_pre	0		120	19.0	2.5	/experiments/Knapen_AOT/AOT_stimuli/rescaled_final/0527_rv.mp4	0.0	135.97815608978271	1.0084655284881592
21	120.21777939796448	movie	1		286	19.0	2.5	/experiments/Knapen_AOT/AOT_stimuli/rescaled_final/0527_rv.mp4	0.0	136.98662161827087	2.492046594619751
21	120.5912344455719	pulse	1	t		19.0	2.5	/experiments/Knapen_AOT/AOT_stimuli/rescaled_final/0527_rv.mp4	0.0	137.3600766658783	
21	122.19119691848755	pulse	1	t		19.0	2.5	/experiments/Knapen_AOT/AOT_stimuli/rescaled_final/0527_rv.mp4	0.0	138.96003913879395	
21	122.70982599258423	fix_post	2		12	19.0	2.5	/experiments/Knapen_AOT/AOT_stimuli/rescaled_final/0527_rv.mp4	0.0	139.47866821289062	0.09998798370361328
22	122.80981397628784	fix_pre	0		119	20.0	2.5	blank	1.0	139.57865619659424	0.9918239116668701
22	123.79357385635376	pulse	0	t		20.0	2.5	blank	1.0	140.56241607666016	
22	123.80163788795471	movie	1		301	20.0	2.5	blank	1.0	140.5704801082611	2.508723258972168
22	125.39375758171082	pulse	1	t		20.0	2.5	blank	1.0	142.1625998020172	
22	126.31036114692688	fix_post	2		12	20.0	2.5	blank	1.0	143.07920336723328	0.100006103515625
23	126.4103672504425	fix_pre	0		120	21.0	2.5	/experiments/Knapen_AOT/AOT_stimuli/rescaled_final/0978_rv.mp4	0.0	143.1792094707489	1.0084853172302246
23	126.99393463134766	pulse	0	t		21.0	2.5	/experiments/Knapen_AOT/AOT_stimuli/rescaled_final/0978_rv.mp4	0.0	143.76277685165405	
23	127.41885256767273	movie	1		284	21.0	2.5	/experiments/Knapen_AOT/AOT_stimuli/rescaled_final/0978_rv.mp4	0.0	144.18769478797913	2.4920308589935303
23	128.592218875885	pulse	1	t		21.0	2.5	/experiments/Knapen_AOT/AOT_stimuli/rescaled_final/0978_rv.mp4	0.0	145.3610610961914	
23	129.91088342666626	fix_post	2		12	21.0	2.5	/experiments/Knapen_AOT/AOT_stimuli/rescaled_final/0978_rv.mp4	0.0	146.67972564697266	0.10001683235168457
24	130.01090025901794	fix_pre	0		120	22.0	2.5	/experiments/Knapen_AOT/AOT_stimuli/rescaled_final/0535_rv.mp4	0.0	146.77974247932434	1.0085043907165527
24	130.19441294670105	pulse	0	t		22.0	2.5	/experiments/Knapen_AOT/AOT_stimuli/rescaled_final/0535_rv.mp4	0.0	146.96325516700745	
24	131.0194046497345	movie	1		280	22.0	2.5	/experiments/Knapen_AOT/AOT_stimuli/rescaled_final/0535_rv.mp4	0.0	147.7882468700409	2.492208242416382
24	131.792489528656	pulse	1	t		22.0	2.5	/experiments/Knapen_AOT/AOT_stimuli/rescaled_final/0535_rv.mp4	0.0	148.5613317489624	
24	133.39379858970642	pulse	1	t		22.0	2.5	/experiments/Knapen_AOT/AOT_stimuli/rescaled_final/0535_rv.mp4	0.0	150.16264081001282	
24	133.51161289215088	fix_post	2		12	22.0	2.5	/experiments/Knapen_AOT/AOT_stimuli/rescaled_final/0535_rv.mp4	0.0	150.28045511245728	0.09982681274414062
25	133.61143970489502	fix_pre	0		120	23.0	2.5	/experiments/Knapen_AOT/AOT_stimuli/rescaled_final/0368_rv.mp4	0.0	150.38028192520142	1.008481740951538
25	134.61992144584656	movie	1		272	23.0	2.5	/experiments/Knapen_AOT/AOT_stimuli/rescaled_final/0368_rv.mp4	0.0	151.38876366615295	2.4920430183410645
25	134.99437618255615	pulse	1	t		23.0	2.5	/experiments/Knapen_AOT/AOT_stimuli/rescaled_final/0368_rv.mp4	0.0	151.76321840286255	
25	136.59333038330078	pulse	1	t		23.0	2.5	/experiments/Knapen_AOT/AOT_stimuli/rescaled_final/0368_rv.mp4	0.0	153.36217260360718	
25	137.11196446418762	fix_post	2		12	23.0	2.5	/experiments/Knapen_AOT/AOT_stimuli/rescaled_final/0368_rv.mp4	0.0	153.88080668449402	0.10002422332763672
26	137.21198868751526	fix_pre	0		119	24.0	2.5	/experiments/Knapen_AOT/AOT_stimuli/rescaled_final/0087_fw.mp4	0.0	153.98083090782166	1.000227451324463
26	138.1957983970642	pulse	0	t		24.0	2.5	/experiments/Knapen_AOT/AOT_stimuli/rescaled_final/0087_fw.mp4	0.0	154.9646406173706	
26	138.21221613883972	movie	1		290	24.0	2.5	/experiments/Knapen_AOT/AOT_stimuli/rescaled_final/0087_fw.mp4	0.0	154.98105835914612	2.5003082752227783
26	139.79442596435547	pulse	1	t		24.0	2.5	/experiments/Knapen_AOT/AOT_stimuli/rescaled_final/0087_fw.mp4	0.0	156.56326818466187	
26	140.7125244140625	fix_post	2		12	24.0	2.5	/experiments/Knapen_AOT/AOT_stimuli/rescaled_final/0087_fw.mp4	0.0	157.4813666343689	0.10000371932983398
27	140.81252813339233	fix_pre	0		120	25.0	2.5	/experiments/Knapen_AOT/AOT_stimuli/rescaled_final/1710_rv.mp4	0.0	157.58137035369873	1.0085184574127197
27	141.39612340927124	pulse	0	t		25.0	2.5	/experiments/Knapen_AOT/AOT_stimuli/rescaled_final/1710_rv.mp4	0.0	158.16496562957764	
27	141.82104659080505	movie	1		290	25.0	2.5	/experiments/Knapen_AOT/AOT_stimuli/rescaled_final/1710_rv.mp4	0.0	158.58988881111145	2.4920079708099365
27	142.9949905872345	pulse	1	t		25.0	2.5	/experiments/Knapen_AOT/AOT_stimuli/rescaled_final/1710_rv.mp4	0.0	159.7638328075409	
27	144.313054561615	fix_post	2		12	25.0	2.5	/experiments/Knapen_AOT/AOT_stimuli/rescaled_final/1710_rv.mp4	0.0	161.0818967819214	0.1000063419342041
28	144.4130609035492	fix_pre	0		120	26.0	2.5	blank	1.0	161.1819031238556	1.000148057937622
28	144.5968005657196	pulse	0	t		26.0	2.5	blank	1.0	161.365642786026	
28	145.41320896148682	movie	1		300	26.0	2.5	blank	1.0	162.1820511817932	2.500383138656616
28	146.19711089134216	pulse	1	t		26.0	2.5	blank	1.0	162.96595311164856	
28	147.79704904556274	pulse	1	t		26.0	2.5	blank	1.0	164.56589126586914	
28	147.91359210014343	fix_post	2		12	26.0	2.5	blank	1.0	164.68243432044983	0.10001230239868164
29	148.01360440254211	fix_pre	0		120	27.0	2.5	/experiments/Knapen_AOT/AOT_stimuli/rescaled_final/1793_rv.mp4	0.0	164.7824466228485	1.0085251331329346
29	149.02212953567505	movie	1		288	27.0	2.5	/experiments/Knapen_AOT/AOT_stimuli/rescaled_final/1793_rv.mp4	0.0	165.79097175598145	2.491992235183716
29	149.3958294391632	pulse	1	t		27.0	2.5	/experiments/Knapen_AOT/AOT_stimuli/rescaled_final/1793_rv.mp4	0.0	166.1646716594696	
29	150.99556183815002	pulse	1	t		27.0	2.5	/experiments/Knapen_AOT/AOT_stimuli/rescaled_final/1793_rv.mp4	0.0	167.76440405845642	
29	151.51412177085876	fix_post	2		12	27.0	2.5	/experiments/Knapen_AOT/AOT_stimuli/rescaled_final/1793_rv.mp4	0.0	168.28296399116516	0.10002803802490234
30	151.61414980888367	fix_pre	0		119	28.0	2.5	/experiments/Knapen_AOT/AOT_stimuli/rescaled_final/1037_rv.mp4	0.0	168.38299202919006	1.000173568725586
30	152.597971200943	pulse	0	t		28.0	2.5	/experiments/Knapen_AOT/AOT_stimuli/rescaled_final/1037_rv.mp4	0.0	169.3668134212494	
30	152.61432337760925	movie	1		286	28.0	2.5	/experiments/Knapen_AOT/AOT_stimuli/rescaled_final/1037_rv.mp4	0.0	169.38316559791565	2.5003769397735596
30	154.19664192199707	pulse	1	t		28.0	2.5	/experiments/Knapen_AOT/AOT_stimuli/rescaled_final/1037_rv.mp4	0.0	170.96548414230347	
30	155.1147003173828	fix_post	2		12	28.0	2.5	/experiments/Knapen_AOT/AOT_stimuli/rescaled_final/1037_rv.mp4	0.0	171.8835425376892	0.1000823974609375
31	155.21478271484375	fix_pre	0		120	29.0	2.5	/experiments/Knapen_AOT/AOT_stimuli/rescaled_final/0104_fw.mp4	0.0	171.98362493515015	1.0084171295166016
31	155.7902581691742	pulse	0	t		29.0	2.5	/experiments/Knapen_AOT/AOT_stimuli/rescaled_final/0104_fw.mp4	0.0	172.5591003894806	
31	156.22319984436035	movie	1		283	29.0	2.5	/experiments/Knapen_AOT/AOT_stimuli/rescaled_final/0104_fw.mp4	0.0	172.99204206466675	2.4920296669006348
31	157.39029264450073	pulse	1	t		29.0	2.5	/experiments/Knapen_AOT/AOT_stimuli/rescaled_final/0104_fw.mp4	0.0	174.15913486480713	
31	158.715229511261	fix_post	2		12	29.0	2.5	/experiments/Knapen_AOT/AOT_stimuli/rescaled_final/0104_fw.mp4	0.0	175.48407173156738	0.10002613067626953
32	158.81525564193726	fix_pre	0		120	30.0	2.5	/experiments/Knapen_AOT/AOT_stimuli/rescaled_final/0527_fw.mp4	0.0	175.58409786224365	1.008495807647705
32	158.99046683311462	pulse	0	t		30.0	2.5	/experiments/Knapen_AOT/AOT_stimuli/rescaled_final/0527_fw.mp4	0.0	175.75930905342102	
32	159.82375144958496	movie	1		283	30.0	2.5	/experiments/Knapen_AOT/AOT_stimuli/rescaled_final/0527_fw.mp4	0.0	176.59259366989136	2.492058515548706
32	160.59071683883667	pulse	1	t		30.0	2.5	/experiments/Knapen_AOT/AOT_stimuli/rescaled_final/0527_fw.mp4	0.0	177.35955905914307	
32	162.1902461051941	pulse	1	t		30.0	2.5	/experiments/Knapen_AOT/AOT_stimuli/rescaled_final/0527_fw.mp4	0.0	178.9590883255005	
32	162.31580996513367	fix_post	2		12	30.0	2.5	/experiments/Knapen_AOT/AOT_stimuli/rescaled_final/0527_fw.mp4	0.0	179.08465218544006	0.09999775886535645
33	162.41580772399902	fix_pre	0		120	31.0	2.5	/experiments/Knapen_AOT/AOT_stimuli/rescaled_final/0413_rv.mp4	0.0	179.18464994430542	1.0084521770477295
33	163.42425990104675	movie	1		277	31.0	2.5	/experiments/Knapen_AOT/AOT_stimuli/rescaled_final/0413_rv.mp4	0.0	180.19310212135315	2.4920339584350586
33	163.79101610183716	pulse	1	t		31.0	2.5	/experiments/Knapen_AOT/AOT_stimuli/rescaled_final/0413_rv.mp4	0.0	180.55985832214355	
33	165.39142966270447	pulse	1	t		31.0	2.5	/experiments/Knapen_AOT/AOT_stimuli/rescaled_final/0413_rv.mp4	0.0	182.16027188301086	
33	165.9162938594818	fix_post	2		12	31.0	2.5	/experiments/Knapen_AOT/AOT_stimuli/rescaled_final/0413_rv.mp4	0.0	182.6851360797882	0.1000220775604248
34	166.01631593704224	fix_pre	0		118	32.0	2.5	/experiments/Knapen_AOT/AOT_stimuli/rescaled_final/0541_fw.mp4	0.0	182.78515815734863	0.9918279647827148
34	166.99163961410522	pulse	0	t		32.0	2.5	/experiments/Knapen_AOT/AOT_stimuli/rescaled_final/0541_fw.mp4	0.0	183.76048183441162	
34	167.00814390182495	movie	1		282	32.0	2.5	/experiments/Knapen_AOT/AOT_stimuli/rescaled_final/0541_fw.mp4	0.0	183.77698612213135	2.500389814376831
34	168.59033942222595	pulse	1	t		32.0	2.5	/experiments/Knapen_AOT/AOT_stimuli/rescaled_final/0541_fw.mp4	0.0	185.35918164253235	
34	169.50853371620178	fix_post	2		12	32.0	2.5	/experiments/Knapen_AOT/AOT_stimuli/rescaled_final/0541_fw.mp4	0.0	186.27737593650818	0.09998536109924316
35	169.60851907730103	fix_pre	0		120	33.0	2.5	/experiments/Knapen_AOT/AOT_stimuli/rescaled_final/1827_fw.mp4	0.0	186.37736129760742	1.0085031986236572
35	170.19213771820068	pulse	0	t		33.0	2.5	/experiments/Knapen_AOT/AOT_stimuli/rescaled_final/1827_fw.mp4	0.0	186.96097993850708	
35	170.61702227592468	movie	1		290	33.0	2.5	/experiments/Knapen_AOT/AOT_stimuli/rescaled_final/1827_fw.mp4	0.0	187.38586449623108	2.4920289516448975
35	171.79071402549744	pulse	1	t		33.0	2.5	/experiments/Knapen_AOT/AOT_stimuli/rescaled_final/1827_fw.mp4	0.0	188.55955624580383	
35	173.10905122756958	fix_post	2		12	33.0	2.5	/experiments/Knapen_AOT/AOT_stimuli/rescaled_final/1827_fw.mp4	0.0	189.87789344787598	0.10004353523254395
36	173.20909476280212	fix_pre	0		120	34.0	2.5	/experiments/Knapen_AOT/AOT_stimuli/rescaled_final/0338_rv.mp4	0.0	189.97793698310852	1.0084772109985352
36	173.3925678730011	pulse	0	t		34.0	2.5	/experiments/Knapen_AOT/AOT_stimuli/rescaled_final/0338_rv.mp4	0.0	190.1614100933075	
36	174.21757197380066	movie	1		281	34.0	2.5	/experiments/Knapen_AOT/AOT_stimuli/rescaled_final/0338_rv.mp4	0.0	190.98641419410706	2.4920618534088135
36	174.99088048934937	pulse	1	t		34.0	2.5	/experiments/Knapen_AOT/AOT_stimuli/rescaled_final/0338_rv.mp4	0.0	191.75972270965576	
36	176.59125971794128	pulse	1	t		34.0	2.5	/experiments/Knapen_AOT/AOT_stimuli/rescaled_final/0338_rv.mp4	0.0	193.36010193824768	
36	176.70963382720947	fix_post	2		12	34.0	2.5	/experiments/Knapen_AOT/AOT_stimuli/rescaled_final/0338_rv.mp4	0.0	193.47847604751587	0.0999610424041748
37	176.80959486961365	fix_pre	0		120	35.0	2.5	blank	1.0	193.57843708992004	1.000213861465454
37	177.8098087310791	movie	1		300	35.0	2.5	blank	1.0	194.5786509513855	2.5003128051757812
37	178.1933832168579	pulse	1	t		35.0	2.5	blank	1.0	194.9622254371643	
37	179.7935118675232	pulse	1	t		35.0	2.5	blank	1.0	196.5623540878296	
37	180.31012153625488	fix_post	2		12	35.0	2.5	blank	1.0	197.07896375656128	0.1000969409942627
38	180.41021847724915	fix_pre	0		119	36.0	2.5	/experiments/Knapen_AOT/AOT_stimuli/rescaled_final/1298_rv.mp4	0.0	197.17906069755554	1.000110149383545
38	181.3938000202179	pulse	0	t		36.0	2.5	/experiments/Knapen_AOT/AOT_stimuli/rescaled_final/1298_rv.mp4	0.0	198.1626422405243	
38	181.4103286266327	movie	1		272	36.0	2.5	/experiments/Knapen_AOT/AOT_stimuli/rescaled_final/1298_rv.mp4	0.0	198.1791708469391	2.5003535747528076
38	182.99244499206543	pulse	1	t		36.0	2.5	/experiments/Knapen_AOT/AOT_stimuli/rescaled_final/1298_rv.mp4	0.0	199.76128721237183	
38	183.9106822013855	fix_post	2		12	36.0	2.5	/experiments/Knapen_AOT/AOT_stimuli/rescaled_final/1298_rv.mp4	0.0	200.6795244216919	0.10001778602600098
39	184.0106999874115	fix_pre	0		120	37.0	2.5	/experiments/Knapen_AOT/AOT_stimuli/rescaled_final/0937_fw.mp4	0.0	200.7795422077179	1.0085220336914062
39	184.5943238735199	pulse	0	t		37.0	2.5	/experiments/Knapen_AOT/AOT_stimuli/rescaled_final/0937_fw.mp4	0.0	201.3631660938263	
39	185.0192220211029	movie	1		294	37.0	2.5	/experiments/Knapen_AOT/AOT_stimuli/rescaled_final/0937_fw.mp4	0.0	201.7880642414093	2.4919774532318115
39	186.19298911094666	pulse	1	t		37.0	2.5	/experiments/Knapen_AOT/AOT_stimuli/rescaled_final/0937_fw.mp4	0.0	202.96183133125305	
39	187.51119947433472	fix_post	2		12	37.0	2.5	/experiments/Knapen_AOT/AOT_stimuli/rescaled_final/0937_fw.mp4	0.0	204.2800416946411	0.1000676155090332
40	187.61126708984375	fix_pre	0		120	38.0	2.5	/experiments/Knapen_AOT/AOT_stimuli/rescaled_final/2091_fw.mp4	0.0	204.38010931015015	1.0084919929504395
40	187.79469680786133	pulse	0	t		38.0	2.5	/experiments/Knapen_AOT/AOT_stimuli/rescaled_final/2091_fw.mp4	0.0	204.56353902816772	
40	188.6197590827942	movie	1		295	38.0	2.5	/experiments/Knapen_AOT/AOT_stimuli/rescaled_final/2091_fw.mp4	0.0	205.3886013031006	2.491973400115967
40	189.3906054496765	pulse	1	t		38.0	2.5	/experiments/Knapen_AOT/AOT_stimuli/rescaled_final/2091_fw.mp4	0.0	206.1594476699829	
40	190.9908766746521	pulse	1	t		38.0	2.5	/experiments/Knapen_AOT/AOT_stimuli/rescaled_final/2091_fw.mp4	0.0	207.7597188949585	
40	191.11173248291016	fix_post	2		12	38.0	2.5	/experiments/Knapen_AOT/AOT_stimuli/rescaled_final/2091_fw.mp4	0.0	207.88057470321655	0.10001397132873535
41	191.2117464542389	fix_pre	0		120	39.0	2.5	/experiments/Knapen_AOT/AOT_stimuli/rescaled_final/1752_rv.mp4	0.0	207.9805886745453	1.0001568794250488
41	192.21190333366394	movie	1		291	39.0	2.5	/experiments/Knapen_AOT/AOT_stimuli/rescaled_final/1752_rv.mp4	0.0	208.98074555397034	2.500406265258789
41	192.59309840202332	pulse	1	t		39.0	2.5	/experiments/Knapen_AOT/AOT_stimuli/rescaled_final/1752_rv.mp4	0.0	209.3619406223297	
41	194.19140148162842	pulse	1	t		39.0	2.5	/experiments/Knapen_AOT/AOT_stimuli/rescaled_final/1752_rv.mp4	0.0	210.96024370193481	
41	194.71230959892273	fix_post	2		12	39.0	2.5	/experiments/Knapen_AOT/AOT_stimuli/rescaled_final/1752_rv.mp4	0.0	211.48115181922913	0.09996676445007324
42	194.8122763633728	fix_pre	0		119	40.0	2.5	/experiments/Knapen_AOT/AOT_stimuli/rescaled_final/1536_fw.mp4	0.0	211.5811185836792	1.0002388954162598
42	195.79598259925842	pulse	0	t		40.0	2.5	/experiments/Knapen_AOT/AOT_stimuli/rescaled_final/1536_fw.mp4	0.0	212.56482481956482	
42	195.81251525878906	movie	1		295	40.0	2.5	/experiments/Knapen_AOT/AOT_stimuli/rescaled_final/1536_fw.mp4	0.0	212.58135747909546	2.50030255317688
42	197.39507579803467	pulse	1	t		40.0	2.5	/experiments/Knapen_AOT/AOT_stimuli/rescaled_final/1536_fw.mp4	0.0	214.16391801834106	
42	198.31281781196594	fix_post	2		12	40.0	2.5	/experiments/Knapen_AOT/AOT_stimuli/rescaled_final/1536_fw.mp4	0.0	215.08166003227234	0.10002374649047852
43	198.41284155845642	fix_pre	0		120	41.0	2.5	blank	1.0	215.18168377876282	1.0001487731933594
43	198.99636459350586	pulse	0	t		41.0	2.5	blank	1.0	215.76520681381226	
43	199.41299033164978	movie	1		300	41.0	2.5	blank	1.0	216.18183255195618	2.5003950595855713
43	200.59009742736816	pulse	1	t		41.0	2.5	blank	1.0	217.35893964767456	
43	201.91338539123535	fix_post	2		12	41.0	2.5	blank	1.0	218.68222761154175	0.10004162788391113
44	202.01342701911926	fix_pre	0		120	42.0	2.5	/experiments/Knapen_AOT/AOT_stimuli/rescaled_final/0812_fw.mp4	0.0	218.78226923942566	1.0084786415100098
44	202.19694066047668	pulse	0	t		42.0	2.5	/experiments/Knapen_AOT/AOT_stimuli/rescaled_final/0812_fw.mp4	0.0	218.96578288078308	
44	203.02190566062927	movie	1		286	42.0	2.5	/experiments/Knapen_AOT/AOT_stimuli/rescaled_final/0812_fw.mp4	0.0	219.79074788093567	2.492021083831787
44	203.79531359672546	pulse	1	t		42.0	2.5	/experiments/Knapen_AOT/AOT_stimuli/rescaled_final/0812_fw.mp4	0.0	220.56415581703186	
44	205.39554357528687	pulse	1	t		42.0	2.5	/experiments/Knapen_AOT/AOT_stimuli/rescaled_final/0812_fw.mp4	0.0	222.16438579559326	
44	205.51392674446106	fix_post	2		12	42.0	2.5	/experiments/Knapen_AOT/AOT_stimuli/rescaled_final/0812_fw.mp4	0.0	222.28276896476746	0.10001516342163086
45	205.6139419078827	fix_pre	0		120	43.0	2.5	/experiments/Knapen_AOT/AOT_stimuli/rescaled_final/1544_rv.mp4	0.0	222.3827841281891	1.0085129737854004
45	206.6224548816681	movie	1		283	43.0	2.5	/experiments/Knapen_AOT/AOT_stimuli/rescaled_final/1544_rv.mp4	0.0	223.3912971019745	2.492013692855835
45	206.98960542678833	pulse	1	t		43.0	2.5	/experiments/Knapen_AOT/AOT_stimuli/rescaled_final/1544_rv.mp4	0.0	223.75844764709473	
45	208.5898952484131	pulse	1	t		43.0	2.5	/experiments/Knapen_AOT/AOT_stimuli/rescaled_final/1544_rv.mp4	0.0	225.35873746871948	
45	209.11446857452393	fix_post	2		11	43.0	2.5	/experiments/Knapen_AOT/AOT_stimuli/rescaled_final/1544_rv.mp4	0.0	225.88331079483032	0.09173989295959473
46	209.20620846748352	fix_pre	0		119	44.0	2.5	/experiments/Knapen_AOT/AOT_stimuli/rescaled_final/1619_fw.mp4	0.0	225.97505068778992	1.0001189708709717
46	210.18985223770142	pulse	0	t		44.0	2.5	/experiments/Knapen_AOT/AOT_stimuli/rescaled_final/1619_fw.mp4	0.0	226.9586944580078	
46	210.2063274383545	movie	1		281	44.0	2.5	/experiments/Knapen_AOT/AOT_stimuli/rescaled_final/1619_fw.mp4	0.0	226.9751696586609	2.5003509521484375
46	211.790194272995	pulse	1	t		44.0	2.5	/experiments/Knapen_AOT/AOT_stimuli/rescaled_final/1619_fw.mp4	0.0	228.5590364933014	
46	212.70667839050293	fix_post	2		12	44.0	2.5	/experiments/Knapen_AOT/AOT_stimuli/rescaled_final/1619_fw.mp4	0.0	229.47552061080933	0.10002470016479492
47	212.80670309066772	fix_pre	0		120	45.0	2.5	/experiments/Knapen_AOT/AOT_stimuli/rescaled_final/1161_fw.mp4	0.0	229.57554531097412	1.0085506439208984
47	213.39041876792908	pulse	0	t		45.0	2.5	/experiments/Knapen_AOT/AOT_stimuli/rescaled_final/1161_fw.mp4	0.0	230.15926098823547	
47	213.81525373458862	movie	1		285	45.0	2.5	/experiments/Knapen_AOT/AOT_stimuli/rescaled_final/1161_fw.mp4	0.0	230.58409595489502	2.491950750350952
47	214.99008202552795	pulse	1	t		45.0	2.5	/experiments/Knapen_AOT/AOT_stimuli/rescaled_final/1161_fw.mp4	0.0	231.75892424583435	
47	216.30720448493958	fix_post	2		12	45.0	2.5	/experiments/Knapen_AOT/AOT_stimuli/rescaled_final/1161_fw.mp4	0.0	233.07604670524597	0.10002684593200684
48	216.40723133087158	fix_pre	0		120	46.0	2.5	/experiments/Knapen_AOT/AOT_stimuli/rescaled_final/2157_fw.mp4	0.0	233.17607355117798	1.008512258529663
48	216.5908100605011	pulse	0	t		46.0	2.5	/experiments/Knapen_AOT/AOT_stimuli/rescaled_final/2157_fw.mp4	0.0	233.3596522808075	
48	217.41574358940125	movie	1		266	46.0	2.5	/experiments/Knapen_AOT/AOT_stimuli/rescaled_final/2157_fw.mp4	0.0	234.18458580970764	2.4920237064361572
48	218.19113278388977	pulse	1	t		46.0	2.5	/experiments/Knapen_AOT/AOT_stimuli/rescaled_final/2157_fw.mp4	0.0	234.95997500419617	
48	219.79126167297363	pulse	1	t		46.0	2.5	/experiments/Knapen_AOT/AOT_stimuli/rescaled_final/2157_fw.mp4	0.0	236.56010389328003	
48	219.9077672958374	fix_post	2		12	46.0	2.5	/experiments/Knapen_AOT/AOT_stimuli/rescaled_final/2157_fw.mp4	0.0	236.6766095161438	0.1000971794128418
49	220.00786447525024	fix_pre	0		120	47.0	2.5	/experiments/Knapen_AOT/AOT_stimuli/rescaled_final/1857_fw.mp4	0.0	236.77670669555664	1.0083982944488525
49	221.0162627696991	movie	1		283	47.0	2.5	/experiments/Knapen_AOT/AOT_stimuli/rescaled_final/1857_fw.mp4	0.0	237.7851049900055	2.4920358657836914
49	221.390305519104	pulse	1	t		47.0	2.5	/experiments/Knapen_AOT/AOT_stimuli/rescaled_final/1857_fw.mp4	0.0	238.1591477394104	
49	222.9913773536682	pulse	1	t		47.0	2.5	/experiments/Knapen_AOT/AOT_stimuli/rescaled_final/1857_fw.mp4	0.0	239.7602195739746	
49	223.5082986354828	fix_post	2		12	47.0	2.5	/experiments/Knapen_AOT/AOT_stimuli/rescaled_final/1857_fw.mp4	0.0	240.27714085578918	0.10002636909484863
50	223.60832500457764	fix_pre	0		119	48.0	2.5	/experiments/Knapen_AOT/AOT_stimuli/rescaled_final/0165_rv.mp4	0.0	240.37716722488403	1.000178337097168
50	224.5922327041626	pulse	0	t		48.0	2.5	/experiments/Knapen_AOT/AOT_stimuli/rescaled_final/0165_rv.mp4	0.0	241.361074924469	
50	224.6085033416748	movie	1		282	48.0	2.5	/experiments/Knapen_AOT/AOT_stimuli/rescaled_final/0165_rv.mp4	0.0	241.3773455619812	2.5003395080566406
50	226.19136238098145	pulse	1	t		48.0	2.5	/experiments/Knapen_AOT/AOT_stimuli/rescaled_final/0165_rv.mp4	0.0	242.96020460128784	
50	227.10884284973145	fix_post	2		12	48.0	2.5	/experiments/Knapen_AOT/AOT_stimuli/rescaled_final/0165_rv.mp4	0.0	243.87768507003784	0.10001540184020996
51	227.20885825157166	fix_pre	0		120	49.0	2.5	blank	1.0	243.97770047187805	1.000140905380249
51	227.79258823394775	pulse	0	t		49.0	2.5	blank	1.0	244.56143045425415	
51	228.2089991569519	movie	1		300	49.0	2.5	blank	1.0	244.9778413772583	2.5003788471221924
51	229.39284133911133	pulse	1	t		49.0	2.5	blank	1.0	246.16168355941772	
51	230.7093780040741	fix_post	2		12	49.0	2.5	blank	1.0	247.4782202243805	0.1000211238861084
52	230.8093991279602	fix_pre	0		120	50.0	2.5	/experiments/Knapen_AOT/AOT_stimuli/rescaled_final/1641_rv.mp4	0.0	247.5782413482666	1.008481740951538
52	230.99304795265198	pulse	0	t		50.0	2.5	/experiments/Knapen_AOT/AOT_stimuli/rescaled_final/1641_rv.mp4	0.0	247.76189017295837	
52	231.81788086891174	movie	1		269	50.0	2.5	/experiments/Knapen_AOT/AOT_stimuli/rescaled_final/1641_rv.mp4	0.0	248.58672308921814	2.4920904636383057
52	232.59130835533142	pulse	1	t		50.0	2.5	/experiments/Knapen_AOT/AOT_stimuli/rescaled_final/1641_rv.mp4	0.0	249.36015057563782	
52	234.19160628318787	pulse	1	t		50.0	2.5	/experiments/Knapen_AOT/AOT_stimuli/rescaled_final/1641_rv.mp4	0.0	250.96044850349426	
52	234.30997133255005	fix_post	2		12	50.0	2.5	/experiments/Knapen_AOT/AOT_stimuli/rescaled_final/1641_rv.mp4	0.0	251.07881355285645	0.09997749328613281
53	234.40994882583618	fix_pre	0		120	51.0	2.5	/experiments/Knapen_AOT/AOT_stimuli/rescaled_final/1179_fw.mp4	0.0	251.17879104614258	1.0085294246673584
53	235.41847825050354	movie	1		282	51.0	2.5	/experiments/Knapen_AOT/AOT_stimuli/rescaled_final/1179_fw.mp4	0.0	252.18732047080994	2.492065191268921
53	235.79204964637756	pulse	1	t		51.0	2.5	/experiments/Knapen_AOT/AOT_stimuli/rescaled_final/1179_fw.mp4	0.0	252.56089186668396	
53	237.39169144630432	pulse	1	t		51.0	2.5	/experiments/Knapen_AOT/AOT_stimuli/rescaled_final/1179_fw.mp4	0.0	254.16053366661072	
53	237.91054344177246	fix_post	2		12	51.0	2.5	/experiments/Knapen_AOT/AOT_stimuli/rescaled_final/1179_fw.mp4	0.0	254.67938566207886	0.09994220733642578
54	238.0104856491089	fix_pre	0		119	52.0	2.5	/experiments/Knapen_AOT/AOT_stimuli/rescaled_final/1908_rv.mp4	0.0	254.77932786941528	1.0085358619689941
54	238.9942786693573	pulse	0	t		52.0	2.5	/experiments/Knapen_AOT/AOT_stimuli/rescaled_final/1908_rv.mp4	0.0	255.7631208896637	
54	239.01902151107788	movie	1		281	52.0	2.5	/experiments/Knapen_AOT/AOT_stimuli/rescaled_final/1908_rv.mp4	0.0	255.78786373138428	2.4919917583465576
54	240.59289646148682	pulse	1	t		52.0	2.5	/experiments/Knapen_AOT/AOT_stimuli/rescaled_final/1908_rv.mp4	0.0	257.3617386817932	
54	241.51101326942444	fix_post	2		12	52.0	2.5	/experiments/Knapen_AOT/AOT_stimuli/rescaled_final/1908_rv.mp4	0.0	258.27985548973083	0.10003376007080078
55	241.61104702949524	fix_pre	0		120	53.0	2.5	/experiments/Knapen_AOT/AOT_stimuli/rescaled_final/1619_rv.mp4	0.0	258.37988924980164	1.0084590911865234
55	242.19471669197083	pulse	0	t		53.0	2.5	/experiments/Knapen_AOT/AOT_stimuli/rescaled_final/1619_rv.mp4	0.0	258.9635589122772	
55	242.61950612068176	movie	1		283	53.0	2.5	/experiments/Knapen_AOT/AOT_stimuli/rescaled_final/1619_rv.mp4	0.0	259.38834834098816	2.492034912109375
55	243.79301524162292	pulse	1	t		53.0	2.5	/experiments/Knapen_AOT/AOT_stimuli/rescaled_final/1619_rv.mp4	0.0	260.5618574619293	
55	245.11154103279114	fix_post	2		12	53.0	2.5	/experiments/Knapen_AOT/AOT_stimuli/rescaled_final/1619_rv.mp4	0.0	261.88038325309753	0.10007643699645996
56	245.2116174697876	fix_pre	0		120	54.0	2.5	blank	1.0	261.980459690094	1.0001206398010254
56	245.3953354358673	pulse	0	t		54.0	2.5	blank	1.0	262.1641776561737	
56	246.21173810958862	movie	1		300	54.0	2.5	blank	1.0	262.980580329895	2.5003550052642822
56	246.99539375305176	pulse	1	t		54.0	2.5	blank	1.0	263.76423597335815	
56	248.59576773643494	pulse	1	t		54.0	2.5	blank	1.0	265.36460995674133	
56	248.7120931148529	fix_post	2		12	54.0	2.5	blank	1.0	265.4809353351593	0.10001277923583984
57	248.81210589408875	fix_pre	0		120	55.0	2.5	/experiments/Knapen_AOT/AOT_stimuli/rescaled_final/1962_rv.mp4	0.0	265.58094811439514	1.008479356765747
57	249.8205852508545	movie	1		289	55.0	2.5	/experiments/Knapen_AOT/AOT_stimuli/rescaled_final/1962_rv.mp4	0.0	266.5894274711609	2.4920401573181152
57	250.19409561157227	pulse	1	t		55.0	2.5	/experiments/Knapen_AOT/AOT_stimuli/rescaled_final/1962_rv.mp4	0.0	266.96293783187866	
57	251.79403042793274	pulse	1	t		55.0	2.5	/experiments/Knapen_AOT/AOT_stimuli/rescaled_final/1962_rv.mp4	0.0	268.56287264823914	
57	252.3126254081726	fix_post	2		12	55.0	2.5	/experiments/Knapen_AOT/AOT_stimuli/rescaled_final/1962_rv.mp4	0.0	269.081467628479	0.10000300407409668
58	252.4126284122467	fix_pre	0		119	56.0	2.5	/experiments/Knapen_AOT/AOT_stimuli/rescaled_final/1962_fw.mp4	0.0	269.1814706325531	1.0002636909484863
58	253.39643549919128	pulse	0	t		56.0	2.5	/experiments/Knapen_AOT/AOT_stimuli/rescaled_final/1962_fw.mp4	0.0	270.1652777194977	
58	253.4128921031952	movie	1		284	56.0	2.5	/experiments/Knapen_AOT/AOT_stimuli/rescaled_final/1962_fw.mp4	0.0	270.1817343235016	2.5002760887145996
58	254.9952416419983	pulse	1	t		56.0	2.5	/experiments/Knapen_AOT/AOT_stimuli/rescaled_final/1962_fw.mp4	0.0	271.7640838623047	
58	255.9131681919098	fix_post	2		12	56.0	2.5	/experiments/Knapen_AOT/AOT_stimuli/rescaled_final/1962_fw.mp4	0.0	272.6820104122162	0.10002017021179199
59	256.0131883621216	fix_pre	0		120	57.0	2.5	/experiments/Knapen_AOT/AOT_stimuli/rescaled_final/1539_rv.mp4	0.0	272.782030582428	1.00850248336792
59	256.5968346595764	pulse	0	t		57.0	2.5	/experiments/Knapen_AOT/AOT_stimuli/rescaled_final/1539_rv.mp4	0.0	273.3656768798828	
59	257.0216908454895	movie	1		282	57.0	2.5	/experiments/Knapen_AOT/AOT_stimuli/rescaled_final/1539_rv.mp4	0.0	273.7905330657959	2.4920315742492676
59	258.1953766345978	pulse	1	t		57.0	2.5	/experiments/Knapen_AOT/AOT_stimuli/rescaled_final/1539_rv.mp4	0.0	274.9642188549042	
59	259.51372241973877	fix_post	2		12	57.0	2.5	/experiments/Knapen_AOT/AOT_stimuli/rescaled_final/1539_rv.mp4	0.0	276.28256464004517	0.10002923011779785
60	259.61375164985657	fix_pre	0		120	58.0	2.5	/experiments/Knapen_AOT/AOT_stimuli/rescaled_final/1271_fw.mp4	0.0	276.38259387016296	1.0085349082946777
60	259.7902104854584	pulse	0	t		58.0	2.5	/experiments/Knapen_AOT/AOT_stimuli/rescaled_final/1271_fw.mp4	0.0	276.55905270576477	
60	260.62228655815125	movie	1		271	58.0	2.5	/experiments/Knapen_AOT/AOT_stimuli/rescaled_final/1271_fw.mp4	0.0	277.39112877845764	2.4919698238372803
60	261.3958423137665	pulse	1	t		58.0	2.5	/experiments/Knapen_AOT/AOT_stimuli/rescaled_final/1271_fw.mp4	0.0	278.1646845340729	
60	262.9969711303711	pulse	1	t		58.0	2.5	/experiments/Knapen_AOT/AOT_stimuli/rescaled_final/1271_fw.mp4	0.0	279.7658133506775	
60	263.1142563819885	fix_post	2		12	58.0	2.5	/experiments/Knapen_AOT/AOT_stimuli/rescaled_final/1271_fw.mp4	0.0	279.8830986022949	0.10000967979431152
61	263.21426606178284	fix_pre	0		120	59.0	2.5	/experiments/Knapen_AOT/AOT_stimuli/rescaled_final/0392_fw.mp4	0.0	279.98310828208923	1.0085046291351318
61	264.22277069091797	movie	1		279	59.0	2.5	/experiments/Knapen_AOT/AOT_stimuli/rescaled_final/0392_fw.mp4	0.0	280.99161291122437	2.4920706748962402
61	264.590336561203	pulse	1	t		59.0	2.5	/experiments/Knapen_AOT/AOT_stimuli/rescaled_final/0392_fw.mp4	0.0	281.3591787815094	
61	266.1901214122772	pulse	1	t		59.0	2.5	/experiments/Knapen_AOT/AOT_stimuli/rescaled_final/0392_fw.mp4	0.0	282.9589636325836	
61	266.7148413658142	fix_post	2		11	59.0	2.5	/experiments/Knapen_AOT/AOT_stimuli/rescaled_final/0392_fw.mp4	0.0	283.4836835861206	0.0999751091003418
62	266.81481647491455	fix_pre	0		118	60.0	2.5	/experiments/Knapen_AOT/AOT_stimuli/rescaled_final/1393_rv.mp4	0.0	283.58365869522095	0.9919106960296631
62	267.79024839401245	pulse	0	t		60.0	2.5	/experiments/Knapen_AOT/AOT_stimuli/rescaled_final/1393_rv.mp4	0.0	284.55909061431885	
62	267.8067271709442	movie	1		256	60.0	2.5	/experiments/Knapen_AOT/AOT_stimuli/rescaled_final/1393_rv.mp4	0.0	284.5755693912506	2.500274181365967
62	269.3901934623718	pulse	1	t		60.0	2.5	/experiments/Knapen_AOT/AOT_stimuli/rescaled_final/1393_rv.mp4	0.0	286.1590356826782	
62	270.3070013523102	fix_post	2		12	60.0	2.5	/experiments/Knapen_AOT/AOT_stimuli/rescaled_final/1393_rv.mp4	0.0	287.0758435726166	0.10001540184020996
63	270.4070167541504	fix_pre	0		120	61.0	2.5	/experiments/Knapen_AOT/AOT_stimuli/rescaled_final/0310_rv.mp4	0.0	287.1758589744568	1.008493185043335
63	270.9908697605133	pulse	0	t		61.0	2.5	/experiments/Knapen_AOT/AOT_stimuli/rescaled_final/0310_rv.mp4	0.0	287.7597119808197	
63	271.4155099391937	movie	1		275	61.0	2.5	/experiments/Knapen_AOT/AOT_stimuli/rescaled_final/0310_rv.mp4	0.0	288.1843521595001	2.4920308589935303
63	272.5908966064453	pulse	1	t		61.0	2.5	/experiments/Knapen_AOT/AOT_stimuli/rescaled_final/0310_rv.mp4	0.0	289.3597388267517	
63	273.90754079818726	fix_post	2		12	61.0	2.5	/experiments/Knapen_AOT/AOT_stimuli/rescaled_final/0310_rv.mp4	0.0	290.67638301849365	0.10005021095275879
64	274.00759100914	fix_pre	0		120	62.0	2.5	blank	1.0	290.7764332294464	1.0001344680786133
64	274.19121623039246	pulse	0	t		62.0	2.5	blank	1.0	290.96005845069885	
64	275.0077254772186	movie	1		300	62.0	2.5	blank	1.0	291.776567697525	2.5003838539123535
64	275.7915267944336	pulse	1	t		62.0	2.5	blank	1.0	292.56036901474	
64	277.39173793792725	pulse	1	t		62.0	2.5	blank	1.0	294.16058015823364	
64	277.508109331131	fix_post	2		12	62.0	2.5	blank	1.0	294.2769515514374	0.10012006759643555
65	277.6082293987274	fix_pre	0		120	63.0	2.5	/experiments/Knapen_AOT/AOT_stimuli/rescaled_final/1105_rv.mp4	0.0	294.3770716190338	1.0083832740783691
65	278.6166126728058	movie	1		274	63.0	2.5	/experiments/Knapen_AOT/AOT_stimuli/rescaled_final/1105_rv.mp4	0.0	295.3854548931122	2.492018222808838
65	278.99050521850586	pulse	1	t		63.0	2.5	/experiments/Knapen_AOT/AOT_stimuli/rescaled_final/1105_rv.mp4	0.0	295.75934743881226	
65	280.59045934677124	pulse	1	t		63.0	2.5	/experiments/Knapen_AOT/AOT_stimuli/rescaled_final/1105_rv.mp4	0.0	297.35930156707764	
65	281.1086308956146	fix_post	2		12	63.0	2.5	/experiments/Knapen_AOT/AOT_stimuli/rescaled_final/1105_rv.mp4	0.0	297.877473115921	0.10002589225769043
66	281.2086567878723	fix_pre	0		119	64.0	2.5	/experiments/Knapen_AOT/AOT_stimuli/rescaled_final/0449_fw.mp4	0.0	297.9774990081787	1.0001897811889648
66	282.1925251483917	pulse	0	t		64.0	2.5	/experiments/Knapen_AOT/AOT_stimuli/rescaled_final/0449_fw.mp4	0.0	298.9613673686981	
66	282.2088465690613	movie	1		283	64.0	2.5	/experiments/Knapen_AOT/AOT_stimuli/rescaled_final/0449_fw.mp4	0.0	298.9776887893677	2.500324010848999
66	283.7911286354065	pulse	1	t		64.0	2.5	/experiments/Knapen_AOT/AOT_stimuli/rescaled_final/0449_fw.mp4	0.0	300.5599708557129	
66	284.7091705799103	fix_post	2		12	64.0	2.5	/experiments/Knapen_AOT/AOT_stimuli/rescaled_final/0449_fw.mp4	0.0	301.4780128002167	0.10004568099975586
67	284.80921626091003	fix_pre	0		120	65.0	2.5	/experiments/Knapen_AOT/AOT_stimuli/rescaled_final/0981_fw.mp4	0.0	301.57805848121643	1.0084829330444336
67	285.3929841518402	pulse	0	t		65.0	2.5	/experiments/Knapen_AOT/AOT_stimuli/rescaled_final/0981_fw.mp4	0.0	302.1618263721466	
67	285.81769919395447	movie	1		283	65.0	2.5	/experiments/Knapen_AOT/AOT_stimuli/rescaled_final/0981_fw.mp4	0.0	302.58654141426086	2.4920992851257324
67	286.99206495285034	pulse	1	t		65.0	2.5	/experiments/Knapen_AOT/AOT_stimuli/rescaled_final/0981_fw.mp4	0.0	303.76090717315674	
67	288.3097984790802	fix_post	2		12	65.0	2.5	/experiments/Knapen_AOT/AOT_stimuli/rescaled_final/0981_fw.mp4	0.0	305.0786406993866	0.09994077682495117
68	288.40973925590515	fix_pre	0		120	66.0	2.5	/experiments/Knapen_AOT/AOT_stimuli/rescaled_final/0910_fw.mp4	0.0	305.17858147621155	1.0086143016815186
68	288.5933418273926	pulse	0	t		66.0	2.5	/experiments/Knapen_AOT/AOT_stimuli/rescaled_final/0910_fw.mp4	0.0	305.362184047699	
68	289.41835355758667	movie	1		280	66.0	2.5	/experiments/Knapen_AOT/AOT_stimuli/rescaled_final/0910_fw.mp4	0.0	306.18719577789307	2.4919068813323975
68	290.1914699077606	pulse	1	t		66.0	2.5	/experiments/Knapen_AOT/AOT_stimuli/rescaled_final/0910_fw.mp4	0.0	306.960312128067	
68	291.79203820228577	pulse	1	t		66.0	2.5	/experiments/Knapen_AOT/AOT_stimuli/rescaled_final/0910_fw.mp4	0.0	308.56088042259216	
68	291.91026043891907	fix_post	2		12	66.0	2.5	/experiments/Knapen_AOT/AOT_stimuli/rescaled_final/0910_fw.mp4	0.0	308.67910265922546	0.10004687309265137
69	292.0103073120117	fix_pre	0		120	67.0	2.5	/experiments/Knapen_AOT/AOT_stimuli/rescaled_final/0286_fw.mp4	0.0	308.7791495323181	1.0084867477416992
69	293.0187940597534	movie	1		281	67.0	2.5	/experiments/Knapen_AOT/AOT_stimuli/rescaled_final/0286_fw.mp4	0.0	309.7876362800598	2.492116928100586
69	293.3928108215332	pulse	1	t		67.0	2.5	/experiments/Knapen_AOT/AOT_stimuli/rescaled_final/0286_fw.mp4	0.0	310.1616530418396	
69	294.9926903247833	pulse	1	t		67.0	2.5	/experiments/Knapen_AOT/AOT_stimuli/rescaled_final/0286_fw.mp4	0.0	311.7615325450897	
69	295.510910987854	fix_post	2		12	67.0	2.5	/experiments/Knapen_AOT/AOT_stimuli/rescaled_final/0286_fw.mp4	0.0	312.2797532081604	0.09995293617248535
70	295.6108639240265	fix_pre	0		119	68.0	2.5	/experiments/Knapen_AOT/AOT_stimuli/rescaled_final/0331_rv.mp4	0.0	312.3797061443329	1.0002405643463135
70	296.59462547302246	pulse	0	t		68.0	2.5	/experiments/Knapen_AOT/AOT_stimuli/rescaled_final/0331_rv.mp4	0.0	313.36346769332886	
70	296.6111044883728	movie	1		280	68.0	2.5	/experiments/Knapen_AOT/AOT_stimuli/rescaled_final/0331_rv.mp4	0.0	313.3799467086792	2.5002400875091553
70	298.1933846473694	pulse	1	t		68.0	2.5	/experiments/Knapen_AOT/AOT_stimuli/rescaled_final/0331_rv.mp4	0.0	314.9622268676758	
70	299.11134457588196	fix_post	2		12	68.0	2.5	/experiments/Knapen_AOT/AOT_stimuli/rescaled_final/0331_rv.mp4	0.0	315.88018679618835	0.1000359058380127
71	299.21138048171997	fix_pre	0		120	69.0	2.5	blank	1.0	315.98022270202637	1.0002224445343018
71	299.795049905777	pulse	0	t		69.0	2.5	blank	1.0	316.5638921260834	
71	300.2116029262543	movie	1		300	69.0	2.5	blank	1.0	316.98044514656067	2.5002872943878174
71	301.39528489112854	pulse	1	t		69.0	2.5	blank	1.0	318.16412711143494	
71	302.7118902206421	fix_post	2		12	69.0	2.5	blank	1.0	319.4807324409485	0.10006380081176758
72	302.81195402145386	fix_pre	0		120	70.0	2.5	/experiments/Knapen_AOT/AOT_stimuli/rescaled_final/0162_fw.mp4	0.0	319.58079624176025	1.0084693431854248
72	302.99560284614563	pulse	0	t		70.0	2.5	/experiments/Knapen_AOT/AOT_stimuli/rescaled_final/0162_fw.mp4	0.0	319.764445066452	
72	303.8204233646393	movie	1		287	70.0	2.5	/experiments/Knapen_AOT/AOT_stimuli/rescaled_final/0162_fw.mp4	0.0	320.5892655849457	2.492018699645996
72	304.5936379432678	pulse	1	t		70.0	2.5	/experiments/Knapen_AOT/AOT_stimuli/rescaled_final/0162_fw.mp4	0.0	321.3624801635742	
72	306.1953315734863	pulse	1	t		70.0	2.5	/experiments/Knapen_AOT/AOT_stimuli/rescaled_final/0162_fw.mp4	0.0	322.9641737937927	
72	306.3124420642853	fix_post	2		12	70.0	2.5	/experiments/Knapen_AOT/AOT_stimuli/rescaled_final/0162_fw.mp4	0.0	323.0812842845917	0.10003352165222168
73	306.4124755859375	fix_pre	0		120	71.0	2.5	/experiments/Knapen_AOT/AOT_stimuli/rescaled_final/1860_rv.mp4	0.0	323.1813178062439	1.0084350109100342
73	307.42091059684753	movie	1		285	71.0	2.5	/experiments/Knapen_AOT/AOT_stimuli/rescaled_final/1860_rv.mp4	0.0	324.18975281715393	2.4920592308044434
73	307.79477190971375	pulse	1	t		71.0	2.5	/experiments/Knapen_AOT/AOT_stimuli/rescaled_final/1860_rv.mp4	0.0	324.56361413002014	
73	309.39478182792664	pulse	1	t		71.0	2.5	/experiments/Knapen_AOT/AOT_stimuli/rescaled_final/1860_rv.mp4	0.0	326.16362404823303	
73	309.912969827652	fix_post	2		12	71.0	2.5	/experiments/Knapen_AOT/AOT_stimuli/rescaled_final/1860_rv.mp4	0.0	326.6818120479584	0.09999752044677734
74	310.01296734809875	fix_pre	0		119	72.0	2.5	/experiments/Knapen_AOT/AOT_stimuli/rescaled_final/1553_rv.mp4	0.0	326.78180956840515	1.0003736019134521
74	310.9968366622925	pulse	0	t		72.0	2.5	/experiments/Knapen_AOT/AOT_stimuli/rescaled_final/1553_rv.mp4	0.0	327.7656788825989	
74	311.0133409500122	movie	1		285	72.0	2.5	/experiments/Knapen_AOT/AOT_stimuli/rescaled_final/1553_rv.mp4	0.0	327.7821831703186	2.5001518726348877
74	312.59565114974976	pulse	1	t		72.0	2.5	/experiments/Knapen_AOT/AOT_stimuli/rescaled_final/1553_rv.mp4	0.0	329.36449337005615	
74	313.5134928226471	fix_post	2		12	72.0	2.5	/experiments/Knapen_AOT/AOT_stimuli/rescaled_final/1553_rv.mp4	0.0	330.2823350429535	0.10001587867736816
75	313.61350870132446	fix_pre	0		120	73.0	2.5	/experiments/Knapen_AOT/AOT_stimuli/rescaled_final/1164_rv.mp4	0.0	330.38235092163086	1.0085453987121582
75	314.19739508628845	pulse	0	t		73.0	2.5	/experiments/Knapen_AOT/AOT_stimuli/rescaled_final/1164_rv.mp4	0.0	330.96623730659485	
75	314.6220541000366	movie	1		281	73.0	2.5	/experiments/Knapen_AOT/AOT_stimuli/rescaled_final/1164_rv.mp4	0.0	331.390896320343	2.492006540298462
75	315.795695066452	pulse	1	t		73.0	2.5	/experiments/Knapen_AOT/AOT_stimuli/rescaled_final/1164_rv.mp4	0.0	332.5645372867584	
75	317.1140606403351	fix_post	2		12	73.0	2.5	/experiments/Knapen_AOT/AOT_stimuli/rescaled_final/1164_rv.mp4	0.0	333.8829028606415	0.10000300407409668
76	317.2140636444092	fix_pre	0		120	74.0	2.5	/experiments/Knapen_AOT/AOT_stimuli/rescaled_final/0354_rv.mp4	0.0	333.9829058647156	1.0085253715515137
76	317.39765453338623	pulse	0	t		74.0	2.5	/experiments/Knapen_AOT/AOT_stimuli/rescaled_final/0354_rv.mp4	0.0	334.1664967536926	
76	318.2225890159607	movie	1		286	74.0	2.5	/experiments/Knapen_AOT/AOT_stimuli/rescaled_final/0354_rv.mp4	0.0	334.9914312362671	2.491992473602295
76	318.9959497451782	pulse	1	t		74.0	2.5	/experiments/Knapen_AOT/AOT_stimuli/rescaled_final/0354_rv.mp4	0.0	335.7647919654846	
76	320.59613013267517	pulse	1	t		74.0	2.5	/experiments/Knapen_AOT/AOT_stimuli/rescaled_final/0354_rv.mp4	0.0	337.36497235298157	
76	320.714581489563	fix_post	2		12	74.0	2.5	/experiments/Knapen_AOT/AOT_stimuli/rescaled_final/0354_rv.mp4	0.0	337.4834237098694	0.10004758834838867
77	320.8146290779114	fix_pre	0		120	75.0	2.5	/experiments/Knapen_AOT/AOT_stimuli/rescaled_final/1246_rv.mp4	0.0	337.5834712982178	1.0084764957427979
77	321.8231055736542	movie	1		283	75.0	2.5	/experiments/Knapen_AOT/AOT_stimuli/rescaled_final/1246_rv.mp4	0.0	338.59194779396057	2.492034673690796
77	322.1969711780548	pulse	1	t		75.0	2.5	/experiments/Knapen_AOT/AOT_stimuli/rescaled_final/1246_rv.mp4	0.0	338.9658133983612	
77	323.7905068397522	pulse	1	t		75.0	2.5	/experiments/Knapen_AOT/AOT_stimuli/rescaled_final/1246_rv.mp4	0.0	340.5593490600586	
77	324.31514024734497	fix_post	2		12	75.0	2.5	/experiments/Knapen_AOT/AOT_stimuli/rescaled_final/1246_rv.mp4	0.0	341.08398246765137	0.0999610424041748
78	324.41510128974915	fix_pre	0		118	76.0	2.5	/experiments/Knapen_AOT/AOT_stimuli/rescaled_final/0673_rv.mp4	0.0	341.18394351005554	1.0002400875091553
78	325.3906087875366	pulse	0	t		76.0	2.5	/experiments/Knapen_AOT/AOT_stimuli/rescaled_final/0673_rv.mp4	0.0	342.159451007843	
78	325.4153413772583	movie	1		265	76.0	2.5	/experiments/Knapen_AOT/AOT_stimuli/rescaled_final/0673_rv.mp4	0.0	342.1841835975647	2.491992473602295
78	326.99042797088623	pulse	1	t		76.0	2.5	/experiments/Knapen_AOT/AOT_stimuli/rescaled_final/0673_rv.mp4	0.0	343.7592701911926	
78	327.9073338508606	fix_post	2		12	76.0	2.5	/experiments/Knapen_AOT/AOT_stimuli/rescaled_final/0673_rv.mp4	0.0	344.676176071167	0.10004258155822754
79	328.0073764324188	fix_pre	0		120	77.0	2.5	blank	1.0	344.7762186527252	1.0001170635223389
79	328.59110403060913	pulse	0	t		77.0	2.5	blank	1.0	345.3599462509155	
79	329.00749349594116	movie	1		300	77.0	2.5	blank	1.0	345.77633571624756	2.500375509262085
79	330.1912360191345	pulse	1	t		77.0	2.5	blank	1.0	346.9600782394409	
79	331.50786900520325	fix_post	2		12	77.0	2.5	blank	1.0	348.27671122550964	0.10007596015930176
80	331.60794496536255	fix_pre	0		120	78.0	2.5	/experiments/Knapen_AOT/AOT_stimuli/rescaled_final/0044_fw.mp4	0.0	348.37678718566895	1.0084502696990967
80	331.79156517982483	pulse	0	t		78.0	2.5	/experiments/Knapen_AOT/AOT_stimuli/rescaled_final/0044_fw.mp4	0.0	348.5604074001312	
80	332.61639523506165	movie	1		289	78.0	2.5	/experiments/Knapen_AOT/AOT_stimuli/rescaled_final/0044_fw.mp4	0.0	349.38523745536804	2.49202299118042
80	333.39188289642334	pulse	1	t		78.0	2.5	/experiments/Knapen_AOT/AOT_stimuli/rescaled_final/0044_fw.mp4	0.0	350.16072511672974	
80	334.9920160770416	pulse	1	t		78.0	2.5	/experiments/Knapen_AOT/AOT_stimuli/rescaled_final/0044_fw.mp4	0.0	351.760858297348	
80	335.10841822624207	fix_post	2		12	78.0	2.5	/experiments/Knapen_AOT/AOT_stimuli/rescaled_final/0044_fw.mp4	0.0	351.87726044654846	0.10002255439758301
81	335.20844078063965	fix_pre	0		120	79.0	2.5	/experiments/Knapen_AOT/AOT_stimuli/rescaled_final/1545_fw.mp4	0.0	351.97728300094604	1.0085053443908691
81	336.2169461250305	movie	1		283	79.0	2.5	/experiments/Knapen_AOT/AOT_stimuli/rescaled_final/1545_fw.mp4	0.0	352.9857883453369	2.4920473098754883
81	336.5907964706421	pulse	1	t		79.0	2.5	/experiments/Knapen_AOT/AOT_stimuli/rescaled_final/1545_fw.mp4	0.0	353.3596386909485	
81	338.19071412086487	pulse	1	t		79.0	2.5	/experiments/Knapen_AOT/AOT_stimuli/rescaled_final/1545_fw.mp4	0.0	354.95955634117126	
81	338.708993434906	fix_post	2		12	79.0	2.5	/experiments/Knapen_AOT/AOT_stimuli/rescaled_final/1545_fw.mp4	0.0	355.4778356552124	0.10004830360412598
82	338.80904173851013	fix_pre	0		119	80.0	2.5	/experiments/Knapen_AOT/AOT_stimuli/rescaled_final/1105_fw.mp4	0.0	355.5778839588165	1.000108242034912
82	339.7927551269531	pulse	0	t		80.0	2.5	/experiments/Knapen_AOT/AOT_stimuli/rescaled_final/1105_fw.mp4	0.0	356.5615973472595	
82	339.80914998054504	movie	1		269	80.0	2.5	/experiments/Knapen_AOT/AOT_stimuli/rescaled_final/1105_fw.mp4	0.0	356.57799220085144	2.5003480911254883
82	341.39293098449707	pulse	1	t		80.0	2.5	/experiments/Knapen_AOT/AOT_stimuli/rescaled_final/1105_fw.mp4	0.0	358.16177320480347	
82	342.30949807167053	fix_post	2		12	80.0	2.5	/experiments/Knapen_AOT/AOT_stimuli/rescaled_final/1105_fw.mp4	0.0	359.07834029197693	0.10004615783691406
83	342.40954422950745	fix_pre	0		119	81.0	2.5	/experiments/Knapen_AOT/AOT_stimuli/rescaled_final/2155_fw.mp4	0.0	359.17838644981384	1.0085887908935547
83	342.99322605133057	pulse	0	t		81.0	2.5	/experiments/Knapen_AOT/AOT_stimuli/rescaled_final/2155_fw.mp4	0.0	359.76206827163696	
83	343.418133020401	movie	1		261	81.0	2.5	/experiments/Knapen_AOT/AOT_stimuli/rescaled_final/2155_fw.mp4	0.0	360.1869752407074	2.4919164180755615
83	344.5917155742645	pulse	1	t		81.0	2.5	/experiments/Knapen_AOT/AOT_stimuli/rescaled_final/2155_fw.mp4	0.0	361.3605577945709	
83	345.91004943847656	fix_post	2		12	81.0	2.5	/experiments/Knapen_AOT/AOT_stimuli/rescaled_final/2155_fw.mp4	0.0	362.67889165878296	0.10003471374511719
84	346.0100841522217	fix_pre	0		120	82.0	2.5	/experiments/Knapen_AOT/AOT_stimuli/rescaled_final/1416_rv.mp4	0.0	362.7789263725281	1.0084590911865234
84	346.19396138191223	pulse	0	t		82.0	2.5	/experiments/Knapen_AOT/AOT_stimuli/rescaled_final/1416_rv.mp4	0.0	362.9628036022186	
84	347.0185432434082	movie	1		268	82.0	2.5	/experiments/Knapen_AOT/AOT_stimuli/rescaled_final/1416_rv.mp4	0.0	363.7873854637146	2.492051839828491
84	347.7917914390564	pulse	1	t		82.0	2.5	/experiments/Knapen_AOT/AOT_stimuli/rescaled_final/1416_rv.mp4	0.0	364.5606336593628	
84	349.3923137187958	pulse	1	t		82.0	2.5	/experiments/Knapen_AOT/AOT_stimuli/rescaled_final/1416_rv.mp4	0.0	366.1611559391022	
84	349.5105950832367	fix_post	2		12	82.0	2.5	/experiments/Knapen_AOT/AOT_stimuli/rescaled_final/1416_rv.mp4	0.0	366.2794373035431	0.10000872611999512
85	349.6106038093567	fix_pre	0		120	83.0	2.5	blank	1.0	366.3794460296631	1.0001492500305176
85	350.6107530593872	movie	1		300	83.0	2.5	blank	1.0	367.3795952796936	2.5003952980041504
85	350.9943985939026	pulse	1	t		83.0	2.5	blank	1.0	367.763240814209	
85	352.59473395347595	pulse	1	t		83.0	2.5	blank	1.0	369.36357617378235	
85	353.11114835739136	fix_post	2		12	83.0	2.5	blank	1.0	369.87999057769775	0.10000300407409668
87	353.21115136146545	stim	0		1715					369.97999358177185	14.293793439865112
87	354.1948347091675	pulse	0	t						370.9636769294739	
87	355.7951469421387	pulse	0	t						372.56398916244507	
87	357.3952991962433	pulse	0	t						374.1641414165497	
87	358.99593138694763	pulse	0	t						375.764773607254	
87	360.59587931632996	pulse	0	t						377.36472153663635	
87	362.196195602417	pulse	0	t						378.9650378227234	
87	363.79629468917847	pulse	0	t						380.56513690948486	
87	365.3965702056885	pulse	0	t						382.1654124259949	
87	366.9967863559723	pulse	0	t						383.7656285762787	
