trial_nr	onset	event_type	phase	response	nr_frames	movie_index	movie_duration	movie_file	blank	onset_abs	duration
0	0.14148688316345215	stim	0		7					30.13351607322693	0.05819845199584961
0	0.1920177936553955	response	0	space						30.184046983718872	
1	0.19968533515930176	stim	0		4839					30.19171452522278	40.344266176223755
1	40.52921962738037	pulse	0	t						70.52124881744385	
1	40.54395151138306	stim	1		1714					70.53598070144653	14.297316551208496
1	42.12288284301758	pulse	1	t						72.11491203308105	
1	43.723196268081665	pulse	1	t						73.71522545814514	
1	45.32340979576111	pulse	1	t						75.31543898582458	
1	46.923770904541016	pulse	1	t						76.91580009460449	
1	48.52383875846863	pulse	1	t						78.5158679485321	
1	50.124093770980835	pulse	1	t						80.11612296104431	
1	51.72431826591492	pulse	1	t						81.7163474559784	
1	53.32456421852112	pulse	1	t						83.3165934085846	
2	54.84126806259155	fix_pre	0		11	0.0	2.5	/experiments/knapen_AOT/AOT_stimuli/rescaled_final/2092_fw.mp4	0.0	84.83329725265503	0.10840320587158203
2	54.92484259605408	pulse	0	t		0.0	2.5	/experiments/knapen_AOT/AOT_stimuli/rescaled_final/2092_fw.mp4	0.0	84.91687178611755	
2	54.949671268463135	movie	1		271	0.0	2.5	/experiments/knapen_AOT/AOT_stimuli/rescaled_final/2092_fw.mp4	0.0	84.94170045852661	2.49198317527771
2	56.523311614990234	pulse	1	t		0.0	2.5	/experiments/knapen_AOT/AOT_stimuli/rescaled_final/2092_fw.mp4	0.0	86.51534080505371	
2	57.441654443740845	fix_post	2		12	0.0	2.5	/experiments/knapen_AOT/AOT_stimuli/rescaled_final/2092_fw.mp4	0.0	87.43368363380432	0.10007047653198242
3	57.54172492027283	fix_pre	0		120	1.0	2.5	/experiments/knapen_AOT/AOT_stimuli/rescaled_final/1066_fw.mp4	0.0	87.5337541103363	1.0084965229034424
3	58.11795258522034	pulse	0	t		1.0	2.5	/experiments/knapen_AOT/AOT_stimuli/rescaled_final/1066_fw.mp4	0.0	88.10998177528381	
3	58.55022144317627	movie	1		272	1.0	2.5	/experiments/knapen_AOT/AOT_stimuli/rescaled_final/1066_fw.mp4	0.0	88.54225063323975	2.4920401573181152
3	59.723713874816895	pulse	1	t		1.0	2.5	/experiments/knapen_AOT/AOT_stimuli/rescaled_final/1066_fw.mp4	0.0	89.71574306488037	
3	61.042261600494385	fix_post	2		12	1.0	2.5	/experiments/knapen_AOT/AOT_stimuli/rescaled_final/1066_fw.mp4	0.0	91.03429079055786	0.09995722770690918
4	61.142218828201294	fix_pre	0		120	2.0	2.5	/experiments/knapen_AOT/AOT_stimuli/rescaled_final/0716_rv.mp4	0.0	91.13424801826477	1.0084788799285889
4	61.317930936813354	pulse	0	t		2.0	2.5	/experiments/knapen_AOT/AOT_stimuli/rescaled_final/0716_rv.mp4	0.0	91.30996012687683	
4	62.15069770812988	movie	1		267	2.0	2.5	/experiments/knapen_AOT/AOT_stimuli/rescaled_final/0716_rv.mp4	0.0	92.14272689819336	2.492079734802246
4	62.91789627075195	pulse	1	t		2.0	2.5	/experiments/knapen_AOT/AOT_stimuli/rescaled_final/0716_rv.mp4	0.0	92.90992546081543	
4	64.51795792579651	pulse	1	t		2.0	2.5	/experiments/knapen_AOT/AOT_stimuli/rescaled_final/0716_rv.mp4	0.0	94.50998711585999	
4	64.64277744293213	fix_post	2		12	2.0	2.5	/experiments/knapen_AOT/AOT_stimuli/rescaled_final/0716_rv.mp4	0.0	94.6348066329956	0.10009622573852539
5	64.74287366867065	fix_pre	0		120	3.0	2.5	/experiments/knapen_AOT/AOT_stimuli/rescaled_final/1174_fw.mp4	0.0	94.73490285873413	1.0083842277526855
5	65.75125789642334	movie	1		267	3.0	2.5	/experiments/knapen_AOT/AOT_stimuli/rescaled_final/1174_fw.mp4	0.0	95.74328708648682	2.4920241832733154
5	66.11822080612183	pulse	1	t		3.0	2.5	/experiments/knapen_AOT/AOT_stimuli/rescaled_final/1174_fw.mp4	0.0	96.1102499961853	
5	67.71847105026245	pulse	1	t		3.0	2.5	/experiments/knapen_AOT/AOT_stimuli/rescaled_final/1174_fw.mp4	0.0	97.71050024032593	
5	68.24328207969666	fix_post	2		12	3.0	2.5	/experiments/knapen_AOT/AOT_stimuli/rescaled_final/1174_fw.mp4	0.0	98.23531126976013	0.10007667541503906
6	68.3433587551117	fix_pre	0		118	4.0	2.5	/experiments/knapen_AOT/AOT_stimuli/rescaled_final/1430_rv.mp4	0.0	98.33538794517517	0.9918434619903564
6	69.31877303123474	pulse	0	t		4.0	2.5	/experiments/knapen_AOT/AOT_stimuli/rescaled_final/1430_rv.mp4	0.0	99.31080222129822	
6	69.33520221710205	movie	1		274	4.0	2.5	/experiments/knapen_AOT/AOT_stimuli/rescaled_final/1430_rv.mp4	0.0	99.32723140716553	2.500386953353882
6	70.91902184486389	pulse	1	t		4.0	2.5	/experiments/knapen_AOT/AOT_stimuli/rescaled_final/1430_rv.mp4	0.0	100.91105103492737	
6	71.83558917045593	fix_post	2		12	4.0	2.5	/experiments/knapen_AOT/AOT_stimuli/rescaled_final/1430_rv.mp4	0.0	101.82761836051941	0.09991049766540527
7	71.93549966812134	fix_pre	0		120	5.0	2.5	/experiments/knapen_AOT/AOT_stimuli/rescaled_final/1920_fw.mp4	0.0	101.92752885818481	1.0084891319274902
7	72.51941895484924	pulse	0	t		5.0	2.5	/experiments/knapen_AOT/AOT_stimuli/rescaled_final/1920_fw.mp4	0.0	102.51144814491272	
7	72.94398880004883	movie	1		269	5.0	2.5	/experiments/knapen_AOT/AOT_stimuli/rescaled_final/1920_fw.mp4	0.0	102.9360179901123	2.4920246601104736
7	74.11938095092773	pulse	1	t		5.0	2.5	/experiments/knapen_AOT/AOT_stimuli/rescaled_final/1920_fw.mp4	0.0	104.11141014099121	
7	75.4360134601593	fix_post	2		12	5.0	2.5	/experiments/knapen_AOT/AOT_stimuli/rescaled_final/1920_fw.mp4	0.0	105.42804265022278	0.10002565383911133
8	75.53603911399841	fix_pre	0		120	6.0	2.5	/experiments/knapen_AOT/AOT_stimuli/rescaled_final/0385_fw.mp4	0.0	105.52806830406189	1.0085384845733643
8	75.71964073181152	pulse	0	t		6.0	2.5	/experiments/knapen_AOT/AOT_stimuli/rescaled_final/0385_fw.mp4	0.0	105.711669921875	
8	76.54457759857178	movie	1		261	6.0	2.5	/experiments/knapen_AOT/AOT_stimuli/rescaled_final/0385_fw.mp4	0.0	106.53660678863525	2.4920966625213623
8	77.31996440887451	pulse	1	t		6.0	2.5	/experiments/knapen_AOT/AOT_stimuli/rescaled_final/0385_fw.mp4	0.0	107.31199359893799	
8	78.91869735717773	pulse	1	t		6.0	2.5	/experiments/knapen_AOT/AOT_stimuli/rescaled_final/0385_fw.mp4	0.0	108.91072654724121	
8	79.03667426109314	fix_post	2		12	6.0	2.5	/experiments/knapen_AOT/AOT_stimuli/rescaled_final/0385_fw.mp4	0.0	109.02870345115662	0.09995508193969727
9	79.13662934303284	fix_pre	0		120	7.0	2.5	blank	1.0	109.12865853309631	1.0000994205474854
9	80.13672876358032	movie	1		300	7.0	2.5	blank	1.0	110.1287579536438	2.5003738403320312
9	80.52043867111206	pulse	1	t		7.0	2.5	blank	1.0	110.51246786117554	
9	82.12061095237732	pulse	1	t		7.0	2.5	blank	1.0	112.1126401424408	
9	82.63710260391235	fix_post	2		12	7.0	2.5	blank	1.0	112.62913179397583	0.1000213623046875
10	82.73712396621704	fix_pre	0		119	8.0	2.5	/experiments/knapen_AOT/AOT_stimuli/rescaled_final/0385_rv.mp4	0.0	112.72915315628052	1.000213861465454
10	83.72085118293762	pulse	0	t		8.0	2.5	/experiments/knapen_AOT/AOT_stimuli/rescaled_final/0385_rv.mp4	0.0	113.7128803730011	
10	83.7373378276825	movie	1		288	8.0	2.5	/experiments/knapen_AOT/AOT_stimuli/rescaled_final/0385_rv.mp4	0.0	113.72936701774597	2.5003817081451416
10	85.31980037689209	pulse	1	t		8.0	2.5	/experiments/knapen_AOT/AOT_stimuli/rescaled_final/0385_rv.mp4	0.0	115.31182956695557	
10	86.23771953582764	fix_post	2		12	8.0	2.5	/experiments/knapen_AOT/AOT_stimuli/rescaled_final/0385_rv.mp4	0.0	116.22974872589111	0.09996247291564941
11	86.33768200874329	fix_pre	0		120	9.0	2.5	/experiments/knapen_AOT/AOT_stimuli/rescaled_final/0806_fw.mp4	0.0	116.32971119880676	1.0084853172302246
11	86.92138266563416	pulse	0	t		9.0	2.5	/experiments/knapen_AOT/AOT_stimuli/rescaled_final/0806_fw.mp4	0.0	116.91341185569763	
11	87.34616732597351	movie	1		264	9.0	2.5	/experiments/knapen_AOT/AOT_stimuli/rescaled_final/0806_fw.mp4	0.0	117.33819651603699	2.4920380115509033
11	88.51952457427979	pulse	1	t		9.0	2.5	/experiments/knapen_AOT/AOT_stimuli/rescaled_final/0806_fw.mp4	0.0	118.51155376434326	
11	89.83820533752441	fix_post	2		12	9.0	2.5	/experiments/knapen_AOT/AOT_stimuli/rescaled_final/0806_fw.mp4	0.0	119.83023452758789	0.10001969337463379
12	89.93822503089905	fix_pre	0		120	10.0	2.5	/experiments/knapen_AOT/AOT_stimuli/rescaled_final/1868_rv.mp4	0.0	119.93025422096252	1.0085434913635254
12	90.12227368354797	pulse	0	t		10.0	2.5	/experiments/knapen_AOT/AOT_stimuli/rescaled_final/1868_rv.mp4	0.0	120.11430287361145	
12	90.94676852226257	movie	1		273	10.0	2.5	/experiments/knapen_AOT/AOT_stimuli/rescaled_final/1868_rv.mp4	0.0	120.93879771232605	2.4921464920043945
12	91.7225341796875	pulse	1	t		10.0	2.5	/experiments/knapen_AOT/AOT_stimuli/rescaled_final/1868_rv.mp4	0.0	121.71456336975098	
12	93.32005310058594	pulse	1	t		10.0	2.5	/experiments/knapen_AOT/AOT_stimuli/rescaled_final/1868_rv.mp4	0.0	123.31208229064941	
12	93.43891501426697	fix_post	2		12	10.0	2.5	/experiments/knapen_AOT/AOT_stimuli/rescaled_final/1868_rv.mp4	0.0	123.43094420433044	0.09992694854736328
13	93.53884196281433	fix_pre	0		120	11.0	2.5	/experiments/knapen_AOT/AOT_stimuli/rescaled_final/0741_rv.mp4	0.0	123.53087115287781	1.0084254741668701
13	94.5472674369812	movie	1		272	11.0	2.5	/experiments/knapen_AOT/AOT_stimuli/rescaled_final/0741_rv.mp4	0.0	124.53929662704468	2.492016553878784
13	94.92117929458618	pulse	1	t		11.0	2.5	/experiments/knapen_AOT/AOT_stimuli/rescaled_final/0741_rv.mp4	0.0	124.91320848464966	
13	96.52299165725708	pulse	1	t		11.0	2.5	/experiments/knapen_AOT/AOT_stimuli/rescaled_final/0741_rv.mp4	0.0	126.51502084732056	
13	97.03928399085999	fix_post	2		12	11.0	2.5	/experiments/knapen_AOT/AOT_stimuli/rescaled_final/0741_rv.mp4	0.0	127.03131318092346	0.10001516342163086
14	97.13929915428162	fix_pre	0		119	12.0	2.5	/experiments/knapen_AOT/AOT_stimuli/rescaled_final/0192_rv.mp4	0.0	127.13132834434509	1.0001847743988037
14	98.12292551994324	pulse	0	t		12.0	2.5	/experiments/knapen_AOT/AOT_stimuli/rescaled_final/0192_rv.mp4	0.0	128.1149547100067	
14	98.13948392868042	movie	1		283	12.0	2.5	/experiments/knapen_AOT/AOT_stimuli/rescaled_final/0192_rv.mp4	0.0	128.1315131187439	2.500405788421631
14	99.7228012084961	pulse	1	t		12.0	2.5	/experiments/knapen_AOT/AOT_stimuli/rescaled_final/0192_rv.mp4	0.0	129.71483039855957	
14	100.63988971710205	fix_post	2		12	12.0	2.5	/experiments/knapen_AOT/AOT_stimuli/rescaled_final/0192_rv.mp4	0.0	130.63191890716553	0.09999203681945801
15	100.73988175392151	fix_pre	0		120	13.0	2.5	blank	1.0	130.73191094398499	1.0001120567321777
15	101.32347416877747	pulse	0	t		13.0	2.5	blank	1.0	131.31550335884094	
15	101.73999381065369	movie	1		300	13.0	2.5	blank	1.0	131.73202300071716	2.5003600120544434
15	102.92365646362305	pulse	1	t		13.0	2.5	blank	1.0	132.91568565368652	
15	104.24035382270813	fix_post	2		12	13.0	2.5	blank	1.0	134.2323830127716	0.10009455680847168
16	104.3404483795166	fix_pre	0		120	14.0	2.5	/experiments/knapen_AOT/AOT_stimuli/rescaled_final/0162_fw.mp4	0.0	134.33247756958008	1.0084302425384521
16	104.52391529083252	pulse	0	t		14.0	2.5	/experiments/knapen_AOT/AOT_stimuli/rescaled_final/0162_fw.mp4	0.0	134.515944480896	
16	105.34887862205505	movie	1		274	14.0	2.5	/experiments/knapen_AOT/AOT_stimuli/rescaled_final/0162_fw.mp4	0.0	135.34090781211853	2.492166757583618
16	106.12228560447693	pulse	1	t		14.0	2.5	/experiments/knapen_AOT/AOT_stimuli/rescaled_final/0162_fw.mp4	0.0	136.1143147945404	
16	107.72249937057495	pulse	1	t		14.0	2.5	/experiments/knapen_AOT/AOT_stimuli/rescaled_final/0162_fw.mp4	0.0	137.71452856063843	
16	107.84104537963867	fix_post	2		12	14.0	2.5	/experiments/knapen_AOT/AOT_stimuli/rescaled_final/0162_fw.mp4	0.0	137.83307456970215	0.09996819496154785
17	107.94101357460022	fix_pre	0		120	15.0	2.5	/experiments/knapen_AOT/AOT_stimuli/rescaled_final/0275_rv.mp4	0.0	137.9330427646637	1.0084083080291748
17	108.9494218826294	movie	1		271	15.0	2.5	/experiments/knapen_AOT/AOT_stimuli/rescaled_final/0275_rv.mp4	0.0	138.94145107269287	2.492060422897339
17	109.32291269302368	pulse	1	t		15.0	2.5	/experiments/knapen_AOT/AOT_stimuli/rescaled_final/0275_rv.mp4	0.0	139.31494188308716	
17	110.92258095741272	pulse	1	t		15.0	2.5	/experiments/knapen_AOT/AOT_stimuli/rescaled_final/0275_rv.mp4	0.0	140.9146101474762	
17	111.44148230552673	fix_post	2		12	15.0	2.5	/experiments/knapen_AOT/AOT_stimuli/rescaled_final/0275_rv.mp4	0.0	141.4335114955902	0.10001468658447266
18	111.5414969921112	fix_pre	0		119	16.0	2.5	/experiments/knapen_AOT/AOT_stimuli/rescaled_final/2057_rv.mp4	0.0	141.53352618217468	1.008514165878296
18	112.52522087097168	pulse	0	t		16.0	2.5	/experiments/knapen_AOT/AOT_stimuli/rescaled_final/2057_rv.mp4	0.0	142.51725006103516	
18	112.5500111579895	movie	1		285	16.0	2.5	/experiments/knapen_AOT/AOT_stimuli/rescaled_final/2057_rv.mp4	0.0	142.54204034805298	2.491990566253662
18	114.12435388565063	pulse	1	t		16.0	2.5	/experiments/knapen_AOT/AOT_stimuli/rescaled_final/2057_rv.mp4	0.0	144.1163830757141	
18	115.04200172424316	fix_post	2		12	16.0	2.5	/experiments/knapen_AOT/AOT_stimuli/rescaled_final/2057_rv.mp4	0.0	145.03403091430664	0.1000819206237793
19	115.14208364486694	fix_pre	0		120	17.0	2.5	/experiments/knapen_AOT/AOT_stimuli/rescaled_final/0904_rv.mp4	0.0	145.13411283493042	1.0084521770477295
19	115.71827816963196	pulse	0	t		17.0	2.5	/experiments/knapen_AOT/AOT_stimuli/rescaled_final/0904_rv.mp4	0.0	145.71030735969543	
19	116.15053582191467	movie	1		282	17.0	2.5	/experiments/knapen_AOT/AOT_stimuli/rescaled_final/0904_rv.mp4	0.0	146.14256501197815	2.49200439453125
19	117.31747579574585	pulse	1	t		17.0	2.5	/experiments/knapen_AOT/AOT_stimuli/rescaled_final/0904_rv.mp4	0.0	147.30950498580933	
19	118.64254021644592	fix_post	2		12	17.0	2.5	/experiments/knapen_AOT/AOT_stimuli/rescaled_final/0904_rv.mp4	0.0	148.6345694065094	0.10014867782592773
20	118.74268889427185	fix_pre	0		120	18.0	2.5	/experiments/knapen_AOT/AOT_stimuli/rescaled_final/0819_fw.mp4	0.0	148.73471808433533	1.0168733596801758
20	118.91802668571472	pulse	0	t		18.0	2.5	/experiments/knapen_AOT/AOT_stimuli/rescaled_final/0819_fw.mp4	0.0	148.9100558757782	
20	119.75956225395203	movie	1		279	18.0	2.5	/experiments/knapen_AOT/AOT_stimuli/rescaled_final/0819_fw.mp4	0.0	149.7515914440155	2.483525276184082
20	120.51806306838989	pulse	1	t		18.0	2.5	/experiments/knapen_AOT/AOT_stimuli/rescaled_final/0819_fw.mp4	0.0	150.51009225845337	
20	122.11821460723877	pulse	1	t		18.0	2.5	/experiments/knapen_AOT/AOT_stimuli/rescaled_final/0819_fw.mp4	0.0	152.11024379730225	
20	122.24308753013611	fix_post	2		12	18.0	2.5	/experiments/knapen_AOT/AOT_stimuli/rescaled_final/0819_fw.mp4	0.0	152.23511672019958	0.10012674331665039
21	122.34321427345276	fix_pre	0		120	19.0	2.5	/experiments/knapen_AOT/AOT_stimuli/rescaled_final/1247_fw.mp4	0.0	152.33524346351624	1.0084469318389893
21	123.35166120529175	movie	1		262	19.0	2.5	/experiments/knapen_AOT/AOT_stimuli/rescaled_final/1247_fw.mp4	0.0	153.34369039535522	2.4919772148132324
21	123.71873331069946	pulse	1	t		19.0	2.5	/experiments/knapen_AOT/AOT_stimuli/rescaled_final/1247_fw.mp4	0.0	153.71076250076294	
21	125.31870150566101	pulse	1	t		19.0	2.5	/experiments/knapen_AOT/AOT_stimuli/rescaled_final/1247_fw.mp4	0.0	155.3107306957245	
21	125.84363842010498	fix_post	2		12	19.0	2.5	/experiments/knapen_AOT/AOT_stimuli/rescaled_final/1247_fw.mp4	0.0	155.83566761016846	0.10001134872436523
22	125.94364976882935	fix_pre	0		118	20.0	2.5	/experiments/knapen_AOT/AOT_stimuli/rescaled_final/2157_fw.mp4	0.0	155.93567895889282	0.9918887615203857
22	126.91901636123657	pulse	0	t		20.0	2.5	/experiments/knapen_AOT/AOT_stimuli/rescaled_final/2157_fw.mp4	0.0	156.91104555130005	
22	126.93553853034973	movie	1		276	20.0	2.5	/experiments/knapen_AOT/AOT_stimuli/rescaled_final/2157_fw.mp4	0.0	156.9275677204132	2.5003011226654053
22	128.51740097999573	pulse	1	t		20.0	2.5	/experiments/knapen_AOT/AOT_stimuli/rescaled_final/2157_fw.mp4	0.0	158.5094301700592	
22	129.43583965301514	fix_post	2		12	20.0	2.5	/experiments/knapen_AOT/AOT_stimuli/rescaled_final/2157_fw.mp4	0.0	159.4278688430786	0.1000368595123291
23	129.53587651252747	fix_pre	0		120	21.0	2.5	blank	1.0	159.52790570259094	1.0001201629638672
23	130.11954307556152	pulse	0	t		21.0	2.5	blank	1.0	160.111572265625	
23	130.53599667549133	movie	1		300	21.0	2.5	blank	1.0	160.5280258655548	2.5003576278686523
23	131.71970319747925	pulse	1	t		21.0	2.5	blank	1.0	161.71173238754272	
23	133.03635430335999	fix_post	2		12	21.0	2.5	blank	1.0	163.02838349342346	0.10003471374511719
24	133.1363890171051	fix_pre	0		120	22.0	2.5	/experiments/knapen_AOT/AOT_stimuli/rescaled_final/0690_rv.mp4	0.0	163.12841820716858	1.0085046291351318
24	133.31988716125488	pulse	0	t		22.0	2.5	/experiments/knapen_AOT/AOT_stimuli/rescaled_final/0690_rv.mp4	0.0	163.31191635131836	
24	134.14489364624023	movie	1		261	22.0	2.5	/experiments/knapen_AOT/AOT_stimuli/rescaled_final/0690_rv.mp4	0.0	164.1369228363037	2.4920356273651123
24	134.91834259033203	pulse	1	t		22.0	2.5	/experiments/knapen_AOT/AOT_stimuli/rescaled_final/0690_rv.mp4	0.0	164.9103717803955	
24	136.51962280273438	pulse	1	t		22.0	2.5	/experiments/knapen_AOT/AOT_stimuli/rescaled_final/0690_rv.mp4	0.0	166.51165199279785	
24	136.63692927360535	fix_post	2		12	22.0	2.5	/experiments/knapen_AOT/AOT_stimuli/rescaled_final/0690_rv.mp4	0.0	166.62895846366882	0.10000228881835938
25	136.7369315624237	fix_pre	0		120	23.0	2.5	/experiments/knapen_AOT/AOT_stimuli/rescaled_final/2157_fw.mp4	0.0	166.72896075248718	1.0084989070892334
25	137.74543046951294	movie	1		276	23.0	2.5	/experiments/knapen_AOT/AOT_stimuli/rescaled_final/2157_fw.mp4	0.0	167.73745965957642	2.49204421043396
25	138.11913061141968	pulse	1	t		23.0	2.5	/experiments/knapen_AOT/AOT_stimuli/rescaled_final/2157_fw.mp4	0.0	168.11115980148315	
25	139.71865487098694	pulse	1	t		23.0	2.5	/experiments/knapen_AOT/AOT_stimuli/rescaled_final/2157_fw.mp4	0.0	169.71068406105042	
25	140.2374746799469	fix_post	2		12	23.0	2.5	/experiments/knapen_AOT/AOT_stimuli/rescaled_final/2157_fw.mp4	0.0	170.22950387001038	0.10005593299865723
26	140.33753061294556	fix_pre	0		119	24.0	2.5	/experiments/knapen_AOT/AOT_stimuli/rescaled_final/0012_rv.mp4	0.0	170.32955980300903	1.0001721382141113
26	141.32108068466187	pulse	0	t		24.0	2.5	/experiments/knapen_AOT/AOT_stimuli/rescaled_final/0012_rv.mp4	0.0	171.31310987472534	
26	141.33770275115967	movie	1		273	24.0	2.5	/experiments/knapen_AOT/AOT_stimuli/rescaled_final/0012_rv.mp4	0.0	171.32973194122314	2.5002923011779785
26	142.91999673843384	pulse	1	t		24.0	2.5	/experiments/knapen_AOT/AOT_stimuli/rescaled_final/0012_rv.mp4	0.0	172.91202592849731	
26	143.83799505233765	fix_post	2		12	24.0	2.5	/experiments/knapen_AOT/AOT_stimuli/rescaled_final/0012_rv.mp4	0.0	173.83002424240112	0.10001635551452637
27	143.93801140785217	fix_pre	0		120	25.0	2.5	/experiments/knapen_AOT/AOT_stimuli/rescaled_final/1548_fw.mp4	0.0	173.93004059791565	1.0085046291351318
27	144.52165126800537	pulse	0	t		25.0	2.5	/experiments/knapen_AOT/AOT_stimuli/rescaled_final/1548_fw.mp4	0.0	174.51368045806885	
27	144.9465160369873	movie	1		284	25.0	2.5	/experiments/knapen_AOT/AOT_stimuli/rescaled_final/1548_fw.mp4	0.0	174.93854522705078	2.4920341968536377
27	146.1201364994049	pulse	1	t		25.0	2.5	/experiments/knapen_AOT/AOT_stimuli/rescaled_final/1548_fw.mp4	0.0	176.11216568946838	
27	147.43855023384094	fix_post	2		12	25.0	2.5	/experiments/knapen_AOT/AOT_stimuli/rescaled_final/1548_fw.mp4	0.0	177.43057942390442	0.10004663467407227
28	147.53859686851501	fix_pre	0		120	26.0	2.5	/experiments/knapen_AOT/AOT_stimuli/rescaled_final/1174_rv.mp4	0.0	177.5306260585785	1.0084760189056396
28	147.72208428382874	pulse	0	t		26.0	2.5	/experiments/knapen_AOT/AOT_stimuli/rescaled_final/1174_rv.mp4	0.0	177.7141134738922	
28	148.54707288742065	movie	1		267	26.0	2.5	/experiments/knapen_AOT/AOT_stimuli/rescaled_final/1174_rv.mp4	0.0	178.53910207748413	2.4920263290405273
28	149.32064986228943	pulse	1	t		26.0	2.5	/experiments/knapen_AOT/AOT_stimuli/rescaled_final/1174_rv.mp4	0.0	179.3126790523529	
28	150.92035007476807	pulse	1	t		26.0	2.5	/experiments/knapen_AOT/AOT_stimuli/rescaled_final/1174_rv.mp4	0.0	180.91237926483154	
28	151.03909921646118	fix_post	2		12	26.0	2.5	/experiments/knapen_AOT/AOT_stimuli/rescaled_final/1174_rv.mp4	0.0	181.03112840652466	0.10000061988830566
29	151.1390998363495	fix_pre	0		120	27.0	2.5	blank	1.0	181.13112902641296	1.0001332759857178
29	152.1392331123352	movie	1		300	27.0	2.5	blank	1.0	182.13126230239868	2.5004055500030518
29	152.52279353141785	pulse	1	t		27.0	2.5	blank	1.0	182.51482272148132	
29	154.12298202514648	pulse	1	t		27.0	2.5	blank	1.0	184.11501121520996	
29	154.63963866233826	fix_post	2		12	27.0	2.5	blank	1.0	184.63166785240173	0.09999537467956543
30	154.73963403701782	fix_pre	0		119	28.0	2.5	/experiments/knapen_AOT/AOT_stimuli/rescaled_final/1108_fw.mp4	0.0	184.7316632270813	1.000166893005371
30	155.72329831123352	pulse	0	t		28.0	2.5	/experiments/knapen_AOT/AOT_stimuli/rescaled_final/1108_fw.mp4	0.0	185.715327501297	
30	155.7398009300232	movie	1		276	28.0	2.5	/experiments/knapen_AOT/AOT_stimuli/rescaled_final/1108_fw.mp4	0.0	185.73183012008667	2.5003859996795654
30	157.32185554504395	pulse	1	t		28.0	2.5	/experiments/knapen_AOT/AOT_stimuli/rescaled_final/1108_fw.mp4	0.0	187.31388473510742	
30	158.24018692970276	fix_post	2		12	28.0	2.5	/experiments/knapen_AOT/AOT_stimuli/rescaled_final/1108_fw.mp4	0.0	188.23221611976624	0.10001635551452637
31	158.34020328521729	fix_pre	0		120	29.0	2.5	/experiments/knapen_AOT/AOT_stimuli/rescaled_final/0070_fw.mp4	0.0	188.33223247528076	1.008467435836792
31	158.92375349998474	pulse	0	t		29.0	2.5	/experiments/knapen_AOT/AOT_stimuli/rescaled_final/0070_fw.mp4	0.0	188.91578269004822	
31	159.34867072105408	movie	1		277	29.0	2.5	/experiments/knapen_AOT/AOT_stimuli/rescaled_final/0070_fw.mp4	0.0	189.34069991111755	2.492037296295166
31	160.52235007286072	pulse	1	t		29.0	2.5	/experiments/knapen_AOT/AOT_stimuli/rescaled_final/0070_fw.mp4	0.0	190.5143792629242	
31	161.84070801734924	fix_post	2		12	29.0	2.5	/experiments/knapen_AOT/AOT_stimuli/rescaled_final/0070_fw.mp4	0.0	191.83273720741272	0.10002279281616211
32	161.9407308101654	fix_pre	0		120	30.0	2.5	/experiments/knapen_AOT/AOT_stimuli/rescaled_final/0903_fw.mp4	0.0	191.93276000022888	1.0085883140563965
32	162.12443351745605	pulse	0	t		30.0	2.5	/experiments/knapen_AOT/AOT_stimuli/rescaled_final/0903_fw.mp4	0.0	192.11646270751953	
32	162.9493191242218	movie	1		276	30.0	2.5	/experiments/knapen_AOT/AOT_stimuli/rescaled_final/0903_fw.mp4	0.0	192.94134831428528	2.4919559955596924
32	163.72253799438477	pulse	1	t		30.0	2.5	/experiments/knapen_AOT/AOT_stimuli/rescaled_final/0903_fw.mp4	0.0	193.71456718444824	
32	165.3227255344391	pulse	1	t		30.0	2.5	/experiments/knapen_AOT/AOT_stimuli/rescaled_final/0903_fw.mp4	0.0	195.31475472450256	
32	165.4412751197815	fix_post	2		12	30.0	2.5	/experiments/knapen_AOT/AOT_stimuli/rescaled_final/0903_fw.mp4	0.0	195.43330430984497	0.09999680519104004
33	165.54127192497253	fix_pre	0		120	31.0	2.5	/experiments/knapen_AOT/AOT_stimuli/rescaled_final/0404_rv.mp4	0.0	195.533301115036	1.0084962844848633
33	166.5497682094574	movie	1		268	31.0	2.5	/experiments/knapen_AOT/AOT_stimuli/rescaled_final/0404_rv.mp4	0.0	196.54179739952087	2.4920406341552734
33	166.92521405220032	pulse	1	t		31.0	2.5	/experiments/knapen_AOT/AOT_stimuli/rescaled_final/0404_rv.mp4	0.0	196.9172432422638	
33	168.52517080307007	pulse	1	t		31.0	2.5	/experiments/knapen_AOT/AOT_stimuli/rescaled_final/0404_rv.mp4	0.0	198.51719999313354	
33	169.04180884361267	fix_post	2		12	31.0	2.5	/experiments/knapen_AOT/AOT_stimuli/rescaled_final/0404_rv.mp4	0.0	199.03383803367615	0.10018587112426758
34	169.14199471473694	fix_pre	0		119	32.0	2.5	/experiments/knapen_AOT/AOT_stimuli/rescaled_final/2010_fw.mp4	0.0	199.13402390480042	1.0000121593475342
34	170.11768913269043	pulse	0	t		32.0	2.5	/experiments/knapen_AOT/AOT_stimuli/rescaled_final/2010_fw.mp4	0.0	200.1097183227539	
34	170.14200687408447	movie	1		273	32.0	2.5	/experiments/knapen_AOT/AOT_stimuli/rescaled_final/2010_fw.mp4	0.0	200.13403606414795	2.500364303588867
34	171.71775007247925	pulse	1	t		32.0	2.5	/experiments/knapen_AOT/AOT_stimuli/rescaled_final/2010_fw.mp4	0.0	201.70977926254272	
34	172.64237117767334	fix_post	2		12	32.0	2.5	/experiments/knapen_AOT/AOT_stimuli/rescaled_final/2010_fw.mp4	0.0	202.63440036773682	0.10004687309265137
35	172.742418050766	fix_pre	0		120	33.0	2.5	blank	1.0	202.73444724082947	1.0001537799835205
35	173.31763315200806	pulse	0	t		33.0	2.5	blank	1.0	203.30966234207153	
35	173.7425718307495	movie	1		300	33.0	2.5	blank	1.0	203.734601020813	2.500316858291626
35	174.91796493530273	pulse	1	t		33.0	2.5	blank	1.0	204.9099941253662	
35	176.24288868904114	fix_post	2		12	33.0	2.5	blank	1.0	206.23491787910461	0.1001136302947998
36	176.34300231933594	fix_pre	0		120	34.0	2.5	/experiments/knapen_AOT/AOT_stimuli/rescaled_final/0904_fw.mp4	0.0	206.3350315093994	1.008453130722046
36	176.51827788352966	pulse	0	t		34.0	2.5	/experiments/knapen_AOT/AOT_stimuli/rescaled_final/0904_fw.mp4	0.0	206.51030707359314	
36	177.35145545005798	movie	1		267	34.0	2.5	/experiments/knapen_AOT/AOT_stimuli/rescaled_final/0904_fw.mp4	0.0	207.34348464012146	2.492023229598999
36	178.11852359771729	pulse	1	t		34.0	2.5	/experiments/knapen_AOT/AOT_stimuli/rescaled_final/0904_fw.mp4	0.0	208.11055278778076	
36	179.71859121322632	pulse	1	t		34.0	2.5	/experiments/knapen_AOT/AOT_stimuli/rescaled_final/0904_fw.mp4	0.0	209.7106204032898	
36	179.84347867965698	fix_post	2		12	34.0	2.5	/experiments/knapen_AOT/AOT_stimuli/rescaled_final/0904_fw.mp4	0.0	209.83550786972046	0.09996676445007324
37	179.94344544410706	fix_pre	0		120	35.0	2.5	/experiments/knapen_AOT/AOT_stimuli/rescaled_final/1079_fw.mp4	0.0	209.93547463417053	1.008516550064087
37	180.95196199417114	movie	1		270	35.0	2.5	/experiments/knapen_AOT/AOT_stimuli/rescaled_final/1079_fw.mp4	0.0	210.94399118423462	2.4920356273651123
37	181.31881308555603	pulse	1	t		35.0	2.5	/experiments/knapen_AOT/AOT_stimuli/rescaled_final/1079_fw.mp4	0.0	211.3108422756195	
37	182.91920709609985	pulse	1	t		35.0	2.5	/experiments/knapen_AOT/AOT_stimuli/rescaled_final/1079_fw.mp4	0.0	212.91123628616333	
37	183.44399762153625	fix_post	2		12	35.0	2.5	/experiments/knapen_AOT/AOT_stimuli/rescaled_final/1079_fw.mp4	0.0	213.43602681159973	0.10008955001831055
38	183.54408717155457	fix_pre	0		118	36.0	2.5	/experiments/knapen_AOT/AOT_stimuli/rescaled_final/1995_rv.mp4	0.0	213.53611636161804	0.9917144775390625
38	184.51938033103943	pulse	0	t		36.0	2.5	/experiments/knapen_AOT/AOT_stimuli/rescaled_final/1995_rv.mp4	0.0	214.5114095211029	
38	184.53580164909363	movie	1		255	36.0	2.5	/experiments/knapen_AOT/AOT_stimuli/rescaled_final/1995_rv.mp4	0.0	214.5278308391571	2.500363826751709
38	186.11977005004883	pulse	1	t		36.0	2.5	/experiments/knapen_AOT/AOT_stimuli/rescaled_final/1995_rv.mp4	0.0	216.1117992401123	
38	187.03616547584534	fix_post	2		12	36.0	2.5	/experiments/knapen_AOT/AOT_stimuli/rescaled_final/1995_rv.mp4	0.0	217.0281946659088	0.10012006759643555
39	187.13628554344177	fix_pre	0		120	37.0	2.5	/experiments/knapen_AOT/AOT_stimuli/rescaled_final/0977_fw.mp4	0.0	217.12831473350525	1.0083975791931152
39	187.7198042869568	pulse	0	t		37.0	2.5	/experiments/knapen_AOT/AOT_stimuli/rescaled_final/0977_fw.mp4	0.0	217.71183347702026	
39	188.1446831226349	movie	1		287	37.0	2.5	/experiments/knapen_AOT/AOT_stimuli/rescaled_final/0977_fw.mp4	0.0	218.13671231269836	2.49206280708313
39	189.3180058002472	pulse	1	t		37.0	2.5	/experiments/knapen_AOT/AOT_stimuli/rescaled_final/0977_fw.mp4	0.0	219.31003499031067	
39	190.63674592971802	fix_post	2		12	37.0	2.5	/experiments/knapen_AOT/AOT_stimuli/rescaled_final/0977_fw.mp4	0.0	220.6287751197815	0.10000395774841309
40	190.73674988746643	fix_pre	0		120	38.0	2.5	/experiments/knapen_AOT/AOT_stimuli/rescaled_final/0743_rv.mp4	0.0	220.7287790775299	1.0084872245788574
40	190.92026138305664	pulse	0	t		38.0	2.5	/experiments/knapen_AOT/AOT_stimuli/rescaled_final/0743_rv.mp4	0.0	220.91229057312012	
40	191.7452371120453	movie	1		271	38.0	2.5	/experiments/knapen_AOT/AOT_stimuli/rescaled_final/0743_rv.mp4	0.0	221.73726630210876	2.492018461227417
40	192.51927781105042	pulse	1	t		38.0	2.5	/experiments/knapen_AOT/AOT_stimuli/rescaled_final/0743_rv.mp4	0.0	222.5113070011139	
40	194.11891794204712	pulse	1	t		38.0	2.5	/experiments/knapen_AOT/AOT_stimuli/rescaled_final/0743_rv.mp4	0.0	224.1109471321106	
40	194.2372555732727	fix_post	2		12	38.0	2.5	/experiments/knapen_AOT/AOT_stimuli/rescaled_final/0743_rv.mp4	0.0	224.22928476333618	0.10002279281616211
41	194.33727836608887	fix_pre	0		120	39.0	2.5	/experiments/knapen_AOT/AOT_stimuli/rescaled_final/1247_fw.mp4	0.0	224.32930755615234	1.0085234642028809
41	195.34580183029175	movie	1		266	39.0	2.5	/experiments/knapen_AOT/AOT_stimuli/rescaled_final/1247_fw.mp4	0.0	225.33783102035522	2.4920167922973633
41	195.71940326690674	pulse	1	t		39.0	2.5	/experiments/knapen_AOT/AOT_stimuli/rescaled_final/1247_fw.mp4	0.0	225.71143245697021	
41	197.3193428516388	pulse	1	t		39.0	2.5	/experiments/knapen_AOT/AOT_stimuli/rescaled_final/1247_fw.mp4	0.0	227.31137204170227	
41	197.8378186225891	fix_post	2		12	39.0	2.5	/experiments/knapen_AOT/AOT_stimuli/rescaled_final/1247_fw.mp4	0.0	227.8298478126526	0.10004019737243652
42	197.93785881996155	fix_pre	0		119	40.0	2.5	/experiments/knapen_AOT/AOT_stimuli/rescaled_final/1933_rv.mp4	0.0	227.92988801002502	1.0001342296600342
42	198.9214940071106	pulse	0	t		40.0	2.5	/experiments/knapen_AOT/AOT_stimuli/rescaled_final/1933_rv.mp4	0.0	228.91352319717407	
42	198.93799304962158	movie	1		256	40.0	2.5	/experiments/knapen_AOT/AOT_stimuli/rescaled_final/1933_rv.mp4	0.0	228.93002223968506	2.5003833770751953
42	200.52033185958862	pulse	1	t		40.0	2.5	/experiments/knapen_AOT/AOT_stimuli/rescaled_final/1933_rv.mp4	0.0	230.5123610496521	
42	201.43837642669678	fix_post	2		12	40.0	2.5	/experiments/knapen_AOT/AOT_stimuli/rescaled_final/1933_rv.mp4	0.0	231.43040561676025	0.09998774528503418
43	201.5383641719818	fix_pre	0		120	41.0	2.5	blank	1.0	231.5303933620453	1.000145673751831
43	202.12194299697876	pulse	0	t		41.0	2.5	blank	1.0	232.11397218704224	
43	202.53850984573364	movie	1		300	41.0	2.5	blank	1.0	232.53053903579712	2.5004000663757324
43	203.72246932983398	pulse	1	t		41.0	2.5	blank	1.0	233.71449851989746	
43	205.03890991210938	fix_post	2		12	41.0	2.5	blank	1.0	235.03093910217285	0.10005593299865723
44	205.13896584510803	fix_pre	0		120	42.0	2.5	/experiments/knapen_AOT/AOT_stimuli/rescaled_final/0053_rv.mp4	0.0	235.1309950351715	1.0084517002105713
44	205.3225154876709	pulse	0	t		42.0	2.5	/experiments/knapen_AOT/AOT_stimuli/rescaled_final/0053_rv.mp4	0.0	235.31454467773438	
44	206.1474175453186	movie	1		281	42.0	2.5	/experiments/knapen_AOT/AOT_stimuli/rescaled_final/0053_rv.mp4	0.0	236.13944673538208	2.492009162902832
44	206.9205174446106	pulse	1	t		42.0	2.5	/experiments/knapen_AOT/AOT_stimuli/rescaled_final/0053_rv.mp4	0.0	236.91254663467407	
44	208.52092742919922	pulse	1	t		42.0	2.5	/experiments/knapen_AOT/AOT_stimuli/rescaled_final/0053_rv.mp4	0.0	238.5129566192627	
44	208.63942670822144	fix_post	2		12	42.0	2.5	/experiments/knapen_AOT/AOT_stimuli/rescaled_final/0053_rv.mp4	0.0	238.6314558982849	0.10001182556152344
45	208.73943853378296	fix_pre	0		120	43.0	2.5	/experiments/knapen_AOT/AOT_stimuli/rescaled_final/1190_rv.mp4	0.0	238.73146772384644	1.0085034370422363
45	209.7479419708252	movie	1		282	43.0	2.5	/experiments/knapen_AOT/AOT_stimuli/rescaled_final/1190_rv.mp4	0.0	239.73997116088867	2.4920437335968018
45	210.12148594856262	pulse	1	t		43.0	2.5	/experiments/knapen_AOT/AOT_stimuli/rescaled_final/1190_rv.mp4	0.0	240.1135151386261	
45	211.7219054698944	pulse	1	t		43.0	2.5	/experiments/knapen_AOT/AOT_stimuli/rescaled_final/1190_rv.mp4	0.0	241.71393465995789	
45	212.239985704422	fix_post	2		12	43.0	2.5	/experiments/knapen_AOT/AOT_stimuli/rescaled_final/1190_rv.mp4	0.0	242.23201489448547	0.10001587867736816
46	212.34000158309937	fix_pre	0		119	44.0	2.5	/experiments/knapen_AOT/AOT_stimuli/rescaled_final/1190_fw.mp4	0.0	242.33203077316284	1.000197410583496
46	213.32371544837952	pulse	0	t		44.0	2.5	/experiments/knapen_AOT/AOT_stimuli/rescaled_final/1190_fw.mp4	0.0	243.315744638443	
46	213.34019899368286	movie	1		277	44.0	2.5	/experiments/knapen_AOT/AOT_stimuli/rescaled_final/1190_fw.mp4	0.0	243.33222818374634	2.5003273487091064
46	214.92242980003357	pulse	1	t		44.0	2.5	/experiments/knapen_AOT/AOT_stimuli/rescaled_final/1190_fw.mp4	0.0	244.91445899009705	
46	215.84052634239197	fix_post	2		12	44.0	2.5	/experiments/knapen_AOT/AOT_stimuli/rescaled_final/1190_fw.mp4	0.0	245.83255553245544	0.10003876686096191
47	215.94056510925293	fix_pre	0		120	45.0	2.5	/experiments/knapen_AOT/AOT_stimuli/rescaled_final/0411_rv.mp4	0.0	245.9325942993164	1.0084421634674072
47	216.52421879768372	pulse	0	t		45.0	2.5	/experiments/knapen_AOT/AOT_stimuli/rescaled_final/0411_rv.mp4	0.0	246.5162479877472	
47	216.94900727272034	movie	1		267	45.0	2.5	/experiments/knapen_AOT/AOT_stimuli/rescaled_final/0411_rv.mp4	0.0	246.9410364627838	2.4920687675476074
47	218.12265825271606	pulse	1	t		45.0	2.5	/experiments/knapen_AOT/AOT_stimuli/rescaled_final/0411_rv.mp4	0.0	248.11468744277954	
47	219.44107604026794	fix_post	2		12	45.0	2.5	/experiments/knapen_AOT/AOT_stimuli/rescaled_final/0411_rv.mp4	0.0	249.43310523033142	0.10001850128173828
48	219.54109454154968	fix_pre	0		120	46.0	2.5	/experiments/knapen_AOT/AOT_stimuli/rescaled_final/0766_rv.mp4	0.0	249.53312373161316	1.0085163116455078
48	219.72487330436707	pulse	0	t		46.0	2.5	/experiments/knapen_AOT/AOT_stimuli/rescaled_final/0766_rv.mp4	0.0	249.71690249443054	
48	220.5496108531952	movie	1		261	46.0	2.5	/experiments/knapen_AOT/AOT_stimuli/rescaled_final/0766_rv.mp4	0.0	250.54164004325867	2.492030382156372
48	221.32398414611816	pulse	1	t		46.0	2.5	/experiments/knapen_AOT/AOT_stimuli/rescaled_final/0766_rv.mp4	0.0	251.31601333618164	
48	222.9230031967163	pulse	1	t		46.0	2.5	/experiments/knapen_AOT/AOT_stimuli/rescaled_final/0766_rv.mp4	0.0	252.91503238677979	
48	223.04164123535156	fix_post	2		12	46.0	2.5	/experiments/knapen_AOT/AOT_stimuli/rescaled_final/0766_rv.mp4	0.0	253.03367042541504	0.10003066062927246
49	223.14167189598083	fix_pre	0		120	47.0	2.5	/experiments/knapen_AOT/AOT_stimuli/rescaled_final/1557_fw.mp4	0.0	253.1337010860443	1.0084466934204102
49	224.15011858940125	movie	1		284	47.0	2.5	/experiments/knapen_AOT/AOT_stimuli/rescaled_final/1557_fw.mp4	0.0	254.14214777946472	2.4920594692230225
49	224.52352786064148	pulse	1	t		47.0	2.5	/experiments/knapen_AOT/AOT_stimuli/rescaled_final/1557_fw.mp4	0.0	254.51555705070496	
49	226.1259195804596	pulse	1	t		47.0	2.5	/experiments/knapen_AOT/AOT_stimuli/rescaled_final/1557_fw.mp4	0.0	256.11794877052307	
49	226.64217805862427	fix_post	2		12	47.0	2.5	/experiments/knapen_AOT/AOT_stimuli/rescaled_final/1557_fw.mp4	0.0	256.63420724868774	0.0999901294708252
50	226.7421681880951	fix_pre	0		119	48.0	2.5	/experiments/knapen_AOT/AOT_stimuli/rescaled_final/1721_fw.mp4	0.0	256.73419737815857	1.0001411437988281
50	227.71866655349731	pulse	0	t		48.0	2.5	/experiments/knapen_AOT/AOT_stimuli/rescaled_final/1721_fw.mp4	0.0	257.7106957435608	
50	227.74230933189392	movie	1		268	48.0	2.5	/experiments/knapen_AOT/AOT_stimuli/rescaled_final/1721_fw.mp4	0.0	257.7343385219574	2.5003998279571533
50	229.31894755363464	pulse	1	t		48.0	2.5	/experiments/knapen_AOT/AOT_stimuli/rescaled_final/1721_fw.mp4	0.0	259.3109767436981	
50	230.24270915985107	fix_post	2		12	48.0	2.5	/experiments/knapen_AOT/AOT_stimuli/rescaled_final/1721_fw.mp4	0.0	260.23473834991455	0.0999915599822998
51	230.34270071983337	fix_pre	0		120	49.0	2.5	blank	1.0	260.33472990989685	1.0001370906829834
51	230.9183611869812	pulse	0	t		49.0	2.5	blank	1.0	260.9103903770447	
51	231.34283781051636	movie	1		300	49.0	2.5	blank	1.0	261.33486700057983	2.500473737716675
51	232.51852536201477	pulse	1	t		49.0	2.5	blank	1.0	262.51055455207825	
51	233.84331154823303	fix_post	2		12	49.0	2.5	blank	1.0	263.8353407382965	0.0999593734741211
52	233.94327092170715	fix_pre	0		120	50.0	2.5	/experiments/knapen_AOT/AOT_stimuli/rescaled_final/1190_fw.mp4	0.0	263.93530011177063	1.0085017681121826
52	234.11857271194458	pulse	0	t		50.0	2.5	/experiments/knapen_AOT/AOT_stimuli/rescaled_final/1190_fw.mp4	0.0	264.11060190200806	
52	234.95177268981934	movie	1		279	50.0	2.5	/experiments/knapen_AOT/AOT_stimuli/rescaled_final/1190_fw.mp4	0.0	264.9438018798828	2.4919943809509277
52	235.71871137619019	pulse	1	t		50.0	2.5	/experiments/knapen_AOT/AOT_stimuli/rescaled_final/1190_fw.mp4	0.0	265.71074056625366	
52	237.31897377967834	pulse	1	t		50.0	2.5	/experiments/knapen_AOT/AOT_stimuli/rescaled_final/1190_fw.mp4	0.0	267.3110029697418	
52	237.44376707077026	fix_post	2		12	50.0	2.5	/experiments/knapen_AOT/AOT_stimuli/rescaled_final/1190_fw.mp4	0.0	267.43579626083374	0.10001945495605469
53	237.54378652572632	fix_pre	0		120	51.0	2.5	/experiments/knapen_AOT/AOT_stimuli/rescaled_final/1319_rv.mp4	0.0	267.5358157157898	1.008483648300171
53	238.5522701740265	movie	1		278	51.0	2.5	/experiments/knapen_AOT/AOT_stimuli/rescaled_final/1319_rv.mp4	0.0	268.54429936408997	2.492032766342163
53	238.91814589500427	pulse	1	t		51.0	2.5	/experiments/knapen_AOT/AOT_stimuli/rescaled_final/1319_rv.mp4	0.0	268.91017508506775	
53	240.51947951316833	pulse	1	t		51.0	2.5	/experiments/knapen_AOT/AOT_stimuli/rescaled_final/1319_rv.mp4	0.0	270.5115087032318	
53	241.04430294036865	fix_post	2		12	51.0	2.5	/experiments/knapen_AOT/AOT_stimuli/rescaled_final/1319_rv.mp4	0.0	271.03633213043213	0.10001897811889648
54	241.14432191848755	fix_pre	0		118	52.0	2.5	/experiments/knapen_AOT/AOT_stimuli/rescaled_final/0385_rv.mp4	0.0	271.136351108551	0.9918265342712402
54	242.1197247505188	pulse	0	t		52.0	2.5	/experiments/knapen_AOT/AOT_stimuli/rescaled_final/0385_rv.mp4	0.0	272.1117539405823	
54	242.1361484527588	movie	1		258	52.0	2.5	/experiments/knapen_AOT/AOT_stimuli/rescaled_final/0385_rv.mp4	0.0	272.12817764282227	2.500387668609619
54	243.71814823150635	pulse	1	t		52.0	2.5	/experiments/knapen_AOT/AOT_stimuli/rescaled_final/0385_rv.mp4	0.0	273.7101774215698	
54	244.6365361213684	fix_post	2		12	52.0	2.5	/experiments/knapen_AOT/AOT_stimuli/rescaled_final/0385_rv.mp4	0.0	274.6285653114319	0.10006022453308105
55	244.7365963459015	fix_pre	0		120	53.0	2.5	/experiments/knapen_AOT/AOT_stimuli/rescaled_final/1167_rv.mp4	0.0	274.72862553596497	1.008469581604004
55	245.3202109336853	pulse	0	t		53.0	2.5	/experiments/knapen_AOT/AOT_stimuli/rescaled_final/1167_rv.mp4	0.0	275.3122401237488	
55	245.7450659275055	movie	1		282	53.0	2.5	/experiments/knapen_AOT/AOT_stimuli/rescaled_final/1167_rv.mp4	0.0	275.73709511756897	2.491997480392456
55	246.91835403442383	pulse	1	t		53.0	2.5	/experiments/knapen_AOT/AOT_stimuli/rescaled_final/1167_rv.mp4	0.0	276.9103832244873	
55	248.23706340789795	fix_post	2		12	53.0	2.5	/experiments/knapen_AOT/AOT_stimuli/rescaled_final/1167_rv.mp4	0.0	278.2290925979614	0.10000729560852051
56	248.33707070350647	fix_pre	0		120	54.0	2.5	/experiments/knapen_AOT/AOT_stimuli/rescaled_final/0185_fw.mp4	0.0	278.32909989356995	1.0085246562957764
56	248.52098751068115	pulse	0	t		54.0	2.5	/experiments/knapen_AOT/AOT_stimuli/rescaled_final/0185_fw.mp4	0.0	278.51301670074463	
56	249.34559535980225	movie	1		275	54.0	2.5	/experiments/knapen_AOT/AOT_stimuli/rescaled_final/0185_fw.mp4	0.0	279.3376245498657	2.49202036857605
56	250.1188747882843	pulse	1	t		54.0	2.5	/experiments/knapen_AOT/AOT_stimuli/rescaled_final/0185_fw.mp4	0.0	280.1109039783478	
56	251.71955394744873	pulse	1	t		54.0	2.5	/experiments/knapen_AOT/AOT_stimuli/rescaled_final/0185_fw.mp4	0.0	281.7115831375122	
56	251.8376157283783	fix_post	2		12	54.0	2.5	/experiments/knapen_AOT/AOT_stimuli/rescaled_final/0185_fw.mp4	0.0	281.8296449184418	0.10005664825439453
57	251.9376723766327	fix_pre	0		120	55.0	2.5	/experiments/knapen_AOT/AOT_stimuli/rescaled_final/0677_rv.mp4	0.0	281.92970156669617	1.008429765701294
57	252.94610214233398	movie	1		276	55.0	2.5	/experiments/knapen_AOT/AOT_stimuli/rescaled_final/0677_rv.mp4	0.0	282.93813133239746	2.4920384883880615
57	253.31978750228882	pulse	1	t		55.0	2.5	/experiments/knapen_AOT/AOT_stimuli/rescaled_final/0677_rv.mp4	0.0	283.3118166923523	
57	254.91929030418396	pulse	1	t		55.0	2.5	/experiments/knapen_AOT/AOT_stimuli/rescaled_final/0677_rv.mp4	0.0	284.91131949424744	
57	255.43814063072205	fix_post	2		12	55.0	2.5	/experiments/knapen_AOT/AOT_stimuli/rescaled_final/0677_rv.mp4	0.0	285.4301698207855	0.10001444816589355
58	255.53815507888794	fix_pre	0		119	56.0	2.5	blank	1.0	285.5301842689514	0.9918384552001953
58	256.5218505859375	pulse	0	t		56.0	2.5	blank	1.0	286.513879776001	
58	256.52999353408813	movie	1		301	56.0	2.5	blank	1.0	286.5220227241516	2.508747100830078
58	258.1220655441284	pulse	1	t		56.0	2.5	blank	1.0	288.1140947341919	
58	259.0387406349182	fix_post	2		12	56.0	2.5	blank	1.0	289.0307698249817	0.09997296333312988
59	259.13871359825134	fix_pre	0		120	57.0	2.5	/experiments/knapen_AOT/AOT_stimuli/rescaled_final/0845_fw.mp4	0.0	289.1307427883148	1.0085053443908691
59	259.72231125831604	pulse	0	t		57.0	2.5	/experiments/knapen_AOT/AOT_stimuli/rescaled_final/0845_fw.mp4	0.0	289.7143404483795	
59	260.1472189426422	movie	1		277	57.0	2.5	/experiments/knapen_AOT/AOT_stimuli/rescaled_final/0845_fw.mp4	0.0	290.1392481327057	2.492008924484253
59	261.3208417892456	pulse	1	t		57.0	2.5	/experiments/knapen_AOT/AOT_stimuli/rescaled_final/0845_fw.mp4	0.0	291.3128709793091	
59	262.63922786712646	fix_post	2		12	57.0	2.5	/experiments/knapen_AOT/AOT_stimuli/rescaled_final/0845_fw.mp4	0.0	292.63125705718994	0.10006141662597656
60	262.73928928375244	fix_pre	0		120	58.0	2.5	/experiments/knapen_AOT/AOT_stimuli/rescaled_final/1995_fw.mp4	0.0	292.7313184738159	1.0084688663482666
60	262.92286443710327	pulse	0	t		58.0	2.5	/experiments/knapen_AOT/AOT_stimuli/rescaled_final/1995_fw.mp4	0.0	292.91489362716675	
60	263.7477581501007	movie	1		288	58.0	2.5	/experiments/knapen_AOT/AOT_stimuli/rescaled_final/1995_fw.mp4	0.0	293.7397873401642	2.492035150527954
60	264.5207099914551	pulse	1	t		58.0	2.5	/experiments/knapen_AOT/AOT_stimuli/rescaled_final/1995_fw.mp4	0.0	294.51273918151855	
60	266.1212508678436	pulse	1	t		58.0	2.5	/experiments/knapen_AOT/AOT_stimuli/rescaled_final/1995_fw.mp4	0.0	296.1132800579071	
60	266.23979330062866	fix_post	2		12	58.0	2.5	/experiments/knapen_AOT/AOT_stimuli/rescaled_final/1995_fw.mp4	0.0	296.23182249069214	0.09999918937683105
61	266.3397924900055	fix_pre	0		120	59.0	2.5	/experiments/knapen_AOT/AOT_stimuli/rescaled_final/1703_rv.mp4	0.0	296.33182168006897	1.0085418224334717
61	267.34833431243896	movie	1		263	59.0	2.5	/experiments/knapen_AOT/AOT_stimuli/rescaled_final/1703_rv.mp4	0.0	297.34036350250244	2.492006540298462
61	267.72369289398193	pulse	1	t		59.0	2.5	/experiments/knapen_AOT/AOT_stimuli/rescaled_final/1703_rv.mp4	0.0	297.7157220840454	
61	269.32366490364075	pulse	1	t		59.0	2.5	/experiments/knapen_AOT/AOT_stimuli/rescaled_final/1703_rv.mp4	0.0	299.3156940937042	
61	269.8403408527374	fix_post	2		12	59.0	2.5	/experiments/knapen_AOT/AOT_stimuli/rescaled_final/1703_rv.mp4	0.0	299.8323700428009	0.09999203681945801
62	269.9403328895569	fix_pre	0		119	60.0	2.5	/experiments/knapen_AOT/AOT_stimuli/rescaled_final/0801_rv.mp4	0.0	299.93236207962036	1.00016450881958
62	270.9241337776184	pulse	0	t		60.0	2.5	/experiments/knapen_AOT/AOT_stimuli/rescaled_final/0801_rv.mp4	0.0	300.9161629676819	
62	270.94049739837646	movie	1		263	60.0	2.5	/experiments/knapen_AOT/AOT_stimuli/rescaled_final/0801_rv.mp4	0.0	300.93252658843994	2.50045108795166
62	272.52285408973694	pulse	1	t		60.0	2.5	/experiments/knapen_AOT/AOT_stimuli/rescaled_final/0801_rv.mp4	0.0	302.5148832798004	
62	273.4409484863281	fix_post	2		12	60.0	2.5	/experiments/knapen_AOT/AOT_stimuli/rescaled_final/0801_rv.mp4	0.0	303.4329776763916	0.09991693496704102
63	273.54086542129517	fix_pre	0		120	61.0	2.5	/experiments/knapen_AOT/AOT_stimuli/rescaled_final/1435_rv.mp4	0.0	303.53289461135864	1.0085020065307617
63	274.12461161613464	pulse	0	t		61.0	2.5	/experiments/knapen_AOT/AOT_stimuli/rescaled_final/1435_rv.mp4	0.0	304.1166408061981	
63	274.5493674278259	movie	1		263	61.0	2.5	/experiments/knapen_AOT/AOT_stimuli/rescaled_final/1435_rv.mp4	0.0	304.5413966178894	2.492034435272217
63	275.72578525543213	pulse	1	t		61.0	2.5	/experiments/knapen_AOT/AOT_stimuli/rescaled_final/1435_rv.mp4	0.0	305.7178144454956	
63	277.04140186309814	fix_post	2		12	61.0	2.5	/experiments/knapen_AOT/AOT_stimuli/rescaled_final/1435_rv.mp4	0.0	307.0334310531616	0.10000967979431152
64	277.14141154289246	fix_pre	0		120	62.0	2.5	blank	1.0	307.13344073295593	1.0002784729003906
64	277.3249785900116	pulse	0	t		62.0	2.5	blank	1.0	307.3170077800751	
64	278.14169001579285	movie	1		300	62.0	2.5	blank	1.0	308.1337192058563	2.500251531600952
64	278.92532682418823	pulse	1	t		62.0	2.5	blank	1.0	308.9173560142517	
64	280.5254862308502	pulse	1	t		62.0	2.5	blank	1.0	310.5175154209137	
64	280.6419415473938	fix_post	2		12	62.0	2.5	blank	1.0	310.6339707374573	0.1000363826751709
65	280.74197793006897	fix_pre	0		120	63.0	2.5	/experiments/knapen_AOT/AOT_stimuli/rescaled_final/1676_rv.mp4	0.0	310.73400712013245	1.008495807647705
65	281.7504737377167	movie	1		267	63.0	2.5	/experiments/knapen_AOT/AOT_stimuli/rescaled_final/1676_rv.mp4	0.0	311.74250292778015	2.4920387268066406
65	282.1237835884094	pulse	1	t		63.0	2.5	/experiments/knapen_AOT/AOT_stimuli/rescaled_final/1676_rv.mp4	0.0	312.1158127784729	
65	283.7242453098297	pulse	1	t		63.0	2.5	/experiments/knapen_AOT/AOT_stimuli/rescaled_final/1676_rv.mp4	0.0	313.7162744998932	
65	284.2425124645233	fix_post	2		12	63.0	2.5	/experiments/knapen_AOT/AOT_stimuli/rescaled_final/1676_rv.mp4	0.0	314.2345416545868	0.09998464584350586
66	284.3424971103668	fix_pre	0		119	64.0	2.5	/experiments/knapen_AOT/AOT_stimuli/rescaled_final/1447_rv.mp4	0.0	314.3345263004303	1.0003345012664795
66	285.3261957168579	pulse	0	t		64.0	2.5	/experiments/knapen_AOT/AOT_stimuli/rescaled_final/1447_rv.mp4	0.0	315.3182249069214	
66	285.3428316116333	movie	1		276	64.0	2.5	/experiments/knapen_AOT/AOT_stimuli/rescaled_final/1447_rv.mp4	0.0	315.3348608016968	2.5001957416534424
66	286.9261598587036	pulse	1	t		64.0	2.5	/experiments/knapen_AOT/AOT_stimuli/rescaled_final/1447_rv.mp4	0.0	316.9181890487671	
66	287.84302735328674	fix_post	2		12	64.0	2.5	/experiments/knapen_AOT/AOT_stimuli/rescaled_final/1447_rv.mp4	0.0	317.8350565433502	0.10007524490356445
67	287.9431025981903	fix_pre	0		120	65.0	2.5	/experiments/knapen_AOT/AOT_stimuli/rescaled_final/0535_rv.mp4	0.0	317.9351317882538	1.0084915161132812
67	288.5185568332672	pulse	0	t		65.0	2.5	/experiments/knapen_AOT/AOT_stimuli/rescaled_final/0535_rv.mp4	0.0	318.5105860233307	
67	288.9515941143036	movie	1		270	65.0	2.5	/experiments/knapen_AOT/AOT_stimuli/rescaled_final/0535_rv.mp4	0.0	318.94362330436707	2.492135524749756
67	290.1186125278473	pulse	1	t		65.0	2.5	/experiments/knapen_AOT/AOT_stimuli/rescaled_final/0535_rv.mp4	0.0	320.11064171791077	
67	291.44372963905334	fix_post	2		12	65.0	2.5	/experiments/knapen_AOT/AOT_stimuli/rescaled_final/0535_rv.mp4	0.0	321.4357588291168	0.0998692512512207
68	291.54359889030457	fix_pre	0		120	66.0	2.5	/experiments/knapen_AOT/AOT_stimuli/rescaled_final/1020_fw.mp4	0.0	321.53562808036804	1.00850248336792
68	291.71884846687317	pulse	0	t		66.0	2.5	/experiments/knapen_AOT/AOT_stimuli/rescaled_final/1020_fw.mp4	0.0	321.71087765693665	
68	292.5521013736725	movie	1		271	66.0	2.5	/experiments/knapen_AOT/AOT_stimuli/rescaled_final/1020_fw.mp4	0.0	322.54413056373596	2.4921531677246094
68	293.3176350593567	pulse	1	t		66.0	2.5	/experiments/knapen_AOT/AOT_stimuli/rescaled_final/1020_fw.mp4	0.0	323.30966424942017	
68	294.9176049232483	pulse	1	t		66.0	2.5	/experiments/knapen_AOT/AOT_stimuli/rescaled_final/1020_fw.mp4	0.0	324.90963411331177	
68	295.0442545413971	fix_post	2		12	66.0	2.5	/experiments/knapen_AOT/AOT_stimuli/rescaled_final/1020_fw.mp4	0.0	325.03628373146057	0.09989643096923828
69	295.14415097236633	fix_pre	0		120	67.0	2.5	/experiments/knapen_AOT/AOT_stimuli/rescaled_final/0670_rv.mp4	0.0	325.1361801624298	1.0085010528564453
69	296.1526520252228	movie	1		274	67.0	2.5	/experiments/knapen_AOT/AOT_stimuli/rescaled_final/0670_rv.mp4	0.0	326.14468121528625	2.492013931274414
69	296.51973605155945	pulse	1	t		67.0	2.5	/experiments/knapen_AOT/AOT_stimuli/rescaled_final/0670_rv.mp4	0.0	326.5117652416229	
69	298.11955213546753	pulse	1	t		67.0	2.5	/experiments/knapen_AOT/AOT_stimuli/rescaled_final/0670_rv.mp4	0.0	328.111581325531	
69	298.6446659564972	fix_post	2		12	67.0	2.5	/experiments/knapen_AOT/AOT_stimuli/rescaled_final/0670_rv.mp4	0.0	328.63669514656067	0.09997296333312988
70	298.7446389198303	fix_pre	0		118	68.0	2.5	blank	1.0	328.7366681098938	0.9835090637207031
70	299.72008061408997	pulse	0	t		68.0	2.5	blank	1.0	329.71210980415344	
70	299.728147983551	movie	1		301	68.0	2.5	blank	1.0	329.7201771736145	2.5087153911590576
70	301.3203115463257	pulse	1	t		68.0	2.5	blank	1.0	331.31234073638916	
70	302.2368633747101	fix_post	2		12	68.0	2.5	blank	1.0	332.22889256477356	0.10001802444458008
71	302.33688139915466	fix_pre	0		120	69.0	2.5	/experiments/knapen_AOT/AOT_stimuli/rescaled_final/0053_fw.mp4	0.0	332.32891058921814	1.0084717273712158
71	302.9206154346466	pulse	0	t		69.0	2.5	/experiments/knapen_AOT/AOT_stimuli/rescaled_final/0053_fw.mp4	0.0	332.9126446247101	
71	303.3453531265259	movie	1		284	69.0	2.5	/experiments/knapen_AOT/AOT_stimuli/rescaled_final/0053_fw.mp4	0.0	333.33738231658936	2.4920709133148193
71	304.5199191570282	pulse	1	t		69.0	2.5	/experiments/knapen_AOT/AOT_stimuli/rescaled_final/0053_fw.mp4	0.0	334.5119483470917	
71	305.8374240398407	fix_post	2		12	69.0	2.5	/experiments/knapen_AOT/AOT_stimuli/rescaled_final/0053_fw.mp4	0.0	335.8294532299042	0.1000056266784668
72	305.93742966651917	fix_pre	0		120	70.0	2.5	/experiments/knapen_AOT/AOT_stimuli/rescaled_final/1430_rv.mp4	0.0	335.92945885658264	1.0084946155548096
72	306.1209979057312	pulse	0	t		70.0	2.5	/experiments/knapen_AOT/AOT_stimuli/rescaled_final/1430_rv.mp4	0.0	336.1130270957947	
72	306.945924282074	movie	1		291	70.0	2.5	/experiments/knapen_AOT/AOT_stimuli/rescaled_final/1430_rv.mp4	0.0	336.93795347213745	2.492058277130127
72	307.71935391426086	pulse	1	t		70.0	2.5	/experiments/knapen_AOT/AOT_stimuli/rescaled_final/1430_rv.mp4	0.0	337.71138310432434	
72	309.3198025226593	pulse	1	t		70.0	2.5	/experiments/knapen_AOT/AOT_stimuli/rescaled_final/1430_rv.mp4	0.0	339.3118317127228	
72	309.4379825592041	fix_post	2		12	70.0	2.5	/experiments/knapen_AOT/AOT_stimuli/rescaled_final/1430_rv.mp4	0.0	339.4300117492676	0.10002636909484863
73	309.53800892829895	fix_pre	0		120	71.0	2.5	/experiments/knapen_AOT/AOT_stimuli/rescaled_final/1800_rv.mp4	0.0	339.5300381183624	1.008424997329712
73	310.54643392562866	movie	1		282	71.0	2.5	/experiments/knapen_AOT/AOT_stimuli/rescaled_final/1800_rv.mp4	0.0	340.53846311569214	2.4920742511749268
73	310.92189598083496	pulse	1	t		71.0	2.5	/experiments/knapen_AOT/AOT_stimuli/rescaled_final/1800_rv.mp4	0.0	340.91392517089844	
73	312.5205898284912	pulse	1	t		71.0	2.5	/experiments/knapen_AOT/AOT_stimuli/rescaled_final/1800_rv.mp4	0.0	342.5126190185547	
73	313.0385081768036	fix_post	2		12	71.0	2.5	/experiments/knapen_AOT/AOT_stimuli/rescaled_final/1800_rv.mp4	0.0	343.03053736686707	0.10001039505004883
74	313.13851857185364	fix_pre	0		119	72.0	2.5	/experiments/knapen_AOT/AOT_stimuli/rescaled_final/1089_rv.mp4	0.0	343.1305477619171	1.0001301765441895
74	314.1222507953644	pulse	0	t		72.0	2.5	/experiments/knapen_AOT/AOT_stimuli/rescaled_final/1089_rv.mp4	0.0	344.11427998542786	
74	314.1386487483978	movie	1		292	72.0	2.5	/experiments/knapen_AOT/AOT_stimuli/rescaled_final/1089_rv.mp4	0.0	344.1306779384613	2.5003726482391357
74	315.72062158584595	pulse	1	t		72.0	2.5	/experiments/knapen_AOT/AOT_stimuli/rescaled_final/1089_rv.mp4	0.0	345.7126507759094	
74	316.63902139663696	fix_post	2		12	72.0	2.5	/experiments/knapen_AOT/AOT_stimuli/rescaled_final/1089_rv.mp4	0.0	346.63105058670044	0.10004854202270508
75	316.73906993865967	fix_pre	0		120	73.0	2.5	/experiments/knapen_AOT/AOT_stimuli/rescaled_final/1685_rv.mp4	0.0	346.73109912872314	1.0085341930389404
75	317.3227632045746	pulse	0	t		73.0	2.5	/experiments/knapen_AOT/AOT_stimuli/rescaled_final/1685_rv.mp4	0.0	347.31479239463806	
75	317.7476041316986	movie	1		271	73.0	2.5	/experiments/knapen_AOT/AOT_stimuli/rescaled_final/1685_rv.mp4	0.0	347.7396333217621	2.4920601844787598
75	318.92217779159546	pulse	1	t		73.0	2.5	/experiments/knapen_AOT/AOT_stimuli/rescaled_final/1685_rv.mp4	0.0	348.91420698165894	
75	320.23966431617737	fix_post	2		12	73.0	2.5	/experiments/knapen_AOT/AOT_stimuli/rescaled_final/1685_rv.mp4	0.0	350.23169350624084	0.09993314743041992
76	320.3395974636078	fix_pre	0		120	74.0	2.5	/experiments/knapen_AOT/AOT_stimuli/rescaled_final/0920_rv.mp4	0.0	350.33162665367126	1.0084798336029053
76	320.52316427230835	pulse	0	t		74.0	2.5	/experiments/knapen_AOT/AOT_stimuli/rescaled_final/0920_rv.mp4	0.0	350.5151934623718	
76	321.3480772972107	movie	1		279	74.0	2.5	/experiments/knapen_AOT/AOT_stimuli/rescaled_final/0920_rv.mp4	0.0	351.34010648727417	2.492025136947632
76	322.1212155818939	pulse	1	t		74.0	2.5	/experiments/knapen_AOT/AOT_stimuli/rescaled_final/0920_rv.mp4	0.0	352.1132447719574	
76	323.72214365005493	pulse	1	t		74.0	2.5	/experiments/knapen_AOT/AOT_stimuli/rescaled_final/0920_rv.mp4	0.0	353.7141728401184	
76	323.8401024341583	fix_post	2		12	74.0	2.5	/experiments/knapen_AOT/AOT_stimuli/rescaled_final/0920_rv.mp4	0.0	353.8321316242218	0.1000213623046875
77	323.940123796463	fix_pre	0		120	75.0	2.5	blank	1.0	353.9321529865265	1.0001537799835205
77	324.94027757644653	movie	1		300	75.0	2.5	blank	1.0	354.93230676651	2.500375986099243
77	325.32388520240784	pulse	1	t		75.0	2.5	blank	1.0	355.3159143924713	
77	326.92410111427307	pulse	1	t		75.0	2.5	blank	1.0	356.91613030433655	
77	327.4406535625458	fix_post	2		12	75.0	2.5	blank	1.0	357.43268275260925	0.10001897811889648
78	327.5406725406647	fix_pre	0		119	76.0	2.5	/experiments/knapen_AOT/AOT_stimuli/rescaled_final/1066_fw.mp4	0.0	357.53270173072815	1.008528709411621
78	328.52439641952515	pulse	0	t		76.0	2.5	/experiments/knapen_AOT/AOT_stimuli/rescaled_final/1066_fw.mp4	0.0	358.5164256095886	
78	328.5492012500763	movie	1		282	76.0	2.5	/experiments/knapen_AOT/AOT_stimuli/rescaled_final/1066_fw.mp4	0.0	358.54123044013977	2.4920036792755127
78	330.1229808330536	pulse	1	t		76.0	2.5	/experiments/knapen_AOT/AOT_stimuli/rescaled_final/1066_fw.mp4	0.0	360.11501002311707	
78	331.0412049293518	fix_post	2		12	76.0	2.5	/experiments/knapen_AOT/AOT_stimuli/rescaled_final/1066_fw.mp4	0.0	361.0332341194153	0.10002851486206055
79	331.14123344421387	fix_pre	0		120	77.0	2.5	/experiments/knapen_AOT/AOT_stimuli/rescaled_final/1580_rv.mp4	0.0	361.13326263427734	1.0084643363952637
79	331.7249126434326	pulse	0	t		77.0	2.5	/experiments/knapen_AOT/AOT_stimuli/rescaled_final/1580_rv.mp4	0.0	361.7169418334961	
79	332.14969778060913	movie	1		285	77.0	2.5	/experiments/knapen_AOT/AOT_stimuli/rescaled_final/1580_rv.mp4	0.0	362.1417269706726	2.4920566082000732
79	333.3230516910553	pulse	1	t		77.0	2.5	/experiments/knapen_AOT/AOT_stimuli/rescaled_final/1580_rv.mp4	0.0	363.3150808811188	
79	334.6417543888092	fix_post	2		12	77.0	2.5	/experiments/knapen_AOT/AOT_stimuli/rescaled_final/1580_rv.mp4	0.0	364.6337835788727	0.09999775886535645
80	334.74175214767456	fix_pre	0		120	78.0	2.5	/experiments/knapen_AOT/AOT_stimuli/rescaled_final/0870_rv.mp4	0.0	364.73378133773804	1.0084617137908936
80	334.91788482666016	pulse	0	t		78.0	2.5	/experiments/knapen_AOT/AOT_stimuli/rescaled_final/0870_rv.mp4	0.0	364.90991401672363	
80	335.75021386146545	movie	1		270	78.0	2.5	/experiments/knapen_AOT/AOT_stimuli/rescaled_final/0870_rv.mp4	0.0	365.74224305152893	2.492072820663452
80	336.5249717235565	pulse	1	t		78.0	2.5	/experiments/knapen_AOT/AOT_stimuli/rescaled_final/0870_rv.mp4	0.0	366.51700091362	
80	338.1242105960846	pulse	1	t		78.0	2.5	/experiments/knapen_AOT/AOT_stimuli/rescaled_final/0870_rv.mp4	0.0	368.11623978614807	
80	338.2422866821289	fix_post	2		12	78.0	2.5	/experiments/knapen_AOT/AOT_stimuli/rescaled_final/0870_rv.mp4	0.0	368.2343158721924	0.1000053882598877
81	338.3422920703888	fix_pre	0		120	79.0	2.5	/experiments/knapen_AOT/AOT_stimuli/rescaled_final/1873_rv.mp4	0.0	368.33432126045227	1.0085079669952393
81	339.35080003738403	movie	1		271	79.0	2.5	/experiments/knapen_AOT/AOT_stimuli/rescaled_final/1873_rv.mp4	0.0	369.3428292274475	2.492063283920288
81	339.7181074619293	pulse	1	t		79.0	2.5	/experiments/knapen_AOT/AOT_stimuli/rescaled_final/1873_rv.mp4	0.0	369.7101366519928	
81	341.31796407699585	pulse	1	t		79.0	2.5	/experiments/knapen_AOT/AOT_stimuli/rescaled_final/1873_rv.mp4	0.0	371.3099932670593	
81	341.8428633213043	fix_post	2		12	79.0	2.5	/experiments/knapen_AOT/AOT_stimuli/rescaled_final/1873_rv.mp4	0.0	371.8348925113678	0.09998250007629395
82	341.9428458213806	fix_pre	0		118	80.0	2.5	/experiments/knapen_AOT/AOT_stimuli/rescaled_final/0254_rv.mp4	0.0	371.9348750114441	0.9918160438537598
82	342.9182667732239	pulse	0	t		80.0	2.5	/experiments/knapen_AOT/AOT_stimuli/rescaled_final/0254_rv.mp4	0.0	372.91029596328735	
82	342.9346618652344	movie	1		289	80.0	2.5	/experiments/knapen_AOT/AOT_stimuli/rescaled_final/0254_rv.mp4	0.0	372.92669105529785	2.5003578662872314
82	344.5185067653656	pulse	1	t		80.0	2.5	/experiments/knapen_AOT/AOT_stimuli/rescaled_final/0254_rv.mp4	0.0	374.5105359554291	
82	345.4350197315216	fix_post	2		12	80.0	2.5	/experiments/knapen_AOT/AOT_stimuli/rescaled_final/0254_rv.mp4	0.0	375.4270489215851	0.1001901626586914
83	345.5352098941803	fix_pre	0		120	81.0	2.5	/experiments/knapen_AOT/AOT_stimuli/rescaled_final/1371_fw.mp4	0.0	375.5272390842438	1.0083742141723633
83	346.11869764328003	pulse	0	t		81.0	2.5	/experiments/knapen_AOT/AOT_stimuli/rescaled_final/1371_fw.mp4	0.0	376.1107268333435	
83	346.54358410835266	movie	1		273	81.0	2.5	/experiments/knapen_AOT/AOT_stimuli/rescaled_final/1371_fw.mp4	0.0	376.53561329841614	2.491983652114868
83	347.71892261505127	pulse	1	t		81.0	2.5	/experiments/knapen_AOT/AOT_stimuli/rescaled_final/1371_fw.mp4	0.0	377.71095180511475	
83	349.03556776046753	fix_post	2		12	81.0	2.5	/experiments/knapen_AOT/AOT_stimuli/rescaled_final/1371_fw.mp4	0.0	379.027596950531	0.10001897811889648
84	349.1355867385864	fix_pre	0		120	82.0	2.5	/experiments/knapen_AOT/AOT_stimuli/rescaled_final/2031_rv.mp4	0.0	379.1276159286499	1.0084741115570068
84	349.3192195892334	pulse	0	t		82.0	2.5	/experiments/knapen_AOT/AOT_stimuli/rescaled_final/2031_rv.mp4	0.0	379.3112487792969	
84	350.14406085014343	movie	1		264	82.0	2.5	/experiments/knapen_AOT/AOT_stimuli/rescaled_final/2031_rv.mp4	0.0	380.1360900402069	2.4921376705169678
84	350.9195942878723	pulse	1	t		82.0	2.5	/experiments/knapen_AOT/AOT_stimuli/rescaled_final/2031_rv.mp4	0.0	380.9116234779358	
84	352.51805782318115	pulse	1	t		82.0	2.5	/experiments/knapen_AOT/AOT_stimuli/rescaled_final/2031_rv.mp4	0.0	382.51008701324463	
84	352.6361985206604	fix_post	2		12	82.0	2.5	/experiments/knapen_AOT/AOT_stimuli/rescaled_final/2031_rv.mp4	0.0	382.6282277107239	0.09992265701293945
85	352.73612117767334	fix_pre	0		120	83.0	2.5	blank	1.0	382.7281503677368	1.0001676082611084
85	353.73628878593445	movie	1		300	83.0	2.5	blank	1.0	383.7283179759979	2.50044846534729
85	354.1200819015503	pulse	1	t		83.0	2.5	blank	1.0	384.11211109161377	
85	355.7201683521271	pulse	1	t		83.0	2.5	blank	1.0	385.71219754219055	
85	356.23673725128174	fix_post	2		12	83.0	2.5	blank	1.0	386.2287664413452	0.09999537467956543
87	356.3367326259613	stim	0		1715					386.3287618160248	14.293772220611572
87	357.3206408023834	pulse	0	t						387.3126699924469	
87	358.92059803009033	pulse	0	t						388.9126272201538	
87	360.52109384536743	pulse	0	t						390.5131230354309	
87	362.12106943130493	pulse	0	t						392.1130986213684	
87	363.72130155563354	pulse	0	t						393.713330745697	
87	365.32165336608887	pulse	0	t						395.31368255615234	
87	366.9218180179596	pulse	0	t						396.91384720802307	
87	368.522025346756	pulse	0	t						398.51405453681946	
87	370.1222653388977	pulse	0	t						400.1142945289612	
