trial_nr	onset	event_type	phase	response	nr_frames	movie_index	movie_duration	movie_file	blank	onset_abs	duration
0	0.15830087661743164	stim	0		21					19.861927032470703	0.1748790740966797
0	0.32511091232299805	response	0	space						20.02873706817627	
1	0.33317995071411133	stim	0		4646					20.036806106567383	38.71616196632385
1	39.04463791847229	pulse	0	t						58.74826407432556	
1	39.049341917037964	stim	1		1717					58.752968072891235	14.308603048324585
1	40.63389205932617	pulse	1	t						60.33751821517944	
1	42.23394298553467	pulse	1	t						61.93756914138794	
1	43.83390498161316	pulse	1	t						63.53753113746643	
1	45.433907985687256	pulse	1	t						65.13753414154053	
1	47.03386902809143	pulse	1	t						66.7374951839447	
1	48.63310694694519	pulse	1	t						68.33673310279846	
1	50.24144887924194	pulse	1	t						69.94507503509521	
1	51.83385396003723	pulse	1	t						71.5374801158905	
2	53.35794496536255	fix_pre	0		11	0.0	2.5	/experiments/AOT/AOT_stimuli/rescaled_final/0145_rv.mp4	0.0	73.06157112121582	0.0916450023651123
2	53.433915853500366	pulse	0	t		0.0	2.5	/experiments/AOT/AOT_stimuli/rescaled_final/0145_rv.mp4	0.0	73.13754200935364	
2	53.44958996772766	movie	1		243	0.0	2.5	/experiments/AOT/AOT_stimuli/rescaled_final/0145_rv.mp4	0.0	73.15321612358093	2.508457899093628
2	55.041054010391235	pulse	1	t		0.0	2.5	/experiments/AOT/AOT_stimuli/rescaled_final/0145_rv.mp4	0.0	74.7446801662445	
2	55.95804786682129	fix_post	2		12	0.0	2.5	/experiments/AOT/AOT_stimuli/rescaled_final/0145_rv.mp4	0.0	75.66167402267456	0.09995913505554199
3	56.05800700187683	fix_pre	0		120	1.0	2.5	/experiments/AOT/AOT_stimuli/rescaled_final/1300_fw.mp4	0.0	75.7616331577301	0.999521017074585
3	56.633944034576416	pulse	0	t		1.0	2.5	/experiments/AOT/AOT_stimuli/rescaled_final/1300_fw.mp4	0.0	76.33757019042969	
3	57.057528018951416	movie	1		245	1.0	2.5	/experiments/AOT/AOT_stimuli/rescaled_final/1300_fw.mp4	0.0	76.76115417480469	2.500391960144043
3	58.24150490760803	pulse	1	t		1.0	2.5	/experiments/AOT/AOT_stimuli/rescaled_final/1300_fw.mp4	0.0	77.9451310634613	
3	59.55791997909546	fix_post	2		12	1.0	2.5	/experiments/AOT/AOT_stimuli/rescaled_final/1300_fw.mp4	0.0	79.26154613494873	0.1000058650970459
4	59.657925844192505	fix_pre	0		120	2.0	2.5	/experiments/AOT/AOT_stimuli/rescaled_final/0880_fw.mp4	0.0	79.36155200004578	1.0001311302185059
4	59.83396887779236	pulse	0	t		2.0	2.5	/experiments/AOT/AOT_stimuli/rescaled_final/0880_fw.mp4	0.0	79.53759503364563	
4	60.65805697441101	movie	1		245	2.0	2.5	/experiments/AOT/AOT_stimuli/rescaled_final/0880_fw.mp4	0.0	80.36168313026428	2.4998779296875
4	61.434032917022705	pulse	1	t		2.0	2.5	/experiments/AOT/AOT_stimuli/rescaled_final/0880_fw.mp4	0.0	81.13765907287598	
4	63.04014492034912	pulse	1	t		2.0	2.5	/experiments/AOT/AOT_stimuli/rescaled_final/0880_fw.mp4	0.0	82.74377107620239	
4	63.15793490409851	fix_post	2		12	2.0	2.5	/experiments/AOT/AOT_stimuli/rescaled_final/0880_fw.mp4	0.0	82.86156105995178	0.09954309463500977
5	63.25747799873352	fix_pre	0		120	3.0	2.5	/experiments/AOT/AOT_stimuli/rescaled_final/1250_rv.mp4	0.0	82.96110415458679	1.00044584274292
5	64.25792384147644	movie	1		245	3.0	2.5	/experiments/AOT/AOT_stimuli/rescaled_final/1250_rv.mp4	0.0	83.96154999732971	2.499934196472168
5	64.64093089103699	pulse	1	t		3.0	2.5	/experiments/AOT/AOT_stimuli/rescaled_final/1250_rv.mp4	0.0	84.34455704689026	
5	66.24141788482666	pulse	1	t		3.0	2.5	/experiments/AOT/AOT_stimuli/rescaled_final/1250_rv.mp4	0.0	85.94504404067993	
5	66.75785803794861	fix_post	2		12	3.0	2.5	/experiments/AOT/AOT_stimuli/rescaled_final/1250_rv.mp4	0.0	86.46148419380188	0.10003185272216797
6	66.85788989067078	fix_pre	0		119	4.0	2.5	/experiments/AOT/AOT_stimuli/rescaled_final/1911_fw.mp4	0.0	86.56151604652405	0.9916090965270996
6	67.8414318561554	pulse	0	t		4.0	2.5	/experiments/AOT/AOT_stimuli/rescaled_final/1911_fw.mp4	0.0	87.54505801200867	
6	67.84949898719788	movie	1		245	4.0	2.5	/experiments/AOT/AOT_stimuli/rescaled_final/1911_fw.mp4	0.0	87.55312514305115	2.508327007293701
6	69.44115996360779	pulse	1	t		4.0	2.5	/experiments/AOT/AOT_stimuli/rescaled_final/1911_fw.mp4	0.0	89.14478611946106	
6	70.35782599449158	fix_post	2		12	4.0	2.5	/experiments/AOT/AOT_stimuli/rescaled_final/1911_fw.mp4	0.0	90.06145215034485	0.10009503364562988
7	70.4579210281372	fix_pre	0		120	5.0	2.5	/experiments/AOT/AOT_stimuli/rescaled_final/0145_fw.mp4	0.0	90.16154718399048	0.9999589920043945
7	71.03390288352966	pulse	0	t		5.0	2.5	/experiments/AOT/AOT_stimuli/rescaled_final/0145_fw.mp4	0.0	90.73752903938293	
7	71.4578800201416	movie	1		243	5.0	2.5	/experiments/AOT/AOT_stimuli/rescaled_final/0145_fw.mp4	0.0	91.16150617599487	2.4999518394470215
7	72.64142203330994	pulse	1	t		5.0	2.5	/experiments/AOT/AOT_stimuli/rescaled_final/0145_fw.mp4	0.0	92.34504818916321	
7	73.95783185958862	fix_post	2		12	5.0	2.5	/experiments/AOT/AOT_stimuli/rescaled_final/0145_fw.mp4	0.0	93.6614580154419	0.10010099411010742
8	74.05793285369873	fix_pre	0		120	6.0	2.5	blank	1.0	93.761559009552	0.9999351501464844
8	74.23389101028442	pulse	0	t		6.0	2.5	blank	1.0	93.9375171661377	
8	75.05786800384521	movie	1		300	6.0	2.5	blank	1.0	94.76149415969849	2.500030040740967
8	75.83404183387756	pulse	1	t		6.0	2.5	blank	1.0	95.53766798973083	
8	77.43393993377686	pulse	1	t		6.0	2.5	blank	1.0	97.13756608963013	
8	77.55789804458618	fix_post	2		12	6.0	2.5	blank	1.0	97.26152420043945	0.0998988151550293
9	77.65779685974121	fix_pre	0		120	7.0	2.5	/experiments/AOT/AOT_stimuli/rescaled_final/0909_fw.mp4	0.0	97.36142301559448	1.0000510215759277
9	78.65784788131714	movie	1		245	7.0	2.5	/experiments/AOT/AOT_stimuli/rescaled_final/0909_fw.mp4	0.0	98.36147403717041	2.4995059967041016
9	79.04081988334656	pulse	1	t		7.0	2.5	/experiments/AOT/AOT_stimuli/rescaled_final/0909_fw.mp4	0.0	98.74444603919983	
9	80.64131593704224	pulse	1	t		7.0	2.5	/experiments/AOT/AOT_stimuli/rescaled_final/0909_fw.mp4	0.0	100.34494209289551	
9	81.15735387802124	fix_post	2		12	7.0	2.5	/experiments/AOT/AOT_stimuli/rescaled_final/0909_fw.mp4	0.0	100.86098003387451	0.10044407844543457
10	81.25779795646667	fix_pre	0		119	8.0	2.5	/experiments/AOT/AOT_stimuli/rescaled_final/1470_fw.mp4	0.0	100.96142411231995	0.9917500019073486
10	82.24131894111633	pulse	0	t		8.0	2.5	/experiments/AOT/AOT_stimuli/rescaled_final/1470_fw.mp4	0.0	101.9449450969696	
10	82.24954795837402	movie	1		245	8.0	2.5	/experiments/AOT/AOT_stimuli/rescaled_final/1470_fw.mp4	0.0	101.9531741142273	2.5082390308380127
10	83.84113693237305	pulse	1	t		8.0	2.5	/experiments/AOT/AOT_stimuli/rescaled_final/1470_fw.mp4	0.0	103.54476308822632	
10	84.75778698921204	fix_post	2		12	8.0	2.5	/experiments/AOT/AOT_stimuli/rescaled_final/1470_fw.mp4	0.0	104.46141314506531	0.10002994537353516
11	84.85781693458557	fix_pre	0		120	9.0	2.5	/experiments/AOT/AOT_stimuli/rescaled_final/0843_fw.mp4	0.0	104.56144309043884	0.9999771118164062
11	85.44131302833557	pulse	0	t		9.0	2.5	/experiments/AOT/AOT_stimuli/rescaled_final/0843_fw.mp4	0.0	105.14493918418884	
11	85.85779404640198	movie	1		244	9.0	2.5	/experiments/AOT/AOT_stimuli/rescaled_final/0843_fw.mp4	0.0	105.56142020225525	2.4995529651641846
11	87.0413269996643	pulse	1	t		9.0	2.5	/experiments/AOT/AOT_stimuli/rescaled_final/0843_fw.mp4	0.0	106.74495315551758	
11	88.35734701156616	fix_post	2		12	9.0	2.5	/experiments/AOT/AOT_stimuli/rescaled_final/0843_fw.mp4	0.0	108.06097316741943	0.10045194625854492
12	88.4577989578247	fix_pre	0		120	10.0	2.5	/experiments/AOT/AOT_stimuli/rescaled_final/0868_rv.mp4	0.0	108.16142511367798	0.9999830722808838
12	88.64131093025208	pulse	0	t		10.0	2.5	/experiments/AOT/AOT_stimuli/rescaled_final/0868_rv.mp4	0.0	108.34493708610535	
12	89.45778203010559	movie	1		244	10.0	2.5	/experiments/AOT/AOT_stimuli/rescaled_final/0868_rv.mp4	0.0	109.16140818595886	2.4999539852142334
12	90.23387384414673	pulse	1	t		10.0	2.5	/experiments/AOT/AOT_stimuli/rescaled_final/0868_rv.mp4	0.0	109.9375	
12	91.83981394767761	pulse	1	t		10.0	2.5	/experiments/AOT/AOT_stimuli/rescaled_final/0868_rv.mp4	0.0	111.54344010353088	
12	91.95773601531982	fix_post	2		12	10.0	2.5	/experiments/AOT/AOT_stimuli/rescaled_final/0868_rv.mp4	0.0	111.6613621711731	0.10013198852539062
13	92.05786800384521	fix_pre	0		120	11.0	2.5	/experiments/AOT/AOT_stimuli/rescaled_final/1529_rv.mp4	0.0	111.76149415969849	0.9999468326568604
13	93.05781483650208	movie	1		243	11.0	2.5	/experiments/AOT/AOT_stimuli/rescaled_final/1529_rv.mp4	0.0	112.76144099235535	2.4996891021728516
13	93.44082188606262	pulse	1	t		11.0	2.5	/experiments/AOT/AOT_stimuli/rescaled_final/1529_rv.mp4	0.0	113.1444480419159	
13	95.03399085998535	pulse	1	t		11.0	2.5	/experiments/AOT/AOT_stimuli/rescaled_final/1529_rv.mp4	0.0	114.73761701583862	
13	95.55750393867493	fix_post	2		12	11.0	2.5	/experiments/AOT/AOT_stimuli/rescaled_final/1529_rv.mp4	0.0	115.2611300945282	0.10003995895385742
14	95.65754389762878	fix_pre	0		119	12.0	2.5	/experiments/AOT/AOT_stimuli/rescaled_final/1325_fw.mp4	0.0	115.36117005348206	0.9918460845947266
14	96.64125394821167	pulse	0	t		12.0	2.5	/experiments/AOT/AOT_stimuli/rescaled_final/1325_fw.mp4	0.0	116.34488010406494	
14	96.64938998222351	movie	1		244	12.0	2.5	/experiments/AOT/AOT_stimuli/rescaled_final/1325_fw.mp4	0.0	116.35301613807678	2.508352041244507
14	98.24067401885986	pulse	1	t		12.0	2.5	/experiments/AOT/AOT_stimuli/rescaled_final/1325_fw.mp4	0.0	117.94430017471313	
14	99.15774202346802	fix_post	2		12	12.0	2.5	/experiments/AOT/AOT_stimuli/rescaled_final/1325_fw.mp4	0.0	118.86136817932129	0.10002398490905762
15	99.25776600837708	fix_pre	0		120	13.0	2.5	/experiments/AOT/AOT_stimuli/rescaled_final/0273_rv.mp4	0.0	118.96139216423035	0.9999370574951172
15	99.84124898910522	pulse	0	t		13.0	2.5	/experiments/AOT/AOT_stimuli/rescaled_final/0273_rv.mp4	0.0	119.5448751449585	
15	100.25770306587219	movie	1		243	13.0	2.5	/experiments/AOT/AOT_stimuli/rescaled_final/0273_rv.mp4	0.0	119.96132922172546	2.500025987625122
15	101.44132590293884	pulse	1	t		13.0	2.5	/experiments/AOT/AOT_stimuli/rescaled_final/0273_rv.mp4	0.0	121.14495205879211	
15	102.75772905349731	fix_post	2		12	13.0	2.5	/experiments/AOT/AOT_stimuli/rescaled_final/0273_rv.mp4	0.0	122.46135520935059	0.09992599487304688
16	102.85765504837036	fix_pre	0		120	14.0	2.5	blank	1.0	122.56128120422363	1.0000548362731934
16	103.0411548614502	pulse	0	t		14.0	2.5	blank	1.0	122.74478101730347	
16	103.85770988464355	movie	1		300	14.0	2.5	blank	1.0	123.56133604049683	2.500002145767212
16	104.64112496376038	pulse	1	t		14.0	2.5	blank	1.0	124.34475111961365	
16	106.233726978302	pulse	1	t		14.0	2.5	blank	1.0	125.93735313415527	
16	106.35771203041077	fix_post	2		12	14.0	2.5	blank	1.0	126.06133818626404	0.09999299049377441
17	106.45770502090454	fix_pre	0		120	15.0	2.5	/experiments/AOT/AOT_stimuli/rescaled_final/1637_fw.mp4	0.0	126.16133117675781	0.9999480247497559
17	107.4576530456543	movie	1		245	15.0	2.5	/experiments/AOT/AOT_stimuli/rescaled_final/1637_fw.mp4	0.0	127.16127920150757	2.5000579357147217
17	107.84048986434937	pulse	1	t		15.0	2.5	/experiments/AOT/AOT_stimuli/rescaled_final/1637_fw.mp4	0.0	127.54411602020264	
17	109.4337329864502	pulse	1	t		15.0	2.5	/experiments/AOT/AOT_stimuli/rescaled_final/1637_fw.mp4	0.0	129.13735914230347	
17	109.95771098136902	fix_post	2		12	15.0	2.5	/experiments/AOT/AOT_stimuli/rescaled_final/1637_fw.mp4	0.0	129.6613371372223	0.0999610424041748
18	110.0576720237732	fix_pre	0		119	16.0	2.5	/experiments/AOT/AOT_stimuli/rescaled_final/0336_fw.mp4	0.0	129.76129817962646	0.9917128086090088
18	111.03374195098877	pulse	0	t		16.0	2.5	/experiments/AOT/AOT_stimuli/rescaled_final/0336_fw.mp4	0.0	130.73736810684204	
18	111.0493848323822	movie	1		247	16.0	2.5	/experiments/AOT/AOT_stimuli/rescaled_final/0336_fw.mp4	0.0	130.75301098823547	2.5082452297210693
18	112.64078092575073	pulse	1	t		16.0	2.5	/experiments/AOT/AOT_stimuli/rescaled_final/0336_fw.mp4	0.0	132.344407081604	
18	113.55763006210327	fix_post	2		12	16.0	2.5	/experiments/AOT/AOT_stimuli/rescaled_final/0336_fw.mp4	0.0	133.26125621795654	0.09968185424804688
19	113.65731191635132	fix_pre	0		120	17.0	2.5	/experiments/AOT/AOT_stimuli/rescaled_final/1166_rv.mp4	0.0	133.3609380722046	1.0003979206085205
19	114.241201877594	pulse	0	t		17.0	2.5	/experiments/AOT/AOT_stimuli/rescaled_final/1166_rv.mp4	0.0	133.94482803344727	
19	114.65770983695984	movie	1		243	17.0	2.5	/experiments/AOT/AOT_stimuli/rescaled_final/1166_rv.mp4	0.0	134.3613359928131	2.49989914894104
19	115.84122204780579	pulse	1	t		17.0	2.5	/experiments/AOT/AOT_stimuli/rescaled_final/1166_rv.mp4	0.0	135.54484820365906	
19	117.15760898590088	fix_post	2		12	17.0	2.5	/experiments/AOT/AOT_stimuli/rescaled_final/1166_rv.mp4	0.0	136.86123514175415	0.09994101524353027
20	117.25755000114441	fix_pre	0		120	18.0	2.5	/experiments/AOT/AOT_stimuli/rescaled_final/0667_fw.mp4	0.0	136.96117615699768	1.000025987625122
20	117.44116592407227	pulse	0	t		18.0	2.5	/experiments/AOT/AOT_stimuli/rescaled_final/0667_fw.mp4	0.0	137.14479207992554	
20	118.25757598876953	movie	1		243	18.0	2.5	/experiments/AOT/AOT_stimuli/rescaled_final/0667_fw.mp4	0.0	137.9612021446228	2.500048875808716
20	119.04114294052124	pulse	1	t		18.0	2.5	/experiments/AOT/AOT_stimuli/rescaled_final/0667_fw.mp4	0.0	138.7447690963745	
20	120.63945198059082	pulse	1	t		18.0	2.5	/experiments/AOT/AOT_stimuli/rescaled_final/0667_fw.mp4	0.0	140.3430781364441	
20	120.75762486457825	fix_post	2		12	18.0	2.5	/experiments/AOT/AOT_stimuli/rescaled_final/0667_fw.mp4	0.0	140.46125102043152	0.09996414184570312
21	120.85758900642395	fix_pre	0		120	19.0	2.5	/experiments/AOT/AOT_stimuli/rescaled_final/1531_rv.mp4	0.0	140.56121516227722	1.0000019073486328
21	121.85759091377258	movie	1		244	19.0	2.5	/experiments/AOT/AOT_stimuli/rescaled_final/1531_rv.mp4	0.0	141.56121706962585	2.5000319480895996
21	122.24222588539124	pulse	1	t		19.0	2.5	/experiments/AOT/AOT_stimuli/rescaled_final/1531_rv.mp4	0.0	141.9458520412445	
21	123.83379602432251	pulse	1	t		19.0	2.5	/experiments/AOT/AOT_stimuli/rescaled_final/1531_rv.mp4	0.0	143.53742218017578	
21	124.35762286186218	fix_post	2		12	19.0	2.5	/experiments/AOT/AOT_stimuli/rescaled_final/1531_rv.mp4	0.0	144.06124901771545	0.10007905960083008
22	124.45770192146301	fix_pre	0		119	20.0	2.5	blank	1.0	144.16132807731628	0.9916141033172607
22	125.43355202674866	pulse	0	t		20.0	2.5	blank	1.0	145.13717818260193	
22	125.44931602478027	movie	1		301	20.0	2.5	blank	1.0	145.15294218063354	2.50827693939209
22	127.03359889984131	pulse	1	t		20.0	2.5	blank	1.0	146.73722505569458	
22	127.95759296417236	fix_post	2		12	20.0	2.5	blank	1.0	147.66121912002563	0.09998393058776855
23	128.05757689476013	fix_pre	0		120	21.0	2.5	/experiments/AOT/AOT_stimuli/rescaled_final/0555_fw.mp4	0.0	147.7612030506134	1.0000331401824951
23	128.6411280632019	pulse	0	t		21.0	2.5	/experiments/AOT/AOT_stimuli/rescaled_final/0555_fw.mp4	0.0	148.34475421905518	
23	129.05761003494263	movie	1		246	21.0	2.5	/experiments/AOT/AOT_stimuli/rescaled_final/0555_fw.mp4	0.0	148.7612361907959	2.4999659061431885
23	130.2411859035492	pulse	1	t		21.0	2.5	/experiments/AOT/AOT_stimuli/rescaled_final/0555_fw.mp4	0.0	149.94481205940247	
23	131.55757594108582	fix_post	2		12	21.0	2.5	/experiments/AOT/AOT_stimuli/rescaled_final/0555_fw.mp4	0.0	151.2612020969391	0.100006103515625
24	131.65758204460144	fix_pre	0		120	22.0	2.5	/experiments/AOT/AOT_stimuli/rescaled_final/0073_fw.mp4	0.0	151.3612082004547	1.0000808238983154
24	131.84112787246704	pulse	0	t		22.0	2.5	/experiments/AOT/AOT_stimuli/rescaled_final/0073_fw.mp4	0.0	151.5447540283203	
24	132.65766286849976	movie	1		245	22.0	2.5	/experiments/AOT/AOT_stimuli/rescaled_final/0073_fw.mp4	0.0	152.36128902435303	2.499873161315918
24	133.44109296798706	pulse	1	t		22.0	2.5	/experiments/AOT/AOT_stimuli/rescaled_final/0073_fw.mp4	0.0	153.14471912384033	
24	135.03955006599426	pulse	1	t		22.0	2.5	/experiments/AOT/AOT_stimuli/rescaled_final/0073_fw.mp4	0.0	154.74317622184753	
24	135.15753602981567	fix_post	2		12	22.0	2.5	/experiments/AOT/AOT_stimuli/rescaled_final/0073_fw.mp4	0.0	154.86116218566895	0.10003399848937988
25	135.25757002830505	fix_pre	0		120	23.0	2.5	/experiments/AOT/AOT_stimuli/rescaled_final/1355_rv.mp4	0.0	154.96119618415833	0.9999639987945557
25	136.2575340270996	movie	1		246	23.0	2.5	/experiments/AOT/AOT_stimuli/rescaled_final/1355_rv.mp4	0.0	155.96116018295288	2.500051975250244
25	136.64074087142944	pulse	1	t		23.0	2.5	/experiments/AOT/AOT_stimuli/rescaled_final/1355_rv.mp4	0.0	156.34436702728271	
25	138.24102091789246	pulse	1	t		23.0	2.5	/experiments/AOT/AOT_stimuli/rescaled_final/1355_rv.mp4	0.0	157.94464707374573	
25	138.75758600234985	fix_post	2		12	23.0	2.5	/experiments/AOT/AOT_stimuli/rescaled_final/1355_rv.mp4	0.0	158.46121215820312	0.09994196891784668
26	138.8575279712677	fix_pre	0		119	24.0	2.5	/experiments/AOT/AOT_stimuli/rescaled_final/0930_rv.mp4	0.0	158.56115412712097	0.991657018661499
26	139.84104204177856	pulse	0	t		24.0	2.5	/experiments/AOT/AOT_stimuli/rescaled_final/0930_rv.mp4	0.0	159.54466819763184	
26	139.8491849899292	movie	1		244	24.0	2.5	/experiments/AOT/AOT_stimuli/rescaled_final/0930_rv.mp4	0.0	159.55281114578247	2.5078518390655518
26	141.4412739276886	pulse	1	t		24.0	2.5	/experiments/AOT/AOT_stimuli/rescaled_final/0930_rv.mp4	0.0	161.14490008354187	
26	142.35703682899475	fix_post	2		12	24.0	2.5	/experiments/AOT/AOT_stimuli/rescaled_final/0930_rv.mp4	0.0	162.06066298484802	0.1005392074584961
27	142.45757603645325	fix_pre	0		120	25.0	2.5	/experiments/AOT/AOT_stimuli/rescaled_final/0491_rv.mp4	0.0	162.16120219230652	0.9999418258666992
27	143.0334758758545	pulse	0	t		25.0	2.5	/experiments/AOT/AOT_stimuli/rescaled_final/0491_rv.mp4	0.0	162.73710203170776	
27	143.45751786231995	movie	1		243	25.0	2.5	/experiments/AOT/AOT_stimuli/rescaled_final/0491_rv.mp4	0.0	163.16114401817322	2.49997615814209
27	144.64108800888062	pulse	1	t		25.0	2.5	/experiments/AOT/AOT_stimuli/rescaled_final/0491_rv.mp4	0.0	164.3447141647339	
27	145.95749402046204	fix_post	2		12	25.0	2.5	/experiments/AOT/AOT_stimuli/rescaled_final/0491_rv.mp4	0.0	165.6611201763153	0.09999489784240723
28	146.05748891830444	fix_pre	0		120	26.0	2.5	blank	1.0	165.76111507415771	1.0000050067901611
28	146.24114084243774	pulse	0	t		26.0	2.5	blank	1.0	165.94476699829102	
28	147.0574939250946	movie	1		300	26.0	2.5	blank	1.0	166.76112008094788	2.4996449947357178
28	147.84109783172607	pulse	1	t		26.0	2.5	blank	1.0	167.54472398757935	
28	149.44056105613708	pulse	1	t		26.0	2.5	blank	1.0	169.14418721199036	
28	149.55713891983032	fix_post	2		12	26.0	2.5	blank	1.0	169.2607650756836	0.10037612915039062
29	149.6575150489807	fix_pre	0		120	27.0	2.5	/experiments/AOT/AOT_stimuli/rescaled_final/1517_fw.mp4	0.0	169.36114120483398	1.0000050067901611
29	150.65752005577087	movie	1		245	27.0	2.5	/experiments/AOT/AOT_stimuli/rescaled_final/1517_fw.mp4	0.0	170.36114621162415	2.5000088214874268
29	151.04065799713135	pulse	1	t		27.0	2.5	/experiments/AOT/AOT_stimuli/rescaled_final/1517_fw.mp4	0.0	170.74428415298462	
29	152.6408989429474	pulse	1	t		27.0	2.5	/experiments/AOT/AOT_stimuli/rescaled_final/1517_fw.mp4	0.0	172.34452509880066	
29	153.1575288772583	fix_post	2		12	27.0	2.5	/experiments/AOT/AOT_stimuli/rescaled_final/1517_fw.mp4	0.0	172.86115503311157	0.09999799728393555
30	153.25752687454224	fix_pre	0		119	28.0	2.5	/experiments/AOT/AOT_stimuli/rescaled_final/1549_fw.mp4	0.0	172.9611530303955	0.9915750026702881
30	154.24099898338318	pulse	0	t		28.0	2.5	/experiments/AOT/AOT_stimuli/rescaled_final/1549_fw.mp4	0.0	173.94462513923645	
30	154.24910187721252	movie	1		245	28.0	2.5	/experiments/AOT/AOT_stimuli/rescaled_final/1549_fw.mp4	0.0	173.9527280330658	2.5083370208740234
30	155.84058499336243	pulse	1	t		28.0	2.5	/experiments/AOT/AOT_stimuli/rescaled_final/1549_fw.mp4	0.0	175.5442111492157	
30	156.75743889808655	fix_post	2		12	28.0	2.5	/experiments/AOT/AOT_stimuli/rescaled_final/1549_fw.mp4	0.0	176.46106505393982	0.10005998611450195
31	156.85749888420105	fix_pre	0		120	29.0	2.5	/experiments/AOT/AOT_stimuli/rescaled_final/0496_rv.mp4	0.0	176.56112504005432	0.9995090961456299
31	157.44089698791504	pulse	0	t		29.0	2.5	/experiments/AOT/AOT_stimuli/rescaled_final/0496_rv.mp4	0.0	177.1445231437683	
31	157.85700798034668	movie	1		246	29.0	2.5	/experiments/AOT/AOT_stimuli/rescaled_final/0496_rv.mp4	0.0	177.56063413619995	2.500391960144043
31	159.04100894927979	pulse	1	t		29.0	2.5	/experiments/AOT/AOT_stimuli/rescaled_final/0496_rv.mp4	0.0	178.74463510513306	
31	160.35739994049072	fix_post	2		12	29.0	2.5	/experiments/AOT/AOT_stimuli/rescaled_final/0496_rv.mp4	0.0	180.061026096344	0.10000896453857422
32	160.4574089050293	fix_pre	0		120	30.0	2.5	/experiments/AOT/AOT_stimuli/rescaled_final/0371_fw.mp4	0.0	180.16103506088257	1.0000040531158447
32	160.63349294662476	pulse	0	t		30.0	2.5	/experiments/AOT/AOT_stimuli/rescaled_final/0371_fw.mp4	0.0	180.33711910247803	
32	161.45741295814514	movie	1		245	30.0	2.5	/experiments/AOT/AOT_stimuli/rescaled_final/0371_fw.mp4	0.0	181.1610391139984	2.500014066696167
32	162.24096584320068	pulse	1	t		30.0	2.5	/experiments/AOT/AOT_stimuli/rescaled_final/0371_fw.mp4	0.0	181.94459199905396	
32	163.83958792686462	pulse	1	t		30.0	2.5	/experiments/AOT/AOT_stimuli/rescaled_final/0371_fw.mp4	0.0	183.5432140827179	
32	163.9574270248413	fix_post	2		12	30.0	2.5	/experiments/AOT/AOT_stimuli/rescaled_final/0371_fw.mp4	0.0	183.66105318069458	0.10001301765441895
33	164.05744004249573	fix_pre	0		120	31.0	2.5	/experiments/AOT/AOT_stimuli/rescaled_final/0189_rv.mp4	0.0	183.761066198349	0.9995968341827393
33	165.05703687667847	movie	1		243	31.0	2.5	/experiments/AOT/AOT_stimuli/rescaled_final/0189_rv.mp4	0.0	184.76066303253174	2.4999170303344727
33	165.4408140182495	pulse	1	t		31.0	2.5	/experiments/AOT/AOT_stimuli/rescaled_final/0189_rv.mp4	0.0	185.14444017410278	
33	167.04082083702087	pulse	1	t		31.0	2.5	/experiments/AOT/AOT_stimuli/rescaled_final/0189_rv.mp4	0.0	186.74444699287415	
33	167.55695390701294	fix_post	2		12	31.0	2.5	/experiments/AOT/AOT_stimuli/rescaled_final/0189_rv.mp4	0.0	187.2605800628662	0.10034799575805664
34	167.657301902771	fix_pre	0		119	32.0	2.5	/experiments/AOT/AOT_stimuli/rescaled_final/1250_fw.mp4	0.0	187.36092805862427	0.9916889667510986
34	168.6408829689026	pulse	0	t		32.0	2.5	/experiments/AOT/AOT_stimuli/rescaled_final/1250_fw.mp4	0.0	188.34450912475586	
34	168.6489908695221	movie	1		245	32.0	2.5	/experiments/AOT/AOT_stimuli/rescaled_final/1250_fw.mp4	0.0	188.35261702537537	2.5083541870117188
34	170.24062395095825	pulse	1	t		32.0	2.5	/experiments/AOT/AOT_stimuli/rescaled_final/1250_fw.mp4	0.0	189.94425010681152	
34	171.1573450565338	fix_post	2		12	32.0	2.5	/experiments/AOT/AOT_stimuli/rescaled_final/1250_fw.mp4	0.0	190.86097121238708	0.1000528335571289
35	171.25739789009094	fix_pre	0		120	33.0	2.5	/experiments/AOT/AOT_stimuli/rescaled_final/0209_fw.mp4	0.0	190.9610240459442	0.9998819828033447
35	171.84091186523438	pulse	0	t		33.0	2.5	/experiments/AOT/AOT_stimuli/rescaled_final/0209_fw.mp4	0.0	191.54453802108765	
35	172.2572798728943	movie	1		244	33.0	2.5	/experiments/AOT/AOT_stimuli/rescaled_final/0209_fw.mp4	0.0	191.96090602874756	2.500049114227295
35	173.44088506698608	pulse	1	t		33.0	2.5	/experiments/AOT/AOT_stimuli/rescaled_final/0209_fw.mp4	0.0	193.14451122283936	
35	174.75732898712158	fix_post	2		12	33.0	2.5	/experiments/AOT/AOT_stimuli/rescaled_final/0209_fw.mp4	0.0	194.46095514297485	0.10003185272216797
36	174.85736083984375	fix_pre	0		120	34.0	2.5	blank	1.0	194.56098699569702	1.0000061988830566
36	175.04086589813232	pulse	0	t		34.0	2.5	blank	1.0	194.7444920539856	
36	175.8573670387268	movie	1		300	34.0	2.5	blank	1.0	195.56099319458008	2.500018835067749
36	176.633367061615	pulse	1	t		34.0	2.5	blank	1.0	196.33699321746826	
36	178.24083805084229	pulse	1	t		34.0	2.5	blank	1.0	197.94446420669556	
36	178.35738587379456	fix_post	2		12	34.0	2.5	blank	1.0	198.06101202964783	0.09988808631896973
37	178.45727396011353	fix_pre	0		120	35.0	2.5	/experiments/AOT/AOT_stimuli/rescaled_final/1878_fw.mp4	0.0	198.1609001159668	1.0000090599060059
37	179.45728302001953	movie	1		245	35.0	2.5	/experiments/AOT/AOT_stimuli/rescaled_final/1878_fw.mp4	0.0	199.1609091758728	2.5
37	179.84020400047302	pulse	1	t		35.0	2.5	/experiments/AOT/AOT_stimuli/rescaled_final/1878_fw.mp4	0.0	199.5438301563263	
37	181.44078087806702	pulse	1	t		35.0	2.5	/experiments/AOT/AOT_stimuli/rescaled_final/1878_fw.mp4	0.0	201.1444070339203	
37	181.95728302001953	fix_post	2		12	35.0	2.5	/experiments/AOT/AOT_stimuli/rescaled_final/1878_fw.mp4	0.0	201.6609091758728	0.1000218391418457
38	182.05730485916138	fix_pre	0		119	36.0	2.5	/experiments/AOT/AOT_stimuli/rescaled_final/0793_fw.mp4	0.0	201.76093101501465	0.9916610717773438
38	183.04091501235962	pulse	0	t		36.0	2.5	/experiments/AOT/AOT_stimuli/rescaled_final/0793_fw.mp4	0.0	202.7445411682129	
38	183.04896593093872	movie	1		244	36.0	2.5	/experiments/AOT/AOT_stimuli/rescaled_final/0793_fw.mp4	0.0	202.752592086792	2.5083389282226562
38	184.640851020813	pulse	1	t		36.0	2.5	/experiments/AOT/AOT_stimuli/rescaled_final/0793_fw.mp4	0.0	204.34447717666626	
38	185.55730485916138	fix_post	2		12	36.0	2.5	/experiments/AOT/AOT_stimuli/rescaled_final/0793_fw.mp4	0.0	205.26093101501465	0.09999799728393555
39	185.6573028564453	fix_pre	0		120	37.0	2.5	/experiments/AOT/AOT_stimuli/rescaled_final/0371_rv.mp4	0.0	205.36092901229858	1.0001111030578613
39	186.2408390045166	pulse	0	t		37.0	2.5	/experiments/AOT/AOT_stimuli/rescaled_final/0371_rv.mp4	0.0	205.94446516036987	
39	186.65741395950317	movie	1		244	37.0	2.5	/experiments/AOT/AOT_stimuli/rescaled_final/0371_rv.mp4	0.0	206.36104011535645	2.4998528957366943
39	187.84088683128357	pulse	1	t		37.0	2.5	/experiments/AOT/AOT_stimuli/rescaled_final/0371_rv.mp4	0.0	207.54451298713684	
39	189.15726685523987	fix_post	2		12	37.0	2.5	/experiments/AOT/AOT_stimuli/rescaled_final/0371_rv.mp4	0.0	208.86089301109314	0.10000205039978027
40	189.25726890563965	fix_pre	0		120	38.0	2.5	/experiments/AOT/AOT_stimuli/rescaled_final/2086_rv.mp4	0.0	208.96089506149292	0.9997091293334961
40	189.44073486328125	pulse	0	t		38.0	2.5	/experiments/AOT/AOT_stimuli/rescaled_final/2086_rv.mp4	0.0	209.14436101913452	
40	190.25697803497314	movie	1		244	38.0	2.5	/experiments/AOT/AOT_stimuli/rescaled_final/2086_rv.mp4	0.0	209.96060419082642	2.499818801879883
40	191.0408329963684	pulse	1	t		38.0	2.5	/experiments/AOT/AOT_stimuli/rescaled_final/2086_rv.mp4	0.0	210.74445915222168	
40	192.6412239074707	pulse	1	t		38.0	2.5	/experiments/AOT/AOT_stimuli/rescaled_final/2086_rv.mp4	0.0	212.34485006332397	
40	192.75679683685303	fix_post	2		12	38.0	2.5	/experiments/AOT/AOT_stimuli/rescaled_final/2086_rv.mp4	0.0	212.4604229927063	0.10051608085632324
41	192.85731291770935	fix_pre	0		120	39.0	2.5	/experiments/AOT/AOT_stimuli/rescaled_final/1071_rv.mp4	0.0	212.56093907356262	0.9999029636383057
41	193.85721588134766	movie	1		243	39.0	2.5	/experiments/AOT/AOT_stimuli/rescaled_final/1071_rv.mp4	0.0	213.56084203720093	2.5000550746917725
41	194.24179601669312	pulse	1	t		39.0	2.5	/experiments/AOT/AOT_stimuli/rescaled_final/1071_rv.mp4	0.0	213.9454221725464	
41	195.84073686599731	pulse	1	t		39.0	2.5	/experiments/AOT/AOT_stimuli/rescaled_final/1071_rv.mp4	0.0	215.5443630218506	
41	196.35727095603943	fix_post	2		12	39.0	2.5	/experiments/AOT/AOT_stimuli/rescaled_final/1071_rv.mp4	0.0	216.0608971118927	0.09955787658691406
42	196.45682883262634	fix_pre	0		119	40.0	2.5	/experiments/AOT/AOT_stimuli/rescaled_final/1848_fw.mp4	0.0	216.16045498847961	0.9921360015869141
42	197.4407558441162	pulse	0	t		40.0	2.5	/experiments/AOT/AOT_stimuli/rescaled_final/1848_fw.mp4	0.0	217.14438199996948	
42	197.44896483421326	movie	1		244	40.0	2.5	/experiments/AOT/AOT_stimuli/rescaled_final/1848_fw.mp4	0.0	217.15259099006653	2.5083541870117188
42	199.04052686691284	pulse	1	t		40.0	2.5	/experiments/AOT/AOT_stimuli/rescaled_final/1848_fw.mp4	0.0	218.7441530227661	
42	199.95731902122498	fix_post	2		12	40.0	2.5	/experiments/AOT/AOT_stimuli/rescaled_final/1848_fw.mp4	0.0	219.66094517707825	0.09994196891784668
43	200.05726099014282	fix_pre	0		120	41.0	2.5	blank	1.0	219.7608871459961	0.9995670318603516
43	200.64073586463928	pulse	0	t		41.0	2.5	blank	1.0	220.34436202049255	
43	201.05682802200317	movie	1		300	41.0	2.5	blank	1.0	220.76045417785645	2.5004429817199707
43	202.2407898902893	pulse	1	t		41.0	2.5	blank	1.0	221.94441604614258	
43	203.55727100372314	fix_post	2		12	41.0	2.5	blank	1.0	223.26089715957642	0.09998798370361328
44	203.65725898742676	fix_pre	0		120	42.0	2.5	/experiments/AOT/AOT_stimuli/rescaled_final/1166_fw.mp4	0.0	223.36088514328003	1.000006914138794
44	203.84087204933167	pulse	0	t		42.0	2.5	/experiments/AOT/AOT_stimuli/rescaled_final/1166_fw.mp4	0.0	223.54449820518494	
44	204.65726590156555	movie	1		245	42.0	2.5	/experiments/AOT/AOT_stimuli/rescaled_final/1166_fw.mp4	0.0	224.36089205741882	2.500108003616333
44	205.4402768611908	pulse	1	t		42.0	2.5	/experiments/AOT/AOT_stimuli/rescaled_final/1166_fw.mp4	0.0	225.14390301704407	
44	207.0409209728241	pulse	1	t		42.0	2.5	/experiments/AOT/AOT_stimuli/rescaled_final/1166_fw.mp4	0.0	226.74454712867737	
44	207.15737390518188	fix_post	2		12	42.0	2.5	/experiments/AOT/AOT_stimuli/rescaled_final/1166_fw.mp4	0.0	226.86100006103516	0.1000070571899414
45	207.25738096237183	fix_pre	0		120	43.0	2.5	/experiments/AOT/AOT_stimuli/rescaled_final/0741_rv.mp4	0.0	226.9610071182251	0.9998130798339844
45	208.2571940422058	movie	1		245	43.0	2.5	/experiments/AOT/AOT_stimuli/rescaled_final/0741_rv.mp4	0.0	227.96082019805908	2.4999749660491943
45	208.64010787010193	pulse	1	t		43.0	2.5	/experiments/AOT/AOT_stimuli/rescaled_final/0741_rv.mp4	0.0	228.3437340259552	
45	210.24064993858337	pulse	1	t		43.0	2.5	/experiments/AOT/AOT_stimuli/rescaled_final/0741_rv.mp4	0.0	229.94427609443665	
45	210.757169008255	fix_post	2		12	43.0	2.5	/experiments/AOT/AOT_stimuli/rescaled_final/0741_rv.mp4	0.0	230.46079516410828	0.1000218391418457
46	210.85719084739685	fix_pre	0		119	44.0	2.5	/experiments/AOT/AOT_stimuli/rescaled_final/1911_rv.mp4	0.0	230.56081700325012	0.9917380809783936
46	211.84070491790771	pulse	0	t		44.0	2.5	/experiments/AOT/AOT_stimuli/rescaled_final/1911_rv.mp4	0.0	231.544331073761	
46	211.84892892837524	movie	1		244	44.0	2.5	/experiments/AOT/AOT_stimuli/rescaled_final/1911_rv.mp4	0.0	231.55255508422852	2.508208990097046
46	213.44019389152527	pulse	1	t		44.0	2.5	/experiments/AOT/AOT_stimuli/rescaled_final/1911_rv.mp4	0.0	233.14382004737854	
46	214.3571379184723	fix_post	2		12	44.0	2.5	/experiments/AOT/AOT_stimuli/rescaled_final/1911_rv.mp4	0.0	234.06076407432556	0.09999799728393555
47	214.45713591575623	fix_pre	0		120	45.0	2.5	/experiments/AOT/AOT_stimuli/rescaled_final/1659_fw.mp4	0.0	234.1607620716095	1.0000669956207275
47	215.0406470298767	pulse	0	t		45.0	2.5	/experiments/AOT/AOT_stimuli/rescaled_final/1659_fw.mp4	0.0	234.74427318572998	
47	215.45720291137695	movie	1		246	45.0	2.5	/experiments/AOT/AOT_stimuli/rescaled_final/1659_fw.mp4	0.0	235.16082906723022	2.4999051094055176
47	216.64067697525024	pulse	1	t		45.0	2.5	/experiments/AOT/AOT_stimuli/rescaled_final/1659_fw.mp4	0.0	236.34430313110352	
47	217.95710802078247	fix_post	2		12	45.0	2.5	/experiments/AOT/AOT_stimuli/rescaled_final/1659_fw.mp4	0.0	237.66073417663574	0.10007286071777344
48	218.05718088150024	fix_pre	0		120	46.0	2.5	/experiments/AOT/AOT_stimuli/rescaled_final/0551_rv.mp4	0.0	237.76080703735352	0.9999699592590332
48	218.24072003364563	pulse	0	t		46.0	2.5	/experiments/AOT/AOT_stimuli/rescaled_final/0551_rv.mp4	0.0	237.9443461894989	
48	219.05715084075928	movie	1		244	46.0	2.5	/experiments/AOT/AOT_stimuli/rescaled_final/0551_rv.mp4	0.0	238.76077699661255	2.500012159347534
48	219.84059691429138	pulse	1	t		46.0	2.5	/experiments/AOT/AOT_stimuli/rescaled_final/0551_rv.mp4	0.0	239.54422307014465	
48	221.4390058517456	pulse	1	t		46.0	2.5	/experiments/AOT/AOT_stimuli/rescaled_final/0551_rv.mp4	0.0	241.14263200759888	
48	221.5571630001068	fix_post	2		12	46.0	2.5	/experiments/AOT/AOT_stimuli/rescaled_final/0551_rv.mp4	0.0	241.26078915596008	0.09993600845336914
49	221.65709900856018	fix_pre	0		120	47.0	2.5	/experiments/AOT/AOT_stimuli/rescaled_final/0997_rv.mp4	0.0	241.36072516441345	0.9996130466461182
49	222.6567120552063	movie	1		245	47.0	2.5	/experiments/AOT/AOT_stimuli/rescaled_final/0997_rv.mp4	0.0	242.36033821105957	2.500408887863159
49	223.04014086723328	pulse	1	t		47.0	2.5	/experiments/AOT/AOT_stimuli/rescaled_final/0997_rv.mp4	0.0	242.74376702308655	
49	224.64064192771912	pulse	1	t		47.0	2.5	/experiments/AOT/AOT_stimuli/rescaled_final/0997_rv.mp4	0.0	244.3442680835724	
49	225.15712094306946	fix_post	2		12	47.0	2.5	/experiments/AOT/AOT_stimuli/rescaled_final/0997_rv.mp4	0.0	244.86074709892273	0.10002398490905762
50	225.25714492797852	fix_pre	0		119	48.0	2.5	/experiments/AOT/AOT_stimuli/rescaled_final/0157_rv.mp4	0.0	244.9607710838318	0.9916439056396484
50	226.24064803123474	pulse	0	t		48.0	2.5	/experiments/AOT/AOT_stimuli/rescaled_final/0157_rv.mp4	0.0	245.944274187088	
50	226.24878883361816	movie	1		245	48.0	2.5	/experiments/AOT/AOT_stimuli/rescaled_final/0157_rv.mp4	0.0	245.95241498947144	2.508303165435791
50	227.8401460647583	pulse	1	t		48.0	2.5	/experiments/AOT/AOT_stimuli/rescaled_final/0157_rv.mp4	0.0	247.54377222061157	
50	228.75709199905396	fix_post	2		12	48.0	2.5	/experiments/AOT/AOT_stimuli/rescaled_final/0157_rv.mp4	0.0	248.46071815490723	0.09998893737792969
51	228.85708093643188	fix_pre	0		120	49.0	2.5	blank	1.0	248.56070709228516	0.9999620914459229
51	229.4405539035797	pulse	0	t		49.0	2.5	blank	1.0	249.14418005943298	
51	229.8570430278778	movie	1		300	49.0	2.5	blank	1.0	249.56066918373108	2.5000410079956055
51	231.04050397872925	pulse	1	t		49.0	2.5	blank	1.0	250.74413013458252	
51	232.3570840358734	fix_post	2		12	49.0	2.5	blank	1.0	252.06071019172668	0.10000801086425781
52	232.45709204673767	fix_pre	0		120	50.0	2.5	/experiments/AOT/AOT_stimuli/rescaled_final/0995_fw.mp4	0.0	252.16071820259094	1.0000178813934326
52	232.64060997962952	pulse	0	t		50.0	2.5	/experiments/AOT/AOT_stimuli/rescaled_final/0995_fw.mp4	0.0	252.3442361354828	
52	233.4571099281311	movie	1		243	50.0	2.5	/experiments/AOT/AOT_stimuli/rescaled_final/0995_fw.mp4	0.0	253.16073608398438	2.499864101409912
52	234.24056887626648	pulse	1	t		50.0	2.5	/experiments/AOT/AOT_stimuli/rescaled_final/0995_fw.mp4	0.0	253.94419503211975	
52	235.8392310142517	pulse	1	t		50.0	2.5	/experiments/AOT/AOT_stimuli/rescaled_final/0995_fw.mp4	0.0	255.54285717010498	
52	235.95697402954102	fix_post	2		12	50.0	2.5	/experiments/AOT/AOT_stimuli/rescaled_final/0995_fw.mp4	0.0	255.6606001853943	0.10005688667297363
53	236.057030916214	fix_pre	0		120	51.0	2.5	/experiments/AOT/AOT_stimuli/rescaled_final/1069_fw.mp4	0.0	255.76065707206726	1.000011920928955
53	237.05704283714294	movie	1		243	51.0	2.5	/experiments/AOT/AOT_stimuli/rescaled_final/1069_fw.mp4	0.0	256.7606689929962	2.4999589920043945
53	237.44192099571228	pulse	1	t		51.0	2.5	/experiments/AOT/AOT_stimuli/rescaled_final/1069_fw.mp4	0.0	257.14554715156555	
53	239.04056406021118	pulse	1	t		51.0	2.5	/experiments/AOT/AOT_stimuli/rescaled_final/1069_fw.mp4	0.0	258.74419021606445	
53	239.55700182914734	fix_post	2		12	51.0	2.5	/experiments/AOT/AOT_stimuli/rescaled_final/1069_fw.mp4	0.0	259.2606279850006	0.09994912147521973
54	239.65695095062256	fix_pre	0		119	52.0	2.5	/experiments/AOT/AOT_stimuli/rescaled_final/0625_fw.mp4	0.0	259.36057710647583	0.9917199611663818
54	240.6405930519104	pulse	0	t		52.0	2.5	/experiments/AOT/AOT_stimuli/rescaled_final/0625_fw.mp4	0.0	260.3442192077637	
54	240.64867091178894	movie	1		245	52.0	2.5	/experiments/AOT/AOT_stimuli/rescaled_final/0625_fw.mp4	0.0	260.3522970676422	2.5079071521759033
54	242.24021005630493	pulse	1	t		52.0	2.5	/experiments/AOT/AOT_stimuli/rescaled_final/0625_fw.mp4	0.0	261.9438362121582	
54	243.15657806396484	fix_post	2		12	52.0	2.5	/experiments/AOT/AOT_stimuli/rescaled_final/0625_fw.mp4	0.0	262.8602042198181	0.10050177574157715
55	243.25707983970642	fix_pre	0		120	53.0	2.5	/experiments/AOT/AOT_stimuli/rescaled_final/0849_fw.mp4	0.0	262.9607059955597	0.9999451637268066
55	243.84062385559082	pulse	0	t		53.0	2.5	/experiments/AOT/AOT_stimuli/rescaled_final/0849_fw.mp4	0.0	263.5442500114441	
55	244.25702500343323	movie	1		246	53.0	2.5	/experiments/AOT/AOT_stimuli/rescaled_final/0849_fw.mp4	0.0	263.9606511592865	2.4995429515838623
55	245.4406008720398	pulse	1	t		53.0	2.5	/experiments/AOT/AOT_stimuli/rescaled_final/0849_fw.mp4	0.0	265.14422702789307	
55	246.7565679550171	fix_post	2		12	53.0	2.5	/experiments/AOT/AOT_stimuli/rescaled_final/0849_fw.mp4	0.0	266.46019411087036	0.10045599937438965
56	246.85702395439148	fix_pre	0		120	54.0	2.5	/experiments/AOT/AOT_stimuli/rescaled_final/0273_fw.mp4	0.0	266.56065011024475	0.9999990463256836
56	247.0404748916626	pulse	0	t		54.0	2.5	/experiments/AOT/AOT_stimuli/rescaled_final/0273_fw.mp4	0.0	266.74410104751587	
56	247.85702300071716	movie	1		244	54.0	2.5	/experiments/AOT/AOT_stimuli/rescaled_final/0273_fw.mp4	0.0	267.56064915657043	2.4999918937683105
56	248.64044189453125	pulse	1	t		54.0	2.5	/experiments/AOT/AOT_stimuli/rescaled_final/0273_fw.mp4	0.0	268.3440680503845	
56	250.23899698257446	pulse	1	t		54.0	2.5	/experiments/AOT/AOT_stimuli/rescaled_final/0273_fw.mp4	0.0	269.94262313842773	
56	250.35701489448547	fix_post	2		12	54.0	2.5	/experiments/AOT/AOT_stimuli/rescaled_final/0273_fw.mp4	0.0	270.06064105033875	0.09955000877380371
57	250.45656490325928	fix_pre	0		120	55.0	2.5	blank	1.0	270.16019105911255	1.0004119873046875
57	251.45697689056396	movie	1		300	55.0	2.5	blank	1.0	271.16060304641724	2.4999711513519287
57	251.84048986434937	pulse	1	t		55.0	2.5	blank	1.0	271.54411602020264	
57	253.44048500061035	pulse	1	t		55.0	2.5	blank	1.0	273.1441111564636	
57	253.9569480419159	fix_post	2		12	55.0	2.5	blank	1.0	273.66057419776917	0.09964895248413086
58	254.05659699440002	fix_pre	0		119	56.0	2.5	/experiments/AOT/AOT_stimuli/rescaled_final/1404_rv.mp4	0.0	273.7602231502533	0.9919979572296143
58	255.04046893119812	pulse	0	t		56.0	2.5	/experiments/AOT/AOT_stimuli/rescaled_final/1404_rv.mp4	0.0	274.7440950870514	
58	255.04859495162964	movie	1		245	56.0	2.5	/experiments/AOT/AOT_stimuli/rescaled_final/1404_rv.mp4	0.0	274.7522211074829	2.5079569816589355
58	256.64005994796753	pulse	1	t		56.0	2.5	/experiments/AOT/AOT_stimuli/rescaled_final/1404_rv.mp4	0.0	276.3436861038208	
58	257.5565519332886	fix_post	2		12	56.0	2.5	/experiments/AOT/AOT_stimuli/rescaled_final/1404_rv.mp4	0.0	277.26017808914185	0.10037803649902344
59	257.6569299697876	fix_pre	0		120	57.0	2.5	/experiments/AOT/AOT_stimuli/rescaled_final/0496_fw.mp4	0.0	277.36055612564087	0.9996049404144287
59	258.2405459880829	pulse	0	t		57.0	2.5	/experiments/AOT/AOT_stimuli/rescaled_final/0496_fw.mp4	0.0	277.94417214393616	
59	258.656534910202	movie	1		245	57.0	2.5	/experiments/AOT/AOT_stimuli/rescaled_final/0496_fw.mp4	0.0	278.3601610660553	2.5003750324249268
59	259.84045696258545	pulse	1	t		57.0	2.5	/experiments/AOT/AOT_stimuli/rescaled_final/0496_fw.mp4	0.0	279.5440831184387	
59	261.15690994262695	fix_post	2		12	57.0	2.5	/experiments/AOT/AOT_stimuli/rescaled_final/0496_fw.mp4	0.0	280.8605360984802	0.09968900680541992
60	261.2565989494324	fix_pre	0		120	58.0	2.5	/experiments/AOT/AOT_stimuli/rescaled_final/1558_fw.mp4	0.0	280.96022510528564	0.9999129772186279
60	261.43999004364014	pulse	0	t		58.0	2.5	/experiments/AOT/AOT_stimuli/rescaled_final/1558_fw.mp4	0.0	281.1436161994934	
60	262.256511926651	movie	1		247	58.0	2.5	/experiments/AOT/AOT_stimuli/rescaled_final/1558_fw.mp4	0.0	281.9601380825043	2.5000100135803223
60	263.04057788848877	pulse	1	t		58.0	2.5	/experiments/AOT/AOT_stimuli/rescaled_final/1558_fw.mp4	0.0	282.74420404434204	
60	264.63665795326233	pulse	1	t		58.0	2.5	/experiments/AOT/AOT_stimuli/rescaled_final/1558_fw.mp4	0.0	284.3402841091156	
60	264.7565219402313	fix_post	2		12	58.0	2.5	/experiments/AOT/AOT_stimuli/rescaled_final/1558_fw.mp4	0.0	284.4601480960846	0.10042095184326172
61	264.8569428920746	fix_pre	0		120	59.0	2.5	/experiments/AOT/AOT_stimuli/rescaled_final/0560_rv.mp4	0.0	284.56056904792786	0.9999971389770508
61	265.85694003105164	movie	1		246	59.0	2.5	/experiments/AOT/AOT_stimuli/rescaled_final/0560_rv.mp4	0.0	285.5605661869049	2.499926805496216
61	266.2404308319092	pulse	1	t		59.0	2.5	/experiments/AOT/AOT_stimuli/rescaled_final/0560_rv.mp4	0.0	285.94405698776245	
61	267.8404200077057	pulse	1	t		59.0	2.5	/experiments/AOT/AOT_stimuli/rescaled_final/0560_rv.mp4	0.0	287.54404616355896	
61	268.35686683654785	fix_post	2		12	59.0	2.5	/experiments/AOT/AOT_stimuli/rescaled_final/0560_rv.mp4	0.0	288.0604929924011	0.10006499290466309
62	268.4569318294525	fix_pre	0		119	60.0	2.5	/experiments/AOT/AOT_stimuli/rescaled_final/1171_rv.mp4	0.0	288.1605579853058	0.9916121959686279
62	269.440358877182	pulse	0	t		60.0	2.5	/experiments/AOT/AOT_stimuli/rescaled_final/1171_rv.mp4	0.0	289.1439850330353	
62	269.44854402542114	movie	1		246	60.0	2.5	/experiments/AOT/AOT_stimuli/rescaled_final/1171_rv.mp4	0.0	289.1521701812744	2.5083088874816895
62	271.0397448539734	pulse	1	t		60.0	2.5	/experiments/AOT/AOT_stimuli/rescaled_final/1171_rv.mp4	0.0	290.74337100982666	
62	271.95685291290283	fix_post	2		12	60.0	2.5	/experiments/AOT/AOT_stimuli/rescaled_final/1171_rv.mp4	0.0	291.6604790687561	0.09998106956481934
63	272.05683398246765	fix_pre	0		120	61.0	2.5	/experiments/AOT/AOT_stimuli/rescaled_final/0265_fw.mp4	0.0	291.7604601383209	1.0000240802764893
63	272.6403589248657	pulse	0	t		61.0	2.5	/experiments/AOT/AOT_stimuli/rescaled_final/0265_fw.mp4	0.0	292.343985080719	
63	273.05685806274414	movie	1		246	61.0	2.5	/experiments/AOT/AOT_stimuli/rescaled_final/0265_fw.mp4	0.0	292.7604842185974	2.499966859817505
63	274.24030590057373	pulse	1	t		61.0	2.5	/experiments/AOT/AOT_stimuli/rescaled_final/0265_fw.mp4	0.0	293.943932056427	
63	275.55682492256165	fix_post	2		12	61.0	2.5	/experiments/AOT/AOT_stimuli/rescaled_final/0265_fw.mp4	0.0	295.2604510784149	0.10002613067626953
64	275.6568510532379	fix_pre	0		120	62.0	2.5	/experiments/AOT/AOT_stimuli/rescaled_final/1384_rv.mp4	0.0	295.3604772090912	0.9999589920043945
64	275.8402988910675	pulse	0	t		62.0	2.5	/experiments/AOT/AOT_stimuli/rescaled_final/1384_rv.mp4	0.0	295.5439250469208	
64	276.6568100452423	movie	1		243	62.0	2.5	/experiments/AOT/AOT_stimuli/rescaled_final/1384_rv.mp4	0.0	296.3604362010956	2.4995789527893066
64	277.4402780532837	pulse	1	t		62.0	2.5	/experiments/AOT/AOT_stimuli/rescaled_final/1384_rv.mp4	0.0	297.14390420913696	
64	279.03879499435425	pulse	1	t		62.0	2.5	/experiments/AOT/AOT_stimuli/rescaled_final/1384_rv.mp4	0.0	298.7424211502075	
64	279.1563889980316	fix_post	2		12	62.0	2.5	/experiments/AOT/AOT_stimuli/rescaled_final/1384_rv.mp4	0.0	298.8600151538849	0.10045194625854492
65	279.25684094429016	fix_pre	0		120	63.0	2.5	blank	1.0	298.96046710014343	0.9995620250701904
65	280.25640296936035	movie	1		300	63.0	2.5	blank	1.0	299.9600291252136	2.50039005279541
65	280.64034485816956	pulse	1	t		63.0	2.5	blank	1.0	300.3439710140228	
65	282.2402820587158	pulse	1	t		63.0	2.5	blank	1.0	301.9439082145691	
65	282.75679302215576	fix_post	2		12	63.0	2.5	blank	1.0	302.46041917800903	0.10001182556152344
66	282.8568048477173	fix_pre	0		119	64.0	2.5	/experiments/AOT/AOT_stimuli/rescaled_final/1320_rv.mp4	0.0	302.56043100357056	0.9916861057281494
66	283.84024596214294	pulse	0	t		64.0	2.5	/experiments/AOT/AOT_stimuli/rescaled_final/1320_rv.mp4	0.0	303.5438721179962	
66	283.84849095344543	movie	1		244	64.0	2.5	/experiments/AOT/AOT_stimuli/rescaled_final/1320_rv.mp4	0.0	303.5521171092987	2.5079119205474854
66	285.44033789634705	pulse	1	t		64.0	2.5	/experiments/AOT/AOT_stimuli/rescaled_final/1320_rv.mp4	0.0	305.1439640522003	
66	286.3564028739929	fix_post	2		12	64.0	2.5	/experiments/AOT/AOT_stimuli/rescaled_final/1320_rv.mp4	0.0	306.0600290298462	0.10036706924438477
67	286.4567699432373	fix_pre	0		120	65.0	2.5	/experiments/AOT/AOT_stimuli/rescaled_final/0845_fw.mp4	0.0	306.1603960990906	1.0000181198120117
67	287.04028391838074	pulse	0	t		65.0	2.5	/experiments/AOT/AOT_stimuli/rescaled_final/0845_fw.mp4	0.0	306.743910074234	
67	287.4567880630493	movie	1		248	65.0	2.5	/experiments/AOT/AOT_stimuli/rescaled_final/0845_fw.mp4	0.0	307.1604142189026	2.499823808670044
67	288.6403398513794	pulse	1	t		65.0	2.5	/experiments/AOT/AOT_stimuli/rescaled_final/0845_fw.mp4	0.0	308.34396600723267	
67	289.95661187171936	fix_post	2		12	65.0	2.5	/experiments/AOT/AOT_stimuli/rescaled_final/0845_fw.mp4	0.0	309.66023802757263	0.10019302368164062
68	290.056804895401	fix_pre	0		120	66.0	2.5	/experiments/AOT/AOT_stimuli/rescaled_final/1265_fw.mp4	0.0	309.7604310512543	0.9999001026153564
68	290.24027490615845	pulse	0	t		66.0	2.5	/experiments/AOT/AOT_stimuli/rescaled_final/1265_fw.mp4	0.0	309.9439010620117	
68	291.05670499801636	movie	1		244	66.0	2.5	/experiments/AOT/AOT_stimuli/rescaled_final/1265_fw.mp4	0.0	310.76033115386963	2.499584913253784
68	291.8402290344238	pulse	1	t		66.0	2.5	/experiments/AOT/AOT_stimuli/rescaled_final/1265_fw.mp4	0.0	311.5438551902771	
68	293.43855905532837	pulse	1	t		66.0	2.5	/experiments/AOT/AOT_stimuli/rescaled_final/1265_fw.mp4	0.0	313.14218521118164	
68	293.55628991127014	fix_post	2		12	66.0	2.5	/experiments/AOT/AOT_stimuli/rescaled_final/1265_fw.mp4	0.0	313.2599160671234	0.1004941463470459
69	293.6567840576172	fix_pre	0		120	67.0	2.5	/experiments/AOT/AOT_stimuli/rescaled_final/1660_fw.mp4	0.0	313.36041021347046	0.9999978542327881
69	294.65678191185	movie	1		247	67.0	2.5	/experiments/AOT/AOT_stimuli/rescaled_final/1660_fw.mp4	0.0	314.36040806770325	2.499911069869995
69	295.03959703445435	pulse	1	t		67.0	2.5	/experiments/AOT/AOT_stimuli/rescaled_final/1660_fw.mp4	0.0	314.7432231903076	
69	296.6402590274811	pulse	1	t		67.0	2.5	/experiments/AOT/AOT_stimuli/rescaled_final/1660_fw.mp4	0.0	316.34388518333435	
69	297.15669298171997	fix_post	2		12	67.0	2.5	/experiments/AOT/AOT_stimuli/rescaled_final/1660_fw.mp4	0.0	316.86031913757324	0.09998106956481934
70	297.2566740512848	fix_pre	0		119	68.0	2.5	blank	1.0	316.96030020713806	0.9916908740997314
70	298.2402789592743	pulse	0	t		68.0	2.5	blank	1.0	317.94390511512756	
70	298.2483649253845	movie	1		301	68.0	2.5	blank	1.0	317.9519910812378	2.5083839893341064
70	299.8402638435364	pulse	1	t		68.0	2.5	blank	1.0	319.54388999938965	
70	300.7567489147186	fix_post	2		12	68.0	2.5	blank	1.0	320.4603750705719	0.1000521183013916
71	300.85680103302	fix_pre	0		120	69.0	2.5	/experiments/AOT/AOT_stimuli/rescaled_final/1033_rv.mp4	0.0	320.5604271888733	1.0001568794250488
71	301.44022488594055	pulse	0	t		69.0	2.5	/experiments/AOT/AOT_stimuli/rescaled_final/1033_rv.mp4	0.0	321.1438510417938	
71	301.85695791244507	movie	1		244	69.0	2.5	/experiments/AOT/AOT_stimuli/rescaled_final/1033_rv.mp4	0.0	321.56058406829834	2.4993090629577637
71	303.04027700424194	pulse	1	t		69.0	2.5	/experiments/AOT/AOT_stimuli/rescaled_final/1033_rv.mp4	0.0	322.7439031600952	
71	304.35626697540283	fix_post	2		12	69.0	2.5	/experiments/AOT/AOT_stimuli/rescaled_final/1033_rv.mp4	0.0	324.0598931312561	0.10040402412414551
72	304.456670999527	fix_pre	0		120	70.0	2.5	/experiments/AOT/AOT_stimuli/rescaled_final/1814_rv.mp4	0.0	324.16029715538025	1.0000028610229492
72	304.6402509212494	pulse	0	t		70.0	2.5	/experiments/AOT/AOT_stimuli/rescaled_final/1814_rv.mp4	0.0	324.34387707710266	
72	305.4566738605499	movie	1		244	70.0	2.5	/experiments/AOT/AOT_stimuli/rescaled_final/1814_rv.mp4	0.0	325.1603000164032	2.5000641345977783
72	306.24017000198364	pulse	1	t		70.0	2.5	/experiments/AOT/AOT_stimuli/rescaled_final/1814_rv.mp4	0.0	325.9437961578369	
72	307.8388440608978	pulse	1	t		70.0	2.5	/experiments/AOT/AOT_stimuli/rescaled_final/1814_rv.mp4	0.0	327.5424702167511	
72	307.9567379951477	fix_post	2		12	70.0	2.5	/experiments/AOT/AOT_stimuli/rescaled_final/1814_rv.mp4	0.0	327.660364151001	0.09947705268859863
73	308.0562150478363	fix_pre	0		120	71.0	2.5	/experiments/AOT/AOT_stimuli/rescaled_final/0418_fw.mp4	0.0	327.7598412036896	1.0000808238983154
73	309.0562958717346	movie	1		245	71.0	2.5	/experiments/AOT/AOT_stimuli/rescaled_final/0418_fw.mp4	0.0	328.7599220275879	2.50039005279541
73	309.4401340484619	pulse	1	t		71.0	2.5	/experiments/AOT/AOT_stimuli/rescaled_final/0418_fw.mp4	0.0	329.1437602043152	
73	311.04018902778625	pulse	1	t		71.0	2.5	/experiments/AOT/AOT_stimuli/rescaled_final/0418_fw.mp4	0.0	330.7438151836395	
73	311.55668592453003	fix_post	2		12	71.0	2.5	/experiments/AOT/AOT_stimuli/rescaled_final/0418_fw.mp4	0.0	331.2603120803833	0.09992408752441406
74	311.65661001205444	fix_pre	0		119	72.0	2.5	/experiments/AOT/AOT_stimuli/rescaled_final/1648_rv.mp4	0.0	331.3602361679077	0.9917409420013428
74	312.6401460170746	pulse	0	t		72.0	2.5	/experiments/AOT/AOT_stimuli/rescaled_final/1648_rv.mp4	0.0	332.34377217292786	
74	312.6483509540558	movie	1		244	72.0	2.5	/experiments/AOT/AOT_stimuli/rescaled_final/1648_rv.mp4	0.0	332.35197710990906	2.5083699226379395
74	314.23955392837524	pulse	1	t		72.0	2.5	/experiments/AOT/AOT_stimuli/rescaled_final/1648_rv.mp4	0.0	333.9431800842285	
74	315.1567208766937	fix_post	2		12	72.0	2.5	/experiments/AOT/AOT_stimuli/rescaled_final/1648_rv.mp4	0.0	334.860347032547	0.09998607635498047
75	315.2567069530487	fix_pre	0		120	73.0	2.5	/experiments/AOT/AOT_stimuli/rescaled_final/0037_rv.mp4	0.0	334.960333108902	0.9999439716339111
75	315.84017992019653	pulse	0	t		73.0	2.5	/experiments/AOT/AOT_stimuli/rescaled_final/0037_rv.mp4	0.0	335.5438060760498	
75	316.2566509246826	movie	1		246	73.0	2.5	/experiments/AOT/AOT_stimuli/rescaled_final/0037_rv.mp4	0.0	335.9602770805359	2.500185012817383
75	317.439847946167	pulse	1	t		73.0	2.5	/experiments/AOT/AOT_stimuli/rescaled_final/0037_rv.mp4	0.0	337.14347410202026	
75	318.7568359375	fix_post	2		12	73.0	2.5	/experiments/AOT/AOT_stimuli/rescaled_final/0037_rv.mp4	0.0	338.46046209335327	0.09997010231018066
76	318.8568060398102	fix_pre	0		120	74.0	2.5	/experiments/AOT/AOT_stimuli/rescaled_final/1033_fw.mp4	0.0	338.56043219566345	0.9997467994689941
76	319.0403690338135	pulse	0	t		74.0	2.5	/experiments/AOT/AOT_stimuli/rescaled_final/1033_fw.mp4	0.0	338.74399518966675	
76	319.8565528392792	movie	1		243	74.0	2.5	/experiments/AOT/AOT_stimuli/rescaled_final/1033_fw.mp4	0.0	339.56017899513245	2.500105142593384
76	320.64016795158386	pulse	1	t		74.0	2.5	/experiments/AOT/AOT_stimuli/rescaled_final/1033_fw.mp4	0.0	340.34379410743713	
76	322.23871183395386	pulse	1	t		74.0	2.5	/experiments/AOT/AOT_stimuli/rescaled_final/1033_fw.mp4	0.0	341.94233798980713	
76	322.35665798187256	fix_post	2		12	74.0	2.5	/experiments/AOT/AOT_stimuli/rescaled_final/1033_fw.mp4	0.0	342.06028413772583	0.09999990463256836
77	322.4566578865051	fix_pre	0		120	75.0	2.5	blank	1.0	342.1602840423584	1.0000100135803223
77	323.45666790008545	movie	1		300	75.0	2.5	blank	1.0	343.1602940559387	2.499464988708496
77	323.84011006355286	pulse	1	t		75.0	2.5	blank	1.0	343.5437362194061	
77	325.44016790390015	pulse	1	t		75.0	2.5	blank	1.0	345.1437940597534	
77	325.95613288879395	fix_post	2		12	75.0	2.5	blank	1.0	345.6597590446472	0.10043811798095703
78	326.0565710067749	fix_pre	0		119	76.0	2.5	/experiments/AOT/AOT_stimuli/rescaled_final/1529_rv.mp4	0.0	345.7601971626282	0.9918279647827148
78	327.04012084007263	pulse	0	t		76.0	2.5	/experiments/AOT/AOT_stimuli/rescaled_final/1529_rv.mp4	0.0	346.7437469959259	
78	327.0483989715576	movie	1		244	76.0	2.5	/experiments/AOT/AOT_stimuli/rescaled_final/1529_rv.mp4	0.0	346.7520251274109	2.508194923400879
78	328.64019298553467	pulse	1	t		76.0	2.5	/experiments/AOT/AOT_stimuli/rescaled_final/1529_rv.mp4	0.0	348.34381914138794	
78	329.5565938949585	fix_post	2		12	76.0	2.5	/experiments/AOT/AOT_stimuli/rescaled_final/1529_rv.mp4	0.0	349.26022005081177	0.09992814064025879
79	329.65652203559875	fix_pre	0		120	77.0	2.5	/experiments/AOT/AOT_stimuli/rescaled_final/1918_fw.mp4	0.0	349.360148191452	1.0000309944152832
79	330.24010586738586	pulse	0	t		77.0	2.5	/experiments/AOT/AOT_stimuli/rescaled_final/1918_fw.mp4	0.0	349.94373202323914	
79	330.65655303001404	movie	1		244	77.0	2.5	/experiments/AOT/AOT_stimuli/rescaled_final/1918_fw.mp4	0.0	350.3601791858673	2.499586820602417
79	331.8401520252228	pulse	1	t		77.0	2.5	/experiments/AOT/AOT_stimuli/rescaled_final/1918_fw.mp4	0.0	351.54377818107605	
79	333.15613985061646	fix_post	2		12	77.0	2.5	/experiments/AOT/AOT_stimuli/rescaled_final/1918_fw.mp4	0.0	352.8597660064697	0.1004631519317627
80	333.2566030025482	fix_pre	0		120	78.0	2.5	/experiments/AOT/AOT_stimuli/rescaled_final/1447_rv.mp4	0.0	352.9602291584015	0.9999449253082275
80	333.4401009082794	pulse	0	t		78.0	2.5	/experiments/AOT/AOT_stimuli/rescaled_final/1447_rv.mp4	0.0	353.1437270641327	
80	334.25654792785645	movie	1		245	78.0	2.5	/experiments/AOT/AOT_stimuli/rescaled_final/1447_rv.mp4	0.0	353.9601740837097	2.4996180534362793
80	335.0400960445404	pulse	1	t		78.0	2.5	/experiments/AOT/AOT_stimuli/rescaled_final/1447_rv.mp4	0.0	354.7437222003937	
80	336.63917088508606	pulse	1	t		78.0	2.5	/experiments/AOT/AOT_stimuli/rescaled_final/1447_rv.mp4	0.0	356.34279704093933	
80	336.7561659812927	fix_post	2		12	78.0	2.5	/experiments/AOT/AOT_stimuli/rescaled_final/1447_rv.mp4	0.0	356.459792137146	0.10030984878540039
81	336.8564758300781	fix_pre	0		120	79.0	2.5	/experiments/AOT/AOT_stimuli/rescaled_final/1319_rv.mp4	0.0	356.5601019859314	1.0000522136688232
81	337.85652804374695	movie	1		245	79.0	2.5	/experiments/AOT/AOT_stimuli/rescaled_final/1319_rv.mp4	0.0	357.5601541996002	2.499985933303833
81	338.2413680553436	pulse	1	t		79.0	2.5	/experiments/AOT/AOT_stimuli/rescaled_final/1319_rv.mp4	0.0	357.9449942111969	
81	339.8401210308075	pulse	1	t		79.0	2.5	/experiments/AOT/AOT_stimuli/rescaled_final/1319_rv.mp4	0.0	359.54374718666077	
81	340.3565139770508	fix_post	2		12	79.0	2.5	/experiments/AOT/AOT_stimuli/rescaled_final/1319_rv.mp4	0.0	360.06014013290405	0.1000220775604248
82	340.4565360546112	fix_pre	0		119	80.0	2.5	/experiments/AOT/AOT_stimuli/rescaled_final/0788_fw.mp4	0.0	360.1601622104645	0.9916088581085205
82	341.4399390220642	pulse	0	t		80.0	2.5	/experiments/AOT/AOT_stimuli/rescaled_final/0788_fw.mp4	0.0	361.1435651779175	
82	341.4481449127197	movie	1		245	80.0	2.5	/experiments/AOT/AOT_stimuli/rescaled_final/0788_fw.mp4	0.0	361.151771068573	2.508315086364746
82	343.0414009094238	pulse	1	t		80.0	2.5	/experiments/AOT/AOT_stimuli/rescaled_final/0788_fw.mp4	0.0	362.7450270652771	
82	343.9564599990845	fix_post	2		12	80.0	2.5	/experiments/AOT/AOT_stimuli/rescaled_final/0788_fw.mp4	0.0	363.66008615493774	0.10004901885986328
83	344.05650901794434	fix_pre	0		120	81.0	2.5	/experiments/AOT/AOT_stimuli/rescaled_final/0869_fw.mp4	0.0	363.7601351737976	0.9999339580535889
83	344.639967918396	pulse	0	t		81.0	2.5	/experiments/AOT/AOT_stimuli/rescaled_final/0869_fw.mp4	0.0	364.34359407424927	
83	345.0564429759979	movie	1		244	81.0	2.5	/experiments/AOT/AOT_stimuli/rescaled_final/0869_fw.mp4	0.0	364.7600691318512	2.5000739097595215
83	346.2400619983673	pulse	1	t		81.0	2.5	/experiments/AOT/AOT_stimuli/rescaled_final/0869_fw.mp4	0.0	365.9436881542206	
83	347.55651688575745	fix_post	2		12	81.0	2.5	/experiments/AOT/AOT_stimuli/rescaled_final/0869_fw.mp4	0.0	367.2601430416107	0.09989213943481445
84	347.65640902519226	fix_pre	0		120	82.0	2.5	blank	1.0	367.36003518104553	1.0001308917999268
84	347.8399848937988	pulse	0	t		82.0	2.5	blank	1.0	367.5436110496521	
84	348.6565399169922	movie	1		300	82.0	2.5	blank	1.0	368.36016607284546	2.4994630813598633
84	349.439964056015	pulse	1	t		82.0	2.5	blank	1.0	369.1435902118683	
84	351.03995990753174	pulse	1	t		82.0	2.5	blank	1.0	370.743586063385	
84	351.15600299835205	fix_post	2		12	82.0	2.5	blank	1.0	370.8596291542053	0.10045385360717773
85	351.25645685195923	fix_pre	0		120	83.0	2.5	/experiments/AOT/AOT_stimuli/rescaled_final/1384_rv.mp4	0.0	370.9600830078125	0.9995651245117188
85	352.25602197647095	movie	1		244	83.0	2.5	/experiments/AOT/AOT_stimuli/rescaled_final/1384_rv.mp4	0.0	371.9596481323242	2.5000789165496826
85	352.64121103286743	pulse	1	t		83.0	2.5	/experiments/AOT/AOT_stimuli/rescaled_final/1384_rv.mp4	0.0	372.3448371887207	
85	354.23996686935425	pulse	1	t		83.0	2.5	/experiments/AOT/AOT_stimuli/rescaled_final/1384_rv.mp4	0.0	373.9435930252075	
85	354.75610089302063	fix_post	2		12	83.0	2.5	/experiments/AOT/AOT_stimuli/rescaled_final/1384_rv.mp4	0.0	374.4597270488739	0.10044503211975098
87	354.8565459251404	stim	0		1716					374.56017208099365	14.299921035766602
87	355.8399848937988	pulse	0	t						375.5436110496521	
87	357.4399778842926	pulse	0	t						377.1436040401459	
87	359.03993487358093	pulse	0	t						378.7435610294342	
87	360.63990592956543	pulse	0	t						380.3435320854187	
87	362.2398729324341	pulse	0	t						381.94349908828735	
87	363.83990383148193	pulse	0	t						383.5435299873352	
87	365.4397859573364	pulse	0	t						385.1434121131897	
87	367.0398418903351	pulse	0	t						386.74346804618835	
87	368.63985800743103	pulse	0	t						388.3434841632843	
