trial_nr	onset	event_type	phase	response	nr_frames	movie_index	movie_duration	movie_file	blank	onset_abs	duration
0	0.1665358543395996	stim	0		53					31.035001516342163	0.4415311813354492
0	0.5999405384063721	response	0	space						31.468406200408936	
1	0.6080670356750488	stim	0		4308					31.476532697677612	35.90809464454651
1	36.5062620639801	pulse	0	t						67.37472772598267	
1	36.51616168022156	stim	1		1715					67.38462734222412	14.30779504776001
1	38.10564208030701	pulse	1	t						68.97410774230957	
1	39.70589327812195	pulse	1	t						70.57435894012451	
1	41.30604815483093	pulse	1	t						72.1745138168335	
1	42.906402826309204	pulse	1	t						73.77486848831177	
1	44.50682806968689	pulse	1	t						75.37529373168945	
1	46.10684680938721	pulse	1	t						76.97531247138977	
1	47.70716071128845	pulse	1	t						78.57562637329102	
1	49.30725598335266	pulse	1	t						80.17572164535522	
2	50.82395672798157	fix_pre	0		11	0.0	2.5	/experiments/Knapen_AOT/AOT_stimuli/rescaled_final/0954_fw.mp4	0.0	81.69242238998413	0.12511372566223145
2	50.90763330459595	pulse	0	t		0.0	2.5	/experiments/Knapen_AOT/AOT_stimuli/rescaled_final/0954_fw.mp4	0.0	81.77609896659851	
2	50.9490704536438	movie	1		283	0.0	2.5	/experiments/Knapen_AOT/AOT_stimuli/rescaled_final/0954_fw.mp4	0.0	81.81753611564636	2.4752824306488037
2	52.50609874725342	pulse	1	t		0.0	2.5	/experiments/Knapen_AOT/AOT_stimuli/rescaled_final/0954_fw.mp4	0.0	83.37456440925598	
2	53.4243528842926	fix_post	2		12	0.0	2.5	/experiments/Knapen_AOT/AOT_stimuli/rescaled_final/0954_fw.mp4	0.0	84.29281854629517	0.10009646415710449
3	53.52444934844971	fix_pre	0		120	1.0	2.5	/experiments/Knapen_AOT/AOT_stimuli/rescaled_final/1146_fw.mp4	0.0	84.39291501045227	1.0084290504455566
3	54.108174562454224	pulse	0	t		1.0	2.5	/experiments/Knapen_AOT/AOT_stimuli/rescaled_final/1146_fw.mp4	0.0	84.97664022445679	
3	54.532878398895264	movie	1		283	1.0	2.5	/experiments/Knapen_AOT/AOT_stimuli/rescaled_final/1146_fw.mp4	0.0	85.40134406089783	2.492112874984741
3	55.70620083808899	pulse	1	t		1.0	2.5	/experiments/Knapen_AOT/AOT_stimuli/rescaled_final/1146_fw.mp4	0.0	86.57466650009155	
3	57.024991273880005	fix_post	2		12	1.0	2.5	/experiments/Knapen_AOT/AOT_stimuli/rescaled_final/1146_fw.mp4	0.0	87.89345693588257	0.09993815422058105
4	57.124929428100586	fix_pre	0		120	2.0	2.5	/experiments/Knapen_AOT/AOT_stimuli/rescaled_final/1793_fw.mp4	0.0	87.99339509010315	1.0084969997406006
4	57.30880522727966	pulse	0	t		2.0	2.5	/experiments/Knapen_AOT/AOT_stimuli/rescaled_final/1793_fw.mp4	0.0	88.17727088928223	
4	58.13342642784119	movie	1		281	2.0	2.5	/experiments/Knapen_AOT/AOT_stimuli/rescaled_final/1793_fw.mp4	0.0	89.00189208984375	2.4920241832733154
4	58.906625509262085	pulse	1	t		2.0	2.5	/experiments/Knapen_AOT/AOT_stimuli/rescaled_final/1793_fw.mp4	0.0	89.77509117126465	
4	60.50697469711304	pulse	1	t		2.0	2.5	/experiments/Knapen_AOT/AOT_stimuli/rescaled_final/1793_fw.mp4	0.0	91.3754403591156	
4	60.6254506111145	fix_post	2		12	2.0	2.5	/experiments/Knapen_AOT/AOT_stimuli/rescaled_final/1793_fw.mp4	0.0	91.49391627311707	0.10005331039428711
5	60.72550392150879	fix_pre	0		120	3.0	2.5	/experiments/Knapen_AOT/AOT_stimuli/rescaled_final/0793_rv.mp4	0.0	91.59396958351135	1.0085422992706299
5	61.73404622077942	movie	1		274	3.0	2.5	/experiments/Knapen_AOT/AOT_stimuli/rescaled_final/0793_rv.mp4	0.0	92.60251188278198	2.4919421672821045
5	62.10783791542053	pulse	1	t		3.0	2.5	/experiments/Knapen_AOT/AOT_stimuli/rescaled_final/0793_rv.mp4	0.0	92.9763035774231	
5	63.70742988586426	pulse	1	t		3.0	2.5	/experiments/Knapen_AOT/AOT_stimuli/rescaled_final/0793_rv.mp4	0.0	94.57589554786682	
5	64.22598838806152	fix_post	2		12	3.0	2.5	/experiments/Knapen_AOT/AOT_stimuli/rescaled_final/0793_rv.mp4	0.0	95.09445405006409	0.10001158714294434
6	64.32599997520447	fix_pre	0		119	4.0	2.5	/experiments/Knapen_AOT/AOT_stimuli/rescaled_final/1701_rv.mp4	0.0	95.19446563720703	1.0001468658447266
6	65.30970692634583	pulse	0	t		4.0	2.5	/experiments/Knapen_AOT/AOT_stimuli/rescaled_final/1701_rv.mp4	0.0	96.17817258834839	
6	65.3261468410492	movie	1		290	4.0	2.5	/experiments/Knapen_AOT/AOT_stimuli/rescaled_final/1701_rv.mp4	0.0	96.19461250305176	2.500394344329834
6	66.90905547142029	pulse	1	t		4.0	2.5	/experiments/Knapen_AOT/AOT_stimuli/rescaled_final/1701_rv.mp4	0.0	97.77752113342285	
6	67.82654118537903	fix_post	2		12	4.0	2.5	/experiments/Knapen_AOT/AOT_stimuli/rescaled_final/1701_rv.mp4	0.0	98.69500684738159	0.10004162788391113
7	67.92658281326294	fix_pre	0		120	5.0	2.5	blank	1.0	98.7950484752655	1.0001029968261719
7	68.51012754440308	pulse	0	t		5.0	2.5	blank	1.0	99.37859320640564	
7	68.92668581008911	movie	1		300	5.0	2.5	blank	1.0	99.79515147209167	2.500380516052246
7	70.11061406135559	pulse	1	t		5.0	2.5	blank	1.0	100.97907972335815	
7	71.42706632614136	fix_post	2		12	5.0	2.5	blank	1.0	102.29553198814392	0.1000981330871582
8	71.52716445922852	fix_pre	0		120	6.0	2.5	/experiments/Knapen_AOT/AOT_stimuli/rescaled_final/0718_fw.mp4	0.0	102.39563012123108	1.0084514617919922
8	71.71066331863403	pulse	0	t		6.0	2.5	/experiments/Knapen_AOT/AOT_stimuli/rescaled_final/0718_fw.mp4	0.0	102.5791289806366	
8	72.53561592102051	movie	1		280	6.0	2.5	/experiments/Knapen_AOT/AOT_stimuli/rescaled_final/0718_fw.mp4	0.0	103.40408158302307	2.492076873779297
8	73.30879831314087	pulse	1	t		6.0	2.5	/experiments/Knapen_AOT/AOT_stimuli/rescaled_final/0718_fw.mp4	0.0	104.17726397514343	
8	74.90915513038635	pulse	1	t		6.0	2.5	/experiments/Knapen_AOT/AOT_stimuli/rescaled_final/0718_fw.mp4	0.0	105.77762079238892	
8	75.0276927947998	fix_post	2		12	6.0	2.5	/experiments/Knapen_AOT/AOT_stimuli/rescaled_final/0718_fw.mp4	0.0	105.89615845680237	0.0999448299407959
9	75.1276376247406	fix_pre	0		120	7.0	2.5	/experiments/Knapen_AOT/AOT_stimuli/rescaled_final/0005_fw.mp4	0.0	105.99610328674316	1.0085077285766602
9	76.13614535331726	movie	1		280	7.0	2.5	/experiments/Knapen_AOT/AOT_stimuli/rescaled_final/0005_fw.mp4	0.0	107.00461101531982	2.492064952850342
9	76.50971174240112	pulse	1	t		7.0	2.5	/experiments/Knapen_AOT/AOT_stimuli/rescaled_final/0005_fw.mp4	0.0	107.37817740440369	
9	78.10950970649719	pulse	1	t		7.0	2.5	/experiments/Knapen_AOT/AOT_stimuli/rescaled_final/0005_fw.mp4	0.0	108.97797536849976	
9	78.6282103061676	fix_post	2		12	7.0	2.5	/experiments/Knapen_AOT/AOT_stimuli/rescaled_final/0005_fw.mp4	0.0	109.49667596817017	0.09996581077575684
10	78.72817611694336	fix_pre	0		119	8.0	2.5	/experiments/Knapen_AOT/AOT_stimuli/rescaled_final/0931_fw.mp4	0.0	109.59664177894592	1.0002546310424805
10	79.71186375617981	pulse	0	t		8.0	2.5	/experiments/Knapen_AOT/AOT_stimuli/rescaled_final/0931_fw.mp4	0.0	110.58032941818237	
10	79.72843074798584	movie	1		283	8.0	2.5	/experiments/Knapen_AOT/AOT_stimuli/rescaled_final/0931_fw.mp4	0.0	110.5968964099884	2.5003345012664795
10	81.31040692329407	pulse	1	t		8.0	2.5	/experiments/Knapen_AOT/AOT_stimuli/rescaled_final/0931_fw.mp4	0.0	112.17887258529663	
10	82.22876524925232	fix_post	2		12	8.0	2.5	/experiments/Knapen_AOT/AOT_stimuli/rescaled_final/0931_fw.mp4	0.0	113.09723091125488	0.10003662109375
11	82.32880187034607	fix_pre	0		120	9.0	2.5	/experiments/Knapen_AOT/AOT_stimuli/rescaled_final/0215_fw.mp4	0.0	113.19726753234863	1.008432388305664
11	82.91246771812439	pulse	0	t		9.0	2.5	/experiments/Knapen_AOT/AOT_stimuli/rescaled_final/0215_fw.mp4	0.0	113.78093338012695	
11	83.33723425865173	movie	1		283	9.0	2.5	/experiments/Knapen_AOT/AOT_stimuli/rescaled_final/0215_fw.mp4	0.0	114.2056999206543	2.491992473602295
11	84.5109748840332	pulse	1	t		9.0	2.5	/experiments/Knapen_AOT/AOT_stimuli/rescaled_final/0215_fw.mp4	0.0	115.37944054603577	
11	85.82922673225403	fix_post	2		12	9.0	2.5	/experiments/Knapen_AOT/AOT_stimuli/rescaled_final/0215_fw.mp4	0.0	116.69769239425659	0.1000211238861084
12	85.92924785614014	fix_pre	0		120	10.0	2.5	/experiments/Knapen_AOT/AOT_stimuli/rescaled_final/1329_fw.mp4	0.0	116.7977135181427	1.0085618495941162
12	86.10568857192993	pulse	0	t		10.0	2.5	/experiments/Knapen_AOT/AOT_stimuli/rescaled_final/1329_fw.mp4	0.0	116.9741542339325	
12	86.93780970573425	movie	1		286	10.0	2.5	/experiments/Knapen_AOT/AOT_stimuli/rescaled_final/1329_fw.mp4	0.0	117.80627536773682	2.491973638534546
12	87.70594120025635	pulse	1	t		10.0	2.5	/experiments/Knapen_AOT/AOT_stimuli/rescaled_final/1329_fw.mp4	0.0	118.57440686225891	
12	89.30504941940308	pulse	1	t		10.0	2.5	/experiments/Knapen_AOT/AOT_stimuli/rescaled_final/1329_fw.mp4	0.0	120.17351508140564	
12	89.4297833442688	fix_post	2		12	10.0	2.5	/experiments/Knapen_AOT/AOT_stimuli/rescaled_final/1329_fw.mp4	0.0	120.29824900627136	0.10015106201171875
13	89.52993440628052	fix_pre	0		120	11.0	2.5	/experiments/Knapen_AOT/AOT_stimuli/rescaled_final/0602_fw.mp4	0.0	120.39840006828308	1.0084049701690674
13	90.53833937644958	movie	1		284	11.0	2.5	/experiments/Knapen_AOT/AOT_stimuli/rescaled_final/0602_fw.mp4	0.0	121.40680503845215	2.500333070755005
13	90.90579676628113	pulse	1	t		11.0	2.5	/experiments/Knapen_AOT/AOT_stimuli/rescaled_final/0602_fw.mp4	0.0	121.77426242828369	
13	92.50541424751282	pulse	1	t		11.0	2.5	/experiments/Knapen_AOT/AOT_stimuli/rescaled_final/0602_fw.mp4	0.0	123.37387990951538	
13	93.03867244720459	fix_post	2		11	11.0	2.5	/experiments/Knapen_AOT/AOT_stimuli/rescaled_final/0602_fw.mp4	0.0	123.90713810920715	0.09170103073120117
14	93.13037347793579	fix_pre	0		118	12.0	2.5	/experiments/Knapen_AOT/AOT_stimuli/rescaled_final/0203_rv.mp4	0.0	123.99883913993835	0.9918107986450195
14	94.1058714389801	pulse	0	t		12.0	2.5	/experiments/Knapen_AOT/AOT_stimuli/rescaled_final/0203_rv.mp4	0.0	124.97433710098267	
14	94.12218427658081	movie	1		289	12.0	2.5	/experiments/Knapen_AOT/AOT_stimuli/rescaled_final/0203_rv.mp4	0.0	124.99064993858337	2.5003700256347656
14	95.70601058006287	pulse	1	t		12.0	2.5	/experiments/Knapen_AOT/AOT_stimuli/rescaled_final/0203_rv.mp4	0.0	126.57447624206543	
14	96.62255430221558	fix_post	2		12	12.0	2.5	/experiments/Knapen_AOT/AOT_stimuli/rescaled_final/0203_rv.mp4	0.0	127.49101996421814	0.10004425048828125
15	96.72259855270386	fix_pre	0		120	13.0	2.5	blank	1.0	127.59106421470642	1.0001633167266846
15	97.30610203742981	pulse	0	t		13.0	2.5	blank	1.0	128.17456769943237	
15	97.72276186943054	movie	1		300	13.0	2.5	blank	1.0	128.5912275314331	2.5003015995025635
15	98.90636205673218	pulse	1	t		13.0	2.5	blank	1.0	129.77482771873474	
15	100.2230634689331	fix_post	2		12	13.0	2.5	blank	1.0	131.09152913093567	0.10003495216369629
16	100.3230984210968	fix_pre	0		120	14.0	2.5	/experiments/Knapen_AOT/AOT_stimuli/rescaled_final/0394_fw.mp4	0.0	131.19156408309937	1.0085058212280273
16	100.50664591789246	pulse	0	t		14.0	2.5	/experiments/Knapen_AOT/AOT_stimuli/rescaled_final/0394_fw.mp4	0.0	131.37511157989502	
16	101.33160424232483	movie	1		283	14.0	2.5	/experiments/Knapen_AOT/AOT_stimuli/rescaled_final/0394_fw.mp4	0.0	132.2000699043274	2.4920151233673096
16	102.10515403747559	pulse	1	t		14.0	2.5	/experiments/Knapen_AOT/AOT_stimuli/rescaled_final/0394_fw.mp4	0.0	132.97361969947815	
16	103.70540881156921	pulse	1	t		14.0	2.5	/experiments/Knapen_AOT/AOT_stimuli/rescaled_final/0394_fw.mp4	0.0	134.57387447357178	
16	103.82361936569214	fix_post	2		12	14.0	2.5	/experiments/Knapen_AOT/AOT_stimuli/rescaled_final/0394_fw.mp4	0.0	134.6920850276947	0.10001230239868164
17	103.92363166809082	fix_pre	0		120	15.0	2.5	/experiments/Knapen_AOT/AOT_stimuli/rescaled_final/2143_fw.mp4	0.0	134.79209733009338	1.008519172668457
17	104.93215084075928	movie	1		284	15.0	2.5	/experiments/Knapen_AOT/AOT_stimuli/rescaled_final/2143_fw.mp4	0.0	135.80061650276184	2.5004074573516846
17	105.30596566200256	pulse	1	t		15.0	2.5	/experiments/Knapen_AOT/AOT_stimuli/rescaled_final/2143_fw.mp4	0.0	136.17443132400513	
17	106.90577411651611	pulse	1	t		15.0	2.5	/experiments/Knapen_AOT/AOT_stimuli/rescaled_final/2143_fw.mp4	0.0	137.77423977851868	
17	107.43255829811096	fix_post	2		11	15.0	2.5	/experiments/Knapen_AOT/AOT_stimuli/rescaled_final/2143_fw.mp4	0.0	138.30102396011353	0.09176015853881836
18	107.52431845664978	fix_pre	0		119	16.0	2.5	/experiments/Knapen_AOT/AOT_stimuli/rescaled_final/1772_fw.mp4	0.0	138.39278411865234	1.0000214576721191
18	108.50781726837158	pulse	0	t		16.0	2.5	/experiments/Knapen_AOT/AOT_stimuli/rescaled_final/1772_fw.mp4	0.0	139.37628293037415	
18	108.5243399143219	movie	1		287	16.0	2.5	/experiments/Knapen_AOT/AOT_stimuli/rescaled_final/1772_fw.mp4	0.0	139.39280557632446	2.500392198562622
18	110.10673356056213	pulse	1	t		16.0	2.5	/experiments/Knapen_AOT/AOT_stimuli/rescaled_final/1772_fw.mp4	0.0	140.9751992225647	
18	111.02473211288452	fix_post	2		12	16.0	2.5	/experiments/Knapen_AOT/AOT_stimuli/rescaled_final/1772_fw.mp4	0.0	141.89319777488708	0.09998679161071777
19	111.12471890449524	fix_pre	0		120	17.0	2.5	/experiments/Knapen_AOT/AOT_stimuli/rescaled_final/0692_fw.mp4	0.0	141.9931845664978	1.0084888935089111
19	111.70839524269104	pulse	0	t		17.0	2.5	/experiments/Knapen_AOT/AOT_stimuli/rescaled_final/0692_fw.mp4	0.0	142.5768609046936	
19	112.13320779800415	movie	1		289	17.0	2.5	/experiments/Knapen_AOT/AOT_stimuli/rescaled_final/0692_fw.mp4	0.0	143.0016734600067	2.4920647144317627
19	113.30775952339172	pulse	1	t		17.0	2.5	/experiments/Knapen_AOT/AOT_stimuli/rescaled_final/0692_fw.mp4	0.0	144.1762251853943	
19	114.62527251243591	fix_post	2		12	17.0	2.5	/experiments/Knapen_AOT/AOT_stimuli/rescaled_final/0692_fw.mp4	0.0	145.49373817443848	0.09999632835388184
20	114.7252688407898	fix_pre	0		120	18.0	2.5	/experiments/Knapen_AOT/AOT_stimuli/rescaled_final/0198_fw.mp4	0.0	145.59373450279236	1.0084936618804932
20	114.90890884399414	pulse	0	t		18.0	2.5	/experiments/Knapen_AOT/AOT_stimuli/rescaled_final/0198_fw.mp4	0.0	145.7773745059967	
20	115.73376250267029	movie	1		283	18.0	2.5	/experiments/Knapen_AOT/AOT_stimuli/rescaled_final/0198_fw.mp4	0.0	146.60222816467285	2.492013692855835
20	116.50935530662537	pulse	1	t		18.0	2.5	/experiments/Knapen_AOT/AOT_stimuli/rescaled_final/0198_fw.mp4	0.0	147.37782096862793	
20	118.10760974884033	pulse	1	t		18.0	2.5	/experiments/Knapen_AOT/AOT_stimuli/rescaled_final/0198_fw.mp4	0.0	148.9760754108429	
20	118.22577619552612	fix_post	2		12	18.0	2.5	/experiments/Knapen_AOT/AOT_stimuli/rescaled_final/0198_fw.mp4	0.0	149.0942418575287	0.10003256797790527
21	118.32580876350403	fix_pre	0		120	19.0	2.5	/experiments/Knapen_AOT/AOT_stimuli/rescaled_final/0955_fw.mp4	0.0	149.1942744255066	1.008476972579956
21	119.33428573608398	movie	1		283	19.0	2.5	/experiments/Knapen_AOT/AOT_stimuli/rescaled_final/0955_fw.mp4	0.0	150.20275139808655	2.4921457767486572
21	119.70845103263855	pulse	1	t		19.0	2.5	/experiments/Knapen_AOT/AOT_stimuli/rescaled_final/0955_fw.mp4	0.0	150.5769166946411	
21	121.3079833984375	pulse	1	t		19.0	2.5	/experiments/Knapen_AOT/AOT_stimuli/rescaled_final/0955_fw.mp4	0.0	152.17644906044006	
21	121.82643151283264	fix_post	2		12	19.0	2.5	/experiments/Knapen_AOT/AOT_stimuli/rescaled_final/0955_fw.mp4	0.0	152.6948971748352	0.10001897811889648
22	121.92645049095154	fix_pre	0		119	20.0	2.5	blank	1.0	152.7949161529541	0.9917240142822266
22	122.9100091457367	pulse	0	t		20.0	2.5	blank	1.0	153.77847480773926	
22	122.91817450523376	movie	1		301	20.0	2.5	blank	1.0	153.78664016723633	2.5087013244628906
22	124.51024913787842	pulse	1	t		20.0	2.5	blank	1.0	155.37871479988098	
22	125.42687582969666	fix_post	2		12	20.0	2.5	blank	1.0	156.29534149169922	0.1000051498413086
23	125.52688097953796	fix_pre	0		120	21.0	2.5	/experiments/Knapen_AOT/AOT_stimuli/rescaled_final/0277_rv.mp4	0.0	156.39534664154053	1.0085065364837646
23	126.11060357093811	pulse	0	t		21.0	2.5	/experiments/Knapen_AOT/AOT_stimuli/rescaled_final/0277_rv.mp4	0.0	156.97906923294067	
23	126.53538751602173	movie	1		291	21.0	2.5	/experiments/Knapen_AOT/AOT_stimuli/rescaled_final/0277_rv.mp4	0.0	157.4038531780243	2.4920573234558105
23	127.70880055427551	pulse	1	t		21.0	2.5	/experiments/Knapen_AOT/AOT_stimuli/rescaled_final/0277_rv.mp4	0.0	158.57726621627808	
23	129.02744483947754	fix_post	2		12	21.0	2.5	/experiments/Knapen_AOT/AOT_stimuli/rescaled_final/0277_rv.mp4	0.0	159.8959105014801	0.10002994537353516
24	129.12747478485107	fix_pre	0		120	22.0	2.5	/experiments/Knapen_AOT/AOT_stimuli/rescaled_final/1313_fw.mp4	0.0	159.99594044685364	1.0084424018859863
24	129.31102895736694	pulse	0	t		22.0	2.5	/experiments/Knapen_AOT/AOT_stimuli/rescaled_final/1313_fw.mp4	0.0	160.1794946193695	
24	130.13591718673706	movie	1		278	22.0	2.5	/experiments/Knapen_AOT/AOT_stimuli/rescaled_final/1313_fw.mp4	0.0	161.00438284873962	2.492029905319214
24	130.9091329574585	pulse	1	t		22.0	2.5	/experiments/Knapen_AOT/AOT_stimuli/rescaled_final/1313_fw.mp4	0.0	161.77759861946106	
24	132.50964069366455	pulse	1	t		22.0	2.5	/experiments/Knapen_AOT/AOT_stimuli/rescaled_final/1313_fw.mp4	0.0	163.37810635566711	
24	132.62794709205627	fix_post	2		12	22.0	2.5	/experiments/Knapen_AOT/AOT_stimuli/rescaled_final/1313_fw.mp4	0.0	163.49641275405884	0.10004901885986328
25	132.72799611091614	fix_pre	0		120	23.0	2.5	/experiments/Knapen_AOT/AOT_stimuli/rescaled_final/1154_fw.mp4	0.0	163.5964617729187	1.0084736347198486
25	133.736469745636	movie	1		279	23.0	2.5	/experiments/Knapen_AOT/AOT_stimuli/rescaled_final/1154_fw.mp4	0.0	164.60493540763855	2.4920361042022705
25	134.11012315750122	pulse	1	t		23.0	2.5	/experiments/Knapen_AOT/AOT_stimuli/rescaled_final/1154_fw.mp4	0.0	164.97858881950378	
25	135.71006751060486	pulse	1	t		23.0	2.5	/experiments/Knapen_AOT/AOT_stimuli/rescaled_final/1154_fw.mp4	0.0	166.57853317260742	
25	136.22850584983826	fix_post	2		12	23.0	2.5	/experiments/Knapen_AOT/AOT_stimuli/rescaled_final/1154_fw.mp4	0.0	167.09697151184082	0.10000252723693848
26	136.3285083770752	fix_pre	0		119	24.0	2.5	/experiments/Knapen_AOT/AOT_stimuli/rescaled_final/1150_fw.mp4	0.0	167.19697403907776	1.0002295970916748
26	137.31221747398376	pulse	0	t		24.0	2.5	/experiments/Knapen_AOT/AOT_stimuli/rescaled_final/1150_fw.mp4	0.0	168.18068313598633	
26	137.32873797416687	movie	1		283	24.0	2.5	/experiments/Knapen_AOT/AOT_stimuli/rescaled_final/1150_fw.mp4	0.0	168.19720363616943	2.5002927780151367
26	138.911052942276	pulse	1	t		24.0	2.5	/experiments/Knapen_AOT/AOT_stimuli/rescaled_final/1150_fw.mp4	0.0	169.77951860427856	
26	139.829030752182	fix_post	2		12	24.0	2.5	/experiments/Knapen_AOT/AOT_stimuli/rescaled_final/1150_fw.mp4	0.0	170.69749641418457	0.10003900527954102
27	139.92906975746155	fix_pre	0		120	25.0	2.5	/experiments/Knapen_AOT/AOT_stimuli/rescaled_final/0057_fw.mp4	0.0	170.7975354194641	1.0084822177886963
27	140.51265335083008	pulse	0	t		25.0	2.5	/experiments/Knapen_AOT/AOT_stimuli/rescaled_final/0057_fw.mp4	0.0	171.38111901283264	
27	140.93755197525024	movie	1		280	25.0	2.5	/experiments/Knapen_AOT/AOT_stimuli/rescaled_final/0057_fw.mp4	0.0	171.8060176372528	2.492044687271118
27	142.1109402179718	pulse	1	t		25.0	2.5	/experiments/Knapen_AOT/AOT_stimuli/rescaled_final/0057_fw.mp4	0.0	172.97940587997437	
27	143.42959666252136	fix_post	2		12	25.0	2.5	/experiments/Knapen_AOT/AOT_stimuli/rescaled_final/0057_fw.mp4	0.0	174.29806232452393	0.10000753402709961
28	143.52960419654846	fix_pre	0		120	26.0	2.5	/experiments/Knapen_AOT/AOT_stimuli/rescaled_final/0172_rv.mp4	0.0	174.39806985855103	1.008523941040039
28	143.70525741577148	pulse	0	t		26.0	2.5	/experiments/Knapen_AOT/AOT_stimuli/rescaled_final/0172_rv.mp4	0.0	174.57372307777405	
28	144.5381281375885	movie	1		273	26.0	2.5	/experiments/Knapen_AOT/AOT_stimuli/rescaled_final/0172_rv.mp4	0.0	175.40659379959106	2.492006301879883
28	145.30553102493286	pulse	1	t		26.0	2.5	/experiments/Knapen_AOT/AOT_stimuli/rescaled_final/0172_rv.mp4	0.0	176.17399668693542	
28	146.90543365478516	pulse	1	t		26.0	2.5	/experiments/Knapen_AOT/AOT_stimuli/rescaled_final/0172_rv.mp4	0.0	177.77389931678772	
28	147.03013443946838	fix_post	2		12	26.0	2.5	/experiments/Knapen_AOT/AOT_stimuli/rescaled_final/0172_rv.mp4	0.0	177.89860010147095	0.09998202323913574
29	147.13011646270752	fix_pre	0		120	27.0	2.5	/experiments/Knapen_AOT/AOT_stimuli/rescaled_final/1909_rv.mp4	0.0	177.99858212471008	1.0084993839263916
29	148.1386158466339	movie	1		294	27.0	2.5	/experiments/Knapen_AOT/AOT_stimuli/rescaled_final/1909_rv.mp4	0.0	179.00708150863647	2.4920177459716797
29	148.5055718421936	pulse	1	t		27.0	2.5	/experiments/Knapen_AOT/AOT_stimuli/rescaled_final/1909_rv.mp4	0.0	179.37403750419617	
29	150.1057391166687	pulse	1	t		27.0	2.5	/experiments/Knapen_AOT/AOT_stimuli/rescaled_final/1909_rv.mp4	0.0	180.97420477867126	
29	150.6306335926056	fix_post	2		12	27.0	2.5	/experiments/Knapen_AOT/AOT_stimuli/rescaled_final/1909_rv.mp4	0.0	181.49909925460815	0.10006523132324219
30	150.73069882392883	fix_pre	0		118	28.0	2.5	blank	1.0	181.5991644859314	0.9834251403808594
30	151.70596432685852	pulse	0	t		28.0	2.5	blank	1.0	182.57442998886108	
30	151.7141239643097	movie	1		301	28.0	2.5	blank	1.0	182.58258962631226	2.5087294578552246
30	153.3065149784088	pulse	1	t		28.0	2.5	blank	1.0	184.17498064041138	
30	154.22285342216492	fix_post	2		12	28.0	2.5	blank	1.0	185.09131908416748	0.1000056266784668
31	154.32285904884338	fix_pre	0		120	29.0	2.5	/experiments/Knapen_AOT/AOT_stimuli/rescaled_final/1370_fw.mp4	0.0	185.19132471084595	1.0001420974731445
31	154.9065260887146	pulse	0	t		29.0	2.5	/experiments/Knapen_AOT/AOT_stimuli/rescaled_final/1370_fw.mp4	0.0	185.77499175071716	
31	155.32300114631653	movie	1		292	29.0	2.5	/experiments/Knapen_AOT/AOT_stimuli/rescaled_final/1370_fw.mp4	0.0	186.1914668083191	2.50041127204895
31	156.50670313835144	pulse	1	t		29.0	2.5	/experiments/Knapen_AOT/AOT_stimuli/rescaled_final/1370_fw.mp4	0.0	187.375168800354	
31	157.82341241836548	fix_post	2		12	29.0	2.5	/experiments/Knapen_AOT/AOT_stimuli/rescaled_final/1370_fw.mp4	0.0	188.69187808036804	0.10000324249267578
32	157.92341566085815	fix_pre	0		120	30.0	2.5	/experiments/Knapen_AOT/AOT_stimuli/rescaled_final/0848_fw.mp4	0.0	188.79188132286072	1.008486032485962
32	158.10691571235657	pulse	0	t		30.0	2.5	/experiments/Knapen_AOT/AOT_stimuli/rescaled_final/0848_fw.mp4	0.0	188.97538137435913	
32	158.93190169334412	movie	1		287	30.0	2.5	/experiments/Knapen_AOT/AOT_stimuli/rescaled_final/0848_fw.mp4	0.0	189.80036735534668	2.4921011924743652
32	159.70714497566223	pulse	1	t		30.0	2.5	/experiments/Knapen_AOT/AOT_stimuli/rescaled_final/0848_fw.mp4	0.0	190.5756106376648	
32	161.30747604370117	pulse	1	t		30.0	2.5	/experiments/Knapen_AOT/AOT_stimuli/rescaled_final/0848_fw.mp4	0.0	192.17594170570374	
32	161.42400288581848	fix_post	2		12	30.0	2.5	/experiments/Knapen_AOT/AOT_stimuli/rescaled_final/0848_fw.mp4	0.0	192.29246854782104	0.09994029998779297
33	161.52394318580627	fix_pre	0		120	31.0	2.5	/experiments/Knapen_AOT/AOT_stimuli/rescaled_final/0232_rv.mp4	0.0	192.39240884780884	1.0085561275482178
33	162.5324993133545	movie	1		293	31.0	2.5	/experiments/Knapen_AOT/AOT_stimuli/rescaled_final/0232_rv.mp4	0.0	193.40096497535706	2.4919722080230713
33	162.90764355659485	pulse	1	t		31.0	2.5	/experiments/Knapen_AOT/AOT_stimuli/rescaled_final/0232_rv.mp4	0.0	193.7761092185974	
33	164.50783514976501	pulse	1	t		31.0	2.5	/experiments/Knapen_AOT/AOT_stimuli/rescaled_final/0232_rv.mp4	0.0	195.37630081176758	
33	165.02447152137756	fix_post	2		12	31.0	2.5	/experiments/Knapen_AOT/AOT_stimuli/rescaled_final/0232_rv.mp4	0.0	195.89293718338013	0.10001945495605469
34	165.12449097633362	fix_pre	0		119	32.0	2.5	/experiments/Knapen_AOT/AOT_stimuli/rescaled_final/1156_rv.mp4	0.0	195.99295663833618	1.000260829925537
34	166.1081783771515	pulse	0	t		32.0	2.5	/experiments/Knapen_AOT/AOT_stimuli/rescaled_final/1156_rv.mp4	0.0	196.97664403915405	
34	166.12475180625916	movie	1		295	32.0	2.5	/experiments/Knapen_AOT/AOT_stimuli/rescaled_final/1156_rv.mp4	0.0	196.99321746826172	2.500251054763794
34	167.70838379859924	pulse	1	t		32.0	2.5	/experiments/Knapen_AOT/AOT_stimuli/rescaled_final/1156_rv.mp4	0.0	198.5768494606018	
34	168.62500286102295	fix_post	2		12	32.0	2.5	/experiments/Knapen_AOT/AOT_stimuli/rescaled_final/1156_rv.mp4	0.0	199.4934685230255	0.1000826358795166
35	168.72508549690247	fix_pre	0		120	33.0	2.5	blank	1.0	199.59355115890503	1.0000991821289062
35	169.30864238739014	pulse	0	t		33.0	2.5	blank	1.0	200.1771080493927	
35	169.72518467903137	movie	1		300	33.0	2.5	blank	1.0	200.59365034103394	2.500393867492676
35	170.9088830947876	pulse	1	t		33.0	2.5	blank	1.0	201.77734875679016	
35	172.22557854652405	fix_post	2		12	33.0	2.5	blank	1.0	203.0940442085266	0.1000521183013916
36	172.32563066482544	fix_pre	0		120	34.0	2.5	/experiments/Knapen_AOT/AOT_stimuli/rescaled_final/0954_rv.mp4	0.0	203.194096326828	1.0084500312805176
36	172.50917029380798	pulse	0	t		34.0	2.5	/experiments/Knapen_AOT/AOT_stimuli/rescaled_final/0954_rv.mp4	0.0	203.37763595581055	
36	173.33408069610596	movie	1		288	34.0	2.5	/experiments/Knapen_AOT/AOT_stimuli/rescaled_final/0954_rv.mp4	0.0	204.20254635810852	2.4920668601989746
36	174.10712957382202	pulse	1	t		34.0	2.5	/experiments/Knapen_AOT/AOT_stimuli/rescaled_final/0954_rv.mp4	0.0	204.97559523582458	
36	175.70770740509033	pulse	1	t		34.0	2.5	/experiments/Knapen_AOT/AOT_stimuli/rescaled_final/0954_rv.mp4	0.0	206.5761730670929	
36	175.82614755630493	fix_post	2		12	34.0	2.5	/experiments/Knapen_AOT/AOT_stimuli/rescaled_final/0954_rv.mp4	0.0	206.6946132183075	0.09999871253967285
37	175.9261462688446	fix_pre	0		120	35.0	2.5	/experiments/Knapen_AOT/AOT_stimuli/rescaled_final/0296_rv.mp4	0.0	206.79461193084717	1.0085318088531494
37	176.93467807769775	movie	1		273	35.0	2.5	/experiments/Knapen_AOT/AOT_stimuli/rescaled_final/0296_rv.mp4	0.0	207.80314373970032	2.491982936859131
37	177.3079640865326	pulse	1	t		35.0	2.5	/experiments/Knapen_AOT/AOT_stimuli/rescaled_final/0296_rv.mp4	0.0	208.17642974853516	
37	178.91000294685364	pulse	1	t		35.0	2.5	/experiments/Knapen_AOT/AOT_stimuli/rescaled_final/0296_rv.mp4	0.0	209.7784686088562	
37	179.42666101455688	fix_post	2		12	35.0	2.5	/experiments/Knapen_AOT/AOT_stimuli/rescaled_final/0296_rv.mp4	0.0	210.29512667655945	0.10003280639648438
38	179.52669382095337	fix_pre	0		119	36.0	2.5	/experiments/Knapen_AOT/AOT_stimuli/rescaled_final/0516_fw.mp4	0.0	210.39515948295593	1.0001637935638428
38	180.51050734519958	pulse	0	t		36.0	2.5	/experiments/Knapen_AOT/AOT_stimuli/rescaled_final/0516_fw.mp4	0.0	211.37897300720215	
38	180.5268576145172	movie	1		282	36.0	2.5	/experiments/Knapen_AOT/AOT_stimuli/rescaled_final/0516_fw.mp4	0.0	211.39532327651978	2.5003316402435303
38	182.1108603477478	pulse	1	t		36.0	2.5	/experiments/Knapen_AOT/AOT_stimuli/rescaled_final/0516_fw.mp4	0.0	212.97932600975037	
38	183.02718925476074	fix_post	2		12	36.0	2.5	/experiments/Knapen_AOT/AOT_stimuli/rescaled_final/0516_fw.mp4	0.0	213.8956549167633	0.10003018379211426
39	183.12721943855286	fix_pre	0		120	37.0	2.5	/experiments/Knapen_AOT/AOT_stimuli/rescaled_final/2158_rv.mp4	0.0	213.99568510055542	1.0084764957427979
39	183.71086025238037	pulse	0	t		37.0	2.5	/experiments/Knapen_AOT/AOT_stimuli/rescaled_final/2158_rv.mp4	0.0	214.57932591438293	
39	184.13569593429565	movie	1		288	37.0	2.5	/experiments/Knapen_AOT/AOT_stimuli/rescaled_final/2158_rv.mp4	0.0	215.00416159629822	2.4920692443847656
39	185.30945491790771	pulse	1	t		37.0	2.5	/experiments/Knapen_AOT/AOT_stimuli/rescaled_final/2158_rv.mp4	0.0	216.17792057991028	
39	186.62776517868042	fix_post	2		12	37.0	2.5	/experiments/Knapen_AOT/AOT_stimuli/rescaled_final/2158_rv.mp4	0.0	217.49623084068298	0.10001206398010254
40	186.72777724266052	fix_pre	0		120	38.0	2.5	/experiments/Knapen_AOT/AOT_stimuli/rescaled_final/1156_fw.mp4	0.0	217.5962429046631	1.0084865093231201
40	186.91131281852722	pulse	0	t		38.0	2.5	/experiments/Knapen_AOT/AOT_stimuli/rescaled_final/1156_fw.mp4	0.0	217.77977848052979	
40	187.73626375198364	movie	1		282	38.0	2.5	/experiments/Knapen_AOT/AOT_stimuli/rescaled_final/1156_fw.mp4	0.0	218.6047294139862	2.4920144081115723
40	188.50937819480896	pulse	1	t		38.0	2.5	/experiments/Knapen_AOT/AOT_stimuli/rescaled_final/1156_fw.mp4	0.0	219.37784385681152	
40	190.110009431839	pulse	1	t		38.0	2.5	/experiments/Knapen_AOT/AOT_stimuli/rescaled_final/1156_fw.mp4	0.0	220.97847509384155	
40	190.22827816009521	fix_post	2		12	38.0	2.5	/experiments/Knapen_AOT/AOT_stimuli/rescaled_final/1156_fw.mp4	0.0	221.09674382209778	0.10004329681396484
41	190.32832145690918	fix_pre	0		120	39.0	2.5	/experiments/Knapen_AOT/AOT_stimuli/rescaled_final/0446_fw.mp4	0.0	221.19678711891174	1.0084888935089111
41	191.3368103504181	movie	1		277	39.0	2.5	/experiments/Knapen_AOT/AOT_stimuli/rescaled_final/0446_fw.mp4	0.0	222.20527601242065	2.4920361042022705
41	191.71033382415771	pulse	1	t		39.0	2.5	/experiments/Knapen_AOT/AOT_stimuli/rescaled_final/0446_fw.mp4	0.0	222.57879948616028	
41	193.31002140045166	pulse	1	t		39.0	2.5	/experiments/Knapen_AOT/AOT_stimuli/rescaled_final/0446_fw.mp4	0.0	224.17848706245422	
41	193.82884645462036	fix_post	2		12	39.0	2.5	/experiments/Knapen_AOT/AOT_stimuli/rescaled_final/0446_fw.mp4	0.0	224.69731211662292	0.1000213623046875
42	193.92886781692505	fix_pre	0		119	40.0	2.5	/experiments/Knapen_AOT/AOT_stimuli/rescaled_final/2059_fw.mp4	0.0	224.7973334789276	1.0001988410949707
42	194.91273069381714	pulse	0	t		40.0	2.5	/experiments/Knapen_AOT/AOT_stimuli/rescaled_final/2059_fw.mp4	0.0	225.7811963558197	
42	194.92906665802002	movie	1		273	40.0	2.5	/experiments/Knapen_AOT/AOT_stimuli/rescaled_final/2059_fw.mp4	0.0	225.79753232002258	2.500314474105835
42	196.5122845172882	pulse	1	t		40.0	2.5	/experiments/Knapen_AOT/AOT_stimuli/rescaled_final/2059_fw.mp4	0.0	227.38075017929077	
42	197.42938113212585	fix_post	2		12	40.0	2.5	/experiments/Knapen_AOT/AOT_stimuli/rescaled_final/2059_fw.mp4	0.0	228.29784679412842	0.10002994537353516
43	197.5294110774994	fix_pre	0		120	41.0	2.5	blank	1.0	228.39787673950195	1.0001201629638672
43	198.1130518913269	pulse	0	t		41.0	2.5	blank	1.0	228.98151755332947	
43	198.52953124046326	movie	1		300	41.0	2.5	blank	1.0	229.39799690246582	2.500389814376831
43	199.71335530281067	pulse	1	t		41.0	2.5	blank	1.0	230.58182096481323	
43	201.0299210548401	fix_post	2		12	41.0	2.5	blank	1.0	231.89838671684265	0.10003352165222168
44	201.1299545764923	fix_pre	0		120	42.0	2.5	/experiments/Knapen_AOT/AOT_stimuli/rescaled_final/1545_rv.mp4	0.0	231.99842023849487	1.008615493774414
44	201.30719447135925	pulse	0	t		42.0	2.5	/experiments/Knapen_AOT/AOT_stimuli/rescaled_final/1545_rv.mp4	0.0	232.17566013336182	
44	202.13857007026672	movie	1		285	42.0	2.5	/experiments/Knapen_AOT/AOT_stimuli/rescaled_final/1545_rv.mp4	0.0	233.0070357322693	2.4919934272766113
44	202.9122200012207	pulse	1	t		42.0	2.5	/experiments/Knapen_AOT/AOT_stimuli/rescaled_final/1545_rv.mp4	0.0	233.78068566322327	
44	204.50593066215515	pulse	1	t		42.0	2.5	/experiments/Knapen_AOT/AOT_stimuli/rescaled_final/1545_rv.mp4	0.0	235.37439632415771	
44	204.63056349754333	fix_post	2		12	42.0	2.5	/experiments/Knapen_AOT/AOT_stimuli/rescaled_final/1545_rv.mp4	0.0	235.4990291595459	0.09990549087524414
45	204.73046898841858	fix_pre	0		120	43.0	2.5	/experiments/Knapen_AOT/AOT_stimuli/rescaled_final/1724_fw.mp4	0.0	235.59893465042114	1.0085046291351318
45	205.7389736175537	movie	1		284	43.0	2.5	/experiments/Knapen_AOT/AOT_stimuli/rescaled_final/1724_fw.mp4	0.0	236.60743927955627	2.492027759552002
45	206.10611701011658	pulse	1	t		43.0	2.5	/experiments/Knapen_AOT/AOT_stimuli/rescaled_final/1724_fw.mp4	0.0	236.97458267211914	
45	207.70612335205078	pulse	1	t		43.0	2.5	/experiments/Knapen_AOT/AOT_stimuli/rescaled_final/1724_fw.mp4	0.0	238.57458901405334	
45	208.2310013771057	fix_post	2		12	43.0	2.5	/experiments/Knapen_AOT/AOT_stimuli/rescaled_final/1724_fw.mp4	0.0	239.09946703910828	0.10001826286315918
46	208.33101963996887	fix_pre	0		118	44.0	2.5	/experiments/Knapen_AOT/AOT_stimuli/rescaled_final/2170_rv.mp4	0.0	239.19948530197144	0.9918174743652344
46	209.306414604187	pulse	0	t		44.0	2.5	/experiments/Knapen_AOT/AOT_stimuli/rescaled_final/2170_rv.mp4	0.0	240.17488026618958	
46	209.3228371143341	movie	1		283	44.0	2.5	/experiments/Knapen_AOT/AOT_stimuli/rescaled_final/2170_rv.mp4	0.0	240.19130277633667	2.5004494190216064
46	210.9067347049713	pulse	1	t		44.0	2.5	/experiments/Knapen_AOT/AOT_stimuli/rescaled_final/2170_rv.mp4	0.0	241.77520036697388	
46	211.8232865333557	fix_post	2		12	44.0	2.5	/experiments/Knapen_AOT/AOT_stimuli/rescaled_final/2170_rv.mp4	0.0	242.69175219535828	0.09992289543151855
47	211.92320942878723	fix_pre	0		120	45.0	2.5	/experiments/Knapen_AOT/AOT_stimuli/rescaled_final/0143_fw.mp4	0.0	242.7916750907898	1.0085184574127197
47	212.50689435005188	pulse	0	t		45.0	2.5	/experiments/Knapen_AOT/AOT_stimuli/rescaled_final/0143_fw.mp4	0.0	243.37536001205444	
47	212.93172788619995	movie	1		271	45.0	2.5	/experiments/Knapen_AOT/AOT_stimuli/rescaled_final/0143_fw.mp4	0.0	243.80019354820251	2.4920389652252197
47	214.10713386535645	pulse	1	t		45.0	2.5	/experiments/Knapen_AOT/AOT_stimuli/rescaled_final/0143_fw.mp4	0.0	244.975599527359	
47	215.42376685142517	fix_post	2		12	45.0	2.5	/experiments/Knapen_AOT/AOT_stimuli/rescaled_final/0143_fw.mp4	0.0	246.29223251342773	0.10011053085327148
48	215.52387738227844	fix_pre	0		120	46.0	2.5	/experiments/Knapen_AOT/AOT_stimuli/rescaled_final/0780_fw.mp4	0.0	246.392343044281	1.0083787441253662
48	215.70734858512878	pulse	0	t		46.0	2.5	/experiments/Knapen_AOT/AOT_stimuli/rescaled_final/0780_fw.mp4	0.0	246.57581424713135	
48	216.5322561264038	movie	1		265	46.0	2.5	/experiments/Knapen_AOT/AOT_stimuli/rescaled_final/0780_fw.mp4	0.0	247.40072178840637	2.4920296669006348
48	217.30759191513062	pulse	1	t		46.0	2.5	/experiments/Knapen_AOT/AOT_stimuli/rescaled_final/0780_fw.mp4	0.0	248.17605757713318	
48	218.90581464767456	pulse	1	t		46.0	2.5	/experiments/Knapen_AOT/AOT_stimuli/rescaled_final/0780_fw.mp4	0.0	249.77428030967712	
48	219.02428579330444	fix_post	2		12	46.0	2.5	/experiments/Knapen_AOT/AOT_stimuli/rescaled_final/0780_fw.mp4	0.0	249.892751455307	0.10011720657348633
49	219.12440299987793	fix_pre	0		120	47.0	2.5	/experiments/Knapen_AOT/AOT_stimuli/rescaled_final/0727_rv.mp4	0.0	249.9928686618805	1.008409023284912
49	220.13281202316284	movie	1		282	47.0	2.5	/experiments/Knapen_AOT/AOT_stimuli/rescaled_final/0727_rv.mp4	0.0	251.0012776851654	2.492035150527954
49	220.5062563419342	pulse	1	t		47.0	2.5	/experiments/Knapen_AOT/AOT_stimuli/rescaled_final/0727_rv.mp4	0.0	251.37472200393677	
49	222.1067819595337	pulse	1	t		47.0	2.5	/experiments/Knapen_AOT/AOT_stimuli/rescaled_final/0727_rv.mp4	0.0	252.97524762153625	
49	222.6248471736908	fix_post	2		12	47.0	2.5	/experiments/Knapen_AOT/AOT_stimuli/rescaled_final/0727_rv.mp4	0.0	253.49331283569336	0.0999901294708252
50	222.72483730316162	fix_pre	0		119	48.0	2.5	blank	1.0	253.59330296516418	0.9918403625488281
50	223.70866203308105	pulse	0	t		48.0	2.5	blank	1.0	254.57712769508362	
50	223.71667766571045	movie	1		301	48.0	2.5	blank	1.0	254.585143327713	2.508730173110962
50	225.30887079238892	pulse	1	t		48.0	2.5	blank	1.0	256.1773364543915	
50	226.2254078388214	fix_post	2		12	48.0	2.5	blank	1.0	257.093873500824	0.10005521774291992
51	226.32546305656433	fix_pre	0		120	49.0	2.5	/experiments/Knapen_AOT/AOT_stimuli/rescaled_final/0228_fw.mp4	0.0	257.1939287185669	1.0084118843078613
51	226.90901565551758	pulse	0	t		49.0	2.5	/experiments/Knapen_AOT/AOT_stimuli/rescaled_final/0228_fw.mp4	0.0	257.77748131752014	
51	227.3338749408722	movie	1		275	49.0	2.5	/experiments/Knapen_AOT/AOT_stimuli/rescaled_final/0228_fw.mp4	0.0	258.20234060287476	2.4920475482940674
51	228.50745725631714	pulse	1	t		49.0	2.5	/experiments/Knapen_AOT/AOT_stimuli/rescaled_final/0228_fw.mp4	0.0	259.3759229183197	
51	229.82592248916626	fix_post	2		12	49.0	2.5	/experiments/Knapen_AOT/AOT_stimuli/rescaled_final/0228_fw.mp4	0.0	260.6943881511688	0.10001254081726074
52	229.92593502998352	fix_pre	0		120	50.0	2.5	/experiments/Knapen_AOT/AOT_stimuli/rescaled_final/1583_rv.mp4	0.0	260.7944006919861	1.0085117816925049
52	230.10958290100098	pulse	0	t		50.0	2.5	/experiments/Knapen_AOT/AOT_stimuli/rescaled_final/1583_rv.mp4	0.0	260.97804856300354	
52	230.93444681167603	movie	1		283	50.0	2.5	/experiments/Knapen_AOT/AOT_stimuli/rescaled_final/1583_rv.mp4	0.0	261.8029124736786	2.492063045501709
52	231.7075071334839	pulse	1	t		50.0	2.5	/experiments/Knapen_AOT/AOT_stimuli/rescaled_final/1583_rv.mp4	0.0	262.57597279548645	
52	233.30807971954346	pulse	1	t		50.0	2.5	/experiments/Knapen_AOT/AOT_stimuli/rescaled_final/1583_rv.mp4	0.0	264.176545381546	
52	233.42650985717773	fix_post	2		12	50.0	2.5	/experiments/Knapen_AOT/AOT_stimuli/rescaled_final/1583_rv.mp4	0.0	264.2949755191803	0.09997224807739258
53	233.52648210525513	fix_pre	0		120	51.0	2.5	/experiments/Knapen_AOT/AOT_stimuli/rescaled_final/1865_fw.mp4	0.0	264.3949477672577	1.0084903240203857
53	234.5349724292755	movie	1		284	51.0	2.5	/experiments/Knapen_AOT/AOT_stimuli/rescaled_final/1865_fw.mp4	0.0	265.4034380912781	2.492032766342163
53	234.91038990020752	pulse	1	t		51.0	2.5	/experiments/Knapen_AOT/AOT_stimuli/rescaled_final/1865_fw.mp4	0.0	265.7788555622101	
53	236.50855207443237	pulse	1	t		51.0	2.5	/experiments/Knapen_AOT/AOT_stimuli/rescaled_final/1865_fw.mp4	0.0	267.37701773643494	
53	237.02700519561768	fix_post	2		12	51.0	2.5	/experiments/Knapen_AOT/AOT_stimuli/rescaled_final/1865_fw.mp4	0.0	267.89547085762024	0.1000051498413086
54	237.12701034545898	fix_pre	0		119	52.0	2.5	/experiments/Knapen_AOT/AOT_stimuli/rescaled_final/1561_fw.mp4	0.0	267.99547600746155	1.0001788139343262
54	238.11074209213257	pulse	0	t		52.0	2.5	/experiments/Knapen_AOT/AOT_stimuli/rescaled_final/1561_fw.mp4	0.0	268.97920775413513	
54	238.1271891593933	movie	1		275	52.0	2.5	/experiments/Knapen_AOT/AOT_stimuli/rescaled_final/1561_fw.mp4	0.0	268.9956548213959	2.500364065170288
54	239.71109557151794	pulse	1	t		52.0	2.5	/experiments/Knapen_AOT/AOT_stimuli/rescaled_final/1561_fw.mp4	0.0	270.5795612335205	
54	240.6275532245636	fix_post	2		12	52.0	2.5	/experiments/Knapen_AOT/AOT_stimuli/rescaled_final/1561_fw.mp4	0.0	271.49601888656616	0.10006570816040039
55	240.727618932724	fix_pre	0		120	53.0	2.5	/experiments/Knapen_AOT/AOT_stimuli/rescaled_final/0507_rv.mp4	0.0	271.59608459472656	1.0084247589111328
55	241.31127309799194	pulse	0	t		53.0	2.5	/experiments/Knapen_AOT/AOT_stimuli/rescaled_final/0507_rv.mp4	0.0	272.1797387599945	
55	241.73604369163513	movie	1		272	53.0	2.5	/experiments/Knapen_AOT/AOT_stimuli/rescaled_final/0507_rv.mp4	0.0	272.6045093536377	2.4920389652252197
55	242.91008162498474	pulse	1	t		53.0	2.5	/experiments/Knapen_AOT/AOT_stimuli/rescaled_final/0507_rv.mp4	0.0	273.7785472869873	
55	244.22808265686035	fix_post	2		12	53.0	2.5	/experiments/Knapen_AOT/AOT_stimuli/rescaled_final/0507_rv.mp4	0.0	275.0965483188629	0.10001015663146973
56	244.32809281349182	fix_pre	0		120	54.0	2.5	/experiments/Knapen_AOT/AOT_stimuli/rescaled_final/0772_fw.mp4	0.0	275.1965584754944	1.0085358619689941
56	244.51190757751465	pulse	0	t		54.0	2.5	/experiments/Knapen_AOT/AOT_stimuli/rescaled_final/0772_fw.mp4	0.0	275.3803732395172	
56	245.33662867546082	movie	1		283	54.0	2.5	/experiments/Knapen_AOT/AOT_stimuli/rescaled_final/0772_fw.mp4	0.0	276.2050943374634	2.492006778717041
56	246.11117815971375	pulse	1	t		54.0	2.5	/experiments/Knapen_AOT/AOT_stimuli/rescaled_final/0772_fw.mp4	0.0	276.9796438217163	
56	247.71024894714355	pulse	1	t		54.0	2.5	/experiments/Knapen_AOT/AOT_stimuli/rescaled_final/0772_fw.mp4	0.0	278.5787146091461	
56	247.82863545417786	fix_post	2		12	54.0	2.5	/experiments/Knapen_AOT/AOT_stimuli/rescaled_final/0772_fw.mp4	0.0	278.6971011161804	0.10014128684997559
57	247.92877674102783	fix_pre	0		120	55.0	2.5	blank	1.0	278.7972424030304	1.0000205039978027
57	248.92879724502563	movie	1		300	55.0	2.5	blank	1.0	279.7972629070282	2.500363349914551
57	249.3123927116394	pulse	1	t		55.0	2.5	blank	1.0	280.18085837364197	
57	250.91281604766846	pulse	1	t		55.0	2.5	blank	1.0	281.781281709671	
57	251.42916059494019	fix_post	2		12	55.0	2.5	blank	1.0	282.29762625694275	0.10003161430358887
58	251.52919220924377	fix_pre	0		119	56.0	2.5	/experiments/Knapen_AOT/AOT_stimuli/rescaled_final/1772_fw.mp4	0.0	282.39765787124634	1.008575201034546
58	252.5055181980133	pulse	0	t		56.0	2.5	/experiments/Knapen_AOT/AOT_stimuli/rescaled_final/1772_fw.mp4	0.0	283.37398386001587	
58	252.53776741027832	movie	1		270	56.0	2.5	/experiments/Knapen_AOT/AOT_stimuli/rescaled_final/1772_fw.mp4	0.0	283.4062330722809	2.491950511932373
58	254.11174631118774	pulse	1	t		56.0	2.5	/experiments/Knapen_AOT/AOT_stimuli/rescaled_final/1772_fw.mp4	0.0	284.9802119731903	
58	255.0297179222107	fix_post	2		12	56.0	2.5	/experiments/Knapen_AOT/AOT_stimuli/rescaled_final/1772_fw.mp4	0.0	285.89818358421326	0.10006046295166016
59	255.12977838516235	fix_pre	0		120	57.0	2.5	/experiments/Knapen_AOT/AOT_stimuli/rescaled_final/0145_rv.mp4	0.0	285.9982440471649	1.0084524154663086
59	255.70514178276062	pulse	0	t		57.0	2.5	/experiments/Knapen_AOT/AOT_stimuli/rescaled_final/0145_rv.mp4	0.0	286.5736074447632	
59	256.13823080062866	movie	1		273	57.0	2.5	/experiments/Knapen_AOT/AOT_stimuli/rescaled_final/0145_rv.mp4	0.0	287.0066964626312	2.4920225143432617
59	257.31390023231506	pulse	1	t		57.0	2.5	/experiments/Knapen_AOT/AOT_stimuli/rescaled_final/0145_rv.mp4	0.0	288.1823658943176	
59	258.6302533149719	fix_post	2		12	57.0	2.5	/experiments/Knapen_AOT/AOT_stimuli/rescaled_final/0145_rv.mp4	0.0	289.4987189769745	0.10001397132873535
60	258.73026728630066	fix_pre	0		120	58.0	2.5	/experiments/Knapen_AOT/AOT_stimuli/rescaled_final/0861_fw.mp4	0.0	289.5987329483032	1.008500099182129
60	258.9056725502014	pulse	0	t		58.0	2.5	/experiments/Knapen_AOT/AOT_stimuli/rescaled_final/0861_fw.mp4	0.0	289.774138212204	
60	259.7387673854828	movie	1		282	58.0	2.5	/experiments/Knapen_AOT/AOT_stimuli/rescaled_final/0861_fw.mp4	0.0	290.60723304748535	2.4919919967651367
60	260.50525879859924	pulse	1	t		58.0	2.5	/experiments/Knapen_AOT/AOT_stimuli/rescaled_final/0861_fw.mp4	0.0	291.3737244606018	
60	262.1060616970062	pulse	1	t		58.0	2.5	/experiments/Knapen_AOT/AOT_stimuli/rescaled_final/0861_fw.mp4	0.0	292.9745273590088	
60	262.2307593822479	fix_post	2		12	58.0	2.5	/experiments/Knapen_AOT/AOT_stimuli/rescaled_final/0861_fw.mp4	0.0	293.0992250442505	0.1000661849975586
61	262.3308255672455	fix_pre	0		120	59.0	2.5	/experiments/Knapen_AOT/AOT_stimuli/rescaled_final/1941_fw.mp4	0.0	293.19929122924805	1.0085070133209229
61	263.3393325805664	movie	1		281	59.0	2.5	/experiments/Knapen_AOT/AOT_stimuli/rescaled_final/1941_fw.mp4	0.0	294.20779824256897	2.492094039916992
61	263.7062816619873	pulse	1	t		59.0	2.5	/experiments/Knapen_AOT/AOT_stimuli/rescaled_final/1941_fw.mp4	0.0	294.57474732398987	
61	265.3065240383148	pulse	1	t		59.0	2.5	/experiments/Knapen_AOT/AOT_stimuli/rescaled_final/1941_fw.mp4	0.0	296.1749897003174	
61	265.8314266204834	fix_post	2		12	59.0	2.5	/experiments/Knapen_AOT/AOT_stimuli/rescaled_final/1941_fw.mp4	0.0	296.69989228248596	0.09993481636047363
62	265.9313614368439	fix_pre	0		118	60.0	2.5	/experiments/Knapen_AOT/AOT_stimuli/rescaled_final/1927_fw.mp4	0.0	296.79982709884644	0.9918179512023926
62	266.9067759513855	pulse	0	t		60.0	2.5	/experiments/Knapen_AOT/AOT_stimuli/rescaled_final/1927_fw.mp4	0.0	297.77524161338806	
62	266.92317938804626	movie	1		272	60.0	2.5	/experiments/Knapen_AOT/AOT_stimuli/rescaled_final/1927_fw.mp4	0.0	297.7916450500488	2.500387191772461
62	268.5068554878235	pulse	1	t		60.0	2.5	/experiments/Knapen_AOT/AOT_stimuli/rescaled_final/1927_fw.mp4	0.0	299.37532114982605	
62	269.4235665798187	fix_post	2		12	60.0	2.5	/experiments/Knapen_AOT/AOT_stimuli/rescaled_final/1927_fw.mp4	0.0	300.2920322418213	0.09999608993530273
63	269.523562669754	fix_pre	0		120	61.0	2.5	/experiments/Knapen_AOT/AOT_stimuli/rescaled_final/2111_fw.mp4	0.0	300.3920283317566	1.0085222721099854
63	270.1072783470154	pulse	0	t		61.0	2.5	/experiments/Knapen_AOT/AOT_stimuli/rescaled_final/2111_fw.mp4	0.0	300.97574400901794	
63	270.532084941864	movie	1		268	61.0	2.5	/experiments/Knapen_AOT/AOT_stimuli/rescaled_final/2111_fw.mp4	0.0	301.4005506038666	2.492006540298462
63	271.70688104629517	pulse	1	t		61.0	2.5	/experiments/Knapen_AOT/AOT_stimuli/rescaled_final/2111_fw.mp4	0.0	302.57534670829773	
63	273.0240914821625	fix_post	2		12	61.0	2.5	/experiments/Knapen_AOT/AOT_stimuli/rescaled_final/2111_fw.mp4	0.0	303.89255714416504	0.10002350807189941
64	273.1241149902344	fix_pre	0		120	62.0	2.5	/experiments/Knapen_AOT/AOT_stimuli/rescaled_final/1922_fw.mp4	0.0	303.99258065223694	1.0084936618804932
64	273.3076820373535	pulse	0	t		62.0	2.5	/experiments/Knapen_AOT/AOT_stimuli/rescaled_final/1922_fw.mp4	0.0	304.1761476993561	
64	274.13260865211487	movie	1		283	62.0	2.5	/experiments/Knapen_AOT/AOT_stimuli/rescaled_final/1922_fw.mp4	0.0	305.00107431411743	2.4920291900634766
64	274.9058368206024	pulse	1	t		62.0	2.5	/experiments/Knapen_AOT/AOT_stimuli/rescaled_final/1922_fw.mp4	0.0	305.774302482605	
64	276.50633358955383	pulse	1	t		62.0	2.5	/experiments/Knapen_AOT/AOT_stimuli/rescaled_final/1922_fw.mp4	0.0	307.3747992515564	
64	276.62463784217834	fix_post	2		12	62.0	2.5	/experiments/Knapen_AOT/AOT_stimuli/rescaled_final/1922_fw.mp4	0.0	307.4931035041809	0.1000051498413086
65	276.72464299201965	fix_pre	0		120	63.0	2.5	blank	1.0	307.5931086540222	1.0001556873321533
65	277.7247986793518	movie	1		300	63.0	2.5	blank	1.0	308.59326434135437	2.5003769397735596
65	278.1084578037262	pulse	1	t		63.0	2.5	blank	1.0	308.97692346572876	
65	279.70860862731934	pulse	1	t		63.0	2.5	blank	1.0	310.5770742893219	
65	280.22517561912537	fix_post	2		12	63.0	2.5	blank	1.0	311.09364128112793	0.10000824928283691
66	280.3251838684082	fix_pre	0		119	64.0	2.5	/experiments/Knapen_AOT/AOT_stimuli/rescaled_final/0198_rv.mp4	0.0	311.19364953041077	1.0085885524749756
66	281.308926820755	pulse	0	t		64.0	2.5	/experiments/Knapen_AOT/AOT_stimuli/rescaled_final/0198_rv.mp4	0.0	312.17739248275757	
66	281.3337724208832	movie	1		282	64.0	2.5	/experiments/Knapen_AOT/AOT_stimuli/rescaled_final/0198_rv.mp4	0.0	312.20223808288574	2.4919328689575195
66	282.9107086658478	pulse	1	t		64.0	2.5	/experiments/Knapen_AOT/AOT_stimuli/rescaled_final/0198_rv.mp4	0.0	313.77917432785034	
66	283.8257052898407	fix_post	2		12	64.0	2.5	/experiments/Knapen_AOT/AOT_stimuli/rescaled_final/0198_rv.mp4	0.0	314.69417095184326	0.10001778602600098
67	283.9257230758667	fix_pre	0		120	65.0	2.5	/experiments/Knapen_AOT/AOT_stimuli/rescaled_final/1730_rv.mp4	0.0	314.79418873786926	1.0084853172302246
67	284.5094082355499	pulse	0	t		65.0	2.5	/experiments/Knapen_AOT/AOT_stimuli/rescaled_final/1730_rv.mp4	0.0	315.3778738975525	
67	284.9342083930969	movie	1		276	65.0	2.5	/experiments/Knapen_AOT/AOT_stimuli/rescaled_final/1730_rv.mp4	0.0	315.8026740550995	2.492036819458008
67	286.1078701019287	pulse	1	t		65.0	2.5	/experiments/Knapen_AOT/AOT_stimuli/rescaled_final/1730_rv.mp4	0.0	316.9763357639313	
67	287.42624521255493	fix_post	2		12	65.0	2.5	/experiments/Knapen_AOT/AOT_stimuli/rescaled_final/1730_rv.mp4	0.0	318.2947108745575	0.1000356674194336
68	287.52628087997437	fix_pre	0		120	66.0	2.5	/experiments/Knapen_AOT/AOT_stimuli/rescaled_final/2143_fw.mp4	0.0	318.39474654197693	1.0084631443023682
68	287.7098786830902	pulse	0	t		66.0	2.5	/experiments/Knapen_AOT/AOT_stimuli/rescaled_final/2143_fw.mp4	0.0	318.5783443450928	
68	288.53474402427673	movie	1		281	66.0	2.5	/experiments/Knapen_AOT/AOT_stimuli/rescaled_final/2143_fw.mp4	0.0	319.4032096862793	2.492072820663452
68	289.30805468559265	pulse	1	t		66.0	2.5	/experiments/Knapen_AOT/AOT_stimuli/rescaled_final/2143_fw.mp4	0.0	320.1765203475952	
68	290.9085144996643	pulse	1	t		66.0	2.5	/experiments/Knapen_AOT/AOT_stimuli/rescaled_final/2143_fw.mp4	0.0	321.77698016166687	
68	291.0268168449402	fix_post	2		12	66.0	2.5	/experiments/Knapen_AOT/AOT_stimuli/rescaled_final/2143_fw.mp4	0.0	321.89528250694275	0.1000206470489502
69	291.12683749198914	fix_pre	0		120	67.0	2.5	/experiments/Knapen_AOT/AOT_stimuli/rescaled_final/0351_rv.mp4	0.0	321.9953031539917	1.0085055828094482
69	292.1353430747986	movie	1		280	67.0	2.5	/experiments/Knapen_AOT/AOT_stimuli/rescaled_final/0351_rv.mp4	0.0	323.00380873680115	2.492011547088623
69	292.5092375278473	pulse	1	t		67.0	2.5	/experiments/Knapen_AOT/AOT_stimuli/rescaled_final/0351_rv.mp4	0.0	323.37770318984985	
69	294.109765291214	pulse	1	t		67.0	2.5	/experiments/Knapen_AOT/AOT_stimuli/rescaled_final/0351_rv.mp4	0.0	324.97823095321655	
69	294.6273546218872	fix_post	2		12	67.0	2.5	/experiments/Knapen_AOT/AOT_stimuli/rescaled_final/0351_rv.mp4	0.0	325.49582028388977	0.10001111030578613
70	294.727365732193	fix_pre	0		119	68.0	2.5	/experiments/Knapen_AOT/AOT_stimuli/rescaled_final/2082_fw.mp4	0.0	325.59583139419556	1.0002245903015137
70	295.711199760437	pulse	0	t		68.0	2.5	/experiments/Knapen_AOT/AOT_stimuli/rescaled_final/2082_fw.mp4	0.0	326.5796654224396	
70	295.7275903224945	movie	1		285	68.0	2.5	/experiments/Knapen_AOT/AOT_stimuli/rescaled_final/2082_fw.mp4	0.0	326.59605598449707	2.500293731689453
70	297.30993032455444	pulse	1	t		68.0	2.5	/experiments/Knapen_AOT/AOT_stimuli/rescaled_final/2082_fw.mp4	0.0	328.178395986557	
70	298.22788405418396	fix_post	2		12	68.0	2.5	/experiments/Knapen_AOT/AOT_stimuli/rescaled_final/2082_fw.mp4	0.0	329.0963497161865	0.10006856918334961
71	298.3279526233673	fix_pre	0		120	69.0	2.5	/experiments/Knapen_AOT/AOT_stimuli/rescaled_final/1559_rv.mp4	0.0	329.1964182853699	1.0084350109100342
71	298.9115788936615	pulse	0	t		69.0	2.5	/experiments/Knapen_AOT/AOT_stimuli/rescaled_final/1559_rv.mp4	0.0	329.78004455566406	
71	299.33638763427734	movie	1		269	69.0	2.5	/experiments/Knapen_AOT/AOT_stimuli/rescaled_final/1559_rv.mp4	0.0	330.2048532962799	2.4920449256896973
71	300.509952545166	pulse	1	t		69.0	2.5	/experiments/Knapen_AOT/AOT_stimuli/rescaled_final/1559_rv.mp4	0.0	331.3784182071686	
71	301.82843255996704	fix_post	2		12	69.0	2.5	/experiments/Knapen_AOT/AOT_stimuli/rescaled_final/1559_rv.mp4	0.0	332.6968982219696	0.1000068187713623
72	301.9284393787384	fix_pre	0		120	70.0	2.5	blank	1.0	332.79690504074097	1.0001397132873535
72	302.11200046539307	pulse	0	t		70.0	2.5	blank	1.0	332.98046612739563	
72	302.92857909202576	movie	1		300	70.0	2.5	blank	1.0	333.7970447540283	2.500549077987671
72	303.7122094631195	pulse	1	t		70.0	2.5	blank	1.0	334.58067512512207	
72	305.31254744529724	pulse	1	t		70.0	2.5	blank	1.0	336.1810131072998	
72	305.4291281700134	fix_post	2		12	70.0	2.5	blank	1.0	336.297593832016	0.09987092018127441
73	305.5289990901947	fix_pre	0		120	71.0	2.5	/experiments/Knapen_AOT/AOT_stimuli/rescaled_final/0716_rv.mp4	0.0	336.39746475219727	1.0084800720214844
73	306.5374791622162	movie	1		271	71.0	2.5	/experiments/Knapen_AOT/AOT_stimuli/rescaled_final/0716_rv.mp4	0.0	337.40594482421875	2.4920358657836914
73	306.91293239593506	pulse	1	t		71.0	2.5	/experiments/Knapen_AOT/AOT_stimuli/rescaled_final/0716_rv.mp4	0.0	337.7813980579376	
73	308.5110008716583	pulse	1	t		71.0	2.5	/experiments/Knapen_AOT/AOT_stimuli/rescaled_final/0716_rv.mp4	0.0	339.3794665336609	
73	309.0295150279999	fix_post	2		12	71.0	2.5	/experiments/Knapen_AOT/AOT_stimuli/rescaled_final/0716_rv.mp4	0.0	339.89798069000244	0.09999513626098633
74	309.12951016426086	fix_pre	0		119	72.0	2.5	/experiments/Knapen_AOT/AOT_stimuli/rescaled_final/1126_rv.mp4	0.0	339.9979758262634	1.0002591609954834
74	310.10574984550476	pulse	0	t		72.0	2.5	/experiments/Knapen_AOT/AOT_stimuli/rescaled_final/1126_rv.mp4	0.0	340.9742155075073	
74	310.12976932525635	movie	1		259	72.0	2.5	/experiments/Knapen_AOT/AOT_stimuli/rescaled_final/1126_rv.mp4	0.0	340.9982349872589	2.500342845916748
74	311.71222400665283	pulse	1	t		72.0	2.5	/experiments/Knapen_AOT/AOT_stimuli/rescaled_final/1126_rv.mp4	0.0	342.5806896686554	
74	312.6301121711731	fix_post	2		12	72.0	2.5	/experiments/Knapen_AOT/AOT_stimuli/rescaled_final/1126_rv.mp4	0.0	343.49857783317566	0.09994626045227051
75	312.73005843162537	fix_pre	0		120	73.0	2.5	/experiments/Knapen_AOT/AOT_stimuli/rescaled_final/1370_rv.mp4	0.0	343.59852409362793	1.0084891319274902
75	313.3057518005371	pulse	0	t		73.0	2.5	/experiments/Knapen_AOT/AOT_stimuli/rescaled_final/1370_rv.mp4	0.0	344.1742174625397	
75	313.73854756355286	movie	1		283	73.0	2.5	/experiments/Knapen_AOT/AOT_stimuli/rescaled_final/1370_rv.mp4	0.0	344.6070132255554	2.4920456409454346
75	314.9055914878845	pulse	1	t		73.0	2.5	/experiments/Knapen_AOT/AOT_stimuli/rescaled_final/1370_rv.mp4	0.0	345.7740571498871	
75	316.2305932044983	fix_post	2		12	73.0	2.5	/experiments/Knapen_AOT/AOT_stimuli/rescaled_final/1370_rv.mp4	0.0	347.09905886650085	0.10003352165222168
76	316.3306267261505	fix_pre	0		120	74.0	2.5	/experiments/Knapen_AOT/AOT_stimuli/rescaled_final/1821_rv.mp4	0.0	347.1990923881531	1.00846266746521
76	316.50627732276917	pulse	0	t		74.0	2.5	/experiments/Knapen_AOT/AOT_stimuli/rescaled_final/1821_rv.mp4	0.0	347.37474298477173	
76	317.3390893936157	movie	1		272	74.0	2.5	/experiments/Knapen_AOT/AOT_stimuli/rescaled_final/1821_rv.mp4	0.0	348.2075550556183	2.4920411109924316
76	318.1061980724335	pulse	1	t		74.0	2.5	/experiments/Knapen_AOT/AOT_stimuli/rescaled_final/1821_rv.mp4	0.0	348.97466373443604	
76	319.706335067749	pulse	1	t		74.0	2.5	/experiments/Knapen_AOT/AOT_stimuli/rescaled_final/1821_rv.mp4	0.0	350.5748007297516	
76	319.83113050460815	fix_post	2		12	74.0	2.5	/experiments/Knapen_AOT/AOT_stimuli/rescaled_final/1821_rv.mp4	0.0	350.6995961666107	0.10002565383911133
77	319.93115615844727	fix_pre	0		120	75.0	2.5	/experiments/Knapen_AOT/AOT_stimuli/rescaled_final/0403_rv.mp4	0.0	350.79962182044983	1.0085151195526123
77	320.9396712779999	movie	1		272	75.0	2.5	/experiments/Knapen_AOT/AOT_stimuli/rescaled_final/0403_rv.mp4	0.0	351.80813694000244	2.492002010345459
77	321.3067283630371	pulse	1	t		75.0	2.5	/experiments/Knapen_AOT/AOT_stimuli/rescaled_final/0403_rv.mp4	0.0	352.1751940250397	
77	322.90683341026306	pulse	1	t		75.0	2.5	/experiments/Knapen_AOT/AOT_stimuli/rescaled_final/0403_rv.mp4	0.0	353.7752990722656	
77	323.43167328834534	fix_post	2		12	75.0	2.5	/experiments/Knapen_AOT/AOT_stimuli/rescaled_final/0403_rv.mp4	0.0	354.3001389503479	0.10003876686096191
78	323.5317120552063	fix_pre	0		118	76.0	2.5	/experiments/Knapen_AOT/AOT_stimuli/rescaled_final/0825_fw.mp4	0.0	354.40017771720886	0.9918761253356934
78	324.5074119567871	pulse	0	t		76.0	2.5	/experiments/Knapen_AOT/AOT_stimuli/rescaled_final/0825_fw.mp4	0.0	355.3758776187897	
78	324.523588180542	movie	1		283	76.0	2.5	/experiments/Knapen_AOT/AOT_stimuli/rescaled_final/0825_fw.mp4	0.0	355.39205384254456	2.5002975463867188
78	326.10596680641174	pulse	1	t		76.0	2.5	/experiments/Knapen_AOT/AOT_stimuli/rescaled_final/0825_fw.mp4	0.0	356.9744324684143	
78	327.0238857269287	fix_post	2		12	76.0	2.5	/experiments/Knapen_AOT/AOT_stimuli/rescaled_final/0825_fw.mp4	0.0	357.8923513889313	0.10001802444458008
79	327.1239037513733	fix_pre	0		120	77.0	2.5	blank	1.0	357.99236941337585	1.0001378059387207
79	327.7076368331909	pulse	0	t		77.0	2.5	blank	1.0	358.5761024951935	
79	328.124041557312	movie	1		300	77.0	2.5	blank	1.0	358.9925072193146	2.5004031658172607
79	329.3077743053436	pulse	1	t		77.0	2.5	blank	1.0	360.1762399673462	
79	330.6244447231293	fix_post	2		12	77.0	2.5	blank	1.0	361.49291038513184	0.10000729560852051
80	330.7244520187378	fix_pre	0		120	78.0	2.5	/experiments/Knapen_AOT/AOT_stimuli/rescaled_final/0780_rv.mp4	0.0	361.59291768074036	1.0084800720214844
80	330.90800285339355	pulse	0	t		78.0	2.5	/experiments/Knapen_AOT/AOT_stimuli/rescaled_final/0780_rv.mp4	0.0	361.7764685153961	
80	331.7329320907593	movie	1		284	78.0	2.5	/experiments/Knapen_AOT/AOT_stimuli/rescaled_final/0780_rv.mp4	0.0	362.60139775276184	2.4920294284820557
80	332.5071530342102	pulse	1	t		78.0	2.5	/experiments/Knapen_AOT/AOT_stimuli/rescaled_final/0780_rv.mp4	0.0	363.37561869621277	
80	334.1064558029175	pulse	1	t		78.0	2.5	/experiments/Knapen_AOT/AOT_stimuli/rescaled_final/0780_rv.mp4	0.0	364.97492146492004	
80	334.22496151924133	fix_post	2		12	78.0	2.5	/experiments/Knapen_AOT/AOT_stimuli/rescaled_final/0780_rv.mp4	0.0	365.0934271812439	0.1000208854675293
81	334.32498240470886	fix_pre	0		120	79.0	2.5	/experiments/Knapen_AOT/AOT_stimuli/rescaled_final/1905_rv.mp4	0.0	365.1934480667114	1.0085079669952393
81	335.3334903717041	movie	1		273	79.0	2.5	/experiments/Knapen_AOT/AOT_stimuli/rescaled_final/1905_rv.mp4	0.0	366.20195603370667	2.4920527935028076
81	335.7088978290558	pulse	1	t		79.0	2.5	/experiments/Knapen_AOT/AOT_stimuli/rescaled_final/1905_rv.mp4	0.0	366.57736349105835	
81	337.3070316314697	pulse	1	t		79.0	2.5	/experiments/Knapen_AOT/AOT_stimuli/rescaled_final/1905_rv.mp4	0.0	368.1754972934723	
81	337.8255431652069	fix_post	2		12	79.0	2.5	/experiments/Knapen_AOT/AOT_stimuli/rescaled_final/1905_rv.mp4	0.0	368.6940088272095	0.10001254081726074
82	337.92555570602417	fix_pre	0		119	80.0	2.5	/experiments/Knapen_AOT/AOT_stimuli/rescaled_final/1560_rv.mp4	0.0	368.79402136802673	1.0084946155548096
82	338.9091968536377	pulse	0	t		80.0	2.5	/experiments/Knapen_AOT/AOT_stimuli/rescaled_final/1560_rv.mp4	0.0	369.77766251564026	
82	338.934050321579	movie	1		273	80.0	2.5	/experiments/Knapen_AOT/AOT_stimuli/rescaled_final/1560_rv.mp4	0.0	369.80251598358154	2.4919896125793457
82	340.508074760437	pulse	1	t		80.0	2.5	/experiments/Knapen_AOT/AOT_stimuli/rescaled_final/1560_rv.mp4	0.0	371.3765404224396	
82	341.4260399341583	fix_post	2		12	80.0	2.5	/experiments/Knapen_AOT/AOT_stimuli/rescaled_final/1560_rv.mp4	0.0	372.2945055961609	0.10003399848937988
83	341.5260739326477	fix_pre	0		120	81.0	2.5	/experiments/Knapen_AOT/AOT_stimuli/rescaled_final/1310_rv.mp4	0.0	372.39453959465027	1.0085625648498535
83	342.1097798347473	pulse	0	t		81.0	2.5	/experiments/Knapen_AOT/AOT_stimuli/rescaled_final/1310_rv.mp4	0.0	372.9782454967499	
83	342.53463649749756	movie	1		271	81.0	2.5	/experiments/Knapen_AOT/AOT_stimuli/rescaled_final/1310_rv.mp4	0.0	373.4031021595001	2.4919559955596924
83	343.71052598953247	pulse	1	t		81.0	2.5	/experiments/Knapen_AOT/AOT_stimuli/rescaled_final/1310_rv.mp4	0.0	374.57899165153503	
83	345.02659249305725	fix_post	2		12	81.0	2.5	/experiments/Knapen_AOT/AOT_stimuli/rescaled_final/1310_rv.mp4	0.0	375.8950581550598	0.10004949569702148
84	345.1266419887543	fix_pre	0		120	82.0	2.5	/experiments/Knapen_AOT/AOT_stimuli/rescaled_final/1589_rv.mp4	0.0	375.99510765075684	1.0085012912750244
84	345.3101842403412	pulse	0	t		82.0	2.5	/experiments/Knapen_AOT/AOT_stimuli/rescaled_final/1589_rv.mp4	0.0	376.17864990234375	
84	346.1351432800293	movie	1		286	82.0	2.5	/experiments/Knapen_AOT/AOT_stimuli/rescaled_final/1589_rv.mp4	0.0	377.00360894203186	2.491999864578247
84	346.9086034297943	pulse	1	t		82.0	2.5	/experiments/Knapen_AOT/AOT_stimuli/rescaled_final/1589_rv.mp4	0.0	377.7770690917969	
84	348.50882029533386	pulse	1	t		82.0	2.5	/experiments/Knapen_AOT/AOT_stimuli/rescaled_final/1589_rv.mp4	0.0	379.3772859573364	
84	348.62714314460754	fix_post	2		12	82.0	2.5	/experiments/Knapen_AOT/AOT_stimuli/rescaled_final/1589_rv.mp4	0.0	379.4956088066101	0.10000729560852051
85	348.72715044021606	fix_pre	0		120	83.0	2.5	blank	1.0	379.5956161022186	1.000126600265503
85	349.72727704048157	movie	1		300	83.0	2.5	blank	1.0	380.59574270248413	2.5003926753997803
85	350.110910654068	pulse	1	t		83.0	2.5	blank	1.0	380.97937631607056	
85	351.71122550964355	pulse	1	t		83.0	2.5	blank	1.0	382.5796911716461	
85	352.22766971588135	fix_post	2		12	83.0	2.5	blank	1.0	383.0961353778839	0.10005569458007812
87	352.3277254104614	stim	0		1716					383.196191072464	14.302107810974121
87	353.3114311695099	pulse	0	t						384.17989683151245	
87	354.91174721717834	pulse	0	t						385.7802128791809	
87	356.51184463500977	pulse	0	t						387.38031029701233	
87	358.1126341819763	pulse	0	t						388.9810998439789	
87	359.7123246192932	pulse	0	t						390.5807902812958	
87	361.31255555152893	pulse	0	t						392.1810212135315	
87	362.9127974510193	pulse	0	t						393.78126311302185	
87	364.5131344795227	pulse	0	t						395.38160014152527	
87	366.1134660243988	pulse	0	t						396.98193168640137	
