trial_nr	onset	event_type	phase	response	nr_frames	movie_index	movie_duration	movie_file	blank	onset_abs	duration
0	0.20818209648132324	stim	0		108					25.049113273620605	0.9001109600067139
0	1.1001300811767578	response	0	space						25.94106125831604	
1	1.108293056488037	stim	0		5296					25.94922423362732	44.15245604515076
1	45.24567198753357	pulse	0	t						70.08660316467285	
1	45.260749101638794	stim	1		1715					70.10168027877808	14.297850847244263
1	46.840238094329834	pulse	1	t						71.68116927146912	
1	48.440529108047485	pulse	1	t						73.28146028518677	
1	50.04065203666687	pulse	1	t						74.88158321380615	
1	51.641021966934204	pulse	1	t						76.48195314407349	
1	53.24115705490112	pulse	1	t						78.0820882320404	
1	54.84136915206909	pulse	1	t						79.68230032920837	
1	56.44170618057251	pulse	1	t						81.28263735771179	
1	58.04194712638855	pulse	1	t						82.88287830352783	
2	59.55859994888306	fix_pre	0		11	0.0	2.5	/experiments/knapen_AOT/AOT_stimuli/rescaled_final/1208_rv.mp4	0.0	84.39953112602234	0.09165310859680176
2	59.64215898513794	pulse	0	t		0.0	2.5	/experiments/knapen_AOT/AOT_stimuli/rescaled_final/1208_rv.mp4	0.0	84.48309016227722	
2	59.65025305747986	movie	1		244	0.0	2.5	/experiments/knapen_AOT/AOT_stimuli/rescaled_final/1208_rv.mp4	0.0	84.49118423461914	2.5087718963623047
2	61.24291706085205	pulse	1	t		0.0	2.5	/experiments/knapen_AOT/AOT_stimuli/rescaled_final/1208_rv.mp4	0.0	86.08384823799133	
2	62.15902495384216	fix_post	2		12	0.0	2.5	/experiments/knapen_AOT/AOT_stimuli/rescaled_final/1208_rv.mp4	0.0	86.99995613098145	0.09996414184570312
3	62.258989095687866	fix_pre	0		120	1.0	2.5	/experiments/knapen_AOT/AOT_stimuli/rescaled_final/1066_rv.mp4	0.0	87.09992027282715	1.000148057937622
3	62.84268498420715	pulse	0	t		1.0	2.5	/experiments/knapen_AOT/AOT_stimuli/rescaled_final/1066_rv.mp4	0.0	87.68361616134644	
3	63.25913715362549	movie	1		244	1.0	2.5	/experiments/knapen_AOT/AOT_stimuli/rescaled_final/1066_rv.mp4	0.0	88.10006833076477	2.500415802001953
3	64.44299697875977	pulse	1	t		1.0	2.5	/experiments/knapen_AOT/AOT_stimuli/rescaled_final/1066_rv.mp4	0.0	89.28392815589905	
3	65.75955295562744	fix_post	2		12	1.0	2.5	/experiments/knapen_AOT/AOT_stimuli/rescaled_final/1066_rv.mp4	0.0	90.60048413276672	0.1000051498413086
4	65.85955810546875	fix_pre	0		120	2.0	2.5	/experiments/knapen_AOT/AOT_stimuli/rescaled_final/0724_fw.mp4	0.0	90.70048928260803	1.0001418590545654
4	66.03560018539429	pulse	0	t		2.0	2.5	/experiments/knapen_AOT/AOT_stimuli/rescaled_final/0724_fw.mp4	0.0	90.87653136253357	
4	66.85969996452332	movie	1		248	2.0	2.5	/experiments/knapen_AOT/AOT_stimuli/rescaled_final/0724_fw.mp4	0.0	91.7006311416626	2.5003650188446045
4	67.63589000701904	pulse	1	t		2.0	2.5	/experiments/knapen_AOT/AOT_stimuli/rescaled_final/0724_fw.mp4	0.0	92.47682118415833	
4	69.2360589504242	pulse	1	t		2.0	2.5	/experiments/knapen_AOT/AOT_stimuli/rescaled_final/0724_fw.mp4	0.0	94.07699012756348	
4	69.36006498336792	fix_post	2		12	2.0	2.5	/experiments/knapen_AOT/AOT_stimuli/rescaled_final/0724_fw.mp4	0.0	94.2009961605072	0.1000070571899414
5	69.46007204055786	fix_pre	0		120	3.0	2.5	/experiments/knapen_AOT/AOT_stimuli/rescaled_final/0336_fw.mp4	0.0	94.30100321769714	1.0001411437988281
5	70.46021318435669	movie	1		243	3.0	2.5	/experiments/knapen_AOT/AOT_stimuli/rescaled_final/0336_fw.mp4	0.0	95.30114436149597	2.4920589923858643
5	70.83560299873352	pulse	1	t		3.0	2.5	/experiments/knapen_AOT/AOT_stimuli/rescaled_final/0336_fw.mp4	0.0	95.6765341758728	
5	72.43584609031677	pulse	1	t		3.0	2.5	/experiments/knapen_AOT/AOT_stimuli/rescaled_final/0336_fw.mp4	0.0	97.27677726745605	
5	72.95227217674255	fix_post	2		12	3.0	2.5	/experiments/knapen_AOT/AOT_stimuli/rescaled_final/0336_fw.mp4	0.0	97.79320335388184	0.1000058650970459
6	73.0522780418396	fix_pre	0		119	4.0	2.5	/experiments/knapen_AOT/AOT_stimuli/rescaled_final/0083_fw.mp4	0.0	97.89320921897888	0.9918129444122314
6	74.03589701652527	pulse	0	t		4.0	2.5	/experiments/knapen_AOT/AOT_stimuli/rescaled_final/0083_fw.mp4	0.0	98.87682819366455	
6	74.04409098625183	movie	1		245	4.0	2.5	/experiments/knapen_AOT/AOT_stimuli/rescaled_final/0083_fw.mp4	0.0	98.88502216339111	2.508782148361206
6	75.63643717765808	pulse	1	t		4.0	2.5	/experiments/knapen_AOT/AOT_stimuli/rescaled_final/0083_fw.mp4	0.0	100.47736835479736	
6	76.55287313461304	fix_post	2		12	4.0	2.5	/experiments/knapen_AOT/AOT_stimuli/rescaled_final/0083_fw.mp4	0.0	101.39380431175232	0.09998798370361328
7	76.65286111831665	fix_pre	0		120	5.0	2.5	/experiments/knapen_AOT/AOT_stimuli/rescaled_final/1890_fw.mp4	0.0	101.49379229545593	1.0001380443572998
7	77.23656797409058	pulse	0	t		5.0	2.5	/experiments/knapen_AOT/AOT_stimuli/rescaled_final/1890_fw.mp4	0.0	102.07749915122986	
7	77.65299916267395	movie	1		244	5.0	2.5	/experiments/knapen_AOT/AOT_stimuli/rescaled_final/1890_fw.mp4	0.0	102.49393033981323	2.5003509521484375
7	78.83689212799072	pulse	1	t		5.0	2.5	/experiments/knapen_AOT/AOT_stimuli/rescaled_final/1890_fw.mp4	0.0	103.67782330513	
7	80.15335011482239	fix_post	2		12	5.0	2.5	/experiments/knapen_AOT/AOT_stimuli/rescaled_final/1890_fw.mp4	0.0	104.99428129196167	0.10003995895385742
8	80.25339007377625	fix_pre	0		120	6.0	2.5	/experiments/knapen_AOT/AOT_stimuli/rescaled_final/0139_fw.mp4	0.0	105.09432125091553	1.000119924545288
8	80.4369580745697	pulse	0	t		6.0	2.5	/experiments/knapen_AOT/AOT_stimuli/rescaled_final/0139_fw.mp4	0.0	105.27788925170898	
8	81.25350999832153	movie	1		243	6.0	2.5	/experiments/knapen_AOT/AOT_stimuli/rescaled_final/0139_fw.mp4	0.0	106.09444117546082	2.500339984893799
8	82.03711199760437	pulse	1	t		6.0	2.5	/experiments/knapen_AOT/AOT_stimuli/rescaled_final/0139_fw.mp4	0.0	106.87804317474365	
8	83.63728213310242	pulse	1	t		6.0	2.5	/experiments/knapen_AOT/AOT_stimuli/rescaled_final/0139_fw.mp4	0.0	108.4782133102417	
8	83.75384998321533	fix_post	2		12	6.0	2.5	/experiments/knapen_AOT/AOT_stimuli/rescaled_final/0139_fw.mp4	0.0	108.59478116035461	0.10005903244018555
9	83.85390901565552	fix_pre	0		119	7.0	2.5	blank	1.0	108.6948401927948	0.9919159412384033
9	84.84582495689392	movie	1		300	7.0	2.5	blank	1.0	109.6867561340332	2.500261068344116
9	85.23772501945496	pulse	1	t		7.0	2.5	blank	1.0	110.07865619659424	
9	86.83792996406555	pulse	1	t		7.0	2.5	blank	1.0	111.67886114120483	
9	87.34608602523804	fix_post	2		12	7.0	2.5	blank	1.0	112.18701720237732	0.10004305839538574
10	87.44612908363342	fix_pre	0		120	8.0	2.5	/experiments/knapen_AOT/AOT_stimuli/rescaled_final/2156_fw.mp4	0.0	112.2870602607727	1.0001139640808105
10	88.43808317184448	pulse	0	t		8.0	2.5	/experiments/knapen_AOT/AOT_stimuli/rescaled_final/2156_fw.mp4	0.0	113.27901434898376	
10	88.44624304771423	movie	1		246	8.0	2.5	/experiments/knapen_AOT/AOT_stimuli/rescaled_final/2156_fw.mp4	0.0	113.28717422485352	2.5087640285491943
10	90.03879404067993	pulse	1	t		8.0	2.5	/experiments/knapen_AOT/AOT_stimuli/rescaled_final/2156_fw.mp4	0.0	114.87972521781921	
10	90.95500707626343	fix_post	2		12	8.0	2.5	/experiments/knapen_AOT/AOT_stimuli/rescaled_final/2156_fw.mp4	0.0	115.79593825340271	0.0999610424041748
11	91.0549681186676	fix_pre	0		120	9.0	2.5	/experiments/knapen_AOT/AOT_stimuli/rescaled_final/1991_fw.mp4	0.0	115.89589929580688	1.0001540184020996
11	91.63873600959778	pulse	0	t		9.0	2.5	/experiments/knapen_AOT/AOT_stimuli/rescaled_final/1991_fw.mp4	0.0	116.47966718673706	
11	92.0551221370697	movie	1		244	9.0	2.5	/experiments/knapen_AOT/AOT_stimuli/rescaled_final/1991_fw.mp4	0.0	116.89605331420898	2.5004119873046875
11	93.23893713951111	pulse	1	t		9.0	2.5	/experiments/knapen_AOT/AOT_stimuli/rescaled_final/1991_fw.mp4	0.0	118.07986831665039	
11	94.55553412437439	fix_post	2		12	9.0	2.5	/experiments/knapen_AOT/AOT_stimuli/rescaled_final/1991_fw.mp4	0.0	119.39646530151367	0.09997391700744629
12	94.65550804138184	fix_pre	0		120	10.0	2.5	/experiments/knapen_AOT/AOT_stimuli/rescaled_final/1346_rv.mp4	0.0	119.49643921852112	1.0001530647277832
12	94.83911395072937	pulse	0	t		10.0	2.5	/experiments/knapen_AOT/AOT_stimuli/rescaled_final/1346_rv.mp4	0.0	119.68004512786865	
12	95.65566110610962	movie	1		244	10.0	2.5	/experiments/knapen_AOT/AOT_stimuli/rescaled_final/1346_rv.mp4	0.0	120.4965922832489	2.500333070755005
12	96.43927311897278	pulse	1	t		10.0	2.5	/experiments/knapen_AOT/AOT_stimuli/rescaled_final/1346_rv.mp4	0.0	121.28020429611206	
12	98.03954410552979	pulse	1	t		10.0	2.5	/experiments/knapen_AOT/AOT_stimuli/rescaled_final/1346_rv.mp4	0.0	122.88047528266907	
12	98.15599417686462	fix_post	2		8	10.0	2.5	/experiments/knapen_AOT/AOT_stimuli/rescaled_final/1346_rv.mp4	0.0	122.9969253540039	0.10001587867736816
13	98.25601005554199	fix_pre	0		120	11.0	2.5	/experiments/knapen_AOT/AOT_stimuli/rescaled_final/1500_rv.mp4	0.0	123.09694123268127	1.0002169609069824
13	99.25622701644897	movie	1		244	11.0	2.5	/experiments/knapen_AOT/AOT_stimuli/rescaled_final/1500_rv.mp4	0.0	124.09715819358826	2.492025136947632
13	99.64097714424133	pulse	1	t		11.0	2.5	/experiments/knapen_AOT/AOT_stimuli/rescaled_final/1500_rv.mp4	0.0	124.48190832138062	
13	101.240070104599	pulse	1	t		11.0	2.5	/experiments/knapen_AOT/AOT_stimuli/rescaled_final/1500_rv.mp4	0.0	126.08100128173828	
13	101.7482521533966	fix_post	2		12	11.0	2.5	/experiments/knapen_AOT/AOT_stimuli/rescaled_final/1500_rv.mp4	0.0	126.58918333053589	0.10007882118225098
14	101.84833097457886	fix_pre	0		120	12.0	2.5	blank	1.0	126.68926215171814	1.0000901222229004
14	102.84024810791016	pulse	0	t		12.0	2.5	blank	1.0	127.68117928504944	
14	102.84842109680176	movie	1		301	12.0	2.5	blank	1.0	127.68935227394104	2.5086829662323
14	104.4405620098114	pulse	1	t		12.0	2.5	blank	1.0	129.28149318695068	
14	105.35710406303406	fix_post	2		12	12.0	2.5	blank	1.0	130.19803524017334	0.10001301765441895
15	105.45711708068848	fix_pre	0		120	13.0	2.5	/experiments/knapen_AOT/AOT_stimuli/rescaled_final/0943_rv.mp4	0.0	130.29804825782776	1.0001518726348877
15	106.04084897041321	pulse	0	t		13.0	2.5	/experiments/knapen_AOT/AOT_stimuli/rescaled_final/0943_rv.mp4	0.0	130.8817801475525	
15	106.45726895332336	movie	1		243	13.0	2.5	/experiments/knapen_AOT/AOT_stimuli/rescaled_final/0943_rv.mp4	0.0	131.29820013046265	2.5003461837768555
15	107.63738703727722	pulse	1	t		13.0	2.5	/experiments/knapen_AOT/AOT_stimuli/rescaled_final/0943_rv.mp4	0.0	132.4783182144165	
15	108.95761513710022	fix_post	2		12	13.0	2.5	/experiments/knapen_AOT/AOT_stimuli/rescaled_final/0943_rv.mp4	0.0	133.7985463142395	0.1000359058380127
16	109.05765104293823	fix_pre	0		120	14.0	2.5	/experiments/knapen_AOT/AOT_stimuli/rescaled_final/0309_fw.mp4	0.0	133.89858222007751	1.0001299381256104
16	109.24123096466064	pulse	0	t		14.0	2.5	/experiments/knapen_AOT/AOT_stimuli/rescaled_final/0309_fw.mp4	0.0	134.08216214179993	
16	110.05778098106384	movie	1		245	14.0	2.5	/experiments/knapen_AOT/AOT_stimuli/rescaled_final/0309_fw.mp4	0.0	134.89871215820312	2.500465154647827
16	110.84150409698486	pulse	1	t		14.0	2.5	/experiments/knapen_AOT/AOT_stimuli/rescaled_final/0309_fw.mp4	0.0	135.68243527412415	
16	112.43937301635742	pulse	1	t		14.0	2.5	/experiments/knapen_AOT/AOT_stimuli/rescaled_final/0309_fw.mp4	0.0	137.2803041934967	
16	112.55824613571167	fix_post	2		12	14.0	2.5	/experiments/knapen_AOT/AOT_stimuli/rescaled_final/0309_fw.mp4	0.0	137.39917731285095	0.09996891021728516
17	112.65821504592896	fix_pre	0		119	15.0	2.5	/experiments/knapen_AOT/AOT_stimuli/rescaled_final/0046_fw.mp4	0.0	137.49914622306824	0.9917631149291992
17	113.64997816085815	movie	1		245	15.0	2.5	/experiments/knapen_AOT/AOT_stimuli/rescaled_final/0046_fw.mp4	0.0	138.49090933799744	2.5004429817199707
17	114.03807711601257	pulse	1	t		15.0	2.5	/experiments/knapen_AOT/AOT_stimuli/rescaled_final/0046_fw.mp4	0.0	138.87900829315186	
17	115.64213514328003	pulse	1	t		15.0	2.5	/experiments/knapen_AOT/AOT_stimuli/rescaled_final/0046_fw.mp4	0.0	140.4830663204193	
17	116.15042114257812	fix_post	2		12	15.0	2.5	/experiments/knapen_AOT/AOT_stimuli/rescaled_final/0046_fw.mp4	0.0	140.9913523197174	0.09995603561401367
18	116.25037717819214	fix_pre	0		120	16.0	2.5	/experiments/knapen_AOT/AOT_stimuli/rescaled_final/0418_fw.mp4	0.0	141.09130835533142	1.0002038478851318
18	117.24242115020752	pulse	0	t		16.0	2.5	/experiments/knapen_AOT/AOT_stimuli/rescaled_final/0418_fw.mp4	0.0	142.0833523273468	
18	117.25058102607727	movie	1		246	16.0	2.5	/experiments/knapen_AOT/AOT_stimuli/rescaled_final/0418_fw.mp4	0.0	142.09151220321655	2.5086820125579834
18	118.84316110610962	pulse	1	t		16.0	2.5	/experiments/knapen_AOT/AOT_stimuli/rescaled_final/0418_fw.mp4	0.0	143.6840922832489	
18	119.75926303863525	fix_post	2		12	16.0	2.5	/experiments/knapen_AOT/AOT_stimuli/rescaled_final/0418_fw.mp4	0.0	144.60019421577454	0.10001611709594727
19	119.8592791557312	fix_pre	0		120	17.0	2.5	/experiments/knapen_AOT/AOT_stimuli/rescaled_final/1555_fw.mp4	0.0	144.70021033287048	1.0001659393310547
19	120.43543004989624	pulse	0	t		17.0	2.5	/experiments/knapen_AOT/AOT_stimuli/rescaled_final/1555_fw.mp4	0.0	145.27636122703552	
19	120.85944509506226	movie	1		244	17.0	2.5	/experiments/knapen_AOT/AOT_stimuli/rescaled_final/1555_fw.mp4	0.0	145.70037627220154	2.500393867492676
19	122.03595805168152	pulse	1	t		17.0	2.5	/experiments/knapen_AOT/AOT_stimuli/rescaled_final/1555_fw.mp4	0.0	146.8768892288208	
19	123.35983896255493	fix_post	2		12	17.0	2.5	/experiments/knapen_AOT/AOT_stimuli/rescaled_final/1555_fw.mp4	0.0	148.2007701396942	0.09996318817138672
20	123.45980215072632	fix_pre	0		120	18.0	2.5	/experiments/knapen_AOT/AOT_stimuli/rescaled_final/0570_fw.mp4	0.0	148.3007333278656	1.0001399517059326
20	123.63587999343872	pulse	0	t		18.0	2.5	/experiments/knapen_AOT/AOT_stimuli/rescaled_final/0570_fw.mp4	0.0	148.476811170578	
20	124.45994210243225	movie	1		245	18.0	2.5	/experiments/knapen_AOT/AOT_stimuli/rescaled_final/0570_fw.mp4	0.0	149.30087327957153	2.500411033630371
20	125.23611211776733	pulse	1	t		18.0	2.5	/experiments/knapen_AOT/AOT_stimuli/rescaled_final/0570_fw.mp4	0.0	150.07704329490662	
20	126.83543515205383	pulse	1	t		18.0	2.5	/experiments/knapen_AOT/AOT_stimuli/rescaled_final/0570_fw.mp4	0.0	151.67636632919312	
20	126.96035313606262	fix_post	2		12	18.0	2.5	/experiments/knapen_AOT/AOT_stimuli/rescaled_final/0570_fw.mp4	0.0	151.8012843132019	0.09998488426208496
21	127.0603380203247	fix_pre	0		120	19.0	2.5	/experiments/knapen_AOT/AOT_stimuli/rescaled_final/0795_rv.mp4	0.0	151.901269197464	1.000162124633789
21	128.0605001449585	movie	1		243	19.0	2.5	/experiments/knapen_AOT/AOT_stimuli/rescaled_final/0795_rv.mp4	0.0	152.90143132209778	2.492055892944336
21	128.43572998046875	pulse	1	t		19.0	2.5	/experiments/knapen_AOT/AOT_stimuli/rescaled_final/0795_rv.mp4	0.0	153.27666115760803	
21	130.03610706329346	pulse	1	t		19.0	2.5	/experiments/knapen_AOT/AOT_stimuli/rescaled_final/0795_rv.mp4	0.0	154.87703824043274	
21	130.55255603790283	fix_post	2		12	19.0	2.5	/experiments/knapen_AOT/AOT_stimuli/rescaled_final/0795_rv.mp4	0.0	155.39348721504211	0.09999203681945801
22	130.6525480747223	fix_pre	0		119	20.0	2.5	/experiments/knapen_AOT/AOT_stimuli/rescaled_final/0570_rv.mp4	0.0	155.49347925186157	0.9918348789215088
22	131.6362280845642	pulse	0	t		20.0	2.5	/experiments/knapen_AOT/AOT_stimuli/rescaled_final/0570_rv.mp4	0.0	156.4771592617035	
22	131.6443829536438	movie	1		246	20.0	2.5	/experiments/knapen_AOT/AOT_stimuli/rescaled_final/0570_rv.mp4	0.0	156.48531413078308	2.508660078048706
22	133.2368791103363	pulse	1	t		20.0	2.5	/experiments/knapen_AOT/AOT_stimuli/rescaled_final/0570_rv.mp4	0.0	158.0778102874756	
22	134.1530430316925	fix_post	2		12	20.0	2.5	/experiments/knapen_AOT/AOT_stimuli/rescaled_final/0570_rv.mp4	0.0	158.9939742088318	0.10004901885986328
23	134.25309205055237	fix_pre	0		120	21.0	2.5	blank	1.0	159.09402322769165	1.0002341270446777
23	134.8366720676422	pulse	0	t		21.0	2.5	blank	1.0	159.6776032447815	
23	135.25332617759705	movie	1		300	21.0	2.5	blank	1.0	160.09425735473633	2.5003628730773926
23	136.4371521472931	pulse	1	t		21.0	2.5	blank	1.0	161.27808332443237	
23	137.75368905067444	fix_post	2		12	21.0	2.5	blank	1.0	162.59462022781372	0.09989595413208008
24	137.85358500480652	fix_pre	0		120	22.0	2.5	/experiments/knapen_AOT/AOT_stimuli/rescaled_final/0359_rv.mp4	0.0	162.6945161819458	1.0001490116119385
24	138.03719401359558	pulse	0	t		22.0	2.5	/experiments/knapen_AOT/AOT_stimuli/rescaled_final/0359_rv.mp4	0.0	162.87812519073486	
24	138.85373401641846	movie	1		245	22.0	2.5	/experiments/knapen_AOT/AOT_stimuli/rescaled_final/0359_rv.mp4	0.0	163.69466519355774	2.5003671646118164
24	139.63741612434387	pulse	1	t		22.0	2.5	/experiments/knapen_AOT/AOT_stimuli/rescaled_final/0359_rv.mp4	0.0	164.47834730148315	
24	141.23760604858398	pulse	1	t		22.0	2.5	/experiments/knapen_AOT/AOT_stimuli/rescaled_final/0359_rv.mp4	0.0	166.07853722572327	
24	141.35410118103027	fix_post	2		12	22.0	2.5	/experiments/knapen_AOT/AOT_stimuli/rescaled_final/0359_rv.mp4	0.0	166.19503235816956	0.10006093978881836
25	141.4541621208191	fix_pre	0		120	23.0	2.5	/experiments/knapen_AOT/AOT_stimuli/rescaled_final/0588_fw.mp4	0.0	166.29509329795837	1.0001468658447266
25	142.45430898666382	movie	1		243	23.0	2.5	/experiments/knapen_AOT/AOT_stimuli/rescaled_final/0588_fw.mp4	0.0	167.2952401638031	2.4920690059661865
25	142.83842706680298	pulse	1	t		23.0	2.5	/experiments/knapen_AOT/AOT_stimuli/rescaled_final/0588_fw.mp4	0.0	167.67935824394226	
25	144.43816804885864	pulse	1	t		23.0	2.5	/experiments/knapen_AOT/AOT_stimuli/rescaled_final/0588_fw.mp4	0.0	169.27909922599792	
25	144.94637799263	fix_post	2		12	23.0	2.5	/experiments/knapen_AOT/AOT_stimuli/rescaled_final/0588_fw.mp4	0.0	169.7873091697693	0.10006403923034668
26	145.04644203186035	fix_pre	0		120	24.0	2.5	/experiments/knapen_AOT/AOT_stimuli/rescaled_final/0336_fw.mp4	0.0	169.88737320899963	1.0001180171966553
26	146.03832602500916	pulse	0	t		24.0	2.5	/experiments/knapen_AOT/AOT_stimuli/rescaled_final/0336_fw.mp4	0.0	170.87925720214844	
26	146.046560049057	movie	1		245	24.0	2.5	/experiments/knapen_AOT/AOT_stimuli/rescaled_final/0336_fw.mp4	0.0	170.8874912261963	2.5086669921875
26	147.63919711112976	pulse	1	t		24.0	2.5	/experiments/knapen_AOT/AOT_stimuli/rescaled_final/0336_fw.mp4	0.0	172.48012828826904	
26	148.5552270412445	fix_post	2		12	24.0	2.5	/experiments/knapen_AOT/AOT_stimuli/rescaled_final/0336_fw.mp4	0.0	173.3961582183838	0.1000070571899414
27	148.65523409843445	fix_pre	0		120	25.0	2.5	/experiments/knapen_AOT/AOT_stimuli/rescaled_final/1388_rv.mp4	0.0	173.49616527557373	1.0001490116119385
27	149.23884201049805	pulse	0	t		25.0	2.5	/experiments/knapen_AOT/AOT_stimuli/rescaled_final/1388_rv.mp4	0.0	174.07977318763733	
27	149.6553831100464	movie	1		245	25.0	2.5	/experiments/knapen_AOT/AOT_stimuli/rescaled_final/1388_rv.mp4	0.0	174.49631428718567	2.500370979309082
27	150.83917999267578	pulse	1	t		25.0	2.5	/experiments/knapen_AOT/AOT_stimuli/rescaled_final/1388_rv.mp4	0.0	175.68011116981506	
27	152.15575408935547	fix_post	2		12	25.0	2.5	/experiments/knapen_AOT/AOT_stimuli/rescaled_final/1388_rv.mp4	0.0	176.99668526649475	0.10004901885986328
28	152.25580310821533	fix_pre	0		120	26.0	2.5	/experiments/knapen_AOT/AOT_stimuli/rescaled_final/1205_rv.mp4	0.0	177.09673428535461	1.0000948905944824
28	152.43940997123718	pulse	0	t		26.0	2.5	/experiments/knapen_AOT/AOT_stimuli/rescaled_final/1205_rv.mp4	0.0	177.28034114837646	
28	153.25589799880981	movie	1		244	26.0	2.5	/experiments/knapen_AOT/AOT_stimuli/rescaled_final/1205_rv.mp4	0.0	178.0968291759491	2.5003721714019775
28	154.0396511554718	pulse	1	t		26.0	2.5	/experiments/knapen_AOT/AOT_stimuli/rescaled_final/1205_rv.mp4	0.0	178.88058233261108	
28	155.63750410079956	pulse	1	t		26.0	2.5	/experiments/knapen_AOT/AOT_stimuli/rescaled_final/1205_rv.mp4	0.0	180.47843527793884	
28	155.7562701702118	fix_post	2		12	26.0	2.5	/experiments/knapen_AOT/AOT_stimuli/rescaled_final/1205_rv.mp4	0.0	180.59720134735107	0.10005688667297363
29	155.85632705688477	fix_pre	0		119	27.0	2.5	blank	1.0	180.69725823402405	0.9917919635772705
29	156.84811902046204	movie	1		297	27.0	2.5	blank	1.0	181.68905019760132	2.5004079341888428
29	157.2400770187378	pulse	1	t		27.0	2.5	blank	1.0	182.08100819587708	
29	158.8402910232544	pulse	1	t		27.0	2.5	blank	1.0	183.68122220039368	
29	159.34852695465088	fix_post	2		12	27.0	2.5	blank	1.0	184.18945813179016	0.09997010231018066
30	159.44849705696106	fix_pre	0		120	28.0	2.5	/experiments/knapen_AOT/AOT_stimuli/rescaled_final/0113_fw.mp4	0.0	184.28942823410034	1.000162124633789
30	160.44064712524414	pulse	0	t		28.0	2.5	/experiments/knapen_AOT/AOT_stimuli/rescaled_final/0113_fw.mp4	0.0	185.28157830238342	
30	160.44865918159485	movie	1		246	28.0	2.5	/experiments/knapen_AOT/AOT_stimuli/rescaled_final/0113_fw.mp4	0.0	185.28959035873413	2.508694887161255
30	162.04493713378906	pulse	1	t		28.0	2.5	/experiments/knapen_AOT/AOT_stimuli/rescaled_final/0113_fw.mp4	0.0	186.88586831092834	
30	162.9573540687561	fix_post	2		12	28.0	2.5	/experiments/knapen_AOT/AOT_stimuli/rescaled_final/0113_fw.mp4	0.0	187.79828524589539	0.10007596015930176
31	163.0574300289154	fix_pre	0		120	29.0	2.5	/experiments/knapen_AOT/AOT_stimuli/rescaled_final/0028_fw.mp4	0.0	187.8983612060547	1.000093936920166
31	163.64097809791565	pulse	0	t		29.0	2.5	/experiments/knapen_AOT/AOT_stimuli/rescaled_final/0028_fw.mp4	0.0	188.48190927505493	
31	164.05752396583557	movie	1		244	29.0	2.5	/experiments/knapen_AOT/AOT_stimuli/rescaled_final/0028_fw.mp4	0.0	188.89845514297485	2.5003600120544434
31	165.2412760257721	pulse	1	t		29.0	2.5	/experiments/knapen_AOT/AOT_stimuli/rescaled_final/0028_fw.mp4	0.0	190.08220720291138	
31	166.55788397789001	fix_post	2		12	29.0	2.5	/experiments/knapen_AOT/AOT_stimuli/rescaled_final/0028_fw.mp4	0.0	191.3988151550293	0.10004711151123047
32	166.65793108940125	fix_pre	0		120	30.0	2.5	/experiments/knapen_AOT/AOT_stimuli/rescaled_final/1667_fw.mp4	0.0	191.49886226654053	1.0001389980316162
32	166.8417010307312	pulse	0	t		30.0	2.5	/experiments/knapen_AOT/AOT_stimuli/rescaled_final/1667_fw.mp4	0.0	191.68263220787048	
32	167.65807008743286	movie	1		245	30.0	2.5	/experiments/knapen_AOT/AOT_stimuli/rescaled_final/1667_fw.mp4	0.0	192.49900126457214	2.500386953353882
32	168.44168901443481	pulse	1	t		30.0	2.5	/experiments/knapen_AOT/AOT_stimuli/rescaled_final/1667_fw.mp4	0.0	193.2826201915741	
32	170.04200410842896	pulse	1	t		30.0	2.5	/experiments/knapen_AOT/AOT_stimuli/rescaled_final/1667_fw.mp4	0.0	194.88293528556824	
32	170.15845704078674	fix_post	2		12	30.0	2.5	/experiments/knapen_AOT/AOT_stimuli/rescaled_final/1667_fw.mp4	0.0	194.99938821792603	0.10007095336914062
33	170.25852799415588	fix_pre	0		120	31.0	2.5	/experiments/knapen_AOT/AOT_stimuli/rescaled_final/1346_rv.mp4	0.0	195.09945917129517	1.0000829696655273
33	171.2586109638214	movie	1		243	31.0	2.5	/experiments/knapen_AOT/AOT_stimuli/rescaled_final/1346_rv.mp4	0.0	196.0995421409607	2.4920051097869873
33	171.64652705192566	pulse	1	t		31.0	2.5	/experiments/knapen_AOT/AOT_stimuli/rescaled_final/1346_rv.mp4	0.0	196.48745822906494	
33	173.24248909950256	pulse	1	t		31.0	2.5	/experiments/knapen_AOT/AOT_stimuli/rescaled_final/1346_rv.mp4	0.0	198.08342027664185	
33	173.7506160736084	fix_post	2		12	31.0	2.5	/experiments/knapen_AOT/AOT_stimuli/rescaled_final/1346_rv.mp4	0.0	198.59154725074768	0.1000359058380127
34	173.8506519794464	fix_pre	0		120	32.0	2.5	/experiments/knapen_AOT/AOT_stimuli/rescaled_final/0472_rv.mp4	0.0	198.6915831565857	1.000157117843628
34	174.84267115592957	pulse	0	t		32.0	2.5	/experiments/knapen_AOT/AOT_stimuli/rescaled_final/0472_rv.mp4	0.0	199.68360233306885	
34	174.85080909729004	movie	1		246	32.0	2.5	/experiments/knapen_AOT/AOT_stimuli/rescaled_final/0472_rv.mp4	0.0	199.69174027442932	2.5087409019470215
34	176.44470310211182	pulse	1	t		32.0	2.5	/experiments/knapen_AOT/AOT_stimuli/rescaled_final/0472_rv.mp4	0.0	201.2856342792511	
34	177.35954999923706	fix_post	2		12	32.0	2.5	/experiments/knapen_AOT/AOT_stimuli/rescaled_final/0472_rv.mp4	0.0	202.20048117637634	0.09996294975280762
35	177.45951294898987	fix_pre	0		120	33.0	2.5	/experiments/knapen_AOT/AOT_stimuli/rescaled_final/0233_rv.mp4	0.0	202.30044412612915	1.0001881122589111
35	178.0431649684906	pulse	0	t		33.0	2.5	/experiments/knapen_AOT/AOT_stimuli/rescaled_final/0233_rv.mp4	0.0	202.88409614562988	
35	178.45970106124878	movie	1		244	33.0	2.5	/experiments/knapen_AOT/AOT_stimuli/rescaled_final/0233_rv.mp4	0.0	203.30063223838806	2.5003440380096436
35	179.64345598220825	pulse	1	t		33.0	2.5	/experiments/knapen_AOT/AOT_stimuli/rescaled_final/0233_rv.mp4	0.0	204.48438715934753	
35	180.96004509925842	fix_post	2		12	33.0	2.5	/experiments/knapen_AOT/AOT_stimuli/rescaled_final/0233_rv.mp4	0.0	205.8009762763977	0.1000208854675293
36	181.06006598472595	fix_pre	0		120	34.0	2.5	/experiments/knapen_AOT/AOT_stimuli/rescaled_final/1434_rv.mp4	0.0	205.90099716186523	1.0001780986785889
36	181.23523211479187	pulse	0	t		34.0	2.5	/experiments/knapen_AOT/AOT_stimuli/rescaled_final/1434_rv.mp4	0.0	206.07616329193115	
36	182.06024408340454	movie	1		245	34.0	2.5	/experiments/knapen_AOT/AOT_stimuli/rescaled_final/1434_rv.mp4	0.0	206.90117526054382	2.500321865081787
36	182.83553504943848	pulse	1	t		34.0	2.5	/experiments/knapen_AOT/AOT_stimuli/rescaled_final/1434_rv.mp4	0.0	207.67646622657776	
36	184.4358949661255	pulse	1	t		34.0	2.5	/experiments/knapen_AOT/AOT_stimuli/rescaled_final/1434_rv.mp4	0.0	209.27682614326477	
36	184.56056594848633	fix_post	2		12	34.0	2.5	/experiments/knapen_AOT/AOT_stimuli/rescaled_final/1434_rv.mp4	0.0	209.4014971256256	0.10004305839538574
37	184.6606090068817	fix_pre	0		120	35.0	2.5	blank	1.0	209.501540184021	1.0001301765441895
37	185.6607391834259	movie	1		299	35.0	2.5	blank	1.0	210.50167036056519	2.4920709133148193
37	186.0360369682312	pulse	1	t		35.0	2.5	blank	1.0	210.87696814537048	
37	187.63619112968445	pulse	1	t		35.0	2.5	blank	1.0	212.47712230682373	
37	188.15281009674072	fix_post	2		12	35.0	2.5	blank	1.0	212.99374127388	0.09999489784240723
38	188.25280499458313	fix_pre	0		119	36.0	2.5	/experiments/knapen_AOT/AOT_stimuli/rescaled_final/1733_rv.mp4	0.0	213.0937361717224	0.9918429851531982
38	189.23646712303162	pulse	0	t		36.0	2.5	/experiments/knapen_AOT/AOT_stimuli/rescaled_final/1733_rv.mp4	0.0	214.0773983001709	
38	189.24464797973633	movie	1		245	36.0	2.5	/experiments/knapen_AOT/AOT_stimuli/rescaled_final/1733_rv.mp4	0.0	214.0855791568756	2.50872802734375
38	190.83729195594788	pulse	1	t		36.0	2.5	/experiments/knapen_AOT/AOT_stimuli/rescaled_final/1733_rv.mp4	0.0	215.67822313308716	
38	191.75337600708008	fix_post	2		12	36.0	2.5	/experiments/knapen_AOT/AOT_stimuli/rescaled_final/1733_rv.mp4	0.0	216.59430718421936	0.10003399848937988
39	191.85341000556946	fix_pre	0		120	37.0	2.5	/experiments/knapen_AOT/AOT_stimuli/rescaled_final/0501_fw.mp4	0.0	216.69434118270874	1.0000741481781006
39	192.4370710849762	pulse	0	t		37.0	2.5	/experiments/knapen_AOT/AOT_stimuli/rescaled_final/0501_fw.mp4	0.0	217.27800226211548	
39	192.85348415374756	movie	1		244	37.0	2.5	/experiments/knapen_AOT/AOT_stimuli/rescaled_final/0501_fw.mp4	0.0	217.69441533088684	2.5003859996795654
39	194.0372769832611	pulse	1	t		37.0	2.5	/experiments/knapen_AOT/AOT_stimuli/rescaled_final/0501_fw.mp4	0.0	218.8782081604004	
39	195.35387015342712	fix_post	2		12	37.0	2.5	/experiments/knapen_AOT/AOT_stimuli/rescaled_final/0501_fw.mp4	0.0	220.1948013305664	0.10000181198120117
40	195.45387196540833	fix_pre	0		120	38.0	2.5	/experiments/knapen_AOT/AOT_stimuli/rescaled_final/0139_fw.mp4	0.0	220.2948031425476	1.0001552104949951
40	195.63744711875916	pulse	0	t		38.0	2.5	/experiments/knapen_AOT/AOT_stimuli/rescaled_final/0139_fw.mp4	0.0	220.47837829589844	
40	196.45402717590332	movie	1		243	38.0	2.5	/experiments/knapen_AOT/AOT_stimuli/rescaled_final/0139_fw.mp4	0.0	221.2949583530426	2.500394821166992
40	197.2378170490265	pulse	1	t		38.0	2.5	/experiments/knapen_AOT/AOT_stimuli/rescaled_final/0139_fw.mp4	0.0	222.07874822616577	
40	198.8377411365509	pulse	1	t		38.0	2.5	/experiments/knapen_AOT/AOT_stimuli/rescaled_final/0139_fw.mp4	0.0	223.67867231369019	
40	198.9544219970703	fix_post	2		12	38.0	2.5	/experiments/knapen_AOT/AOT_stimuli/rescaled_final/0139_fw.mp4	0.0	223.7953531742096	0.09997296333312988
41	199.05439496040344	fix_pre	0		120	39.0	2.5	/experiments/knapen_AOT/AOT_stimuli/rescaled_final/2101_fw.mp4	0.0	223.89532613754272	1.0001661777496338
41	200.05456113815308	movie	1		243	39.0	2.5	/experiments/knapen_AOT/AOT_stimuli/rescaled_final/2101_fw.mp4	0.0	224.89549231529236	2.4920618534088135
41	200.4422149658203	pulse	1	t		39.0	2.5	/experiments/knapen_AOT/AOT_stimuli/rescaled_final/2101_fw.mp4	0.0	225.2831461429596	
41	202.03840899467468	pulse	1	t		39.0	2.5	/experiments/knapen_AOT/AOT_stimuli/rescaled_final/2101_fw.mp4	0.0	226.87934017181396	
41	202.5466229915619	fix_post	2		12	39.0	2.5	/experiments/knapen_AOT/AOT_stimuli/rescaled_final/2101_fw.mp4	0.0	227.38755416870117	0.10001897811889648
42	202.6466419696808	fix_pre	0		120	40.0	2.5	/experiments/knapen_AOT/AOT_stimuli/rescaled_final/0275_rv.mp4	0.0	227.48757314682007	1.000171184539795
42	203.63869500160217	pulse	0	t		40.0	2.5	/experiments/knapen_AOT/AOT_stimuli/rescaled_final/0275_rv.mp4	0.0	228.47962617874146	
42	203.64681315422058	movie	1		245	40.0	2.5	/experiments/knapen_AOT/AOT_stimuli/rescaled_final/0275_rv.mp4	0.0	228.48774433135986	2.5086607933044434
42	205.23963618278503	pulse	1	t		40.0	2.5	/experiments/knapen_AOT/AOT_stimuli/rescaled_final/0275_rv.mp4	0.0	230.08056735992432	
42	206.15547394752502	fix_post	2		12	40.0	2.5	/experiments/knapen_AOT/AOT_stimuli/rescaled_final/0275_rv.mp4	0.0	230.9964051246643	0.10010910034179688
43	206.25558304786682	fix_pre	0		120	41.0	2.5	blank	1.0	231.0965142250061	1.0000839233398438
43	206.8391489982605	pulse	0	t		41.0	2.5	blank	1.0	231.68008017539978	
43	207.25566697120667	movie	1		300	41.0	2.5	blank	1.0	232.09659814834595	2.5003581047058105
43	208.4393470287323	pulse	1	t		41.0	2.5	blank	1.0	233.28027820587158	
43	209.75602507591248	fix_post	2		12	41.0	2.5	blank	1.0	234.59695625305176	0.10002398490905762
44	209.85604906082153	fix_pre	0		120	42.0	2.5	/experiments/knapen_AOT/AOT_stimuli/rescaled_final/1910_rv.mp4	0.0	234.69698023796082	1.000119924545288
44	210.03968501091003	pulse	0	t		42.0	2.5	/experiments/knapen_AOT/AOT_stimuli/rescaled_final/1910_rv.mp4	0.0	234.88061618804932	
44	210.85616898536682	movie	1		245	42.0	2.5	/experiments/knapen_AOT/AOT_stimuli/rescaled_final/1910_rv.mp4	0.0	235.6971001625061	2.5003931522369385
44	211.639976978302	pulse	1	t		42.0	2.5	/experiments/knapen_AOT/AOT_stimuli/rescaled_final/1910_rv.mp4	0.0	236.48090815544128	
44	213.23771405220032	pulse	1	t		42.0	2.5	/experiments/knapen_AOT/AOT_stimuli/rescaled_final/1910_rv.mp4	0.0	238.0786452293396	
44	213.35656213760376	fix_post	2		12	42.0	2.5	/experiments/knapen_AOT/AOT_stimuli/rescaled_final/1910_rv.mp4	0.0	238.19749331474304	0.09999704360961914
45	213.45655918121338	fix_pre	0		120	43.0	2.5	/experiments/knapen_AOT/AOT_stimuli/rescaled_final/0185_fw.mp4	0.0	238.29749035835266	1.0002069473266602
45	214.45676612854004	movie	1		244	43.0	2.5	/experiments/knapen_AOT/AOT_stimuli/rescaled_final/0185_fw.mp4	0.0	239.29769730567932	2.491982936859131
45	214.8408260345459	pulse	1	t		43.0	2.5	/experiments/knapen_AOT/AOT_stimuli/rescaled_final/0185_fw.mp4	0.0	239.68175721168518	
45	216.44063997268677	pulse	1	t		43.0	2.5	/experiments/knapen_AOT/AOT_stimuli/rescaled_final/0185_fw.mp4	0.0	241.28157114982605	
45	216.94874906539917	fix_post	2		12	43.0	2.5	/experiments/knapen_AOT/AOT_stimuli/rescaled_final/0185_fw.mp4	0.0	241.78968024253845	0.10118889808654785
46	217.04993796348572	fix_pre	0		117	44.0	2.5	/experiments/knapen_AOT/AOT_stimuli/rescaled_final/0543_rv.mp4	0.0	241.890869140625	0.9990041255950928
46	218.040913105011	pulse	0	t		44.0	2.5	/experiments/knapen_AOT/AOT_stimuli/rescaled_final/0543_rv.mp4	0.0	242.88184428215027	
46	218.0489420890808	movie	1		245	44.0	2.5	/experiments/knapen_AOT/AOT_stimuli/rescaled_final/0543_rv.mp4	0.0	242.8898732662201	2.5087430477142334
46	219.64279699325562	pulse	1	t		44.0	2.5	/experiments/knapen_AOT/AOT_stimuli/rescaled_final/0543_rv.mp4	0.0	244.4837281703949	
46	220.55768513679504	fix_post	2		12	44.0	2.5	/experiments/knapen_AOT/AOT_stimuli/rescaled_final/0543_rv.mp4	0.0	245.39861631393433	0.09995603561401367
47	220.65764117240906	fix_pre	0		120	45.0	2.5	/experiments/knapen_AOT/AOT_stimuli/rescaled_final/0867_rv.mp4	0.0	245.49857234954834	1.0001888275146484
47	221.24123907089233	pulse	0	t		45.0	2.5	/experiments/knapen_AOT/AOT_stimuli/rescaled_final/0867_rv.mp4	0.0	246.08217024803162	
47	221.6578299999237	movie	1		244	45.0	2.5	/experiments/knapen_AOT/AOT_stimuli/rescaled_final/0867_rv.mp4	0.0	246.498761177063	2.500307083129883
47	222.8416531085968	pulse	1	t		45.0	2.5	/experiments/knapen_AOT/AOT_stimuli/rescaled_final/0867_rv.mp4	0.0	247.68258428573608	
47	224.1581370830536	fix_post	2		12	45.0	2.5	/experiments/knapen_AOT/AOT_stimuli/rescaled_final/0867_rv.mp4	0.0	248.99906826019287	0.10004186630249023
48	224.25817894935608	fix_pre	0		120	46.0	2.5	/experiments/knapen_AOT/AOT_stimuli/rescaled_final/1954_fw.mp4	0.0	249.09911012649536	1.0001850128173828
48	224.44183206558228	pulse	0	t		46.0	2.5	/experiments/knapen_AOT/AOT_stimuli/rescaled_final/1954_fw.mp4	0.0	249.28276324272156	
48	225.25836396217346	movie	1		243	46.0	2.5	/experiments/knapen_AOT/AOT_stimuli/rescaled_final/1954_fw.mp4	0.0	250.09929513931274	2.5003960132598877
48	226.0421450138092	pulse	1	t		46.0	2.5	/experiments/knapen_AOT/AOT_stimuli/rescaled_final/1954_fw.mp4	0.0	250.8830761909485	
48	227.64232110977173	pulse	1	t		46.0	2.5	/experiments/knapen_AOT/AOT_stimuli/rescaled_final/1954_fw.mp4	0.0	252.483252286911	
48	227.75875997543335	fix_post	2		12	46.0	2.5	/experiments/knapen_AOT/AOT_stimuli/rescaled_final/1954_fw.mp4	0.0	252.59969115257263	0.09995412826538086
49	227.85871410369873	fix_pre	0		120	47.0	2.5	blank	1.0	252.699645280838	1.0001389980316162
49	228.85885310173035	movie	1		299	47.0	2.5	blank	1.0	253.69978427886963	2.4920589923858643
49	229.24244117736816	pulse	1	t		47.0	2.5	blank	1.0	254.08337235450745	
49	230.842698097229	pulse	1	t		47.0	2.5	blank	1.0	255.6836292743683	
49	231.3509120941162	fix_post	2		12	47.0	2.5	blank	1.0	256.1918432712555	0.10000991821289062
50	231.4509220123291	fix_pre	0		120	48.0	2.5	/experiments/knapen_AOT/AOT_stimuli/rescaled_final/1340_rv.mp4	0.0	256.2918531894684	1.0001530647277832
50	232.44295406341553	pulse	0	t		48.0	2.5	/experiments/knapen_AOT/AOT_stimuli/rescaled_final/1340_rv.mp4	0.0	257.2838852405548	
50	232.45107507705688	movie	1		244	48.0	2.5	/experiments/knapen_AOT/AOT_stimuli/rescaled_final/1340_rv.mp4	0.0	257.29200625419617	2.5088090896606445
50	234.04386615753174	pulse	1	t		48.0	2.5	/experiments/knapen_AOT/AOT_stimuli/rescaled_final/1340_rv.mp4	0.0	258.884797334671	
50	234.95988416671753	fix_post	2		12	48.0	2.5	/experiments/knapen_AOT/AOT_stimuli/rescaled_final/1340_rv.mp4	0.0	259.8008153438568	0.09993481636047363
51	235.059818983078	fix_pre	0		120	49.0	2.5	/experiments/knapen_AOT/AOT_stimuli/rescaled_final/1864_rv.mp4	0.0	259.9007501602173	1.0001301765441895
51	235.63584518432617	pulse	0	t		49.0	2.5	/experiments/knapen_AOT/AOT_stimuli/rescaled_final/1864_rv.mp4	0.0	260.47677636146545	
51	236.0599491596222	movie	1		243	49.0	2.5	/experiments/knapen_AOT/AOT_stimuli/rescaled_final/1864_rv.mp4	0.0	260.9008803367615	2.5003459453582764
51	237.2361500263214	pulse	1	t		49.0	2.5	/experiments/knapen_AOT/AOT_stimuli/rescaled_final/1864_rv.mp4	0.0	262.0770812034607	
51	238.56029510498047	fix_post	2		12	49.0	2.5	/experiments/knapen_AOT/AOT_stimuli/rescaled_final/1864_rv.mp4	0.0	263.40122628211975	0.10006403923034668
52	238.66035914421082	fix_pre	0		120	50.0	2.5	/experiments/knapen_AOT/AOT_stimuli/rescaled_final/0862_rv.mp4	0.0	263.5012903213501	1.0001418590545654
52	238.83643007278442	pulse	0	t		50.0	2.5	/experiments/knapen_AOT/AOT_stimuli/rescaled_final/0862_rv.mp4	0.0	263.6773612499237	
52	239.66050100326538	movie	1		243	50.0	2.5	/experiments/knapen_AOT/AOT_stimuli/rescaled_final/0862_rv.mp4	0.0	264.50143218040466	2.5003790855407715
52	240.43575596809387	pulse	1	t		50.0	2.5	/experiments/knapen_AOT/AOT_stimuli/rescaled_final/0862_rv.mp4	0.0	265.27668714523315	
52	242.03599405288696	pulse	1	t		50.0	2.5	/experiments/knapen_AOT/AOT_stimuli/rescaled_final/0862_rv.mp4	0.0	266.87692523002625	
52	242.16088008880615	fix_post	2		12	50.0	2.5	/experiments/knapen_AOT/AOT_stimuli/rescaled_final/0862_rv.mp4	0.0	267.00181126594543	0.10000801086425781
53	242.2608880996704	fix_pre	0		120	51.0	2.5	/experiments/knapen_AOT/AOT_stimuli/rescaled_final/0890_fw.mp4	0.0	267.1018192768097	1.0001568794250488
53	243.26104497909546	movie	1		243	51.0	2.5	/experiments/knapen_AOT/AOT_stimuli/rescaled_final/0890_fw.mp4	0.0	268.10197615623474	2.4920151233673096
53	243.63623905181885	pulse	1	t		51.0	2.5	/experiments/knapen_AOT/AOT_stimuli/rescaled_final/0890_fw.mp4	0.0	268.47717022895813	
53	245.23668503761292	pulse	1	t		51.0	2.5	/experiments/knapen_AOT/AOT_stimuli/rescaled_final/0890_fw.mp4	0.0	270.0776162147522	
53	245.75306010246277	fix_post	2		12	51.0	2.5	/experiments/knapen_AOT/AOT_stimuli/rescaled_final/0890_fw.mp4	0.0	270.59399127960205	0.10004305839538574
54	245.85310316085815	fix_pre	0		119	52.0	2.5	/experiments/knapen_AOT/AOT_stimuli/rescaled_final/0001_rv.mp4	0.0	270.69403433799744	0.9918458461761475
54	246.8367781639099	pulse	0	t		52.0	2.5	/experiments/knapen_AOT/AOT_stimuli/rescaled_final/0001_rv.mp4	0.0	271.6777093410492	
54	246.8449490070343	movie	1		245	52.0	2.5	/experiments/knapen_AOT/AOT_stimuli/rescaled_final/0001_rv.mp4	0.0	271.6858801841736	2.5086519718170166
54	248.4382359981537	pulse	1	t		52.0	2.5	/experiments/knapen_AOT/AOT_stimuli/rescaled_final/0001_rv.mp4	0.0	273.27916717529297	
54	249.35360097885132	fix_post	2		12	52.0	2.5	/experiments/knapen_AOT/AOT_stimuli/rescaled_final/0001_rv.mp4	0.0	274.1945321559906	0.10001802444458008
55	249.4536190032959	fix_pre	0		120	53.0	2.5	/experiments/knapen_AOT/AOT_stimuli/rescaled_final/2174_rv.mp4	0.0	274.2945501804352	1.0001330375671387
55	250.03718614578247	pulse	0	t		53.0	2.5	/experiments/knapen_AOT/AOT_stimuli/rescaled_final/2174_rv.mp4	0.0	274.87811732292175	
55	250.45375204086304	movie	1		245	53.0	2.5	/experiments/knapen_AOT/AOT_stimuli/rescaled_final/2174_rv.mp4	0.0	275.2946832180023	2.500386953353882
55	251.63765406608582	pulse	1	t		53.0	2.5	/experiments/knapen_AOT/AOT_stimuli/rescaled_final/2174_rv.mp4	0.0	276.4785852432251	
55	252.95413899421692	fix_post	2		12	53.0	2.5	/experiments/knapen_AOT/AOT_stimuli/rescaled_final/2174_rv.mp4	0.0	277.7950701713562	0.1000361442565918
56	253.0541751384735	fix_pre	0		120	54.0	2.5	/experiments/knapen_AOT/AOT_stimuli/rescaled_final/1505_rv.mp4	0.0	277.8951063156128	1.0001189708709717
56	253.237722158432	pulse	0	t		54.0	2.5	/experiments/knapen_AOT/AOT_stimuli/rescaled_final/1505_rv.mp4	0.0	278.0786533355713	
56	254.05429410934448	movie	1		244	54.0	2.5	/experiments/knapen_AOT/AOT_stimuli/rescaled_final/1505_rv.mp4	0.0	278.89522528648376	2.500398874282837
56	254.8379340171814	pulse	1	t		54.0	2.5	/experiments/knapen_AOT/AOT_stimuli/rescaled_final/1505_rv.mp4	0.0	279.6788651943207	
56	256.4383330345154	pulse	1	t		54.0	2.5	/experiments/knapen_AOT/AOT_stimuli/rescaled_final/1505_rv.mp4	0.0	281.27926421165466	
56	256.5546929836273	fix_post	2		12	54.0	2.5	/experiments/knapen_AOT/AOT_stimuli/rescaled_final/1505_rv.mp4	0.0	281.3956241607666	0.10000896453857422
57	256.6547019481659	fix_pre	0		120	55.0	2.5	blank	1.0	281.4956331253052	1.0001862049102783
57	257.6548881530762	movie	1		299	55.0	2.5	blank	1.0	282.49581933021545	2.4919919967651367
57	258.03843808174133	pulse	1	t		55.0	2.5	blank	1.0	282.8793692588806	
57	259.63878107070923	pulse	1	t		55.0	2.5	blank	1.0	284.4797122478485	
57	260.1468801498413	fix_post	2		12	55.0	2.5	blank	1.0	284.9878113269806	0.10003399848937988
58	260.2469141483307	fix_pre	0		120	56.0	2.5	/experiments/knapen_AOT/AOT_stimuli/rescaled_final/0359_fw.mp4	0.0	285.08784532546997	1.0001299381256104
58	261.23894214630127	pulse	0	t		56.0	2.5	/experiments/knapen_AOT/AOT_stimuli/rescaled_final/0359_fw.mp4	0.0	286.07987332344055	
58	261.2470440864563	movie	1		246	56.0	2.5	/experiments/knapen_AOT/AOT_stimuli/rescaled_final/0359_fw.mp4	0.0	286.0879752635956	2.508760929107666
58	262.83979296684265	pulse	1	t		56.0	2.5	/experiments/knapen_AOT/AOT_stimuli/rescaled_final/0359_fw.mp4	0.0	287.68072414398193	
58	263.75580501556396	fix_post	2		12	56.0	2.5	/experiments/knapen_AOT/AOT_stimuli/rescaled_final/0359_fw.mp4	0.0	288.59673619270325	0.09994697570800781
59	263.855751991272	fix_pre	0		120	57.0	2.5	/experiments/knapen_AOT/AOT_stimuli/rescaled_final/1556_rv.mp4	0.0	288.69668316841125	1.0001699924468994
59	264.43944001197815	pulse	0	t		57.0	2.5	/experiments/knapen_AOT/AOT_stimuli/rescaled_final/1556_rv.mp4	0.0	289.28037118911743	
59	264.8559219837189	movie	1		245	57.0	2.5	/experiments/knapen_AOT/AOT_stimuli/rescaled_final/1556_rv.mp4	0.0	289.69685316085815	2.5003600120544434
59	266.0398371219635	pulse	1	t		57.0	2.5	/experiments/knapen_AOT/AOT_stimuli/rescaled_final/1556_rv.mp4	0.0	290.8807682991028	
59	267.3562819957733	fix_post	2		12	57.0	2.5	/experiments/knapen_AOT/AOT_stimuli/rescaled_final/1556_rv.mp4	0.0	292.1972131729126	0.1000511646270752
60	267.4563331604004	fix_pre	0		120	58.0	2.5	/experiments/knapen_AOT/AOT_stimuli/rescaled_final/0286_rv.mp4	0.0	292.2972643375397	1.000140905380249
60	267.6399619579315	pulse	0	t		58.0	2.5	/experiments/knapen_AOT/AOT_stimuli/rescaled_final/0286_rv.mp4	0.0	292.4808931350708	
60	268.45647406578064	movie	1		246	58.0	2.5	/experiments/knapen_AOT/AOT_stimuli/rescaled_final/0286_rv.mp4	0.0	293.2974052429199	2.500370979309082
60	269.24011301994324	pulse	1	t		58.0	2.5	/experiments/knapen_AOT/AOT_stimuli/rescaled_final/0286_rv.mp4	0.0	294.0810441970825	
60	270.84036898612976	pulse	1	t		58.0	2.5	/experiments/knapen_AOT/AOT_stimuli/rescaled_final/0286_rv.mp4	0.0	295.68130016326904	
60	270.9568450450897	fix_post	2		12	58.0	2.5	/experiments/knapen_AOT/AOT_stimuli/rescaled_final/0286_rv.mp4	0.0	295.797776222229	0.09998106956481934
61	271.05682611465454	fix_pre	0		120	59.0	2.5	/experiments/knapen_AOT/AOT_stimuli/rescaled_final/0555_rv.mp4	0.0	295.8977572917938	1.0001578330993652
61	272.0569839477539	movie	1		248	59.0	2.5	/experiments/knapen_AOT/AOT_stimuli/rescaled_final/0555_rv.mp4	0.0	296.8979151248932	2.4920401573181152
61	272.44122195243835	pulse	1	t		59.0	2.5	/experiments/knapen_AOT/AOT_stimuli/rescaled_final/0555_rv.mp4	0.0	297.28215312957764	
61	274.04095697402954	pulse	1	t		59.0	2.5	/experiments/knapen_AOT/AOT_stimuli/rescaled_final/0555_rv.mp4	0.0	298.8818881511688	
61	274.549024105072	fix_post	2		12	59.0	2.5	/experiments/knapen_AOT/AOT_stimuli/rescaled_final/0555_rv.mp4	0.0	299.3899552822113	0.10000205039978027
62	274.6490261554718	fix_pre	0		120	60.0	2.5	/experiments/knapen_AOT/AOT_stimuli/rescaled_final/0302_rv.mp4	0.0	299.4899573326111	1.0001709461212158
62	275.64099407196045	pulse	0	t		60.0	2.5	/experiments/knapen_AOT/AOT_stimuli/rescaled_final/0302_rv.mp4	0.0	300.48192524909973	
62	275.649197101593	movie	1		248	60.0	2.5	/experiments/knapen_AOT/AOT_stimuli/rescaled_final/0302_rv.mp4	0.0	300.4901282787323	2.5087008476257324
62	277.2416970729828	pulse	1	t		60.0	2.5	/experiments/knapen_AOT/AOT_stimuli/rescaled_final/0302_rv.mp4	0.0	302.08262825012207	
62	278.15789794921875	fix_post	2		12	60.0	2.5	/experiments/knapen_AOT/AOT_stimuli/rescaled_final/0302_rv.mp4	0.0	302.99882912635803	0.10000920295715332
63	278.2579071521759	fix_pre	0		120	61.0	2.5	/experiments/knapen_AOT/AOT_stimuli/rescaled_final/1890_rv.mp4	0.0	303.0988383293152	1.000182867050171
63	278.84155011177063	pulse	0	t		61.0	2.5	/experiments/knapen_AOT/AOT_stimuli/rescaled_final/1890_rv.mp4	0.0	303.6824812889099	
63	279.2580900192261	movie	1		248	61.0	2.5	/experiments/knapen_AOT/AOT_stimuli/rescaled_final/1890_rv.mp4	0.0	304.09902119636536	2.5003981590270996
63	280.44196605682373	pulse	1	t		61.0	2.5	/experiments/knapen_AOT/AOT_stimuli/rescaled_final/1890_rv.mp4	0.0	305.282897233963	
63	281.7584881782532	fix_post	2		12	61.0	2.5	/experiments/knapen_AOT/AOT_stimuli/rescaled_final/1890_rv.mp4	0.0	306.59941935539246	0.10001087188720703
64	281.8584990501404	fix_pre	0		120	62.0	2.5	/experiments/knapen_AOT/AOT_stimuli/rescaled_final/1516_fw.mp4	0.0	306.69943022727966	1.000101089477539
64	282.04210901260376	pulse	0	t		62.0	2.5	/experiments/knapen_AOT/AOT_stimuli/rescaled_final/1516_fw.mp4	0.0	306.88304018974304	
64	282.8586001396179	movie	1		245	62.0	2.5	/experiments/knapen_AOT/AOT_stimuli/rescaled_final/1516_fw.mp4	0.0	307.6995313167572	2.500349998474121
64	283.6353590488434	pulse	1	t		62.0	2.5	/experiments/knapen_AOT/AOT_stimuli/rescaled_final/1516_fw.mp4	0.0	308.47629022598267	
64	285.2425880432129	pulse	1	t		62.0	2.5	/experiments/knapen_AOT/AOT_stimuli/rescaled_final/1516_fw.mp4	0.0	310.0835192203522	
64	285.35895013809204	fix_post	2		12	62.0	2.5	/experiments/knapen_AOT/AOT_stimuli/rescaled_final/1516_fw.mp4	0.0	310.1998813152313	0.10002684593200684
65	285.45897698402405	fix_pre	0		119	63.0	2.5	blank	1.0	310.29990816116333	0.9918091297149658
65	286.450786113739	movie	1		300	63.0	2.5	blank	1.0	311.2917172908783	2.5003929138183594
65	286.8351790904999	pulse	1	t		63.0	2.5	blank	1.0	311.67611026763916	
65	288.4355001449585	pulse	1	t		63.0	2.5	blank	1.0	313.2764313220978	
65	288.9511790275574	fix_post	2		12	63.0	2.5	blank	1.0	313.79211020469666	0.10003495216369629
66	289.05121397972107	fix_pre	0		120	64.0	2.5	/experiments/knapen_AOT/AOT_stimuli/rescaled_final/0472_fw.mp4	0.0	313.89214515686035	1.0001251697540283
66	290.0357229709625	pulse	0	t		64.0	2.5	/experiments/knapen_AOT/AOT_stimuli/rescaled_final/0472_fw.mp4	0.0	314.8766541481018	
66	290.0513391494751	movie	1		246	64.0	2.5	/experiments/knapen_AOT/AOT_stimuli/rescaled_final/0472_fw.mp4	0.0	314.8922703266144	2.508697986602783
66	291.6444799900055	pulse	1	t		64.0	2.5	/experiments/knapen_AOT/AOT_stimuli/rescaled_final/0472_fw.mp4	0.0	316.4854111671448	
66	292.5600371360779	fix_post	2		12	64.0	2.5	/experiments/knapen_AOT/AOT_stimuli/rescaled_final/0472_fw.mp4	0.0	317.40096831321716	0.10002589225769043
67	292.66006302833557	fix_pre	0		120	65.0	2.5	/experiments/knapen_AOT/AOT_stimuli/rescaled_final/2174_rv.mp4	0.0	317.50099420547485	1.0001189708709717
67	293.23537707328796	pulse	0	t		65.0	2.5	/experiments/knapen_AOT/AOT_stimuli/rescaled_final/2174_rv.mp4	0.0	318.07630825042725	
67	293.66018199920654	movie	1		245	65.0	2.5	/experiments/knapen_AOT/AOT_stimuli/rescaled_final/2174_rv.mp4	0.0	318.5011131763458	2.50040602684021
67	294.8359589576721	pulse	1	t		65.0	2.5	/experiments/knapen_AOT/AOT_stimuli/rescaled_final/2174_rv.mp4	0.0	319.6768901348114	
67	296.16058802604675	fix_post	2		12	65.0	2.5	/experiments/knapen_AOT/AOT_stimuli/rescaled_final/2174_rv.mp4	0.0	321.00151920318604	0.10003399848937988
68	296.26062202453613	fix_pre	0		120	66.0	2.5	/experiments/knapen_AOT/AOT_stimuli/rescaled_final/0662_fw.mp4	0.0	321.1015532016754	1.000148057937622
68	296.43588304519653	pulse	0	t		66.0	2.5	/experiments/knapen_AOT/AOT_stimuli/rescaled_final/0662_fw.mp4	0.0	321.2768142223358	
68	297.26077008247375	movie	1		243	66.0	2.5	/experiments/knapen_AOT/AOT_stimuli/rescaled_final/0662_fw.mp4	0.0	322.10170125961304	2.492125988006592
68	298.0360960960388	pulse	1	t		66.0	2.5	/experiments/knapen_AOT/AOT_stimuli/rescaled_final/0662_fw.mp4	0.0	322.8770272731781	
68	299.6362290382385	pulse	1	t		66.0	2.5	/experiments/knapen_AOT/AOT_stimuli/rescaled_final/0662_fw.mp4	0.0	324.4771602153778	
68	299.75289607048035	fix_post	2		12	66.0	2.5	/experiments/knapen_AOT/AOT_stimuli/rescaled_final/0662_fw.mp4	0.0	324.59382724761963	0.09987998008728027
69	299.8527760505676	fix_pre	0		120	67.0	2.5	/experiments/knapen_AOT/AOT_stimuli/rescaled_final/0515_fw.mp4	0.0	324.6937072277069	1.0001740455627441
69	300.85295009613037	movie	1		246	67.0	2.5	/experiments/knapen_AOT/AOT_stimuli/rescaled_final/0515_fw.mp4	0.0	325.69388127326965	2.500354051589966
69	301.2376971244812	pulse	1	t		67.0	2.5	/experiments/knapen_AOT/AOT_stimuli/rescaled_final/0515_fw.mp4	0.0	326.0786283016205	
69	302.83685517311096	pulse	1	t		67.0	2.5	/experiments/knapen_AOT/AOT_stimuli/rescaled_final/0515_fw.mp4	0.0	327.67778635025024	
69	303.35330414772034	fix_post	2		12	67.0	2.5	/experiments/knapen_AOT/AOT_stimuli/rescaled_final/0515_fw.mp4	0.0	328.1942353248596	0.10003280639648438
70	303.4533369541168	fix_pre	0		119	68.0	2.5	/experiments/knapen_AOT/AOT_stimuli/rescaled_final/0543_fw.mp4	0.0	328.2942681312561	0.9918060302734375
70	304.43706607818604	pulse	0	t		68.0	2.5	/experiments/knapen_AOT/AOT_stimuli/rescaled_final/0543_fw.mp4	0.0	329.2779972553253	
70	304.44514298439026	movie	1		246	68.0	2.5	/experiments/knapen_AOT/AOT_stimuli/rescaled_final/0543_fw.mp4	0.0	329.28607416152954	2.508742094039917
70	306.03854608535767	pulse	1	t		68.0	2.5	/experiments/knapen_AOT/AOT_stimuli/rescaled_final/0543_fw.mp4	0.0	330.87947726249695	
70	306.9538850784302	fix_post	2		12	68.0	2.5	/experiments/knapen_AOT/AOT_stimuli/rescaled_final/0543_fw.mp4	0.0	331.79481625556946	0.09996509552001953
71	307.0538501739502	fix_pre	0		120	69.0	2.5	/experiments/knapen_AOT/AOT_stimuli/rescaled_final/0691_rv.mp4	0.0	331.8947813510895	1.0001449584960938
71	307.6374430656433	pulse	0	t		69.0	2.5	/experiments/knapen_AOT/AOT_stimuli/rescaled_final/0691_rv.mp4	0.0	332.4783742427826	
71	308.0539951324463	movie	1		244	69.0	2.5	/experiments/knapen_AOT/AOT_stimuli/rescaled_final/0691_rv.mp4	0.0	332.89492630958557	2.500433921813965
71	309.23788595199585	pulse	1	t		69.0	2.5	/experiments/knapen_AOT/AOT_stimuli/rescaled_final/0691_rv.mp4	0.0	334.07881712913513	
71	310.55442905426025	fix_post	2		12	69.0	2.5	/experiments/knapen_AOT/AOT_stimuli/rescaled_final/0691_rv.mp4	0.0	335.39536023139954	0.10007691383361816
72	310.6545059680939	fix_pre	0		120	70.0	2.5	blank	1.0	335.49543714523315	1.0001029968261719
72	310.8379580974579	pulse	0	t		70.0	2.5	blank	1.0	335.67888927459717	
72	311.65460896492004	movie	1		300	70.0	2.5	blank	1.0	336.4955401420593	2.5003161430358887
72	312.43816113471985	pulse	1	t		70.0	2.5	blank	1.0	337.27909231185913	
72	314.03839111328125	pulse	1	t		70.0	2.5	blank	1.0	338.87932229042053	
72	314.15492510795593	fix_post	2		12	70.0	2.5	blank	1.0	338.9958562850952	0.10000300407409668
73	314.25492811203003	fix_pre	0		120	71.0	2.5	/experiments/knapen_AOT/AOT_stimuli/rescaled_final/2074_fw.mp4	0.0	339.0958592891693	1.000140905380249
73	315.2550690174103	movie	1		243	71.0	2.5	/experiments/knapen_AOT/AOT_stimuli/rescaled_final/2074_fw.mp4	0.0	340.09600019454956	2.4921021461486816
73	315.6405220031738	pulse	1	t		71.0	2.5	/experiments/knapen_AOT/AOT_stimuli/rescaled_final/2074_fw.mp4	0.0	340.4814531803131	
73	317.23904514312744	pulse	1	t		71.0	2.5	/experiments/knapen_AOT/AOT_stimuli/rescaled_final/2074_fw.mp4	0.0	342.0799763202667	
73	317.74717116355896	fix_post	2		12	71.0	2.5	/experiments/knapen_AOT/AOT_stimuli/rescaled_final/2074_fw.mp4	0.0	342.58810234069824	0.09996485710144043
74	317.8471360206604	fix_pre	0		120	72.0	2.5	/experiments/knapen_AOT/AOT_stimuli/rescaled_final/0915_fw.mp4	0.0	342.6880671977997	1.0001730918884277
74	318.83917117118835	pulse	0	t		72.0	2.5	/experiments/knapen_AOT/AOT_stimuli/rescaled_final/0915_fw.mp4	0.0	343.68010234832764	
74	318.8473091125488	movie	1		245	72.0	2.5	/experiments/knapen_AOT/AOT_stimuli/rescaled_final/0915_fw.mp4	0.0	343.6882402896881	2.508692979812622
74	320.4399871826172	pulse	1	t		72.0	2.5	/experiments/knapen_AOT/AOT_stimuli/rescaled_final/0915_fw.mp4	0.0	345.28091835975647	
74	321.35600209236145	fix_post	2		12	72.0	2.5	/experiments/knapen_AOT/AOT_stimuli/rescaled_final/0915_fw.mp4	0.0	346.19693326950073	0.10001492500305176
75	321.4560170173645	fix_pre	0		120	73.0	2.5	/experiments/knapen_AOT/AOT_stimuli/rescaled_final/0001_fw.mp4	0.0	346.2969481945038	1.0001530647277832
75	322.039635181427	pulse	0	t		73.0	2.5	/experiments/knapen_AOT/AOT_stimuli/rescaled_final/0001_fw.mp4	0.0	346.8805663585663	
75	322.4561700820923	movie	1		245	73.0	2.5	/experiments/knapen_AOT/AOT_stimuli/rescaled_final/0001_fw.mp4	0.0	347.29710125923157	2.5003600120544434
75	323.64001417160034	pulse	1	t		73.0	2.5	/experiments/knapen_AOT/AOT_stimuli/rescaled_final/0001_fw.mp4	0.0	348.4809453487396	
75	324.95653009414673	fix_post	2		12	73.0	2.5	/experiments/knapen_AOT/AOT_stimuli/rescaled_final/0001_fw.mp4	0.0	349.797461271286	0.09999799728393555
76	325.05652809143066	fix_pre	0		120	74.0	2.5	/experiments/knapen_AOT/AOT_stimuli/rescaled_final/1605_rv.mp4	0.0	349.89745926856995	1.000251054763794
76	325.24021196365356	pulse	0	t		74.0	2.5	/experiments/knapen_AOT/AOT_stimuli/rescaled_final/1605_rv.mp4	0.0	350.08114314079285	
76	326.05677914619446	movie	1		244	74.0	2.5	/experiments/knapen_AOT/AOT_stimuli/rescaled_final/1605_rv.mp4	0.0	350.89771032333374	2.5002658367156982
76	326.8403091430664	pulse	1	t		74.0	2.5	/experiments/knapen_AOT/AOT_stimuli/rescaled_final/1605_rv.mp4	0.0	351.6812403202057	
76	328.4383671283722	pulse	1	t		74.0	2.5	/experiments/knapen_AOT/AOT_stimuli/rescaled_final/1605_rv.mp4	0.0	353.2792983055115	
76	328.55704498291016	fix_post	2		12	74.0	2.5	/experiments/knapen_AOT/AOT_stimuli/rescaled_final/1605_rv.mp4	0.0	353.39797616004944	0.10004305839538574
77	328.65708804130554	fix_pre	0		120	75.0	2.5	/experiments/knapen_AOT/AOT_stimuli/rescaled_final/0754_fw.mp4	0.0	353.4980192184448	1.0001530647277832
77	329.6572411060333	movie	1		245	75.0	2.5	/experiments/knapen_AOT/AOT_stimuli/rescaled_final/0754_fw.mp4	0.0	354.4981722831726	2.492076873779297
77	330.0420730113983	pulse	1	t		75.0	2.5	/experiments/knapen_AOT/AOT_stimuli/rescaled_final/0754_fw.mp4	0.0	354.8830041885376	
77	331.6410880088806	pulse	1	t		75.0	2.5	/experiments/knapen_AOT/AOT_stimuli/rescaled_final/0754_fw.mp4	0.0	356.4820191860199	
77	332.1493179798126	fix_post	2		12	75.0	2.5	/experiments/knapen_AOT/AOT_stimuli/rescaled_final/0754_fw.mp4	0.0	356.9902491569519	0.09996414184570312
78	332.2492821216583	fix_pre	0		120	76.0	2.5	blank	1.0	357.0902132987976	1.000187873840332
78	333.241366147995	pulse	0	t		76.0	2.5	blank	1.0	358.0822973251343	
78	333.24946999549866	movie	1		301	76.0	2.5	blank	1.0	358.09040117263794	2.5087201595306396
78	334.84159898757935	pulse	1	t		76.0	2.5	blank	1.0	359.6825301647186	
78	335.7581901550293	fix_post	2		12	76.0	2.5	blank	1.0	360.5991213321686	0.09993195533752441
79	335.8581221103668	fix_pre	0		120	77.0	2.5	/experiments/knapen_AOT/AOT_stimuli/rescaled_final/0201_rv.mp4	0.0	360.6990532875061	1.0002009868621826
79	336.4417440891266	pulse	0	t		77.0	2.5	/experiments/knapen_AOT/AOT_stimuli/rescaled_final/0201_rv.mp4	0.0	361.28267526626587	
79	336.858323097229	movie	1		243	77.0	2.5	/experiments/knapen_AOT/AOT_stimuli/rescaled_final/0201_rv.mp4	0.0	361.6992542743683	2.5003769397735596
79	338.03794717788696	pulse	1	t		77.0	2.5	/experiments/knapen_AOT/AOT_stimuli/rescaled_final/0201_rv.mp4	0.0	362.87887835502625	
79	339.35870003700256	fix_post	2		12	77.0	2.5	/experiments/knapen_AOT/AOT_stimuli/rescaled_final/0201_rv.mp4	0.0	364.19963121414185	0.0999901294708252
80	339.4586901664734	fix_pre	0		120	78.0	2.5	/experiments/knapen_AOT/AOT_stimuli/rescaled_final/1642_fw.mp4	0.0	364.29962134361267	1.0001468658447266
80	339.642245054245	pulse	0	t		78.0	2.5	/experiments/knapen_AOT/AOT_stimuli/rescaled_final/1642_fw.mp4	0.0	364.4831762313843	
80	340.4588370323181	movie	1		246	78.0	2.5	/experiments/knapen_AOT/AOT_stimuli/rescaled_final/1642_fw.mp4	0.0	365.2997682094574	2.500375986099243
80	341.24266815185547	pulse	1	t		78.0	2.5	/experiments/knapen_AOT/AOT_stimuli/rescaled_final/1642_fw.mp4	0.0	366.08359932899475	
80	342.8427801132202	pulse	1	t		78.0	2.5	/experiments/knapen_AOT/AOT_stimuli/rescaled_final/1642_fw.mp4	0.0	367.6837112903595	
80	342.95921301841736	fix_post	2		12	78.0	2.5	/experiments/knapen_AOT/AOT_stimuli/rescaled_final/1642_fw.mp4	0.0	367.80014419555664	0.10005807876586914
81	343.0592710971832	fix_pre	0		120	79.0	2.5	/experiments/knapen_AOT/AOT_stimuli/rescaled_final/0698_fw.mp4	0.0	367.9002022743225	1.000128984451294
81	344.0594000816345	movie	1		244	79.0	2.5	/experiments/knapen_AOT/AOT_stimuli/rescaled_final/0698_fw.mp4	0.0	368.9003312587738	2.4921140670776367
81	344.4435119628906	pulse	1	t		79.0	2.5	/experiments/knapen_AOT/AOT_stimuli/rescaled_final/0698_fw.mp4	0.0	369.2844431400299	
81	346.0431971549988	pulse	1	t		79.0	2.5	/experiments/knapen_AOT/AOT_stimuli/rescaled_final/0698_fw.mp4	0.0	370.88412833213806	
81	346.55151414871216	fix_post	2		12	79.0	2.5	/experiments/knapen_AOT/AOT_stimuli/rescaled_final/0698_fw.mp4	0.0	371.39244532585144	0.09991192817687988
82	346.65142607688904	fix_pre	0		120	80.0	2.5	/experiments/knapen_AOT/AOT_stimuli/rescaled_final/0464_fw.mp4	0.0	371.4923572540283	1.0002338886260986
82	347.63603806495667	pulse	0	t		80.0	2.5	/experiments/knapen_AOT/AOT_stimuli/rescaled_final/0464_fw.mp4	0.0	372.47696924209595	
82	347.65165996551514	movie	1		246	80.0	2.5	/experiments/knapen_AOT/AOT_stimuli/rescaled_final/0464_fw.mp4	0.0	372.4925911426544	2.5086841583251953
82	349.24436497688293	pulse	1	t		80.0	2.5	/experiments/knapen_AOT/AOT_stimuli/rescaled_final/0464_fw.mp4	0.0	374.0852961540222	
82	350.16034412384033	fix_post	2		12	80.0	2.5	/experiments/knapen_AOT/AOT_stimuli/rescaled_final/0464_fw.mp4	0.0	375.0012753009796	0.10001492500305176
83	350.2603590488434	fix_pre	0		120	81.0	2.5	/experiments/knapen_AOT/AOT_stimuli/rescaled_final/1277_fw.mp4	0.0	375.10129022598267	1.0001540184020996
83	350.83652210235596	pulse	0	t		81.0	2.5	/experiments/knapen_AOT/AOT_stimuli/rescaled_final/1277_fw.mp4	0.0	375.67745327949524	
83	351.2605130672455	movie	1		246	81.0	2.5	/experiments/knapen_AOT/AOT_stimuli/rescaled_final/1277_fw.mp4	0.0	376.10144424438477	2.500298023223877
83	352.43702507019043	pulse	1	t		81.0	2.5	/experiments/knapen_AOT/AOT_stimuli/rescaled_final/1277_fw.mp4	0.0	377.2779562473297	
83	353.76081109046936	fix_post	2		12	81.0	2.5	/experiments/knapen_AOT/AOT_stimuli/rescaled_final/1277_fw.mp4	0.0	378.60174226760864	0.1000368595123291
84	353.8608479499817	fix_pre	0		120	82.0	2.5	blank	1.0	378.701779127121	1.0001630783081055
84	354.0361521244049	pulse	0	t		82.0	2.5	blank	1.0	378.8770833015442	
84	354.8610110282898	movie	1		300	82.0	2.5	blank	1.0	379.7019422054291	2.5004019737243652
84	355.63627409935	pulse	1	t		82.0	2.5	blank	1.0	380.47720527648926	
84	357.23660707473755	pulse	1	t		82.0	2.5	blank	1.0	382.07753825187683	
84	357.36141300201416	fix_post	2		12	82.0	2.5	blank	1.0	382.20234417915344	0.09999799728393555
85	357.4614109992981	fix_pre	0		120	83.0	2.5	/experiments/knapen_AOT/AOT_stimuli/rescaled_final/0915_rv.mp4	0.0	382.3023421764374	1.0001461505889893
85	358.4615571498871	movie	1		243	83.0	2.5	/experiments/knapen_AOT/AOT_stimuli/rescaled_final/0915_rv.mp4	0.0	383.30248832702637	2.492036819458008
85	358.8368580341339	pulse	1	t		83.0	2.5	/experiments/knapen_AOT/AOT_stimuli/rescaled_final/0915_rv.mp4	0.0	383.6777892112732	
85	360.43719506263733	pulse	1	t		83.0	2.5	/experiments/knapen_AOT/AOT_stimuli/rescaled_final/0915_rv.mp4	0.0	385.2781262397766	
85	360.9535939693451	fix_post	2		12	83.0	2.5	/experiments/knapen_AOT/AOT_stimuli/rescaled_final/0915_rv.mp4	0.0	385.7945251464844	0.1000211238861084
87	361.0536150932312	stim	0		1716					385.8945462703705	14.302222967147827
87	362.03721809387207	pulse	0	t						386.87814927101135	
87	363.6374659538269	pulse	0	t						388.4783971309662	
87	365.23769903182983	pulse	0	t						390.0786302089691	
87	366.8380401134491	pulse	0	t						391.6789712905884	
87	368.43813705444336	pulse	0	t						393.27906823158264	
87	370.0384449958801	pulse	0	t						394.8793761730194	
87	371.63876008987427	pulse	0	t						396.47969126701355	
87	373.239000082016	pulse	0	t						398.0799312591553	
87	374.8391230106354	pulse	0	t						399.68005418777466	
