trial_nr	onset	event_type	phase	response	nr_frames	movie_index	movie_duration	movie_file	blank	onset_abs	duration
0	0.1665503978729248	stim	0		1					16.537286520004272	0.008245229721069336
0	0.10579562187194824	response	0	space						16.476531744003296	
1	0.17479562759399414	stim	0		4702					16.545531749725342	39.197911500930786
1	39.362876415252686	pulse	0	t						55.73361253738403	
1	39.37270712852478	stim	1		1715					55.74344325065613	14.301858186721802
1	40.95607900619507	pulse	1	t						57.326815128326416	
1	42.55632138252258	pulse	1	t						58.92705750465393	
1	44.15694522857666	pulse	1	t						60.52768135070801	
1	45.75681114196777	pulse	1	t						62.12754726409912	
1	47.35701560974121	pulse	1	t						63.72775173187256	
1	48.957255601882935	pulse	1	t						65.32799172401428	
1	50.557631492614746	pulse	1	t						66.9283676147461	
1	52.15780425071716	pulse	1	t						68.52854037284851	
2	53.67456531524658	fix_pre	0		11	0.0	2.5	/experiments/knapen_AOT/AOT_stimuli/rescaled_final/2077_rv.mp4	0.0	70.04530143737793	0.10831284523010254
2	53.75804162025452	pulse	0	t		0.0	2.5	/experiments/knapen_AOT/AOT_stimuli/rescaled_final/2077_rv.mp4	0.0	70.12877774238586	
2	53.782878160476685	movie	1		275	0.0	2.5	/experiments/knapen_AOT/AOT_stimuli/rescaled_final/2077_rv.mp4	0.0	70.15361428260803	2.492017984390259
2	55.35662341117859	pulse	1	t		0.0	2.5	/experiments/knapen_AOT/AOT_stimuli/rescaled_final/2077_rv.mp4	0.0	71.72735953330994	
2	56.27489614486694	fix_post	2		12	0.0	2.5	/experiments/knapen_AOT/AOT_stimuli/rescaled_final/2077_rv.mp4	0.0	72.64563226699829	0.09998464584350586
3	56.37488079071045	fix_pre	0		120	1.0	2.5	/experiments/knapen_AOT/AOT_stimuli/rescaled_final/1758_rv.mp4	0.0	72.7456169128418	1.00850510597229
3	56.95851016044617	pulse	0	t		1.0	2.5	/experiments/knapen_AOT/AOT_stimuli/rescaled_final/1758_rv.mp4	0.0	73.32924628257751	
3	57.38338589668274	movie	1		276	1.0	2.5	/experiments/knapen_AOT/AOT_stimuli/rescaled_final/1758_rv.mp4	0.0	73.75412201881409	2.492048978805542
3	58.557475328445435	pulse	1	t		1.0	2.5	/experiments/knapen_AOT/AOT_stimuli/rescaled_final/1758_rv.mp4	0.0	74.92821145057678	
3	59.87543487548828	fix_post	2		12	1.0	2.5	/experiments/knapen_AOT/AOT_stimuli/rescaled_final/1758_rv.mp4	0.0	76.24617099761963	0.09998774528503418
4	59.975422620773315	fix_pre	0		120	2.0	2.5	/experiments/knapen_AOT/AOT_stimuli/rescaled_final/1557_fw.mp4	0.0	76.34615874290466	1.008504867553711
4	60.158987045288086	pulse	0	t		2.0	2.5	/experiments/knapen_AOT/AOT_stimuli/rescaled_final/1557_fw.mp4	0.0	76.52972316741943	
4	60.983927488327026	movie	1		274	2.0	2.5	/experiments/knapen_AOT/AOT_stimuli/rescaled_final/1557_fw.mp4	0.0	77.35466361045837	2.4920859336853027
4	61.75685358047485	pulse	1	t		2.0	2.5	/experiments/knapen_AOT/AOT_stimuli/rescaled_final/1557_fw.mp4	0.0	78.1275897026062	
4	63.35741066932678	pulse	1	t		2.0	2.5	/experiments/knapen_AOT/AOT_stimuli/rescaled_final/1557_fw.mp4	0.0	79.72814679145813	
4	63.47601342201233	fix_post	2		12	2.0	2.5	/experiments/knapen_AOT/AOT_stimuli/rescaled_final/1557_fw.mp4	0.0	79.84674954414368	0.09995484352111816
5	63.57596826553345	fix_pre	0		120	3.0	2.5	/experiments/knapen_AOT/AOT_stimuli/rescaled_final/1793_fw.mp4	0.0	79.9467043876648	1.008474588394165
5	64.58444285392761	movie	1		274	3.0	2.5	/experiments/knapen_AOT/AOT_stimuli/rescaled_final/1793_fw.mp4	0.0	80.95517897605896	2.4920740127563477
5	64.96001505851746	pulse	1	t		3.0	2.5	/experiments/knapen_AOT/AOT_stimuli/rescaled_final/1793_fw.mp4	0.0	81.3307511806488	
5	66.56024646759033	pulse	1	t		3.0	2.5	/experiments/knapen_AOT/AOT_stimuli/rescaled_final/1793_fw.mp4	0.0	82.93098258972168	
5	67.07651686668396	fix_post	2		12	3.0	2.5	/experiments/knapen_AOT/AOT_stimuli/rescaled_final/1793_fw.mp4	0.0	83.44725298881531	0.10000348091125488
6	67.17652034759521	fix_pre	0		119	4.0	2.5	/experiments/knapen_AOT/AOT_stimuli/rescaled_final/1902_rv.mp4	0.0	83.54725646972656	1.0003457069396973
6	68.1525719165802	pulse	0	t		4.0	2.5	/experiments/knapen_AOT/AOT_stimuli/rescaled_final/1902_rv.mp4	0.0	84.52330803871155	
6	68.17686605453491	movie	1		274	4.0	2.5	/experiments/knapen_AOT/AOT_stimuli/rescaled_final/1902_rv.mp4	0.0	84.54760217666626	2.5001659393310547
6	69.75238537788391	pulse	1	t		4.0	2.5	/experiments/knapen_AOT/AOT_stimuli/rescaled_final/1902_rv.mp4	0.0	86.12312150001526	
6	70.67703199386597	fix_post	2		12	4.0	2.5	/experiments/knapen_AOT/AOT_stimuli/rescaled_final/1902_rv.mp4	0.0	87.04776811599731	0.10001420974731445
7	70.77704620361328	fix_pre	0		120	5.0	2.5	/experiments/knapen_AOT/AOT_stimuli/rescaled_final/0741_fw.mp4	0.0	87.14778232574463	1.0084803104400635
7	71.3524329662323	pulse	0	t		5.0	2.5	/experiments/knapen_AOT/AOT_stimuli/rescaled_final/0741_fw.mp4	0.0	87.72316908836365	
7	71.78552651405334	movie	1		269	5.0	2.5	/experiments/knapen_AOT/AOT_stimuli/rescaled_final/0741_fw.mp4	0.0	88.15626263618469	2.492072820663452
7	72.9526674747467	pulse	1	t		5.0	2.5	/experiments/knapen_AOT/AOT_stimuli/rescaled_final/0741_fw.mp4	0.0	89.32340359687805	
7	74.2775993347168	fix_post	2		12	5.0	2.5	/experiments/knapen_AOT/AOT_stimuli/rescaled_final/0741_fw.mp4	0.0	90.64833545684814	0.10001587867736816
8	74.37761521339417	fix_pre	0		120	6.0	2.5	blank	1.0	90.74835133552551	1.0001521110534668
8	74.55288124084473	pulse	0	t		6.0	2.5	blank	1.0	90.92361736297607	
8	75.37776732444763	movie	1		300	6.0	2.5	blank	1.0	91.74850344657898	2.5003602504730225
8	76.15319633483887	pulse	1	t		6.0	2.5	blank	1.0	92.52393245697021	
8	77.75330924987793	pulse	1	t		6.0	2.5	blank	1.0	94.12404537200928	
8	77.87812757492065	fix_post	2		12	6.0	2.5	blank	1.0	94.248863697052	0.10000419616699219
9	77.97813177108765	fix_pre	0		120	7.0	2.5	/experiments/knapen_AOT/AOT_stimuli/rescaled_final/1801_fw.mp4	0.0	94.348867893219	1.0085201263427734
9	78.98665189743042	movie	1		264	7.0	2.5	/experiments/knapen_AOT/AOT_stimuli/rescaled_final/1801_fw.mp4	0.0	95.35738801956177	2.492032766342163
9	79.352952003479	pulse	1	t		7.0	2.5	/experiments/knapen_AOT/AOT_stimuli/rescaled_final/1801_fw.mp4	0.0	95.72368812561035	
9	80.95378303527832	pulse	1	t		7.0	2.5	/experiments/knapen_AOT/AOT_stimuli/rescaled_final/1801_fw.mp4	0.0	97.32451915740967	
9	81.47868466377258	fix_post	2		12	7.0	2.5	/experiments/knapen_AOT/AOT_stimuli/rescaled_final/1801_fw.mp4	0.0	97.84942078590393	0.10007023811340332
10	81.57875490188599	fix_pre	0		118	8.0	2.5	/experiments/knapen_AOT/AOT_stimuli/rescaled_final/1265_fw.mp4	0.0	97.94949102401733	0.9917399883270264
10	82.55406093597412	pulse	0	t		8.0	2.5	/experiments/knapen_AOT/AOT_stimuli/rescaled_final/1265_fw.mp4	0.0	98.92479705810547	
10	82.57049489021301	movie	1		272	8.0	2.5	/experiments/knapen_AOT/AOT_stimuli/rescaled_final/1265_fw.mp4	0.0	98.94123101234436	2.500349760055542
10	84.15359163284302	pulse	1	t		8.0	2.5	/experiments/knapen_AOT/AOT_stimuli/rescaled_final/1265_fw.mp4	0.0	100.52432775497437	
10	85.07084465026855	fix_post	2		12	8.0	2.5	/experiments/knapen_AOT/AOT_stimuli/rescaled_final/1265_fw.mp4	0.0	101.4415807723999	0.10004949569702148
11	85.17089414596558	fix_pre	0		120	9.0	2.5	/experiments/knapen_AOT/AOT_stimuli/rescaled_final/0716_fw.mp4	0.0	101.54163026809692	1.0085158348083496
11	85.75448799133301	pulse	0	t		9.0	2.5	/experiments/knapen_AOT/AOT_stimuli/rescaled_final/0716_fw.mp4	0.0	102.12522411346436	
11	86.17940998077393	movie	1		266	9.0	2.5	/experiments/knapen_AOT/AOT_stimuli/rescaled_final/0716_fw.mp4	0.0	102.55014610290527	2.492020606994629
11	87.35263895988464	pulse	1	t		9.0	2.5	/experiments/knapen_AOT/AOT_stimuli/rescaled_final/0716_fw.mp4	0.0	103.72337508201599	
11	88.67143058776855	fix_post	2		12	9.0	2.5	/experiments/knapen_AOT/AOT_stimuli/rescaled_final/0716_fw.mp4	0.0	105.0421667098999	0.10006165504455566
12	88.77149224281311	fix_pre	0		120	10.0	2.5	/experiments/knapen_AOT/AOT_stimuli/rescaled_final/0108_rv.mp4	0.0	105.14222836494446	1.0084269046783447
12	88.95526885986328	pulse	0	t		10.0	2.5	/experiments/knapen_AOT/AOT_stimuli/rescaled_final/0108_rv.mp4	0.0	105.32600498199463	
12	89.77991914749146	movie	1		257	10.0	2.5	/experiments/knapen_AOT/AOT_stimuli/rescaled_final/0108_rv.mp4	0.0	106.1506552696228	2.4920730590820312
12	90.55318069458008	pulse	1	t		10.0	2.5	/experiments/knapen_AOT/AOT_stimuli/rescaled_final/0108_rv.mp4	0.0	106.92391681671143	
12	92.1555860042572	pulse	1	t		10.0	2.5	/experiments/knapen_AOT/AOT_stimuli/rescaled_final/0108_rv.mp4	0.0	108.52632212638855	
12	92.27199220657349	fix_post	2		12	10.0	2.5	/experiments/knapen_AOT/AOT_stimuli/rescaled_final/0108_rv.mp4	0.0	108.64272832870483	0.10003304481506348
13	92.37202525138855	fix_pre	0		120	11.0	2.5	/experiments/knapen_AOT/AOT_stimuli/rescaled_final/1174_fw.mp4	0.0	108.7427613735199	1.0084218978881836
13	93.38044714927673	movie	1		276	11.0	2.5	/experiments/knapen_AOT/AOT_stimuli/rescaled_final/1174_fw.mp4	0.0	109.75118327140808	2.4922561645507812
13	93.75388503074646	pulse	1	t		11.0	2.5	/experiments/knapen_AOT/AOT_stimuli/rescaled_final/1174_fw.mp4	0.0	110.12462115287781	
13	95.35376787185669	pulse	1	t		11.0	2.5	/experiments/knapen_AOT/AOT_stimuli/rescaled_final/1174_fw.mp4	0.0	111.72450399398804	
13	95.87270331382751	fix_post	2		12	11.0	2.5	/experiments/knapen_AOT/AOT_stimuli/rescaled_final/1174_fw.mp4	0.0	112.24343943595886	0.09980225563049316
14	95.97250556945801	fix_pre	0		119	12.0	2.5	/experiments/knapen_AOT/AOT_stimuli/rescaled_final/1758_fw.mp4	0.0	112.34324169158936	1.0001990795135498
14	96.95638608932495	pulse	0	t		12.0	2.5	/experiments/knapen_AOT/AOT_stimuli/rescaled_final/1758_fw.mp4	0.0	113.3271222114563	
14	96.97270464897156	movie	1		275	12.0	2.5	/experiments/knapen_AOT/AOT_stimuli/rescaled_final/1758_fw.mp4	0.0	113.3434407711029	2.5004281997680664
14	98.55546808242798	pulse	1	t		12.0	2.5	/experiments/knapen_AOT/AOT_stimuli/rescaled_final/1758_fw.mp4	0.0	114.92620420455933	
14	99.47313284873962	fix_post	2		12	12.0	2.5	/experiments/knapen_AOT/AOT_stimuli/rescaled_final/1758_fw.mp4	0.0	115.84386897087097	0.09990692138671875
15	99.57303977012634	fix_pre	0		120	13.0	2.5	/experiments/knapen_AOT/AOT_stimuli/rescaled_final/1478_rv.mp4	0.0	115.94377589225769	1.0085155963897705
15	100.15660858154297	pulse	0	t		13.0	2.5	/experiments/knapen_AOT/AOT_stimuli/rescaled_final/1478_rv.mp4	0.0	116.52734470367432	
15	100.58155536651611	movie	1		275	13.0	2.5	/experiments/knapen_AOT/AOT_stimuli/rescaled_final/1478_rv.mp4	0.0	116.95229148864746	2.492013692855835
15	101.7572410106659	pulse	1	t		13.0	2.5	/experiments/knapen_AOT/AOT_stimuli/rescaled_final/1478_rv.mp4	0.0	118.12797713279724	
15	103.07356905937195	fix_post	2		12	13.0	2.5	/experiments/knapen_AOT/AOT_stimuli/rescaled_final/1478_rv.mp4	0.0	119.4443051815033	0.10002350807189941
16	103.17359256744385	fix_pre	0		120	14.0	2.5	blank	1.0	119.5443286895752	1.000171184539795
16	103.35722517967224	pulse	0	t		14.0	2.5	blank	1.0	119.72796130180359	
16	104.17376375198364	movie	1		300	14.0	2.5	blank	1.0	120.54449987411499	2.5003693103790283
16	104.95735216140747	pulse	1	t		14.0	2.5	blank	1.0	121.32808828353882	
16	106.55763554573059	pulse	1	t		14.0	2.5	blank	1.0	122.92837166786194	
16	106.67413306236267	fix_post	2		12	14.0	2.5	blank	1.0	123.04486918449402	0.0999915599822998
17	106.77412462234497	fix_pre	0		120	15.0	2.5	/experiments/knapen_AOT/AOT_stimuli/rescaled_final/1537_rv.mp4	0.0	123.14486074447632	1.0085840225219727
17	107.78270864486694	movie	1		260	15.0	2.5	/experiments/knapen_AOT/AOT_stimuli/rescaled_final/1537_rv.mp4	0.0	124.15344476699829	2.492210865020752
17	108.15769910812378	pulse	1	t		15.0	2.5	/experiments/knapen_AOT/AOT_stimuli/rescaled_final/1537_rv.mp4	0.0	124.52843523025513	
17	109.75589966773987	pulse	1	t		15.0	2.5	/experiments/knapen_AOT/AOT_stimuli/rescaled_final/1537_rv.mp4	0.0	126.12663578987122	
17	110.2749195098877	fix_post	2		12	15.0	2.5	/experiments/knapen_AOT/AOT_stimuli/rescaled_final/1537_rv.mp4	0.0	126.64565563201904	0.09975171089172363
18	110.37467122077942	fix_pre	0		119	16.0	2.5	/experiments/knapen_AOT/AOT_stimuli/rescaled_final/1509_rv.mp4	0.0	126.74540734291077	1.0002386569976807
18	111.35845565795898	pulse	0	t		16.0	2.5	/experiments/knapen_AOT/AOT_stimuli/rescaled_final/1509_rv.mp4	0.0	127.72919178009033	
18	111.3749098777771	movie	1		276	16.0	2.5	/experiments/knapen_AOT/AOT_stimuli/rescaled_final/1509_rv.mp4	0.0	127.74564599990845	2.5003349781036377
18	112.95681476593018	pulse	1	t		16.0	2.5	/experiments/knapen_AOT/AOT_stimuli/rescaled_final/1509_rv.mp4	0.0	129.32755088806152	
18	113.87524485588074	fix_post	2		12	16.0	2.5	/experiments/knapen_AOT/AOT_stimuli/rescaled_final/1509_rv.mp4	0.0	130.24598097801208	0.10004425048828125
19	113.97528910636902	fix_pre	0		120	17.0	2.5	/experiments/knapen_AOT/AOT_stimuli/rescaled_final/0821_rv.mp4	0.0	130.34602522850037	1.0086641311645508
19	114.5518798828125	pulse	0	t		17.0	2.5	/experiments/knapen_AOT/AOT_stimuli/rescaled_final/0821_rv.mp4	0.0	130.92261600494385	
19	114.98395323753357	movie	1		272	17.0	2.5	/experiments/knapen_AOT/AOT_stimuli/rescaled_final/0821_rv.mp4	0.0	131.35468935966492	2.491816520690918
19	116.15718007087708	pulse	1	t		17.0	2.5	/experiments/knapen_AOT/AOT_stimuli/rescaled_final/0821_rv.mp4	0.0	132.52791619300842	
19	117.47576975822449	fix_post	2		12	17.0	2.5	/experiments/knapen_AOT/AOT_stimuli/rescaled_final/0821_rv.mp4	0.0	133.84650588035583	0.09998607635498047
20	117.57575583457947	fix_pre	0		120	18.0	2.5	/experiments/knapen_AOT/AOT_stimuli/rescaled_final/1555_fw.mp4	0.0	133.94649195671082	1.0086238384246826
20	117.75223588943481	pulse	0	t		18.0	2.5	/experiments/knapen_AOT/AOT_stimuli/rescaled_final/1555_fw.mp4	0.0	134.12297201156616	
20	118.58437967300415	movie	1		271	18.0	2.5	/experiments/knapen_AOT/AOT_stimuli/rescaled_final/1555_fw.mp4	0.0	134.9551157951355	2.4919276237487793
20	119.35760831832886	pulse	1	t		18.0	2.5	/experiments/knapen_AOT/AOT_stimuli/rescaled_final/1555_fw.mp4	0.0	135.7283444404602	
20	120.95168089866638	pulse	1	t		18.0	2.5	/experiments/knapen_AOT/AOT_stimuli/rescaled_final/1555_fw.mp4	0.0	137.32241702079773	
20	121.07630729675293	fix_post	2		12	18.0	2.5	/experiments/knapen_AOT/AOT_stimuli/rescaled_final/1555_fw.mp4	0.0	137.44704341888428	0.1000068187713623
21	121.17631411552429	fix_pre	0		120	19.0	2.5	/experiments/knapen_AOT/AOT_stimuli/rescaled_final/1282_rv.mp4	0.0	137.54705023765564	1.0084843635559082
21	122.1847984790802	movie	1		279	19.0	2.5	/experiments/knapen_AOT/AOT_stimuli/rescaled_final/1282_rv.mp4	0.0	138.55553460121155	2.492025136947632
21	122.55192446708679	pulse	1	t		19.0	2.5	/experiments/knapen_AOT/AOT_stimuli/rescaled_final/1282_rv.mp4	0.0	138.92266058921814	
21	124.15201449394226	pulse	1	t		19.0	2.5	/experiments/knapen_AOT/AOT_stimuli/rescaled_final/1282_rv.mp4	0.0	140.5227506160736	
21	124.67682361602783	fix_post	2		12	19.0	2.5	/experiments/knapen_AOT/AOT_stimuli/rescaled_final/1282_rv.mp4	0.0	141.04755973815918	0.1000213623046875
22	124.77684497833252	fix_pre	0		118	20.0	2.5	blank	1.0	141.14758110046387	0.9836454391479492
22	125.75227665901184	pulse	0	t		20.0	2.5	blank	1.0	142.1230127811432	
22	125.76049041748047	movie	1		301	20.0	2.5	blank	1.0	142.13122653961182	2.5085206031799316
22	127.3524444103241	pulse	1	t		20.0	2.5	blank	1.0	143.72318053245544	
22	128.2690110206604	fix_post	2		12	20.0	2.5	blank	1.0	144.63974714279175	0.10002446174621582
23	128.36903548240662	fix_pre	0		120	21.0	2.5	/experiments/knapen_AOT/AOT_stimuli/rescaled_final/1487_rv.mp4	0.0	144.73977160453796	1.0084943771362305
23	128.95279502868652	pulse	0	t		21.0	2.5	/experiments/knapen_AOT/AOT_stimuli/rescaled_final/1487_rv.mp4	0.0	145.32353115081787	
23	129.37752985954285	movie	1		267	21.0	2.5	/experiments/knapen_AOT/AOT_stimuli/rescaled_final/1487_rv.mp4	0.0	145.7482659816742	2.4920268058776855
23	130.55323719978333	pulse	1	t		21.0	2.5	/experiments/knapen_AOT/AOT_stimuli/rescaled_final/1487_rv.mp4	0.0	146.92397332191467	
23	131.86955666542053	fix_post	2		12	21.0	2.5	/experiments/knapen_AOT/AOT_stimuli/rescaled_final/1487_rv.mp4	0.0	148.24029278755188	0.10001707077026367
24	131.9695737361908	fix_pre	0		120	22.0	2.5	/experiments/knapen_AOT/AOT_stimuli/rescaled_final/0001_rv.mp4	0.0	148.34030985832214	1.008558750152588
24	132.15326261520386	pulse	0	t		22.0	2.5	/experiments/knapen_AOT/AOT_stimuli/rescaled_final/0001_rv.mp4	0.0	148.5239987373352	
24	132.97813248634338	movie	1		263	22.0	2.5	/experiments/knapen_AOT/AOT_stimuli/rescaled_final/0001_rv.mp4	0.0	149.34886860847473	2.491971492767334
24	133.7534737586975	pulse	1	t		22.0	2.5	/experiments/knapen_AOT/AOT_stimuli/rescaled_final/0001_rv.mp4	0.0	150.12420988082886	
24	135.3537449836731	pulse	1	t		22.0	2.5	/experiments/knapen_AOT/AOT_stimuli/rescaled_final/0001_rv.mp4	0.0	151.72448110580444	
24	135.47010397911072	fix_post	2		12	22.0	2.5	/experiments/knapen_AOT/AOT_stimuli/rescaled_final/0001_rv.mp4	0.0	151.84084010124207	0.10001349449157715
25	135.5701174736023	fix_pre	0		120	23.0	2.5	/experiments/knapen_AOT/AOT_stimuli/rescaled_final/1358_rv.mp4	0.0	151.94085359573364	1.0085363388061523
25	136.57865381240845	movie	1		275	23.0	2.5	/experiments/knapen_AOT/AOT_stimuli/rescaled_final/1358_rv.mp4	0.0	152.9493899345398	2.4920380115509033
25	136.95217108726501	pulse	1	t		23.0	2.5	/experiments/knapen_AOT/AOT_stimuli/rescaled_final/1358_rv.mp4	0.0	153.32290720939636	
25	138.5521216392517	pulse	1	t		23.0	2.5	/experiments/knapen_AOT/AOT_stimuli/rescaled_final/1358_rv.mp4	0.0	154.92285776138306	
25	139.07069182395935	fix_post	2		12	23.0	2.5	/experiments/knapen_AOT/AOT_stimuli/rescaled_final/1358_rv.mp4	0.0	155.4414279460907	0.10017871856689453
26	139.17087054252625	fix_pre	0		119	24.0	2.5	/experiments/knapen_AOT/AOT_stimuli/rescaled_final/0572_fw.mp4	0.0	155.5416066646576	0.9999575614929199
26	140.15438032150269	pulse	0	t		24.0	2.5	/experiments/knapen_AOT/AOT_stimuli/rescaled_final/0572_fw.mp4	0.0	156.52511644363403	
26	140.17082810401917	movie	1		262	24.0	2.5	/experiments/knapen_AOT/AOT_stimuli/rescaled_final/0572_fw.mp4	0.0	156.5415642261505	2.5003485679626465
26	141.7528796195984	pulse	1	t		24.0	2.5	/experiments/knapen_AOT/AOT_stimuli/rescaled_final/0572_fw.mp4	0.0	158.12361574172974	
26	142.6711766719818	fix_post	2		12	24.0	2.5	/experiments/knapen_AOT/AOT_stimuli/rescaled_final/0572_fw.mp4	0.0	159.04191279411316	0.10001564025878906
27	142.7711923122406	fix_pre	0		120	25.0	2.5	/experiments/knapen_AOT/AOT_stimuli/rescaled_final/0578_fw.mp4	0.0	159.14192843437195	1.008660078048706
27	143.35484910011292	pulse	0	t		25.0	2.5	/experiments/knapen_AOT/AOT_stimuli/rescaled_final/0578_fw.mp4	0.0	159.72558522224426	
27	143.7798523902893	movie	1		272	25.0	2.5	/experiments/knapen_AOT/AOT_stimuli/rescaled_final/0578_fw.mp4	0.0	160.15058851242065	2.4919209480285645
27	144.9531271457672	pulse	1	t		25.0	2.5	/experiments/knapen_AOT/AOT_stimuli/rescaled_final/0578_fw.mp4	0.0	161.32386326789856	
27	146.27177333831787	fix_post	2		12	25.0	2.5	/experiments/knapen_AOT/AOT_stimuli/rescaled_final/0578_fw.mp4	0.0	162.64250946044922	0.10000896453857422
28	146.37178230285645	fix_pre	0		120	26.0	2.5	/experiments/knapen_AOT/AOT_stimuli/rescaled_final/0441_rv.mp4	0.0	162.7425184249878	1.0084569454193115
28	146.55535769462585	pulse	0	t		26.0	2.5	/experiments/knapen_AOT/AOT_stimuli/rescaled_final/0441_rv.mp4	0.0	162.9260938167572	
28	147.38023924827576	movie	1		275	26.0	2.5	/experiments/knapen_AOT/AOT_stimuli/rescaled_final/0441_rv.mp4	0.0	163.7509753704071	2.4920401573181152
28	148.15400075912476	pulse	1	t		26.0	2.5	/experiments/knapen_AOT/AOT_stimuli/rescaled_final/0441_rv.mp4	0.0	164.5247368812561	
28	149.753760099411	pulse	1	t		26.0	2.5	/experiments/knapen_AOT/AOT_stimuli/rescaled_final/0441_rv.mp4	0.0	166.12449622154236	
28	149.87227940559387	fix_post	2		12	26.0	2.5	/experiments/knapen_AOT/AOT_stimuli/rescaled_final/0441_rv.mp4	0.0	166.24301552772522	0.10001301765441895
29	149.9722924232483	fix_pre	0		120	27.0	2.5	/experiments/knapen_AOT/AOT_stimuli/rescaled_final/0697_rv.mp4	0.0	166.34302854537964	1.0084953308105469
29	150.98078775405884	movie	1		276	27.0	2.5	/experiments/knapen_AOT/AOT_stimuli/rescaled_final/0697_rv.mp4	0.0	167.35152387619019	2.4920265674591064
29	151.35458183288574	pulse	1	t		27.0	2.5	/experiments/knapen_AOT/AOT_stimuli/rescaled_final/0697_rv.mp4	0.0	167.7253179550171	
29	152.95439076423645	pulse	1	t		27.0	2.5	/experiments/knapen_AOT/AOT_stimuli/rescaled_final/0697_rv.mp4	0.0	169.3251268863678	
29	153.47281432151794	fix_post	2		12	27.0	2.5	/experiments/knapen_AOT/AOT_stimuli/rescaled_final/0697_rv.mp4	0.0	169.8435504436493	0.10002398490905762
30	153.572838306427	fix_pre	0		119	28.0	2.5	blank	1.0	169.94357442855835	0.9918272495269775
30	154.55674600601196	pulse	0	t		28.0	2.5	blank	1.0	170.9274821281433	
30	154.56466555595398	movie	1		301	28.0	2.5	blank	1.0	170.93540167808533	2.5087268352508545
30	156.15678882598877	pulse	1	t		28.0	2.5	blank	1.0	172.52752494812012	
30	157.07339239120483	fix_post	2		12	28.0	2.5	blank	1.0	173.44412851333618	0.09999299049377441
31	157.1733853816986	fix_pre	0		120	29.0	2.5	/experiments/knapen_AOT/AOT_stimuli/rescaled_final/0930_rv.mp4	0.0	173.54412150382996	1.0084867477416992
31	157.75698900222778	pulse	0	t		29.0	2.5	/experiments/knapen_AOT/AOT_stimuli/rescaled_final/0930_rv.mp4	0.0	174.12772512435913	
31	158.1818721294403	movie	1		282	29.0	2.5	/experiments/knapen_AOT/AOT_stimuli/rescaled_final/0930_rv.mp4	0.0	174.55260825157166	2.4920225143432617
31	159.35575437545776	pulse	1	t		29.0	2.5	/experiments/knapen_AOT/AOT_stimuli/rescaled_final/0930_rv.mp4	0.0	175.7264904975891	
31	160.67389464378357	fix_post	2		12	29.0	2.5	/experiments/knapen_AOT/AOT_stimuli/rescaled_final/0930_rv.mp4	0.0	177.04463076591492	0.10008120536804199
32	160.7739758491516	fix_pre	0		120	30.0	2.5	/experiments/knapen_AOT/AOT_stimuli/rescaled_final/0752_fw.mp4	0.0	177.14471197128296	1.0084776878356934
32	160.95752358436584	pulse	0	t		30.0	2.5	/experiments/knapen_AOT/AOT_stimuli/rescaled_final/0752_fw.mp4	0.0	177.3282597064972	
32	161.7824535369873	movie	1		267	30.0	2.5	/experiments/knapen_AOT/AOT_stimuli/rescaled_final/0752_fw.mp4	0.0	178.15318965911865	2.4920008182525635
32	162.55678939819336	pulse	1	t		30.0	2.5	/experiments/knapen_AOT/AOT_stimuli/rescaled_final/0752_fw.mp4	0.0	178.9275255203247	
32	164.1582155227661	pulse	1	t		30.0	2.5	/experiments/knapen_AOT/AOT_stimuli/rescaled_final/0752_fw.mp4	0.0	180.52895164489746	
32	164.27445435523987	fix_post	2		12	30.0	2.5	/experiments/knapen_AOT/AOT_stimuli/rescaled_final/0752_fw.mp4	0.0	180.64519047737122	0.10006189346313477
33	164.374516248703	fix_pre	0		120	31.0	2.5	/experiments/knapen_AOT/AOT_stimuli/rescaled_final/0996_rv.mp4	0.0	180.74525237083435	1.0084643363952637
33	165.38298058509827	movie	1		282	31.0	2.5	/experiments/knapen_AOT/AOT_stimuli/rescaled_final/0996_rv.mp4	0.0	181.75371670722961	2.491995096206665
33	165.75664925575256	pulse	1	t		31.0	2.5	/experiments/knapen_AOT/AOT_stimuli/rescaled_final/0996_rv.mp4	0.0	182.1273853778839	
33	167.35653424263	pulse	1	t		31.0	2.5	/experiments/knapen_AOT/AOT_stimuli/rescaled_final/0996_rv.mp4	0.0	183.72727036476135	
33	167.87497568130493	fix_post	2		12	31.0	2.5	/experiments/knapen_AOT/AOT_stimuli/rescaled_final/0996_rv.mp4	0.0	184.24571180343628	0.10002565383911133
34	167.97500133514404	fix_pre	0		119	32.0	2.5	/experiments/knapen_AOT/AOT_stimuli/rescaled_final/0609_rv.mp4	0.0	184.3457374572754	1.0086538791656494
34	168.95886754989624	pulse	0	t		32.0	2.5	/experiments/knapen_AOT/AOT_stimuli/rescaled_final/0609_rv.mp4	0.0	185.3296036720276	
34	168.9836552143097	movie	1		263	32.0	2.5	/experiments/knapen_AOT/AOT_stimuli/rescaled_final/0609_rv.mp4	0.0	185.35439133644104	2.491888999938965
34	170.5592906475067	pulse	1	t		32.0	2.5	/experiments/knapen_AOT/AOT_stimuli/rescaled_final/0609_rv.mp4	0.0	186.93002676963806	
34	171.47554421424866	fix_post	2		12	32.0	2.5	/experiments/knapen_AOT/AOT_stimuli/rescaled_final/0609_rv.mp4	0.0	187.84628033638	0.09999728202819824
35	171.57554149627686	fix_pre	0		120	33.0	2.5	/experiments/knapen_AOT/AOT_stimuli/rescaled_final/1676_rv.mp4	0.0	187.9462776184082	1.008547306060791
35	172.15918898582458	pulse	0	t		33.0	2.5	/experiments/knapen_AOT/AOT_stimuli/rescaled_final/1676_rv.mp4	0.0	188.52992510795593	
35	172.58408880233765	movie	1		267	33.0	2.5	/experiments/knapen_AOT/AOT_stimuli/rescaled_final/1676_rv.mp4	0.0	188.954824924469	2.491978645324707
35	173.75927233695984	pulse	1	t		33.0	2.5	/experiments/knapen_AOT/AOT_stimuli/rescaled_final/1676_rv.mp4	0.0	190.1300084590912	
35	175.07606744766235	fix_post	2		12	33.0	2.5	/experiments/knapen_AOT/AOT_stimuli/rescaled_final/1676_rv.mp4	0.0	191.4468035697937	0.10001754760742188
36	175.17608499526978	fix_pre	0		120	34.0	2.5	/experiments/knapen_AOT/AOT_stimuli/rescaled_final/2137_fw.mp4	0.0	191.54682111740112	1.0084998607635498
36	175.35962796211243	pulse	0	t		34.0	2.5	/experiments/knapen_AOT/AOT_stimuli/rescaled_final/2137_fw.mp4	0.0	191.73036408424377	
36	176.18458485603333	movie	1		267	34.0	2.5	/experiments/knapen_AOT/AOT_stimuli/rescaled_final/2137_fw.mp4	0.0	192.55532097816467	2.492058753967285
36	176.95838975906372	pulse	1	t		34.0	2.5	/experiments/knapen_AOT/AOT_stimuli/rescaled_final/2137_fw.mp4	0.0	193.32912588119507	
36	178.55223274230957	pulse	1	t		34.0	2.5	/experiments/knapen_AOT/AOT_stimuli/rescaled_final/2137_fw.mp4	0.0	194.92296886444092	
36	178.6766436100006	fix_post	2		12	34.0	2.5	/experiments/knapen_AOT/AOT_stimuli/rescaled_final/2137_fw.mp4	0.0	195.04737973213196	0.09998440742492676
37	178.77662801742554	fix_pre	0		120	35.0	2.5	blank	1.0	195.14736413955688	1.0001716613769531
37	179.7767996788025	movie	1		300	35.0	2.5	blank	1.0	196.14753580093384	2.5003552436828613
37	180.1521029472351	pulse	1	t		35.0	2.5	blank	1.0	196.52283906936646	
37	181.7522838115692	pulse	1	t		35.0	2.5	blank	1.0	198.12301993370056	
37	182.27715492248535	fix_post	2		12	35.0	2.5	blank	1.0	198.6478910446167	0.10007119178771973
38	182.37722611427307	fix_pre	0		118	36.0	2.5	/experiments/knapen_AOT/AOT_stimuli/rescaled_final/0005_fw.mp4	0.0	198.74796223640442	0.9917960166931152
38	183.3525812625885	pulse	0	t		36.0	2.5	/experiments/knapen_AOT/AOT_stimuli/rescaled_final/0005_fw.mp4	0.0	199.72331738471985	
38	183.3690221309662	movie	1		257	36.0	2.5	/experiments/knapen_AOT/AOT_stimuli/rescaled_final/0005_fw.mp4	0.0	199.73975825309753	2.5003724098205566
38	184.95295643806458	pulse	1	t		36.0	2.5	/experiments/knapen_AOT/AOT_stimuli/rescaled_final/0005_fw.mp4	0.0	201.32369256019592	
38	185.86939454078674	fix_post	2		12	36.0	2.5	/experiments/knapen_AOT/AOT_stimuli/rescaled_final/0005_fw.mp4	0.0	202.2401306629181	0.09996271133422852
39	185.96935725212097	fix_pre	0		120	37.0	2.5	/experiments/knapen_AOT/AOT_stimuli/rescaled_final/0192_fw.mp4	0.0	202.34009337425232	1.008575677871704
39	186.55317187309265	pulse	0	t		37.0	2.5	/experiments/knapen_AOT/AOT_stimuli/rescaled_final/0192_fw.mp4	0.0	202.923907995224	
39	186.97793292999268	movie	1		277	37.0	2.5	/experiments/knapen_AOT/AOT_stimuli/rescaled_final/0192_fw.mp4	0.0	203.34866905212402	2.4919683933258057
39	188.1532347202301	pulse	1	t		37.0	2.5	/experiments/knapen_AOT/AOT_stimuli/rescaled_final/0192_fw.mp4	0.0	204.52397084236145	
39	189.46990132331848	fix_post	2		12	37.0	2.5	/experiments/knapen_AOT/AOT_stimuli/rescaled_final/0192_fw.mp4	0.0	205.84063744544983	0.10000777244567871
40	189.56990909576416	fix_pre	0		120	38.0	2.5	/experiments/knapen_AOT/AOT_stimuli/rescaled_final/0007_fw.mp4	0.0	205.9406452178955	1.008507490158081
40	189.75361442565918	pulse	0	t		38.0	2.5	/experiments/knapen_AOT/AOT_stimuli/rescaled_final/0007_fw.mp4	0.0	206.12435054779053	
40	190.57841658592224	movie	1		260	38.0	2.5	/experiments/knapen_AOT/AOT_stimuli/rescaled_final/0007_fw.mp4	0.0	206.9491527080536	2.4920244216918945
40	191.3538155555725	pulse	1	t		38.0	2.5	/experiments/knapen_AOT/AOT_stimuli/rescaled_final/0007_fw.mp4	0.0	207.72455167770386	
40	192.95394611358643	pulse	1	t		38.0	2.5	/experiments/knapen_AOT/AOT_stimuli/rescaled_final/0007_fw.mp4	0.0	209.32468223571777	
40	193.07044100761414	fix_post	2		12	38.0	2.5	/experiments/knapen_AOT/AOT_stimuli/rescaled_final/0007_fw.mp4	0.0	209.44117712974548	0.10001087188720703
41	193.17045187950134	fix_pre	0		120	39.0	2.5	/experiments/knapen_AOT/AOT_stimuli/rescaled_final/0977_rv.mp4	0.0	209.5411880016327	1.0085082054138184
41	194.17896008491516	movie	1		269	39.0	2.5	/experiments/knapen_AOT/AOT_stimuli/rescaled_final/0977_rv.mp4	0.0	210.5496962070465	2.492006301879883
41	194.55280709266663	pulse	1	t		39.0	2.5	/experiments/knapen_AOT/AOT_stimuli/rescaled_final/0977_rv.mp4	0.0	210.92354321479797	
41	196.15254640579224	pulse	1	t		39.0	2.5	/experiments/knapen_AOT/AOT_stimuli/rescaled_final/0977_rv.mp4	0.0	212.52328252792358	
41	196.67096638679504	fix_post	2		12	39.0	2.5	/experiments/knapen_AOT/AOT_stimuli/rescaled_final/0977_rv.mp4	0.0	213.0417025089264	0.10001659393310547
42	196.77098298072815	fix_pre	0		119	40.0	2.5	/experiments/knapen_AOT/AOT_stimuli/rescaled_final/0638_fw.mp4	0.0	213.1417191028595	1.0085444450378418
42	197.7547948360443	pulse	0	t		40.0	2.5	/experiments/knapen_AOT/AOT_stimuli/rescaled_final/0638_fw.mp4	0.0	214.12553095817566	
42	197.779527425766	movie	1		265	40.0	2.5	/experiments/knapen_AOT/AOT_stimuli/rescaled_final/0638_fw.mp4	0.0	214.15026354789734	2.491997241973877
42	199.35377764701843	pulse	1	t		40.0	2.5	/experiments/knapen_AOT/AOT_stimuli/rescaled_final/0638_fw.mp4	0.0	215.72451376914978	
42	200.27152466773987	fix_post	2		12	40.0	2.5	/experiments/knapen_AOT/AOT_stimuli/rescaled_final/0638_fw.mp4	0.0	216.64226078987122	0.10000181198120117
43	200.37152647972107	fix_pre	0		120	41.0	2.5	blank	1.0	216.74226260185242	1.0001707077026367
43	200.95513200759888	pulse	0	t		41.0	2.5	blank	1.0	217.32586812973022	
43	201.3716971874237	movie	1		300	41.0	2.5	blank	1.0	217.74243330955505	2.500377893447876
43	202.5557029247284	pulse	1	t		41.0	2.5	blank	1.0	218.92643904685974	
43	203.87207508087158	fix_post	2		12	41.0	2.5	blank	1.0	220.24281120300293	0.1000208854675293
44	203.9720959663391	fix_pre	0		120	42.0	2.5	/experiments/knapen_AOT/AOT_stimuli/rescaled_final/0741_rv.mp4	0.0	220.34283208847046	1.0084826946258545
44	204.15564680099487	pulse	0	t		42.0	2.5	/experiments/knapen_AOT/AOT_stimuli/rescaled_final/0741_rv.mp4	0.0	220.52638292312622	
44	204.98057866096497	movie	1		286	42.0	2.5	/experiments/knapen_AOT/AOT_stimuli/rescaled_final/0741_rv.mp4	0.0	221.3513147830963	2.492018461227417
44	205.75431418418884	pulse	1	t		42.0	2.5	/experiments/knapen_AOT/AOT_stimuli/rescaled_final/0741_rv.mp4	0.0	222.1250503063202	
44	207.3547830581665	pulse	1	t		42.0	2.5	/experiments/knapen_AOT/AOT_stimuli/rescaled_final/0741_rv.mp4	0.0	223.72551918029785	
44	207.47259712219238	fix_post	2		12	42.0	2.5	/experiments/knapen_AOT/AOT_stimuli/rescaled_final/0741_rv.mp4	0.0	223.84333324432373	0.09998059272766113
45	207.57257771492004	fix_pre	0		120	43.0	2.5	/experiments/knapen_AOT/AOT_stimuli/rescaled_final/0321_rv.mp4	0.0	223.9433138370514	1.0085344314575195
45	208.58111214637756	movie	1		284	43.0	2.5	/experiments/knapen_AOT/AOT_stimuli/rescaled_final/0321_rv.mp4	0.0	224.9518482685089	2.492088794708252
45	208.9546868801117	pulse	1	t		43.0	2.5	/experiments/knapen_AOT/AOT_stimuli/rescaled_final/0321_rv.mp4	0.0	225.32542300224304	
45	210.55469155311584	pulse	1	t		43.0	2.5	/experiments/knapen_AOT/AOT_stimuli/rescaled_final/0321_rv.mp4	0.0	226.9254276752472	
45	211.07320094108582	fix_post	2		12	43.0	2.5	/experiments/knapen_AOT/AOT_stimuli/rescaled_final/0321_rv.mp4	0.0	227.44393706321716	0.09998154640197754
46	211.1731824874878	fix_pre	0		119	44.0	2.5	/experiments/knapen_AOT/AOT_stimuli/rescaled_final/2123_rv.mp4	0.0	227.54391860961914	1.0001657009124756
46	212.1570246219635	pulse	0	t		44.0	2.5	/experiments/knapen_AOT/AOT_stimuli/rescaled_final/2123_rv.mp4	0.0	228.52776074409485	
46	212.17334818840027	movie	1		271	44.0	2.5	/experiments/knapen_AOT/AOT_stimuli/rescaled_final/2123_rv.mp4	0.0	228.54408431053162	2.5003905296325684
46	213.7556972503662	pulse	1	t		44.0	2.5	/experiments/knapen_AOT/AOT_stimuli/rescaled_final/2123_rv.mp4	0.0	230.12643337249756	
46	214.67373871803284	fix_post	2		12	44.0	2.5	/experiments/knapen_AOT/AOT_stimuli/rescaled_final/2123_rv.mp4	0.0	231.04447484016418	0.09997272491455078
47	214.7737114429474	fix_pre	0		120	45.0	2.5	/experiments/knapen_AOT/AOT_stimuli/rescaled_final/0625_fw.mp4	0.0	231.14444756507874	1.0085201263427734
47	215.357342004776	pulse	0	t		45.0	2.5	/experiments/knapen_AOT/AOT_stimuli/rescaled_final/0625_fw.mp4	0.0	231.72807812690735	
47	215.78223156929016	movie	1		266	45.0	2.5	/experiments/knapen_AOT/AOT_stimuli/rescaled_final/0625_fw.mp4	0.0	232.1529676914215	2.491999864578247
47	216.95554089546204	pulse	1	t		45.0	2.5	/experiments/knapen_AOT/AOT_stimuli/rescaled_final/0625_fw.mp4	0.0	233.32627701759338	
47	218.2742314338684	fix_post	2		12	45.0	2.5	/experiments/knapen_AOT/AOT_stimuli/rescaled_final/0625_fw.mp4	0.0	234.64496755599976	0.10011911392211914
48	218.37435054779053	fix_pre	0		120	46.0	2.5	/experiments/knapen_AOT/AOT_stimuli/rescaled_final/1723_rv.mp4	0.0	234.74508666992188	1.0084378719329834
48	218.5578441619873	pulse	0	t		46.0	2.5	/experiments/knapen_AOT/AOT_stimuli/rescaled_final/1723_rv.mp4	0.0	234.92858028411865	
48	219.3827884197235	movie	1		276	46.0	2.5	/experiments/knapen_AOT/AOT_stimuli/rescaled_final/1723_rv.mp4	0.0	235.75352454185486	2.4919981956481934
48	220.15584564208984	pulse	1	t		46.0	2.5	/experiments/knapen_AOT/AOT_stimuli/rescaled_final/1723_rv.mp4	0.0	236.5265817642212	
48	221.75642442703247	pulse	1	t		46.0	2.5	/experiments/knapen_AOT/AOT_stimuli/rescaled_final/1723_rv.mp4	0.0	238.12716054916382	
48	221.8747866153717	fix_post	2		1	46.0	2.5	/experiments/knapen_AOT/AOT_stimuli/rescaled_final/1723_rv.mp4	0.0	238.24552273750305	0.14173626899719238
49	222.0165228843689	fix_pre	0		115	47.0	2.5	blank	1.0	238.38725900650024	0.9584436416625977
49	222.9749665260315	movie	1		300	47.0	2.5	blank	1.0	239.34570264816284	2.5003416538238525
49	223.35853385925293	pulse	1	t		47.0	2.5	blank	1.0	239.72926998138428	
49	224.9587962627411	pulse	1	t		47.0	2.5	blank	1.0	241.32953238487244	
49	225.47530817985535	fix_post	2		12	47.0	2.5	blank	1.0	241.8460443019867	0.10008645057678223
50	225.57539463043213	fix_pre	0		119	48.0	2.5	/experiments/knapen_AOT/AOT_stimuli/rescaled_final/1020_rv.mp4	0.0	241.94613075256348	1.0000858306884766
50	226.5590009689331	pulse	0	t		48.0	2.5	/experiments/knapen_AOT/AOT_stimuli/rescaled_final/1020_rv.mp4	0.0	242.92973709106445	
50	226.5754804611206	movie	1		265	48.0	2.5	/experiments/knapen_AOT/AOT_stimuli/rescaled_final/1020_rv.mp4	0.0	242.94621658325195	2.500368356704712
50	228.15843272209167	pulse	1	t		48.0	2.5	/experiments/knapen_AOT/AOT_stimuli/rescaled_final/1020_rv.mp4	0.0	244.52916884422302	
50	229.07584881782532	fix_post	2		12	48.0	2.5	/experiments/knapen_AOT/AOT_stimuli/rescaled_final/1020_rv.mp4	0.0	245.44658493995667	0.10008811950683594
51	229.17593693733215	fix_pre	0		120	49.0	2.5	/experiments/knapen_AOT/AOT_stimuli/rescaled_final/0966_fw.mp4	0.0	245.5466730594635	1.008446455001831
51	229.75969290733337	pulse	0	t		49.0	2.5	/experiments/knapen_AOT/AOT_stimuli/rescaled_final/0966_fw.mp4	0.0	246.13042902946472	
51	230.18438339233398	movie	1		271	49.0	2.5	/experiments/knapen_AOT/AOT_stimuli/rescaled_final/0966_fw.mp4	0.0	246.55511951446533	2.4920451641082764
51	231.3593397140503	pulse	1	t		49.0	2.5	/experiments/knapen_AOT/AOT_stimuli/rescaled_final/0966_fw.mp4	0.0	247.73007583618164	
51	232.67642855644226	fix_post	2		12	49.0	2.5	/experiments/knapen_AOT/AOT_stimuli/rescaled_final/0966_fw.mp4	0.0	249.0471646785736	0.10002875328063965
52	232.7764573097229	fix_pre	0		120	50.0	2.5	/experiments/knapen_AOT/AOT_stimuli/rescaled_final/2103_rv.mp4	0.0	249.14719343185425	1.0084562301635742
52	232.95263409614563	pulse	0	t		50.0	2.5	/experiments/knapen_AOT/AOT_stimuli/rescaled_final/2103_rv.mp4	0.0	249.32337021827698	
52	233.78491353988647	movie	1		273	50.0	2.5	/experiments/knapen_AOT/AOT_stimuli/rescaled_final/2103_rv.mp4	0.0	250.15564966201782	2.4920430183410645
52	234.55928301811218	pulse	1	t		50.0	2.5	/experiments/knapen_AOT/AOT_stimuli/rescaled_final/2103_rv.mp4	0.0	250.93001914024353	
52	236.15259313583374	pulse	1	t		50.0	2.5	/experiments/knapen_AOT/AOT_stimuli/rescaled_final/2103_rv.mp4	0.0	252.5233292579651	
52	236.27695655822754	fix_post	2		12	50.0	2.5	/experiments/knapen_AOT/AOT_stimuli/rescaled_final/2103_rv.mp4	0.0	252.6476926803589	0.1000051498413086
53	236.37696170806885	fix_pre	0		120	51.0	2.5	/experiments/knapen_AOT/AOT_stimuli/rescaled_final/0507_rv.mp4	0.0	252.7476978302002	1.0085303783416748
53	237.38549208641052	movie	1		268	51.0	2.5	/experiments/knapen_AOT/AOT_stimuli/rescaled_final/0507_rv.mp4	0.0	253.75622820854187	2.491985559463501
53	237.75242495536804	pulse	1	t		51.0	2.5	/experiments/knapen_AOT/AOT_stimuli/rescaled_final/0507_rv.mp4	0.0	254.1231610774994	
53	239.35262322425842	pulse	1	t		51.0	2.5	/experiments/knapen_AOT/AOT_stimuli/rescaled_final/0507_rv.mp4	0.0	255.72335934638977	
53	239.87747764587402	fix_post	2		12	51.0	2.5	/experiments/knapen_AOT/AOT_stimuli/rescaled_final/0507_rv.mp4	0.0	256.24821376800537	0.10002326965332031
54	239.97750091552734	fix_pre	0		118	52.0	2.5	/experiments/knapen_AOT/AOT_stimuli/rescaled_final/0195_fw.mp4	0.0	256.3482370376587	1.0002527236938477
54	240.9530906677246	pulse	0	t		52.0	2.5	/experiments/knapen_AOT/AOT_stimuli/rescaled_final/0195_fw.mp4	0.0	257.32382678985596	
54	240.9777536392212	movie	1		288	52.0	2.5	/experiments/knapen_AOT/AOT_stimuli/rescaled_final/0195_fw.mp4	0.0	257.34848976135254	2.491940975189209
54	242.5531599521637	pulse	1	t		52.0	2.5	/experiments/knapen_AOT/AOT_stimuli/rescaled_final/0195_fw.mp4	0.0	258.92389607429504	
54	243.4696946144104	fix_post	2		12	52.0	2.5	/experiments/knapen_AOT/AOT_stimuli/rescaled_final/0195_fw.mp4	0.0	259.84043073654175	0.1000204086303711
55	243.56971502304077	fix_pre	0		120	53.0	2.5	/experiments/knapen_AOT/AOT_stimuli/rescaled_final/0977_fw.mp4	0.0	259.9404511451721	1.0084900856018066
55	244.1533932685852	pulse	0	t		53.0	2.5	/experiments/knapen_AOT/AOT_stimuli/rescaled_final/0977_fw.mp4	0.0	260.52412939071655	
55	244.57820510864258	movie	1		278	53.0	2.5	/experiments/knapen_AOT/AOT_stimuli/rescaled_final/0977_fw.mp4	0.0	260.9489412307739	2.4921083450317383
55	245.75424766540527	pulse	1	t		53.0	2.5	/experiments/knapen_AOT/AOT_stimuli/rescaled_final/0977_fw.mp4	0.0	262.1249837875366	
55	247.07031345367432	fix_post	2		12	53.0	2.5	/experiments/knapen_AOT/AOT_stimuli/rescaled_final/0977_fw.mp4	0.0	263.44104957580566	0.10003972053527832
56	247.1703531742096	fix_pre	0		120	54.0	2.5	blank	1.0	263.54108929634094	1.0000910758972168
56	247.3538053035736	pulse	0	t		54.0	2.5	blank	1.0	263.72454142570496	
56	248.1704442501068	movie	1		300	54.0	2.5	blank	1.0	264.54118037223816	2.500331163406372
56	248.95399641990662	pulse	1	t		54.0	2.5	blank	1.0	265.32473254203796	
56	250.55443263053894	pulse	1	t		54.0	2.5	blank	1.0	266.9251687526703	
56	250.67077541351318	fix_post	2		12	54.0	2.5	blank	1.0	267.04151153564453	0.10003972053527832
57	250.77081513404846	fix_pre	0		120	55.0	2.5	/experiments/knapen_AOT/AOT_stimuli/rescaled_final/0920_fw.mp4	0.0	267.1415512561798	1.008453607559204
57	251.77926874160767	movie	1		277	55.0	2.5	/experiments/knapen_AOT/AOT_stimuli/rescaled_final/0920_fw.mp4	0.0	268.150004863739	2.4920315742492676
57	252.1527373790741	pulse	1	t		55.0	2.5	/experiments/knapen_AOT/AOT_stimuli/rescaled_final/0920_fw.mp4	0.0	268.52347350120544	
57	253.75308060646057	pulse	1	t		55.0	2.5	/experiments/knapen_AOT/AOT_stimuli/rescaled_final/0920_fw.mp4	0.0	270.1238167285919	
57	254.27130031585693	fix_post	2		12	55.0	2.5	/experiments/knapen_AOT/AOT_stimuli/rescaled_final/0920_fw.mp4	0.0	270.6420364379883	0.1000213623046875
58	254.37132167816162	fix_pre	0		119	56.0	2.5	/experiments/knapen_AOT/AOT_stimuli/rescaled_final/2091_rv.mp4	0.0	270.74205780029297	1.0001907348632812
58	255.35514760017395	pulse	0	t		56.0	2.5	/experiments/knapen_AOT/AOT_stimuli/rescaled_final/2091_rv.mp4	0.0	271.7258837223053	
58	255.3715124130249	movie	1		278	56.0	2.5	/experiments/knapen_AOT/AOT_stimuli/rescaled_final/2091_rv.mp4	0.0	271.74224853515625	2.5003716945648193
58	256.9539144039154	pulse	1	t		56.0	2.5	/experiments/knapen_AOT/AOT_stimuli/rescaled_final/2091_rv.mp4	0.0	273.32465052604675	
58	257.8718841075897	fix_post	2		12	56.0	2.5	/experiments/knapen_AOT/AOT_stimuli/rescaled_final/2091_rv.mp4	0.0	274.24262022972107	0.1001126766204834
59	257.9719967842102	fix_pre	0		120	57.0	2.5	/experiments/knapen_AOT/AOT_stimuli/rescaled_final/0996_fw.mp4	0.0	274.34273290634155	1.0083622932434082
59	258.55551266670227	pulse	0	t		57.0	2.5	/experiments/knapen_AOT/AOT_stimuli/rescaled_final/0996_fw.mp4	0.0	274.9262487888336	
59	258.9803590774536	movie	1		267	57.0	2.5	/experiments/knapen_AOT/AOT_stimuli/rescaled_final/0996_fw.mp4	0.0	275.35109519958496	2.492030620574951
59	260.15595293045044	pulse	1	t		57.0	2.5	/experiments/knapen_AOT/AOT_stimuli/rescaled_final/0996_fw.mp4	0.0	276.5266890525818	
59	261.47238969802856	fix_post	2		12	57.0	2.5	/experiments/knapen_AOT/AOT_stimuli/rescaled_final/0996_fw.mp4	0.0	277.8431258201599	0.0999910831451416
60	261.5723807811737	fix_pre	0		120	58.0	2.5	/experiments/knapen_AOT/AOT_stimuli/rescaled_final/0386_rv.mp4	0.0	277.94311690330505	1.0085909366607666
60	261.75599098205566	pulse	0	t		58.0	2.5	/experiments/knapen_AOT/AOT_stimuli/rescaled_final/0386_rv.mp4	0.0	278.126727104187	
60	262.5809717178345	movie	1		274	58.0	2.5	/experiments/knapen_AOT/AOT_stimuli/rescaled_final/0386_rv.mp4	0.0	278.9517078399658	2.491959571838379
60	263.3548982143402	pulse	1	t		58.0	2.5	/experiments/knapen_AOT/AOT_stimuli/rescaled_final/0386_rv.mp4	0.0	279.72563433647156	
60	264.9559910297394	pulse	1	t		58.0	2.5	/experiments/knapen_AOT/AOT_stimuli/rescaled_final/0386_rv.mp4	0.0	281.3267271518707	
60	265.07293128967285	fix_post	2		12	58.0	2.5	/experiments/knapen_AOT/AOT_stimuli/rescaled_final/0386_rv.mp4	0.0	281.4436674118042	0.10001277923583984
61	265.1729440689087	fix_pre	0		120	59.0	2.5	/experiments/knapen_AOT/AOT_stimuli/rescaled_final/0404_rv.mp4	0.0	281.54368019104004	1.008493423461914
61	266.1814374923706	movie	1		276	59.0	2.5	/experiments/knapen_AOT/AOT_stimuli/rescaled_final/0404_rv.mp4	0.0	282.55217361450195	2.492042064666748
61	266.55547547340393	pulse	1	t		59.0	2.5	/experiments/knapen_AOT/AOT_stimuli/rescaled_final/0404_rv.mp4	0.0	282.9262115955353	
61	268.1552519798279	pulse	1	t		59.0	2.5	/experiments/knapen_AOT/AOT_stimuli/rescaled_final/0404_rv.mp4	0.0	284.52598810195923	
61	268.67347955703735	fix_post	2		12	59.0	2.5	/experiments/knapen_AOT/AOT_stimuli/rescaled_final/0404_rv.mp4	0.0	285.0442156791687	0.10001659393310547
62	268.77349615097046	fix_pre	0		119	60.0	2.5	/experiments/knapen_AOT/AOT_stimuli/rescaled_final/0192_rv.mp4	0.0	285.1442322731018	1.0002315044403076
62	269.75717425346375	pulse	0	t		60.0	2.5	/experiments/knapen_AOT/AOT_stimuli/rescaled_final/0192_rv.mp4	0.0	286.1279103755951	
62	269.77372765541077	movie	1		286	60.0	2.5	/experiments/knapen_AOT/AOT_stimuli/rescaled_final/0192_rv.mp4	0.0	286.1444637775421	2.500293254852295
62	271.35562205314636	pulse	1	t		60.0	2.5	/experiments/knapen_AOT/AOT_stimuli/rescaled_final/0192_rv.mp4	0.0	287.7263581752777	
62	272.27402091026306	fix_post	2		12	60.0	2.5	/experiments/knapen_AOT/AOT_stimuli/rescaled_final/0192_rv.mp4	0.0	288.6447570323944	0.1000220775604248
63	272.3740429878235	fix_pre	0		120	61.0	2.5	/experiments/knapen_AOT/AOT_stimuli/rescaled_final/1174_rv.mp4	0.0	288.74477910995483	1.0084741115570068
63	272.95784425735474	pulse	0	t		61.0	2.5	/experiments/knapen_AOT/AOT_stimuli/rescaled_final/1174_rv.mp4	0.0	289.3285803794861	
63	273.3825170993805	movie	1		271	61.0	2.5	/experiments/knapen_AOT/AOT_stimuli/rescaled_final/1174_rv.mp4	0.0	289.75325322151184	2.492051362991333
63	274.5558693408966	pulse	1	t		61.0	2.5	/experiments/knapen_AOT/AOT_stimuli/rescaled_final/1174_rv.mp4	0.0	290.92660546302795	
63	275.8745684623718	fix_post	2		12	61.0	2.5	/experiments/knapen_AOT/AOT_stimuli/rescaled_final/1174_rv.mp4	0.0	292.2453045845032	0.10001969337463379
64	275.97458815574646	fix_pre	0		120	62.0	2.5	blank	1.0	292.3453242778778	1.0001721382141113
64	276.15832710266113	pulse	0	t		62.0	2.5	blank	1.0	292.5290632247925	
64	276.97476029396057	movie	1		300	62.0	2.5	blank	1.0	293.3454964160919	2.5003833770751953
64	277.75837540626526	pulse	1	t		62.0	2.5	blank	1.0	294.1291115283966	
64	279.358770608902	pulse	1	t		62.0	2.5	blank	1.0	295.7295067310333	
64	279.47514367103577	fix_post	2		12	62.0	2.5	blank	1.0	295.8458797931671	0.1000058650970459
65	279.5751495361328	fix_pre	0		120	63.0	2.5	/experiments/knapen_AOT/AOT_stimuli/rescaled_final/0241_fw.mp4	0.0	295.94588565826416	1.0084848403930664
65	280.5836343765259	movie	1		275	63.0	2.5	/experiments/knapen_AOT/AOT_stimuli/rescaled_final/0241_fw.mp4	0.0	296.9543704986572	2.492016315460205
65	280.95744919776917	pulse	1	t		63.0	2.5	/experiments/knapen_AOT/AOT_stimuli/rescaled_final/0241_fw.mp4	0.0	297.3281853199005	
65	282.55757546424866	pulse	1	t		63.0	2.5	/experiments/knapen_AOT/AOT_stimuli/rescaled_final/0241_fw.mp4	0.0	298.92831158638	
65	283.0756506919861	fix_post	2		12	63.0	2.5	/experiments/knapen_AOT/AOT_stimuli/rescaled_final/0241_fw.mp4	0.0	299.44638681411743	0.10001659393310547
66	283.1756672859192	fix_pre	0		119	64.0	2.5	/experiments/knapen_AOT/AOT_stimuli/rescaled_final/1478_fw.mp4	0.0	299.54640340805054	1.0002937316894531
66	284.1594307422638	pulse	0	t		64.0	2.5	/experiments/knapen_AOT/AOT_stimuli/rescaled_final/1478_fw.mp4	0.0	300.53016686439514	
66	284.17596101760864	movie	1		266	64.0	2.5	/experiments/knapen_AOT/AOT_stimuli/rescaled_final/1478_fw.mp4	0.0	300.54669713974	2.5002665519714355
66	285.7583713531494	pulse	1	t		64.0	2.5	/experiments/knapen_AOT/AOT_stimuli/rescaled_final/1478_fw.mp4	0.0	302.12910747528076	
66	286.6762275695801	fix_post	2		12	64.0	2.5	/experiments/knapen_AOT/AOT_stimuli/rescaled_final/1478_fw.mp4	0.0	303.0469636917114	0.09997391700744629
67	286.7762014865875	fix_pre	0		120	65.0	2.5	/experiments/knapen_AOT/AOT_stimuli/rescaled_final/0043_rv.mp4	0.0	303.1469376087189	1.0085084438323975
67	287.35203790664673	pulse	0	t		65.0	2.5	/experiments/knapen_AOT/AOT_stimuli/rescaled_final/0043_rv.mp4	0.0	303.7227740287781	
67	287.7847099304199	movie	1		277	65.0	2.5	/experiments/knapen_AOT/AOT_stimuli/rescaled_final/0043_rv.mp4	0.0	304.15544605255127	2.492009401321411
67	288.9519474506378	pulse	1	t		65.0	2.5	/experiments/knapen_AOT/AOT_stimuli/rescaled_final/0043_rv.mp4	0.0	305.32268357276917	
67	290.27671933174133	fix_post	2		12	65.0	2.5	/experiments/knapen_AOT/AOT_stimuli/rescaled_final/0043_rv.mp4	0.0	306.6474554538727	0.10001015663146973
68	290.3767294883728	fix_pre	0		120	66.0	2.5	/experiments/knapen_AOT/AOT_stimuli/rescaled_final/0050_fw.mp4	0.0	306.74746561050415	1.0086143016815186
68	290.55212783813477	pulse	0	t		66.0	2.5	/experiments/knapen_AOT/AOT_stimuli/rescaled_final/0050_fw.mp4	0.0	306.9228639602661	
68	291.3853437900543	movie	1		283	66.0	2.5	/experiments/knapen_AOT/AOT_stimuli/rescaled_final/0050_fw.mp4	0.0	307.75607991218567	2.492017984390259
68	292.15221214294434	pulse	1	t		66.0	2.5	/experiments/knapen_AOT/AOT_stimuli/rescaled_final/0050_fw.mp4	0.0	308.5229482650757	
68	293.7524628639221	pulse	1	t		66.0	2.5	/experiments/knapen_AOT/AOT_stimuli/rescaled_final/0050_fw.mp4	0.0	310.12319898605347	
68	293.8773617744446	fix_post	2		12	66.0	2.5	/experiments/knapen_AOT/AOT_stimuli/rescaled_final/0050_fw.mp4	0.0	310.2480978965759	0.09997963905334473
69	293.9773414134979	fix_pre	0		120	67.0	2.5	/experiments/knapen_AOT/AOT_stimuli/rescaled_final/1582_rv.mp4	0.0	310.3480775356293	1.008439540863037
69	294.98578095436096	movie	1		272	67.0	2.5	/experiments/knapen_AOT/AOT_stimuli/rescaled_final/1582_rv.mp4	0.0	311.3565170764923	2.492035388946533
69	295.35317826271057	pulse	1	t		67.0	2.5	/experiments/knapen_AOT/AOT_stimuli/rescaled_final/1582_rv.mp4	0.0	311.7239143848419	
69	296.953049659729	pulse	1	t		67.0	2.5	/experiments/knapen_AOT/AOT_stimuli/rescaled_final/1582_rv.mp4	0.0	313.32378578186035	
69	297.4778163433075	fix_post	2		12	67.0	2.5	/experiments/knapen_AOT/AOT_stimuli/rescaled_final/1582_rv.mp4	0.0	313.84855246543884	0.10001182556152344
70	297.577828168869	fix_pre	0		118	68.0	2.5	/experiments/knapen_AOT/AOT_stimuli/rescaled_final/0566_rv.mp4	0.0	313.94856429100037	0.9918286800384521
70	298.5531322956085	pulse	0	t		68.0	2.5	/experiments/knapen_AOT/AOT_stimuli/rescaled_final/0566_rv.mp4	0.0	314.92386841773987	
70	298.56965684890747	movie	1		283	68.0	2.5	/experiments/knapen_AOT/AOT_stimuli/rescaled_final/0566_rv.mp4	0.0	314.9403929710388	2.500369071960449
70	300.1521599292755	pulse	1	t		68.0	2.5	/experiments/knapen_AOT/AOT_stimuli/rescaled_final/0566_rv.mp4	0.0	316.52289605140686	
70	301.0700259208679	fix_post	2		12	68.0	2.5	/experiments/knapen_AOT/AOT_stimuli/rescaled_final/0566_rv.mp4	0.0	317.44076204299927	0.10001206398010254
71	301.170037984848	fix_pre	0		120	69.0	2.5	/experiments/knapen_AOT/AOT_stimuli/rescaled_final/1190_rv.mp4	0.0	317.54077410697937	1.008490800857544
71	301.75367498397827	pulse	0	t		69.0	2.5	/experiments/knapen_AOT/AOT_stimuli/rescaled_final/1190_rv.mp4	0.0	318.1244111061096	
71	302.17852878570557	movie	1		280	69.0	2.5	/experiments/knapen_AOT/AOT_stimuli/rescaled_final/1190_rv.mp4	0.0	318.5492649078369	2.4920148849487305
71	303.3519752025604	pulse	1	t		69.0	2.5	/experiments/knapen_AOT/AOT_stimuli/rescaled_final/1190_rv.mp4	0.0	319.7227113246918	
71	304.6705436706543	fix_post	2		12	69.0	2.5	/experiments/knapen_AOT/AOT_stimuli/rescaled_final/1190_rv.mp4	0.0	321.04127979278564	0.1000223159790039
72	304.7705659866333	fix_pre	0		120	70.0	2.5	blank	1.0	321.14130210876465	1.0001535415649414
72	304.95411229133606	pulse	0	t		70.0	2.5	blank	1.0	321.3248484134674	
72	305.77071952819824	movie	1		300	70.0	2.5	blank	1.0	322.1414556503296	2.5003890991210938
72	306.5543694496155	pulse	1	t		70.0	2.5	blank	1.0	322.9251055717468	
72	308.1546301841736	pulse	1	t		70.0	2.5	blank	1.0	324.52536630630493	
72	308.27110862731934	fix_post	2		12	70.0	2.5	blank	1.0	324.6418447494507	0.10000038146972656
73	308.37110900878906	fix_pre	0		120	71.0	2.5	/experiments/knapen_AOT/AOT_stimuli/rescaled_final/1566_rv.mp4	0.0	324.7418451309204	1.0085012912750244
73	309.3796103000641	movie	1		250	71.0	2.5	/experiments/knapen_AOT/AOT_stimuli/rescaled_final/1566_rv.mp4	0.0	325.75034642219543	2.4920506477355957
73	309.7529630661011	pulse	1	t		71.0	2.5	/experiments/knapen_AOT/AOT_stimuli/rescaled_final/1566_rv.mp4	0.0	326.1236991882324	
73	311.3558089733124	pulse	1	t		71.0	2.5	/experiments/knapen_AOT/AOT_stimuli/rescaled_final/1566_rv.mp4	0.0	327.7265450954437	
73	311.8716609477997	fix_post	2		12	71.0	2.5	/experiments/knapen_AOT/AOT_stimuli/rescaled_final/1566_rv.mp4	0.0	328.24239706993103	0.10002779960632324
74	311.971688747406	fix_pre	0		119	72.0	2.5	/experiments/knapen_AOT/AOT_stimuli/rescaled_final/0566_rv.mp4	0.0	328.34242486953735	1.0001757144927979
74	312.9554817676544	pulse	0	t		72.0	2.5	/experiments/knapen_AOT/AOT_stimuli/rescaled_final/0566_rv.mp4	0.0	329.32621788978577	
74	312.9718644618988	movie	1		280	72.0	2.5	/experiments/knapen_AOT/AOT_stimuli/rescaled_final/0566_rv.mp4	0.0	329.34260058403015	2.5003113746643066
74	314.55419063568115	pulse	1	t		72.0	2.5	/experiments/knapen_AOT/AOT_stimuli/rescaled_final/0566_rv.mp4	0.0	330.9249267578125	
74	315.4721758365631	fix_post	2		12	72.0	2.5	/experiments/knapen_AOT/AOT_stimuli/rescaled_final/0566_rv.mp4	0.0	331.84291195869446	0.10006356239318848
75	315.5722393989563	fix_pre	0		120	73.0	2.5	/experiments/knapen_AOT/AOT_stimuli/rescaled_final/1820_rv.mp4	0.0	331.94297552108765	1.0084946155548096
75	316.15610432624817	pulse	0	t		73.0	2.5	/experiments/knapen_AOT/AOT_stimuli/rescaled_final/1820_rv.mp4	0.0	332.5268404483795	
75	316.5807340145111	movie	1		283	73.0	2.5	/experiments/knapen_AOT/AOT_stimuli/rescaled_final/1820_rv.mp4	0.0	332.95147013664246	2.492007255554199
75	317.7543396949768	pulse	1	t		73.0	2.5	/experiments/knapen_AOT/AOT_stimuli/rescaled_final/1820_rv.mp4	0.0	334.12507581710815	
75	319.0727412700653	fix_post	2		12	73.0	2.5	/experiments/knapen_AOT/AOT_stimuli/rescaled_final/1820_rv.mp4	0.0	335.44347739219666	0.10025382041931152
76	319.1729950904846	fix_pre	0		120	74.0	2.5	/experiments/knapen_AOT/AOT_stimuli/rescaled_final/1260_rv.mp4	0.0	335.54373121261597	1.0082306861877441
76	319.356406211853	pulse	0	t		74.0	2.5	/experiments/knapen_AOT/AOT_stimuli/rescaled_final/1260_rv.mp4	0.0	335.7271423339844	
76	320.18122577667236	movie	1		285	74.0	2.5	/experiments/knapen_AOT/AOT_stimuli/rescaled_final/1260_rv.mp4	0.0	336.5519618988037	2.492039442062378
76	320.95502161979675	pulse	1	t		74.0	2.5	/experiments/knapen_AOT/AOT_stimuli/rescaled_final/1260_rv.mp4	0.0	337.3257577419281	
76	322.5549077987671	pulse	1	t		74.0	2.5	/experiments/knapen_AOT/AOT_stimuli/rescaled_final/1260_rv.mp4	0.0	338.92564392089844	
76	322.67326521873474	fix_post	2		12	74.0	2.5	/experiments/knapen_AOT/AOT_stimuli/rescaled_final/1260_rv.mp4	0.0	339.0440013408661	0.10001230239868164
77	322.7732775211334	fix_pre	0		120	75.0	2.5	/experiments/knapen_AOT/AOT_stimuli/rescaled_final/0930_fw.mp4	0.0	339.14401364326477	1.008507490158081
77	323.7817850112915	movie	1		268	75.0	2.5	/experiments/knapen_AOT/AOT_stimuli/rescaled_final/0930_fw.mp4	0.0	340.15252113342285	2.492014169692993
77	324.15527153015137	pulse	1	t		75.0	2.5	/experiments/knapen_AOT/AOT_stimuli/rescaled_final/0930_fw.mp4	0.0	340.5260076522827	
77	325.7553915977478	pulse	1	t		75.0	2.5	/experiments/knapen_AOT/AOT_stimuli/rescaled_final/0930_fw.mp4	0.0	342.12612771987915	
77	326.2737991809845	fix_post	2		12	75.0	2.5	/experiments/knapen_AOT/AOT_stimuli/rescaled_final/0930_fw.mp4	0.0	342.64453530311584	0.10004901885986328
78	326.37384819984436	fix_pre	0		119	76.0	2.5	/experiments/knapen_AOT/AOT_stimuli/rescaled_final/0559_rv.mp4	0.0	342.7445843219757	1.0002155303955078
78	327.3577423095703	pulse	0	t		76.0	2.5	/experiments/knapen_AOT/AOT_stimuli/rescaled_final/0559_rv.mp4	0.0	343.72847843170166	
78	327.37406373023987	movie	1		280	76.0	2.5	/experiments/knapen_AOT/AOT_stimuli/rescaled_final/0559_rv.mp4	0.0	343.7447998523712	2.5003201961517334
78	328.9579463005066	pulse	1	t		76.0	2.5	/experiments/knapen_AOT/AOT_stimuli/rescaled_final/0559_rv.mp4	0.0	345.32868242263794	
78	329.8743839263916	fix_post	2		12	76.0	2.5	/experiments/knapen_AOT/AOT_stimuli/rescaled_final/0559_rv.mp4	0.0	346.24512004852295	0.09998106956481934
79	329.9743649959564	fix_pre	0		120	77.0	2.5	blank	1.0	346.34510111808777	1.0001366138458252
79	330.55807280540466	pulse	0	t		77.0	2.5	blank	1.0	346.928808927536	
79	330.97450160980225	movie	1		300	77.0	2.5	blank	1.0	347.3452377319336	2.500471591949463
79	332.1582226753235	pulse	1	t		77.0	2.5	blank	1.0	348.52895879745483	
79	333.4749732017517	fix_post	2		12	77.0	2.5	blank	1.0	349.84570932388306	0.09992718696594238
80	333.57490038871765	fix_pre	0		120	78.0	2.5	/experiments/knapen_AOT/AOT_stimuli/rescaled_final/1261_rv.mp4	0.0	349.945636510849	1.008559226989746
80	333.7584843635559	pulse	0	t		78.0	2.5	/experiments/knapen_AOT/AOT_stimuli/rescaled_final/1261_rv.mp4	0.0	350.12922048568726	
80	334.5834596157074	movie	1		266	78.0	2.5	/experiments/knapen_AOT/AOT_stimuli/rescaled_final/1261_rv.mp4	0.0	350.95419573783875	2.4920146465301514
80	335.3590292930603	pulse	1	t		78.0	2.5	/experiments/knapen_AOT/AOT_stimuli/rescaled_final/1261_rv.mp4	0.0	351.72976541519165	
80	336.959148645401	pulse	1	t		78.0	2.5	/experiments/knapen_AOT/AOT_stimuli/rescaled_final/1261_rv.mp4	0.0	353.32988476753235	
80	337.07547426223755	fix_post	2		12	78.0	2.5	/experiments/knapen_AOT/AOT_stimuli/rescaled_final/1261_rv.mp4	0.0	353.4462103843689	0.09998106956481934
81	337.17545533180237	fix_pre	0		120	79.0	2.5	/experiments/knapen_AOT/AOT_stimuli/rescaled_final/1258_rv.mp4	0.0	353.5461914539337	1.0085139274597168
81	338.1839692592621	movie	1		266	79.0	2.5	/experiments/knapen_AOT/AOT_stimuli/rescaled_final/1258_rv.mp4	0.0	354.55470538139343	2.4920051097869873
81	338.55796456336975	pulse	1	t		79.0	2.5	/experiments/knapen_AOT/AOT_stimuli/rescaled_final/1258_rv.mp4	0.0	354.9287006855011	
81	340.1579055786133	pulse	1	t		79.0	2.5	/experiments/knapen_AOT/AOT_stimuli/rescaled_final/1258_rv.mp4	0.0	356.52864170074463	
81	340.6759743690491	fix_post	2		12	79.0	2.5	/experiments/knapen_AOT/AOT_stimuli/rescaled_final/1258_rv.mp4	0.0	357.0467104911804	0.10006117820739746
82	340.77603554725647	fix_pre	0		119	80.0	2.5	/experiments/knapen_AOT/AOT_stimuli/rescaled_final/1822_rv.mp4	0.0	357.1467716693878	1.0001258850097656
82	341.75979590415955	pulse	0	t		80.0	2.5	/experiments/knapen_AOT/AOT_stimuli/rescaled_final/1822_rv.mp4	0.0	358.1305320262909	
82	341.77616143226624	movie	1		273	80.0	2.5	/experiments/knapen_AOT/AOT_stimuli/rescaled_final/1822_rv.mp4	0.0	358.1468975543976	2.5003538131713867
82	343.3582022190094	pulse	1	t		80.0	2.5	/experiments/knapen_AOT/AOT_stimuli/rescaled_final/1822_rv.mp4	0.0	359.72893834114075	
82	344.2765152454376	fix_post	2		12	80.0	2.5	/experiments/knapen_AOT/AOT_stimuli/rescaled_final/1822_rv.mp4	0.0	360.64725136756897	0.10003805160522461
83	344.37655329704285	fix_pre	0		120	81.0	2.5	/experiments/knapen_AOT/AOT_stimuli/rescaled_final/0870_fw.mp4	0.0	360.7472894191742	1.0085015296936035
83	344.9523150920868	pulse	0	t		81.0	2.5	/experiments/knapen_AOT/AOT_stimuli/rescaled_final/0870_fw.mp4	0.0	361.32305121421814	
83	345.38505482673645	movie	1		264	81.0	2.5	/experiments/knapen_AOT/AOT_stimuli/rescaled_final/0870_fw.mp4	0.0	361.7557909488678	2.4919984340667725
83	346.56057476997375	pulse	1	t		81.0	2.5	/experiments/knapen_AOT/AOT_stimuli/rescaled_final/0870_fw.mp4	0.0	362.9313108921051	
83	347.8770532608032	fix_post	2		12	81.0	2.5	/experiments/knapen_AOT/AOT_stimuli/rescaled_final/0870_fw.mp4	0.0	364.24778938293457	0.10007715225219727
84	347.9771304130554	fix_pre	0		120	82.0	2.5	blank	1.0	364.34786653518677	1.0000824928283691
84	348.1523263454437	pulse	0	t		82.0	2.5	blank	1.0	364.5230624675751	
84	348.9772129058838	movie	1		300	82.0	2.5	blank	1.0	365.34794902801514	2.500408172607422
84	349.7525894641876	pulse	1	t		82.0	2.5	blank	1.0	366.12332558631897	
84	351.35282611846924	pulse	1	t		82.0	2.5	blank	1.0	367.7235622406006	
84	351.4776210784912	fix_post	2		12	82.0	2.5	blank	1.0	367.84835720062256	0.1000056266784668
85	351.5776267051697	fix_pre	0		120	83.0	2.5	/experiments/knapen_AOT/AOT_stimuli/rescaled_final/1862_fw.mp4	0.0	367.948362827301	1.0084953308105469
85	352.5861220359802	movie	1		264	83.0	2.5	/experiments/knapen_AOT/AOT_stimuli/rescaled_final/1862_fw.mp4	0.0	368.9568581581116	2.500349521636963
85	352.95561027526855	pulse	1	t		83.0	2.5	/experiments/knapen_AOT/AOT_stimuli/rescaled_final/1862_fw.mp4	0.0	369.3263463973999	
85	354.5532970428467	pulse	1	t		83.0	2.5	/experiments/knapen_AOT/AOT_stimuli/rescaled_final/1862_fw.mp4	0.0	370.924033164978	
85	355.0864715576172	fix_post	2		11	83.0	2.5	/experiments/knapen_AOT/AOT_stimuli/rescaled_final/1862_fw.mp4	0.0	371.45720767974854	0.09164977073669434
87	355.1781213283539	stim	0		1716					371.54885745048523	14.302168846130371
87	356.1535460948944	pulse	0	t						372.52428221702576	
87	357.75394654273987	pulse	0	t						374.1246826648712	
87	359.3543951511383	pulse	0	t						375.72513127326965	
87	360.9542987346649	pulse	0	t						377.32503485679626	
87	362.5544786453247	pulse	0	t						378.92521476745605	
87	364.1546800136566	pulse	0	t						380.52541613578796	
87	365.7549674510956	pulse	0	t						382.12570357322693	
87	367.35516357421875	pulse	0	t						383.7258996963501	
87	368.9554822444916	pulse	0	t						385.3262183666229	
