trial_nr	onset	event_type	phase	response	nr_frames	movie_index	movie_duration	movie_file	blank	onset_abs	duration
0	0.20830583572387695	stim	0		49					18.779205799102783	0.40830302238464355
0	0.6012730598449707	response	0	space						19.172173023223877	
1	0.6166088581085205	stim	0		4344					19.187508821487427	36.224498987197876
1	36.81104397773743	pulse	0	t						55.38194394111633	
1	36.8411078453064	stim	1		1716					55.4120078086853	14.299634218215942
1	38.40571594238281	pulse	1	t						56.97661590576172	
1	40.00593185424805	pulse	1	t						58.57683181762695	
1	41.606066942214966	pulse	1	t						60.17696690559387	
1	43.20645499229431	pulse	1	t						61.77735495567322	
1	44.80667805671692	pulse	1	t						63.377578020095825	
1	46.40685296058655	pulse	1	t						64.97775292396545	
1	48.00703692436218	pulse	1	t						66.57793688774109	
1	49.60741996765137	pulse	1	t						68.17831993103027	
2	51.14074206352234	fix_pre	0		9	0.0	2.5	/experiments/knapen_AOT/AOT_stimuli/rescaled_final/0273_fw.mp4	0.0	69.71164202690125	0.0834348201751709
2	51.20766496658325	pulse	0	t		0.0	2.5	/experiments/knapen_AOT/AOT_stimuli/rescaled_final/0273_fw.mp4	0.0	69.77856492996216	
2	51.22417688369751	movie	1		241	0.0	2.5	/experiments/knapen_AOT/AOT_stimuli/rescaled_final/0273_fw.mp4	0.0	69.79507684707642	2.5002479553222656
2	52.808637857437134	pulse	1	t		0.0	2.5	/experiments/knapen_AOT/AOT_stimuli/rescaled_final/0273_fw.mp4	0.0	71.37953782081604	
2	53.724424839019775	fix_post	2		12	0.0	2.5	/experiments/knapen_AOT/AOT_stimuli/rescaled_final/0273_fw.mp4	0.0	72.29532480239868	0.10002803802490234
3	53.82445287704468	fix_pre	0		120	1.0	2.5	/experiments/knapen_AOT/AOT_stimuli/rescaled_final/0717_fw.mp4	0.0	72.39535284042358	1.0002410411834717
3	54.40803289413452	pulse	0	t		1.0	2.5	/experiments/knapen_AOT/AOT_stimuli/rescaled_final/0717_fw.mp4	0.0	72.97893285751343	
3	54.82469391822815	movie	1		243	1.0	2.5	/experiments/knapen_AOT/AOT_stimuli/rescaled_final/0717_fw.mp4	0.0	73.39559388160706	2.5004570484161377
3	56.00840187072754	pulse	1	t		1.0	2.5	/experiments/knapen_AOT/AOT_stimuli/rescaled_final/0717_fw.mp4	0.0	74.57930183410645	
3	57.32515096664429	fix_post	2		12	1.0	2.5	/experiments/knapen_AOT/AOT_stimuli/rescaled_final/0717_fw.mp4	0.0	75.8960509300232	0.09986591339111328
4	57.4250168800354	fix_pre	0		120	2.0	2.5	/experiments/knapen_AOT/AOT_stimuli/rescaled_final/2060_fw.mp4	0.0	75.9959168434143	1.000157117843628
4	57.60853099822998	pulse	0	t		2.0	2.5	/experiments/knapen_AOT/AOT_stimuli/rescaled_final/2060_fw.mp4	0.0	76.17943096160889	
4	58.42517399787903	movie	1		242	2.0	2.5	/experiments/knapen_AOT/AOT_stimuli/rescaled_final/2060_fw.mp4	0.0	76.99607396125793	2.500450849533081
4	59.20878887176514	pulse	1	t		2.0	2.5	/experiments/knapen_AOT/AOT_stimuli/rescaled_final/2060_fw.mp4	0.0	77.77968883514404	
4	60.80935287475586	pulse	1	t		2.0	2.5	/experiments/knapen_AOT/AOT_stimuli/rescaled_final/2060_fw.mp4	0.0	79.38025283813477	
4	60.92562484741211	fix_post	2		12	2.0	2.5	/experiments/knapen_AOT/AOT_stimuli/rescaled_final/2060_fw.mp4	0.0	79.49652481079102	0.09989809989929199
5	61.0255229473114	fix_pre	0		120	3.0	2.5	/experiments/knapen_AOT/AOT_stimuli/rescaled_final/1602_fw.mp4	0.0	79.59642291069031	1.0001730918884277
5	62.02569603919983	movie	1		241	3.0	2.5	/experiments/knapen_AOT/AOT_stimuli/rescaled_final/1602_fw.mp4	0.0	80.59659600257874	2.4921579360961914
5	62.410244941711426	pulse	1	t		3.0	2.5	/experiments/knapen_AOT/AOT_stimuli/rescaled_final/1602_fw.mp4	0.0	80.98114490509033	
5	64.00958585739136	pulse	1	t		3.0	2.5	/experiments/knapen_AOT/AOT_stimuli/rescaled_final/1602_fw.mp4	0.0	82.58048582077026	
5	64.51785397529602	fix_post	2		12	3.0	2.5	/experiments/knapen_AOT/AOT_stimuli/rescaled_final/1602_fw.mp4	0.0	83.08875393867493	0.09986400604248047
6	64.6177179813385	fix_pre	0		120	4.0	2.5	/experiments/knapen_AOT/AOT_stimuli/rescaled_final/0336_fw.mp4	0.0	83.18861794471741	1.0001630783081055
6	65.6097948551178	pulse	0	t		4.0	2.5	/experiments/knapen_AOT/AOT_stimuli/rescaled_final/0336_fw.mp4	0.0	84.1806948184967	
6	65.6178810596466	movie	1		243	4.0	2.5	/experiments/knapen_AOT/AOT_stimuli/rescaled_final/0336_fw.mp4	0.0	84.18878102302551	2.5087409019470215
6	67.21073389053345	pulse	1	t		4.0	2.5	/experiments/knapen_AOT/AOT_stimuli/rescaled_final/0336_fw.mp4	0.0	85.78163385391235	
6	68.12662196159363	fix_post	2		12	4.0	2.5	/experiments/knapen_AOT/AOT_stimuli/rescaled_final/0336_fw.mp4	0.0	86.69752192497253	0.10001587867736816
7	68.226637840271	fix_pre	0		120	5.0	2.5	/experiments/knapen_AOT/AOT_stimuli/rescaled_final/1670_fw.mp4	0.0	86.7975378036499	1.000143051147461
7	68.81029796600342	pulse	0	t		5.0	2.5	/experiments/knapen_AOT/AOT_stimuli/rescaled_final/1670_fw.mp4	0.0	87.38119792938232	
7	69.22678089141846	movie	1		243	5.0	2.5	/experiments/knapen_AOT/AOT_stimuli/rescaled_final/1670_fw.mp4	0.0	87.79768085479736	2.500417947769165
7	70.41053986549377	pulse	1	t		5.0	2.5	/experiments/knapen_AOT/AOT_stimuli/rescaled_final/1670_fw.mp4	0.0	88.98143982887268	
7	71.72719883918762	fix_post	2		12	5.0	2.5	/experiments/knapen_AOT/AOT_stimuli/rescaled_final/1670_fw.mp4	0.0	90.29809880256653	0.100006103515625
8	71.82720494270325	fix_pre	0		120	6.0	2.5	blank	1.0	90.39810490608215	1.0001130104064941
8	72.01071286201477	pulse	0	t		6.0	2.5	blank	1.0	90.58161282539368	
8	72.82731795310974	movie	1		300	6.0	2.5	blank	1.0	91.39821791648865	2.500385046005249
8	73.61092901229858	pulse	1	t		6.0	2.5	blank	1.0	92.18182897567749	
8	75.21128582954407	pulse	1	t		6.0	2.5	blank	1.0	93.78218579292297	
8	75.32770299911499	fix_post	2		12	6.0	2.5	blank	1.0	93.8986029624939	0.09999394416809082
9	75.42769694328308	fix_pre	0		120	7.0	2.5	/experiments/knapen_AOT/AOT_stimuli/rescaled_final/1783_fw.mp4	0.0	93.99859690666199	1.0001211166381836
9	76.42781805992126	movie	1		241	7.0	2.5	/experiments/knapen_AOT/AOT_stimuli/rescaled_final/1783_fw.mp4	0.0	94.99871802330017	2.4921348094940186
9	76.81205606460571	pulse	1	t		7.0	2.5	/experiments/knapen_AOT/AOT_stimuli/rescaled_final/1783_fw.mp4	0.0	95.38295602798462	
9	78.41168594360352	pulse	1	t		7.0	2.5	/experiments/knapen_AOT/AOT_stimuli/rescaled_final/1783_fw.mp4	0.0	96.98258590698242	
9	78.91995286941528	fix_post	2		12	7.0	2.5	/experiments/knapen_AOT/AOT_stimuli/rescaled_final/1783_fw.mp4	0.0	97.49085283279419	0.09994101524353027
10	79.01989388465881	fix_pre	0		117	8.0	2.5	/experiments/knapen_AOT/AOT_stimuli/rescaled_final/2060_fw.mp4	0.0	97.59079384803772	1.0002191066741943
10	80.01190495491028	pulse	0	t		8.0	2.5	/experiments/knapen_AOT/AOT_stimuli/rescaled_final/2060_fw.mp4	0.0	98.58280491828918	
10	80.02011299133301	movie	1		243	8.0	2.5	/experiments/knapen_AOT/AOT_stimuli/rescaled_final/2060_fw.mp4	0.0	98.59101295471191	2.5086238384246826
10	81.6126549243927	pulse	1	t		8.0	2.5	/experiments/knapen_AOT/AOT_stimuli/rescaled_final/2060_fw.mp4	0.0	100.1835548877716	
10	82.52873682975769	fix_post	2		12	8.0	2.5	/experiments/knapen_AOT/AOT_stimuli/rescaled_final/2060_fw.mp4	0.0	101.0996367931366	0.10001611709594727
11	82.62875294685364	fix_pre	0		120	9.0	2.5	/experiments/knapen_AOT/AOT_stimuli/rescaled_final/1604_rv.mp4	0.0	101.19965291023254	1.0001630783081055
11	83.21245288848877	pulse	0	t		9.0	2.5	/experiments/knapen_AOT/AOT_stimuli/rescaled_final/1604_rv.mp4	0.0	101.78335285186768	
11	83.62891602516174	movie	1		242	9.0	2.5	/experiments/knapen_AOT/AOT_stimuli/rescaled_final/1604_rv.mp4	0.0	102.19981598854065	2.500515937805176
11	84.81275987625122	pulse	1	t		9.0	2.5	/experiments/knapen_AOT/AOT_stimuli/rescaled_final/1604_rv.mp4	0.0	103.38365983963013	
11	86.12943196296692	fix_post	2		12	9.0	2.5	/experiments/knapen_AOT/AOT_stimuli/rescaled_final/1604_rv.mp4	0.0	104.70033192634583	0.09987688064575195
12	86.22930884361267	fix_pre	0		120	10.0	2.5	/experiments/knapen_AOT/AOT_stimuli/rescaled_final/1192_fw.mp4	0.0	104.80020880699158	1.0002059936523438
12	86.41288590431213	pulse	0	t		10.0	2.5	/experiments/knapen_AOT/AOT_stimuli/rescaled_final/1192_fw.mp4	0.0	104.98378586769104	
12	87.22951483726501	movie	1		242	10.0	2.5	/experiments/knapen_AOT/AOT_stimuli/rescaled_final/1192_fw.mp4	0.0	105.80041480064392	2.500354051589966
12	88.00497198104858	pulse	1	t		10.0	2.5	/experiments/knapen_AOT/AOT_stimuli/rescaled_final/1192_fw.mp4	0.0	106.57587194442749	
12	89.60505104064941	pulse	1	t		10.0	2.5	/experiments/knapen_AOT/AOT_stimuli/rescaled_final/1192_fw.mp4	0.0	108.17595100402832	
12	89.72986888885498	fix_post	2		12	10.0	2.5	/experiments/knapen_AOT/AOT_stimuli/rescaled_final/1192_fw.mp4	0.0	108.30076885223389	0.0999610424041748
13	89.82982993125916	fix_pre	0		120	11.0	2.5	/experiments/knapen_AOT/AOT_stimuli/rescaled_final/0985_rv.mp4	0.0	108.40072989463806	1.0001881122589111
13	90.83001804351807	movie	1		242	11.0	2.5	/experiments/knapen_AOT/AOT_stimuli/rescaled_final/0985_rv.mp4	0.0	109.40091800689697	2.4921770095825195
13	91.20515894889832	pulse	1	t		11.0	2.5	/experiments/knapen_AOT/AOT_stimuli/rescaled_final/0985_rv.mp4	0.0	109.77605891227722	
13	92.80559492111206	pulse	1	t		11.0	2.5	/experiments/knapen_AOT/AOT_stimuli/rescaled_final/0985_rv.mp4	0.0	111.37649488449097	
13	93.32219505310059	fix_post	2		12	11.0	2.5	/experiments/knapen_AOT/AOT_stimuli/rescaled_final/0985_rv.mp4	0.0	111.89309501647949	0.09984993934631348
14	93.4220449924469	fix_pre	0		119	12.0	2.5	/experiments/knapen_AOT/AOT_stimuli/rescaled_final/1621_fw.mp4	0.0	111.9929449558258	0.9917888641357422
14	94.40575885772705	pulse	0	t		12.0	2.5	/experiments/knapen_AOT/AOT_stimuli/rescaled_final/1621_fw.mp4	0.0	112.97665882110596	
14	94.41383385658264	movie	1		243	12.0	2.5	/experiments/knapen_AOT/AOT_stimuli/rescaled_final/1621_fw.mp4	0.0	112.98473381996155	2.5087151527404785
14	96.00668287277222	pulse	1	t		12.0	2.5	/experiments/knapen_AOT/AOT_stimuli/rescaled_final/1621_fw.mp4	0.0	114.57758283615112	
14	96.92254900932312	fix_post	2		12	12.0	2.5	/experiments/knapen_AOT/AOT_stimuli/rescaled_final/1621_fw.mp4	0.0	115.49344897270203	0.10008788108825684
15	97.02263689041138	fix_pre	0		120	13.0	2.5	blank	1.0	115.59353685379028	1.000093936920166
15	97.60627889633179	pulse	0	t		13.0	2.5	blank	1.0	116.1771788597107	
15	98.02273082733154	movie	1		300	13.0	2.5	blank	1.0	116.59363079071045	2.500383138656616
15	99.2064139842987	pulse	1	t		13.0	2.5	blank	1.0	117.77731394767761	
15	100.52311396598816	fix_post	2		12	13.0	2.5	blank	1.0	119.09401392936707	0.10010600090026855
16	100.62321996688843	fix_pre	0		120	14.0	2.5	/experiments/knapen_AOT/AOT_stimuli/rescaled_final/1272_rv.mp4	0.0	119.19411993026733	1.0000669956207275
16	100.80675005912781	pulse	0	t		14.0	2.5	/experiments/knapen_AOT/AOT_stimuli/rescaled_final/1272_rv.mp4	0.0	119.37765002250671	
16	101.62328696250916	movie	1		244	14.0	2.5	/experiments/knapen_AOT/AOT_stimuli/rescaled_final/1272_rv.mp4	0.0	120.19418692588806	2.500370979309082
16	102.40690803527832	pulse	1	t		14.0	2.5	/experiments/knapen_AOT/AOT_stimuli/rescaled_final/1272_rv.mp4	0.0	120.97780799865723	
16	104.0072078704834	pulse	1	t		14.0	2.5	/experiments/knapen_AOT/AOT_stimuli/rescaled_final/1272_rv.mp4	0.0	122.5781078338623	
16	104.12365794181824	fix_post	2		12	14.0	2.5	/experiments/knapen_AOT/AOT_stimuli/rescaled_final/1272_rv.mp4	0.0	122.69455790519714	0.10002303123474121
17	104.22368097305298	fix_pre	0		119	15.0	2.5	/experiments/knapen_AOT/AOT_stimuli/rescaled_final/0399_rv.mp4	0.0	122.79458093643188	0.9917769432067871
17	105.21545791625977	movie	1		243	15.0	2.5	/experiments/knapen_AOT/AOT_stimuli/rescaled_final/0399_rv.mp4	0.0	123.78635787963867	2.500427007675171
17	105.60751986503601	pulse	1	t		15.0	2.5	/experiments/knapen_AOT/AOT_stimuli/rescaled_final/0399_rv.mp4	0.0	124.17841982841492	
17	107.20761394500732	pulse	1	t		15.0	2.5	/experiments/knapen_AOT/AOT_stimuli/rescaled_final/0399_rv.mp4	0.0	125.77851390838623	
17	107.71588492393494	fix_post	2		12	15.0	2.5	/experiments/knapen_AOT/AOT_stimuli/rescaled_final/0399_rv.mp4	0.0	126.28678488731384	0.09994006156921387
18	107.81582498550415	fix_pre	0		120	16.0	2.5	/experiments/knapen_AOT/AOT_stimuli/rescaled_final/1192_rv.mp4	0.0	126.38672494888306	1.0002880096435547
18	108.80792188644409	pulse	0	t		16.0	2.5	/experiments/knapen_AOT/AOT_stimuli/rescaled_final/1192_rv.mp4	0.0	127.378821849823	
18	108.8161129951477	movie	1		243	16.0	2.5	/experiments/knapen_AOT/AOT_stimuli/rescaled_final/1192_rv.mp4	0.0	127.38701295852661	2.5086159706115723
18	110.40872383117676	pulse	1	t		16.0	2.5	/experiments/knapen_AOT/AOT_stimuli/rescaled_final/1192_rv.mp4	0.0	128.97962379455566	
18	111.32472896575928	fix_post	2		12	16.0	2.5	/experiments/knapen_AOT/AOT_stimuli/rescaled_final/1192_rv.mp4	0.0	129.89562892913818	0.10005998611450195
19	111.42478895187378	fix_pre	0		120	17.0	2.5	/experiments/knapen_AOT/AOT_stimuli/rescaled_final/1744_fw.mp4	0.0	129.99568891525269	1.0000829696655273
19	112.00843095779419	pulse	0	t		17.0	2.5	/experiments/knapen_AOT/AOT_stimuli/rescaled_final/1744_fw.mp4	0.0	130.5793309211731	
19	112.4248719215393	movie	1		242	17.0	2.5	/experiments/knapen_AOT/AOT_stimuli/rescaled_final/1744_fw.mp4	0.0	130.9957718849182	2.5005381107330322
19	113.60870504379272	pulse	1	t		17.0	2.5	/experiments/knapen_AOT/AOT_stimuli/rescaled_final/1744_fw.mp4	0.0	132.17960500717163	
19	114.92541003227234	fix_post	2		12	17.0	2.5	/experiments/knapen_AOT/AOT_stimuli/rescaled_final/1744_fw.mp4	0.0	133.49630999565125	0.09989690780639648
20	115.02530694007874	fix_pre	0		120	18.0	2.5	/experiments/knapen_AOT/AOT_stimuli/rescaled_final/0221_rv.mp4	0.0	133.59620690345764	1.0000860691070557
20	115.20888304710388	pulse	0	t		18.0	2.5	/experiments/knapen_AOT/AOT_stimuli/rescaled_final/0221_rv.mp4	0.0	133.7797830104828	
20	116.02539300918579	movie	1		242	18.0	2.5	/experiments/knapen_AOT/AOT_stimuli/rescaled_final/0221_rv.mp4	0.0	134.5962929725647	2.5004379749298096
20	116.80907702445984	pulse	1	t		18.0	2.5	/experiments/knapen_AOT/AOT_stimuli/rescaled_final/0221_rv.mp4	0.0	135.37997698783875	
20	118.4094500541687	pulse	1	t		18.0	2.5	/experiments/knapen_AOT/AOT_stimuli/rescaled_final/0221_rv.mp4	0.0	136.9803500175476	
20	118.5258309841156	fix_post	2		12	18.0	2.5	/experiments/knapen_AOT/AOT_stimuli/rescaled_final/0221_rv.mp4	0.0	137.0967309474945	0.09996795654296875
21	118.62579894065857	fix_pre	0		120	19.0	2.5	blank	1.0	137.19669890403748	1.0001471042633057
21	119.62594604492188	movie	1		299	19.0	2.5	blank	1.0	138.19684600830078	2.4920849800109863
21	120.0096218585968	pulse	1	t		19.0	2.5	blank	1.0	138.5805218219757	
21	121.60984992980957	pulse	1	t		19.0	2.5	blank	1.0	140.18074989318848	
21	122.11803102493286	fix_post	2		12	19.0	2.5	blank	1.0	140.68893098831177	0.10001087188720703
22	122.21804189682007	fix_pre	0		120	20.0	2.5	/experiments/knapen_AOT/AOT_stimuli/rescaled_final/0668_rv.mp4	0.0	140.78894186019897	1.0002119541168213
22	123.21002292633057	pulse	0	t		20.0	2.5	/experiments/knapen_AOT/AOT_stimuli/rescaled_final/0668_rv.mp4	0.0	141.78092288970947	
22	123.21825385093689	movie	1		243	20.0	2.5	/experiments/knapen_AOT/AOT_stimuli/rescaled_final/0668_rv.mp4	0.0	141.7891538143158	2.5086050033569336
22	124.8106620311737	pulse	1	t		20.0	2.5	/experiments/knapen_AOT/AOT_stimuli/rescaled_final/0668_rv.mp4	0.0	143.3815619945526	
22	125.72685885429382	fix_post	2		12	20.0	2.5	/experiments/knapen_AOT/AOT_stimuli/rescaled_final/0668_rv.mp4	0.0	144.29775881767273	0.10003209114074707
23	125.82689094543457	fix_pre	0		120	21.0	2.5	/experiments/knapen_AOT/AOT_stimuli/rescaled_final/1116_fw.mp4	0.0	144.39779090881348	1.0001320838928223
23	126.41060495376587	pulse	0	t		21.0	2.5	/experiments/knapen_AOT/AOT_stimuli/rescaled_final/1116_fw.mp4	0.0	144.98150491714478	
23	126.82702302932739	movie	1		242	21.0	2.5	/experiments/knapen_AOT/AOT_stimuli/rescaled_final/1116_fw.mp4	0.0	145.3979229927063	2.5005369186401367
23	128.01096892356873	pulse	1	t		21.0	2.5	/experiments/knapen_AOT/AOT_stimuli/rescaled_final/1116_fw.mp4	0.0	146.58186888694763	
23	129.32755994796753	fix_post	2		12	21.0	2.5	/experiments/knapen_AOT/AOT_stimuli/rescaled_final/1116_fw.mp4	0.0	147.89845991134644	0.09987401962280273
24	129.42743396759033	fix_pre	0		120	22.0	2.5	/experiments/knapen_AOT/AOT_stimuli/rescaled_final/1783_fw.mp4	0.0	147.99833393096924	1.0001440048217773
24	129.61102604866028	pulse	0	t		22.0	2.5	/experiments/knapen_AOT/AOT_stimuli/rescaled_final/1783_fw.mp4	0.0	148.18192601203918	
24	130.4275779724121	movie	1		242	22.0	2.5	/experiments/knapen_AOT/AOT_stimuli/rescaled_final/1783_fw.mp4	0.0	148.99847793579102	2.5003879070281982
24	131.21126294136047	pulse	1	t		22.0	2.5	/experiments/knapen_AOT/AOT_stimuli/rescaled_final/1783_fw.mp4	0.0	149.78216290473938	
24	132.81165099143982	pulse	1	t		22.0	2.5	/experiments/knapen_AOT/AOT_stimuli/rescaled_final/1783_fw.mp4	0.0	151.38255095481873	
24	132.9279658794403	fix_post	2		12	22.0	2.5	/experiments/knapen_AOT/AOT_stimuli/rescaled_final/1783_fw.mp4	0.0	151.4988658428192	0.10002303123474121
25	133.02798891067505	fix_pre	0		120	23.0	2.5	/experiments/knapen_AOT/AOT_stimuli/rescaled_final/0506_fw.mp4	0.0	151.59888887405396	1.0001111030578613
25	134.0281000137329	movie	1		242	23.0	2.5	/experiments/knapen_AOT/AOT_stimuli/rescaled_final/0506_fw.mp4	0.0	152.59899997711182	2.492041826248169
25	134.4131760597229	pulse	1	t		23.0	2.5	/experiments/knapen_AOT/AOT_stimuli/rescaled_final/0506_fw.mp4	0.0	152.9840760231018	
25	136.01195001602173	pulse	1	t		23.0	2.5	/experiments/knapen_AOT/AOT_stimuli/rescaled_final/0506_fw.mp4	0.0	154.58284997940063	
25	136.52014183998108	fix_post	2		12	23.0	2.5	/experiments/knapen_AOT/AOT_stimuli/rescaled_final/0506_fw.mp4	0.0	155.09104180335999	0.10001301765441895
26	136.6201548576355	fix_pre	0		120	24.0	2.5	/experiments/knapen_AOT/AOT_stimuli/rescaled_final/1226_rv.mp4	0.0	155.1910548210144	1.0001301765441895
26	137.6121950149536	pulse	0	t		24.0	2.5	/experiments/knapen_AOT/AOT_stimuli/rescaled_final/1226_rv.mp4	0.0	156.18309497833252	
26	137.6202850341797	movie	1		244	24.0	2.5	/experiments/knapen_AOT/AOT_stimuli/rescaled_final/1226_rv.mp4	0.0	156.1911849975586	2.5087478160858154
26	139.21310091018677	pulse	1	t		24.0	2.5	/experiments/knapen_AOT/AOT_stimuli/rescaled_final/1226_rv.mp4	0.0	157.78400087356567	
26	140.1290328502655	fix_post	2		12	24.0	2.5	/experiments/knapen_AOT/AOT_stimuli/rescaled_final/1226_rv.mp4	0.0	158.6999328136444	0.10009217262268066
27	140.22912502288818	fix_pre	0		120	25.0	2.5	/experiments/knapen_AOT/AOT_stimuli/rescaled_final/0307_fw.mp4	0.0	158.8000249862671	1.0000579357147217
27	140.81262803077698	pulse	0	t		25.0	2.5	/experiments/knapen_AOT/AOT_stimuli/rescaled_final/0307_fw.mp4	0.0	159.38352799415588	
27	141.2291829586029	movie	1		242	25.0	2.5	/experiments/knapen_AOT/AOT_stimuli/rescaled_final/0307_fw.mp4	0.0	159.8000829219818	2.5004560947418213
27	142.406023979187	pulse	1	t		25.0	2.5	/experiments/knapen_AOT/AOT_stimuli/rescaled_final/0307_fw.mp4	0.0	160.97692394256592	
27	143.72963905334473	fix_post	2		12	25.0	2.5	/experiments/knapen_AOT/AOT_stimuli/rescaled_final/0307_fw.mp4	0.0	162.30053901672363	0.09993791580200195
28	143.82957696914673	fix_pre	0		120	26.0	2.5	blank	1.0	162.40047693252563	1.000133991241455
28	144.00566387176514	pulse	0	t		26.0	2.5	blank	1.0	162.57656383514404	
28	144.82971096038818	movie	1		298	26.0	2.5	blank	1.0	163.4006109237671	2.500385046005249
28	145.6057689189911	pulse	1	t		26.0	2.5	blank	1.0	164.17666888237	
28	147.2061460018158	pulse	1	t		26.0	2.5	blank	1.0	165.7770459651947	
28	147.33009600639343	fix_post	2		12	26.0	2.5	blank	1.0	165.90099596977234	0.10002899169921875
29	147.43012499809265	fix_pre	0		120	27.0	2.5	/experiments/knapen_AOT/AOT_stimuli/rescaled_final/0053_rv.mp4	0.0	166.00102496147156	1.000140905380249
29	148.4302659034729	movie	1		241	27.0	2.5	/experiments/knapen_AOT/AOT_stimuli/rescaled_final/0053_rv.mp4	0.0	167.0011658668518	2.4922590255737305
29	148.81532788276672	pulse	1	t		27.0	2.5	/experiments/knapen_AOT/AOT_stimuli/rescaled_final/0053_rv.mp4	0.0	167.38622784614563	
29	150.4058918952942	pulse	1	t		27.0	2.5	/experiments/knapen_AOT/AOT_stimuli/rescaled_final/0053_rv.mp4	0.0	168.9767918586731	
29	150.92252492904663	fix_post	2		12	27.0	2.5	/experiments/knapen_AOT/AOT_stimuli/rescaled_final/0053_rv.mp4	0.0	169.49342489242554	0.0997929573059082
30	151.02231788635254	fix_pre	0		119	28.0	2.5	/experiments/knapen_AOT/AOT_stimuli/rescaled_final/0635_fw.mp4	0.0	169.59321784973145	0.9918820858001709
30	152.00590205192566	pulse	0	t		28.0	2.5	/experiments/knapen_AOT/AOT_stimuli/rescaled_final/0635_fw.mp4	0.0	170.57680201530457	
30	152.0141999721527	movie	1		243	28.0	2.5	/experiments/knapen_AOT/AOT_stimuli/rescaled_final/0635_fw.mp4	0.0	170.58509993553162	2.5086190700531006
30	153.60756301879883	pulse	1	t		28.0	2.5	/experiments/knapen_AOT/AOT_stimuli/rescaled_final/0635_fw.mp4	0.0	172.17846298217773	
30	154.5228190422058	fix_post	2		12	28.0	2.5	/experiments/knapen_AOT/AOT_stimuli/rescaled_final/0635_fw.mp4	0.0	173.09371900558472	0.10001993179321289
31	154.62283897399902	fix_pre	0		120	29.0	2.5	/experiments/knapen_AOT/AOT_stimuli/rescaled_final/1773_fw.mp4	0.0	173.19373893737793	1.0001740455627441
31	155.2064929008484	pulse	0	t		29.0	2.5	/experiments/knapen_AOT/AOT_stimuli/rescaled_final/1773_fw.mp4	0.0	173.7773928642273	
31	155.62301301956177	movie	1		243	29.0	2.5	/experiments/knapen_AOT/AOT_stimuli/rescaled_final/1773_fw.mp4	0.0	174.19391298294067	2.5003390312194824
31	156.80680990219116	pulse	1	t		29.0	2.5	/experiments/knapen_AOT/AOT_stimuli/rescaled_final/1773_fw.mp4	0.0	175.37770986557007	
31	158.12335205078125	fix_post	2		12	29.0	2.5	/experiments/knapen_AOT/AOT_stimuli/rescaled_final/1773_fw.mp4	0.0	176.69425201416016	0.10004687309265137
32	158.2233989238739	fix_pre	0		120	30.0	2.5	/experiments/knapen_AOT/AOT_stimuli/rescaled_final/1848_fw.mp4	0.0	176.7942988872528	1.0002169609069824
32	158.4069459438324	pulse	0	t		30.0	2.5	/experiments/knapen_AOT/AOT_stimuli/rescaled_final/1848_fw.mp4	0.0	176.9778459072113	
32	159.22361588478088	movie	1		241	30.0	2.5	/experiments/knapen_AOT/AOT_stimuli/rescaled_final/1848_fw.mp4	0.0	177.7945158481598	2.492093086242676
32	160.0071759223938	pulse	1	t		30.0	2.5	/experiments/knapen_AOT/AOT_stimuli/rescaled_final/1848_fw.mp4	0.0	178.5780758857727	
32	161.60739183425903	pulse	1	t		30.0	2.5	/experiments/knapen_AOT/AOT_stimuli/rescaled_final/1848_fw.mp4	0.0	180.17829179763794	
32	161.71570897102356	fix_post	2		12	30.0	2.5	/experiments/knapen_AOT/AOT_stimuli/rescaled_final/1848_fw.mp4	0.0	180.28660893440247	0.09991908073425293
33	161.8156280517578	fix_pre	0		120	31.0	2.5	/experiments/knapen_AOT/AOT_stimuli/rescaled_final/0290_rv.mp4	0.0	180.38652801513672	1.0001418590545654
33	162.81576991081238	movie	1		244	31.0	2.5	/experiments/knapen_AOT/AOT_stimuli/rescaled_final/0290_rv.mp4	0.0	181.38666987419128	2.5003809928894043
33	163.2077648639679	pulse	1	t		31.0	2.5	/experiments/knapen_AOT/AOT_stimuli/rescaled_final/0290_rv.mp4	0.0	181.7786648273468	
33	164.80795788764954	pulse	1	t		31.0	2.5	/experiments/knapen_AOT/AOT_stimuli/rescaled_final/0290_rv.mp4	0.0	183.37885785102844	
33	165.31615090370178	fix_post	2		12	31.0	2.5	/experiments/knapen_AOT/AOT_stimuli/rescaled_final/0290_rv.mp4	0.0	183.8870508670807	0.09995412826538086
34	165.41610503196716	fix_pre	0		120	32.0	2.5	/experiments/knapen_AOT/AOT_stimuli/rescaled_final/0284_rv.mp4	0.0	183.98700499534607	1.0002470016479492
34	166.40814900398254	pulse	0	t		32.0	2.5	/experiments/knapen_AOT/AOT_stimuli/rescaled_final/0284_rv.mp4	0.0	184.97904896736145	
34	166.4163520336151	movie	1		243	32.0	2.5	/experiments/knapen_AOT/AOT_stimuli/rescaled_final/0284_rv.mp4	0.0	184.98725199699402	2.5086069107055664
34	168.00894689559937	pulse	1	t		32.0	2.5	/experiments/knapen_AOT/AOT_stimuli/rescaled_final/0284_rv.mp4	0.0	186.57984685897827	
34	168.92495894432068	fix_post	2		12	32.0	2.5	/experiments/knapen_AOT/AOT_stimuli/rescaled_final/0284_rv.mp4	0.0	187.49585890769958	0.10003209114074707
35	169.02499103546143	fix_pre	0		120	33.0	2.5	/experiments/knapen_AOT/AOT_stimuli/rescaled_final/0813_fw.mp4	0.0	187.59589099884033	1.0001399517059326
35	169.60865688323975	pulse	0	t		33.0	2.5	/experiments/knapen_AOT/AOT_stimuli/rescaled_final/0813_fw.mp4	0.0	188.17955684661865	
35	170.02513098716736	movie	1		242	33.0	2.5	/experiments/knapen_AOT/AOT_stimuli/rescaled_final/0813_fw.mp4	0.0	188.59603095054626	2.5005009174346924
35	171.20887684822083	pulse	1	t		33.0	2.5	/experiments/knapen_AOT/AOT_stimuli/rescaled_final/0813_fw.mp4	0.0	189.77977681159973	
35	172.52563190460205	fix_post	2		12	33.0	2.5	/experiments/knapen_AOT/AOT_stimuli/rescaled_final/0813_fw.mp4	0.0	191.09653186798096	0.09992313385009766
36	172.62555503845215	fix_pre	0		120	34.0	2.5	blank	1.0	191.19645500183105	1.0001168251037598
36	172.8091049194336	pulse	0	t		34.0	2.5	blank	1.0	191.3800048828125	
36	173.6256718635559	movie	1		300	34.0	2.5	blank	1.0	192.19657182693481	2.500385046005249
36	174.40941786766052	pulse	1	t		34.0	2.5	blank	1.0	192.98031783103943	
36	176.00963497161865	pulse	1	t		34.0	2.5	blank	1.0	194.58053493499756	
36	176.12605690956116	fix_post	2		12	34.0	2.5	blank	1.0	194.69695687294006	0.09998512268066406
37	176.22604203224182	fix_pre	0		120	35.0	2.5	/experiments/knapen_AOT/AOT_stimuli/rescaled_final/1587_fw.mp4	0.0	194.79694199562073	1.0002079010009766
37	177.2262499332428	movie	1		242	35.0	2.5	/experiments/knapen_AOT/AOT_stimuli/rescaled_final/1587_fw.mp4	0.0	195.7971498966217	2.4921820163726807
37	177.61043190956116	pulse	1	t		35.0	2.5	/experiments/knapen_AOT/AOT_stimuli/rescaled_final/1587_fw.mp4	0.0	196.18133187294006	
37	179.2100248336792	pulse	1	t		35.0	2.5	/experiments/knapen_AOT/AOT_stimuli/rescaled_final/1587_fw.mp4	0.0	197.7809247970581	
37	179.71843194961548	fix_post	2		12	35.0	2.5	/experiments/knapen_AOT/AOT_stimuli/rescaled_final/1587_fw.mp4	0.0	198.28933191299438	0.09976601600646973
38	179.81819796562195	fix_pre	0		120	36.0	2.5	/experiments/knapen_AOT/AOT_stimuli/rescaled_final/0422_fw.mp4	0.0	198.38909792900085	1.0002119541168213
38	180.81040787696838	pulse	0	t		36.0	2.5	/experiments/knapen_AOT/AOT_stimuli/rescaled_final/0422_fw.mp4	0.0	199.3813078403473	
38	180.81840991973877	movie	1		244	36.0	2.5	/experiments/knapen_AOT/AOT_stimuli/rescaled_final/0422_fw.mp4	0.0	199.38930988311768	2.508892059326172
38	182.41100597381592	pulse	1	t		36.0	2.5	/experiments/knapen_AOT/AOT_stimuli/rescaled_final/0422_fw.mp4	0.0	200.98190593719482	
38	183.32730197906494	fix_post	2		12	36.0	2.5	/experiments/knapen_AOT/AOT_stimuli/rescaled_final/0422_fw.mp4	0.0	201.89820194244385	0.09982490539550781
39	183.42712688446045	fix_pre	0		120	37.0	2.5	/experiments/knapen_AOT/AOT_stimuli/rescaled_final/1047_fw.mp4	0.0	201.99802684783936	1.0001871585845947
39	184.01080083847046	pulse	0	t		37.0	2.5	/experiments/knapen_AOT/AOT_stimuli/rescaled_final/1047_fw.mp4	0.0	202.58170080184937	
39	184.42731404304504	movie	1		242	37.0	2.5	/experiments/knapen_AOT/AOT_stimuli/rescaled_final/1047_fw.mp4	0.0	202.99821400642395	2.5004680156707764
39	185.6111569404602	pulse	1	t		37.0	2.5	/experiments/knapen_AOT/AOT_stimuli/rescaled_final/1047_fw.mp4	0.0	204.1820569038391	
39	186.92778205871582	fix_post	2		12	37.0	2.5	/experiments/knapen_AOT/AOT_stimuli/rescaled_final/1047_fw.mp4	0.0	205.49868202209473	0.09991288185119629
40	187.02769494056702	fix_pre	0		120	38.0	2.5	/experiments/knapen_AOT/AOT_stimuli/rescaled_final/1116_fw.mp4	0.0	205.59859490394592	1.0001440048217773
40	187.21123600006104	pulse	0	t		38.0	2.5	/experiments/knapen_AOT/AOT_stimuli/rescaled_final/1116_fw.mp4	0.0	205.78213596343994	
40	188.0278389453888	movie	1		242	38.0	2.5	/experiments/knapen_AOT/AOT_stimuli/rescaled_final/1116_fw.mp4	0.0	206.5987389087677	2.50034499168396
40	188.81158995628357	pulse	1	t		38.0	2.5	/experiments/knapen_AOT/AOT_stimuli/rescaled_final/1116_fw.mp4	0.0	207.38248991966248	
40	190.4117729663849	pulse	1	t		38.0	2.5	/experiments/knapen_AOT/AOT_stimuli/rescaled_final/1116_fw.mp4	0.0	208.9826729297638	
40	190.52818393707275	fix_post	2		12	38.0	2.5	/experiments/knapen_AOT/AOT_stimuli/rescaled_final/1116_fw.mp4	0.0	209.09908390045166	0.10003995895385742
41	190.6282238960266	fix_pre	0		120	39.0	2.5	/experiments/knapen_AOT/AOT_stimuli/rescaled_final/1634_fw.mp4	0.0	209.19912385940552	1.0001411437988281
41	191.62836503982544	movie	1		244	39.0	2.5	/experiments/knapen_AOT/AOT_stimuli/rescaled_final/1634_fw.mp4	0.0	210.19926500320435	2.4920380115509033
41	192.0124490261078	pulse	1	t		39.0	2.5	/experiments/knapen_AOT/AOT_stimuli/rescaled_final/1634_fw.mp4	0.0	210.5833489894867	
41	193.61223602294922	pulse	1	t		39.0	2.5	/experiments/knapen_AOT/AOT_stimuli/rescaled_final/1634_fw.mp4	0.0	212.18313598632812	
41	194.12040305137634	fix_post	2		12	39.0	2.5	/experiments/knapen_AOT/AOT_stimuli/rescaled_final/1634_fw.mp4	0.0	212.69130301475525	0.09999680519104004
42	194.22039985656738	fix_pre	0		120	40.0	2.5	/experiments/knapen_AOT/AOT_stimuli/rescaled_final/0829_rv.mp4	0.0	212.7912998199463	1.0001800060272217
42	195.21255588531494	pulse	0	t		40.0	2.5	/experiments/knapen_AOT/AOT_stimuli/rescaled_final/0829_rv.mp4	0.0	213.78345584869385	
42	195.2205798625946	movie	1		243	40.0	2.5	/experiments/knapen_AOT/AOT_stimuli/rescaled_final/0829_rv.mp4	0.0	213.7914798259735	2.508737087249756
42	196.81309485435486	pulse	1	t		40.0	2.5	/experiments/knapen_AOT/AOT_stimuli/rescaled_final/0829_rv.mp4	0.0	215.38399481773376	
42	197.72931694984436	fix_post	2		12	40.0	2.5	/experiments/knapen_AOT/AOT_stimuli/rescaled_final/0829_rv.mp4	0.0	216.30021691322327	0.0999600887298584
43	197.82927703857422	fix_pre	0		120	41.0	2.5	/experiments/knapen_AOT/AOT_stimuli/rescaled_final/1964_fw.mp4	0.0	216.40017700195312	1.000190019607544
43	198.40562987327576	pulse	0	t		41.0	2.5	/experiments/knapen_AOT/AOT_stimuli/rescaled_final/1964_fw.mp4	0.0	216.97652983665466	
43	198.82946705818176	movie	1		243	41.0	2.5	/experiments/knapen_AOT/AOT_stimuli/rescaled_final/1964_fw.mp4	0.0	217.40036702156067	2.500363826751709
43	200.00544095039368	pulse	1	t		41.0	2.5	/experiments/knapen_AOT/AOT_stimuli/rescaled_final/1964_fw.mp4	0.0	218.57634091377258	
43	201.32983088493347	fix_post	2		12	41.0	2.5	/experiments/knapen_AOT/AOT_stimuli/rescaled_final/1964_fw.mp4	0.0	219.90073084831238	0.09998607635498047
44	201.42981696128845	fix_pre	0		120	42.0	2.5	blank	1.0	220.00071692466736	1.0001580715179443
44	201.60578799247742	pulse	0	t		42.0	2.5	blank	1.0	220.17668795585632	
44	202.4299750328064	movie	1		300	42.0	2.5	blank	1.0	221.0008749961853	2.500386953353882
44	203.2052459716797	pulse	1	t		42.0	2.5	blank	1.0	221.7761459350586	
44	204.8054690361023	pulse	1	t		42.0	2.5	blank	1.0	223.3763689994812	
44	204.93036198616028	fix_post	2		12	42.0	2.5	blank	1.0	223.50126194953918	0.10003805160522461
45	205.0304000377655	fix_pre	0		120	43.0	2.5	/experiments/knapen_AOT/AOT_stimuli/rescaled_final/0826_fw.mp4	0.0	223.6013000011444	1.0001049041748047
45	206.0305049419403	movie	1		242	43.0	2.5	/experiments/knapen_AOT/AOT_stimuli/rescaled_final/0826_fw.mp4	0.0	224.6014049053192	2.4922149181365967
45	206.4057719707489	pulse	1	t		43.0	2.5	/experiments/knapen_AOT/AOT_stimuli/rescaled_final/0826_fw.mp4	0.0	224.9766719341278	
45	208.00603985786438	pulse	1	t		43.0	2.5	/experiments/knapen_AOT/AOT_stimuli/rescaled_final/0826_fw.mp4	0.0	226.5769398212433	
45	208.5227198600769	fix_post	2		12	43.0	2.5	/experiments/knapen_AOT/AOT_stimuli/rescaled_final/0826_fw.mp4	0.0	227.0936198234558	0.09987401962280273
46	208.6225938796997	fix_pre	0		116	44.0	2.5	/experiments/knapen_AOT/AOT_stimuli/rescaled_final/1932_fw.mp4	0.0	227.1934938430786	0.9918551445007324
46	209.606183052063	pulse	0	t		44.0	2.5	/experiments/knapen_AOT/AOT_stimuli/rescaled_final/1932_fw.mp4	0.0	228.1770830154419	
46	209.61444902420044	movie	1		245	44.0	2.5	/experiments/knapen_AOT/AOT_stimuli/rescaled_final/1932_fw.mp4	0.0	228.18534898757935	2.508661985397339
46	211.20687794685364	pulse	1	t		44.0	2.5	/experiments/knapen_AOT/AOT_stimuli/rescaled_final/1932_fw.mp4	0.0	229.77777791023254	
46	212.12311100959778	fix_post	2		12	44.0	2.5	/experiments/knapen_AOT/AOT_stimuli/rescaled_final/1932_fw.mp4	0.0	230.69401097297668	0.10009288787841797
47	212.2232038974762	fix_pre	0		120	45.0	2.5	/experiments/knapen_AOT/AOT_stimuli/rescaled_final/1482_rv.mp4	0.0	230.7941038608551	1.0001261234283447
47	212.80674386024475	pulse	0	t		45.0	2.5	/experiments/knapen_AOT/AOT_stimuli/rescaled_final/1482_rv.mp4	0.0	231.37764382362366	
47	213.22333002090454	movie	1		242	45.0	2.5	/experiments/knapen_AOT/AOT_stimuli/rescaled_final/1482_rv.mp4	0.0	231.79422998428345	2.500455856323242
47	214.4070179462433	pulse	1	t		45.0	2.5	/experiments/knapen_AOT/AOT_stimuli/rescaled_final/1482_rv.mp4	0.0	232.9779179096222	
47	215.72378587722778	fix_post	2		12	45.0	2.5	/experiments/knapen_AOT/AOT_stimuli/rescaled_final/1482_rv.mp4	0.0	234.2946858406067	0.09985208511352539
48	215.8236379623413	fix_pre	0		120	46.0	2.5	/experiments/knapen_AOT/AOT_stimuli/rescaled_final/1634_rv.mp4	0.0	234.39453792572021	1.000148057937622
48	216.00723004341125	pulse	0	t		46.0	2.5	/experiments/knapen_AOT/AOT_stimuli/rescaled_final/1634_rv.mp4	0.0	234.57813000679016	
48	216.82378602027893	movie	1		244	46.0	2.5	/experiments/knapen_AOT/AOT_stimuli/rescaled_final/1634_rv.mp4	0.0	235.39468598365784	2.500351905822754
48	217.60747599601746	pulse	1	t		46.0	2.5	/experiments/knapen_AOT/AOT_stimuli/rescaled_final/1634_rv.mp4	0.0	236.17837595939636	
48	219.20770692825317	pulse	1	t		46.0	2.5	/experiments/knapen_AOT/AOT_stimuli/rescaled_final/1634_rv.mp4	0.0	237.77860689163208	
48	219.32413792610168	fix_post	2		12	46.0	2.5	/experiments/knapen_AOT/AOT_stimuli/rescaled_final/1634_rv.mp4	0.0	237.8950378894806	0.09996891021728516
49	219.42410683631897	fix_pre	0		120	47.0	2.5	/experiments/knapen_AOT/AOT_stimuli/rescaled_final/0281_fw.mp4	0.0	237.99500679969788	1.0002021789550781
49	220.42430901527405	movie	1		242	47.0	2.5	/experiments/knapen_AOT/AOT_stimuli/rescaled_final/0281_fw.mp4	0.0	238.99520897865295	2.492050886154175
49	220.80861496925354	pulse	1	t		47.0	2.5	/experiments/knapen_AOT/AOT_stimuli/rescaled_final/0281_fw.mp4	0.0	239.37951493263245	
49	222.40815591812134	pulse	1	t		47.0	2.5	/experiments/knapen_AOT/AOT_stimuli/rescaled_final/0281_fw.mp4	0.0	240.97905588150024	
49	222.91635990142822	fix_post	2		12	47.0	2.5	/experiments/knapen_AOT/AOT_stimuli/rescaled_final/0281_fw.mp4	0.0	241.48725986480713	0.100067138671875
50	223.0164270401001	fix_pre	0		120	48.0	2.5	blank	1.0	241.587327003479	1.0001099109649658
50	224.00843405723572	pulse	0	t		48.0	2.5	blank	1.0	242.57933402061462	
50	224.01653695106506	movie	1		301	48.0	2.5	blank	1.0	242.58743691444397	2.5086889266967773
50	225.60873293876648	pulse	1	t		48.0	2.5	blank	1.0	244.17963290214539	
50	226.52522587776184	fix_post	2		12	48.0	2.5	blank	1.0	245.09612584114075	0.10002708435058594
51	226.62525296211243	fix_pre	0		120	49.0	2.5	/experiments/knapen_AOT/AOT_stimuli/rescaled_final/0990_fw.mp4	0.0	245.19615292549133	1.0001840591430664
51	227.20886182785034	pulse	0	t		49.0	2.5	/experiments/knapen_AOT/AOT_stimuli/rescaled_final/0990_fw.mp4	0.0	245.77976179122925	
51	227.6254370212555	movie	1		242	49.0	2.5	/experiments/knapen_AOT/AOT_stimuli/rescaled_final/0990_fw.mp4	0.0	246.1963369846344	2.5003998279571533
51	228.80920600891113	pulse	1	t		49.0	2.5	/experiments/knapen_AOT/AOT_stimuli/rescaled_final/0990_fw.mp4	0.0	247.38010597229004	
51	230.12583684921265	fix_post	2		12	49.0	2.5	/experiments/knapen_AOT/AOT_stimuli/rescaled_final/0990_fw.mp4	0.0	248.69673681259155	0.0999600887298584
52	230.2257969379425	fix_pre	0		120	50.0	2.5	/experiments/knapen_AOT/AOT_stimuli/rescaled_final/2008_rv.mp4	0.0	248.7966969013214	1.0001609325408936
52	230.4094099998474	pulse	0	t		50.0	2.5	/experiments/knapen_AOT/AOT_stimuli/rescaled_final/2008_rv.mp4	0.0	248.98030996322632	
52	231.2259578704834	movie	1		242	50.0	2.5	/experiments/knapen_AOT/AOT_stimuli/rescaled_final/2008_rv.mp4	0.0	249.7968578338623	2.5004069805145264
52	232.0095658302307	pulse	1	t		50.0	2.5	/experiments/knapen_AOT/AOT_stimuli/rescaled_final/2008_rv.mp4	0.0	250.58046579360962	
52	233.6099238395691	pulse	1	t		50.0	2.5	/experiments/knapen_AOT/AOT_stimuli/rescaled_final/2008_rv.mp4	0.0	252.180823802948	
52	233.72636485099792	fix_post	2		12	50.0	2.5	/experiments/knapen_AOT/AOT_stimuli/rescaled_final/2008_rv.mp4	0.0	252.29726481437683	0.09998416900634766
53	233.82634902000427	fix_pre	0		120	51.0	2.5	/experiments/knapen_AOT/AOT_stimuli/rescaled_final/0745_fw.mp4	0.0	252.39724898338318	1.0001299381256104
53	234.82647895812988	movie	1		243	51.0	2.5	/experiments/knapen_AOT/AOT_stimuli/rescaled_final/0745_fw.mp4	0.0	253.3973789215088	2.4920248985290527
53	235.21071100234985	pulse	1	t		51.0	2.5	/experiments/knapen_AOT/AOT_stimuli/rescaled_final/0745_fw.mp4	0.0	253.78161096572876	
53	236.81040596961975	pulse	1	t		51.0	2.5	/experiments/knapen_AOT/AOT_stimuli/rescaled_final/0745_fw.mp4	0.0	255.38130593299866	
53	237.31850385665894	fix_post	2		12	51.0	2.5	/experiments/knapen_AOT/AOT_stimuli/rescaled_final/0745_fw.mp4	0.0	255.88940382003784	0.1000521183013916
54	237.41855597496033	fix_pre	0		120	52.0	2.5	/experiments/knapen_AOT/AOT_stimuli/rescaled_final/0485_fw.mp4	0.0	255.98945593833923	1.000133991241455
54	238.41051483154297	pulse	0	t		52.0	2.5	/experiments/knapen_AOT/AOT_stimuli/rescaled_final/0485_fw.mp4	0.0	256.9814147949219	
54	238.41868996620178	movie	1		244	52.0	2.5	/experiments/knapen_AOT/AOT_stimuli/rescaled_final/0485_fw.mp4	0.0	256.9895899295807	2.508713960647583
54	240.0121078491211	pulse	1	t		52.0	2.5	/experiments/knapen_AOT/AOT_stimuli/rescaled_final/0485_fw.mp4	0.0	258.5830078125	
54	240.92740392684937	fix_post	2		12	52.0	2.5	/experiments/knapen_AOT/AOT_stimuli/rescaled_final/0485_fw.mp4	0.0	259.49830389022827	0.09998798370361328
55	241.02739191055298	fix_pre	0		120	53.0	2.5	/experiments/knapen_AOT/AOT_stimuli/rescaled_final/1759_fw.mp4	0.0	259.5982918739319	1.0001499652862549
55	241.61102199554443	pulse	0	t		53.0	2.5	/experiments/knapen_AOT/AOT_stimuli/rescaled_final/1759_fw.mp4	0.0	260.18192195892334	
55	242.02754187583923	movie	1		243	53.0	2.5	/experiments/knapen_AOT/AOT_stimuli/rescaled_final/1759_fw.mp4	0.0	260.59844183921814	2.5003550052642822
55	243.20763897895813	pulse	1	t		53.0	2.5	/experiments/knapen_AOT/AOT_stimuli/rescaled_final/1759_fw.mp4	0.0	261.77853894233704	
55	244.52789688110352	fix_post	2		12	53.0	2.5	/experiments/knapen_AOT/AOT_stimuli/rescaled_final/1759_fw.mp4	0.0	263.0987968444824	0.10002303123474121
56	244.62791991233826	fix_pre	0		120	54.0	2.5	/experiments/knapen_AOT/AOT_stimuli/rescaled_final/1091_fw.mp4	0.0	263.19881987571716	1.0001869201660156
56	244.8116419315338	pulse	0	t		54.0	2.5	/experiments/knapen_AOT/AOT_stimuli/rescaled_final/1091_fw.mp4	0.0	263.3825418949127	
56	245.62810683250427	movie	1		243	54.0	2.5	/experiments/knapen_AOT/AOT_stimuli/rescaled_final/1091_fw.mp4	0.0	264.1990067958832	2.500460147857666
56	246.41179895401	pulse	1	t		54.0	2.5	/experiments/knapen_AOT/AOT_stimuli/rescaled_final/1091_fw.mp4	0.0	264.9826989173889	
56	248.01263785362244	pulse	1	t		54.0	2.5	/experiments/knapen_AOT/AOT_stimuli/rescaled_final/1091_fw.mp4	0.0	266.58353781700134	
56	248.12856698036194	fix_post	2		12	54.0	2.5	/experiments/knapen_AOT/AOT_stimuli/rescaled_final/1091_fw.mp4	0.0	266.69946694374084	0.09990191459655762
57	248.2284688949585	fix_pre	0		120	55.0	2.5	/experiments/knapen_AOT/AOT_stimuli/rescaled_final/0221_fw.mp4	0.0	266.7993688583374	1.000180959701538
57	249.22864985466003	movie	1		241	55.0	2.5	/experiments/knapen_AOT/AOT_stimuli/rescaled_final/0221_fw.mp4	0.0	267.79954981803894	2.492133140563965
57	249.61279582977295	pulse	1	t		55.0	2.5	/experiments/knapen_AOT/AOT_stimuli/rescaled_final/0221_fw.mp4	0.0	268.18369579315186	
57	251.21255493164062	pulse	1	t		55.0	2.5	/experiments/knapen_AOT/AOT_stimuli/rescaled_final/0221_fw.mp4	0.0	269.78345489501953	
57	251.720782995224	fix_post	2		12	55.0	2.5	/experiments/knapen_AOT/AOT_stimuli/rescaled_final/0221_fw.mp4	0.0	270.2916829586029	0.09990286827087402
58	251.82068586349487	fix_pre	0		120	56.0	2.5	blank	1.0	270.3915858268738	1.0001270771026611
58	252.8126528263092	pulse	0	t		56.0	2.5	blank	1.0	271.3835527896881	
58	252.82081294059753	movie	1		301	56.0	2.5	blank	1.0	271.39171290397644	2.5087270736694336
58	254.4128930568695	pulse	1	t		56.0	2.5	blank	1.0	272.9837930202484	
58	255.32954001426697	fix_post	2		12	56.0	2.5	blank	1.0	273.9004399776459	0.09997391700744629
59	255.4295139312744	fix_pre	0		120	57.0	2.5	/experiments/knapen_AOT/AOT_stimuli/rescaled_final/2068_rv.mp4	0.0	274.0004138946533	1.0001940727233887
59	256.01326394081116	pulse	0	t		57.0	2.5	/experiments/knapen_AOT/AOT_stimuli/rescaled_final/2068_rv.mp4	0.0	274.58416390419006	
59	256.4297080039978	movie	1		243	57.0	2.5	/experiments/knapen_AOT/AOT_stimuli/rescaled_final/2068_rv.mp4	0.0	275.0006079673767	2.500351905822754
59	257.6065180301666	pulse	1	t		57.0	2.5	/experiments/knapen_AOT/AOT_stimuli/rescaled_final/2068_rv.mp4	0.0	276.17741799354553	
59	258.93005990982056	fix_post	2		12	57.0	2.5	/experiments/knapen_AOT/AOT_stimuli/rescaled_final/2068_rv.mp4	0.0	277.50095987319946	0.10001611709594727
60	259.0300760269165	fix_pre	0		120	58.0	2.5	/experiments/knapen_AOT/AOT_stimuli/rescaled_final/0034_fw.mp4	0.0	277.6009759902954	1.0001449584960938
60	259.2061929702759	pulse	0	t		58.0	2.5	/experiments/knapen_AOT/AOT_stimuli/rescaled_final/0034_fw.mp4	0.0	277.7770929336548	
60	260.0302209854126	movie	1		242	58.0	2.5	/experiments/knapen_AOT/AOT_stimuli/rescaled_final/0034_fw.mp4	0.0	278.6011209487915	2.5004329681396484
60	260.8066098690033	pulse	1	t		58.0	2.5	/experiments/knapen_AOT/AOT_stimuli/rescaled_final/0034_fw.mp4	0.0	279.3775098323822	
60	262.4140338897705	pulse	1	t		58.0	2.5	/experiments/knapen_AOT/AOT_stimuli/rescaled_final/0034_fw.mp4	0.0	280.9849338531494	
60	262.53065395355225	fix_post	2		12	58.0	2.5	/experiments/knapen_AOT/AOT_stimuli/rescaled_final/0034_fw.mp4	0.0	281.10155391693115	0.09995388984680176
61	262.63060784339905	fix_pre	0		119	59.0	2.5	/experiments/knapen_AOT/AOT_stimuli/rescaled_final/1804_rv.mp4	0.0	281.20150780677795	0.9918460845947266
61	263.6224539279938	movie	1		245	59.0	2.5	/experiments/knapen_AOT/AOT_stimuli/rescaled_final/1804_rv.mp4	0.0	282.1933538913727	2.500335931777954
61	264.0073640346527	pulse	1	t		59.0	2.5	/experiments/knapen_AOT/AOT_stimuli/rescaled_final/1804_rv.mp4	0.0	282.5782639980316	
61	265.6062150001526	pulse	1	t		59.0	2.5	/experiments/knapen_AOT/AOT_stimuli/rescaled_final/1804_rv.mp4	0.0	284.1771149635315	
61	266.12278985977173	fix_post	2		12	59.0	2.5	/experiments/knapen_AOT/AOT_stimuli/rescaled_final/1804_rv.mp4	0.0	284.69368982315063	0.10003805160522461
62	266.22282791137695	fix_pre	0		119	60.0	2.5	/experiments/knapen_AOT/AOT_stimuli/rescaled_final/1577_rv.mp4	0.0	284.79372787475586	0.9918220043182373
62	267.2064628601074	pulse	0	t		60.0	2.5	/experiments/knapen_AOT/AOT_stimuli/rescaled_final/1577_rv.mp4	0.0	285.7773628234863	
62	267.2146499156952	movie	1		241	60.0	2.5	/experiments/knapen_AOT/AOT_stimuli/rescaled_final/1577_rv.mp4	0.0	285.7855498790741	2.5086989402770996
62	268.80805683135986	pulse	1	t		60.0	2.5	/experiments/knapen_AOT/AOT_stimuli/rescaled_final/1577_rv.mp4	0.0	287.37895679473877	
62	269.7233488559723	fix_post	2		12	60.0	2.5	/experiments/knapen_AOT/AOT_stimuli/rescaled_final/1577_rv.mp4	0.0	288.2942488193512	0.10009098052978516
63	269.8234398365021	fix_pre	0		120	61.0	2.5	/experiments/knapen_AOT/AOT_stimuli/rescaled_final/0669_fw.mp4	0.0	288.394339799881	1.0001051425933838
63	270.4069700241089	pulse	0	t		61.0	2.5	/experiments/knapen_AOT/AOT_stimuli/rescaled_final/0669_fw.mp4	0.0	288.9778699874878	
63	270.82354497909546	movie	1		243	61.0	2.5	/experiments/knapen_AOT/AOT_stimuli/rescaled_final/0669_fw.mp4	0.0	289.39444494247437	2.5003838539123535
63	272.0073380470276	pulse	1	t		61.0	2.5	/experiments/knapen_AOT/AOT_stimuli/rescaled_final/0669_fw.mp4	0.0	290.5782380104065	
63	273.3239288330078	fix_post	2		12	61.0	2.5	/experiments/knapen_AOT/AOT_stimuli/rescaled_final/0669_fw.mp4	0.0	291.8948287963867	0.09997200965881348
64	273.4239008426666	fix_pre	0		120	62.0	2.5	/experiments/knapen_AOT/AOT_stimuli/rescaled_final/2001_fw.mp4	0.0	291.99480080604553	1.000157117843628
64	273.6073958873749	pulse	0	t		62.0	2.5	/experiments/knapen_AOT/AOT_stimuli/rescaled_final/2001_fw.mp4	0.0	292.1782958507538	
64	274.42405796051025	movie	1		243	62.0	2.5	/experiments/knapen_AOT/AOT_stimuli/rescaled_final/2001_fw.mp4	0.0	292.99495792388916	2.5003700256347656
64	275.2077000141144	pulse	1	t		62.0	2.5	/experiments/knapen_AOT/AOT_stimuli/rescaled_final/2001_fw.mp4	0.0	293.7785999774933	
64	276.8078179359436	pulse	1	t		62.0	2.5	/experiments/knapen_AOT/AOT_stimuli/rescaled_final/2001_fw.mp4	0.0	295.3787178993225	
64	276.924427986145	fix_post	2		12	62.0	2.5	/experiments/knapen_AOT/AOT_stimuli/rescaled_final/2001_fw.mp4	0.0	295.4953279495239	0.10001087188720703
65	277.0244388580322	fix_pre	0		120	63.0	2.5	blank	1.0	295.59533882141113	1.0001890659332275
65	278.02462792396545	movie	1		299	63.0	2.5	blank	1.0	296.59552788734436	2.4919939041137695
65	278.408164024353	pulse	1	t		63.0	2.5	blank	1.0	296.97906398773193	
65	280.00849199295044	pulse	1	t		63.0	2.5	blank	1.0	298.57939195632935	
65	280.5166218280792	fix_post	2		12	63.0	2.5	blank	1.0	299.08752179145813	0.1000220775604248
66	280.61664390563965	fix_pre	0		120	64.0	2.5	/experiments/knapen_AOT/AOT_stimuli/rescaled_final/0517_fw.mp4	0.0	299.18754386901855	1.000133991241455
66	281.6087028980255	pulse	0	t		64.0	2.5	/experiments/knapen_AOT/AOT_stimuli/rescaled_final/0517_fw.mp4	0.0	300.1796028614044	
66	281.6167778968811	movie	1		244	64.0	2.5	/experiments/knapen_AOT/AOT_stimuli/rescaled_final/0517_fw.mp4	0.0	300.18767786026	2.5087201595306396
66	283.2094838619232	pulse	1	t		64.0	2.5	/experiments/knapen_AOT/AOT_stimuli/rescaled_final/0517_fw.mp4	0.0	301.7803838253021	
66	284.12549805641174	fix_post	2		12	64.0	2.5	/experiments/knapen_AOT/AOT_stimuli/rescaled_final/0517_fw.mp4	0.0	302.69639801979065	0.10006380081176758
67	284.2255618572235	fix_pre	0		120	65.0	2.5	/experiments/knapen_AOT/AOT_stimuli/rescaled_final/0417_fw.mp4	0.0	302.7964618206024	1.0001070499420166
67	284.80914998054504	pulse	0	t		65.0	2.5	/experiments/knapen_AOT/AOT_stimuli/rescaled_final/0417_fw.mp4	0.0	303.38004994392395	
67	285.2256689071655	movie	1		243	65.0	2.5	/experiments/knapen_AOT/AOT_stimuli/rescaled_final/0417_fw.mp4	0.0	303.79656887054443	2.5005130767822266
67	286.4095449447632	pulse	1	t		65.0	2.5	/experiments/knapen_AOT/AOT_stimuli/rescaled_final/0417_fw.mp4	0.0	304.9804449081421	
67	287.72618198394775	fix_post	2		12	65.0	2.5	/experiments/knapen_AOT/AOT_stimuli/rescaled_final/0417_fw.mp4	0.0	306.29708194732666	0.09987306594848633
68	287.82605504989624	fix_pre	0		120	66.0	2.5	/experiments/knapen_AOT/AOT_stimuli/rescaled_final/0884_fw.mp4	0.0	306.39695501327515	1.0001158714294434
68	288.00971603393555	pulse	0	t		66.0	2.5	/experiments/knapen_AOT/AOT_stimuli/rescaled_final/0884_fw.mp4	0.0	306.58061599731445	
68	288.8261709213257	movie	1		243	66.0	2.5	/experiments/knapen_AOT/AOT_stimuli/rescaled_final/0884_fw.mp4	0.0	307.3970708847046	2.5005431175231934
68	289.60986399650574	pulse	1	t		66.0	2.5	/experiments/knapen_AOT/AOT_stimuli/rescaled_final/0884_fw.mp4	0.0	308.18076395988464	
68	291.21001505851746	pulse	1	t		66.0	2.5	/experiments/knapen_AOT/AOT_stimuli/rescaled_final/0884_fw.mp4	0.0	309.78091502189636	
68	291.3267140388489	fix_post	2		12	66.0	2.5	/experiments/knapen_AOT/AOT_stimuli/rescaled_final/0884_fw.mp4	0.0	309.8976140022278	0.09994292259216309
69	291.42665696144104	fix_pre	0		120	67.0	2.5	/experiments/knapen_AOT/AOT_stimuli/rescaled_final/1595_fw.mp4	0.0	309.99755692481995	1.0000929832458496
69	292.4267499446869	movie	1		242	67.0	2.5	/experiments/knapen_AOT/AOT_stimuli/rescaled_final/1595_fw.mp4	0.0	310.9976499080658	2.492058038711548
69	292.81129002571106	pulse	1	t		67.0	2.5	/experiments/knapen_AOT/AOT_stimuli/rescaled_final/1595_fw.mp4	0.0	311.38218998908997	
69	294.4107060432434	pulse	1	t		67.0	2.5	/experiments/knapen_AOT/AOT_stimuli/rescaled_final/1595_fw.mp4	0.0	312.9816060066223	
69	294.91880798339844	fix_post	2		12	67.0	2.5	/experiments/knapen_AOT/AOT_stimuli/rescaled_final/1595_fw.mp4	0.0	313.48970794677734	0.10001587867736816
70	295.0188238620758	fix_pre	0		120	68.0	2.5	blank	1.0	313.5897238254547	1.0000970363616943
70	296.01087188720703	pulse	0	t		68.0	2.5	blank	1.0	314.58177185058594	
70	296.0189208984375	movie	1		301	68.0	2.5	blank	1.0	314.5898208618164	2.5087220668792725
70	297.610985994339	pulse	1	t		68.0	2.5	blank	1.0	316.1818859577179	
70	298.5276429653168	fix_post	2		12	68.0	2.5	blank	1.0	317.0985429286957	0.10000991821289062
71	298.62765288352966	fix_pre	0		120	69.0	2.5	/experiments/knapen_AOT/AOT_stimuli/rescaled_final/1912_fw.mp4	0.0	317.19855284690857	1.0001611709594727
71	299.2112669944763	pulse	0	t		69.0	2.5	/experiments/knapen_AOT/AOT_stimuli/rescaled_final/1912_fw.mp4	0.0	317.7821669578552	
71	299.62781405448914	movie	1		244	69.0	2.5	/experiments/knapen_AOT/AOT_stimuli/rescaled_final/1912_fw.mp4	0.0	318.19871401786804	2.5004448890686035
71	300.8117458820343	pulse	1	t		69.0	2.5	/experiments/knapen_AOT/AOT_stimuli/rescaled_final/1912_fw.mp4	0.0	319.3826458454132	
71	302.12825894355774	fix_post	2		12	69.0	2.5	/experiments/knapen_AOT/AOT_stimuli/rescaled_final/1912_fw.mp4	0.0	320.69915890693665	0.09997797012329102
72	302.22823691368103	fix_pre	0		120	70.0	2.5	/experiments/knapen_AOT/AOT_stimuli/rescaled_final/1868_fw.mp4	0.0	320.79913687705994	1.0001130104064941
72	302.41184186935425	pulse	0	t		70.0	2.5	/experiments/knapen_AOT/AOT_stimuli/rescaled_final/1868_fw.mp4	0.0	320.98274183273315	
72	303.2283499240875	movie	1		243	70.0	2.5	/experiments/knapen_AOT/AOT_stimuli/rescaled_final/1868_fw.mp4	0.0	321.79924988746643	2.500488042831421
72	304.01199984550476	pulse	1	t		70.0	2.5	/experiments/knapen_AOT/AOT_stimuli/rescaled_final/1868_fw.mp4	0.0	322.58289980888367	
72	305.6121258735657	pulse	1	t		70.0	2.5	/experiments/knapen_AOT/AOT_stimuli/rescaled_final/1868_fw.mp4	0.0	324.1830258369446	
72	305.72883796691895	fix_post	2		12	70.0	2.5	/experiments/knapen_AOT/AOT_stimuli/rescaled_final/1868_fw.mp4	0.0	324.29973793029785	0.09987807273864746
73	305.8287160396576	fix_pre	0		120	71.0	2.5	/experiments/knapen_AOT/AOT_stimuli/rescaled_final/1886_fw.mp4	0.0	324.3996160030365	1.0001850128173828
73	306.828901052475	movie	1		241	71.0	2.5	/experiments/knapen_AOT/AOT_stimuli/rescaled_final/1886_fw.mp4	0.0	325.3998010158539	2.492149829864502
73	307.2135488986969	pulse	1	t		71.0	2.5	/experiments/knapen_AOT/AOT_stimuli/rescaled_final/1886_fw.mp4	0.0	325.7844488620758	
73	308.812824010849	pulse	1	t		71.0	2.5	/experiments/knapen_AOT/AOT_stimuli/rescaled_final/1886_fw.mp4	0.0	327.3837239742279	
73	309.3210508823395	fix_post	2		12	71.0	2.5	/experiments/knapen_AOT/AOT_stimuli/rescaled_final/1886_fw.mp4	0.0	327.8919508457184	0.09991216659545898
74	309.42096304893494	fix_pre	0		120	72.0	2.5	/experiments/knapen_AOT/AOT_stimuli/rescaled_final/1924_fw.mp4	0.0	327.99186301231384	1.0001499652862549
74	310.40563893318176	pulse	0	t		72.0	2.5	/experiments/knapen_AOT/AOT_stimuli/rescaled_final/1924_fw.mp4	0.0	328.97653889656067	
74	310.4211130142212	movie	1		245	72.0	2.5	/experiments/knapen_AOT/AOT_stimuli/rescaled_final/1924_fw.mp4	0.0	328.9920129776001	2.5086519718170166
74	312.01362705230713	pulse	1	t		72.0	2.5	/experiments/knapen_AOT/AOT_stimuli/rescaled_final/1924_fw.mp4	0.0	330.58452701568604	
74	312.9297649860382	fix_post	2		12	72.0	2.5	/experiments/knapen_AOT/AOT_stimuli/rescaled_final/1924_fw.mp4	0.0	331.5006649494171	0.10005593299865723
75	313.02982091903687	fix_pre	0		120	73.0	2.5	/experiments/knapen_AOT/AOT_stimuli/rescaled_final/1047_rv.mp4	0.0	331.60072088241577	1.0001399517059326
75	313.60587787628174	pulse	0	t		73.0	2.5	/experiments/knapen_AOT/AOT_stimuli/rescaled_final/1047_rv.mp4	0.0	332.17677783966064	
75	314.0299608707428	movie	1		242	73.0	2.5	/experiments/knapen_AOT/AOT_stimuli/rescaled_final/1047_rv.mp4	0.0	332.6008608341217	2.5004971027374268
75	315.2058868408203	pulse	1	t		73.0	2.5	/experiments/knapen_AOT/AOT_stimuli/rescaled_final/1047_rv.mp4	0.0	333.7767868041992	
75	316.5304579734802	fix_post	2		12	73.0	2.5	/experiments/knapen_AOT/AOT_stimuli/rescaled_final/1047_rv.mp4	0.0	335.10135793685913	0.09991192817687988
76	316.6303699016571	fix_pre	0		120	74.0	2.5	/experiments/knapen_AOT/AOT_stimuli/rescaled_final/1630_rv.mp4	0.0	335.201269865036	1.0001370906829834
76	316.8056650161743	pulse	0	t		74.0	2.5	/experiments/knapen_AOT/AOT_stimuli/rescaled_final/1630_rv.mp4	0.0	335.3765649795532	
76	317.6305069923401	movie	1		242	74.0	2.5	/experiments/knapen_AOT/AOT_stimuli/rescaled_final/1630_rv.mp4	0.0	336.201406955719	2.500403881072998
76	318.40573287010193	pulse	1	t		74.0	2.5	/experiments/knapen_AOT/AOT_stimuli/rescaled_final/1630_rv.mp4	0.0	336.97663283348083	
76	320.00602102279663	pulse	1	t		74.0	2.5	/experiments/knapen_AOT/AOT_stimuli/rescaled_final/1630_rv.mp4	0.0	338.57692098617554	
76	320.1309108734131	fix_post	2		12	74.0	2.5	/experiments/knapen_AOT/AOT_stimuli/rescaled_final/1630_rv.mp4	0.0	338.701810836792	0.09995698928833008
77	320.2308678627014	fix_pre	0		119	75.0	2.5	blank	1.0	338.8017678260803	0.9918231964111328
77	321.22269105911255	movie	1		300	75.0	2.5	blank	1.0	339.79359102249146	2.5003628730773926
77	321.60643005371094	pulse	1	t		75.0	2.5	blank	1.0	340.17733001708984	
77	323.2065279483795	pulse	1	t		75.0	2.5	blank	1.0	341.7774279117584	
77	323.72305393218994	fix_post	2		12	75.0	2.5	blank	1.0	342.29395389556885	0.10007500648498535
78	323.8231289386749	fix_pre	0		119	76.0	2.5	/experiments/knapen_AOT/AOT_stimuli/rescaled_final/1592_rv.mp4	0.0	342.39402890205383	0.9918050765991211
78	324.80684185028076	pulse	0	t		76.0	2.5	/experiments/knapen_AOT/AOT_stimuli/rescaled_final/1592_rv.mp4	0.0	343.37774181365967	
78	324.81493401527405	movie	1		244	76.0	2.5	/experiments/knapen_AOT/AOT_stimuli/rescaled_final/1592_rv.mp4	0.0	343.38583397865295	2.508654832839966
78	326.4084370136261	pulse	1	t		76.0	2.5	/experiments/knapen_AOT/AOT_stimuli/rescaled_final/1592_rv.mp4	0.0	344.979336977005	
78	327.323588848114	fix_post	2		12	76.0	2.5	/experiments/knapen_AOT/AOT_stimuli/rescaled_final/1592_rv.mp4	0.0	345.8944888114929	0.10004401206970215
79	327.4236328601837	fix_pre	0		120	77.0	2.5	/experiments/knapen_AOT/AOT_stimuli/rescaled_final/0376_rv.mp4	0.0	345.9945328235626	1.0001351833343506
79	328.00734090805054	pulse	0	t		77.0	2.5	/experiments/knapen_AOT/AOT_stimuli/rescaled_final/0376_rv.mp4	0.0	346.57824087142944	
79	328.42376804351807	movie	1		242	77.0	2.5	/experiments/knapen_AOT/AOT_stimuli/rescaled_final/0376_rv.mp4	0.0	346.994668006897	2.5050759315490723
79	329.6075608730316	pulse	1	t		77.0	2.5	/experiments/knapen_AOT/AOT_stimuli/rescaled_final/0376_rv.mp4	0.0	348.1784608364105	
79	330.92884397506714	fix_post	2		11	77.0	2.5	/experiments/knapen_AOT/AOT_stimuli/rescaled_final/0376_rv.mp4	0.0	349.49974393844604	0.0952908992767334
80	331.0241348743439	fix_pre	0		120	78.0	2.5	/experiments/knapen_AOT/AOT_stimuli/rescaled_final/1602_rv.mp4	0.0	349.5950348377228	1.0001640319824219
80	331.2078070640564	pulse	0	t		78.0	2.5	/experiments/knapen_AOT/AOT_stimuli/rescaled_final/1602_rv.mp4	0.0	349.7787070274353	
80	332.0242989063263	movie	1		242	78.0	2.5	/experiments/knapen_AOT/AOT_stimuli/rescaled_final/1602_rv.mp4	0.0	350.5951988697052	2.50051212310791
80	332.8079538345337	pulse	1	t		78.0	2.5	/experiments/knapen_AOT/AOT_stimuli/rescaled_final/1602_rv.mp4	0.0	351.3788537979126	
80	334.408166885376	pulse	1	t		78.0	2.5	/experiments/knapen_AOT/AOT_stimuli/rescaled_final/1602_rv.mp4	0.0	352.9790668487549	
80	334.5248110294342	fix_post	2		12	78.0	2.5	/experiments/knapen_AOT/AOT_stimuli/rescaled_final/1602_rv.mp4	0.0	353.0957109928131	0.09996294975280762
81	334.624773979187	fix_pre	0		120	79.0	2.5	/experiments/knapen_AOT/AOT_stimuli/rescaled_final/0485_fw.mp4	0.0	353.1956739425659	1.000096082687378
81	335.6248700618744	movie	1		242	79.0	2.5	/experiments/knapen_AOT/AOT_stimuli/rescaled_final/0485_fw.mp4	0.0	354.1957700252533	2.492015838623047
81	336.00905084609985	pulse	1	t		79.0	2.5	/experiments/knapen_AOT/AOT_stimuli/rescaled_final/0485_fw.mp4	0.0	354.57995080947876	
81	337.6087028980255	pulse	1	t		79.0	2.5	/experiments/knapen_AOT/AOT_stimuli/rescaled_final/0485_fw.mp4	0.0	356.1796028614044	
81	338.11688590049744	fix_post	2		12	79.0	2.5	/experiments/knapen_AOT/AOT_stimuli/rescaled_final/0485_fw.mp4	0.0	356.68778586387634	0.1000051498413086
82	338.21689105033875	fix_pre	0		120	80.0	2.5	/experiments/knapen_AOT/AOT_stimuli/rescaled_final/0817_fw.mp4	0.0	356.78779101371765	1.0001897811889648
82	339.2089400291443	pulse	0	t		80.0	2.5	/experiments/knapen_AOT/AOT_stimuli/rescaled_final/0817_fw.mp4	0.0	357.7798399925232	
82	339.2170808315277	movie	1		243	80.0	2.5	/experiments/knapen_AOT/AOT_stimuli/rescaled_final/0817_fw.mp4	0.0	357.7879807949066	2.5086421966552734
82	340.80970096588135	pulse	1	t		80.0	2.5	/experiments/knapen_AOT/AOT_stimuli/rescaled_final/0817_fw.mp4	0.0	359.38060092926025	
82	341.725723028183	fix_post	2		12	80.0	2.5	/experiments/knapen_AOT/AOT_stimuli/rescaled_final/0817_fw.mp4	0.0	360.2966229915619	0.10004591941833496
83	341.8257689476013	fix_pre	0		120	81.0	2.5	/experiments/knapen_AOT/AOT_stimuli/rescaled_final/0034_fw.mp4	0.0	360.3966689109802	1.000180959701538
83	342.40949296951294	pulse	0	t		81.0	2.5	/experiments/knapen_AOT/AOT_stimuli/rescaled_final/0034_fw.mp4	0.0	360.98039293289185	
83	342.82594990730286	movie	1		242	81.0	2.5	/experiments/knapen_AOT/AOT_stimuli/rescaled_final/0034_fw.mp4	0.0	361.39684987068176	2.5003349781036377
83	344.00974702835083	pulse	1	t		81.0	2.5	/experiments/knapen_AOT/AOT_stimuli/rescaled_final/0034_fw.mp4	0.0	362.58064699172974	
83	345.3262848854065	fix_post	2		12	81.0	2.5	/experiments/knapen_AOT/AOT_stimuli/rescaled_final/0034_fw.mp4	0.0	363.8971848487854	0.1000511646270752
84	345.42633605003357	fix_pre	0		120	82.0	2.5	blank	1.0	363.9972360134125	1.0001139640808105
84	345.6098630428314	pulse	0	t		82.0	2.5	blank	1.0	364.1807630062103	
84	346.4264500141144	movie	1		300	82.0	2.5	blank	1.0	364.9973499774933	2.500422954559326
84	347.2100439071655	pulse	1	t		82.0	2.5	blank	1.0	365.78094387054443	
84	348.81045484542847	pulse	1	t		82.0	2.5	blank	1.0	367.3813548088074	
84	348.9268729686737	fix_post	2		12	82.0	2.5	blank	1.0	367.4977729320526	0.0999600887298584
85	349.02683305740356	fix_pre	0		120	83.0	2.5	/experiments/knapen_AOT/AOT_stimuli/rescaled_final/0821_fw.mp4	0.0	367.59773302078247	1.0001578330993652
85	350.02699089050293	movie	1		242	83.0	2.5	/experiments/knapen_AOT/AOT_stimuli/rescaled_final/0821_fw.mp4	0.0	368.59789085388184	2.492051124572754
85	350.41124391555786	pulse	1	t		83.0	2.5	/experiments/knapen_AOT/AOT_stimuli/rescaled_final/0821_fw.mp4	0.0	368.98214387893677	
85	352.0108480453491	pulse	1	t		83.0	2.5	/experiments/knapen_AOT/AOT_stimuli/rescaled_final/0821_fw.mp4	0.0	370.581748008728	
85	352.5190420150757	fix_post	2		12	83.0	2.5	/experiments/knapen_AOT/AOT_stimuli/rescaled_final/0821_fw.mp4	0.0	371.0899419784546	0.10001087188720703
87	352.6190528869629	stim	0		1716					371.1899528503418	14.302242040634155
87	353.61105585098267	pulse	0	t						372.1819558143616	
87	355.21137285232544	pulse	0	t						373.78227281570435	
87	356.81162190437317	pulse	0	t						375.3825218677521	
87	358.4118330478668	pulse	0	t						376.9827330112457	
87	360.0119638442993	pulse	0	t						378.5828638076782	
87	361.6122498512268	pulse	0	t						380.1831498146057	
87	363.2125220298767	pulse	0	t						381.7834219932556	
87	364.81277203559875	pulse	0	t						383.38367199897766	
87	366.41291189193726	pulse	0	t						384.98381185531616	
