trial_nr	onset	event_type	phase	response	nr_frames	movie_index	movie_duration	movie_file	blank	onset_abs	duration
0	0.20808911323547363	stim	0		204					45.46301007270813	1.7002880573272705
0	1.9001710414886475	response	0	space						47.155092000961304	
1	1.9083771705627441	stim	0		4045					47.1632981300354	33.725573778152466
1	35.619227170944214	pulse	0	t						80.87414813041687	
1	35.63395094871521	stim	1		1715					80.88887190818787	14.298235177993774
1	37.213802099227905	pulse	1	t						82.46872305870056	
1	38.81413507461548	pulse	1	t						84.06905603408813	
1	40.41422200202942	pulse	1	t						85.66914296150208	
1	42.014562129974365	pulse	1	t						87.26948308944702	
1	43.61483097076416	pulse	1	t						88.86975193023682	
1	45.21500205993652	pulse	1	t						90.46992301940918	
1	46.815184116363525	pulse	1	t						92.07010507583618	
1	48.415526151657104	pulse	1	t						93.67044711112976	
2	49.932186126708984	fix_pre	0		11	0.0	2.5	/experiments/knapen_AOT/AOT_stimuli/rescaled_final/0086_fw.mp4	0.0	95.18710708618164	0.09170889854431152
2	50.01575016975403	pulse	0	t		0.0	2.5	/experiments/knapen_AOT/AOT_stimuli/rescaled_final/0086_fw.mp4	0.0	95.27067112922668	
2	50.023895025253296	movie	1		242	0.0	2.5	/experiments/knapen_AOT/AOT_stimuli/rescaled_final/0086_fw.mp4	0.0	95.27881598472595	2.5087649822235107
2	51.61670804023743	pulse	1	t		0.0	2.5	/experiments/knapen_AOT/AOT_stimuli/rescaled_final/0086_fw.mp4	0.0	96.87162899971008	
2	52.53266000747681	fix_post	2		12	0.0	2.5	/experiments/knapen_AOT/AOT_stimuli/rescaled_final/0086_fw.mp4	0.0	97.78758096694946	0.09995603561401367
3	52.63261604309082	fix_pre	0		120	1.0	2.5	/experiments/knapen_AOT/AOT_stimuli/rescaled_final/1009_rv.mp4	0.0	97.88753700256348	1.0001749992370605
3	53.2161750793457	pulse	0	t		1.0	2.5	/experiments/knapen_AOT/AOT_stimuli/rescaled_final/1009_rv.mp4	0.0	98.47109603881836	
3	53.63279104232788	movie	1		243	1.0	2.5	/experiments/knapen_AOT/AOT_stimuli/rescaled_final/1009_rv.mp4	0.0	98.88771200180054	2.500441074371338
3	54.80889701843262	pulse	1	t		1.0	2.5	/experiments/knapen_AOT/AOT_stimuli/rescaled_final/1009_rv.mp4	0.0	100.06381797790527	
3	56.13323211669922	fix_post	2		12	1.0	2.5	/experiments/knapen_AOT/AOT_stimuli/rescaled_final/1009_rv.mp4	0.0	101.38815307617188	0.09996795654296875
4	56.23320007324219	fix_pre	0		120	2.0	2.5	/experiments/knapen_AOT/AOT_stimuli/rescaled_final/1136_fw.mp4	0.0	101.48812103271484	1.0001990795135498
4	56.40916395187378	pulse	0	t		2.0	2.5	/experiments/knapen_AOT/AOT_stimuli/rescaled_final/1136_fw.mp4	0.0	101.66408491134644	
4	57.23339915275574	movie	1		243	2.0	2.5	/experiments/knapen_AOT/AOT_stimuli/rescaled_final/1136_fw.mp4	0.0	102.4883201122284	2.500422954559326
4	58.00954008102417	pulse	1	t		2.0	2.5	/experiments/knapen_AOT/AOT_stimuli/rescaled_final/1136_fw.mp4	0.0	103.26446104049683	
4	59.609034061431885	pulse	1	t		2.0	2.5	/experiments/knapen_AOT/AOT_stimuli/rescaled_final/1136_fw.mp4	0.0	104.86395502090454	
4	59.73382210731506	fix_post	2		12	2.0	2.5	/experiments/knapen_AOT/AOT_stimuli/rescaled_final/1136_fw.mp4	0.0	104.98874306678772	0.09986400604248047
5	59.833686113357544	fix_pre	0		120	3.0	2.5	/experiments/knapen_AOT/AOT_stimuli/rescaled_final/1853_rv.mp4	0.0	105.0886070728302	1.0001230239868164
5	60.83380913734436	movie	1		241	3.0	2.5	/experiments/knapen_AOT/AOT_stimuli/rescaled_final/1853_rv.mp4	0.0	106.08873009681702	2.4921250343322754
5	61.2090699672699	pulse	1	t		3.0	2.5	/experiments/knapen_AOT/AOT_stimuli/rescaled_final/1853_rv.mp4	0.0	106.46399092674255	
5	62.80929613113403	pulse	1	t		3.0	2.5	/experiments/knapen_AOT/AOT_stimuli/rescaled_final/1853_rv.mp4	0.0	108.06421709060669	
5	63.325934171676636	fix_post	2		12	3.0	2.5	/experiments/knapen_AOT/AOT_stimuli/rescaled_final/1853_rv.mp4	0.0	108.58085513114929	0.1000218391418457
6	63.42595601081848	fix_pre	0		119	4.0	2.5	/experiments/knapen_AOT/AOT_stimuli/rescaled_final/0999_rv.mp4	0.0	108.68087697029114	0.9918200969696045
6	64.40960907936096	pulse	0	t		4.0	2.5	/experiments/knapen_AOT/AOT_stimuli/rescaled_final/0999_rv.mp4	0.0	109.66453003883362	
6	64.41777610778809	movie	1		244	4.0	2.5	/experiments/knapen_AOT/AOT_stimuli/rescaled_final/0999_rv.mp4	0.0	109.67269706726074	2.508739948272705
6	66.01014709472656	pulse	1	t		4.0	2.5	/experiments/knapen_AOT/AOT_stimuli/rescaled_final/0999_rv.mp4	0.0	111.26506805419922	
6	66.92651605606079	fix_post	2		12	4.0	2.5	/experiments/knapen_AOT/AOT_stimuli/rescaled_final/0999_rv.mp4	0.0	112.18143701553345	0.0999441146850586
7	67.02646017074585	fix_pre	0		120	5.0	2.5	/experiments/knapen_AOT/AOT_stimuli/rescaled_final/1363_rv.mp4	0.0	112.2813811302185	1.0001227855682373
7	67.61010003089905	pulse	0	t		5.0	2.5	/experiments/knapen_AOT/AOT_stimuli/rescaled_final/1363_rv.mp4	0.0	112.8650209903717	
7	68.02658295631409	movie	1		242	5.0	2.5	/experiments/knapen_AOT/AOT_stimuli/rescaled_final/1363_rv.mp4	0.0	113.28150391578674	2.5004611015319824
7	69.21039915084839	pulse	1	t		5.0	2.5	/experiments/knapen_AOT/AOT_stimuli/rescaled_final/1363_rv.mp4	0.0	114.46532011032104	
7	70.52704405784607	fix_post	2		12	5.0	2.5	/experiments/knapen_AOT/AOT_stimuli/rescaled_final/1363_rv.mp4	0.0	115.78196501731873	0.09991097450256348
8	70.62695503234863	fix_pre	0		120	6.0	2.5	/experiments/knapen_AOT/AOT_stimuli/rescaled_final/0616_rv.mp4	0.0	115.88187599182129	1.0001580715179443
8	70.81044101715088	pulse	0	t		6.0	2.5	/experiments/knapen_AOT/AOT_stimuli/rescaled_final/0616_rv.mp4	0.0	116.06536197662354	
8	71.62711310386658	movie	1		242	6.0	2.5	/experiments/knapen_AOT/AOT_stimuli/rescaled_final/0616_rv.mp4	0.0	116.88203406333923	2.5005438327789307
8	72.41084408760071	pulse	1	t		6.0	2.5	/experiments/knapen_AOT/AOT_stimuli/rescaled_final/0616_rv.mp4	0.0	117.66576504707336	
8	74.01176714897156	pulse	1	t		6.0	2.5	/experiments/knapen_AOT/AOT_stimuli/rescaled_final/0616_rv.mp4	0.0	119.26668810844421	
8	74.12765693664551	fix_post	2		12	6.0	2.5	/experiments/knapen_AOT/AOT_stimuli/rescaled_final/0616_rv.mp4	0.0	119.38257789611816	0.09983110427856445
9	74.22748804092407	fix_pre	0		120	7.0	2.5	blank	1.0	119.48240900039673	1.0002079010009766
9	75.22769594192505	movie	1		299	7.0	2.5	blank	1.0	120.4826169013977	2.4920380115509033
9	75.61117911338806	pulse	1	t		7.0	2.5	blank	1.0	120.86610007286072	
9	77.21152901649475	pulse	1	t		7.0	2.5	blank	1.0	122.46644997596741	
9	77.71973395347595	fix_post	2		12	7.0	2.5	blank	1.0	122.97465491294861	0.09995317459106445
10	77.81968712806702	fix_pre	0		120	8.0	2.5	/experiments/knapen_AOT/AOT_stimuli/rescaled_final/0164_fw.mp4	0.0	123.07460808753967	1.000133991241455
10	78.81173205375671	pulse	0	t		8.0	2.5	/experiments/knapen_AOT/AOT_stimuli/rescaled_final/0164_fw.mp4	0.0	124.06665301322937	
10	78.81982111930847	movie	1		243	8.0	2.5	/experiments/knapen_AOT/AOT_stimuli/rescaled_final/0164_fw.mp4	0.0	124.07474207878113	2.508805990219116
10	80.41651916503906	pulse	1	t		8.0	2.5	/experiments/knapen_AOT/AOT_stimuli/rescaled_final/0164_fw.mp4	0.0	125.67144012451172	
10	81.32862710952759	fix_post	2		12	8.0	2.5	/experiments/knapen_AOT/AOT_stimuli/rescaled_final/0164_fw.mp4	0.0	126.58354806900024	0.09996604919433594
11	81.42859315872192	fix_pre	0		120	9.0	2.5	/experiments/knapen_AOT/AOT_stimuli/rescaled_final/0999_fw.mp4	0.0	126.68351411819458	1.0001459121704102
11	82.01222014427185	pulse	0	t		9.0	2.5	/experiments/knapen_AOT/AOT_stimuli/rescaled_final/0999_fw.mp4	0.0	127.2671411037445	
11	82.42873907089233	movie	1		243	9.0	2.5	/experiments/knapen_AOT/AOT_stimuli/rescaled_final/0999_fw.mp4	0.0	127.68366003036499	2.500443935394287
11	83.61249995231628	pulse	1	t		9.0	2.5	/experiments/knapen_AOT/AOT_stimuli/rescaled_final/0999_fw.mp4	0.0	128.86742091178894	
11	84.92918300628662	fix_post	2		12	9.0	2.5	/experiments/knapen_AOT/AOT_stimuli/rescaled_final/0999_fw.mp4	0.0	130.18410396575928	0.09989404678344727
12	85.02907705307007	fix_pre	0		120	10.0	2.5	/experiments/knapen_AOT/AOT_stimuli/rescaled_final/0616_rv.mp4	0.0	130.28399801254272	1.0002670288085938
12	85.21274209022522	pulse	0	t		10.0	2.5	/experiments/knapen_AOT/AOT_stimuli/rescaled_final/0616_rv.mp4	0.0	130.46766304969788	
12	86.02934408187866	movie	1		242	10.0	2.5	/experiments/knapen_AOT/AOT_stimuli/rescaled_final/0616_rv.mp4	0.0	131.28426504135132	2.5002710819244385
12	86.81290698051453	pulse	1	t		10.0	2.5	/experiments/knapen_AOT/AOT_stimuli/rescaled_final/0616_rv.mp4	0.0	132.06782793998718	
12	88.41394901275635	pulse	1	t		10.0	2.5	/experiments/knapen_AOT/AOT_stimuli/rescaled_final/0616_rv.mp4	0.0	133.668869972229	
12	88.5296151638031	fix_post	2		12	10.0	2.5	/experiments/knapen_AOT/AOT_stimuli/rescaled_final/0616_rv.mp4	0.0	133.78453612327576	0.10005784034729004
13	88.62967300415039	fix_pre	0		120	11.0	2.5	/experiments/knapen_AOT/AOT_stimuli/rescaled_final/0618_fw.mp4	0.0	133.88459396362305	1.000133991241455
13	89.62980699539185	movie	1		244	11.0	2.5	/experiments/knapen_AOT/AOT_stimuli/rescaled_final/0618_fw.mp4	0.0	134.8847279548645	2.4920120239257812
13	90.01389002799988	pulse	1	t		11.0	2.5	/experiments/knapen_AOT/AOT_stimuli/rescaled_final/0618_fw.mp4	0.0	135.26881098747253	
13	91.61370396614075	pulse	1	t		11.0	2.5	/experiments/knapen_AOT/AOT_stimuli/rescaled_final/0618_fw.mp4	0.0	136.8686249256134	
13	92.12181901931763	fix_post	2		12	11.0	2.5	/experiments/knapen_AOT/AOT_stimuli/rescaled_final/0618_fw.mp4	0.0	137.37673997879028	0.10007715225219727
14	92.22189617156982	fix_pre	0		120	12.0	2.5	/experiments/knapen_AOT/AOT_stimuli/rescaled_final/1289_fw.mp4	0.0	137.47681713104248	1.000065803527832
14	93.21394300460815	pulse	0	t		12.0	2.5	/experiments/knapen_AOT/AOT_stimuli/rescaled_final/1289_fw.mp4	0.0	138.4688639640808	
14	93.22196197509766	movie	1		243	12.0	2.5	/experiments/knapen_AOT/AOT_stimuli/rescaled_final/1289_fw.mp4	0.0	138.4768829345703	2.5087761878967285
14	94.81527805328369	pulse	1	t		12.0	2.5	/experiments/knapen_AOT/AOT_stimuli/rescaled_final/1289_fw.mp4	0.0	140.07019901275635	
14	95.73073816299438	fix_post	2		12	12.0	2.5	/experiments/knapen_AOT/AOT_stimuli/rescaled_final/1289_fw.mp4	0.0	140.98565912246704	0.10003280639648438
15	95.83077096939087	fix_pre	0		120	13.0	2.5	blank	1.0	141.08569192886353	1.0001440048217773
15	96.41429710388184	pulse	0	t		13.0	2.5	blank	1.0	141.6692180633545	
15	96.83091497421265	movie	1		297	13.0	2.5	blank	1.0	142.0858359336853	2.5003230571746826
15	98.01462006568909	pulse	1	t		13.0	2.5	blank	1.0	143.26954102516174	
15	99.33123803138733	fix_post	2		12	13.0	2.5	blank	1.0	144.58615899085999	0.10000801086425781
16	99.43124604225159	fix_pre	0		120	14.0	2.5	/experiments/knapen_AOT/AOT_stimuli/rescaled_final/2081_rv.mp4	0.0	144.68616700172424	1.0001909732818604
16	99.61491894721985	pulse	0	t		14.0	2.5	/experiments/knapen_AOT/AOT_stimuli/rescaled_final/2081_rv.mp4	0.0	144.8698399066925	
16	100.43143701553345	movie	1		243	14.0	2.5	/experiments/knapen_AOT/AOT_stimuli/rescaled_final/2081_rv.mp4	0.0	145.6863579750061	2.500563144683838
16	101.21512699127197	pulse	1	t		14.0	2.5	/experiments/knapen_AOT/AOT_stimuli/rescaled_final/2081_rv.mp4	0.0	146.47004795074463	
16	102.81520700454712	pulse	1	t		14.0	2.5	/experiments/knapen_AOT/AOT_stimuli/rescaled_final/2081_rv.mp4	0.0	148.07012796401978	
16	102.93200016021729	fix_post	2		12	14.0	2.5	/experiments/knapen_AOT/AOT_stimuli/rescaled_final/2081_rv.mp4	0.0	148.18692111968994	0.09982585906982422
17	103.03182601928711	fix_pre	0		120	15.0	2.5	/experiments/knapen_AOT/AOT_stimuli/rescaled_final/2165_rv.mp4	0.0	148.28674697875977	1.0001449584960938
17	104.0319709777832	movie	1		241	15.0	2.5	/experiments/knapen_AOT/AOT_stimuli/rescaled_final/2165_rv.mp4	0.0	149.28689193725586	2.492093086242676
17	104.41608214378357	pulse	1	t		15.0	2.5	/experiments/knapen_AOT/AOT_stimuli/rescaled_final/2165_rv.mp4	0.0	149.67100310325623	
17	106.0083589553833	pulse	1	t		15.0	2.5	/experiments/knapen_AOT/AOT_stimuli/rescaled_final/2165_rv.mp4	0.0	151.26327991485596	
17	106.52406406402588	fix_post	2		12	15.0	2.5	/experiments/knapen_AOT/AOT_stimuli/rescaled_final/2165_rv.mp4	0.0	151.77898502349854	0.09990692138671875
18	106.6239709854126	fix_pre	0		120	16.0	2.5	/experiments/knapen_AOT/AOT_stimuli/rescaled_final/1749_fw.mp4	0.0	151.87889194488525	1.0001871585845947
18	107.60854911804199	pulse	0	t		16.0	2.5	/experiments/knapen_AOT/AOT_stimuli/rescaled_final/1749_fw.mp4	0.0	152.86347007751465	
18	107.62415814399719	movie	1		243	16.0	2.5	/experiments/knapen_AOT/AOT_stimuli/rescaled_final/1749_fw.mp4	0.0	152.87907910346985	2.5087878704071045
18	109.216717004776	pulse	1	t		16.0	2.5	/experiments/knapen_AOT/AOT_stimuli/rescaled_final/1749_fw.mp4	0.0	154.47163796424866	
18	110.1329460144043	fix_post	2		12	16.0	2.5	/experiments/knapen_AOT/AOT_stimuli/rescaled_final/1749_fw.mp4	0.0	155.38786697387695	0.0999751091003418
19	110.23292112350464	fix_pre	0		120	17.0	2.5	/experiments/knapen_AOT/AOT_stimuli/rescaled_final/1484_fw.mp4	0.0	155.4878420829773	1.0001208782196045
19	110.80895900726318	pulse	0	t		17.0	2.5	/experiments/knapen_AOT/AOT_stimuli/rescaled_final/1484_fw.mp4	0.0	156.06387996673584	
19	111.23304200172424	movie	1		242	17.0	2.5	/experiments/knapen_AOT/AOT_stimuli/rescaled_final/1484_fw.mp4	0.0	156.4879629611969	2.5004780292510986
19	112.40904808044434	pulse	1	t		17.0	2.5	/experiments/knapen_AOT/AOT_stimuli/rescaled_final/1484_fw.mp4	0.0	157.663969039917	
19	113.73352003097534	fix_post	2		12	17.0	2.5	/experiments/knapen_AOT/AOT_stimuli/rescaled_final/1484_fw.mp4	0.0	158.988440990448	0.09993410110473633
20	113.83345413208008	fix_pre	0		120	18.0	2.5	/experiments/knapen_AOT/AOT_stimuli/rescaled_final/1703_fw.mp4	0.0	159.08837509155273	1.000126838684082
20	114.00863695144653	pulse	0	t		18.0	2.5	/experiments/knapen_AOT/AOT_stimuli/rescaled_final/1703_fw.mp4	0.0	159.2635579109192	
20	114.83358097076416	movie	1		242	18.0	2.5	/experiments/knapen_AOT/AOT_stimuli/rescaled_final/1703_fw.mp4	0.0	160.08850193023682	2.5005321502685547
20	115.60882306098938	pulse	1	t		18.0	2.5	/experiments/knapen_AOT/AOT_stimuli/rescaled_final/1703_fw.mp4	0.0	160.86374402046204	
20	117.20906710624695	pulse	1	t		18.0	2.5	/experiments/knapen_AOT/AOT_stimuli/rescaled_final/1703_fw.mp4	0.0	162.4639880657196	
20	117.33411312103271	fix_post	2		12	18.0	2.5	/experiments/knapen_AOT/AOT_stimuli/rescaled_final/1703_fw.mp4	0.0	162.58903408050537	0.09984803199768066
21	117.4339611530304	fix_pre	0		120	19.0	2.5	/experiments/knapen_AOT/AOT_stimuli/rescaled_final/0614_rv.mp4	0.0	162.68888211250305	1.0001709461212158
21	118.43413209915161	movie	1		242	19.0	2.5	/experiments/knapen_AOT/AOT_stimuli/rescaled_final/0614_rv.mp4	0.0	163.68905305862427	2.4920730590820312
21	118.80932402610779	pulse	1	t		19.0	2.5	/experiments/knapen_AOT/AOT_stimuli/rescaled_final/0614_rv.mp4	0.0	164.06424498558044	
21	120.40967011451721	pulse	1	t		19.0	2.5	/experiments/knapen_AOT/AOT_stimuli/rescaled_final/0614_rv.mp4	0.0	165.66459107398987	
21	120.92620515823364	fix_post	2		12	19.0	2.5	/experiments/knapen_AOT/AOT_stimuli/rescaled_final/0614_rv.mp4	0.0	166.1811261177063	0.09995698928833008
22	121.02616214752197	fix_pre	0		119	20.0	2.5	/experiments/knapen_AOT/AOT_stimuli/rescaled_final/0859_rv.mp4	0.0	166.28108310699463	0.991786003112793
22	122.00986194610596	pulse	0	t		20.0	2.5	/experiments/knapen_AOT/AOT_stimuli/rescaled_final/0859_rv.mp4	0.0	167.2647829055786	
22	122.01794815063477	movie	1		243	20.0	2.5	/experiments/knapen_AOT/AOT_stimuli/rescaled_final/0859_rv.mp4	0.0	167.27286911010742	2.5088109970092773
22	123.61076712608337	pulse	1	t		20.0	2.5	/experiments/knapen_AOT/AOT_stimuli/rescaled_final/0859_rv.mp4	0.0	168.86568808555603	
22	124.52675914764404	fix_post	2		12	20.0	2.5	/experiments/knapen_AOT/AOT_stimuli/rescaled_final/0859_rv.mp4	0.0	169.7816801071167	0.1000509262084961
23	124.62681007385254	fix_pre	0		120	21.0	2.5	blank	1.0	169.8817310333252	1.0000410079956055
23	125.21026611328125	pulse	0	t		21.0	2.5	blank	1.0	170.4651870727539	
23	125.62685108184814	movie	1		300	21.0	2.5	blank	1.0	170.8817720413208	2.5003550052642822
23	126.81056499481201	pulse	1	t		21.0	2.5	blank	1.0	172.06548595428467	
23	128.12720608711243	fix_post	2		12	21.0	2.5	blank	1.0	173.38212704658508	0.1000368595123291
24	128.22724294662476	fix_pre	0		120	22.0	2.5	/experiments/knapen_AOT/AOT_stimuli/rescaled_final/0565_rv.mp4	0.0	173.4821639060974	1.0001320838928223
24	128.41084909439087	pulse	0	t		22.0	2.5	/experiments/knapen_AOT/AOT_stimuli/rescaled_final/0565_rv.mp4	0.0	173.66577005386353	
24	129.22737503051758	movie	1		242	22.0	2.5	/experiments/knapen_AOT/AOT_stimuli/rescaled_final/0565_rv.mp4	0.0	174.48229598999023	2.5006120204925537
24	130.01101899147034	pulse	1	t		22.0	2.5	/experiments/knapen_AOT/AOT_stimuli/rescaled_final/0565_rv.mp4	0.0	175.265939950943	
24	131.61185908317566	pulse	1	t		22.0	2.5	/experiments/knapen_AOT/AOT_stimuli/rescaled_final/0565_rv.mp4	0.0	176.86678004264832	
24	131.72798705101013	fix_post	2		12	22.0	2.5	/experiments/knapen_AOT/AOT_stimuli/rescaled_final/0565_rv.mp4	0.0	176.9829080104828	0.09975194931030273
25	131.82773900032043	fix_pre	0		120	23.0	2.5	/experiments/knapen_AOT/AOT_stimuli/rescaled_final/0962_fw.mp4	0.0	177.0826599597931	1.0002379417419434
25	132.82797694206238	movie	1		243	23.0	2.5	/experiments/knapen_AOT/AOT_stimuli/rescaled_final/0962_fw.mp4	0.0	178.08289790153503	2.492018222808838
25	133.21286010742188	pulse	1	t		23.0	2.5	/experiments/knapen_AOT/AOT_stimuli/rescaled_final/0962_fw.mp4	0.0	178.46778106689453	
25	134.8117880821228	pulse	1	t		23.0	2.5	/experiments/knapen_AOT/AOT_stimuli/rescaled_final/0962_fw.mp4	0.0	180.06670904159546	
25	135.31999516487122	fix_post	2		12	23.0	2.5	/experiments/knapen_AOT/AOT_stimuli/rescaled_final/0962_fw.mp4	0.0	180.57491612434387	0.10003495216369629
26	135.4200301170349	fix_pre	0		120	24.0	2.5	/experiments/knapen_AOT/AOT_stimuli/rescaled_final/1915_fw.mp4	0.0	180.67495107650757	1.000058889389038
26	136.41196393966675	pulse	0	t		24.0	2.5	/experiments/knapen_AOT/AOT_stimuli/rescaled_final/1915_fw.mp4	0.0	181.6668848991394	
26	136.42008900642395	movie	1		243	24.0	2.5	/experiments/knapen_AOT/AOT_stimuli/rescaled_final/1915_fw.mp4	0.0	181.6750099658966	2.5087890625
26	138.0132839679718	pulse	1	t		24.0	2.5	/experiments/knapen_AOT/AOT_stimuli/rescaled_final/1915_fw.mp4	0.0	183.26820492744446	
26	138.92887806892395	fix_post	2		12	24.0	2.5	/experiments/knapen_AOT/AOT_stimuli/rescaled_final/1915_fw.mp4	0.0	184.1837990283966	0.10000491142272949
27	139.02888298034668	fix_pre	0		120	25.0	2.5	/experiments/knapen_AOT/AOT_stimuli/rescaled_final/1924_rv.mp4	0.0	184.28380393981934	1.0001780986785889
27	139.6124370098114	pulse	0	t		25.0	2.5	/experiments/knapen_AOT/AOT_stimuli/rescaled_final/1924_rv.mp4	0.0	184.86735796928406	
27	140.02906107902527	movie	1		243	25.0	2.5	/experiments/knapen_AOT/AOT_stimuli/rescaled_final/1924_rv.mp4	0.0	185.28398203849792	2.500464916229248
27	141.21274614334106	pulse	1	t		25.0	2.5	/experiments/knapen_AOT/AOT_stimuli/rescaled_final/1924_rv.mp4	0.0	186.46766710281372	
27	142.52952599525452	fix_post	2		12	25.0	2.5	/experiments/knapen_AOT/AOT_stimuli/rescaled_final/1924_rv.mp4	0.0	187.78444695472717	0.09989213943481445
28	142.62941813468933	fix_pre	0		120	26.0	2.5	/experiments/knapen_AOT/AOT_stimuli/rescaled_final/1653_fw.mp4	0.0	187.884339094162	1.0000758171081543
28	142.81295704841614	pulse	0	t		26.0	2.5	/experiments/knapen_AOT/AOT_stimuli/rescaled_final/1653_fw.mp4	0.0	188.0678780078888	
28	143.62949395179749	movie	1		242	26.0	2.5	/experiments/knapen_AOT/AOT_stimuli/rescaled_final/1653_fw.mp4	0.0	188.88441491127014	2.5005881786346436
28	144.4131989479065	pulse	1	t		26.0	2.5	/experiments/knapen_AOT/AOT_stimuli/rescaled_final/1653_fw.mp4	0.0	189.66811990737915	
28	146.01324105262756	pulse	1	t		26.0	2.5	/experiments/knapen_AOT/AOT_stimuli/rescaled_final/1653_fw.mp4	0.0	191.26816201210022	
28	146.13008213043213	fix_post	2		12	26.0	2.5	/experiments/knapen_AOT/AOT_stimuli/rescaled_final/1653_fw.mp4	0.0	191.38500308990479	0.09987187385559082
29	146.22995400428772	fix_pre	0		119	27.0	2.5	/experiments/knapen_AOT/AOT_stimuli/rescaled_final/1653_rv.mp4	0.0	191.48487496376038	0.9917540550231934
29	147.2217080593109	movie	1		242	27.0	2.5	/experiments/knapen_AOT/AOT_stimuli/rescaled_final/1653_rv.mp4	0.0	192.47662901878357	2.5005691051483154
29	147.61385107040405	pulse	1	t		27.0	2.5	/experiments/knapen_AOT/AOT_stimuli/rescaled_final/1653_rv.mp4	0.0	192.8687720298767	
29	149.21393203735352	pulse	1	t		27.0	2.5	/experiments/knapen_AOT/AOT_stimuli/rescaled_final/1653_rv.mp4	0.0	194.46885299682617	
29	149.72227716445923	fix_post	2		12	27.0	2.5	/experiments/knapen_AOT/AOT_stimuli/rescaled_final/1653_rv.mp4	0.0	194.97719812393188	0.09981083869934082
30	149.82208800315857	fix_pre	0		120	28.0	2.5	blank	1.0	195.07700896263123	1.0002870559692383
30	150.8141369819641	pulse	0	t		28.0	2.5	blank	1.0	196.06905794143677	
30	150.8223750591278	movie	1		301	28.0	2.5	blank	1.0	196.07729601860046	2.508604049682617
30	152.41437005996704	pulse	1	t		28.0	2.5	blank	1.0	197.6692910194397	
30	153.33097910881042	fix_post	2		12	28.0	2.5	blank	1.0	198.58590006828308	0.1000058650970459
31	153.43098497390747	fix_pre	0		120	29.0	2.5	/experiments/knapen_AOT/AOT_stimuli/rescaled_final/2083_fw.mp4	0.0	198.68590593338013	1.0001471042633057
31	154.01472306251526	pulse	0	t		29.0	2.5	/experiments/knapen_AOT/AOT_stimuli/rescaled_final/2083_fw.mp4	0.0	199.26964402198792	
31	154.43113207817078	movie	1		242	29.0	2.5	/experiments/knapen_AOT/AOT_stimuli/rescaled_final/2083_fw.mp4	0.0	199.68605303764343	2.5006020069122314
31	155.61490416526794	pulse	1	t		29.0	2.5	/experiments/knapen_AOT/AOT_stimuli/rescaled_final/2083_fw.mp4	0.0	200.8698251247406	
31	156.931734085083	fix_post	2		12	29.0	2.5	/experiments/knapen_AOT/AOT_stimuli/rescaled_final/2083_fw.mp4	0.0	202.18665504455566	0.09982585906982422
32	157.03155994415283	fix_pre	0		120	30.0	2.5	/experiments/knapen_AOT/AOT_stimuli/rescaled_final/2079_fw.mp4	0.0	202.2864809036255	1.0001652240753174
32	157.21503806114197	pulse	0	t		30.0	2.5	/experiments/knapen_AOT/AOT_stimuli/rescaled_final/2079_fw.mp4	0.0	202.46995902061462	
32	158.03172516822815	movie	1		243	30.0	2.5	/experiments/knapen_AOT/AOT_stimuli/rescaled_final/2079_fw.mp4	0.0	203.2866461277008	2.500377893447876
32	158.8152871131897	pulse	1	t		30.0	2.5	/experiments/knapen_AOT/AOT_stimuli/rescaled_final/2079_fw.mp4	0.0	204.07020807266235	
32	160.41545701026917	pulse	1	t		30.0	2.5	/experiments/knapen_AOT/AOT_stimuli/rescaled_final/2079_fw.mp4	0.0	205.67037796974182	
32	160.53210306167603	fix_post	2		12	30.0	2.5	/experiments/knapen_AOT/AOT_stimuli/rescaled_final/2079_fw.mp4	0.0	205.78702402114868	0.09996294975280762
33	160.63206601142883	fix_pre	0		119	31.0	2.5	/experiments/knapen_AOT/AOT_stimuli/rescaled_final/0098_fw.mp4	0.0	205.8869869709015	0.991858959197998
33	161.62392497062683	movie	1		241	31.0	2.5	/experiments/knapen_AOT/AOT_stimuli/rescaled_final/0098_fw.mp4	0.0	206.8788459300995	2.500415086746216
33	162.01595902442932	pulse	1	t		31.0	2.5	/experiments/knapen_AOT/AOT_stimuli/rescaled_final/0098_fw.mp4	0.0	207.27087998390198	
33	163.61604809761047	pulse	1	t		31.0	2.5	/experiments/knapen_AOT/AOT_stimuli/rescaled_final/0098_fw.mp4	0.0	208.87096905708313	
33	164.12434005737305	fix_post	2		12	31.0	2.5	/experiments/knapen_AOT/AOT_stimuli/rescaled_final/0098_fw.mp4	0.0	209.3792610168457	0.09999299049377441
34	164.22433304786682	fix_pre	0		120	32.0	2.5	/experiments/knapen_AOT/AOT_stimuli/rescaled_final/0371_fw.mp4	0.0	209.47925400733948	1.000114917755127
34	165.21626710891724	pulse	0	t		32.0	2.5	/experiments/knapen_AOT/AOT_stimuli/rescaled_final/0371_fw.mp4	0.0	210.4711880683899	
34	165.22444796562195	movie	1		244	32.0	2.5	/experiments/knapen_AOT/AOT_stimuli/rescaled_final/0371_fw.mp4	0.0	210.4793689250946	2.508695125579834
34	166.81782793998718	pulse	1	t		32.0	2.5	/experiments/knapen_AOT/AOT_stimuli/rescaled_final/0371_fw.mp4	0.0	212.07274889945984	
34	167.73314309120178	fix_post	2		12	32.0	2.5	/experiments/knapen_AOT/AOT_stimuli/rescaled_final/0371_fw.mp4	0.0	212.98806405067444	0.10010385513305664
35	167.83324694633484	fix_pre	0		120	33.0	2.5	/experiments/knapen_AOT/AOT_stimuli/rescaled_final/1985_rv.mp4	0.0	213.0881679058075	1.0000500679016113
35	168.40939712524414	pulse	0	t		33.0	2.5	/experiments/knapen_AOT/AOT_stimuli/rescaled_final/1985_rv.mp4	0.0	213.6643180847168	
35	168.83329701423645	movie	1		244	33.0	2.5	/experiments/knapen_AOT/AOT_stimuli/rescaled_final/1985_rv.mp4	0.0	214.0882179737091	2.5003299713134766
35	170.00980496406555	pulse	1	t		33.0	2.5	/experiments/knapen_AOT/AOT_stimuli/rescaled_final/1985_rv.mp4	0.0	215.2647259235382	
35	171.33362698554993	fix_post	2		12	33.0	2.5	/experiments/knapen_AOT/AOT_stimuli/rescaled_final/1985_rv.mp4	0.0	216.58854794502258	0.1001131534576416
36	171.43374013900757	fix_pre	0		120	34.0	2.5	blank	1.0	216.68866109848022	1.0000979900360107
36	171.60977506637573	pulse	0	t		34.0	2.5	blank	1.0	216.8646960258484	
36	172.43383812904358	movie	1		300	34.0	2.5	blank	1.0	217.68875908851624	2.5003719329833984
36	173.20999312400818	pulse	1	t		34.0	2.5	blank	1.0	218.46491408348083	
36	174.80924701690674	pulse	1	t		34.0	2.5	blank	1.0	220.0641679763794	
36	174.93421006202698	fix_post	2		12	34.0	2.5	blank	1.0	220.18913102149963	0.10001897811889648
37	175.03422904014587	fix_pre	0		119	35.0	2.5	/experiments/knapen_AOT/AOT_stimuli/rescaled_final/0135_rv.mp4	0.0	220.28914999961853	0.9917840957641602
37	176.02601313591003	movie	1		242	35.0	2.5	/experiments/knapen_AOT/AOT_stimuli/rescaled_final/0135_rv.mp4	0.0	221.2809340953827	2.5006778240203857
37	176.41012716293335	pulse	1	t		35.0	2.5	/experiments/knapen_AOT/AOT_stimuli/rescaled_final/0135_rv.mp4	0.0	221.665048122406	
37	178.009840965271	pulse	1	t		35.0	2.5	/experiments/knapen_AOT/AOT_stimuli/rescaled_final/0135_rv.mp4	0.0	223.26476192474365	
37	178.52669095993042	fix_post	2		12	35.0	2.5	/experiments/knapen_AOT/AOT_stimuli/rescaled_final/0135_rv.mp4	0.0	223.78161191940308	0.09981417655944824
38	178.62650513648987	fix_pre	0		119	36.0	2.5	/experiments/knapen_AOT/AOT_stimuli/rescaled_final/0070_rv.mp4	0.0	223.88142609596252	0.9917688369750977
38	179.610121011734	pulse	0	t		36.0	2.5	/experiments/knapen_AOT/AOT_stimuli/rescaled_final/0070_rv.mp4	0.0	224.86504197120667	
38	179.61827397346497	movie	1		245	36.0	2.5	/experiments/knapen_AOT/AOT_stimuli/rescaled_final/0070_rv.mp4	0.0	224.87319493293762	2.5086781978607178
38	181.2145619392395	pulse	1	t		36.0	2.5	/experiments/knapen_AOT/AOT_stimuli/rescaled_final/0070_rv.mp4	0.0	226.46948289871216	
38	182.12695217132568	fix_post	2		12	36.0	2.5	/experiments/knapen_AOT/AOT_stimuli/rescaled_final/0070_rv.mp4	0.0	227.38187313079834	0.09999394416809082
39	182.22694611549377	fix_pre	0		120	37.0	2.5	/experiments/knapen_AOT/AOT_stimuli/rescaled_final/0889_fw.mp4	0.0	227.48186707496643	1.0001699924468994
39	182.81056308746338	pulse	0	t		37.0	2.5	/experiments/knapen_AOT/AOT_stimuli/rescaled_final/0889_fw.mp4	0.0	228.06548404693604	
39	183.22711610794067	movie	1		242	37.0	2.5	/experiments/knapen_AOT/AOT_stimuli/rescaled_final/0889_fw.mp4	0.0	228.48203706741333	2.500627040863037
39	184.41086101531982	pulse	1	t		37.0	2.5	/experiments/knapen_AOT/AOT_stimuli/rescaled_final/0889_fw.mp4	0.0	229.66578197479248	
39	185.7277431488037	fix_post	2		12	37.0	2.5	/experiments/knapen_AOT/AOT_stimuli/rescaled_final/0889_fw.mp4	0.0	230.98266410827637	0.09975385665893555
40	185.82749700546265	fix_pre	0		120	38.0	2.5	/experiments/knapen_AOT/AOT_stimuli/rescaled_final/0125_rv.mp4	0.0	231.0824179649353	1.0001161098480225
40	186.0110011100769	pulse	0	t		38.0	2.5	/experiments/knapen_AOT/AOT_stimuli/rescaled_final/0125_rv.mp4	0.0	231.26592206954956	
40	186.82761311531067	movie	1		242	38.0	2.5	/experiments/knapen_AOT/AOT_stimuli/rescaled_final/0125_rv.mp4	0.0	232.08253407478333	2.5005109310150146
40	187.61125302314758	pulse	1	t		38.0	2.5	/experiments/knapen_AOT/AOT_stimuli/rescaled_final/0125_rv.mp4	0.0	232.86617398262024	
40	189.21143293380737	pulse	1	t		38.0	2.5	/experiments/knapen_AOT/AOT_stimuli/rescaled_final/0125_rv.mp4	0.0	234.46635389328003	
40	189.32812404632568	fix_post	2		12	38.0	2.5	/experiments/knapen_AOT/AOT_stimuli/rescaled_final/0125_rv.mp4	0.0	234.58304500579834	0.09988903999328613
41	189.42801308631897	fix_pre	0		119	39.0	2.5	/experiments/knapen_AOT/AOT_stimuli/rescaled_final/0340_rv.mp4	0.0	234.68293404579163	0.9918670654296875
41	190.41988015174866	movie	1		243	39.0	2.5	/experiments/knapen_AOT/AOT_stimuli/rescaled_final/0340_rv.mp4	0.0	235.6748011112213	2.5003139972686768
41	190.81194615364075	pulse	1	t		39.0	2.5	/experiments/knapen_AOT/AOT_stimuli/rescaled_final/0340_rv.mp4	0.0	236.0668671131134	
41	192.41202402114868	pulse	1	t		39.0	2.5	/experiments/knapen_AOT/AOT_stimuli/rescaled_final/0340_rv.mp4	0.0	237.66694498062134	
41	192.92019414901733	fix_post	2		12	39.0	2.5	/experiments/knapen_AOT/AOT_stimuli/rescaled_final/0340_rv.mp4	0.0	238.17511510849	0.10000801086425781
42	193.0202021598816	fix_pre	0		120	40.0	2.5	/experiments/knapen_AOT/AOT_stimuli/rescaled_final/1225_fw.mp4	0.0	238.27512311935425	1.000180959701538
42	194.01225996017456	pulse	0	t		40.0	2.5	/experiments/knapen_AOT/AOT_stimuli/rescaled_final/1225_fw.mp4	0.0	239.26718091964722	
42	194.02038311958313	movie	1		244	40.0	2.5	/experiments/knapen_AOT/AOT_stimuli/rescaled_final/1225_fw.mp4	0.0	239.2753040790558	2.5087380409240723
42	195.61329197883606	pulse	1	t		40.0	2.5	/experiments/knapen_AOT/AOT_stimuli/rescaled_final/1225_fw.mp4	0.0	240.86821293830872	
42	196.5291211605072	fix_post	2		12	40.0	2.5	/experiments/knapen_AOT/AOT_stimuli/rescaled_final/1225_fw.mp4	0.0	241.78404211997986	0.09998679161071777
43	196.62910795211792	fix_pre	0		120	41.0	2.5	/experiments/knapen_AOT/AOT_stimuli/rescaled_final/0400_rv.mp4	0.0	241.88402891159058	1.0002121925354004
43	197.21286702156067	pulse	0	t		41.0	2.5	/experiments/knapen_AOT/AOT_stimuli/rescaled_final/0400_rv.mp4	0.0	242.46778798103333	
43	197.62932014465332	movie	1		244	41.0	2.5	/experiments/knapen_AOT/AOT_stimuli/rescaled_final/0400_rv.mp4	0.0	242.88424110412598	2.5003387928009033
43	198.81316494941711	pulse	1	t		41.0	2.5	/experiments/knapen_AOT/AOT_stimuli/rescaled_final/0400_rv.mp4	0.0	244.06808590888977	
43	200.12965893745422	fix_post	2		12	41.0	2.5	/experiments/knapen_AOT/AOT_stimuli/rescaled_final/0400_rv.mp4	0.0	245.38457989692688	0.10004019737243652
44	200.22969913482666	fix_pre	0		120	42.0	2.5	blank	1.0	245.48462009429932	1.0001540184020996
44	200.41320705413818	pulse	0	t		42.0	2.5	blank	1.0	245.66812801361084	
44	201.22985315322876	movie	1		300	42.0	2.5	blank	1.0	246.48477411270142	2.5003089904785156
44	202.01337599754333	pulse	1	t		42.0	2.5	blank	1.0	247.268296957016	
44	203.613755941391	pulse	1	t		42.0	2.5	blank	1.0	248.86867690086365	
44	203.73016214370728	fix_post	2		12	42.0	2.5	blank	1.0	248.98508310317993	0.10000085830688477
45	203.83016300201416	fix_pre	0		120	43.0	2.5	/experiments/knapen_AOT/AOT_stimuli/rescaled_final/1130_rv.mp4	0.0	249.08508396148682	1.0001680850982666
45	204.83033108711243	movie	1		242	43.0	2.5	/experiments/knapen_AOT/AOT_stimuli/rescaled_final/1130_rv.mp4	0.0	250.08525204658508	2.492187023162842
45	205.2150890827179	pulse	1	t		43.0	2.5	/experiments/knapen_AOT/AOT_stimuli/rescaled_final/1130_rv.mp4	0.0	250.47001004219055	
45	206.8142421245575	pulse	1	t		43.0	2.5	/experiments/knapen_AOT/AOT_stimuli/rescaled_final/1130_rv.mp4	0.0	252.06916308403015	
45	207.32251811027527	fix_post	2		12	43.0	2.5	/experiments/knapen_AOT/AOT_stimuli/rescaled_final/1130_rv.mp4	0.0	252.57743906974792	0.09991884231567383
46	207.42243695259094	fix_pre	0		120	44.0	2.5	/experiments/knapen_AOT/AOT_stimuli/rescaled_final/1743_fw.mp4	0.0	252.6773579120636	1.0001649856567383
46	208.41436314582825	pulse	0	t		44.0	2.5	/experiments/knapen_AOT/AOT_stimuli/rescaled_final/1743_fw.mp4	0.0	253.6692841053009	
46	208.42260193824768	movie	1		243	44.0	2.5	/experiments/knapen_AOT/AOT_stimuli/rescaled_final/1743_fw.mp4	0.0	253.67752289772034	2.5087480545043945
46	210.0150430202484	pulse	1	t		44.0	2.5	/experiments/knapen_AOT/AOT_stimuli/rescaled_final/1743_fw.mp4	0.0	255.26996397972107	
46	210.93134999275208	fix_post	2		12	44.0	2.5	/experiments/knapen_AOT/AOT_stimuli/rescaled_final/1743_fw.mp4	0.0	256.18627095222473	0.09992408752441406
47	211.0312740802765	fix_pre	0		120	45.0	2.5	/experiments/knapen_AOT/AOT_stimuli/rescaled_final/1616_fw.mp4	0.0	256.28619503974915	1.0001800060272217
47	211.61488509178162	pulse	0	t		45.0	2.5	/experiments/knapen_AOT/AOT_stimuli/rescaled_final/1616_fw.mp4	0.0	256.8698060512543	
47	212.0314540863037	movie	1		242	45.0	2.5	/experiments/knapen_AOT/AOT_stimuli/rescaled_final/1616_fw.mp4	0.0	257.28637504577637	2.5005290508270264
47	213.2152979373932	pulse	1	t		45.0	2.5	/experiments/knapen_AOT/AOT_stimuli/rescaled_final/1616_fw.mp4	0.0	258.47021889686584	
47	214.53198313713074	fix_post	2		12	45.0	2.5	/experiments/knapen_AOT/AOT_stimuli/rescaled_final/1616_fw.mp4	0.0	259.7869040966034	0.0999000072479248
48	214.63188314437866	fix_pre	0		120	46.0	2.5	/experiments/knapen_AOT/AOT_stimuli/rescaled_final/0653_rv.mp4	0.0	259.8868041038513	1.0000948905944824
48	214.81533002853394	pulse	0	t		46.0	2.5	/experiments/knapen_AOT/AOT_stimuli/rescaled_final/0653_rv.mp4	0.0	260.0702509880066	
48	215.63197803497314	movie	1		242	46.0	2.5	/experiments/knapen_AOT/AOT_stimuli/rescaled_final/0653_rv.mp4	0.0	260.8868989944458	2.500504970550537
48	216.41562700271606	pulse	1	t		46.0	2.5	/experiments/knapen_AOT/AOT_stimuli/rescaled_final/0653_rv.mp4	0.0	261.6705479621887	
48	218.01668095588684	pulse	1	t		46.0	2.5	/experiments/knapen_AOT/AOT_stimuli/rescaled_final/0653_rv.mp4	0.0	263.2716019153595	
48	218.13248300552368	fix_post	2		12	46.0	2.5	/experiments/knapen_AOT/AOT_stimuli/rescaled_final/0653_rv.mp4	0.0	263.38740396499634	0.09990406036376953
49	218.23238706588745	fix_pre	0		120	47.0	2.5	/experiments/knapen_AOT/AOT_stimuli/rescaled_final/0616_fw.mp4	0.0	263.4873080253601	1.0001060962677002
49	219.23249316215515	movie	1		241	47.0	2.5	/experiments/knapen_AOT/AOT_stimuli/rescaled_final/0616_fw.mp4	0.0	264.4874141216278	2.4921858310699463
49	219.62080717086792	pulse	1	t		47.0	2.5	/experiments/knapen_AOT/AOT_stimuli/rescaled_final/0616_fw.mp4	0.0	264.8757281303406	
49	221.20902514457703	pulse	1	t		47.0	2.5	/experiments/knapen_AOT/AOT_stimuli/rescaled_final/0616_fw.mp4	0.0	266.4639461040497	
49	221.7246789932251	fix_post	2		12	47.0	2.5	/experiments/knapen_AOT/AOT_stimuli/rescaled_final/0616_fw.mp4	0.0	266.97959995269775	0.09984302520751953
50	221.82452201843262	fix_pre	0		120	48.0	2.5	/experiments/knapen_AOT/AOT_stimuli/rescaled_final/0536_fw.mp4	0.0	267.0794429779053	1.000270128250122
50	222.80895805358887	pulse	0	t		48.0	2.5	/experiments/knapen_AOT/AOT_stimuli/rescaled_final/0536_fw.mp4	0.0	268.0638790130615	
50	222.82479214668274	movie	1		243	48.0	2.5	/experiments/knapen_AOT/AOT_stimuli/rescaled_final/0536_fw.mp4	0.0	268.0797131061554	2.517155885696411
50	224.41813611984253	pulse	1	t		48.0	2.5	/experiments/knapen_AOT/AOT_stimuli/rescaled_final/0536_fw.mp4	0.0	269.6730570793152	
50	225.34194803237915	fix_post	2		11	48.0	2.5	/experiments/knapen_AOT/AOT_stimuli/rescaled_final/0536_fw.mp4	0.0	270.5968689918518	0.09150195121765137
51	225.4334499835968	fix_pre	0		120	49.0	2.5	blank	1.0	270.68837094306946	1.0001261234283447
51	226.00940203666687	pulse	0	t		49.0	2.5	blank	1.0	271.2643229961395	
51	226.43357610702515	movie	1		300	49.0	2.5	blank	1.0	271.6884970664978	2.5003769397735596
51	227.6090121269226	pulse	1	t		49.0	2.5	blank	1.0	272.86393308639526	
51	228.9339530467987	fix_post	2		12	49.0	2.5	blank	1.0	274.18887400627136	0.1000220775604248
52	229.03397512435913	fix_pre	0		120	50.0	2.5	/experiments/knapen_AOT/AOT_stimuli/rescaled_final/1078_rv.mp4	0.0	274.2888960838318	1.0001239776611328
52	229.20911407470703	pulse	0	t		50.0	2.5	/experiments/knapen_AOT/AOT_stimuli/rescaled_final/1078_rv.mp4	0.0	274.4640350341797	
52	230.03409910202026	movie	1		242	50.0	2.5	/experiments/knapen_AOT/AOT_stimuli/rescaled_final/1078_rv.mp4	0.0	275.2890200614929	2.500633955001831
52	230.80939316749573	pulse	1	t		50.0	2.5	/experiments/knapen_AOT/AOT_stimuli/rescaled_final/1078_rv.mp4	0.0	276.0643141269684	
52	232.40974497795105	pulse	1	t		50.0	2.5	/experiments/knapen_AOT/AOT_stimuli/rescaled_final/1078_rv.mp4	0.0	277.6646659374237	
52	232.5347330570221	fix_post	2		12	50.0	2.5	/experiments/knapen_AOT/AOT_stimuli/rescaled_final/1078_rv.mp4	0.0	277.78965401649475	0.09979104995727539
53	232.63452410697937	fix_pre	0		120	51.0	2.5	/experiments/knapen_AOT/AOT_stimuli/rescaled_final/1529_rv.mp4	0.0	277.889445066452	1.0000898838043213
53	233.6346139907837	movie	1		241	51.0	2.5	/experiments/knapen_AOT/AOT_stimuli/rescaled_final/1529_rv.mp4	0.0	278.88953495025635	2.4921581745147705
53	234.00993394851685	pulse	1	t		51.0	2.5	/experiments/knapen_AOT/AOT_stimuli/rescaled_final/1529_rv.mp4	0.0	279.2648549079895	
53	235.6102409362793	pulse	1	t		51.0	2.5	/experiments/knapen_AOT/AOT_stimuli/rescaled_final/1529_rv.mp4	0.0	280.86516189575195	
53	236.12677216529846	fix_post	2		12	51.0	2.5	/experiments/knapen_AOT/AOT_stimuli/rescaled_final/1529_rv.mp4	0.0	281.3816931247711	0.0998988151550293
54	236.2266709804535	fix_pre	0		119	52.0	2.5	/experiments/knapen_AOT/AOT_stimuli/rescaled_final/1810_rv.mp4	0.0	281.48159193992615	0.9918351173400879
54	237.2103271484375	pulse	0	t		52.0	2.5	/experiments/knapen_AOT/AOT_stimuli/rescaled_final/1810_rv.mp4	0.0	282.46524810791016	
54	237.21850609779358	movie	1		243	52.0	2.5	/experiments/knapen_AOT/AOT_stimuli/rescaled_final/1810_rv.mp4	0.0	282.47342705726624	2.5087828636169434
54	238.81132316589355	pulse	1	t		52.0	2.5	/experiments/knapen_AOT/AOT_stimuli/rescaled_final/1810_rv.mp4	0.0	284.0662441253662	
54	239.72728896141052	fix_post	2		12	52.0	2.5	/experiments/knapen_AOT/AOT_stimuli/rescaled_final/1810_rv.mp4	0.0	284.9822099208832	0.09992313385009766
55	239.82721209526062	fix_pre	0		120	53.0	2.5	/experiments/knapen_AOT/AOT_stimuli/rescaled_final/0784_fw.mp4	0.0	285.0821330547333	1.000187873840332
55	240.41088199615479	pulse	0	t		53.0	2.5	/experiments/knapen_AOT/AOT_stimuli/rescaled_final/0784_fw.mp4	0.0	285.66580295562744	
55	240.82739996910095	movie	1		243	53.0	2.5	/experiments/knapen_AOT/AOT_stimuli/rescaled_final/0784_fw.mp4	0.0	286.0823209285736	2.500554084777832
55	242.01113104820251	pulse	1	t		53.0	2.5	/experiments/knapen_AOT/AOT_stimuli/rescaled_final/0784_fw.mp4	0.0	287.26605200767517	
55	243.32795405387878	fix_post	2		12	53.0	2.5	/experiments/knapen_AOT/AOT_stimuli/rescaled_final/0784_fw.mp4	0.0	288.58287501335144	0.09981989860534668
56	243.42777395248413	fix_pre	0		120	54.0	2.5	blank	1.0	288.6826949119568	1.0001649856567383
56	243.61138606071472	pulse	0	t		54.0	2.5	blank	1.0	288.8663070201874	
56	244.42793893814087	movie	1		300	54.0	2.5	blank	1.0	289.6828598976135	2.5004281997680664
56	245.21164393424988	pulse	1	t		54.0	2.5	blank	1.0	290.46656489372253	
56	246.8118860721588	pulse	1	t		54.0	2.5	blank	1.0	292.06680703163147	
56	246.92836713790894	fix_post	2		12	54.0	2.5	blank	1.0	292.1832880973816	0.09995889663696289
57	247.0283260345459	fix_pre	0		120	55.0	2.5	/experiments/knapen_AOT/AOT_stimuli/rescaled_final/0011_fw.mp4	0.0	292.28324699401855	1.0001060962677002
57	248.0284321308136	movie	1		242	55.0	2.5	/experiments/knapen_AOT/AOT_stimuli/rescaled_final/0011_fw.mp4	0.0	293.28335309028625	2.4921069145202637
57	248.4127790927887	pulse	1	t		55.0	2.5	/experiments/knapen_AOT/AOT_stimuli/rescaled_final/0011_fw.mp4	0.0	293.66770005226135	
57	250.01225900650024	pulse	1	t		55.0	2.5	/experiments/knapen_AOT/AOT_stimuli/rescaled_final/0011_fw.mp4	0.0	295.2671799659729	
57	250.52053904533386	fix_post	2		12	55.0	2.5	/experiments/knapen_AOT/AOT_stimuli/rescaled_final/0011_fw.mp4	0.0	295.7754600048065	0.09997701644897461
58	250.62051606178284	fix_pre	0		120	56.0	2.5	/experiments/knapen_AOT/AOT_stimuli/rescaled_final/1775_rv.mp4	0.0	295.8754370212555	1.0001320838928223
58	251.6126091480255	pulse	0	t		56.0	2.5	/experiments/knapen_AOT/AOT_stimuli/rescaled_final/1775_rv.mp4	0.0	296.86753010749817	
58	251.62064814567566	movie	1		244	56.0	2.5	/experiments/knapen_AOT/AOT_stimuli/rescaled_final/1775_rv.mp4	0.0	296.8755691051483	2.508729934692383
58	253.21331906318665	pulse	1	t		56.0	2.5	/experiments/knapen_AOT/AOT_stimuli/rescaled_final/1775_rv.mp4	0.0	298.4682400226593	
58	254.12937808036804	fix_post	2		12	56.0	2.5	/experiments/knapen_AOT/AOT_stimuli/rescaled_final/1775_rv.mp4	0.0	299.3842990398407	0.10002994537353516
59	254.22940802574158	fix_pre	0		120	57.0	2.5	/experiments/knapen_AOT/AOT_stimuli/rescaled_final/0229_fw.mp4	0.0	299.48432898521423	1.000133991241455
59	254.81305694580078	pulse	0	t		57.0	2.5	/experiments/knapen_AOT/AOT_stimuli/rescaled_final/0229_fw.mp4	0.0	300.06797790527344	
59	255.22954201698303	movie	1		242	57.0	2.5	/experiments/knapen_AOT/AOT_stimuli/rescaled_final/0229_fw.mp4	0.0	300.4844629764557	2.5005390644073486
59	256.41328501701355	pulse	1	t		57.0	2.5	/experiments/knapen_AOT/AOT_stimuli/rescaled_final/0229_fw.mp4	0.0	301.6682059764862	
59	257.7300810813904	fix_post	2		12	57.0	2.5	/experiments/knapen_AOT/AOT_stimuli/rescaled_final/0229_fw.mp4	0.0	302.98500204086304	0.0998530387878418
60	257.8299341201782	fix_pre	0		120	58.0	2.5	/experiments/knapen_AOT/AOT_stimuli/rescaled_final/0002_rv.mp4	0.0	303.0848550796509	1.000133991241455
60	258.01362013816833	pulse	0	t		58.0	2.5	/experiments/knapen_AOT/AOT_stimuli/rescaled_final/0002_rv.mp4	0.0	303.268541097641	
60	258.8300681114197	movie	1		242	58.0	2.5	/experiments/knapen_AOT/AOT_stimuli/rescaled_final/0002_rv.mp4	0.0	304.08498907089233	2.500577926635742
60	259.61379313468933	pulse	1	t		58.0	2.5	/experiments/knapen_AOT/AOT_stimuli/rescaled_final/0002_rv.mp4	0.0	304.868714094162	
60	261.21395111083984	pulse	1	t		58.0	2.5	/experiments/knapen_AOT/AOT_stimuli/rescaled_final/0002_rv.mp4	0.0	306.4688720703125	
60	261.3306460380554	fix_post	2		12	58.0	2.5	/experiments/knapen_AOT/AOT_stimuli/rescaled_final/0002_rv.mp4	0.0	306.5855669975281	0.09987211227416992
61	261.4305181503296	fix_pre	0		120	59.0	2.5	/experiments/knapen_AOT/AOT_stimuli/rescaled_final/2053_rv.mp4	0.0	306.68543910980225	1.0000858306884766
61	262.43060398101807	movie	1		242	59.0	2.5	/experiments/knapen_AOT/AOT_stimuli/rescaled_final/2053_rv.mp4	0.0	307.6855249404907	2.492248058319092
61	262.8147621154785	pulse	1	t		59.0	2.5	/experiments/knapen_AOT/AOT_stimuli/rescaled_final/2053_rv.mp4	0.0	308.0696830749512	
61	264.4144971370697	pulse	1	t		59.0	2.5	/experiments/knapen_AOT/AOT_stimuli/rescaled_final/2053_rv.mp4	0.0	309.66941809654236	
61	264.92285203933716	fix_post	2		12	59.0	2.5	/experiments/knapen_AOT/AOT_stimuli/rescaled_final/2053_rv.mp4	0.0	310.1777729988098	0.09984493255615234
62	265.0226969718933	fix_pre	0		120	60.0	2.5	/experiments/knapen_AOT/AOT_stimuli/rescaled_final/0565_rv.mp4	0.0	310.27761793136597	1.0001370906829834
62	266.0146520137787	pulse	0	t		60.0	2.5	/experiments/knapen_AOT/AOT_stimuli/rescaled_final/0565_rv.mp4	0.0	311.26957297325134	
62	266.0228340625763	movie	1		243	60.0	2.5	/experiments/knapen_AOT/AOT_stimuli/rescaled_final/0565_rv.mp4	0.0	311.27775502204895	2.5087380409240723
62	267.61563897132874	pulse	1	t		60.0	2.5	/experiments/knapen_AOT/AOT_stimuli/rescaled_final/0565_rv.mp4	0.0	312.8705599308014	
62	268.53157210350037	fix_post	2		12	60.0	2.5	/experiments/knapen_AOT/AOT_stimuli/rescaled_final/0565_rv.mp4	0.0	313.786493062973	0.09999895095825195
63	268.6315710544586	fix_pre	0		120	61.0	2.5	/experiments/knapen_AOT/AOT_stimuli/rescaled_final/0695_fw.mp4	0.0	313.8864920139313	1.0001270771026611
63	269.2151370048523	pulse	0	t		61.0	2.5	/experiments/knapen_AOT/AOT_stimuli/rescaled_final/0695_fw.mp4	0.0	314.47005796432495	
63	269.6316981315613	movie	1		243	61.0	2.5	/experiments/knapen_AOT/AOT_stimuli/rescaled_final/0695_fw.mp4	0.0	314.88661909103394	2.5004239082336426
63	270.8154230117798	pulse	1	t		61.0	2.5	/experiments/knapen_AOT/AOT_stimuli/rescaled_final/0695_fw.mp4	0.0	316.07034397125244	
63	272.1321220397949	fix_post	2		12	61.0	2.5	/experiments/knapen_AOT/AOT_stimuli/rescaled_final/0695_fw.mp4	0.0	317.3870429992676	0.09992504119873047
64	272.23204708099365	fix_pre	0		120	62.0	2.5	/experiments/knapen_AOT/AOT_stimuli/rescaled_final/0461_fw.mp4	0.0	317.4869680404663	1.0002000331878662
64	272.41565012931824	pulse	0	t		62.0	2.5	/experiments/knapen_AOT/AOT_stimuli/rescaled_final/0461_fw.mp4	0.0	317.6705710887909	
64	273.2322471141815	movie	1		243	62.0	2.5	/experiments/knapen_AOT/AOT_stimuli/rescaled_final/0461_fw.mp4	0.0	318.4871680736542	2.5005500316619873
64	274.0159640312195	pulse	1	t		62.0	2.5	/experiments/knapen_AOT/AOT_stimuli/rescaled_final/0461_fw.mp4	0.0	319.27088499069214	
64	275.6160080432892	pulse	1	t		62.0	2.5	/experiments/knapen_AOT/AOT_stimuli/rescaled_final/0461_fw.mp4	0.0	320.87092900276184	
64	275.7327971458435	fix_post	2		12	62.0	2.5	/experiments/knapen_AOT/AOT_stimuli/rescaled_final/0461_fw.mp4	0.0	320.98771810531616	0.09984087944030762
65	275.8326380252838	fix_pre	0		120	63.0	2.5	blank	1.0	321.08755898475647	1.0001320838928223
65	276.83277010917664	movie	1		299	63.0	2.5	blank	1.0	322.0876910686493	2.492032051086426
65	277.216304063797	pulse	1	t		63.0	2.5	blank	1.0	322.47122502326965	
65	278.81664395332336	pulse	1	t		63.0	2.5	blank	1.0	324.071564912796	
65	279.32480216026306	fix_post	2		12	63.0	2.5	blank	1.0	324.5797231197357	0.10007190704345703
66	279.4248740673065	fix_pre	0		120	64.0	2.5	/experiments/knapen_AOT/AOT_stimuli/rescaled_final/1130_fw.mp4	0.0	324.6797950267792	1.0000879764556885
66	280.41692304611206	pulse	0	t		64.0	2.5	/experiments/knapen_AOT/AOT_stimuli/rescaled_final/1130_fw.mp4	0.0	325.6718440055847	
66	280.4249620437622	movie	1		244	64.0	2.5	/experiments/knapen_AOT/AOT_stimuli/rescaled_final/1130_fw.mp4	0.0	325.67988300323486	2.5087640285491943
66	282.0182731151581	pulse	1	t		64.0	2.5	/experiments/knapen_AOT/AOT_stimuli/rescaled_final/1130_fw.mp4	0.0	327.27319407463074	
66	282.9337260723114	fix_post	2		12	64.0	2.5	/experiments/knapen_AOT/AOT_stimuli/rescaled_final/1130_fw.mp4	0.0	328.18864703178406	0.09996700286865234
67	283.03369307518005	fix_pre	0		120	65.0	2.5	/experiments/knapen_AOT/AOT_stimuli/rescaled_final/1189_fw.mp4	0.0	328.2886140346527	1.0002059936523438
67	283.6098470687866	pulse	0	t		65.0	2.5	/experiments/knapen_AOT/AOT_stimuli/rescaled_final/1189_fw.mp4	0.0	328.8647680282593	
67	284.0338990688324	movie	1		242	65.0	2.5	/experiments/knapen_AOT/AOT_stimuli/rescaled_final/1189_fw.mp4	0.0	329.28882002830505	2.500393867492676
67	285.2097761631012	pulse	1	t		65.0	2.5	/experiments/knapen_AOT/AOT_stimuli/rescaled_final/1189_fw.mp4	0.0	330.46469712257385	
67	286.5342929363251	fix_post	2		12	65.0	2.5	/experiments/knapen_AOT/AOT_stimuli/rescaled_final/1189_fw.mp4	0.0	331.78921389579773	0.0999460220336914
68	286.63423895835876	fix_pre	0		120	66.0	2.5	/experiments/knapen_AOT/AOT_stimuli/rescaled_final/1874_fw.mp4	0.0	331.8891599178314	1.0001380443572998
68	286.8094210624695	pulse	0	t		66.0	2.5	/experiments/knapen_AOT/AOT_stimuli/rescaled_final/1874_fw.mp4	0.0	332.06434202194214	
68	287.63437700271606	movie	1		241	66.0	2.5	/experiments/knapen_AOT/AOT_stimuli/rescaled_final/1874_fw.mp4	0.0	332.8892979621887	2.5004119873046875
68	288.4097640514374	pulse	1	t		66.0	2.5	/experiments/knapen_AOT/AOT_stimuli/rescaled_final/1874_fw.mp4	0.0	333.66468501091003	
68	290.00994515419006	pulse	1	t		66.0	2.5	/experiments/knapen_AOT/AOT_stimuli/rescaled_final/1874_fw.mp4	0.0	335.2648661136627	
68	290.13478899002075	fix_post	2		12	66.0	2.5	/experiments/knapen_AOT/AOT_stimuli/rescaled_final/1874_fw.mp4	0.0	335.3897099494934	0.1000211238861084
69	290.23481011390686	fix_pre	0		120	67.0	2.5	/experiments/knapen_AOT/AOT_stimuli/rescaled_final/0606_fw.mp4	0.0	335.4897310733795	1.0001158714294434
69	291.2349259853363	movie	1		243	67.0	2.5	/experiments/knapen_AOT/AOT_stimuli/rescaled_final/0606_fw.mp4	0.0	336.48984694480896	2.492025136947632
69	291.6101710796356	pulse	1	t		67.0	2.5	/experiments/knapen_AOT/AOT_stimuli/rescaled_final/0606_fw.mp4	0.0	336.8650920391083	
69	293.21046209335327	pulse	1	t		67.0	2.5	/experiments/knapen_AOT/AOT_stimuli/rescaled_final/0606_fw.mp4	0.0	338.4653830528259	
69	293.72695112228394	fix_post	2		12	67.0	2.5	/experiments/knapen_AOT/AOT_stimuli/rescaled_final/0606_fw.mp4	0.0	338.9818720817566	0.10000085830688477
70	293.8269519805908	fix_pre	0		119	68.0	2.5	/experiments/knapen_AOT/AOT_stimuli/rescaled_final/0717_fw.mp4	0.0	339.0818729400635	0.9918150901794434
70	294.81061005592346	pulse	0	t		68.0	2.5	/experiments/knapen_AOT/AOT_stimuli/rescaled_final/0717_fw.mp4	0.0	340.0655310153961	
70	294.81876707077026	movie	1		245	68.0	2.5	/experiments/knapen_AOT/AOT_stimuli/rescaled_final/0717_fw.mp4	0.0	340.0736880302429	2.5086848735809326
70	296.41139793395996	pulse	1	t		68.0	2.5	/experiments/knapen_AOT/AOT_stimuli/rescaled_final/0717_fw.mp4	0.0	341.6663188934326	
70	297.3274519443512	fix_post	2		12	68.0	2.5	/experiments/knapen_AOT/AOT_stimuli/rescaled_final/0717_fw.mp4	0.0	342.58237290382385	0.10007214546203613
71	297.42752408981323	fix_pre	0		120	69.0	2.5	/experiments/knapen_AOT/AOT_stimuli/rescaled_final/1167_fw.mp4	0.0	342.6824450492859	1.0001049041748047
71	298.011137008667	pulse	0	t		69.0	2.5	/experiments/knapen_AOT/AOT_stimuli/rescaled_final/1167_fw.mp4	0.0	343.26605796813965	
71	298.42762899398804	movie	1		243	69.0	2.5	/experiments/knapen_AOT/AOT_stimuli/rescaled_final/1167_fw.mp4	0.0	343.6825499534607	2.5006000995635986
71	299.61142206192017	pulse	1	t		69.0	2.5	/experiments/knapen_AOT/AOT_stimuli/rescaled_final/1167_fw.mp4	0.0	344.8663430213928	
71	300.92822909355164	fix_post	2		12	69.0	2.5	/experiments/knapen_AOT/AOT_stimuli/rescaled_final/1167_fw.mp4	0.0	346.1831500530243	0.0997929573059082
72	301.02802205085754	fix_pre	0		120	70.0	2.5	blank	1.0	346.2829430103302	1.0001790523529053
72	301.2116479873657	pulse	0	t		70.0	2.5	blank	1.0	346.4665689468384	
72	302.02820110321045	movie	1		300	70.0	2.5	blank	1.0	347.2831220626831	2.500385046005249
72	302.81187200546265	pulse	1	t		70.0	2.5	blank	1.0	348.0667929649353	
72	304.4121310710907	pulse	1	t		70.0	2.5	blank	1.0	349.66705203056335	
72	304.5285861492157	fix_post	2		12	70.0	2.5	blank	1.0	349.78350710868835	0.1000218391418457
73	304.62860798835754	fix_pre	0		120	71.0	2.5	/experiments/knapen_AOT/AOT_stimuli/rescaled_final/2108_rv.mp4	0.0	349.8835289478302	1.0000770092010498
73	305.6286849975586	movie	1		242	71.0	2.5	/experiments/knapen_AOT/AOT_stimuli/rescaled_final/2108_rv.mp4	0.0	350.88360595703125	2.492259979248047
73	306.01659417152405	pulse	1	t		71.0	2.5	/experiments/knapen_AOT/AOT_stimuli/rescaled_final/2108_rv.mp4	0.0	351.2715151309967	
73	307.61256408691406	pulse	1	t		71.0	2.5	/experiments/knapen_AOT/AOT_stimuli/rescaled_final/2108_rv.mp4	0.0	352.8674850463867	
73	308.12094497680664	fix_post	2		12	71.0	2.5	/experiments/knapen_AOT/AOT_stimuli/rescaled_final/2108_rv.mp4	0.0	353.3758659362793	0.09991908073425293
74	308.2208640575409	fix_pre	0		120	72.0	2.5	/experiments/knapen_AOT/AOT_stimuli/rescaled_final/1579_fw.mp4	0.0	353.47578501701355	1.0001220703125
74	309.21278715133667	pulse	0	t		72.0	2.5	/experiments/knapen_AOT/AOT_stimuli/rescaled_final/1579_fw.mp4	0.0	354.4677081108093	
74	309.2209861278534	movie	1		244	72.0	2.5	/experiments/knapen_AOT/AOT_stimuli/rescaled_final/1579_fw.mp4	0.0	354.47590708732605	2.508687973022461
74	310.8137741088867	pulse	1	t		72.0	2.5	/experiments/knapen_AOT/AOT_stimuli/rescaled_final/1579_fw.mp4	0.0	356.0686950683594	
74	311.72967410087585	fix_post	2		12	72.0	2.5	/experiments/knapen_AOT/AOT_stimuli/rescaled_final/1579_fw.mp4	0.0	356.9845950603485	0.1000058650970459
75	311.8296799659729	fix_pre	0		120	73.0	2.5	/experiments/knapen_AOT/AOT_stimuli/rescaled_final/1225_rv.mp4	0.0	357.08460092544556	1.0001251697540283
75	312.4132339954376	pulse	0	t		73.0	2.5	/experiments/knapen_AOT/AOT_stimuli/rescaled_final/1225_rv.mp4	0.0	357.6681549549103	
75	312.82980513572693	movie	1		243	73.0	2.5	/experiments/knapen_AOT/AOT_stimuli/rescaled_final/1225_rv.mp4	0.0	358.0847260951996	2.500501871109009
75	314.01368713378906	pulse	1	t		73.0	2.5	/experiments/knapen_AOT/AOT_stimuli/rescaled_final/1225_rv.mp4	0.0	359.2686080932617	
75	315.33030700683594	fix_post	2		12	73.0	2.5	/experiments/knapen_AOT/AOT_stimuli/rescaled_final/1225_rv.mp4	0.0	360.5852279663086	0.09988903999328613
76	315.4301960468292	fix_pre	0		120	74.0	2.5	/experiments/knapen_AOT/AOT_stimuli/rescaled_final/1616_rv.mp4	0.0	360.6851170063019	1.0001370906829834
76	315.6137681007385	pulse	0	t		74.0	2.5	/experiments/knapen_AOT/AOT_stimuli/rescaled_final/1616_rv.mp4	0.0	360.8686890602112	
76	316.4303331375122	movie	1		242	74.0	2.5	/experiments/knapen_AOT/AOT_stimuli/rescaled_final/1616_rv.mp4	0.0	361.68525409698486	2.500501871109009
76	317.2139661312103	pulse	1	t		74.0	2.5	/experiments/knapen_AOT/AOT_stimuli/rescaled_final/1616_rv.mp4	0.0	362.468887090683	
76	318.8141119480133	pulse	1	t		74.0	2.5	/experiments/knapen_AOT/AOT_stimuli/rescaled_final/1616_rv.mp4	0.0	364.06903290748596	
76	318.9308350086212	fix_post	2		12	74.0	2.5	/experiments/knapen_AOT/AOT_stimuli/rescaled_final/1616_rv.mp4	0.0	364.1857559680939	0.09994006156921387
77	319.03077507019043	fix_pre	0		120	75.0	2.5	/experiments/knapen_AOT/AOT_stimuli/rescaled_final/1916_fw.mp4	0.0	364.2856960296631	1.0001070499420166
77	320.03088212013245	movie	1		241	75.0	2.5	/experiments/knapen_AOT/AOT_stimuli/rescaled_final/1916_fw.mp4	0.0	365.2858030796051	2.492141008377075
77	320.4149191379547	pulse	1	t		75.0	2.5	/experiments/knapen_AOT/AOT_stimuli/rescaled_final/1916_fw.mp4	0.0	365.66984009742737	
77	322.0147969722748	pulse	1	t		75.0	2.5	/experiments/knapen_AOT/AOT_stimuli/rescaled_final/1916_fw.mp4	0.0	367.26971793174744	
77	322.5230231285095	fix_post	2		12	75.0	2.5	/experiments/knapen_AOT/AOT_stimuli/rescaled_final/1916_fw.mp4	0.0	367.7779440879822	0.09996294975280762
78	322.62298607826233	fix_pre	0		120	76.0	2.5	/experiments/knapen_AOT/AOT_stimuli/rescaled_final/0017_rv.mp4	0.0	367.877907037735	1.0001070499420166
78	323.6149640083313	pulse	0	t		76.0	2.5	/experiments/knapen_AOT/AOT_stimuli/rescaled_final/0017_rv.mp4	0.0	368.86988496780396	
78	323.62309312820435	movie	1		244	76.0	2.5	/experiments/knapen_AOT/AOT_stimuli/rescaled_final/0017_rv.mp4	0.0	368.878014087677	2.508755922317505
78	325.215744972229	pulse	1	t		76.0	2.5	/experiments/knapen_AOT/AOT_stimuli/rescaled_final/0017_rv.mp4	0.0	370.47066593170166	
78	326.13184905052185	fix_post	2		12	76.0	2.5	/experiments/knapen_AOT/AOT_stimuli/rescaled_final/0017_rv.mp4	0.0	371.3867700099945	0.1000070571899414
79	326.2318561077118	fix_pre	0		120	77.0	2.5	blank	1.0	371.48677706718445	1.0001280307769775
79	326.81537795066833	pulse	0	t		77.0	2.5	blank	1.0	372.070298910141	
79	327.23198413848877	movie	1		300	77.0	2.5	blank	1.0	372.4869050979614	2.500316858291626
79	328.4157099723816	pulse	1	t		77.0	2.5	blank	1.0	373.67063093185425	
79	329.7323009967804	fix_post	2		12	77.0	2.5	blank	1.0	374.98722195625305	0.10008406639099121
80	329.8323850631714	fix_pre	0		120	78.0	2.5	/experiments/knapen_AOT/AOT_stimuli/rescaled_final/0340_rv.mp4	0.0	375.08730602264404	1.0001540184020996
80	330.01608896255493	pulse	0	t		78.0	2.5	/experiments/knapen_AOT/AOT_stimuli/rescaled_final/0340_rv.mp4	0.0	375.2710099220276	
80	330.8325390815735	movie	1		243	78.0	2.5	/experiments/knapen_AOT/AOT_stimuli/rescaled_final/0340_rv.mp4	0.0	376.08746004104614	2.5003669261932373
80	331.61612010002136	pulse	1	t		78.0	2.5	/experiments/knapen_AOT/AOT_stimuli/rescaled_final/0340_rv.mp4	0.0	376.871041059494	
80	333.2160589694977	pulse	1	t		78.0	2.5	/experiments/knapen_AOT/AOT_stimuli/rescaled_final/0340_rv.mp4	0.0	378.47097992897034	
80	333.3329060077667	fix_post	2		12	78.0	2.5	/experiments/knapen_AOT/AOT_stimuli/rescaled_final/0340_rv.mp4	0.0	378.5878269672394	0.09998607635498047
81	333.4328920841217	fix_pre	0		120	79.0	2.5	/experiments/knapen_AOT/AOT_stimuli/rescaled_final/0889_rv.mp4	0.0	378.68781304359436	1.0001230239868164
81	334.4330151081085	movie	1		238	79.0	2.5	/experiments/knapen_AOT/AOT_stimuli/rescaled_final/0889_rv.mp4	0.0	379.6879360675812	2.4921109676361084
81	334.8171441555023	pulse	1	t		79.0	2.5	/experiments/knapen_AOT/AOT_stimuli/rescaled_final/0889_rv.mp4	0.0	380.072065114975	
81	336.4096441268921	pulse	1	t		79.0	2.5	/experiments/knapen_AOT/AOT_stimuli/rescaled_final/0889_rv.mp4	0.0	381.66456508636475	
81	336.92512607574463	fix_post	2		12	79.0	2.5	/experiments/knapen_AOT/AOT_stimuli/rescaled_final/0889_rv.mp4	0.0	382.1800470352173	0.09996294975280762
82	337.02508902549744	fix_pre	0		120	80.0	2.5	/experiments/knapen_AOT/AOT_stimuli/rescaled_final/0525_rv.mp4	0.0	382.2800099849701	1.0002110004425049
82	338.00975799560547	pulse	0	t		80.0	2.5	/experiments/knapen_AOT/AOT_stimuli/rescaled_final/0525_rv.mp4	0.0	383.2646789550781	
82	338.02530002593994	movie	1		244	80.0	2.5	/experiments/knapen_AOT/AOT_stimuli/rescaled_final/0525_rv.mp4	0.0	383.2802209854126	2.508647918701172
82	339.61782693862915	pulse	1	t		80.0	2.5	/experiments/knapen_AOT/AOT_stimuli/rescaled_final/0525_rv.mp4	0.0	384.8727478981018	
82	340.5339479446411	fix_post	2		12	80.0	2.5	/experiments/knapen_AOT/AOT_stimuli/rescaled_final/0525_rv.mp4	0.0	385.78886890411377	0.0999910831451416
83	340.63393902778625	fix_pre	0		120	81.0	2.5	/experiments/knapen_AOT/AOT_stimuli/rescaled_final/1385_rv.mp4	0.0	385.8888599872589	1.0001749992370605
83	341.2100601196289	pulse	0	t		81.0	2.5	/experiments/knapen_AOT/AOT_stimuli/rescaled_final/1385_rv.mp4	0.0	386.46498107910156	
83	341.6341140270233	movie	1		243	81.0	2.5	/experiments/knapen_AOT/AOT_stimuli/rescaled_final/1385_rv.mp4	0.0	386.889034986496	2.5005970001220703
83	342.8099310398102	pulse	1	t		81.0	2.5	/experiments/knapen_AOT/AOT_stimuli/rescaled_final/1385_rv.mp4	0.0	388.06485199928284	
83	344.1347110271454	fix_post	2		12	81.0	2.5	/experiments/knapen_AOT/AOT_stimuli/rescaled_final/1385_rv.mp4	0.0	389.38963198661804	0.09979891777038574
84	344.23450994491577	fix_pre	0		120	82.0	2.5	/experiments/knapen_AOT/AOT_stimuli/rescaled_final/0473_fw.mp4	0.0	389.4894309043884	1.0001931190490723
84	344.40967202186584	pulse	0	t		82.0	2.5	/experiments/knapen_AOT/AOT_stimuli/rescaled_final/0473_fw.mp4	0.0	389.6645929813385	
84	345.23470306396484	movie	1		242	82.0	2.5	/experiments/knapen_AOT/AOT_stimuli/rescaled_final/0473_fw.mp4	0.0	390.4896240234375	2.4921979904174805
84	346.00992798805237	pulse	1	t		82.0	2.5	/experiments/knapen_AOT/AOT_stimuli/rescaled_final/0473_fw.mp4	0.0	391.264848947525	
84	347.61018204689026	pulse	1	t		82.0	2.5	/experiments/knapen_AOT/AOT_stimuli/rescaled_final/0473_fw.mp4	0.0	392.8651030063629	
84	347.7269010543823	fix_post	2		13	82.0	2.5	/experiments/knapen_AOT/AOT_stimuli/rescaled_final/0473_fw.mp4	0.0	392.981822013855	0.10812211036682129
85	347.83502316474915	fix_pre	0		119	83.0	2.5	blank	1.0	393.0899441242218	0.9918267726898193
85	348.82684993743896	movie	1		300	83.0	2.5	blank	1.0	394.0817708969116	2.5003600120544434
85	349.2104949951172	pulse	1	t		83.0	2.5	blank	1.0	394.46541595458984	
85	350.8106200695038	pulse	1	t		83.0	2.5	blank	1.0	396.06554102897644	
85	351.3272099494934	fix_post	2		12	83.0	2.5	blank	1.0	396.58213090896606	0.10011100769042969
87	351.42732095718384	stim	0		1716					396.6822419166565	14.302179098129272
87	352.41090416908264	pulse	0	t						397.6658251285553	
87	354.01111102104187	pulse	0	t						399.2660319805145	
87	355.61139011383057	pulse	0	t						400.8663110733032	
87	357.2117021083832	pulse	0	t						402.46662306785583	
87	358.81189012527466	pulse	0	t						404.0668110847473	
87	360.41210412979126	pulse	0	t						405.6670250892639	
87	362.0122129917145	pulse	0	t						407.26713395118713	
87	363.6126329898834	pulse	0	t						408.8675539493561	
87	365.2128920555115	pulse	0	t						410.46781301498413	
