trial_nr	onset	event_type	phase	response	nr_frames	movie_index	movie_duration	movie_file	blank	onset_abs	duration
0	0.17494416236877441	stim	0		1					16.592394590377808	0.0083160400390625
0	0.1564192771911621	response	0	space						16.573869705200195	
1	0.18326020240783691	stim	0		4674					16.60071063041687	38.96850299835205
1	39.137123584747314	pulse	0	t						55.55457401275635	
1	39.15176320075989	stim	1		1714					55.56921362876892	14.297796726226807
1	40.73116493225098	pulse	1	t						57.14861536026001	
1	42.33141040802002	pulse	1	t						58.74886083602905	
1	43.93160009384155	pulse	1	t						60.349050521850586	
1	45.532007932662964	pulse	1	t						61.949458360672	
1	47.13237905502319	pulse	1	t						63.54982948303223	
1	48.73231220245361	pulse	1	t						65.14976263046265	
1	50.33289885520935	pulse	1	t						66.75034928321838	
1	51.932823181152344	pulse	1	t						68.35027360916138	
2	53.449559926986694	fix_pre	0		11	0.0	2.5	/experiments/Knapen_AOT/AOT_stimuli/rescaled_final/0636_rv.mp4	0.0	69.86701035499573	0.10848355293273926
2	53.53310227394104	pulse	0	t		0.0	2.5	/experiments/Knapen_AOT/AOT_stimuli/rescaled_final/0636_rv.mp4	0.0	69.95055270195007	
2	53.558043479919434	movie	1		274	0.0	2.5	/experiments/Knapen_AOT/AOT_stimuli/rescaled_final/0636_rv.mp4	0.0	69.97549390792847	2.4918878078460693
2	55.13195323944092	pulse	1	t		0.0	2.5	/experiments/Knapen_AOT/AOT_stimuli/rescaled_final/0636_rv.mp4	0.0	71.54940366744995	
2	56.0499312877655	fix_post	2		12	0.0	2.5	/experiments/Knapen_AOT/AOT_stimuli/rescaled_final/0636_rv.mp4	0.0	72.46738171577454	0.10003662109375
3	56.14996790885925	fix_pre	0		120	1.0	2.5	/experiments/Knapen_AOT/AOT_stimuli/rescaled_final/1717_fw.mp4	0.0	72.56741833686829	1.0084998607635498
3	56.733662366867065	pulse	0	t		1.0	2.5	/experiments/Knapen_AOT/AOT_stimuli/rescaled_final/1717_fw.mp4	0.0	73.1511127948761	
3	57.1584677696228	movie	1		275	1.0	2.5	/experiments/Knapen_AOT/AOT_stimuli/rescaled_final/1717_fw.mp4	0.0	73.57591819763184	2.4920194149017334
3	58.331719160079956	pulse	1	t		1.0	2.5	/experiments/Knapen_AOT/AOT_stimuli/rescaled_final/1717_fw.mp4	0.0	74.74916958808899	
3	59.650487184524536	fix_post	2		12	1.0	2.5	/experiments/Knapen_AOT/AOT_stimuli/rescaled_final/1717_fw.mp4	0.0	76.06793761253357	0.10001039505004883
4	59.750497579574585	fix_pre	0		120	2.0	2.5	/experiments/Knapen_AOT/AOT_stimuli/rescaled_final/0875_fw.mp4	0.0	76.16794800758362	1.0084803104400635
4	59.9267213344574	pulse	0	t		2.0	2.5	/experiments/Knapen_AOT/AOT_stimuli/rescaled_final/0875_fw.mp4	0.0	76.34417176246643	
4	60.75897789001465	movie	1		288	2.0	2.5	/experiments/Knapen_AOT/AOT_stimuli/rescaled_final/0875_fw.mp4	0.0	77.17642831802368	2.4922289848327637
4	61.53231978416443	pulse	1	t		2.0	2.5	/experiments/Knapen_AOT/AOT_stimuli/rescaled_final/0875_fw.mp4	0.0	77.94977021217346	
4	63.12671208381653	pulse	1	t		2.0	2.5	/experiments/Knapen_AOT/AOT_stimuli/rescaled_final/0875_fw.mp4	0.0	79.54416251182556	
4	63.25120687484741	fix_post	2		12	2.0	2.5	/experiments/Knapen_AOT/AOT_stimuli/rescaled_final/0875_fw.mp4	0.0	79.66865730285645	0.09984087944030762
5	63.35104775428772	fix_pre	0		120	3.0	2.5	/experiments/Knapen_AOT/AOT_stimuli/rescaled_final/2003_fw.mp4	0.0	79.76849818229675	1.0084948539733887
5	64.35954260826111	movie	1		282	3.0	2.5	/experiments/Knapen_AOT/AOT_stimuli/rescaled_final/2003_fw.mp4	0.0	80.77699303627014	2.4920222759246826
5	64.72647976875305	pulse	1	t		3.0	2.5	/experiments/Knapen_AOT/AOT_stimuli/rescaled_final/2003_fw.mp4	0.0	81.14393019676208	
5	66.32672262191772	pulse	1	t		3.0	2.5	/experiments/Knapen_AOT/AOT_stimuli/rescaled_final/2003_fw.mp4	0.0	82.74417304992676	
5	66.85156488418579	fix_post	2		12	3.0	2.5	/experiments/Knapen_AOT/AOT_stimuli/rescaled_final/2003_fw.mp4	0.0	83.26901531219482	0.10001778602600098
6	66.95158267021179	fix_pre	0		118	4.0	2.5	/experiments/Knapen_AOT/AOT_stimuli/rescaled_final/1269_fw.mp4	0.0	83.36903309822083	0.9918515682220459
6	67.9269471168518	pulse	0	t		4.0	2.5	/experiments/Knapen_AOT/AOT_stimuli/rescaled_final/1269_fw.mp4	0.0	84.34439754486084	
6	67.94343423843384	movie	1		284	4.0	2.5	/experiments/Knapen_AOT/AOT_stimuli/rescaled_final/1269_fw.mp4	0.0	84.36088466644287	2.5003767013549805
6	69.5272753238678	pulse	1	t		4.0	2.5	/experiments/Knapen_AOT/AOT_stimuli/rescaled_final/1269_fw.mp4	0.0	85.94472575187683	
6	70.44381093978882	fix_post	2		12	4.0	2.5	/experiments/Knapen_AOT/AOT_stimuli/rescaled_final/1269_fw.mp4	0.0	86.86126136779785	0.09998488426208496
7	70.5437958240509	fix_pre	0		120	5.0	2.5	/experiments/Knapen_AOT/AOT_stimuli/rescaled_final/2089_fw.mp4	0.0	86.96124625205994	1.0084881782531738
7	71.1274802684784	pulse	0	t		5.0	2.5	/experiments/Knapen_AOT/AOT_stimuli/rescaled_final/2089_fw.mp4	0.0	87.54493069648743	
7	71.55228400230408	movie	1		281	5.0	2.5	/experiments/Knapen_AOT/AOT_stimuli/rescaled_final/2089_fw.mp4	0.0	87.96973443031311	2.4921514987945557
7	72.72773599624634	pulse	1	t		5.0	2.5	/experiments/Knapen_AOT/AOT_stimuli/rescaled_final/2089_fw.mp4	0.0	89.14518642425537	
7	74.04443550109863	fix_post	2		12	5.0	2.5	/experiments/Knapen_AOT/AOT_stimuli/rescaled_final/2089_fw.mp4	0.0	90.46188592910767	0.09994792938232422
8	74.14438343048096	fix_pre	0		120	6.0	2.5	blank	1.0	90.56183385848999	1.000077486038208
8	74.32789707183838	pulse	0	t		6.0	2.5	blank	1.0	90.74534749984741	
8	75.14446091651917	movie	1		300	6.0	2.5	blank	1.0	91.5619113445282	2.5004522800445557
8	75.92814493179321	pulse	1	t		6.0	2.5	blank	1.0	92.34559535980225	
8	77.52834105491638	pulse	1	t		6.0	2.5	blank	1.0	93.94579148292542	
8	77.64491319656372	fix_post	2		12	6.0	2.5	blank	1.0	94.06236362457275	0.09994673728942871
9	77.74485993385315	fix_pre	0		120	7.0	2.5	/experiments/Knapen_AOT/AOT_stimuli/rescaled_final/1798_rv.mp4	0.0	94.16231036186218	1.0085210800170898
9	78.75338101387024	movie	1		289	7.0	2.5	/experiments/Knapen_AOT/AOT_stimuli/rescaled_final/1798_rv.mp4	0.0	95.17083144187927	2.492076873779297
9	79.12676572799683	pulse	1	t		7.0	2.5	/experiments/Knapen_AOT/AOT_stimuli/rescaled_final/1798_rv.mp4	0.0	95.54421615600586	
9	80.72662138938904	pulse	1	t		7.0	2.5	/experiments/Knapen_AOT/AOT_stimuli/rescaled_final/1798_rv.mp4	0.0	97.14407181739807	
9	81.24545788764954	fix_post	2		12	7.0	2.5	/experiments/Knapen_AOT/AOT_stimuli/rescaled_final/1798_rv.mp4	0.0	97.66290831565857	0.09994268417358398
10	81.34540057182312	fix_pre	0		119	8.0	2.5	/experiments/Knapen_AOT/AOT_stimuli/rescaled_final/1382_rv.mp4	0.0	97.76285099983215	1.0001518726348877
10	82.32910323143005	pulse	0	t		8.0	2.5	/experiments/Knapen_AOT/AOT_stimuli/rescaled_final/1382_rv.mp4	0.0	98.74655365943909	
10	82.34555244445801	movie	1		287	8.0	2.5	/experiments/Knapen_AOT/AOT_stimuli/rescaled_final/1382_rv.mp4	0.0	98.76300287246704	2.500403642654419
10	83.92756652832031	pulse	1	t		8.0	2.5	/experiments/Knapen_AOT/AOT_stimuli/rescaled_final/1382_rv.mp4	0.0	100.34501695632935	
10	84.84595608711243	fix_post	2		12	8.0	2.5	/experiments/Knapen_AOT/AOT_stimuli/rescaled_final/1382_rv.mp4	0.0	101.26340651512146	0.0999903678894043
11	84.94594645500183	fix_pre	0		120	9.0	2.5	/experiments/Knapen_AOT/AOT_stimuli/rescaled_final/1787_rv.mp4	0.0	101.36339688301086	1.008608102798462
11	85.52959179878235	pulse	0	t		9.0	2.5	/experiments/Knapen_AOT/AOT_stimuli/rescaled_final/1787_rv.mp4	0.0	101.94704222679138	
11	85.9545545578003	movie	1		281	9.0	2.5	/experiments/Knapen_AOT/AOT_stimuli/rescaled_final/1787_rv.mp4	0.0	102.37200498580933	2.4919164180755615
11	87.12798190116882	pulse	1	t		9.0	2.5	/experiments/Knapen_AOT/AOT_stimuli/rescaled_final/1787_rv.mp4	0.0	103.54543232917786	
11	88.44647097587585	fix_post	2		12	9.0	2.5	/experiments/Knapen_AOT/AOT_stimuli/rescaled_final/1787_rv.mp4	0.0	104.86392140388489	0.10001802444458008
12	88.54648900032043	fix_pre	0		120	10.0	2.5	/experiments/Knapen_AOT/AOT_stimuli/rescaled_final/1782_rv.mp4	0.0	104.96393942832947	1.0087032318115234
12	88.7300820350647	pulse	0	t		10.0	2.5	/experiments/Knapen_AOT/AOT_stimuli/rescaled_final/1782_rv.mp4	0.0	105.14753246307373	
12	89.55519223213196	movie	1		290	10.0	2.5	/experiments/Knapen_AOT/AOT_stimuli/rescaled_final/1782_rv.mp4	0.0	105.97264266014099	2.4918599128723145
12	90.32834196090698	pulse	1	t		10.0	2.5	/experiments/Knapen_AOT/AOT_stimuli/rescaled_final/1782_rv.mp4	0.0	106.74579238891602	
12	91.92936873435974	pulse	1	t		10.0	2.5	/experiments/Knapen_AOT/AOT_stimuli/rescaled_final/1782_rv.mp4	0.0	108.34681916236877	
12	92.04705214500427	fix_post	2		12	10.0	2.5	/experiments/Knapen_AOT/AOT_stimuli/rescaled_final/1782_rv.mp4	0.0	108.4645025730133	0.10000801086425781
13	92.14706015586853	fix_pre	0		120	11.0	2.5	/experiments/Knapen_AOT/AOT_stimuli/rescaled_final/1810_fw.mp4	0.0	108.56451058387756	1.0084869861602783
13	93.15554714202881	movie	1		288	11.0	2.5	/experiments/Knapen_AOT/AOT_stimuli/rescaled_final/1810_fw.mp4	0.0	109.57299757003784	2.4920175075531006
13	93.52920150756836	pulse	1	t		11.0	2.5	/experiments/Knapen_AOT/AOT_stimuli/rescaled_final/1810_fw.mp4	0.0	109.94665193557739	
13	95.12900233268738	pulse	1	t		11.0	2.5	/experiments/Knapen_AOT/AOT_stimuli/rescaled_final/1810_fw.mp4	0.0	111.54645276069641	
13	95.64756464958191	fix_post	2		12	11.0	2.5	/experiments/Knapen_AOT/AOT_stimuli/rescaled_final/1810_fw.mp4	0.0	112.06501507759094	0.10000777244567871
14	95.74757242202759	fix_pre	0		119	12.0	2.5	blank	1.0	112.16502285003662	0.9918265342712402
14	96.73153591156006	pulse	0	t		12.0	2.5	blank	1.0	113.14898633956909	
14	96.73939895629883	movie	1		301	12.0	2.5	blank	1.0	113.15684938430786	2.508720874786377
14	98.3315680027008	pulse	1	t		12.0	2.5	blank	1.0	114.74901843070984	
14	99.2481198310852	fix_post	2		12	12.0	2.5	blank	1.0	115.66557025909424	0.09999537467956543
15	99.34811520576477	fix_pre	0		120	13.0	2.5	/experiments/Knapen_AOT/AOT_stimuli/rescaled_final/1659_rv.mp4	0.0	115.7655656337738	1.0084946155548096
15	99.93175745010376	pulse	0	t		13.0	2.5	/experiments/Knapen_AOT/AOT_stimuli/rescaled_final/1659_rv.mp4	0.0	116.3492078781128	
15	100.35660982131958	movie	1		289	13.0	2.5	/experiments/Knapen_AOT/AOT_stimuli/rescaled_final/1659_rv.mp4	0.0	116.77406024932861	2.4920742511749268
15	101.53004145622253	pulse	1	t		13.0	2.5	/experiments/Knapen_AOT/AOT_stimuli/rescaled_final/1659_rv.mp4	0.0	117.94749188423157	
15	102.8486840724945	fix_post	2		12	13.0	2.5	/experiments/Knapen_AOT/AOT_stimuli/rescaled_final/1659_rv.mp4	0.0	119.26613450050354	0.10001611709594727
16	102.94870018959045	fix_pre	0		120	14.0	2.5	/experiments/Knapen_AOT/AOT_stimuli/rescaled_final/0875_rv.mp4	0.0	119.36615061759949	1.0085318088531494
16	103.13225173950195	pulse	0	t		14.0	2.5	/experiments/Knapen_AOT/AOT_stimuli/rescaled_final/0875_rv.mp4	0.0	119.54970216751099	
16	103.9572319984436	movie	1		282	14.0	2.5	/experiments/Knapen_AOT/AOT_stimuli/rescaled_final/0875_rv.mp4	0.0	120.37468242645264	2.4919893741607666
16	104.73036050796509	pulse	1	t		14.0	2.5	/experiments/Knapen_AOT/AOT_stimuli/rescaled_final/0875_rv.mp4	0.0	121.14781093597412	
16	106.33055710792542	pulse	1	t		14.0	2.5	/experiments/Knapen_AOT/AOT_stimuli/rescaled_final/0875_rv.mp4	0.0	122.74800753593445	
16	106.44922137260437	fix_post	2		12	14.0	2.5	/experiments/Knapen_AOT/AOT_stimuli/rescaled_final/0875_rv.mp4	0.0	122.8666718006134	0.10005307197570801
17	106.54927444458008	fix_pre	0		120	15.0	2.5	/experiments/Knapen_AOT/AOT_stimuli/rescaled_final/0335_rv.mp4	0.0	122.96672487258911	1.0084326267242432
17	107.55770707130432	movie	1		284	15.0	2.5	/experiments/Knapen_AOT/AOT_stimuli/rescaled_final/0335_rv.mp4	0.0	123.97515749931335	2.49202299118042
17	107.93133878707886	pulse	1	t		15.0	2.5	/experiments/Knapen_AOT/AOT_stimuli/rescaled_final/0335_rv.mp4	0.0	124.34878921508789	
17	109.53121757507324	pulse	1	t		15.0	2.5	/experiments/Knapen_AOT/AOT_stimuli/rescaled_final/0335_rv.mp4	0.0	125.94866800308228	
17	110.04973006248474	fix_post	2		12	15.0	2.5	/experiments/Knapen_AOT/AOT_stimuli/rescaled_final/0335_rv.mp4	0.0	126.46718049049377	0.10002565383911133
18	110.14975571632385	fix_pre	0		119	16.0	2.5	/experiments/Knapen_AOT/AOT_stimuli/rescaled_final/1647_rv.mp4	0.0	126.56720614433289	1.0001499652862549
18	111.13368153572083	pulse	0	t		16.0	2.5	/experiments/Knapen_AOT/AOT_stimuli/rescaled_final/1647_rv.mp4	0.0	127.55113196372986	
18	111.14990568161011	movie	1		280	16.0	2.5	/experiments/Knapen_AOT/AOT_stimuli/rescaled_final/1647_rv.mp4	0.0	127.56735610961914	2.5004022121429443
18	112.7323305606842	pulse	1	t		16.0	2.5	/experiments/Knapen_AOT/AOT_stimuli/rescaled_final/1647_rv.mp4	0.0	129.14978098869324	
18	113.65030789375305	fix_post	2		12	16.0	2.5	/experiments/Knapen_AOT/AOT_stimuli/rescaled_final/1647_rv.mp4	0.0	130.06775832176208	0.09999203681945801
19	113.75029993057251	fix_pre	0		120	17.0	2.5	/experiments/Knapen_AOT/AOT_stimuli/rescaled_final/1370_fw.mp4	0.0	130.16775035858154	1.0085108280181885
19	114.33419132232666	pulse	0	t		17.0	2.5	/experiments/Knapen_AOT/AOT_stimuli/rescaled_final/1370_fw.mp4	0.0	130.7516417503357	
19	114.7588107585907	movie	1		275	17.0	2.5	/experiments/Knapen_AOT/AOT_stimuli/rescaled_final/1370_fw.mp4	0.0	131.17626118659973	2.4920058250427246
19	115.93248724937439	pulse	1	t		17.0	2.5	/experiments/Knapen_AOT/AOT_stimuli/rescaled_final/1370_fw.mp4	0.0	132.34993767738342	
19	117.25081658363342	fix_post	2		12	17.0	2.5	/experiments/Knapen_AOT/AOT_stimuli/rescaled_final/1370_fw.mp4	0.0	133.66826701164246	0.10001397132873535
20	117.35083055496216	fix_pre	0		120	18.0	2.5	/experiments/Knapen_AOT/AOT_stimuli/rescaled_final/1706_fw.mp4	0.0	133.7682809829712	1.008507251739502
20	117.5343873500824	pulse	0	t		18.0	2.5	/experiments/Knapen_AOT/AOT_stimuli/rescaled_final/1706_fw.mp4	0.0	133.95183777809143	
20	118.35933780670166	movie	1		285	18.0	2.5	/experiments/Knapen_AOT/AOT_stimuli/rescaled_final/1706_fw.mp4	0.0	134.7767882347107	2.492042303085327
20	119.13264584541321	pulse	1	t		18.0	2.5	/experiments/Knapen_AOT/AOT_stimuli/rescaled_final/1706_fw.mp4	0.0	135.55009627342224	
20	120.72728681564331	pulse	1	t		18.0	2.5	/experiments/Knapen_AOT/AOT_stimuli/rescaled_final/1706_fw.mp4	0.0	137.14473724365234	
20	120.85138010978699	fix_post	2		12	18.0	2.5	/experiments/Knapen_AOT/AOT_stimuli/rescaled_final/1706_fw.mp4	0.0	137.26883053779602	0.10003042221069336
21	120.95141053199768	fix_pre	0		120	19.0	2.5	/experiments/Knapen_AOT/AOT_stimuli/rescaled_final/0661_fw.mp4	0.0	137.3688609600067	1.0085525512695312
21	121.95996308326721	movie	1		284	19.0	2.5	/experiments/Knapen_AOT/AOT_stimuli/rescaled_final/0661_fw.mp4	0.0	138.37741351127625	2.492171049118042
21	122.32699966430664	pulse	1	t		19.0	2.5	/experiments/Knapen_AOT/AOT_stimuli/rescaled_final/0661_fw.mp4	0.0	138.74445009231567	
21	123.9273419380188	pulse	1	t		19.0	2.5	/experiments/Knapen_AOT/AOT_stimuli/rescaled_final/0661_fw.mp4	0.0	140.34479236602783	
21	124.45213413238525	fix_post	2		12	19.0	2.5	/experiments/Knapen_AOT/AOT_stimuli/rescaled_final/0661_fw.mp4	0.0	140.8695845603943	0.09977912902832031
22	124.55191326141357	fix_pre	0		118	20.0	2.5	/experiments/Knapen_AOT/AOT_stimuli/rescaled_final/1410_fw.mp4	0.0	140.9693636894226	0.9918162822723389
22	125.52729225158691	pulse	0	t		20.0	2.5	/experiments/Knapen_AOT/AOT_stimuli/rescaled_final/1410_fw.mp4	0.0	141.94474267959595	
22	125.54372954368591	movie	1		285	20.0	2.5	/experiments/Knapen_AOT/AOT_stimuli/rescaled_final/1410_fw.mp4	0.0	141.96117997169495	2.500399351119995
22	127.12757134437561	pulse	1	t		20.0	2.5	/experiments/Knapen_AOT/AOT_stimuli/rescaled_final/1410_fw.mp4	0.0	143.54502177238464	
22	128.0441288948059	fix_post	2		12	20.0	2.5	/experiments/Knapen_AOT/AOT_stimuli/rescaled_final/1410_fw.mp4	0.0	144.46157932281494	0.10019779205322266
23	128.14432668685913	fix_pre	0		120	21.0	2.5	blank	1.0	144.56177711486816	0.9999628067016602
23	128.72777605056763	pulse	0	t		21.0	2.5	blank	1.0	145.14522647857666	
23	129.1442894935608	movie	1		300	21.0	2.5	blank	1.0	145.56173992156982	2.500391721725464
23	130.32804155349731	pulse	1	t		21.0	2.5	blank	1.0	146.74549198150635	
23	131.64468121528625	fix_post	2		12	21.0	2.5	blank	1.0	148.0621316432953	0.10000205039978027
24	131.74468326568604	fix_pre	0		120	22.0	2.5	/experiments/Knapen_AOT/AOT_stimuli/rescaled_final/1496_rv.mp4	0.0	148.16213369369507	1.00848388671875
24	131.92824840545654	pulse	0	t		22.0	2.5	/experiments/Knapen_AOT/AOT_stimuli/rescaled_final/1496_rv.mp4	0.0	148.34569883346558	
24	132.75316715240479	movie	1		282	22.0	2.5	/experiments/Knapen_AOT/AOT_stimuli/rescaled_final/1496_rv.mp4	0.0	149.17061758041382	2.492016315460205
24	133.5284628868103	pulse	1	t		22.0	2.5	/experiments/Knapen_AOT/AOT_stimuli/rescaled_final/1496_rv.mp4	0.0	149.94591331481934	
24	135.12688851356506	pulse	1	t		22.0	2.5	/experiments/Knapen_AOT/AOT_stimuli/rescaled_final/1496_rv.mp4	0.0	151.5443389415741	
24	135.245183467865	fix_post	2		12	22.0	2.5	/experiments/Knapen_AOT/AOT_stimuli/rescaled_final/1496_rv.mp4	0.0	151.66263389587402	0.10001754760742188
25	135.3452010154724	fix_pre	0		120	23.0	2.5	/experiments/Knapen_AOT/AOT_stimuli/rescaled_final/1884_fw.mp4	0.0	151.76265144348145	1.0084948539733887
25	136.3536958694458	movie	1		287	23.0	2.5	/experiments/Knapen_AOT/AOT_stimuli/rescaled_final/1884_fw.mp4	0.0	152.77114629745483	2.4920530319213867
25	136.72790122032166	pulse	1	t		23.0	2.5	/experiments/Knapen_AOT/AOT_stimuli/rescaled_final/1884_fw.mp4	0.0	153.1453516483307	
25	138.3273811340332	pulse	1	t		23.0	2.5	/experiments/Knapen_AOT/AOT_stimuli/rescaled_final/1884_fw.mp4	0.0	154.74483156204224	
25	138.8457489013672	fix_post	2		12	23.0	2.5	/experiments/Knapen_AOT/AOT_stimuli/rescaled_final/1884_fw.mp4	0.0	155.26319932937622	0.10000157356262207
26	138.9457504749298	fix_pre	0		119	24.0	2.5	/experiments/Knapen_AOT/AOT_stimuli/rescaled_final/1151_fw.mp4	0.0	155.36320090293884	1.000136375427246
26	139.92943668365479	pulse	0	t		24.0	2.5	/experiments/Knapen_AOT/AOT_stimuli/rescaled_final/1151_fw.mp4	0.0	156.34688711166382	
26	139.94588685035706	movie	1		289	24.0	2.5	/experiments/Knapen_AOT/AOT_stimuli/rescaled_final/1151_fw.mp4	0.0	156.3633372783661	2.5003886222839355
26	141.5282793045044	pulse	1	t		24.0	2.5	/experiments/Knapen_AOT/AOT_stimuli/rescaled_final/1151_fw.mp4	0.0	157.94572973251343	
26	142.446275472641	fix_post	2		12	24.0	2.5	/experiments/Knapen_AOT/AOT_stimuli/rescaled_final/1151_fw.mp4	0.0	158.86372590065002	0.10000228881835938
27	142.54627776145935	fix_pre	0		120	25.0	2.5	/experiments/Knapen_AOT/AOT_stimuli/rescaled_final/1782_fw.mp4	0.0	158.96372818946838	1.00852632522583
27	143.12996196746826	pulse	0	t		25.0	2.5	/experiments/Knapen_AOT/AOT_stimuli/rescaled_final/1782_fw.mp4	0.0	159.5474123954773	
27	143.55480408668518	movie	1		288	25.0	2.5	/experiments/Knapen_AOT/AOT_stimuli/rescaled_final/1782_fw.mp4	0.0	159.9722545146942	2.491999626159668
27	144.7283444404602	pulse	1	t		25.0	2.5	/experiments/Knapen_AOT/AOT_stimuli/rescaled_final/1782_fw.mp4	0.0	161.14579486846924	
27	146.04680371284485	fix_post	2		12	25.0	2.5	/experiments/Knapen_AOT/AOT_stimuli/rescaled_final/1782_fw.mp4	0.0	162.46425414085388	0.10013461112976074
28	146.1469383239746	fix_pre	0		120	26.0	2.5	blank	1.0	162.56438875198364	1.0000200271606445
28	146.3306758403778	pulse	0	t		26.0	2.5	blank	1.0	162.74812626838684	
28	147.14695835113525	movie	1		300	26.0	2.5	blank	1.0	163.5644087791443	2.500518560409546
28	147.93099904060364	pulse	1	t		26.0	2.5	blank	1.0	164.34844946861267	
28	149.5311794281006	pulse	1	t		26.0	2.5	blank	1.0	165.94862985610962	
28	149.6474769115448	fix_post	2		12	26.0	2.5	blank	1.0	166.06492733955383	0.0999290943145752
29	149.74740600585938	fix_pre	0		120	27.0	2.5	/experiments/Knapen_AOT/AOT_stimuli/rescaled_final/0616_rv.mp4	0.0	166.1648564338684	1.0084507465362549
29	150.75585675239563	movie	1		281	27.0	2.5	/experiments/Knapen_AOT/AOT_stimuli/rescaled_final/0616_rv.mp4	0.0	167.17330718040466	2.4920449256896973
29	151.12968802452087	pulse	1	t		27.0	2.5	/experiments/Knapen_AOT/AOT_stimuli/rescaled_final/0616_rv.mp4	0.0	167.5471384525299	
29	152.72932505607605	pulse	1	t		27.0	2.5	/experiments/Knapen_AOT/AOT_stimuli/rescaled_final/0616_rv.mp4	0.0	169.14677548408508	
29	153.24790167808533	fix_post	2		12	27.0	2.5	/experiments/Knapen_AOT/AOT_stimuli/rescaled_final/0616_rv.mp4	0.0	169.66535210609436	0.10001182556152344
30	153.34791350364685	fix_pre	0		119	28.0	2.5	/experiments/Knapen_AOT/AOT_stimuli/rescaled_final/2130_rv.mp4	0.0	169.76536393165588	1.0002365112304688
30	154.33165097236633	pulse	0	t		28.0	2.5	/experiments/Knapen_AOT/AOT_stimuli/rescaled_final/2130_rv.mp4	0.0	170.74910140037537	
30	154.34815001487732	movie	1		291	28.0	2.5	/experiments/Knapen_AOT/AOT_stimuli/rescaled_final/2130_rv.mp4	0.0	170.76560044288635	2.500274896621704
30	155.9303915500641	pulse	1	t		28.0	2.5	/experiments/Knapen_AOT/AOT_stimuli/rescaled_final/2130_rv.mp4	0.0	172.34784197807312	
30	156.84842491149902	fix_post	2		12	28.0	2.5	/experiments/Knapen_AOT/AOT_stimuli/rescaled_final/2130_rv.mp4	0.0	173.26587533950806	0.10005521774291992
31	156.94848012924194	fix_pre	0		120	29.0	2.5	/experiments/Knapen_AOT/AOT_stimuli/rescaled_final/1303_fw.mp4	0.0	173.36593055725098	1.008467674255371
31	157.53210043907166	pulse	0	t		29.0	2.5	/experiments/Knapen_AOT/AOT_stimuli/rescaled_final/1303_fw.mp4	0.0	173.9495508670807	
31	157.95694780349731	movie	1		275	29.0	2.5	/experiments/Knapen_AOT/AOT_stimuli/rescaled_final/1303_fw.mp4	0.0	174.37439823150635	2.4920260906219482
31	159.1302888393402	pulse	1	t		29.0	2.5	/experiments/Knapen_AOT/AOT_stimuli/rescaled_final/1303_fw.mp4	0.0	175.54773926734924	
31	160.44897389411926	fix_post	2		12	29.0	2.5	/experiments/Knapen_AOT/AOT_stimuli/rescaled_final/1303_fw.mp4	0.0	176.8664243221283	0.10000848770141602
32	160.54898238182068	fix_pre	0		120	30.0	2.5	/experiments/Knapen_AOT/AOT_stimuli/rescaled_final/0391_fw.mp4	0.0	176.9664328098297	1.0085525512695312
32	160.7326056957245	pulse	0	t		30.0	2.5	/experiments/Knapen_AOT/AOT_stimuli/rescaled_final/0391_fw.mp4	0.0	177.15005612373352	
32	161.5575349330902	movie	1		288	30.0	2.5	/experiments/Knapen_AOT/AOT_stimuli/rescaled_final/0391_fw.mp4	0.0	177.97498536109924	2.4919869899749756
32	162.33076333999634	pulse	1	t		30.0	2.5	/experiments/Knapen_AOT/AOT_stimuli/rescaled_final/0391_fw.mp4	0.0	178.74821376800537	
32	163.93102097511292	pulse	1	t		30.0	2.5	/experiments/Knapen_AOT/AOT_stimuli/rescaled_final/0391_fw.mp4	0.0	180.34847140312195	
32	164.04952192306519	fix_post	2		12	30.0	2.5	/experiments/Knapen_AOT/AOT_stimuli/rescaled_final/0391_fw.mp4	0.0	180.46697235107422	0.10001754760742188
33	164.1495394706726	fix_pre	0		120	31.0	2.5	/experiments/Knapen_AOT/AOT_stimuli/rescaled_final/1529_fw.mp4	0.0	180.56698989868164	1.0086231231689453
33	165.15816259384155	movie	1		279	31.0	2.5	/experiments/Knapen_AOT/AOT_stimuli/rescaled_final/1529_fw.mp4	0.0	181.5756130218506	2.4920215606689453
33	165.53155183792114	pulse	1	t		31.0	2.5	/experiments/Knapen_AOT/AOT_stimuli/rescaled_final/1529_fw.mp4	0.0	181.94900226593018	
33	167.13142728805542	pulse	1	t		31.0	2.5	/experiments/Knapen_AOT/AOT_stimuli/rescaled_final/1529_fw.mp4	0.0	183.54887771606445	
33	167.6501841545105	fix_post	2		12	31.0	2.5	/experiments/Knapen_AOT/AOT_stimuli/rescaled_final/1529_fw.mp4	0.0	184.06763458251953	0.10000109672546387
34	167.75018525123596	fix_pre	0		119	32.0	2.5	/experiments/Knapen_AOT/AOT_stimuli/rescaled_final/1295_rv.mp4	0.0	184.167635679245	1.0000355243682861
34	168.73403668403625	pulse	0	t		32.0	2.5	/experiments/Knapen_AOT/AOT_stimuli/rescaled_final/1295_rv.mp4	0.0	185.1514871120453	
34	168.75022077560425	movie	1		268	32.0	2.5	/experiments/Knapen_AOT/AOT_stimuli/rescaled_final/1295_rv.mp4	0.0	185.16767120361328	2.500385284423828
34	170.33253026008606	pulse	1	t		32.0	2.5	/experiments/Knapen_AOT/AOT_stimuli/rescaled_final/1295_rv.mp4	0.0	186.7499806880951	
34	171.25060606002808	fix_post	2		12	32.0	2.5	/experiments/Knapen_AOT/AOT_stimuli/rescaled_final/1295_rv.mp4	0.0	187.6680564880371	0.10007023811340332
35	171.35067629814148	fix_pre	0		120	33.0	2.5	blank	1.0	187.7681267261505	1.0000700950622559
35	171.92623734474182	pulse	0	t		33.0	2.5	blank	1.0	188.34368777275085	
35	172.35074639320374	movie	1		300	33.0	2.5	blank	1.0	188.76819682121277	2.500455379486084
35	173.52619671821594	pulse	1	t		33.0	2.5	blank	1.0	189.94364714622498	
35	174.85120177268982	fix_post	2		12	33.0	2.5	blank	1.0	191.26865220069885	0.10008978843688965
36	174.9512915611267	fix_pre	0		120	34.0	2.5	/experiments/Knapen_AOT/AOT_stimuli/rescaled_final/1735_rv.mp4	0.0	191.36874198913574	1.0083537101745605
36	175.12648010253906	pulse	0	t		34.0	2.5	/experiments/Knapen_AOT/AOT_stimuli/rescaled_final/1735_rv.mp4	0.0	191.5439305305481	
36	175.95964527130127	movie	1		285	34.0	2.5	/experiments/Knapen_AOT/AOT_stimuli/rescaled_final/1735_rv.mp4	0.0	192.3770956993103	2.492053747177124
36	176.72664952278137	pulse	1	t		34.0	2.5	/experiments/Knapen_AOT/AOT_stimuli/rescaled_final/1735_rv.mp4	0.0	193.1440999507904	
36	178.32686924934387	pulse	1	t		34.0	2.5	/experiments/Knapen_AOT/AOT_stimuli/rescaled_final/1735_rv.mp4	0.0	194.7443196773529	
36	178.4516990184784	fix_post	2		12	34.0	2.5	/experiments/Knapen_AOT/AOT_stimuli/rescaled_final/1735_rv.mp4	0.0	194.86914944648743	0.10001420974731445
37	178.5517132282257	fix_pre	0		120	35.0	2.5	/experiments/Knapen_AOT/AOT_stimuli/rescaled_final/0325_fw.mp4	0.0	194.96916365623474	1.0085604190826416
37	179.56027364730835	movie	1		285	35.0	2.5	/experiments/Knapen_AOT/AOT_stimuli/rescaled_final/0325_fw.mp4	0.0	195.97772407531738	2.491966962814331
37	179.92712783813477	pulse	1	t		35.0	2.5	/experiments/Knapen_AOT/AOT_stimuli/rescaled_final/0325_fw.mp4	0.0	196.3445782661438	
37	181.52744817733765	pulse	1	t		35.0	2.5	/experiments/Knapen_AOT/AOT_stimuli/rescaled_final/0325_fw.mp4	0.0	197.94489860534668	
37	182.05224061012268	fix_post	2		12	35.0	2.5	/experiments/Knapen_AOT/AOT_stimuli/rescaled_final/0325_fw.mp4	0.0	198.4696910381317	0.10010075569152832
38	182.1523413658142	fix_pre	0		118	36.0	2.5	/experiments/Knapen_AOT/AOT_stimuli/rescaled_final/0646_rv.mp4	0.0	198.56979179382324	0.9917418956756592
38	183.12758612632751	pulse	0	t		36.0	2.5	/experiments/Knapen_AOT/AOT_stimuli/rescaled_final/0646_rv.mp4	0.0	199.54503655433655	
38	183.14408326148987	movie	1		286	36.0	2.5	/experiments/Knapen_AOT/AOT_stimuli/rescaled_final/0646_rv.mp4	0.0	199.5615336894989	2.500370740890503
38	184.72657656669617	pulse	1	t		36.0	2.5	/experiments/Knapen_AOT/AOT_stimuli/rescaled_final/0646_rv.mp4	0.0	201.1440269947052	
38	185.64445400238037	fix_post	2		12	36.0	2.5	/experiments/Knapen_AOT/AOT_stimuli/rescaled_final/0646_rv.mp4	0.0	202.0619044303894	0.1000213623046875
39	185.74447536468506	fix_pre	0		120	37.0	2.5	/experiments/Knapen_AOT/AOT_stimuli/rescaled_final/1455_rv.mp4	0.0	202.1619257926941	1.0085270404815674
39	186.3280930519104	pulse	0	t		37.0	2.5	/experiments/Knapen_AOT/AOT_stimuli/rescaled_final/1455_rv.mp4	0.0	202.74554347991943	
39	186.75300240516663	movie	1		288	37.0	2.5	/experiments/Knapen_AOT/AOT_stimuli/rescaled_final/1455_rv.mp4	0.0	203.17045283317566	2.491953134536743
39	187.92685961723328	pulse	1	t		37.0	2.5	/experiments/Knapen_AOT/AOT_stimuli/rescaled_final/1455_rv.mp4	0.0	204.3443100452423	
39	189.24495553970337	fix_post	2		12	37.0	2.5	/experiments/Knapen_AOT/AOT_stimuli/rescaled_final/1455_rv.mp4	0.0	205.6624059677124	0.10004067420959473
40	189.34499621391296	fix_pre	0		120	38.0	2.5	/experiments/Knapen_AOT/AOT_stimuli/rescaled_final/1428_fw.mp4	0.0	205.762446641922	1.008528709411621
40	189.52885174751282	pulse	0	t		38.0	2.5	/experiments/Knapen_AOT/AOT_stimuli/rescaled_final/1428_fw.mp4	0.0	205.94630217552185	
40	190.35352492332458	movie	1		284	38.0	2.5	/experiments/Knapen_AOT/AOT_stimuli/rescaled_final/1428_fw.mp4	0.0	206.77097535133362	2.491985321044922
40	191.1271312236786	pulse	1	t		38.0	2.5	/experiments/Knapen_AOT/AOT_stimuli/rescaled_final/1428_fw.mp4	0.0	207.54458165168762	
40	192.72732257843018	pulse	1	t		38.0	2.5	/experiments/Knapen_AOT/AOT_stimuli/rescaled_final/1428_fw.mp4	0.0	209.1447730064392	
40	192.8455102443695	fix_post	2		12	38.0	2.5	/experiments/Knapen_AOT/AOT_stimuli/rescaled_final/1428_fw.mp4	0.0	209.26296067237854	0.10000872611999512
41	192.9455189704895	fix_pre	0		120	39.0	2.5	/experiments/Knapen_AOT/AOT_stimuli/rescaled_final/1161_rv.mp4	0.0	209.36296939849854	1.008488655090332
41	193.95400762557983	movie	1		281	39.0	2.5	/experiments/Knapen_AOT/AOT_stimuli/rescaled_final/1161_rv.mp4	0.0	210.37145805358887	2.4920899868011475
41	194.32955312728882	pulse	1	t		39.0	2.5	/experiments/Knapen_AOT/AOT_stimuli/rescaled_final/1161_rv.mp4	0.0	210.74700355529785	
41	195.92758440971375	pulse	1	t		39.0	2.5	/experiments/Knapen_AOT/AOT_stimuli/rescaled_final/1161_rv.mp4	0.0	212.34503483772278	
41	196.44609761238098	fix_post	2		12	39.0	2.5	/experiments/Knapen_AOT/AOT_stimuli/rescaled_final/1161_rv.mp4	0.0	212.86354804039001	0.0999898910522461
42	196.54608750343323	fix_pre	0		119	40.0	2.5	blank	1.0	212.96353793144226	0.9917745590209961
42	197.5298547744751	pulse	0	t		40.0	2.5	blank	1.0	213.94730520248413	
42	197.53786206245422	movie	1		301	40.0	2.5	blank	1.0	213.95531249046326	2.5087544918060303
42	199.1300208568573	pulse	1	t		40.0	2.5	blank	1.0	215.54747128486633	
42	200.04661655426025	fix_post	2		12	40.0	2.5	blank	1.0	216.4640669822693	0.10004734992980957
43	200.14666390419006	fix_pre	0		120	41.0	2.5	/experiments/Knapen_AOT/AOT_stimuli/rescaled_final/0047_fw.mp4	0.0	216.5641143321991	1.0084881782531738
43	200.7303159236908	pulse	0	t		41.0	2.5	/experiments/Knapen_AOT/AOT_stimuli/rescaled_final/0047_fw.mp4	0.0	217.14776635169983	
43	201.15515208244324	movie	1		285	41.0	2.5	/experiments/Knapen_AOT/AOT_stimuli/rescaled_final/0047_fw.mp4	0.0	217.57260251045227	2.4920034408569336
43	202.32874751091003	pulse	1	t		41.0	2.5	/experiments/Knapen_AOT/AOT_stimuli/rescaled_final/0047_fw.mp4	0.0	218.74619793891907	
43	203.64715552330017	fix_post	2		12	41.0	2.5	/experiments/Knapen_AOT/AOT_stimuli/rescaled_final/0047_fw.mp4	0.0	220.0646059513092	0.10015010833740234
44	203.74730563163757	fix_pre	0		120	42.0	2.5	/experiments/Knapen_AOT/AOT_stimuli/rescaled_final/1565_fw.mp4	0.0	220.1647560596466	1.008469820022583
44	203.93106055259705	pulse	0	t		42.0	2.5	/experiments/Knapen_AOT/AOT_stimuli/rescaled_final/1565_fw.mp4	0.0	220.34851098060608	
44	204.75577545166016	movie	1		288	42.0	2.5	/experiments/Knapen_AOT/AOT_stimuli/rescaled_final/1565_fw.mp4	0.0	221.1732258796692	2.491931676864624
44	205.5292453765869	pulse	1	t		42.0	2.5	/experiments/Knapen_AOT/AOT_stimuli/rescaled_final/1565_fw.mp4	0.0	221.94669580459595	
44	207.12901377677917	pulse	1	t		42.0	2.5	/experiments/Knapen_AOT/AOT_stimuli/rescaled_final/1565_fw.mp4	0.0	223.5464642047882	
44	207.24770712852478	fix_post	2		12	42.0	2.5	/experiments/Knapen_AOT/AOT_stimuli/rescaled_final/1565_fw.mp4	0.0	223.6651575565338	0.09999728202819824
45	207.34770441055298	fix_pre	0		120	43.0	2.5	/experiments/Knapen_AOT/AOT_stimuli/rescaled_final/0659_rv.mp4	0.0	223.765154838562	1.008504867553711
45	208.3562092781067	movie	1		279	43.0	2.5	/experiments/Knapen_AOT/AOT_stimuli/rescaled_final/0659_rv.mp4	0.0	224.77365970611572	2.5004053115844727
45	208.73082661628723	pulse	1	t		43.0	2.5	/experiments/Knapen_AOT/AOT_stimuli/rescaled_final/0659_rv.mp4	0.0	225.14827704429626	
45	210.33020329475403	pulse	1	t		43.0	2.5	/experiments/Knapen_AOT/AOT_stimuli/rescaled_final/0659_rv.mp4	0.0	226.74765372276306	
45	210.85661458969116	fix_post	2		11	43.0	2.5	/experiments/Knapen_AOT/AOT_stimuli/rescaled_final/0659_rv.mp4	0.0	227.2740650177002	0.09166884422302246
46	210.94828343391418	fix_pre	0		119	44.0	2.5	/experiments/Knapen_AOT/AOT_stimuli/rescaled_final/0618_rv.mp4	0.0	227.36573386192322	1.000117540359497
46	211.9320411682129	pulse	0	t		44.0	2.5	/experiments/Knapen_AOT/AOT_stimuli/rescaled_final/0618_rv.mp4	0.0	228.34949159622192	
46	211.94840097427368	movie	1		279	44.0	2.5	/experiments/Knapen_AOT/AOT_stimuli/rescaled_final/0618_rv.mp4	0.0	228.36585140228271	2.5003538131713867
46	213.53038597106934	pulse	1	t		44.0	2.5	/experiments/Knapen_AOT/AOT_stimuli/rescaled_final/0618_rv.mp4	0.0	229.94783639907837	
46	214.44875478744507	fix_post	2		12	44.0	2.5	/experiments/Knapen_AOT/AOT_stimuli/rescaled_final/0618_rv.mp4	0.0	230.8662052154541	0.10007739067077637
47	214.54883217811584	fix_pre	0		120	45.0	2.5	/experiments/Knapen_AOT/AOT_stimuli/rescaled_final/1455_fw.mp4	0.0	230.96628260612488	1.0085139274597168
47	215.13244795799255	pulse	0	t		45.0	2.5	/experiments/Knapen_AOT/AOT_stimuli/rescaled_final/1455_fw.mp4	0.0	231.5498983860016	
47	215.55734610557556	movie	1		263	45.0	2.5	/experiments/Knapen_AOT/AOT_stimuli/rescaled_final/1455_fw.mp4	0.0	231.9747965335846	2.4920995235443115
47	216.7311146259308	pulse	1	t		45.0	2.5	/experiments/Knapen_AOT/AOT_stimuli/rescaled_final/1455_fw.mp4	0.0	233.14856505393982	
47	218.04944562911987	fix_post	2		12	45.0	2.5	/experiments/Knapen_AOT/AOT_stimuli/rescaled_final/1455_fw.mp4	0.0	234.4668960571289	0.09987831115722656
48	218.1493239402771	fix_pre	0		120	46.0	2.5	/experiments/Knapen_AOT/AOT_stimuli/rescaled_final/0056_fw.mp4	0.0	234.56677436828613	1.0085163116455078
48	218.33292293548584	pulse	0	t		46.0	2.5	/experiments/Knapen_AOT/AOT_stimuli/rescaled_final/0056_fw.mp4	0.0	234.75037336349487	
48	219.1578402519226	movie	1		287	46.0	2.5	/experiments/Knapen_AOT/AOT_stimuli/rescaled_final/0056_fw.mp4	0.0	235.57529067993164	2.4920122623443604
48	219.93128776550293	pulse	1	t		46.0	2.5	/experiments/Knapen_AOT/AOT_stimuli/rescaled_final/0056_fw.mp4	0.0	236.34873819351196	
48	221.53131818771362	pulse	1	t		46.0	2.5	/experiments/Knapen_AOT/AOT_stimuli/rescaled_final/0056_fw.mp4	0.0	237.94876861572266	
48	221.64985251426697	fix_post	2		12	46.0	2.5	/experiments/Knapen_AOT/AOT_stimuli/rescaled_final/0056_fw.mp4	0.0	238.067302942276	0.10000896453857422
49	221.74986147880554	fix_pre	0		120	47.0	2.5	/experiments/Knapen_AOT/AOT_stimuli/rescaled_final/1380_fw.mp4	0.0	238.16731190681458	1.0085067749023438
49	222.75836825370789	movie	1		278	47.0	2.5	/experiments/Knapen_AOT/AOT_stimuli/rescaled_final/1380_fw.mp4	0.0	239.17581868171692	2.492025136947632
49	223.1324999332428	pulse	1	t		47.0	2.5	/experiments/Knapen_AOT/AOT_stimuli/rescaled_final/1380_fw.mp4	0.0	239.54995036125183	
49	224.73165559768677	pulse	1	t		47.0	2.5	/experiments/Knapen_AOT/AOT_stimuli/rescaled_final/1380_fw.mp4	0.0	241.1491060256958	
49	225.25039339065552	fix_post	2		12	47.0	2.5	/experiments/Knapen_AOT/AOT_stimuli/rescaled_final/1380_fw.mp4	0.0	241.66784381866455	0.10001301765441895
50	225.35040640830994	fix_pre	0		119	48.0	2.5	/experiments/Knapen_AOT/AOT_stimuli/rescaled_final/1136_fw.mp4	0.0	241.76785683631897	1.0001718997955322
50	226.33424401283264	pulse	0	t		48.0	2.5	/experiments/Knapen_AOT/AOT_stimuli/rescaled_final/1136_fw.mp4	0.0	242.75169444084167	
50	226.35057830810547	movie	1		282	48.0	2.5	/experiments/Knapen_AOT/AOT_stimuli/rescaled_final/1136_fw.mp4	0.0	242.7680287361145	2.5003573894500732
50	227.93264651298523	pulse	1	t		48.0	2.5	/experiments/Knapen_AOT/AOT_stimuli/rescaled_final/1136_fw.mp4	0.0	244.35009694099426	
50	228.85093569755554	fix_post	2		12	48.0	2.5	/experiments/Knapen_AOT/AOT_stimuli/rescaled_final/1136_fw.mp4	0.0	245.26838612556458	0.10002660751342773
51	228.95096230506897	fix_pre	0		120	49.0	2.5	blank	1.0	245.368412733078	1.0001678466796875
51	229.5269660949707	pulse	0	t		49.0	2.5	blank	1.0	245.94441652297974	
51	229.95113015174866	movie	1		300	49.0	2.5	blank	1.0	246.3685805797577	2.5003509521484375
51	231.12670159339905	pulse	1	t		49.0	2.5	blank	1.0	247.54415202140808	
51	232.4514811038971	fix_post	2		12	49.0	2.5	blank	1.0	248.86893153190613	0.10001564025878906
52	232.55149674415588	fix_pre	0		120	50.0	2.5	/experiments/Knapen_AOT/AOT_stimuli/rescaled_final/1096_fw.mp4	0.0	248.96894717216492	1.0084903240203857
52	232.72672724723816	pulse	0	t		50.0	2.5	/experiments/Knapen_AOT/AOT_stimuli/rescaled_final/1096_fw.mp4	0.0	249.1441776752472	
52	233.55998706817627	movie	1		283	50.0	2.5	/experiments/Knapen_AOT/AOT_stimuli/rescaled_final/1096_fw.mp4	0.0	249.9774374961853	2.4920153617858887
52	234.32701420783997	pulse	1	t		50.0	2.5	/experiments/Knapen_AOT/AOT_stimuli/rescaled_final/1096_fw.mp4	0.0	250.744464635849	
52	235.92739081382751	pulse	1	t		50.0	2.5	/experiments/Knapen_AOT/AOT_stimuli/rescaled_final/1096_fw.mp4	0.0	252.34484124183655	
52	236.05200242996216	fix_post	2		12	50.0	2.5	/experiments/Knapen_AOT/AOT_stimuli/rescaled_final/1096_fw.mp4	0.0	252.4694528579712	0.10004925727844238
53	236.1520516872406	fix_pre	0		120	51.0	2.5	/experiments/Knapen_AOT/AOT_stimuli/rescaled_final/1706_fw.mp4	0.0	252.56950211524963	1.0084872245788574
53	237.16053891181946	movie	1		272	51.0	2.5	/experiments/Knapen_AOT/AOT_stimuli/rescaled_final/1706_fw.mp4	0.0	253.5779893398285	2.4920237064361572
53	237.5269536972046	pulse	1	t		51.0	2.5	/experiments/Knapen_AOT/AOT_stimuli/rescaled_final/1706_fw.mp4	0.0	253.94440412521362	
53	239.12764239311218	pulse	1	t		51.0	2.5	/experiments/Knapen_AOT/AOT_stimuli/rescaled_final/1706_fw.mp4	0.0	255.54509282112122	
53	239.65256261825562	fix_post	2		12	51.0	2.5	/experiments/Knapen_AOT/AOT_stimuli/rescaled_final/1706_fw.mp4	0.0	256.07001304626465	0.10001063346862793
54	239.75257325172424	fix_pre	0		118	52.0	2.5	/experiments/Knapen_AOT/AOT_stimuli/rescaled_final/0718_rv.mp4	0.0	256.1700236797333	0.9918339252471924
54	240.72808575630188	pulse	0	t		52.0	2.5	/experiments/Knapen_AOT/AOT_stimuli/rescaled_final/0718_rv.mp4	0.0	257.1455361843109	
54	240.74440717697144	movie	1		279	52.0	2.5	/experiments/Knapen_AOT/AOT_stimuli/rescaled_final/0718_rv.mp4	0.0	257.16185760498047	2.500399351119995
54	242.3271837234497	pulse	1	t		52.0	2.5	/experiments/Knapen_AOT/AOT_stimuli/rescaled_final/0718_rv.mp4	0.0	258.74463415145874	
54	243.24480652809143	fix_post	2		12	52.0	2.5	/experiments/Knapen_AOT/AOT_stimuli/rescaled_final/0718_rv.mp4	0.0	259.66225695610046	0.09998750686645508
55	243.34479403495789	fix_pre	0		120	53.0	2.5	/experiments/Knapen_AOT/AOT_stimuli/rescaled_final/0966_fw.mp4	0.0	259.7622444629669	1.0084865093231201
55	243.92850756645203	pulse	0	t		53.0	2.5	/experiments/Knapen_AOT/AOT_stimuli/rescaled_final/0966_fw.mp4	0.0	260.34595799446106	
55	244.353280544281	movie	1		278	53.0	2.5	/experiments/Knapen_AOT/AOT_stimuli/rescaled_final/0966_fw.mp4	0.0	260.77073097229004	2.492030143737793
55	245.52698826789856	pulse	1	t		53.0	2.5	/experiments/Knapen_AOT/AOT_stimuli/rescaled_final/0966_fw.mp4	0.0	261.9444386959076	
55	246.8453106880188	fix_post	2		12	53.0	2.5	/experiments/Knapen_AOT/AOT_stimuli/rescaled_final/0966_fw.mp4	0.0	263.26276111602783	0.10001540184020996
56	246.945326089859	fix_pre	0		120	54.0	2.5	blank	1.0	263.36277651786804	1.0001416206359863
56	247.12889742851257	pulse	0	t		54.0	2.5	blank	1.0	263.5463478565216	
56	247.945467710495	movie	1		300	54.0	2.5	blank	1.0	264.362918138504	2.500373601913452
56	248.72931504249573	pulse	1	t		54.0	2.5	blank	1.0	265.14676547050476	
56	250.32946348190308	pulse	1	t		54.0	2.5	blank	1.0	266.7469139099121	
56	250.44584131240845	fix_post	2		12	54.0	2.5	blank	1.0	266.8632917404175	0.10001921653747559
57	250.54586052894592	fix_pre	0		120	55.0	2.5	/experiments/Knapen_AOT/AOT_stimuli/rescaled_final/2048_fw.mp4	0.0	266.96331095695496	1.008558750152588
57	251.5544192790985	movie	1		278	55.0	2.5	/experiments/Knapen_AOT/AOT_stimuli/rescaled_final/2048_fw.mp4	0.0	267.97186970710754	2.491964101791382
57	251.92840433120728	pulse	1	t		55.0	2.5	/experiments/Knapen_AOT/AOT_stimuli/rescaled_final/2048_fw.mp4	0.0	268.3458547592163	
57	253.52778959274292	pulse	1	t		55.0	2.5	/experiments/Knapen_AOT/AOT_stimuli/rescaled_final/2048_fw.mp4	0.0	269.94524002075195	
57	254.0463833808899	fix_post	2		12	55.0	2.5	/experiments/Knapen_AOT/AOT_stimuli/rescaled_final/2048_fw.mp4	0.0	270.4638338088989	0.10010647773742676
58	254.14648985862732	fix_pre	0		119	56.0	2.5	/experiments/Knapen_AOT/AOT_stimuli/rescaled_final/0967_fw.mp4	0.0	270.56394028663635	1.0001590251922607
58	255.1302502155304	pulse	0	t		56.0	2.5	/experiments/Knapen_AOT/AOT_stimuli/rescaled_final/0967_fw.mp4	0.0	271.54770064353943	
58	255.14664888381958	movie	1		278	56.0	2.5	/experiments/Knapen_AOT/AOT_stimuli/rescaled_final/0967_fw.mp4	0.0	271.5640993118286	2.5002713203430176
58	256.72865414619446	pulse	1	t		56.0	2.5	/experiments/Knapen_AOT/AOT_stimuli/rescaled_final/0967_fw.mp4	0.0	273.1461045742035	
58	257.6469202041626	fix_post	2		12	56.0	2.5	/experiments/Knapen_AOT/AOT_stimuli/rescaled_final/0967_fw.mp4	0.0	274.06437063217163	0.10003304481506348
59	257.74695324897766	fix_pre	0		120	57.0	2.5	/experiments/Knapen_AOT/AOT_stimuli/rescaled_final/0629_rv.mp4	0.0	274.1644036769867	1.0085346698760986
59	258.3308594226837	pulse	0	t		57.0	2.5	/experiments/Knapen_AOT/AOT_stimuli/rescaled_final/0629_rv.mp4	0.0	274.74830985069275	
59	258.75548791885376	movie	1		286	57.0	2.5	/experiments/Knapen_AOT/AOT_stimuli/rescaled_final/0629_rv.mp4	0.0	275.1729383468628	2.4919941425323486
59	259.9290175437927	pulse	1	t		57.0	2.5	/experiments/Knapen_AOT/AOT_stimuli/rescaled_final/0629_rv.mp4	0.0	276.34646797180176	
59	261.2474820613861	fix_post	2		12	57.0	2.5	/experiments/Knapen_AOT/AOT_stimuli/rescaled_final/0629_rv.mp4	0.0	277.66493248939514	0.1000223159790039
60	261.3475043773651	fix_pre	0		120	58.0	2.5	/experiments/Knapen_AOT/AOT_stimuli/rescaled_final/0722_fw.mp4	0.0	277.76495480537415	1.008507490158081
60	261.5311176776886	pulse	0	t		58.0	2.5	/experiments/Knapen_AOT/AOT_stimuli/rescaled_final/0722_fw.mp4	0.0	277.94856810569763	
60	262.3560118675232	movie	1		274	58.0	2.5	/experiments/Knapen_AOT/AOT_stimuli/rescaled_final/0722_fw.mp4	0.0	278.7734622955322	2.491992473602295
60	263.1295602321625	pulse	1	t		58.0	2.5	/experiments/Knapen_AOT/AOT_stimuli/rescaled_final/0722_fw.mp4	0.0	279.5470106601715	
60	264.73006439208984	pulse	1	t		58.0	2.5	/experiments/Knapen_AOT/AOT_stimuli/rescaled_final/0722_fw.mp4	0.0	281.1475148200989	
60	264.8480043411255	fix_post	2		12	58.0	2.5	/experiments/Knapen_AOT/AOT_stimuli/rescaled_final/0722_fw.mp4	0.0	281.2654547691345	0.10004258155822754
61	264.9480469226837	fix_pre	0		120	59.0	2.5	/experiments/Knapen_AOT/AOT_stimuli/rescaled_final/0665_rv.mp4	0.0	281.36549735069275	1.008622169494629
61	265.95666909217834	movie	1		288	59.0	2.5	/experiments/Knapen_AOT/AOT_stimuli/rescaled_final/0665_rv.mp4	0.0	282.3741195201874	2.4919118881225586
61	266.33079981803894	pulse	1	t		59.0	2.5	/experiments/Knapen_AOT/AOT_stimuli/rescaled_final/0665_rv.mp4	0.0	282.748250246048	
61	267.93011474609375	pulse	1	t		59.0	2.5	/experiments/Knapen_AOT/AOT_stimuli/rescaled_final/0665_rv.mp4	0.0	284.3475651741028	
61	268.4485809803009	fix_post	2		12	59.0	2.5	/experiments/Knapen_AOT/AOT_stimuli/rescaled_final/0665_rv.mp4	0.0	284.86603140830994	0.10005497932434082
62	268.54863595962524	fix_pre	0		119	60.0	2.5	/experiments/Knapen_AOT/AOT_stimuli/rescaled_final/0840_rv.mp4	0.0	284.9660863876343	1.000145435333252
62	269.5323417186737	pulse	0	t		60.0	2.5	/experiments/Knapen_AOT/AOT_stimuli/rescaled_final/0840_rv.mp4	0.0	285.94979214668274	
62	269.5487813949585	movie	1		268	60.0	2.5	/experiments/Knapen_AOT/AOT_stimuli/rescaled_final/0840_rv.mp4	0.0	285.96623182296753	2.500436782836914
62	271.1313407421112	pulse	1	t		60.0	2.5	/experiments/Knapen_AOT/AOT_stimuli/rescaled_final/0840_rv.mp4	0.0	287.54879117012024	
62	272.0492181777954	fix_post	2		12	60.0	2.5	/experiments/Knapen_AOT/AOT_stimuli/rescaled_final/0840_rv.mp4	0.0	288.46666860580444	0.09990572929382324
63	272.14912390708923	fix_pre	0		120	61.0	2.5	/experiments/Knapen_AOT/AOT_stimuli/rescaled_final/1735_fw.mp4	0.0	288.56657433509827	1.0085046291351318
63	272.73275923728943	pulse	0	t		61.0	2.5	/experiments/Knapen_AOT/AOT_stimuli/rescaled_final/1735_fw.mp4	0.0	289.15020966529846	
63	273.15762853622437	movie	1		272	61.0	2.5	/experiments/Knapen_AOT/AOT_stimuli/rescaled_final/1735_fw.mp4	0.0	289.5750789642334	2.492039680480957
63	274.3312509059906	pulse	1	t		61.0	2.5	/experiments/Knapen_AOT/AOT_stimuli/rescaled_final/1735_fw.mp4	0.0	290.74870133399963	
63	275.6496682167053	fix_post	2		12	61.0	2.5	/experiments/Knapen_AOT/AOT_stimuli/rescaled_final/1735_fw.mp4	0.0	292.06711864471436	0.09997749328613281
64	275.74964570999146	fix_pre	0		120	62.0	2.5	/experiments/Knapen_AOT/AOT_stimuli/rescaled_final/1880_rv.mp4	0.0	292.1670961380005	1.0085506439208984
64	275.9332046508789	pulse	0	t		62.0	2.5	/experiments/Knapen_AOT/AOT_stimuli/rescaled_final/1880_rv.mp4	0.0	292.35065507888794	
64	276.75819635391235	movie	1		276	62.0	2.5	/experiments/Knapen_AOT/AOT_stimuli/rescaled_final/1880_rv.mp4	0.0	293.1756467819214	2.4919731616973877
64	277.533789396286	pulse	1	t		62.0	2.5	/experiments/Knapen_AOT/AOT_stimuli/rescaled_final/1880_rv.mp4	0.0	293.95123982429504	
64	279.1329028606415	pulse	1	t		62.0	2.5	/experiments/Knapen_AOT/AOT_stimuli/rescaled_final/1880_rv.mp4	0.0	295.5503532886505	
64	279.25016951560974	fix_post	2		12	62.0	2.5	/experiments/Knapen_AOT/AOT_stimuli/rescaled_final/1880_rv.mp4	0.0	295.6676199436188	0.10001921653747559
65	279.3501887321472	fix_pre	0		120	63.0	2.5	blank	1.0	295.76763916015625	1.0001325607299805
65	280.3503212928772	movie	1		300	63.0	2.5	blank	1.0	296.76777172088623	2.500393867492676
65	280.73401045799255	pulse	1	t		63.0	2.5	blank	1.0	297.1514608860016	
65	282.3341796398163	pulse	1	t		63.0	2.5	blank	1.0	298.7516300678253	
65	282.8507151603699	fix_post	2		12	63.0	2.5	blank	1.0	299.2681655883789	0.1000356674194336
66	282.9507508277893	fix_pre	0		119	64.0	2.5	/experiments/Knapen_AOT/AOT_stimuli/rescaled_final/1379_rv.mp4	0.0	299.36820125579834	1.0001485347747803
66	283.93449091911316	pulse	0	t		64.0	2.5	/experiments/Knapen_AOT/AOT_stimuli/rescaled_final/1379_rv.mp4	0.0	300.3519413471222	
66	283.9508993625641	movie	1		282	64.0	2.5	/experiments/Knapen_AOT/AOT_stimuli/rescaled_final/1379_rv.mp4	0.0	300.3683497905731	2.500373601913452
66	285.5348918437958	pulse	1	t		64.0	2.5	/experiments/Knapen_AOT/AOT_stimuli/rescaled_final/1379_rv.mp4	0.0	301.9523422718048	
66	286.45127296447754	fix_post	2		12	64.0	2.5	/experiments/Knapen_AOT/AOT_stimuli/rescaled_final/1379_rv.mp4	0.0	302.8687233924866	0.10003948211669922
67	286.55131244659424	fix_pre	0		120	65.0	2.5	/experiments/Knapen_AOT/AOT_stimuli/rescaled_final/0678_rv.mp4	0.0	302.96876287460327	1.008486270904541
67	287.12729263305664	pulse	0	t		65.0	2.5	/experiments/Knapen_AOT/AOT_stimuli/rescaled_final/0678_rv.mp4	0.0	303.5447430610657	
67	287.5597987174988	movie	1		279	65.0	2.5	/experiments/Knapen_AOT/AOT_stimuli/rescaled_final/0678_rv.mp4	0.0	303.9772491455078	2.492016077041626
67	288.72706937789917	pulse	1	t		65.0	2.5	/experiments/Knapen_AOT/AOT_stimuli/rescaled_final/0678_rv.mp4	0.0	305.1445198059082	
67	290.0518147945404	fix_post	2		12	65.0	2.5	/experiments/Knapen_AOT/AOT_stimuli/rescaled_final/0678_rv.mp4	0.0	306.46926522254944	0.10001373291015625
68	290.15182852745056	fix_pre	0		119	66.0	2.5	/experiments/Knapen_AOT/AOT_stimuli/rescaled_final/0558_fw.mp4	0.0	306.5692789554596	1.0086045265197754
68	290.3270790576935	pulse	0	t		66.0	2.5	/experiments/Knapen_AOT/AOT_stimuli/rescaled_final/0558_fw.mp4	0.0	306.7445294857025	
68	291.16043305397034	movie	1		273	66.0	2.5	/experiments/Knapen_AOT/AOT_stimuli/rescaled_final/0558_fw.mp4	0.0	307.57788348197937	2.4919214248657227
68	291.92746329307556	pulse	1	t		66.0	2.5	/experiments/Knapen_AOT/AOT_stimuli/rescaled_final/0558_fw.mp4	0.0	308.3449137210846	
68	293.5276310443878	pulse	1	t		66.0	2.5	/experiments/Knapen_AOT/AOT_stimuli/rescaled_final/0558_fw.mp4	0.0	309.94508147239685	
68	293.65235447883606	fix_post	2		12	66.0	2.5	/experiments/Knapen_AOT/AOT_stimuli/rescaled_final/0558_fw.mp4	0.0	310.0698049068451	0.1000218391418457
69	293.7523763179779	fix_pre	0		120	67.0	2.5	/experiments/Knapen_AOT/AOT_stimuli/rescaled_final/0646_fw.mp4	0.0	310.16982674598694	1.0084729194641113
69	294.760849237442	movie	1		293	67.0	2.5	/experiments/Knapen_AOT/AOT_stimuli/rescaled_final/0646_fw.mp4	0.0	311.17829966545105	2.4920601844787598
69	295.127897977829	pulse	1	t		67.0	2.5	/experiments/Knapen_AOT/AOT_stimuli/rescaled_final/0646_fw.mp4	0.0	311.545348405838	
69	296.72800636291504	pulse	1	t		67.0	2.5	/experiments/Knapen_AOT/AOT_stimuli/rescaled_final/0646_fw.mp4	0.0	313.1454567909241	
69	297.2529094219208	fix_post	2		12	67.0	2.5	/experiments/Knapen_AOT/AOT_stimuli/rescaled_final/0646_fw.mp4	0.0	313.6703598499298	0.10004901885986328
70	297.35295844078064	fix_pre	0		118	68.0	2.5	/experiments/Knapen_AOT/AOT_stimuli/rescaled_final/0014_rv.mp4	0.0	313.7704088687897	0.9918055534362793
70	298.3283441066742	pulse	0	t		68.0	2.5	/experiments/Knapen_AOT/AOT_stimuli/rescaled_final/0014_rv.mp4	0.0	314.7457945346832	
70	298.3447639942169	movie	1		281	68.0	2.5	/experiments/Knapen_AOT/AOT_stimuli/rescaled_final/0014_rv.mp4	0.0	314.76221442222595	2.5003416538238525
70	299.9271671772003	pulse	1	t		68.0	2.5	/experiments/Knapen_AOT/AOT_stimuli/rescaled_final/0014_rv.mp4	0.0	316.34461760520935	
70	300.84510564804077	fix_post	2		12	68.0	2.5	/experiments/Knapen_AOT/AOT_stimuli/rescaled_final/0014_rv.mp4	0.0	317.2625560760498	0.10020780563354492
71	300.9453134536743	fix_pre	0		119	69.0	2.5	blank	1.0	317.36276388168335	0.9999642372131348
71	301.5287346839905	pulse	0	t		69.0	2.5	blank	1.0	317.9461851119995	
71	301.94527769088745	movie	1		300	69.0	2.5	blank	1.0	318.3627281188965	2.5003530979156494
71	303.1292667388916	pulse	1	t		69.0	2.5	blank	1.0	319.54671716690063	
71	304.4456307888031	fix_post	2		12	69.0	2.5	blank	1.0	320.86308121681213	0.10003280639648438
72	304.5456635951996	fix_pre	0		120	70.0	2.5	/experiments/Knapen_AOT/AOT_stimuli/rescaled_final/0875_fw.mp4	0.0	320.9631140232086	1.0084998607635498
72	304.72927832603455	pulse	0	t		70.0	2.5	/experiments/Knapen_AOT/AOT_stimuli/rescaled_final/0875_fw.mp4	0.0	321.1467287540436	
72	305.55416345596313	movie	1		281	70.0	2.5	/experiments/Knapen_AOT/AOT_stimuli/rescaled_final/0875_fw.mp4	0.0	321.97161388397217	2.4920969009399414
72	306.32779693603516	pulse	1	t		70.0	2.5	/experiments/Knapen_AOT/AOT_stimuli/rescaled_final/0875_fw.mp4	0.0	322.7452473640442	
72	307.9279444217682	pulse	1	t		70.0	2.5	/experiments/Knapen_AOT/AOT_stimuli/rescaled_final/0875_fw.mp4	0.0	324.3453948497772	
72	308.0462603569031	fix_post	2		12	70.0	2.5	/experiments/Knapen_AOT/AOT_stimuli/rescaled_final/0875_fw.mp4	0.0	324.4637107849121	0.09993624687194824
73	308.146196603775	fix_pre	0		120	71.0	2.5	/experiments/Knapen_AOT/AOT_stimuli/rescaled_final/0984_rv.mp4	0.0	324.56364703178406	1.008514642715454
73	309.1547112464905	movie	1		272	71.0	2.5	/experiments/Knapen_AOT/AOT_stimuli/rescaled_final/0984_rv.mp4	0.0	325.5721616744995	2.4920120239257812
73	309.5285668373108	pulse	1	t		71.0	2.5	/experiments/Knapen_AOT/AOT_stimuli/rescaled_final/0984_rv.mp4	0.0	325.9460172653198	
73	311.12911009788513	pulse	1	t		71.0	2.5	/experiments/Knapen_AOT/AOT_stimuli/rescaled_final/0984_rv.mp4	0.0	327.54656052589417	
73	311.64672327041626	fix_post	2		12	71.0	2.5	/experiments/Knapen_AOT/AOT_stimuli/rescaled_final/0984_rv.mp4	0.0	328.0641736984253	0.10010576248168945
74	311.74682903289795	fix_pre	0		119	72.0	2.5	/experiments/Knapen_AOT/AOT_stimuli/rescaled_final/1954_fw.mp4	0.0	328.164279460907	1.0003149509429932
74	312.73056840896606	pulse	0	t		72.0	2.5	/experiments/Knapen_AOT/AOT_stimuli/rescaled_final/1954_fw.mp4	0.0	329.1480188369751	
74	312.74714398384094	movie	1		283	72.0	2.5	/experiments/Knapen_AOT/AOT_stimuli/rescaled_final/1954_fw.mp4	0.0	329.16459441185	2.500113010406494
74	314.33076453208923	pulse	1	t		72.0	2.5	/experiments/Knapen_AOT/AOT_stimuli/rescaled_final/1954_fw.mp4	0.0	330.74821496009827	
74	315.24725699424744	fix_post	2		12	72.0	2.5	/experiments/Knapen_AOT/AOT_stimuli/rescaled_final/1954_fw.mp4	0.0	331.66470742225647	0.10002613067626953
75	315.3472831249237	fix_pre	0		120	73.0	2.5	/experiments/Knapen_AOT/AOT_stimuli/rescaled_final/1612_rv.mp4	0.0	331.76473355293274	1.008540391921997
75	315.9309239387512	pulse	0	t		73.0	2.5	/experiments/Knapen_AOT/AOT_stimuli/rescaled_final/1612_rv.mp4	0.0	332.34837436676025	
75	316.3558235168457	movie	1		280	73.0	2.5	/experiments/Knapen_AOT/AOT_stimuli/rescaled_final/1612_rv.mp4	0.0	332.77327394485474	2.4919707775115967
75	317.5292751789093	pulse	1	t		73.0	2.5	/experiments/Knapen_AOT/AOT_stimuli/rescaled_final/1612_rv.mp4	0.0	333.94672560691833	
75	318.8477942943573	fix_post	2		12	73.0	2.5	/experiments/Knapen_AOT/AOT_stimuli/rescaled_final/1612_rv.mp4	0.0	335.26524472236633	0.10007500648498535
76	318.9478693008423	fix_pre	0		120	74.0	2.5	/experiments/Knapen_AOT/AOT_stimuli/rescaled_final/0678_fw.mp4	0.0	335.3653197288513	1.0084939002990723
76	319.13145756721497	pulse	0	t		74.0	2.5	/experiments/Knapen_AOT/AOT_stimuli/rescaled_final/0678_fw.mp4	0.0	335.548907995224	
76	319.95636320114136	movie	1		282	74.0	2.5	/experiments/Knapen_AOT/AOT_stimuli/rescaled_final/0678_fw.mp4	0.0	336.3738136291504	2.491981267929077
76	320.731374502182	pulse	1	t		74.0	2.5	/experiments/Knapen_AOT/AOT_stimuli/rescaled_final/0678_fw.mp4	0.0	337.14882493019104	
76	322.329927444458	pulse	1	t		74.0	2.5	/experiments/Knapen_AOT/AOT_stimuli/rescaled_final/0678_fw.mp4	0.0	338.74737787246704	
76	322.44834446907043	fix_post	2		12	74.0	2.5	/experiments/Knapen_AOT/AOT_stimuli/rescaled_final/0678_fw.mp4	0.0	338.86579489707947	0.10016918182373047
77	322.54851365089417	fix_pre	0		120	75.0	2.5	blank	1.0	338.9659640789032	1.0000526905059814
77	323.54856634140015	movie	1		300	75.0	2.5	blank	1.0	339.9660167694092	2.5003063678741455
77	323.9323148727417	pulse	1	t		75.0	2.5	blank	1.0	340.34976530075073	
77	325.53256845474243	pulse	1	t		75.0	2.5	blank	1.0	341.95001888275146	
77	326.0488727092743	fix_post	2		12	75.0	2.5	blank	1.0	342.4663231372833	0.10002994537353516
78	326.1489026546478	fix_pre	0		119	76.0	2.5	/experiments/Knapen_AOT/AOT_stimuli/rescaled_final/1193_rv.mp4	0.0	342.56635308265686	1.0085713863372803
78	327.13269877433777	pulse	0	t		76.0	2.5	/experiments/Knapen_AOT/AOT_stimuli/rescaled_final/1193_rv.mp4	0.0	343.5501492023468	
78	327.1574740409851	movie	1		284	76.0	2.5	/experiments/Knapen_AOT/AOT_stimuli/rescaled_final/1193_rv.mp4	0.0	343.57492446899414	2.4920156002044678
78	328.7314236164093	pulse	1	t		76.0	2.5	/experiments/Knapen_AOT/AOT_stimuli/rescaled_final/1193_rv.mp4	0.0	345.14887404441833	
78	329.6494896411896	fix_post	2		12	76.0	2.5	/experiments/Knapen_AOT/AOT_stimuli/rescaled_final/1193_rv.mp4	0.0	346.0669400691986	0.09994626045227051
79	329.74943590164185	fix_pre	0		120	77.0	2.5	/experiments/Knapen_AOT/AOT_stimuli/rescaled_final/0492_rv.mp4	0.0	346.1668863296509	1.008613109588623
79	330.3332374095917	pulse	0	t		77.0	2.5	/experiments/Knapen_AOT/AOT_stimuli/rescaled_final/0492_rv.mp4	0.0	346.7506878376007	
79	330.75804901123047	movie	1		274	77.0	2.5	/experiments/Knapen_AOT/AOT_stimuli/rescaled_final/0492_rv.mp4	0.0	347.1754994392395	2.4919159412384033
79	331.9315347671509	pulse	1	t		77.0	2.5	/experiments/Knapen_AOT/AOT_stimuli/rescaled_final/0492_rv.mp4	0.0	348.3489851951599	
79	333.2499649524689	fix_post	2		12	77.0	2.5	/experiments/Knapen_AOT/AOT_stimuli/rescaled_final/0492_rv.mp4	0.0	349.6674153804779	0.10000205039978027
80	333.34996700286865	fix_pre	0		120	78.0	2.5	/experiments/Knapen_AOT/AOT_stimuli/rescaled_final/2003_rv.mp4	0.0	349.7674174308777	1.008554220199585
80	333.53376030921936	pulse	0	t		78.0	2.5	/experiments/Knapen_AOT/AOT_stimuli/rescaled_final/2003_rv.mp4	0.0	349.9512107372284	
80	334.35852122306824	movie	1		283	78.0	2.5	/experiments/Knapen_AOT/AOT_stimuli/rescaled_final/2003_rv.mp4	0.0	350.77597165107727	2.4919824600219727
80	335.1317982673645	pulse	1	t		78.0	2.5	/experiments/Knapen_AOT/AOT_stimuli/rescaled_final/2003_rv.mp4	0.0	351.54924869537354	
80	336.73262310028076	pulse	1	t		78.0	2.5	/experiments/Knapen_AOT/AOT_stimuli/rescaled_final/2003_rv.mp4	0.0	353.1500735282898	
80	336.8505036830902	fix_post	2		12	78.0	2.5	/experiments/Knapen_AOT/AOT_stimuli/rescaled_final/2003_rv.mp4	0.0	353.26795411109924	0.10002708435058594
81	336.9505307674408	fix_pre	0		120	79.0	2.5	/experiments/Knapen_AOT/AOT_stimuli/rescaled_final/0558_fw.mp4	0.0	353.36798119544983	1.008535385131836
81	337.95906615257263	movie	1		282	79.0	2.5	/experiments/Knapen_AOT/AOT_stimuli/rescaled_final/0558_fw.mp4	0.0	354.37651658058167	2.492053985595703
81	338.332750082016	pulse	1	t		79.0	2.5	/experiments/Knapen_AOT/AOT_stimuli/rescaled_final/0558_fw.mp4	0.0	354.750200510025	
81	339.92676162719727	pulse	1	t		79.0	2.5	/experiments/Knapen_AOT/AOT_stimuli/rescaled_final/0558_fw.mp4	0.0	356.3442120552063	
81	340.45112013816833	fix_post	2		12	79.0	2.5	/experiments/Knapen_AOT/AOT_stimuli/rescaled_final/0558_fw.mp4	0.0	356.86857056617737	0.1000511646270752
82	340.5511713027954	fix_pre	0		118	80.0	2.5	/experiments/Knapen_AOT/AOT_stimuli/rescaled_final/0474_rv.mp4	0.0	356.96862173080444	1.0001220703125
82	341.5270073413849	pulse	0	t		80.0	2.5	/experiments/Knapen_AOT/AOT_stimuli/rescaled_final/0474_rv.mp4	0.0	357.9444577693939	
82	341.5512933731079	movie	1		272	80.0	2.5	/experiments/Knapen_AOT/AOT_stimuli/rescaled_final/0474_rv.mp4	0.0	357.96874380111694	2.4919815063476562
82	343.12636613845825	pulse	1	t		80.0	2.5	/experiments/Knapen_AOT/AOT_stimuli/rescaled_final/0474_rv.mp4	0.0	359.5438165664673	
82	344.04327487945557	fix_post	2		12	80.0	2.5	/experiments/Knapen_AOT/AOT_stimuli/rescaled_final/0474_rv.mp4	0.0	360.4607253074646	0.1000063419342041
83	344.14328122138977	fix_pre	0		120	81.0	2.5	/experiments/Knapen_AOT/AOT_stimuli/rescaled_final/2120_rv.mp4	0.0	360.5607316493988	1.0084989070892334
83	344.726943731308	pulse	0	t		81.0	2.5	/experiments/Knapen_AOT/AOT_stimuli/rescaled_final/2120_rv.mp4	0.0	361.144394159317	
83	345.151780128479	movie	1		280	81.0	2.5	/experiments/Knapen_AOT/AOT_stimuli/rescaled_final/2120_rv.mp4	0.0	361.56923055648804	2.4920601844787598
83	346.3272633552551	pulse	1	t		81.0	2.5	/experiments/Knapen_AOT/AOT_stimuli/rescaled_final/2120_rv.mp4	0.0	362.74471378326416	
83	347.64384031295776	fix_post	2		12	81.0	2.5	/experiments/Knapen_AOT/AOT_stimuli/rescaled_final/2120_rv.mp4	0.0	364.0612907409668	0.09998178482055664
84	347.7438220977783	fix_pre	0		120	82.0	2.5	/experiments/Knapen_AOT/AOT_stimuli/rescaled_final/0885_rv.mp4	0.0	364.16127252578735	1.0085179805755615
84	347.9274055957794	pulse	0	t		82.0	2.5	/experiments/Knapen_AOT/AOT_stimuli/rescaled_final/0885_rv.mp4	0.0	364.34485602378845	
84	348.7523400783539	movie	1		286	82.0	2.5	/experiments/Knapen_AOT/AOT_stimuli/rescaled_final/0885_rv.mp4	0.0	365.1697905063629	2.492009401321411
84	349.52766275405884	pulse	1	t		82.0	2.5	/experiments/Knapen_AOT/AOT_stimuli/rescaled_final/0885_rv.mp4	0.0	365.94511318206787	
84	351.12793588638306	pulse	1	t		82.0	2.5	/experiments/Knapen_AOT/AOT_stimuli/rescaled_final/0885_rv.mp4	0.0	367.5453863143921	
84	351.2443494796753	fix_post	2		12	82.0	2.5	/experiments/Knapen_AOT/AOT_stimuli/rescaled_final/0885_rv.mp4	0.0	367.6617999076843	0.10006260871887207
85	351.34441208839417	fix_pre	0		120	83.0	2.5	blank	1.0	367.7618625164032	1.0001251697540283
85	352.3445372581482	movie	1		300	83.0	2.5	blank	1.0	368.7619876861572	2.500351667404175
85	352.7281243801117	pulse	1	t		83.0	2.5	blank	1.0	369.1455748081207	
85	354.3284327983856	pulse	1	t		83.0	2.5	blank	1.0	370.74588322639465	
85	354.84488892555237	fix_post	2		12	83.0	2.5	blank	1.0	371.2623393535614	0.10001182556152344
87	354.9449007511139	stim	0		1716					371.3623511791229	14.302244901657104
87	355.9286379814148	pulse	0	t						372.3460884094238	
87	357.5288841724396	pulse	0	t						373.9463346004486	
87	359.12909841537476	pulse	0	t						375.5465488433838	
87	360.72940278053284	pulse	0	t						377.14685320854187	
87	362.32959628105164	pulse	0	t						378.74704670906067	
87	363.92994809150696	pulse	0	t						380.347398519516	
87	365.52998328208923	pulse	0	t						381.94743371009827	
87	367.13057136535645	pulse	0	t						383.5480217933655	
87	368.73058557510376	pulse	0	t						385.1480360031128	
