trial_nr	onset	event_type	phase	response	nr_frames	movie_index	movie_duration	movie_file	blank	onset_abs	duration
0	0.1083829402923584	stim	0		26					37.96719002723694	0.2165529727935791
0	0.31690287590026855	response	0	space						38.17570996284485	
1	0.3249359130859375	stim	0		4952					38.18374300003052	41.266414165496826
1	41.58325695991516	pulse	0	t						79.44206404685974	
1	41.591350078582764	stim	1		1717					79.45015716552734	14.308297872543335
1	43.18320894241333	pulse	1	t						81.04201602935791	
1	44.78322792053223	pulse	1	t						82.6420350074768	
1	46.38314890861511	pulse	1	t						84.24195599555969	
1	47.98326301574707	pulse	1	t						85.84207010269165	
1	49.583953857421875	pulse	1	t						87.44276094436646	
1	51.183183908462524	pulse	1	t						89.0419909954071	
1	52.78317904472351	pulse	1	t						90.64198613166809	
1	54.38316607475281	pulse	1	t						92.24197316169739	
2	55.8996479511261	fix_pre	0		11	0.0	2.5	/experiments/AOT/AOT_stimuli/rescaled_final/1917_fw.mp4	0.0	93.75845503807068	0.09169411659240723
2	55.98320508003235	pulse	0	t		0.0	2.5	/experiments/AOT/AOT_stimuli/rescaled_final/1917_fw.mp4	0.0	93.84201216697693	
2	55.991342067718506	movie	1		245	0.0	2.5	/experiments/AOT/AOT_stimuli/rescaled_final/1917_fw.mp4	0.0	93.85014915466309	2.5078229904174805
2	57.582918882369995	pulse	1	t		0.0	2.5	/experiments/AOT/AOT_stimuli/rescaled_final/1917_fw.mp4	0.0	95.44172596931458	
2	58.499165058135986	fix_post	2		12	0.0	2.5	/experiments/AOT/AOT_stimuli/rescaled_final/1917_fw.mp4	0.0	96.35797214508057	0.10050296783447266
3	58.59966802597046	fix_pre	0		120	1.0	2.5	/experiments/AOT/AOT_stimuli/rescaled_final/1067_fw.mp4	0.0	96.45847511291504	0.9998989105224609
3	59.18317103385925	pulse	0	t		1.0	2.5	/experiments/AOT/AOT_stimuli/rescaled_final/1067_fw.mp4	0.0	97.04197812080383	
3	59.59956693649292	movie	1		244	1.0	2.5	/experiments/AOT/AOT_stimuli/rescaled_final/1067_fw.mp4	0.0	97.4583740234375	2.500030994415283
3	60.783217906951904	pulse	1	t		1.0	2.5	/experiments/AOT/AOT_stimuli/rescaled_final/1067_fw.mp4	0.0	98.64202499389648	
3	62.0995979309082	fix_post	2		12	1.0	2.5	/experiments/AOT/AOT_stimuli/rescaled_final/1067_fw.mp4	0.0	99.95840501785278	0.09971809387207031
4	62.19931602478027	fix_pre	0		120	2.0	2.5	/experiments/AOT/AOT_stimuli/rescaled_final/0110_rv.mp4	0.0	100.05812311172485	1.0004298686981201
4	62.383301973342896	pulse	0	t		2.0	2.5	/experiments/AOT/AOT_stimuli/rescaled_final/0110_rv.mp4	0.0	100.24210906028748	
4	63.199745893478394	movie	1		243	2.0	2.5	/experiments/AOT/AOT_stimuli/rescaled_final/0110_rv.mp4	0.0	101.05855298042297	2.4998650550842285
4	63.98396396636963	pulse	1	t		2.0	2.5	/experiments/AOT/AOT_stimuli/rescaled_final/0110_rv.mp4	0.0	101.84277105331421	
4	65.59157586097717	pulse	1	t		2.0	2.5	/experiments/AOT/AOT_stimuli/rescaled_final/0110_rv.mp4	0.0	103.45038294792175	
4	65.69961094856262	fix_post	2		12	2.0	2.5	/experiments/AOT/AOT_stimuli/rescaled_final/0110_rv.mp4	0.0	103.5584180355072	0.10006403923034668
5	65.79967498779297	fix_pre	0		120	3.0	2.5	/experiments/AOT/AOT_stimuli/rescaled_final/0660_fw.mp4	0.0	103.65848207473755	1.0000989437103271
5	66.7997739315033	movie	1		243	3.0	2.5	/experiments/AOT/AOT_stimuli/rescaled_final/0660_fw.mp4	0.0	104.65858101844788	2.499756097793579
5	67.19150686264038	pulse	1	t		3.0	2.5	/experiments/AOT/AOT_stimuli/rescaled_final/0660_fw.mp4	0.0	105.05031394958496	
5	68.78320002555847	pulse	1	t		3.0	2.5	/experiments/AOT/AOT_stimuli/rescaled_final/0660_fw.mp4	0.0	106.64200711250305	
5	69.29953002929688	fix_post	2		12	3.0	2.5	/experiments/AOT/AOT_stimuli/rescaled_final/0660_fw.mp4	0.0	107.15833711624146	0.10009598731994629
6	69.39962601661682	fix_pre	0		119	4.0	2.5	/experiments/AOT/AOT_stimuli/rescaled_final/0297_fw.mp4	0.0	107.2584331035614	0.9916560649871826
6	70.38316988945007	pulse	0	t		4.0	2.5	/experiments/AOT/AOT_stimuli/rescaled_final/0297_fw.mp4	0.0	108.24197697639465	
6	70.391282081604	movie	1		245	4.0	2.5	/experiments/AOT/AOT_stimuli/rescaled_final/0297_fw.mp4	0.0	108.25008916854858	2.5083158016204834
6	71.99138498306274	pulse	1	t		4.0	2.5	/experiments/AOT/AOT_stimuli/rescaled_final/0297_fw.mp4	0.0	109.85019207000732	
6	72.89959788322449	fix_post	2		12	4.0	2.5	/experiments/AOT/AOT_stimuli/rescaled_final/0297_fw.mp4	0.0	110.75840497016907	0.09954714775085449
7	72.99914503097534	fix_pre	0		120	5.0	2.5	/experiments/AOT/AOT_stimuli/rescaled_final/2090_fw.mp4	0.0	110.85795211791992	1.0002329349517822
7	73.58354902267456	pulse	0	t		5.0	2.5	/experiments/AOT/AOT_stimuli/rescaled_final/2090_fw.mp4	0.0	111.44235610961914	
7	73.99937796592712	movie	1		246	5.0	2.5	/experiments/AOT/AOT_stimuli/rescaled_final/2090_fw.mp4	0.0	111.8581850528717	2.5001490116119385
7	75.18336796760559	pulse	1	t		5.0	2.5	/experiments/AOT/AOT_stimuli/rescaled_final/2090_fw.mp4	0.0	113.04217505455017	
7	76.49952697753906	fix_post	2		12	5.0	2.5	/experiments/AOT/AOT_stimuli/rescaled_final/2090_fw.mp4	0.0	114.35833406448364	0.09962201118469238
8	76.59914898872375	fix_pre	0		120	6.0	2.5	/experiments/AOT/AOT_stimuli/rescaled_final/1917_fw.mp4	0.0	114.45795607566833	1.0004329681396484
8	76.78314304351807	pulse	0	t		6.0	2.5	/experiments/AOT/AOT_stimuli/rescaled_final/1917_fw.mp4	0.0	114.64195013046265	
8	77.5995819568634	movie	1		246	6.0	2.5	/experiments/AOT/AOT_stimuli/rescaled_final/1917_fw.mp4	0.0	115.45838904380798	2.499929904937744
8	78.3830668926239	pulse	1	t		6.0	2.5	/experiments/AOT/AOT_stimuli/rescaled_final/1917_fw.mp4	0.0	116.24187397956848	
8	79.98720908164978	pulse	1	t		6.0	2.5	/experiments/AOT/AOT_stimuli/rescaled_final/1917_fw.mp4	0.0	117.84601616859436	
8	80.09951186180115	fix_post	2		12	6.0	2.5	/experiments/AOT/AOT_stimuli/rescaled_final/1917_fw.mp4	0.0	117.95831894874573	0.1000211238861084
9	80.19953298568726	fix_pre	0		120	7.0	2.5	blank	1.0	118.05834007263184	0.9995930194854736
9	81.19912600517273	movie	1		300	7.0	2.5	blank	1.0	119.05793309211731	2.5003838539123535
9	81.58378505706787	pulse	1	t		7.0	2.5	blank	1.0	119.44259214401245	
9	83.18381094932556	pulse	1	t		7.0	2.5	blank	1.0	121.04261803627014	
9	83.69950985908508	fix_post	2		12	7.0	2.5	blank	1.0	121.55831694602966	0.099945068359375
10	83.79945492744446	fix_pre	0		120	8.0	2.5	/experiments/AOT/AOT_stimuli/rescaled_final/1611_fw.mp4	0.0	121.65826201438904	1.0000669956207275
10	84.78387689590454	pulse	0	t		8.0	2.5	/experiments/AOT/AOT_stimuli/rescaled_final/1611_fw.mp4	0.0	122.64268398284912	
10	84.79952192306519	movie	1		243	8.0	2.5	/experiments/AOT/AOT_stimuli/rescaled_final/1611_fw.mp4	0.0	122.65832901000977	2.507889986038208
10	86.39218401908875	pulse	1	t		8.0	2.5	/experiments/AOT/AOT_stimuli/rescaled_final/1611_fw.mp4	0.0	124.25099110603333	
10	87.3074119091034	fix_post	2		12	8.0	2.5	/experiments/AOT/AOT_stimuli/rescaled_final/1611_fw.mp4	0.0	125.16621899604797	0.1004190444946289
11	87.40783095359802	fix_pre	0		120	9.0	2.5	/experiments/AOT/AOT_stimuli/rescaled_final/0045_rv.mp4	0.0	125.2666380405426	0.9995920658111572
11	87.98374199867249	pulse	0	t		9.0	2.5	/experiments/AOT/AOT_stimuli/rescaled_final/0045_rv.mp4	0.0	125.84254908561707	
11	88.40742301940918	movie	1		243	9.0	2.5	/experiments/AOT/AOT_stimuli/rescaled_final/0045_rv.mp4	0.0	126.26623010635376	2.5004608631134033
11	89.59139800071716	pulse	1	t		9.0	2.5	/experiments/AOT/AOT_stimuli/rescaled_final/0045_rv.mp4	0.0	127.45020508766174	
11	90.90788388252258	fix_post	2		12	9.0	2.5	/experiments/AOT/AOT_stimuli/rescaled_final/0045_rv.mp4	0.0	128.76669096946716	0.09991812705993652
12	91.00780200958252	fix_pre	0		120	10.0	2.5	/experiments/AOT/AOT_stimuli/rescaled_final/1742_rv.mp4	0.0	128.8666090965271	1.0000829696655273
12	91.18298506736755	pulse	0	t		10.0	2.5	/experiments/AOT/AOT_stimuli/rescaled_final/1742_rv.mp4	0.0	129.04179215431213	
12	92.00788497924805	movie	1		243	10.0	2.5	/experiments/AOT/AOT_stimuli/rescaled_final/1742_rv.mp4	0.0	129.86669206619263	2.4999639987945557
12	92.78297686576843	pulse	1	t		10.0	2.5	/experiments/AOT/AOT_stimuli/rescaled_final/1742_rv.mp4	0.0	130.641783952713	
12	94.38293290138245	pulse	1	t		10.0	2.5	/experiments/AOT/AOT_stimuli/rescaled_final/1742_rv.mp4	0.0	132.24173998832703	
12	94.5078489780426	fix_post	2		12	10.0	2.5	/experiments/AOT/AOT_stimuli/rescaled_final/1742_rv.mp4	0.0	132.36665606498718	0.10008096694946289
13	94.60792994499207	fix_pre	0		120	11.0	2.5	/experiments/AOT/AOT_stimuli/rescaled_final/2102_rv.mp4	0.0	132.46673703193665	0.9999511241912842
13	95.60788106918335	movie	1		244	11.0	2.5	/experiments/AOT/AOT_stimuli/rescaled_final/2102_rv.mp4	0.0	133.46668815612793	2.4999828338623047
13	95.98298406600952	pulse	1	t		11.0	2.5	/experiments/AOT/AOT_stimuli/rescaled_final/2102_rv.mp4	0.0	133.8417911529541	
13	97.58392095565796	pulse	1	t		11.0	2.5	/experiments/AOT/AOT_stimuli/rescaled_final/2102_rv.mp4	0.0	135.44272804260254	
13	98.10786390304565	fix_post	2		12	11.0	2.5	/experiments/AOT/AOT_stimuli/rescaled_final/2102_rv.mp4	0.0	135.96667098999023	0.09988903999328613
14	98.20775294303894	fix_pre	0		119	12.0	2.5	/experiments/AOT/AOT_stimuli/rescaled_final/0429_fw.mp4	0.0	136.06656002998352	0.9916679859161377
14	99.18380093574524	pulse	0	t		12.0	2.5	/experiments/AOT/AOT_stimuli/rescaled_final/0429_fw.mp4	0.0	137.04260802268982	
14	99.19942092895508	movie	1		245	12.0	2.5	/experiments/AOT/AOT_stimuli/rescaled_final/0429_fw.mp4	0.0	137.05822801589966	2.5084030628204346
14	100.79226398468018	pulse	1	t		12.0	2.5	/experiments/AOT/AOT_stimuli/rescaled_final/0429_fw.mp4	0.0	138.65107107162476	
14	101.70782399177551	fix_post	2		12	12.0	2.5	/experiments/AOT/AOT_stimuli/rescaled_final/0429_fw.mp4	0.0	139.5666310787201	0.09992504119873047
15	101.80774903297424	fix_pre	0		120	13.0	2.5	blank	1.0	139.66655611991882	1.000201940536499
15	102.38373494148254	pulse	0	t		13.0	2.5	blank	1.0	140.24254202842712	
15	102.80795097351074	movie	1		300	13.0	2.5	blank	1.0	140.66675806045532	2.4999098777770996
15	103.98372006416321	pulse	1	t		13.0	2.5	blank	1.0	141.8425271511078	
15	105.30786085128784	fix_post	2		12	13.0	2.5	blank	1.0	143.16666793823242	0.09998703002929688
16	105.40784788131714	fix_pre	0		120	14.0	2.5	/experiments/AOT/AOT_stimuli/rescaled_final/1302_rv.mp4	0.0	143.26665496826172	0.9999771118164062
16	105.58307099342346	pulse	0	t		14.0	2.5	/experiments/AOT/AOT_stimuli/rescaled_final/1302_rv.mp4	0.0	143.44187808036804	
16	106.40782499313354	movie	1		243	14.0	2.5	/experiments/AOT/AOT_stimuli/rescaled_final/1302_rv.mp4	0.0	144.26663208007812	2.4998490810394287
16	107.18291807174683	pulse	1	t		14.0	2.5	/experiments/AOT/AOT_stimuli/rescaled_final/1302_rv.mp4	0.0	145.0417251586914	
16	108.78290700912476	pulse	1	t		14.0	2.5	/experiments/AOT/AOT_stimuli/rescaled_final/1302_rv.mp4	0.0	146.64171409606934	
16	108.90767407417297	fix_post	2		12	14.0	2.5	/experiments/AOT/AOT_stimuli/rescaled_final/1302_rv.mp4	0.0	146.76648116111755	0.10004281997680664
17	109.00771689414978	fix_pre	0		120	15.0	2.5	/experiments/AOT/AOT_stimuli/rescaled_final/0435_rv.mp4	0.0	146.86652398109436	0.9999861717224121
17	110.00770306587219	movie	1		244	15.0	2.5	/experiments/AOT/AOT_stimuli/rescaled_final/0435_rv.mp4	0.0	147.86651015281677	2.499990940093994
17	110.38293099403381	pulse	1	t		15.0	2.5	/experiments/AOT/AOT_stimuli/rescaled_final/0435_rv.mp4	0.0	148.2417380809784	
17	111.98292207717896	pulse	1	t		15.0	2.5	/experiments/AOT/AOT_stimuli/rescaled_final/0435_rv.mp4	0.0	149.84172916412354	
17	112.50769400596619	fix_post	2		12	15.0	2.5	/experiments/AOT/AOT_stimuli/rescaled_final/0435_rv.mp4	0.0	150.36650109291077	0.10002493858337402
18	112.60771894454956	fix_pre	0		119	16.0	2.5	/experiments/AOT/AOT_stimuli/rescaled_final/0546_fw.mp4	0.0	150.46652603149414	0.9917130470275879
18	113.58367204666138	pulse	0	t		16.0	2.5	/experiments/AOT/AOT_stimuli/rescaled_final/0546_fw.mp4	0.0	151.44247913360596	
18	113.59943199157715	movie	1		248	16.0	2.5	/experiments/AOT/AOT_stimuli/rescaled_final/0546_fw.mp4	0.0	151.45823907852173	2.508298873901367
18	115.19121503829956	pulse	1	t		16.0	2.5	/experiments/AOT/AOT_stimuli/rescaled_final/0546_fw.mp4	0.0	153.05002212524414	
18	116.10773086547852	fix_post	2		12	16.0	2.5	/experiments/AOT/AOT_stimuli/rescaled_final/0546_fw.mp4	0.0	153.9665379524231	0.09996414184570312
19	116.20769500732422	fix_pre	0		120	17.0	2.5	/experiments/AOT/AOT_stimuli/rescaled_final/0250_rv.mp4	0.0	154.0665020942688	0.9999730587005615
19	116.78370404243469	pulse	0	t		17.0	2.5	/experiments/AOT/AOT_stimuli/rescaled_final/0250_rv.mp4	0.0	154.64251112937927	
19	117.20766806602478	movie	1		244	17.0	2.5	/experiments/AOT/AOT_stimuli/rescaled_final/0250_rv.mp4	0.0	155.06647515296936	2.499959945678711
19	118.39125800132751	pulse	1	t		17.0	2.5	/experiments/AOT/AOT_stimuli/rescaled_final/0250_rv.mp4	0.0	156.2500650882721	
19	119.70762801170349	fix_post	2		12	17.0	2.5	/experiments/AOT/AOT_stimuli/rescaled_final/0250_rv.mp4	0.0	157.56643509864807	0.09961795806884766
20	119.80724596977234	fix_pre	0		120	18.0	2.5	/experiments/AOT/AOT_stimuli/rescaled_final/0862_rv.mp4	0.0	157.66605305671692	1.0005240440368652
20	119.98375988006592	pulse	0	t		18.0	2.5	/experiments/AOT/AOT_stimuli/rescaled_final/0862_rv.mp4	0.0	157.8425669670105	
20	120.8077700138092	movie	1		243	18.0	2.5	/experiments/AOT/AOT_stimuli/rescaled_final/0862_rv.mp4	0.0	158.66657710075378	2.4999618530273438
20	121.58372592926025	pulse	1	t		18.0	2.5	/experiments/AOT/AOT_stimuli/rescaled_final/0862_rv.mp4	0.0	159.44253301620483	
20	123.18293905258179	pulse	1	t		18.0	2.5	/experiments/AOT/AOT_stimuli/rescaled_final/0862_rv.mp4	0.0	161.04174613952637	
20	123.30773186683655	fix_post	2		12	18.0	2.5	/experiments/AOT/AOT_stimuli/rescaled_final/0862_rv.mp4	0.0	161.16653895378113	0.09990906715393066
21	123.40764093399048	fix_pre	0		120	19.0	2.5	blank	1.0	161.26644802093506	1.0000419616699219
21	124.4076828956604	movie	1		300	19.0	2.5	blank	1.0	162.26648998260498	2.500059127807617
21	124.7829098701477	pulse	1	t		19.0	2.5	blank	1.0	162.64171695709229	
21	126.38291597366333	pulse	1	t		19.0	2.5	blank	1.0	164.2417230606079	
21	126.90774202346802	fix_post	2		12	19.0	2.5	blank	1.0	164.7665491104126	0.10001802444458008
22	127.0077600479126	fix_pre	0		119	20.0	2.5	/experiments/AOT/AOT_stimuli/rescaled_final/1185_fw.mp4	0.0	164.86656713485718	0.9915599822998047
22	127.98321294784546	pulse	0	t		20.0	2.5	/experiments/AOT/AOT_stimuli/rescaled_final/1185_fw.mp4	0.0	165.84202003479004	
22	127.9993200302124	movie	1		245	20.0	2.5	/experiments/AOT/AOT_stimuli/rescaled_final/1185_fw.mp4	0.0	165.85812711715698	2.508556842803955
22	129.5903398990631	pulse	1	t		20.0	2.5	/experiments/AOT/AOT_stimuli/rescaled_final/1185_fw.mp4	0.0	167.4491469860077	
22	130.50787687301636	fix_post	2		12	20.0	2.5	/experiments/AOT/AOT_stimuli/rescaled_final/1185_fw.mp4	0.0	168.36668395996094	0.09998416900634766
23	130.6078610420227	fix_pre	0		120	21.0	2.5	/experiments/AOT/AOT_stimuli/rescaled_final/0813_rv.mp4	0.0	168.46666812896729	0.9998149871826172
23	131.18356108665466	pulse	0	t		21.0	2.5	/experiments/AOT/AOT_stimuli/rescaled_final/0813_rv.mp4	0.0	169.04236817359924	
23	131.60767602920532	movie	1		243	21.0	2.5	/experiments/AOT/AOT_stimuli/rescaled_final/0813_rv.mp4	0.0	169.4664831161499	2.4995198249816895
23	132.7911880016327	pulse	1	t		21.0	2.5	/experiments/AOT/AOT_stimuli/rescaled_final/0813_rv.mp4	0.0	170.64999508857727	
23	134.107195854187	fix_post	2		12	21.0	2.5	/experiments/AOT/AOT_stimuli/rescaled_final/0813_rv.mp4	0.0	171.9660029411316	0.10044002532958984
24	134.2076358795166	fix_pre	0		120	22.0	2.5	/experiments/AOT/AOT_stimuli/rescaled_final/1994_rv.mp4	0.0	172.06644296646118	0.9999680519104004
24	134.38355708122253	pulse	0	t		22.0	2.5	/experiments/AOT/AOT_stimuli/rescaled_final/1994_rv.mp4	0.0	172.24236416816711	
24	135.207603931427	movie	1		247	22.0	2.5	/experiments/AOT/AOT_stimuli/rescaled_final/1994_rv.mp4	0.0	173.06641101837158	2.499622106552124
24	135.98376202583313	pulse	1	t		22.0	2.5	/experiments/AOT/AOT_stimuli/rescaled_final/1994_rv.mp4	0.0	173.8425691127777	
24	137.5894968509674	pulse	1	t		22.0	2.5	/experiments/AOT/AOT_stimuli/rescaled_final/1994_rv.mp4	0.0	175.448303937912	
24	137.70722603797913	fix_post	2		12	22.0	2.5	/experiments/AOT/AOT_stimuli/rescaled_final/1994_rv.mp4	0.0	175.5660331249237	0.10044097900390625
25	137.80766701698303	fix_pre	0		120	23.0	2.5	/experiments/AOT/AOT_stimuli/rescaled_final/1169_fw.mp4	0.0	175.6664741039276	0.9998970031738281
25	138.80756402015686	movie	1		246	23.0	2.5	/experiments/AOT/AOT_stimuli/rescaled_final/1169_fw.mp4	0.0	176.66637110710144	2.500009059906006
25	139.19055008888245	pulse	1	t		23.0	2.5	/experiments/AOT/AOT_stimuli/rescaled_final/1169_fw.mp4	0.0	177.04935717582703	
25	140.78280186653137	pulse	1	t		23.0	2.5	/experiments/AOT/AOT_stimuli/rescaled_final/1169_fw.mp4	0.0	178.64160895347595	
25	141.30757308006287	fix_post	2		12	23.0	2.5	/experiments/AOT/AOT_stimuli/rescaled_final/1169_fw.mp4	0.0	179.16638016700745	0.0999758243560791
26	141.40754890441895	fix_pre	0		119	24.0	2.5	/experiments/AOT/AOT_stimuli/rescaled_final/1815_rv.mp4	0.0	179.26635599136353	0.9916830062866211
26	142.38348698616028	pulse	0	t		24.0	2.5	/experiments/AOT/AOT_stimuli/rescaled_final/1815_rv.mp4	0.0	180.24229407310486	
26	142.39923191070557	movie	1		247	24.0	2.5	/experiments/AOT/AOT_stimuli/rescaled_final/1815_rv.mp4	0.0	180.25803899765015	2.508368968963623
26	143.98266887664795	pulse	1	t		24.0	2.5	/experiments/AOT/AOT_stimuli/rescaled_final/1815_rv.mp4	0.0	181.84147596359253	
26	144.9076008796692	fix_post	2		12	24.0	2.5	/experiments/AOT/AOT_stimuli/rescaled_final/1815_rv.mp4	0.0	182.76640796661377	0.09999608993530273
27	145.0075969696045	fix_pre	0		120	25.0	2.5	/experiments/AOT/AOT_stimuli/rescaled_final/2018_rv.mp4	0.0	182.86640405654907	0.9999639987945557
27	145.58350586891174	pulse	0	t		25.0	2.5	/experiments/AOT/AOT_stimuli/rescaled_final/2018_rv.mp4	0.0	183.44231295585632	
27	146.00756096839905	movie	1		244	25.0	2.5	/experiments/AOT/AOT_stimuli/rescaled_final/2018_rv.mp4	0.0	183.86636805534363	2.4999608993530273
27	147.19107508659363	pulse	1	t		25.0	2.5	/experiments/AOT/AOT_stimuli/rescaled_final/2018_rv.mp4	0.0	185.0498821735382	
27	148.50752186775208	fix_post	2		12	25.0	2.5	/experiments/AOT/AOT_stimuli/rescaled_final/2018_rv.mp4	0.0	186.36632895469666	0.09961199760437012
28	148.60713386535645	fix_pre	0		120	26.0	2.5	/experiments/AOT/AOT_stimuli/rescaled_final/0597_fw.mp4	0.0	186.46594095230103	1.0003831386566162
28	148.7835659980774	pulse	0	t		26.0	2.5	/experiments/AOT/AOT_stimuli/rescaled_final/0597_fw.mp4	0.0	186.64237308502197	
28	149.60751700401306	movie	1		244	26.0	2.5	/experiments/AOT/AOT_stimuli/rescaled_final/0597_fw.mp4	0.0	187.46632409095764	2.4995758533477783
28	150.38364005088806	pulse	1	t		26.0	2.5	/experiments/AOT/AOT_stimuli/rescaled_final/0597_fw.mp4	0.0	188.24244713783264	
28	151.98985886573792	pulse	1	t		26.0	2.5	/experiments/AOT/AOT_stimuli/rescaled_final/0597_fw.mp4	0.0	189.8486659526825	
28	152.10709285736084	fix_post	2		12	26.0	2.5	/experiments/AOT/AOT_stimuli/rescaled_final/0597_fw.mp4	0.0	189.96589994430542	0.10041022300720215
29	152.20750308036804	fix_pre	0		120	27.0	2.5	/experiments/AOT/AOT_stimuli/rescaled_final/1994_fw.mp4	0.0	190.06631016731262	1.000011920928955
29	153.207515001297	movie	1		245	27.0	2.5	/experiments/AOT/AOT_stimuli/rescaled_final/1994_fw.mp4	0.0	191.06632208824158	2.4995880126953125
29	153.5909469127655	pulse	1	t		27.0	2.5	/experiments/AOT/AOT_stimuli/rescaled_final/1994_fw.mp4	0.0	191.44975399971008	
29	155.1836540699005	pulse	1	t		27.0	2.5	/experiments/AOT/AOT_stimuli/rescaled_final/1994_fw.mp4	0.0	193.0424611568451	
29	155.7071030139923	fix_post	2		12	27.0	2.5	/experiments/AOT/AOT_stimuli/rescaled_final/1994_fw.mp4	0.0	193.5659101009369	0.10037994384765625
30	155.80748295783997	fix_pre	0		119	28.0	2.5	blank	1.0	193.66629004478455	0.9917011260986328
30	156.78340888023376	pulse	0	t		28.0	2.5	blank	1.0	194.64221596717834	
30	156.7991840839386	movie	1		301	28.0	2.5	blank	1.0	194.65799117088318	2.5083978176116943
30	158.38267397880554	pulse	1	t		28.0	2.5	blank	1.0	196.24148106575012	
30	159.3075819015503	fix_post	2		12	28.0	2.5	blank	1.0	197.16638898849487	0.09989309310913086
31	159.40747499465942	fix_pre	0		120	29.0	2.5	/experiments/AOT/AOT_stimuli/rescaled_final/1954_rv.mp4	0.0	197.266282081604	1.0000340938568115
31	159.98268389701843	pulse	0	t		29.0	2.5	/experiments/AOT/AOT_stimuli/rescaled_final/1954_rv.mp4	0.0	197.841490983963	
31	160.40750908851624	movie	1		243	29.0	2.5	/experiments/AOT/AOT_stimuli/rescaled_final/1954_rv.mp4	0.0	198.26631617546082	2.5000529289245605
31	161.591078042984	pulse	1	t		29.0	2.5	/experiments/AOT/AOT_stimuli/rescaled_final/1954_rv.mp4	0.0	199.4498851299286	
31	162.9075620174408	fix_post	2		12	29.0	2.5	/experiments/AOT/AOT_stimuli/rescaled_final/1954_rv.mp4	0.0	200.76636910438538	0.09996604919433594
32	163.00752806663513	fix_pre	0		120	30.0	2.5	/experiments/AOT/AOT_stimuli/rescaled_final/0834_fw.mp4	0.0	200.8663351535797	0.999992847442627
32	163.1835799217224	pulse	0	t		30.0	2.5	/experiments/AOT/AOT_stimuli/rescaled_final/0834_fw.mp4	0.0	201.042387008667	
32	164.00752091407776	movie	1		245	30.0	2.5	/experiments/AOT/AOT_stimuli/rescaled_final/0834_fw.mp4	0.0	201.86632800102234	2.49991512298584
32	164.78356504440308	pulse	1	t		30.0	2.5	/experiments/AOT/AOT_stimuli/rescaled_final/0834_fw.mp4	0.0	202.64237213134766	
32	166.38916993141174	pulse	1	t		30.0	2.5	/experiments/AOT/AOT_stimuli/rescaled_final/0834_fw.mp4	0.0	204.24797701835632	
32	166.5074360370636	fix_post	2		12	30.0	2.5	/experiments/AOT/AOT_stimuli/rescaled_final/0834_fw.mp4	0.0	204.36624312400818	0.10007786750793457
33	166.60751390457153	fix_pre	0		120	31.0	2.5	/experiments/AOT/AOT_stimuli/rescaled_final/0912_fw.mp4	0.0	204.4663209915161	1.0000190734863281
33	167.60753297805786	movie	1		247	31.0	2.5	/experiments/AOT/AOT_stimuli/rescaled_final/0912_fw.mp4	0.0	205.46634006500244	2.4999520778656006
33	167.99110007286072	pulse	1	t		31.0	2.5	/experiments/AOT/AOT_stimuli/rescaled_final/0912_fw.mp4	0.0	205.8499071598053	
33	169.58360600471497	pulse	1	t		31.0	2.5	/experiments/AOT/AOT_stimuli/rescaled_final/0912_fw.mp4	0.0	207.44241309165955	
33	170.10748505592346	fix_post	2		12	31.0	2.5	/experiments/AOT/AOT_stimuli/rescaled_final/0912_fw.mp4	0.0	207.96629214286804	0.10000300407409668
34	170.20748805999756	fix_pre	0		119	32.0	2.5	/experiments/AOT/AOT_stimuli/rescaled_final/0130_rv.mp4	0.0	208.06629514694214	0.9916348457336426
34	171.18339705467224	pulse	0	t		32.0	2.5	/experiments/AOT/AOT_stimuli/rescaled_final/0130_rv.mp4	0.0	209.04220414161682	
34	171.1991229057312	movie	1		245	32.0	2.5	/experiments/AOT/AOT_stimuli/rescaled_final/0130_rv.mp4	0.0	209.05792999267578	2.5084071159362793
34	172.79039192199707	pulse	1	t		32.0	2.5	/experiments/AOT/AOT_stimuli/rescaled_final/0130_rv.mp4	0.0	210.64919900894165	
34	173.70753002166748	fix_post	2		12	32.0	2.5	/experiments/AOT/AOT_stimuli/rescaled_final/0130_rv.mp4	0.0	211.56633710861206	0.09986996650695801
35	173.80739998817444	fix_pre	0		120	33.0	2.5	blank	1.0	211.66620707511902	1.0000290870666504
35	174.38269186019897	pulse	0	t		33.0	2.5	blank	1.0	212.24149894714355	
35	174.8074290752411	movie	1		300	33.0	2.5	blank	1.0	212.66623616218567	2.499997854232788
35	175.98255586624146	pulse	1	t		33.0	2.5	blank	1.0	213.84136295318604	
35	177.30742692947388	fix_post	2		12	33.0	2.5	blank	1.0	215.16623401641846	0.09954309463500977
36	177.4069700241089	fix_pre	0		120	34.0	2.5	/experiments/AOT/AOT_stimuli/rescaled_final/1200_fw.mp4	0.0	215.26577711105347	1.0005128383636475
36	177.5909459590912	pulse	0	t		34.0	2.5	/experiments/AOT/AOT_stimuli/rescaled_final/1200_fw.mp4	0.0	215.44975304603577	
36	178.40748286247253	movie	1		242	34.0	2.5	/experiments/AOT/AOT_stimuli/rescaled_final/1200_fw.mp4	0.0	216.26628994941711	2.4999611377716064
36	179.1835160255432	pulse	1	t		34.0	2.5	/experiments/AOT/AOT_stimuli/rescaled_final/1200_fw.mp4	0.0	217.0423231124878	
36	180.78926992416382	pulse	1	t		34.0	2.5	/experiments/AOT/AOT_stimuli/rescaled_final/1200_fw.mp4	0.0	218.6480770111084	
36	180.90744400024414	fix_post	2		12	34.0	2.5	/experiments/AOT/AOT_stimuli/rescaled_final/1200_fw.mp4	0.0	218.76625108718872	0.10000801086425781
37	181.0074520111084	fix_pre	0		120	35.0	2.5	/experiments/AOT/AOT_stimuli/rescaled_final/0026_fw.mp4	0.0	218.86625909805298	0.9999840259552002
37	182.0074360370636	movie	1		246	35.0	2.5	/experiments/AOT/AOT_stimuli/rescaled_final/0026_fw.mp4	0.0	219.86624312400818	2.499976873397827
37	182.39037489891052	pulse	1	t		35.0	2.5	/experiments/AOT/AOT_stimuli/rescaled_final/0026_fw.mp4	0.0	220.2491819858551	
37	183.9903929233551	pulse	1	t		35.0	2.5	/experiments/AOT/AOT_stimuli/rescaled_final/0026_fw.mp4	0.0	221.84920001029968	
37	184.50741291046143	fix_post	2		12	35.0	2.5	/experiments/AOT/AOT_stimuli/rescaled_final/0026_fw.mp4	0.0	222.366219997406	0.10003113746643066
38	184.60744404792786	fix_pre	0		119	36.0	2.5	/experiments/AOT/AOT_stimuli/rescaled_final/0590_rv.mp4	0.0	222.46625113487244	0.9917559623718262
38	185.5831880569458	pulse	0	t		36.0	2.5	/experiments/AOT/AOT_stimuli/rescaled_final/0590_rv.mp4	0.0	223.44199514389038	
38	185.59920001029968	movie	1		246	36.0	2.5	/experiments/AOT/AOT_stimuli/rescaled_final/0590_rv.mp4	0.0	223.45800709724426	2.508254051208496
38	187.19071197509766	pulse	1	t		36.0	2.5	/experiments/AOT/AOT_stimuli/rescaled_final/0590_rv.mp4	0.0	225.04951906204224	
38	188.10745406150818	fix_post	2		12	36.0	2.5	/experiments/AOT/AOT_stimuli/rescaled_final/0590_rv.mp4	0.0	225.96626114845276	0.09955787658691406
39	188.2070119380951	fix_pre	0		120	37.0	2.5	/experiments/AOT/AOT_stimuli/rescaled_final/0101_rv.mp4	0.0	226.06581902503967	1.000399112701416
39	188.78335285186768	pulse	0	t		37.0	2.5	/experiments/AOT/AOT_stimuli/rescaled_final/0101_rv.mp4	0.0	226.64215993881226	
39	189.2074110507965	movie	1		244	37.0	2.5	/experiments/AOT/AOT_stimuli/rescaled_final/0101_rv.mp4	0.0	227.0662181377411	2.499526023864746
39	190.3909170627594	pulse	1	t		37.0	2.5	/experiments/AOT/AOT_stimuli/rescaled_final/0101_rv.mp4	0.0	228.24972414970398	
39	191.70693707466125	fix_post	2		12	37.0	2.5	/experiments/AOT/AOT_stimuli/rescaled_final/0101_rv.mp4	0.0	229.56574416160583	0.10047292709350586
40	191.80741000175476	fix_pre	0		120	38.0	2.5	/experiments/AOT/AOT_stimuli/rescaled_final/1619_rv.mp4	0.0	229.66621708869934	0.9999439716339111
40	191.98328685760498	pulse	0	t		38.0	2.5	/experiments/AOT/AOT_stimuli/rescaled_final/1619_rv.mp4	0.0	229.84209394454956	
40	192.80735397338867	movie	1		245	38.0	2.5	/experiments/AOT/AOT_stimuli/rescaled_final/1619_rv.mp4	0.0	230.66616106033325	2.5000009536743164
40	193.5840618610382	pulse	1	t		38.0	2.5	/experiments/AOT/AOT_stimuli/rescaled_final/1619_rv.mp4	0.0	231.4428689479828	
40	195.18954992294312	pulse	1	t		38.0	2.5	/experiments/AOT/AOT_stimuli/rescaled_final/1619_rv.mp4	0.0	233.0483570098877	
40	195.307354927063	fix_post	2		12	38.0	2.5	/experiments/AOT/AOT_stimuli/rescaled_final/1619_rv.mp4	0.0	233.16616201400757	0.09992408752441406
41	195.4072790145874	fix_pre	0		120	39.0	2.5	/experiments/AOT/AOT_stimuli/rescaled_final/0311_rv.mp4	0.0	233.26608610153198	1.0000429153442383
41	196.40732192993164	movie	1		243	39.0	2.5	/experiments/AOT/AOT_stimuli/rescaled_final/0311_rv.mp4	0.0	234.26612901687622	2.4999899864196777
41	196.7903289794922	pulse	1	t		39.0	2.5	/experiments/AOT/AOT_stimuli/rescaled_final/0311_rv.mp4	0.0	234.64913606643677	
41	198.38347387313843	pulse	1	t		39.0	2.5	/experiments/AOT/AOT_stimuli/rescaled_final/0311_rv.mp4	0.0	236.242280960083	
41	198.90731191635132	fix_post	2		12	39.0	2.5	/experiments/AOT/AOT_stimuli/rescaled_final/0311_rv.mp4	0.0	236.7661190032959	0.09963607788085938
42	199.00694799423218	fix_pre	0		119	40.0	2.5	blank	1.0	236.86575508117676	0.9920060634613037
42	199.9832558631897	pulse	0	t		40.0	2.5	blank	1.0	237.84206295013428	
42	199.99895405769348	movie	1		301	40.0	2.5	blank	1.0	237.85776114463806	2.508492946624756
42	201.58330488204956	pulse	1	t		40.0	2.5	blank	1.0	239.44211196899414	
42	202.50744700431824	fix_post	2		12	40.0	2.5	blank	1.0	240.36625409126282	0.09982490539550781
43	202.60727190971375	fix_pre	0		120	41.0	2.5	/experiments/AOT/AOT_stimuli/rescaled_final/0542_rv.mp4	0.0	240.46607899665833	1.0000629425048828
43	203.1832869052887	pulse	0	t		41.0	2.5	/experiments/AOT/AOT_stimuli/rescaled_final/0542_rv.mp4	0.0	241.04209399223328	
43	203.60733485221863	movie	1		248	41.0	2.5	/experiments/AOT/AOT_stimuli/rescaled_final/0542_rv.mp4	0.0	241.4661419391632	2.500070095062256
43	204.79083490371704	pulse	1	t		41.0	2.5	/experiments/AOT/AOT_stimuli/rescaled_final/0542_rv.mp4	0.0	242.64964199066162	
43	206.10740494728088	fix_post	2		12	41.0	2.5	/experiments/AOT/AOT_stimuli/rescaled_final/0542_rv.mp4	0.0	243.96621203422546	0.09991812705993652
44	206.20732307434082	fix_pre	0		120	42.0	2.5	/experiments/AOT/AOT_stimuli/rescaled_final/0782_rv.mp4	0.0	244.0661301612854	1.0000410079956055
44	206.38324308395386	pulse	0	t		42.0	2.5	/experiments/AOT/AOT_stimuli/rescaled_final/0782_rv.mp4	0.0	244.24205017089844	
44	207.20736408233643	movie	1		247	42.0	2.5	/experiments/AOT/AOT_stimuli/rescaled_final/0782_rv.mp4	0.0	245.066171169281	2.4995169639587402
44	207.98319792747498	pulse	1	t		42.0	2.5	/experiments/AOT/AOT_stimuli/rescaled_final/0782_rv.mp4	0.0	245.84200501441956	
44	209.5894808769226	pulse	1	t		42.0	2.5	/experiments/AOT/AOT_stimuli/rescaled_final/0782_rv.mp4	0.0	247.4482879638672	
44	209.70688104629517	fix_post	2		12	42.0	2.5	/experiments/AOT/AOT_stimuli/rescaled_final/0782_rv.mp4	0.0	247.56568813323975	0.09996199607849121
45	209.80684304237366	fix_pre	0		120	43.0	2.5	/experiments/AOT/AOT_stimuli/rescaled_final/0298_fw.mp4	0.0	247.66565012931824	1.0004680156707764
45	210.80731105804443	movie	1		244	43.0	2.5	/experiments/AOT/AOT_stimuli/rescaled_final/0298_fw.mp4	0.0	248.666118144989	2.4999258518218994
45	211.190358877182	pulse	1	t		43.0	2.5	/experiments/AOT/AOT_stimuli/rescaled_final/0298_fw.mp4	0.0	249.0491659641266	
45	212.78353905677795	pulse	1	t		43.0	2.5	/experiments/AOT/AOT_stimuli/rescaled_final/0298_fw.mp4	0.0	250.64234614372253	
45	213.30723690986633	fix_post	2		12	43.0	2.5	/experiments/AOT/AOT_stimuli/rescaled_final/0298_fw.mp4	0.0	251.1660439968109	0.10006594657897949
46	213.4073028564453	fix_pre	0		119	44.0	2.5	/experiments/AOT/AOT_stimuli/rescaled_final/0921_rv.mp4	0.0	251.2661099433899	0.9916260242462158
46	214.38324689865112	pulse	0	t		44.0	2.5	/experiments/AOT/AOT_stimuli/rescaled_final/0921_rv.mp4	0.0	252.2420539855957	
46	214.39892888069153	movie	1		246	44.0	2.5	/experiments/AOT/AOT_stimuli/rescaled_final/0921_rv.mp4	0.0	252.2577359676361	2.508329153060913
46	215.9903428554535	pulse	1	t		44.0	2.5	/experiments/AOT/AOT_stimuli/rescaled_final/0921_rv.mp4	0.0	253.84914994239807	
46	216.90725803375244	fix_post	2		12	44.0	2.5	/experiments/AOT/AOT_stimuli/rescaled_final/0921_rv.mp4	0.0	254.76606512069702	0.10001587867736816
47	217.0072739124298	fix_pre	0		120	45.0	2.5	/experiments/AOT/AOT_stimuli/rescaled_final/0435_fw.mp4	0.0	254.8660809993744	0.9999210834503174
47	217.5832359790802	pulse	0	t		45.0	2.5	/experiments/AOT/AOT_stimuli/rescaled_final/0435_fw.mp4	0.0	255.44204306602478	
47	218.00719499588013	movie	1		245	45.0	2.5	/experiments/AOT/AOT_stimuli/rescaled_final/0435_fw.mp4	0.0	255.8660020828247	2.50008487701416
47	219.1907889842987	pulse	1	t		45.0	2.5	/experiments/AOT/AOT_stimuli/rescaled_final/0435_fw.mp4	0.0	257.0495960712433	
47	220.5072798728943	fix_post	2		12	45.0	2.5	/experiments/AOT/AOT_stimuli/rescaled_final/0435_fw.mp4	0.0	258.36608695983887	0.09991908073425293
48	220.60719895362854	fix_pre	0		120	46.0	2.5	/experiments/AOT/AOT_stimuli/rescaled_final/0966_rv.mp4	0.0	258.4660060405731	0.9995870590209961
48	220.78313899040222	pulse	0	t		46.0	2.5	/experiments/AOT/AOT_stimuli/rescaled_final/0966_rv.mp4	0.0	258.6419460773468	
48	221.60678601264954	movie	1		244	46.0	2.5	/experiments/AOT/AOT_stimuli/rescaled_final/0966_rv.mp4	0.0	259.4655930995941	2.5003669261932373
48	222.3831958770752	pulse	1	t		46.0	2.5	/experiments/AOT/AOT_stimuli/rescaled_final/0966_rv.mp4	0.0	260.2420029640198	
48	223.9891209602356	pulse	1	t		46.0	2.5	/experiments/AOT/AOT_stimuli/rescaled_final/0966_rv.mp4	0.0	261.8479280471802	
48	224.10715293884277	fix_post	2		12	46.0	2.5	/experiments/AOT/AOT_stimuli/rescaled_final/0966_rv.mp4	0.0	261.96596002578735	0.09962296485900879
49	224.20677590370178	fix_pre	0		120	47.0	2.5	/experiments/AOT/AOT_stimuli/rescaled_final/0926_fw.mp4	0.0	262.06558299064636	1.0000901222229004
49	225.20686602592468	movie	1		244	47.0	2.5	/experiments/AOT/AOT_stimuli/rescaled_final/0926_fw.mp4	0.0	263.06567311286926	2.5000319480895996
49	225.59189105033875	pulse	1	t		47.0	2.5	/experiments/AOT/AOT_stimuli/rescaled_final/0926_fw.mp4	0.0	263.4506981372833	
49	227.19062495231628	pulse	1	t		47.0	2.5	/experiments/AOT/AOT_stimuli/rescaled_final/0926_fw.mp4	0.0	265.04943203926086	
49	227.70689797401428	fix_post	2		12	47.0	2.5	/experiments/AOT/AOT_stimuli/rescaled_final/0926_fw.mp4	0.0	265.56570506095886	0.10028195381164551
50	227.80717992782593	fix_pre	0		119	48.0	2.5	blank	1.0	265.6659870147705	0.9917230606079102
50	228.79093098640442	pulse	0	t		48.0	2.5	blank	1.0	266.649738073349	
50	228.79890298843384	movie	1		301	48.0	2.5	blank	1.0	266.6577100753784	2.5082600116729736
50	230.39072108268738	pulse	1	t		48.0	2.5	blank	1.0	268.24952816963196	
50	231.3071630001068	fix_post	2		12	48.0	2.5	blank	1.0	269.1659700870514	0.10000491142272949
51	231.40716791152954	fix_pre	0		120	49.0	2.5	/experiments/AOT/AOT_stimuli/rescaled_final/1313_fw.mp4	0.0	269.2659749984741	0.9999690055847168
51	231.99059987068176	pulse	0	t		49.0	2.5	/experiments/AOT/AOT_stimuli/rescaled_final/1313_fw.mp4	0.0	269.84940695762634	
51	232.40713691711426	movie	1		244	49.0	2.5	/experiments/AOT/AOT_stimuli/rescaled_final/1313_fw.mp4	0.0	270.26594400405884	2.499997138977051
51	233.5907380580902	pulse	1	t		49.0	2.5	/experiments/AOT/AOT_stimuli/rescaled_final/1313_fw.mp4	0.0	271.4495451450348	
51	234.9071340560913	fix_post	2		12	49.0	2.5	/experiments/AOT/AOT_stimuli/rescaled_final/1313_fw.mp4	0.0	272.7659411430359	0.0999748706817627
52	235.00710892677307	fix_pre	0		120	50.0	2.5	/experiments/AOT/AOT_stimuli/rescaled_final/1430_rv.mp4	0.0	272.86591601371765	0.9997639656066895
52	235.18345594406128	pulse	0	t		50.0	2.5	/experiments/AOT/AOT_stimuli/rescaled_final/1430_rv.mp4	0.0	273.04226303100586	
52	236.00687289237976	movie	1		243	50.0	2.5	/experiments/AOT/AOT_stimuli/rescaled_final/1430_rv.mp4	0.0	273.86567997932434	2.4998581409454346
52	236.78343987464905	pulse	1	t		50.0	2.5	/experiments/AOT/AOT_stimuli/rescaled_final/1430_rv.mp4	0.0	274.6422469615936	
52	238.38950085639954	pulse	1	t		50.0	2.5	/experiments/AOT/AOT_stimuli/rescaled_final/1430_rv.mp4	0.0	276.2483079433441	
52	238.5067310333252	fix_post	2		12	50.0	2.5	/experiments/AOT/AOT_stimuli/rescaled_final/1430_rv.mp4	0.0	276.3655381202698	0.10038900375366211
53	238.60712003707886	fix_pre	0		120	51.0	2.5	/experiments/AOT/AOT_stimuli/rescaled_final/0844_rv.mp4	0.0	276.46592712402344	0.9995629787445068
53	239.60668301582336	movie	1		246	51.0	2.5	/experiments/AOT/AOT_stimuli/rescaled_final/0844_rv.mp4	0.0	277.46549010276794	2.5002548694610596
53	239.99008893966675	pulse	1	t		51.0	2.5	/experiments/AOT/AOT_stimuli/rescaled_final/0844_rv.mp4	0.0	277.8488960266113	
53	241.59070491790771	pulse	1	t		51.0	2.5	/experiments/AOT/AOT_stimuli/rescaled_final/0844_rv.mp4	0.0	279.4495120048523	
53	242.10693788528442	fix_post	2		12	51.0	2.5	/experiments/AOT/AOT_stimuli/rescaled_final/0844_rv.mp4	0.0	279.965744972229	0.10002517700195312
54	242.20696306228638	fix_pre	0		119	52.0	2.5	/experiments/AOT/AOT_stimuli/rescaled_final/2122_fw.mp4	0.0	280.06577014923096	0.9917888641357422
54	243.19057989120483	pulse	0	t		52.0	2.5	/experiments/AOT/AOT_stimuli/rescaled_final/2122_fw.mp4	0.0	281.0493869781494	
54	243.19875192642212	movie	1		244	52.0	2.5	/experiments/AOT/AOT_stimuli/rescaled_final/2122_fw.mp4	0.0	281.0575590133667	2.5080230236053467
54	244.7915120124817	pulse	1	t		52.0	2.5	/experiments/AOT/AOT_stimuli/rescaled_final/2122_fw.mp4	0.0	282.65031909942627	
54	245.70677495002747	fix_post	2		12	52.0	2.5	/experiments/AOT/AOT_stimuli/rescaled_final/2122_fw.mp4	0.0	283.56558203697205	0.09997200965881348
55	245.80674695968628	fix_pre	0		120	53.0	2.5	/experiments/AOT/AOT_stimuli/rescaled_final/0301_rv.mp4	0.0	283.66555404663086	1.000309944152832
55	246.39059686660767	pulse	0	t		53.0	2.5	/experiments/AOT/AOT_stimuli/rescaled_final/0301_rv.mp4	0.0	284.24940395355225	
55	246.8070569038391	movie	1		243	53.0	2.5	/experiments/AOT/AOT_stimuli/rescaled_final/0301_rv.mp4	0.0	284.6658639907837	2.500070095062256
55	247.99068593978882	pulse	1	t		53.0	2.5	/experiments/AOT/AOT_stimuli/rescaled_final/0301_rv.mp4	0.0	285.8494930267334	
55	249.30712699890137	fix_post	2		12	53.0	2.5	/experiments/AOT/AOT_stimuli/rescaled_final/0301_rv.mp4	0.0	287.16593408584595	0.09990692138671875
56	249.4070339202881	fix_pre	0		120	54.0	2.5	/experiments/AOT/AOT_stimuli/rescaled_final/1917_rv.mp4	0.0	287.26584100723267	1.000028133392334
56	249.5905270576477	pulse	0	t		54.0	2.5	/experiments/AOT/AOT_stimuli/rescaled_final/1917_rv.mp4	0.0	287.4493341445923	
56	250.40706205368042	movie	1		248	54.0	2.5	/experiments/AOT/AOT_stimuli/rescaled_final/1917_rv.mp4	0.0	288.265869140625	2.4999289512634277
56	251.1905119419098	pulse	1	t		54.0	2.5	/experiments/AOT/AOT_stimuli/rescaled_final/1917_rv.mp4	0.0	289.04931902885437	
56	252.78662586212158	pulse	1	t		54.0	2.5	/experiments/AOT/AOT_stimuli/rescaled_final/1917_rv.mp4	0.0	290.64543294906616	
56	252.90699100494385	fix_post	2		12	54.0	2.5	/experiments/AOT/AOT_stimuli/rescaled_final/1917_rv.mp4	0.0	290.7657980918884	0.10003900527954102
57	253.0070300102234	fix_pre	0		120	55.0	2.5	blank	1.0	290.86583709716797	1.00006103515625
57	254.00709104537964	movie	1		300	55.0	2.5	blank	1.0	291.8658981323242	2.5000100135803223
57	254.38327193260193	pulse	1	t		55.0	2.5	blank	1.0	292.2420790195465	
57	255.9829318523407	pulse	1	t		55.0	2.5	blank	1.0	293.8417389392853	
57	256.50710105895996	fix_post	2		12	55.0	2.5	blank	1.0	294.36590814590454	0.10004186630249023
58	256.60714292526245	fix_pre	0		119	56.0	2.5	/experiments/AOT/AOT_stimuli/rescaled_final/1898_fw.mp4	0.0	294.46595001220703	0.9915180206298828
58	257.59046387672424	pulse	0	t		56.0	2.5	/experiments/AOT/AOT_stimuli/rescaled_final/1898_fw.mp4	0.0	295.4492709636688	
58	257.59866094589233	movie	1		246	56.0	2.5	/experiments/AOT/AOT_stimuli/rescaled_final/1898_fw.mp4	0.0	295.4574680328369	2.5079281330108643
58	259.1915578842163	pulse	1	t		56.0	2.5	/experiments/AOT/AOT_stimuli/rescaled_final/1898_fw.mp4	0.0	297.0503649711609	
58	260.1065890789032	fix_post	2		12	56.0	2.5	/experiments/AOT/AOT_stimuli/rescaled_final/1898_fw.mp4	0.0	297.9653961658478	0.10048580169677734
59	260.2070748806	fix_pre	0		120	57.0	2.5	/experiments/AOT/AOT_stimuli/rescaled_final/2105_fw.mp4	0.0	298.06588196754456	0.9999961853027344
59	260.790549993515	pulse	0	t		57.0	2.5	/experiments/AOT/AOT_stimuli/rescaled_final/2105_fw.mp4	0.0	298.6493570804596	
59	261.2070710659027	movie	1		243	57.0	2.5	/experiments/AOT/AOT_stimuli/rescaled_final/2105_fw.mp4	0.0	299.0658781528473	2.4999988079071045
59	262.3905749320984	pulse	1	t		57.0	2.5	/experiments/AOT/AOT_stimuli/rescaled_final/2105_fw.mp4	0.0	300.24938201904297	
59	263.7070698738098	fix_post	2		12	57.0	2.5	/experiments/AOT/AOT_stimuli/rescaled_final/2105_fw.mp4	0.0	301.5658769607544	0.09994101524353027
60	263.80701088905334	fix_pre	0		120	58.0	2.5	/experiments/AOT/AOT_stimuli/rescaled_final/0839_fw.mp4	0.0	301.6658179759979	1.0000100135803223
60	263.9904930591583	pulse	0	t		58.0	2.5	/experiments/AOT/AOT_stimuli/rescaled_final/0839_fw.mp4	0.0	301.8493001461029	
60	264.80702090263367	movie	1		243	58.0	2.5	/experiments/AOT/AOT_stimuli/rescaled_final/0839_fw.mp4	0.0	302.66582798957825	2.500014066696167
60	265.5904619693756	pulse	1	t		58.0	2.5	/experiments/AOT/AOT_stimuli/rescaled_final/0839_fw.mp4	0.0	303.4492690563202	
60	267.18658089637756	pulse	1	t		58.0	2.5	/experiments/AOT/AOT_stimuli/rescaled_final/0839_fw.mp4	0.0	305.04538798332214	
60	267.30703496932983	fix_post	2		12	58.0	2.5	/experiments/AOT/AOT_stimuli/rescaled_final/0839_fw.mp4	0.0	305.1658420562744	0.09992098808288574
61	267.4069559574127	fix_pre	0		120	59.0	2.5	/experiments/AOT/AOT_stimuli/rescaled_final/0942_fw.mp4	0.0	305.2657630443573	1.0000979900360107
61	268.40705394744873	movie	1		243	59.0	2.5	/experiments/AOT/AOT_stimuli/rescaled_final/0942_fw.mp4	0.0	306.2658610343933	2.4997000694274902
61	268.79002594947815	pulse	1	t		59.0	2.5	/experiments/AOT/AOT_stimuli/rescaled_final/0942_fw.mp4	0.0	306.64883303642273	
61	270.3831419944763	pulse	1	t		59.0	2.5	/experiments/AOT/AOT_stimuli/rescaled_final/0942_fw.mp4	0.0	308.2419490814209	
61	270.9067540168762	fix_post	2		12	59.0	2.5	/experiments/AOT/AOT_stimuli/rescaled_final/0942_fw.mp4	0.0	308.7655611038208	0.10021591186523438
62	271.00696992874146	fix_pre	0		119	60.0	2.5	/experiments/AOT/AOT_stimuli/rescaled_final/1506_rv.mp4	0.0	308.86577701568604	0.9916551113128662
62	271.9828839302063	pulse	0	t		60.0	2.5	/experiments/AOT/AOT_stimuli/rescaled_final/1506_rv.mp4	0.0	309.8416910171509	
62	271.9986250400543	movie	1		245	60.0	2.5	/experiments/AOT/AOT_stimuli/rescaled_final/1506_rv.mp4	0.0	309.8574321269989	2.507882833480835
62	273.5906970500946	pulse	1	t		60.0	2.5	/experiments/AOT/AOT_stimuli/rescaled_final/1506_rv.mp4	0.0	311.4495041370392	
62	274.50650787353516	fix_post	2		12	60.0	2.5	/experiments/AOT/AOT_stimuli/rescaled_final/1506_rv.mp4	0.0	312.36531496047974	0.10051918029785156
63	274.607027053833	fix_pre	0		120	61.0	2.5	/experiments/AOT/AOT_stimuli/rescaled_final/0538_fw.mp4	0.0	312.4658341407776	0.999985933303833
63	275.1904990673065	pulse	0	t		61.0	2.5	/experiments/AOT/AOT_stimuli/rescaled_final/0538_fw.mp4	0.0	313.0493061542511	
63	275.60701298713684	movie	1		246	61.0	2.5	/experiments/AOT/AOT_stimuli/rescaled_final/0538_fw.mp4	0.0	313.4658200740814	2.4999189376831055
63	276.7905659675598	pulse	1	t		61.0	2.5	/experiments/AOT/AOT_stimuli/rescaled_final/0538_fw.mp4	0.0	314.6493730545044	
63	278.10693192481995	fix_post	2		12	61.0	2.5	/experiments/AOT/AOT_stimuli/rescaled_final/0538_fw.mp4	0.0	315.9657390117645	0.10001897811889648
64	278.20695090293884	fix_pre	0		120	62.0	2.5	/experiments/AOT/AOT_stimuli/rescaled_final/1793_rv.mp4	0.0	316.0657579898834	1.0000150203704834
64	278.39050793647766	pulse	0	t		62.0	2.5	/experiments/AOT/AOT_stimuli/rescaled_final/1793_rv.mp4	0.0	316.24931502342224	
64	279.2069659233093	movie	1		247	62.0	2.5	/experiments/AOT/AOT_stimuli/rescaled_final/1793_rv.mp4	0.0	317.0657730102539	2.500044107437134
64	279.9905219078064	pulse	1	t		62.0	2.5	/experiments/AOT/AOT_stimuli/rescaled_final/1793_rv.mp4	0.0	317.849328994751	
64	281.5899679660797	pulse	1	t		62.0	2.5	/experiments/AOT/AOT_stimuli/rescaled_final/1793_rv.mp4	0.0	319.4487750530243	
64	281.70701003074646	fix_post	2		12	62.0	2.5	/experiments/AOT/AOT_stimuli/rescaled_final/1793_rv.mp4	0.0	319.56581711769104	0.09994101524353027
65	281.80695104599	fix_pre	0		120	63.0	2.5	blank	1.0	319.66575813293457	0.9999818801879883
65	282.806932926178	movie	1		300	63.0	2.5	blank	1.0	320.66574001312256	2.499943971633911
65	283.19049191474915	pulse	1	t		63.0	2.5	blank	1.0	321.0492990016937	
65	284.78297996520996	pulse	1	t		63.0	2.5	blank	1.0	322.64178705215454	
65	285.3068768978119	fix_post	2		12	63.0	2.5	blank	1.0	323.16568398475647	0.10001397132873535
66	285.4068908691406	fix_pre	0		119	64.0	2.5	/experiments/AOT/AOT_stimuli/rescaled_final/0548_rv.mp4	0.0	323.2656979560852	0.9916481971740723
66	286.39038491249084	pulse	0	t		64.0	2.5	/experiments/AOT/AOT_stimuli/rescaled_final/0548_rv.mp4	0.0	324.2491919994354	
66	286.3985390663147	movie	1		244	64.0	2.5	/experiments/AOT/AOT_stimuli/rescaled_final/0548_rv.mp4	0.0	324.2573461532593	2.5083248615264893
66	287.99055790901184	pulse	1	t		64.0	2.5	/experiments/AOT/AOT_stimuli/rescaled_final/0548_rv.mp4	0.0	325.8493649959564	
66	288.9068639278412	fix_post	2		12	64.0	2.5	/experiments/AOT/AOT_stimuli/rescaled_final/0548_rv.mp4	0.0	326.76567101478577	0.100067138671875
67	289.00693106651306	fix_pre	0		120	65.0	2.5	/experiments/AOT/AOT_stimuli/rescaled_final/0834_fw.mp4	0.0	326.86573815345764	1.0000429153442383
67	289.59039187431335	pulse	0	t		65.0	2.5	/experiments/AOT/AOT_stimuli/rescaled_final/0834_fw.mp4	0.0	327.44919896125793	
67	290.0069739818573	movie	1		244	65.0	2.5	/experiments/AOT/AOT_stimuli/rescaled_final/0834_fw.mp4	0.0	327.8657810688019	2.4998769760131836
67	291.19059705734253	pulse	1	t		65.0	2.5	/experiments/AOT/AOT_stimuli/rescaled_final/0834_fw.mp4	0.0	329.0494041442871	
67	292.5068509578705	fix_post	2		12	65.0	2.5	/experiments/AOT/AOT_stimuli/rescaled_final/0834_fw.mp4	0.0	330.36565804481506	0.10011005401611328
68	292.6069610118866	fix_pre	0		120	66.0	2.5	/experiments/AOT/AOT_stimuli/rescaled_final/1349_fw.mp4	0.0	330.4657680988312	0.9999339580535889
68	292.79061698913574	pulse	0	t		66.0	2.5	/experiments/AOT/AOT_stimuli/rescaled_final/1349_fw.mp4	0.0	330.6494240760803	
68	293.6068949699402	movie	1		246	66.0	2.5	/experiments/AOT/AOT_stimuli/rescaled_final/1349_fw.mp4	0.0	331.46570205688477	2.5000219345092773
68	294.39050102233887	pulse	1	t		66.0	2.5	/experiments/AOT/AOT_stimuli/rescaled_final/1349_fw.mp4	0.0	332.24930810928345	
68	295.98879885673523	pulse	1	t		66.0	2.5	/experiments/AOT/AOT_stimuli/rescaled_final/1349_fw.mp4	0.0	333.8476059436798	
68	296.10691690444946	fix_post	2		12	66.0	2.5	/experiments/AOT/AOT_stimuli/rescaled_final/1349_fw.mp4	0.0	333.96572399139404	0.10001206398010254
69	296.20692896842957	fix_pre	0		120	67.0	2.5	/experiments/AOT/AOT_stimuli/rescaled_final/1867_fw.mp4	0.0	334.06573605537415	0.9996540546417236
69	297.2065830230713	movie	1		246	67.0	2.5	/experiments/AOT/AOT_stimuli/rescaled_final/1867_fw.mp4	0.0	335.06539011001587	2.5002858638763428
69	297.5902509689331	pulse	1	t		67.0	2.5	/experiments/AOT/AOT_stimuli/rescaled_final/1867_fw.mp4	0.0	335.4490580558777	
69	299.1903438568115	pulse	1	t		67.0	2.5	/experiments/AOT/AOT_stimuli/rescaled_final/1867_fw.mp4	0.0	337.0491509437561	
69	299.70686888694763	fix_post	2		12	67.0	2.5	/experiments/AOT/AOT_stimuli/rescaled_final/1867_fw.mp4	0.0	337.5656759738922	0.09957408905029297
70	299.8064429759979	fix_pre	0		119	68.0	2.5	/experiments/AOT/AOT_stimuli/rescaled_final/1718_rv.mp4	0.0	337.6652500629425	0.9921460151672363
70	300.79050302505493	pulse	0	t		68.0	2.5	/experiments/AOT/AOT_stimuli/rescaled_final/1718_rv.mp4	0.0	338.6493101119995	
70	300.79858899116516	movie	1		247	68.0	2.5	/experiments/AOT/AOT_stimuli/rescaled_final/1718_rv.mp4	0.0	338.65739607810974	2.5081989765167236
70	302.3895790576935	pulse	1	t		68.0	2.5	/experiments/AOT/AOT_stimuli/rescaled_final/1718_rv.mp4	0.0	340.24838614463806	
70	303.3067879676819	fix_post	2		12	68.0	2.5	/experiments/AOT/AOT_stimuli/rescaled_final/1718_rv.mp4	0.0	341.16559505462646	0.10010004043579102
71	303.4068880081177	fix_pre	0		120	69.0	2.5	/experiments/AOT/AOT_stimuli/rescaled_final/2175_rv.mp4	0.0	341.26569509506226	0.9999449253082275
71	303.9902379512787	pulse	0	t		69.0	2.5	/experiments/AOT/AOT_stimuli/rescaled_final/2175_rv.mp4	0.0	341.84904503822327	
71	304.4068329334259	movie	1		247	69.0	2.5	/experiments/AOT/AOT_stimuli/rescaled_final/2175_rv.mp4	0.0	342.2656400203705	2.5000650882720947
71	305.59035897254944	pulse	1	t		69.0	2.5	/experiments/AOT/AOT_stimuli/rescaled_final/2175_rv.mp4	0.0	343.449166059494	
71	306.906898021698	fix_post	2		12	69.0	2.5	/experiments/AOT/AOT_stimuli/rescaled_final/2175_rv.mp4	0.0	344.7657051086426	0.09993290901184082
72	307.00683093070984	fix_pre	0		120	70.0	2.5	blank	1.0	344.8656380176544	1.0000040531158447
72	307.1902709007263	pulse	0	t		70.0	2.5	blank	1.0	345.0490779876709	
72	308.0068349838257	movie	1		300	70.0	2.5	blank	1.0	345.86564207077026	2.499958038330078
72	308.7902898788452	pulse	1	t		70.0	2.5	blank	1.0	346.6490969657898	
72	310.3902380466461	pulse	1	t		70.0	2.5	blank	1.0	348.2490451335907	
72	310.50679302215576	fix_post	2		12	70.0	2.5	blank	1.0	348.36560010910034	0.10000205039978027
73	310.60679507255554	fix_pre	0		120	71.0	2.5	/experiments/AOT/AOT_stimuli/rescaled_final/0590_fw.mp4	0.0	348.4656021595001	0.9999678134918213
73	311.60676288604736	movie	1		244	71.0	2.5	/experiments/AOT/AOT_stimuli/rescaled_final/0590_fw.mp4	0.0	349.46556997299194	2.499948024749756
73	311.99018907546997	pulse	1	t		71.0	2.5	/experiments/AOT/AOT_stimuli/rescaled_final/0590_fw.mp4	0.0	349.84899616241455	
73	313.59031105041504	pulse	1	t		71.0	2.5	/experiments/AOT/AOT_stimuli/rescaled_final/0590_fw.mp4	0.0	351.4491181373596	
73	314.1067109107971	fix_post	2		12	71.0	2.5	/experiments/AOT/AOT_stimuli/rescaled_final/0590_fw.mp4	0.0	351.9655179977417	0.09970903396606445
74	314.2064199447632	fix_pre	0		119	72.0	2.5	/experiments/AOT/AOT_stimuli/rescaled_final/0674_fw.mp4	0.0	352.06522703170776	0.9920210838317871
74	315.19028902053833	pulse	0	t		72.0	2.5	/experiments/AOT/AOT_stimuli/rescaled_final/0674_fw.mp4	0.0	353.0490961074829	
74	315.19844102859497	movie	1		246	72.0	2.5	/experiments/AOT/AOT_stimuli/rescaled_final/0674_fw.mp4	0.0	353.05724811553955	2.508328914642334
74	316.7897069454193	pulse	1	t		72.0	2.5	/experiments/AOT/AOT_stimuli/rescaled_final/0674_fw.mp4	0.0	354.6485140323639	
74	317.7067699432373	fix_post	2		12	72.0	2.5	/experiments/AOT/AOT_stimuli/rescaled_final/0674_fw.mp4	0.0	355.5655770301819	0.10007500648498535
75	317.8068449497223	fix_pre	0		120	73.0	2.5	/experiments/AOT/AOT_stimuli/rescaled_final/0061_rv.mp4	0.0	355.66565203666687	0.9999310970306396
75	318.3902790546417	pulse	0	t		73.0	2.5	/experiments/AOT/AOT_stimuli/rescaled_final/0061_rv.mp4	0.0	356.2490861415863	
75	318.80677604675293	movie	1		246	73.0	2.5	/experiments/AOT/AOT_stimuli/rescaled_final/0061_rv.mp4	0.0	356.6655831336975	2.499544858932495
75	319.99032497406006	pulse	1	t		73.0	2.5	/experiments/AOT/AOT_stimuli/rescaled_final/0061_rv.mp4	0.0	357.84913206100464	
75	321.3063209056854	fix_post	2		12	73.0	2.5	/experiments/AOT/AOT_stimuli/rescaled_final/0061_rv.mp4	0.0	359.16512799263	0.10041117668151855
76	321.40673208236694	fix_pre	0		120	74.0	2.5	/experiments/AOT/AOT_stimuli/rescaled_final/0364_fw.mp4	0.0	359.2655391693115	1.000013828277588
76	321.5902578830719	pulse	0	t		74.0	2.5	/experiments/AOT/AOT_stimuli/rescaled_final/0364_fw.mp4	0.0	359.4490649700165	
76	322.40674591064453	movie	1		246	74.0	2.5	/experiments/AOT/AOT_stimuli/rescaled_final/0364_fw.mp4	0.0	360.2655529975891	2.500028133392334
76	323.19027304649353	pulse	1	t		74.0	2.5	/experiments/AOT/AOT_stimuli/rescaled_final/0364_fw.mp4	0.0	361.0490801334381	
76	324.7864570617676	pulse	1	t		74.0	2.5	/experiments/AOT/AOT_stimuli/rescaled_final/0364_fw.mp4	0.0	362.64526414871216	
76	324.90677404403687	fix_post	2		12	74.0	2.5	/experiments/AOT/AOT_stimuli/rescaled_final/0364_fw.mp4	0.0	362.76558113098145	0.09963202476501465
77	325.0064060688019	fix_pre	0		120	75.0	2.5	blank	1.0	362.86521315574646	0.9999229907989502
77	326.00632905960083	movie	1		300	75.0	2.5	blank	1.0	363.8651361465454	2.5006020069122314
77	326.3902449607849	pulse	1	t		75.0	2.5	blank	1.0	364.2490520477295	
77	327.9902219772339	pulse	1	t		75.0	2.5	blank	1.0	365.84902906417847	
77	328.50693106651306	fix_post	2		12	75.0	2.5	blank	1.0	366.36573815345764	0.09985995292663574
78	328.6067910194397	fix_pre	0		119	76.0	2.5	/experiments/AOT/AOT_stimuli/rescaled_final/1281_fw.mp4	0.0	366.4655981063843	0.9916269779205322
78	329.5902290344238	pulse	0	t		76.0	2.5	/experiments/AOT/AOT_stimuli/rescaled_final/1281_fw.mp4	0.0	367.4490361213684	
78	329.59841799736023	movie	1		246	76.0	2.5	/experiments/AOT/AOT_stimuli/rescaled_final/1281_fw.mp4	0.0	367.4572250843048	2.5083038806915283
78	331.18985986709595	pulse	1	t		76.0	2.5	/experiments/AOT/AOT_stimuli/rescaled_final/1281_fw.mp4	0.0	369.0486669540405	
78	332.10672187805176	fix_post	2		12	76.0	2.5	/experiments/AOT/AOT_stimuli/rescaled_final/1281_fw.mp4	0.0	369.96552896499634	0.09997820854187012
79	332.2067000865936	fix_pre	0		120	77.0	2.5	/experiments/AOT/AOT_stimuli/rescaled_final/1658_rv.mp4	0.0	370.0655071735382	1.0000078678131104
79	332.7902100086212	pulse	0	t		77.0	2.5	/experiments/AOT/AOT_stimuli/rescaled_final/1658_rv.mp4	0.0	370.6490170955658	
79	333.20670795440674	movie	1		245	77.0	2.5	/experiments/AOT/AOT_stimuli/rescaled_final/1658_rv.mp4	0.0	371.0655150413513	2.499601125717163
79	334.39019298553467	pulse	1	t		77.0	2.5	/experiments/AOT/AOT_stimuli/rescaled_final/1658_rv.mp4	0.0	372.24900007247925	
79	335.7063090801239	fix_post	2		12	77.0	2.5	/experiments/AOT/AOT_stimuli/rescaled_final/1658_rv.mp4	0.0	373.5651161670685	0.10046792030334473
80	335.80677700042725	fix_pre	0		120	78.0	2.5	/experiments/AOT/AOT_stimuli/rescaled_final/1104_fw.mp4	0.0	373.6655840873718	0.9999239444732666
80	335.99024391174316	pulse	0	t		78.0	2.5	/experiments/AOT/AOT_stimuli/rescaled_final/1104_fw.mp4	0.0	373.84905099868774	
80	336.8067009449005	movie	1		244	78.0	2.5	/experiments/AOT/AOT_stimuli/rescaled_final/1104_fw.mp4	0.0	374.6655080318451	2.4999520778656006
80	337.5901849269867	pulse	1	t		78.0	2.5	/experiments/AOT/AOT_stimuli/rescaled_final/1104_fw.mp4	0.0	375.4489920139313	
80	339.18878507614136	pulse	1	t		78.0	2.5	/experiments/AOT/AOT_stimuli/rescaled_final/1104_fw.mp4	0.0	377.04759216308594	
80	339.3066530227661	fix_post	2		12	78.0	2.5	/experiments/AOT/AOT_stimuli/rescaled_final/1104_fw.mp4	0.0	377.1654601097107	0.09997892379760742
81	339.4066319465637	fix_pre	0		120	79.0	2.5	/experiments/AOT/AOT_stimuli/rescaled_final/0606_fw.mp4	0.0	377.2654390335083	0.9999561309814453
81	340.40658807754517	movie	1		245	79.0	2.5	/experiments/AOT/AOT_stimuli/rescaled_final/0606_fw.mp4	0.0	378.26539516448975	2.5000829696655273
81	340.7900459766388	pulse	1	t		79.0	2.5	/experiments/AOT/AOT_stimuli/rescaled_final/0606_fw.mp4	0.0	378.6488530635834	
81	342.39010405540466	pulse	1	t		79.0	2.5	/experiments/AOT/AOT_stimuli/rescaled_final/0606_fw.mp4	0.0	380.24891114234924	
81	342.9066710472107	fix_post	2		12	79.0	2.5	/experiments/AOT/AOT_stimuli/rescaled_final/0606_fw.mp4	0.0	380.7654781341553	0.09999394416809082
82	343.0066649913788	fix_pre	0		119	80.0	2.5	/experiments/AOT/AOT_stimuli/rescaled_final/2006_rv.mp4	0.0	380.86547207832336	0.9916379451751709
82	343.99017095565796	pulse	0	t		80.0	2.5	/experiments/AOT/AOT_stimuli/rescaled_final/2006_rv.mp4	0.0	381.84897804260254	
82	343.99830293655396	movie	1		245	80.0	2.5	/experiments/AOT/AOT_stimuli/rescaled_final/2006_rv.mp4	0.0	381.85711002349854	2.508341073989868
82	345.58982491493225	pulse	1	t		80.0	2.5	/experiments/AOT/AOT_stimuli/rescaled_final/2006_rv.mp4	0.0	383.44863200187683	
82	346.5066440105438	fix_post	2		12	80.0	2.5	/experiments/AOT/AOT_stimuli/rescaled_final/2006_rv.mp4	0.0	384.3654510974884	0.09961104393005371
83	346.6062550544739	fix_pre	0		120	81.0	2.5	/experiments/AOT/AOT_stimuli/rescaled_final/0742_fw.mp4	0.0	384.46506214141846	1.0004358291625977
83	347.1901659965515	pulse	0	t		81.0	2.5	/experiments/AOT/AOT_stimuli/rescaled_final/0742_fw.mp4	0.0	385.0489730834961	
83	347.6066908836365	movie	1		243	81.0	2.5	/experiments/AOT/AOT_stimuli/rescaled_final/0742_fw.mp4	0.0	385.46549797058105	2.4995460510253906
83	348.78327989578247	pulse	1	t		81.0	2.5	/experiments/AOT/AOT_stimuli/rescaled_final/0742_fw.mp4	0.0	386.64208698272705	
83	350.10623693466187	fix_post	2		12	81.0	2.5	/experiments/AOT/AOT_stimuli/rescaled_final/0742_fw.mp4	0.0	387.96504402160645	0.10037708282470703
84	350.2066140174866	fix_pre	0		120	82.0	2.5	/experiments/AOT/AOT_stimuli/rescaled_final/0650_fw.mp4	0.0	388.06542110443115	1.000014066696167
84	350.3901550769806	pulse	0	t		82.0	2.5	/experiments/AOT/AOT_stimuli/rescaled_final/0650_fw.mp4	0.0	388.24896216392517	
84	351.20662808418274	movie	1		245	82.0	2.5	/experiments/AOT/AOT_stimuli/rescaled_final/0650_fw.mp4	0.0	389.0654351711273	2.5001509189605713
84	351.98959398269653	pulse	1	t		82.0	2.5	/experiments/AOT/AOT_stimuli/rescaled_final/0650_fw.mp4	0.0	389.8484010696411	
84	353.5886929035187	pulse	1	t		82.0	2.5	/experiments/AOT/AOT_stimuli/rescaled_final/0650_fw.mp4	0.0	391.44749999046326	
84	353.7067790031433	fix_post	2		12	82.0	2.5	/experiments/AOT/AOT_stimuli/rescaled_final/0650_fw.mp4	0.0	391.5655860900879	0.09959697723388672
85	353.8063759803772	fix_pre	0		120	83.0	2.5	blank	1.0	391.6651830673218	1.0002000331878662
85	354.80657601356506	movie	1		300	83.0	2.5	blank	1.0	392.66538310050964	2.5000438690185547
85	355.19016289711	pulse	1	t		83.0	2.5	blank	1.0	393.04896998405457	
85	356.7900788784027	pulse	1	t		83.0	2.5	blank	1.0	394.6488859653473	
85	357.3066198825836	fix_post	2		12	83.0	2.5	blank	1.0	395.1654269695282	0.0999751091003418
87	357.40659499168396	stim	0		1716					395.26540207862854	14.299983024597168
87	358.39009499549866	pulse	0	t						396.24890208244324	
87	359.98997807502747	pulse	0	t						397.84878516197205	
87	361.5900459289551	pulse	0	t						399.44885301589966	
87	363.1900770664215	pulse	0	t						401.0488841533661	
87	364.7899708747864	pulse	0	t						402.64877796173096	
87	366.3899998664856	pulse	0	t						404.2488069534302	
87	367.98996591567993	pulse	0	t						405.8487730026245	
87	369.5899679660797	pulse	0	t						407.4487750530243	
87	371.19004106521606	pulse	0	t						409.04884815216064	
