trial_nr	onset	event_type	phase	response	nr_frames	movie_index	movie_duration	movie_file	blank	onset_abs	duration
0	0.21666193008422852	stim	0		29					23.899142026901245	0.24163603782653809
0	0.4501640796661377	response	0	space						24.132644176483154	
1	0.4582979679107666	stim	0		3171					24.140778064727783	26.43803095817566
1	26.886224031448364	pulse	0	t						50.56870412826538	
1	26.896328926086426	stim	1		1716					50.57880902290344	14.301347970962524
1	28.47944688796997	pulse	1	t						52.16192698478699	
1	30.079644918441772	pulse	1	t						53.76212501525879	
1	31.67976689338684	pulse	1	t						55.36224699020386	
1	33.280006885528564	pulse	1	t						56.96248698234558	
1	34.88032293319702	pulse	1	t						58.56280303001404	
1	36.48056387901306	pulse	1	t						60.16304397583008	
1	38.080832958221436	pulse	1	t						61.76331305503845	
1	39.68090605735779	pulse	1	t						63.363386154174805	
2	41.19767689704895	fix_pre	0		11	0.0	2.5	/experiments/knapen_AOT/AOT_stimuli/rescaled_final/1715_fw.mp4	0.0	64.88015699386597	0.09169816970825195
2	41.28123593330383	pulse	0	t		0.0	2.5	/experiments/knapen_AOT/AOT_stimuli/rescaled_final/1715_fw.mp4	0.0	64.96371603012085	
2	41.2893750667572	movie	1		246	0.0	2.5	/experiments/knapen_AOT/AOT_stimuli/rescaled_final/1715_fw.mp4	0.0	64.97185516357422	2.5086920261383057
2	42.88213491439819	pulse	1	t		0.0	2.5	/experiments/knapen_AOT/AOT_stimuli/rescaled_final/1715_fw.mp4	0.0	66.56461501121521	
2	43.79806709289551	fix_post	2		12	0.0	2.5	/experiments/knapen_AOT/AOT_stimuli/rescaled_final/1715_fw.mp4	0.0	67.48054718971252	0.1000359058380127
3	43.89810299873352	fix_pre	0		120	1.0	2.5	/experiments/knapen_AOT/AOT_stimuli/rescaled_final/0988_rv.mp4	0.0	67.58058309555054	1.0001609325408936
3	44.48182702064514	pulse	0	t		1.0	2.5	/experiments/knapen_AOT/AOT_stimuli/rescaled_final/0988_rv.mp4	0.0	68.16430711746216	
3	44.898263931274414	movie	1		243	1.0	2.5	/experiments/knapen_AOT/AOT_stimuli/rescaled_final/0988_rv.mp4	0.0	68.58074402809143	2.5004169940948486
3	46.075052976608276	pulse	1	t		1.0	2.5	/experiments/knapen_AOT/AOT_stimuli/rescaled_final/0988_rv.mp4	0.0	69.7575330734253	
3	47.39868092536926	fix_post	2		12	1.0	2.5	/experiments/knapen_AOT/AOT_stimuli/rescaled_final/0988_rv.mp4	0.0	71.08116102218628	0.09998011589050293
4	47.498661041259766	fix_pre	0		120	2.0	2.5	/experiments/knapen_AOT/AOT_stimuli/rescaled_final/0119_rv.mp4	0.0	71.18114113807678	1.0001349449157715
4	47.67460799217224	pulse	0	t		2.0	2.5	/experiments/knapen_AOT/AOT_stimuli/rescaled_final/0119_rv.mp4	0.0	71.35708808898926	
4	48.49879598617554	movie	1		243	2.0	2.5	/experiments/knapen_AOT/AOT_stimuli/rescaled_final/0119_rv.mp4	0.0	72.18127608299255	2.5003879070281982
4	49.27496695518494	pulse	1	t		2.0	2.5	/experiments/knapen_AOT/AOT_stimuli/rescaled_final/0119_rv.mp4	0.0	72.95744705200195	
4	50.88244104385376	pulse	1	t		2.0	2.5	/experiments/knapen_AOT/AOT_stimuli/rescaled_final/0119_rv.mp4	0.0	74.56492114067078	
4	50.999183893203735	fix_post	2		12	2.0	2.5	/experiments/knapen_AOT/AOT_stimuli/rescaled_final/0119_rv.mp4	0.0	74.68166399002075	0.09998106956481934
5	51.099164962768555	fix_pre	0		120	3.0	2.5	/experiments/knapen_AOT/AOT_stimuli/rescaled_final/1803_rv.mp4	0.0	74.78164505958557	1.0001509189605713
5	52.099315881729126	movie	1		242	3.0	2.5	/experiments/knapen_AOT/AOT_stimuli/rescaled_final/1803_rv.mp4	0.0	75.78179597854614	2.4920380115509033
5	52.483591079711914	pulse	1	t		3.0	2.5	/experiments/knapen_AOT/AOT_stimuli/rescaled_final/1803_rv.mp4	0.0	76.16607117652893	
5	54.075023889541626	pulse	1	t		3.0	2.5	/experiments/knapen_AOT/AOT_stimuli/rescaled_final/1803_rv.mp4	0.0	77.75750398635864	
5	54.59135389328003	fix_post	2		12	3.0	2.5	/experiments/knapen_AOT/AOT_stimuli/rescaled_final/1803_rv.mp4	0.0	78.27383399009705	0.10007500648498535
6	54.691428899765015	fix_pre	0		119	4.0	2.5	/experiments/knapen_AOT/AOT_stimuli/rescaled_final/0982_rv.mp4	0.0	78.37390899658203	0.9918100833892822
6	55.67496705055237	pulse	0	t		4.0	2.5	/experiments/knapen_AOT/AOT_stimuli/rescaled_final/0982_rv.mp4	0.0	79.35744714736938	
6	55.6832389831543	movie	1		245	4.0	2.5	/experiments/knapen_AOT/AOT_stimuli/rescaled_final/0982_rv.mp4	0.0	79.36571907997131	2.5086429119110107
6	57.27630591392517	pulse	1	t		4.0	2.5	/experiments/knapen_AOT/AOT_stimuli/rescaled_final/0982_rv.mp4	0.0	80.95878601074219	
6	58.19188189506531	fix_post	2		12	4.0	2.5	/experiments/knapen_AOT/AOT_stimuli/rescaled_final/0982_rv.mp4	0.0	81.87436199188232	0.10005903244018555
7	58.29194092750549	fix_pre	0		120	5.0	2.5	/experiments/knapen_AOT/AOT_stimuli/rescaled_final/1447_fw.mp4	0.0	81.97442102432251	1.000128984451294
7	58.875576972961426	pulse	0	t		5.0	2.5	/experiments/knapen_AOT/AOT_stimuli/rescaled_final/1447_fw.mp4	0.0	82.55805706977844	
7	59.29206991195679	movie	1		244	5.0	2.5	/experiments/knapen_AOT/AOT_stimuli/rescaled_final/1447_fw.mp4	0.0	82.9745500087738	2.5003721714019775
7	60.47587609291077	pulse	1	t		5.0	2.5	/experiments/knapen_AOT/AOT_stimuli/rescaled_final/1447_fw.mp4	0.0	84.15835618972778	
7	61.792442083358765	fix_post	2		12	5.0	2.5	/experiments/knapen_AOT/AOT_stimuli/rescaled_final/1447_fw.mp4	0.0	85.47492218017578	0.10000395774841309
8	61.89244604110718	fix_pre	0		120	6.0	2.5	/experiments/knapen_AOT/AOT_stimuli/rescaled_final/0287_fw.mp4	0.0	85.5749261379242	1.0002250671386719
8	62.07601189613342	pulse	0	t		6.0	2.5	/experiments/knapen_AOT/AOT_stimuli/rescaled_final/0287_fw.mp4	0.0	85.75849199295044	
8	62.89267110824585	movie	1		244	6.0	2.5	/experiments/knapen_AOT/AOT_stimuli/rescaled_final/0287_fw.mp4	0.0	86.57515120506287	2.5002949237823486
8	63.67622709274292	pulse	1	t		6.0	2.5	/experiments/knapen_AOT/AOT_stimuli/rescaled_final/0287_fw.mp4	0.0	87.35870718955994	
8	65.27646088600159	pulse	1	t		6.0	2.5	/experiments/knapen_AOT/AOT_stimuli/rescaled_final/0287_fw.mp4	0.0	88.9589409828186	
8	65.3929660320282	fix_post	2		11	6.0	2.5	/experiments/knapen_AOT/AOT_stimuli/rescaled_final/0287_fw.mp4	0.0	89.07544612884521	0.09180402755737305
9	65.48477005958557	fix_pre	0		120	7.0	2.5	blank	1.0	89.16725015640259	1.000087022781372
9	66.48485708236694	movie	1		300	7.0	2.5	blank	1.0	90.16733717918396	2.50042986869812
9	66.87679505348206	pulse	1	t		7.0	2.5	blank	1.0	90.55927515029907	
9	68.47700500488281	pulse	1	t		7.0	2.5	blank	1.0	92.15948510169983	
9	68.98528695106506	fix_post	2		12	7.0	2.5	blank	1.0	92.66776704788208	0.0999600887298584
10	69.08524703979492	fix_pre	0		120	8.0	2.5	/experiments/knapen_AOT/AOT_stimuli/rescaled_final/2047_fw.mp4	0.0	92.76772713661194	1.0001120567321777
10	70.07723188400269	pulse	0	t		8.0	2.5	/experiments/knapen_AOT/AOT_stimuli/rescaled_final/2047_fw.mp4	0.0	93.7597119808197	
10	70.0853590965271	movie	1		246	8.0	2.5	/experiments/knapen_AOT/AOT_stimuli/rescaled_final/2047_fw.mp4	0.0	93.76783919334412	2.5086939334869385
10	71.67799997329712	pulse	1	t		8.0	2.5	/experiments/knapen_AOT/AOT_stimuli/rescaled_final/2047_fw.mp4	0.0	95.36048007011414	
10	72.59405303001404	fix_post	2		12	8.0	2.5	/experiments/knapen_AOT/AOT_stimuli/rescaled_final/2047_fw.mp4	0.0	96.27653312683105	0.09997105598449707
11	72.69402408599854	fix_pre	0		120	9.0	2.5	/experiments/knapen_AOT/AOT_stimuli/rescaled_final/0141_fw.mp4	0.0	96.37650418281555	1.000216007232666
11	73.2777590751648	pulse	0	t		9.0	2.5	/experiments/knapen_AOT/AOT_stimuli/rescaled_final/0141_fw.mp4	0.0	96.96023917198181	
11	73.6942400932312	movie	1		245	9.0	2.5	/experiments/knapen_AOT/AOT_stimuli/rescaled_final/0141_fw.mp4	0.0	97.37672019004822	2.5003387928009033
11	74.87804293632507	pulse	1	t		9.0	2.5	/experiments/knapen_AOT/AOT_stimuli/rescaled_final/0141_fw.mp4	0.0	98.56052303314209	
11	76.1945788860321	fix_post	2		12	9.0	2.5	/experiments/knapen_AOT/AOT_stimuli/rescaled_final/0141_fw.mp4	0.0	99.87705898284912	0.10005903244018555
12	76.29463791847229	fix_pre	0		117	10.0	2.5	/experiments/knapen_AOT/AOT_stimuli/rescaled_final/1394_rv.mp4	0.0	99.9771180152893	1.0001139640808105
12	76.47812700271606	pulse	0	t		10.0	2.5	/experiments/knapen_AOT/AOT_stimuli/rescaled_final/1394_rv.mp4	0.0	100.16060709953308	
12	77.2947518825531	movie	1		244	10.0	2.5	/experiments/knapen_AOT/AOT_stimuli/rescaled_final/1394_rv.mp4	0.0	100.97723197937012	2.500392198562622
12	78.07843089103699	pulse	1	t		10.0	2.5	/experiments/knapen_AOT/AOT_stimuli/rescaled_final/1394_rv.mp4	0.0	101.760910987854	
12	79.6785659790039	pulse	1	t		10.0	2.5	/experiments/knapen_AOT/AOT_stimuli/rescaled_final/1394_rv.mp4	0.0	103.36104607582092	
12	79.79514408111572	fix_post	2		12	10.0	2.5	/experiments/knapen_AOT/AOT_stimuli/rescaled_final/1394_rv.mp4	0.0	103.47762417793274	0.09999799728393555
13	79.89514207839966	fix_pre	0		119	11.0	2.5	/experiments/knapen_AOT/AOT_stimuli/rescaled_final/0845_fw.mp4	0.0	103.57762217521667	0.9918358325958252
13	80.88697791099548	movie	1		246	11.0	2.5	/experiments/knapen_AOT/AOT_stimuli/rescaled_final/0845_fw.mp4	0.0	104.5694580078125	2.5003530979156494
13	81.2791039943695	pulse	1	t		11.0	2.5	/experiments/knapen_AOT/AOT_stimuli/rescaled_final/0845_fw.mp4	0.0	104.96158409118652	
13	82.87909603118896	pulse	1	t		11.0	2.5	/experiments/knapen_AOT/AOT_stimuli/rescaled_final/0845_fw.mp4	0.0	106.56157612800598	
13	83.38733100891113	fix_post	2		12	11.0	2.5	/experiments/knapen_AOT/AOT_stimuli/rescaled_final/0845_fw.mp4	0.0	107.06981110572815	0.10003995895385742
14	83.48737096786499	fix_pre	0		120	12.0	2.5	blank	1.0	107.169851064682	1.0001399517059326
14	84.47937488555908	pulse	0	t		12.0	2.5	blank	1.0	108.1618549823761	
14	84.48751091957092	movie	1		301	12.0	2.5	blank	1.0	108.16999101638794	2.508692979812622
14	86.07957792282104	pulse	1	t		12.0	2.5	blank	1.0	109.76205801963806	
14	86.99620389938354	fix_post	2		12	12.0	2.5	blank	1.0	110.67868399620056	0.10004711151123047
15	87.09625101089478	fix_pre	0		120	13.0	2.5	/experiments/knapen_AOT/AOT_stimuli/rescaled_final/2026_rv.mp4	0.0	110.77873110771179	1.000114917755127
15	87.6799418926239	pulse	0	t		13.0	2.5	/experiments/knapen_AOT/AOT_stimuli/rescaled_final/2026_rv.mp4	0.0	111.36242198944092	
15	88.0963659286499	movie	1		244	13.0	2.5	/experiments/knapen_AOT/AOT_stimuli/rescaled_final/2026_rv.mp4	0.0	111.77884602546692	2.50040602684021
15	89.28023195266724	pulse	1	t		13.0	2.5	/experiments/knapen_AOT/AOT_stimuli/rescaled_final/2026_rv.mp4	0.0	112.96271204948425	
15	90.59677195549011	fix_post	2		12	13.0	2.5	/experiments/knapen_AOT/AOT_stimuli/rescaled_final/2026_rv.mp4	0.0	114.27925205230713	0.09998393058776855
16	90.69675588607788	fix_pre	0		120	14.0	2.5	/experiments/knapen_AOT/AOT_stimuli/rescaled_final/0471_fw.mp4	0.0	114.3792359828949	1.000150203704834
16	90.88037204742432	pulse	0	t		14.0	2.5	/experiments/knapen_AOT/AOT_stimuli/rescaled_final/0471_fw.mp4	0.0	114.56285214424133	
16	91.69690608978271	movie	1		246	14.0	2.5	/experiments/knapen_AOT/AOT_stimuli/rescaled_final/0471_fw.mp4	0.0	115.37938618659973	2.500408887863159
16	92.4805600643158	pulse	1	t		14.0	2.5	/experiments/knapen_AOT/AOT_stimuli/rescaled_final/0471_fw.mp4	0.0	116.16304016113281	
16	94.0809280872345	pulse	1	t		14.0	2.5	/experiments/knapen_AOT/AOT_stimuli/rescaled_final/0471_fw.mp4	0.0	117.76340818405151	
16	94.19731497764587	fix_post	2		12	14.0	2.5	/experiments/knapen_AOT/AOT_stimuli/rescaled_final/0471_fw.mp4	0.0	117.87979507446289	0.09995794296264648
17	94.29727292060852	fix_pre	0		120	15.0	2.5	/experiments/knapen_AOT/AOT_stimuli/rescaled_final/2094_fw.mp4	0.0	117.97975301742554	1.0001630783081055
17	95.29743599891663	movie	1		243	15.0	2.5	/experiments/knapen_AOT/AOT_stimuli/rescaled_final/2094_fw.mp4	0.0	118.97991609573364	2.4920310974121094
17	95.68223404884338	pulse	1	t		15.0	2.5	/experiments/knapen_AOT/AOT_stimuli/rescaled_final/2094_fw.mp4	0.0	119.3647141456604	
17	97.28120398521423	pulse	1	t		15.0	2.5	/experiments/knapen_AOT/AOT_stimuli/rescaled_final/2094_fw.mp4	0.0	120.96368408203125	
17	97.78946709632874	fix_post	2		12	15.0	2.5	/experiments/knapen_AOT/AOT_stimuli/rescaled_final/2094_fw.mp4	0.0	121.47194719314575	0.10004401206970215
18	97.88951110839844	fix_pre	0		120	16.0	2.5	/experiments/knapen_AOT/AOT_stimuli/rescaled_final/2025_rv.mp4	0.0	121.57199120521545	1.0001709461212158
18	98.88147687911987	pulse	0	t		16.0	2.5	/experiments/knapen_AOT/AOT_stimuli/rescaled_final/2025_rv.mp4	0.0	122.56395697593689	
18	98.88968205451965	movie	1		246	16.0	2.5	/experiments/knapen_AOT/AOT_stimuli/rescaled_final/2025_rv.mp4	0.0	122.57216215133667	2.508646011352539
18	100.4822371006012	pulse	1	t		16.0	2.5	/experiments/knapen_AOT/AOT_stimuli/rescaled_final/2025_rv.mp4	0.0	124.16471719741821	
18	101.39832806587219	fix_post	2		12	16.0	2.5	/experiments/knapen_AOT/AOT_stimuli/rescaled_final/2025_rv.mp4	0.0	125.08080816268921	0.1000518798828125
19	101.498379945755	fix_pre	0		120	17.0	2.5	/experiments/knapen_AOT/AOT_stimuli/rescaled_final/0701_fw.mp4	0.0	125.18086004257202	1.0001771450042725
19	102.0820779800415	pulse	0	t		17.0	2.5	/experiments/knapen_AOT/AOT_stimuli/rescaled_final/0701_fw.mp4	0.0	125.76455807685852	
19	102.49855709075928	movie	1		245	17.0	2.5	/experiments/knapen_AOT/AOT_stimuli/rescaled_final/0701_fw.mp4	0.0	126.1810371875763	2.500300884246826
19	103.68229508399963	pulse	1	t		17.0	2.5	/experiments/knapen_AOT/AOT_stimuli/rescaled_final/0701_fw.mp4	0.0	127.36477518081665	
19	104.9988579750061	fix_post	2		12	17.0	2.5	/experiments/knapen_AOT/AOT_stimuli/rescaled_final/0701_fw.mp4	0.0	128.68133807182312	0.10005593299865723
20	105.09891390800476	fix_pre	0		120	18.0	2.5	/experiments/knapen_AOT/AOT_stimuli/rescaled_final/1945_rv.mp4	0.0	128.78139400482178	1.0001330375671387
20	105.28248310089111	pulse	0	t		18.0	2.5	/experiments/knapen_AOT/AOT_stimuli/rescaled_final/1945_rv.mp4	0.0	128.96496319770813	
20	106.0990469455719	movie	1		244	18.0	2.5	/experiments/knapen_AOT/AOT_stimuli/rescaled_final/1945_rv.mp4	0.0	129.78152704238892	2.5003600120544434
20	106.87534594535828	pulse	1	t		18.0	2.5	/experiments/knapen_AOT/AOT_stimuli/rescaled_final/1945_rv.mp4	0.0	130.5578260421753	
20	108.48066806793213	pulse	1	t		18.0	2.5	/experiments/knapen_AOT/AOT_stimuli/rescaled_final/1945_rv.mp4	0.0	132.16314816474915	
20	108.59940695762634	fix_post	2		12	18.0	2.5	/experiments/knapen_AOT/AOT_stimuli/rescaled_final/1945_rv.mp4	0.0	132.28188705444336	0.100006103515625
21	108.69941306114197	fix_pre	0		120	19.0	2.5	blank	1.0	132.38189315795898	1.0001459121704102
21	109.69955897331238	movie	1		299	19.0	2.5	blank	1.0	133.3820390701294	2.49208402633667
21	110.07572102546692	pulse	1	t		19.0	2.5	blank	1.0	133.75820112228394	
21	111.67582106590271	pulse	1	t		19.0	2.5	blank	1.0	135.35830116271973	
21	112.19164299964905	fix_post	2		12	19.0	2.5	blank	1.0	135.87412309646606	0.10002493858337402
22	112.29166793823242	fix_pre	0		120	20.0	2.5	/experiments/knapen_AOT/AOT_stimuli/rescaled_final/1631_rv.mp4	0.0	135.97414803504944	1.0001611709594727
22	113.27608394622803	pulse	0	t		20.0	2.5	/experiments/knapen_AOT/AOT_stimuli/rescaled_final/1631_rv.mp4	0.0	136.95856404304504	
22	113.2918291091919	movie	1		244	20.0	2.5	/experiments/knapen_AOT/AOT_stimuli/rescaled_final/1631_rv.mp4	0.0	136.9743092060089	2.5086607933044434
22	114.87558794021606	pulse	1	t		20.0	2.5	/experiments/knapen_AOT/AOT_stimuli/rescaled_final/1631_rv.mp4	0.0	138.55806803703308	
22	115.80048990249634	fix_post	2		12	20.0	2.5	/experiments/knapen_AOT/AOT_stimuli/rescaled_final/1631_rv.mp4	0.0	139.48296999931335	0.10005807876586914
23	115.9005479812622	fix_pre	0		120	21.0	2.5	/experiments/knapen_AOT/AOT_stimuli/rescaled_final/0741_fw.mp4	0.0	139.58302807807922	1.0000901222229004
23	116.4757170677185	pulse	0	t		21.0	2.5	/experiments/knapen_AOT/AOT_stimuli/rescaled_final/0741_fw.mp4	0.0	140.15819716453552	
23	116.90063810348511	movie	1		245	21.0	2.5	/experiments/knapen_AOT/AOT_stimuli/rescaled_final/0741_fw.mp4	0.0	140.58311820030212	2.5003819465637207
23	118.0775671005249	pulse	1	t		21.0	2.5	/experiments/knapen_AOT/AOT_stimuli/rescaled_final/0741_fw.mp4	0.0	141.76004719734192	
23	119.40102005004883	fix_post	2		12	21.0	2.5	/experiments/knapen_AOT/AOT_stimuli/rescaled_final/0741_fw.mp4	0.0	143.08350014686584	0.10001301765441895
24	119.50103306770325	fix_pre	0		120	22.0	2.5	/experiments/knapen_AOT/AOT_stimuli/rescaled_final/0505_fw.mp4	0.0	143.18351316452026	1.0002338886260986
24	119.67635989189148	pulse	0	t		22.0	2.5	/experiments/knapen_AOT/AOT_stimuli/rescaled_final/0505_fw.mp4	0.0	143.3588399887085	
24	120.50126695632935	movie	1		245	22.0	2.5	/experiments/knapen_AOT/AOT_stimuli/rescaled_final/0505_fw.mp4	0.0	144.18374705314636	2.500288963317871
24	121.27664399147034	pulse	1	t		22.0	2.5	/experiments/knapen_AOT/AOT_stimuli/rescaled_final/0505_fw.mp4	0.0	144.95912408828735	
24	122.87680387496948	pulse	1	t		22.0	2.5	/experiments/knapen_AOT/AOT_stimuli/rescaled_final/0505_fw.mp4	0.0	146.5592839717865	
24	123.00155591964722	fix_post	2		12	22.0	2.5	/experiments/knapen_AOT/AOT_stimuli/rescaled_final/0505_fw.mp4	0.0	146.68403601646423	0.10006213188171387
25	123.10161805152893	fix_pre	0		119	23.0	2.5	/experiments/knapen_AOT/AOT_stimuli/rescaled_final/0933_rv.mp4	0.0	146.78409814834595	0.9918069839477539
25	124.09342503547668	movie	1		245	23.0	2.5	/experiments/knapen_AOT/AOT_stimuli/rescaled_final/0933_rv.mp4	0.0	147.7759051322937	2.5003299713134766
25	124.4775640964508	pulse	1	t		23.0	2.5	/experiments/knapen_AOT/AOT_stimuli/rescaled_final/0933_rv.mp4	0.0	148.16004419326782	
25	126.07723188400269	pulse	1	t		23.0	2.5	/experiments/knapen_AOT/AOT_stimuli/rescaled_final/0933_rv.mp4	0.0	149.7597119808197	
25	126.59375500679016	fix_post	2		12	23.0	2.5	/experiments/knapen_AOT/AOT_stimuli/rescaled_final/0933_rv.mp4	0.0	150.27623510360718	0.10003995895385742
26	126.69379496574402	fix_pre	0		119	24.0	2.5	/experiments/knapen_AOT/AOT_stimuli/rescaled_final/0517_rv.mp4	0.0	150.37627506256104	0.9917910099029541
26	127.67755699157715	pulse	0	t		24.0	2.5	/experiments/knapen_AOT/AOT_stimuli/rescaled_final/0517_rv.mp4	0.0	151.36003708839417	
26	127.68558597564697	movie	1		246	24.0	2.5	/experiments/knapen_AOT/AOT_stimuli/rescaled_final/0517_rv.mp4	0.0	151.368066072464	2.5087080001831055
26	129.2782609462738	pulse	1	t		24.0	2.5	/experiments/knapen_AOT/AOT_stimuli/rescaled_final/0517_rv.mp4	0.0	152.96074104309082	
26	130.19429397583008	fix_post	2		12	24.0	2.5	/experiments/knapen_AOT/AOT_stimuli/rescaled_final/0517_rv.mp4	0.0	153.8767740726471	0.10004210472106934
27	130.29433608055115	fix_pre	0		120	25.0	2.5	/experiments/knapen_AOT/AOT_stimuli/rescaled_final/1913_fw.mp4	0.0	153.97681617736816	1.0001378059387207
27	130.8779239654541	pulse	0	t		25.0	2.5	/experiments/knapen_AOT/AOT_stimuli/rescaled_final/1913_fw.mp4	0.0	154.56040406227112	
27	131.29447388648987	movie	1		245	25.0	2.5	/experiments/knapen_AOT/AOT_stimuli/rescaled_final/1913_fw.mp4	0.0	154.97695398330688	2.5003530979156494
27	132.4782989025116	pulse	1	t		25.0	2.5	/experiments/knapen_AOT/AOT_stimuli/rescaled_final/1913_fw.mp4	0.0	156.1607789993286	
27	133.79482698440552	fix_post	2		12	25.0	2.5	/experiments/knapen_AOT/AOT_stimuli/rescaled_final/1913_fw.mp4	0.0	157.47730708122253	0.10006403923034668
28	133.89489102363586	fix_pre	0		117	26.0	2.5	/experiments/knapen_AOT/AOT_stimuli/rescaled_final/2008_fw.mp4	0.0	157.57737112045288	1.0001180171966553
28	134.07847499847412	pulse	0	t		26.0	2.5	/experiments/knapen_AOT/AOT_stimuli/rescaled_final/2008_fw.mp4	0.0	157.76095509529114	
28	134.89500904083252	movie	1		245	26.0	2.5	/experiments/knapen_AOT/AOT_stimuli/rescaled_final/2008_fw.mp4	0.0	158.57748913764954	2.5003960132598877
28	135.67872595787048	pulse	1	t		26.0	2.5	/experiments/knapen_AOT/AOT_stimuli/rescaled_final/2008_fw.mp4	0.0	159.3612060546875	
28	137.27890992164612	pulse	1	t		26.0	2.5	/experiments/knapen_AOT/AOT_stimuli/rescaled_final/2008_fw.mp4	0.0	160.96139001846313	
28	137.3954050540924	fix_post	2		12	26.0	2.5	/experiments/knapen_AOT/AOT_stimuli/rescaled_final/2008_fw.mp4	0.0	161.07788515090942	0.10003900527954102
29	137.49544405937195	fix_pre	0		120	27.0	2.5	blank	1.0	161.17792415618896	1.0001089572906494
29	138.4955530166626	movie	1		299	27.0	2.5	blank	1.0	162.17803311347961	2.4920358657836914
29	138.87913990020752	pulse	1	t		27.0	2.5	blank	1.0	162.56161999702454	
29	140.47943305969238	pulse	1	t		27.0	2.5	blank	1.0	164.1619131565094	
29	140.9875888824463	fix_post	2		12	27.0	2.5	blank	1.0	164.6700689792633	0.10001516342163086
30	141.08760404586792	fix_pre	0		120	28.0	2.5	/experiments/knapen_AOT/AOT_stimuli/rescaled_final/0061_rv.mp4	0.0	164.77008414268494	1.000148057937622
30	142.0797278881073	pulse	0	t		28.0	2.5	/experiments/knapen_AOT/AOT_stimuli/rescaled_final/0061_rv.mp4	0.0	165.76220798492432	
30	142.08775210380554	movie	1		245	28.0	2.5	/experiments/knapen_AOT/AOT_stimuli/rescaled_final/0061_rv.mp4	0.0	165.77023220062256	2.508699893951416
30	143.68057298660278	pulse	1	t		28.0	2.5	/experiments/knapen_AOT/AOT_stimuli/rescaled_final/0061_rv.mp4	0.0	167.3630530834198	
30	144.59645199775696	fix_post	2		12	28.0	2.5	/experiments/knapen_AOT/AOT_stimuli/rescaled_final/0061_rv.mp4	0.0	168.27893209457397	0.10002994537353516
31	144.6964819431305	fix_pre	0		120	29.0	2.5	/experiments/knapen_AOT/AOT_stimuli/rescaled_final/1315_rv.mp4	0.0	168.3789620399475	1.0001709461212158
31	145.28001189231873	pulse	0	t		29.0	2.5	/experiments/knapen_AOT/AOT_stimuli/rescaled_final/1315_rv.mp4	0.0	168.96249198913574	
31	145.6966528892517	movie	1		245	29.0	2.5	/experiments/knapen_AOT/AOT_stimuli/rescaled_final/1315_rv.mp4	0.0	169.37913298606873	2.5003180503845215
31	146.8764729499817	pulse	1	t		29.0	2.5	/experiments/knapen_AOT/AOT_stimuli/rescaled_final/1315_rv.mp4	0.0	170.5589530467987	
31	148.19697093963623	fix_post	2		12	29.0	2.5	/experiments/knapen_AOT/AOT_stimuli/rescaled_final/1315_rv.mp4	0.0	171.87945103645325	0.10009908676147461
32	148.2970700263977	fix_pre	0		120	30.0	2.5	/experiments/knapen_AOT/AOT_stimuli/rescaled_final/1706_rv.mp4	0.0	171.97955012321472	1.0001270771026611
32	148.48066210746765	pulse	0	t		30.0	2.5	/experiments/knapen_AOT/AOT_stimuli/rescaled_final/1706_rv.mp4	0.0	172.16314220428467	
32	149.29719710350037	movie	1		244	30.0	2.5	/experiments/knapen_AOT/AOT_stimuli/rescaled_final/1706_rv.mp4	0.0	172.97967720031738	2.5005218982696533
32	150.08082389831543	pulse	1	t		30.0	2.5	/experiments/knapen_AOT/AOT_stimuli/rescaled_final/1706_rv.mp4	0.0	173.76330399513245	
32	151.6811819076538	pulse	1	t		30.0	2.5	/experiments/knapen_AOT/AOT_stimuli/rescaled_final/1706_rv.mp4	0.0	175.36366200447083	
32	151.79771900177002	fix_post	2		12	30.0	2.5	/experiments/knapen_AOT/AOT_stimuli/rescaled_final/1706_rv.mp4	0.0	175.48019909858704	0.09983587265014648
33	151.89755487442017	fix_pre	0		120	31.0	2.5	/experiments/knapen_AOT/AOT_stimuli/rescaled_final/0790_fw.mp4	0.0	175.58003497123718	1.0001931190490723
33	152.89774799346924	movie	1		244	31.0	2.5	/experiments/knapen_AOT/AOT_stimuli/rescaled_final/0790_fw.mp4	0.0	176.58022809028625	2.492008924484253
33	153.28191995620728	pulse	1	t		31.0	2.5	/experiments/knapen_AOT/AOT_stimuli/rescaled_final/0790_fw.mp4	0.0	176.9644000530243	
33	154.88164710998535	pulse	1	t		31.0	2.5	/experiments/knapen_AOT/AOT_stimuli/rescaled_final/0790_fw.mp4	0.0	178.56412720680237	
33	155.3897569179535	fix_post	2		12	31.0	2.5	/experiments/knapen_AOT/AOT_stimuli/rescaled_final/0790_fw.mp4	0.0	179.0722370147705	0.10005497932434082
34	155.48981189727783	fix_pre	0		120	32.0	2.5	/experiments/knapen_AOT/AOT_stimuli/rescaled_final/1891_rv.mp4	0.0	179.17229199409485	1.0000970363616943
34	156.48188495635986	pulse	0	t		32.0	2.5	/experiments/knapen_AOT/AOT_stimuli/rescaled_final/1891_rv.mp4	0.0	180.16436505317688	
34	156.48990893363953	movie	1		246	32.0	2.5	/experiments/knapen_AOT/AOT_stimuli/rescaled_final/1891_rv.mp4	0.0	180.17238903045654	2.508679151535034
34	158.08327198028564	pulse	1	t		32.0	2.5	/experiments/knapen_AOT/AOT_stimuli/rescaled_final/1891_rv.mp4	0.0	181.76575207710266	
34	158.99858808517456	fix_post	2		12	32.0	2.5	/experiments/knapen_AOT/AOT_stimuli/rescaled_final/1891_rv.mp4	0.0	182.68106818199158	0.10008597373962402
35	159.09867405891418	fix_pre	0		120	33.0	2.5	/experiments/knapen_AOT/AOT_stimuli/rescaled_final/1019_fw.mp4	0.0	182.7811541557312	1.0001389980316162
35	159.68224596977234	pulse	0	t		33.0	2.5	/experiments/knapen_AOT/AOT_stimuli/rescaled_final/1019_fw.mp4	0.0	183.36472606658936	
35	160.0988130569458	movie	1		246	33.0	2.5	/experiments/knapen_AOT/AOT_stimuli/rescaled_final/1019_fw.mp4	0.0	183.78129315376282	2.5003268718719482
35	161.28268194198608	pulse	1	t		33.0	2.5	/experiments/knapen_AOT/AOT_stimuli/rescaled_final/1019_fw.mp4	0.0	184.9651620388031	
35	162.59913992881775	fix_post	2		12	33.0	2.5	/experiments/knapen_AOT/AOT_stimuli/rescaled_final/1019_fw.mp4	0.0	186.28162002563477	0.10001897811889648
36	162.69915890693665	fix_pre	0		120	34.0	2.5	blank	1.0	186.38163900375366	1.0001749992370605
36	162.87530493736267	pulse	0	t		34.0	2.5	blank	1.0	186.5577850341797	
36	163.6993339061737	movie	1		300	34.0	2.5	blank	1.0	187.38181400299072	2.500357151031494
36	164.47553300857544	pulse	1	t		34.0	2.5	blank	1.0	188.15801310539246	
36	166.07575488090515	pulse	1	t		34.0	2.5	blank	1.0	189.75823497772217	
36	166.1996910572052	fix_post	2		12	34.0	2.5	blank	1.0	189.88217115402222	0.10000395774841309
37	166.2996950149536	fix_pre	0		120	35.0	2.5	/experiments/knapen_AOT/AOT_stimuli/rescaled_final/1935_fw.mp4	0.0	189.98217511177063	1.0001840591430664
37	167.29987907409668	movie	1		244	35.0	2.5	/experiments/knapen_AOT/AOT_stimuli/rescaled_final/1935_fw.mp4	0.0	190.9823591709137	2.491997003555298
37	167.67530798912048	pulse	1	t		35.0	2.5	/experiments/knapen_AOT/AOT_stimuli/rescaled_final/1935_fw.mp4	0.0	191.3577880859375	
37	169.27543592453003	pulse	1	t		35.0	2.5	/experiments/knapen_AOT/AOT_stimuli/rescaled_final/1935_fw.mp4	0.0	192.95791602134705	
37	169.79187607765198	fix_post	2		12	35.0	2.5	/experiments/knapen_AOT/AOT_stimuli/rescaled_final/1935_fw.mp4	0.0	193.474356174469	0.10003185272216797
38	169.89190793037415	fix_pre	0		119	36.0	2.5	/experiments/knapen_AOT/AOT_stimuli/rescaled_final/0180_rv.mp4	0.0	193.57438802719116	0.991814136505127
38	170.87565302848816	pulse	0	t		36.0	2.5	/experiments/knapen_AOT/AOT_stimuli/rescaled_final/0180_rv.mp4	0.0	194.55813312530518	
38	170.88372206687927	movie	1		245	36.0	2.5	/experiments/knapen_AOT/AOT_stimuli/rescaled_final/0180_rv.mp4	0.0	194.5662021636963	2.508762836456299
38	172.476420879364	pulse	1	t		36.0	2.5	/experiments/knapen_AOT/AOT_stimuli/rescaled_final/0180_rv.mp4	0.0	196.15890097618103	
38	173.39248490333557	fix_post	2		12	36.0	2.5	/experiments/knapen_AOT/AOT_stimuli/rescaled_final/0180_rv.mp4	0.0	197.0749650001526	0.09992814064025879
39	173.49241304397583	fix_pre	0		120	37.0	2.5	/experiments/knapen_AOT/AOT_stimuli/rescaled_final/0888_rv.mp4	0.0	197.17489314079285	1.0001938343048096
39	174.07603406906128	pulse	0	t		37.0	2.5	/experiments/knapen_AOT/AOT_stimuli/rescaled_final/0888_rv.mp4	0.0	197.7585141658783	
39	174.49260687828064	movie	1		244	37.0	2.5	/experiments/knapen_AOT/AOT_stimuli/rescaled_final/0888_rv.mp4	0.0	198.17508697509766	2.500357151031494
39	175.67636799812317	pulse	1	t		37.0	2.5	/experiments/knapen_AOT/AOT_stimuli/rescaled_final/0888_rv.mp4	0.0	199.35884809494019	
39	176.99296402931213	fix_post	2		12	37.0	2.5	/experiments/knapen_AOT/AOT_stimuli/rescaled_final/0888_rv.mp4	0.0	200.67544412612915	0.10003304481506348
40	177.0929970741272	fix_pre	0		120	38.0	2.5	/experiments/knapen_AOT/AOT_stimuli/rescaled_final/1896_rv.mp4	0.0	200.7754771709442	1.0001068115234375
40	177.27648997306824	pulse	0	t		38.0	2.5	/experiments/knapen_AOT/AOT_stimuli/rescaled_final/1896_rv.mp4	0.0	200.95897006988525	
40	178.09310388565063	movie	1		245	38.0	2.5	/experiments/knapen_AOT/AOT_stimuli/rescaled_final/1896_rv.mp4	0.0	201.77558398246765	2.5003859996795654
40	178.8767569065094	pulse	1	t		38.0	2.5	/experiments/knapen_AOT/AOT_stimuli/rescaled_final/1896_rv.mp4	0.0	202.55923700332642	
40	180.47698187828064	pulse	1	t		38.0	2.5	/experiments/knapen_AOT/AOT_stimuli/rescaled_final/1896_rv.mp4	0.0	204.15946197509766	
40	180.5934898853302	fix_post	2		12	38.0	2.5	/experiments/knapen_AOT/AOT_stimuli/rescaled_final/1896_rv.mp4	0.0	204.27596998214722	0.10001707077026367
41	180.69350695610046	fix_pre	0		120	39.0	2.5	/experiments/knapen_AOT/AOT_stimuli/rescaled_final/1194_rv.mp4	0.0	204.37598705291748	1.0001730918884277
41	181.6936800479889	movie	1		247	39.0	2.5	/experiments/knapen_AOT/AOT_stimuli/rescaled_final/1194_rv.mp4	0.0	205.3761601448059	2.492041826248169
41	182.0779390335083	pulse	1	t		39.0	2.5	/experiments/knapen_AOT/AOT_stimuli/rescaled_final/1194_rv.mp4	0.0	205.76041913032532	
41	183.6774890422821	pulse	1	t		39.0	2.5	/experiments/knapen_AOT/AOT_stimuli/rescaled_final/1194_rv.mp4	0.0	207.35996913909912	
41	184.18572187423706	fix_post	2		12	39.0	2.5	/experiments/knapen_AOT/AOT_stimuli/rescaled_final/1194_rv.mp4	0.0	207.86820197105408	0.09996700286865234
42	184.2856888771057	fix_pre	0		120	40.0	2.5	/experiments/knapen_AOT/AOT_stimuli/rescaled_final/0933_rv.mp4	0.0	207.96816897392273	1.0001749992370605
42	185.27774500846863	pulse	0	t		40.0	2.5	/experiments/knapen_AOT/AOT_stimuli/rescaled_final/0933_rv.mp4	0.0	208.96022510528564	
42	185.28586387634277	movie	1		246	40.0	2.5	/experiments/knapen_AOT/AOT_stimuli/rescaled_final/0933_rv.mp4	0.0	208.9683439731598	2.508761167526245
42	186.8785960674286	pulse	1	t		40.0	2.5	/experiments/knapen_AOT/AOT_stimuli/rescaled_final/0933_rv.mp4	0.0	210.5610761642456	
42	187.79462504386902	fix_post	2		12	40.0	2.5	/experiments/knapen_AOT/AOT_stimuli/rescaled_final/0933_rv.mp4	0.0	211.47710514068604	0.09998703002929688
43	187.89461207389832	fix_pre	0		120	41.0	2.5	/experiments/knapen_AOT/AOT_stimuli/rescaled_final/0977_fw.mp4	0.0	211.57709217071533	1.0001089572906494
43	188.47817301750183	pulse	0	t		41.0	2.5	/experiments/knapen_AOT/AOT_stimuli/rescaled_final/0977_fw.mp4	0.0	212.16065311431885	
43	188.89472103118896	movie	1		247	41.0	2.5	/experiments/knapen_AOT/AOT_stimuli/rescaled_final/0977_fw.mp4	0.0	212.57720112800598	2.50039005279541
43	190.0784831047058	pulse	1	t		41.0	2.5	/experiments/knapen_AOT/AOT_stimuli/rescaled_final/0977_fw.mp4	0.0	213.76096320152283	
43	191.39511108398438	fix_post	2		12	41.0	2.5	/experiments/knapen_AOT/AOT_stimuli/rescaled_final/0977_fw.mp4	0.0	215.0775911808014	0.10001897811889648
44	191.49513006210327	fix_pre	0		120	42.0	2.5	blank	1.0	215.1776101589203	1.000133991241455
44	191.67877006530762	pulse	0	t		42.0	2.5	blank	1.0	215.36125016212463	
44	192.49526405334473	movie	1		300	42.0	2.5	blank	1.0	216.17774415016174	2.5004098415374756
44	193.27893996238708	pulse	1	t		42.0	2.5	blank	1.0	216.9614200592041	
44	194.87911891937256	pulse	1	t		42.0	2.5	blank	1.0	218.56159901618958	
44	194.9956738948822	fix_post	2		9	42.0	2.5	blank	1.0	218.67815399169922	0.0999901294708252
45	195.09566402435303	fix_pre	0		119	43.0	2.5	/experiments/knapen_AOT/AOT_stimuli/rescaled_final/1005_rv.mp4	0.0	218.77814412117004	0.9917969703674316
45	196.08746099472046	movie	1		245	43.0	2.5	/experiments/knapen_AOT/AOT_stimuli/rescaled_final/1005_rv.mp4	0.0	219.76994109153748	2.5003719329833984
45	196.4757740497589	pulse	1	t		43.0	2.5	/experiments/knapen_AOT/AOT_stimuli/rescaled_final/1005_rv.mp4	0.0	220.15825414657593	
45	198.07960391044617	pulse	1	t		43.0	2.5	/experiments/knapen_AOT/AOT_stimuli/rescaled_final/1005_rv.mp4	0.0	221.76208400726318	
45	198.58783292770386	fix_post	2		12	43.0	2.5	/experiments/knapen_AOT/AOT_stimuli/rescaled_final/1005_rv.mp4	0.0	222.27031302452087	0.10001111030578613
46	198.68784403800964	fix_pre	0		120	44.0	2.5	/experiments/knapen_AOT/AOT_stimuli/rescaled_final/1357_fw.mp4	0.0	222.37032413482666	1.0001568794250488
46	199.67986297607422	pulse	0	t		44.0	2.5	/experiments/knapen_AOT/AOT_stimuli/rescaled_final/1357_fw.mp4	0.0	223.36234307289124	
46	199.6880009174347	movie	1		245	44.0	2.5	/experiments/knapen_AOT/AOT_stimuli/rescaled_final/1357_fw.mp4	0.0	223.3704810142517	2.508805990219116
46	201.2807970046997	pulse	1	t		44.0	2.5	/experiments/knapen_AOT/AOT_stimuli/rescaled_final/1357_fw.mp4	0.0	224.96327710151672	
46	202.1968069076538	fix_post	2		12	44.0	2.5	/experiments/knapen_AOT/AOT_stimuli/rescaled_final/1357_fw.mp4	0.0	225.87928700447083	0.09998011589050293
47	202.2967870235443	fix_pre	0		120	45.0	2.5	/experiments/knapen_AOT/AOT_stimuli/rescaled_final/0013_rv.mp4	0.0	225.97926712036133	1.0001280307769775
47	202.88047409057617	pulse	0	t		45.0	2.5	/experiments/knapen_AOT/AOT_stimuli/rescaled_final/0013_rv.mp4	0.0	226.5629541873932	
47	203.2969150543213	movie	1		244	45.0	2.5	/experiments/knapen_AOT/AOT_stimuli/rescaled_final/0013_rv.mp4	0.0	226.9793951511383	2.5003409385681152
47	204.4770369529724	pulse	1	t		45.0	2.5	/experiments/knapen_AOT/AOT_stimuli/rescaled_final/0013_rv.mp4	0.0	228.15951704978943	
47	205.7972559928894	fix_post	2		12	45.0	2.5	/experiments/knapen_AOT/AOT_stimuli/rescaled_final/0013_rv.mp4	0.0	229.47973608970642	0.1000370979309082
48	205.8972930908203	fix_pre	0		120	46.0	2.5	/experiments/knapen_AOT/AOT_stimuli/rescaled_final/0769_rv.mp4	0.0	229.57977318763733	1.0001499652862549
48	206.08083510398865	pulse	0	t		46.0	2.5	/experiments/knapen_AOT/AOT_stimuli/rescaled_final/0769_rv.mp4	0.0	229.76331520080566	
48	206.89744305610657	movie	1		245	46.0	2.5	/experiments/knapen_AOT/AOT_stimuli/rescaled_final/0769_rv.mp4	0.0	230.57992315292358	2.500356912612915
48	207.6810851097107	pulse	1	t		46.0	2.5	/experiments/knapen_AOT/AOT_stimuli/rescaled_final/0769_rv.mp4	0.0	231.3635652065277	
48	209.27896904945374	pulse	1	t		46.0	2.5	/experiments/knapen_AOT/AOT_stimuli/rescaled_final/0769_rv.mp4	0.0	232.96144914627075	
48	209.39779996871948	fix_post	2		12	46.0	2.5	/experiments/knapen_AOT/AOT_stimuli/rescaled_final/0769_rv.mp4	0.0	233.0802800655365	0.09999895095825195
49	209.49779891967773	fix_pre	0		119	47.0	2.5	/experiments/knapen_AOT/AOT_stimuli/rescaled_final/1331_rv.mp4	0.0	233.18027901649475	0.9918241500854492
49	210.48962306976318	movie	1		246	47.0	2.5	/experiments/knapen_AOT/AOT_stimuli/rescaled_final/1331_rv.mp4	0.0	234.1721031665802	2.5003528594970703
49	210.87807893753052	pulse	1	t		47.0	2.5	/experiments/knapen_AOT/AOT_stimuli/rescaled_final/1331_rv.mp4	0.0	234.56055903434753	
49	212.48185205459595	pulse	1	t		47.0	2.5	/experiments/knapen_AOT/AOT_stimuli/rescaled_final/1331_rv.mp4	0.0	236.16433215141296	
49	212.98997592926025	fix_post	2		12	47.0	2.5	/experiments/knapen_AOT/AOT_stimuli/rescaled_final/1331_rv.mp4	0.0	236.67245602607727	0.10004901885986328
50	213.09002494812012	fix_pre	0		120	48.0	2.5	/experiments/knapen_AOT/AOT_stimuli/rescaled_final/1111_fw.mp4	0.0	236.77250504493713	1.0001389980316162
50	214.08219289779663	pulse	0	t		48.0	2.5	/experiments/knapen_AOT/AOT_stimuli/rescaled_final/1111_fw.mp4	0.0	237.76467299461365	
50	214.09016394615173	movie	1		245	48.0	2.5	/experiments/knapen_AOT/AOT_stimuli/rescaled_final/1111_fw.mp4	0.0	237.77264404296875	2.508707046508789
50	215.68269395828247	pulse	1	t		48.0	2.5	/experiments/knapen_AOT/AOT_stimuli/rescaled_final/1111_fw.mp4	0.0	239.3651740550995	
50	216.59887099266052	fix_post	2		12	48.0	2.5	/experiments/knapen_AOT/AOT_stimuli/rescaled_final/1111_fw.mp4	0.0	240.28135108947754	0.10005998611450195
51	216.69893097877502	fix_pre	0		120	49.0	2.5	blank	1.0	240.38141107559204	1.000096082687378
51	217.27507305145264	pulse	0	t		49.0	2.5	blank	1.0	240.95755314826965	
51	217.6990270614624	movie	1		300	49.0	2.5	blank	1.0	241.38150715827942	2.5003998279571533
51	218.87522506713867	pulse	1	t		49.0	2.5	blank	1.0	242.5577051639557	
51	220.19942688941956	fix_post	2		12	49.0	2.5	blank	1.0	243.88190698623657	0.10003900527954102
52	220.2994658946991	fix_pre	0		120	50.0	2.5	/experiments/knapen_AOT/AOT_stimuli/rescaled_final/1376_fw.mp4	0.0	243.9819459915161	1.0001420974731445
52	220.47539496421814	pulse	0	t		50.0	2.5	/experiments/knapen_AOT/AOT_stimuli/rescaled_final/1376_fw.mp4	0.0	244.15787506103516	
52	221.29960799217224	movie	1		244	50.0	2.5	/experiments/knapen_AOT/AOT_stimuli/rescaled_final/1376_fw.mp4	0.0	244.98208808898926	2.500356912612915
52	222.07493591308594	pulse	1	t		50.0	2.5	/experiments/knapen_AOT/AOT_stimuli/rescaled_final/1376_fw.mp4	0.0	245.75741600990295	
52	223.67502808570862	pulse	1	t		50.0	2.5	/experiments/knapen_AOT/AOT_stimuli/rescaled_final/1376_fw.mp4	0.0	247.35750818252563	
52	223.79996490478516	fix_post	2		12	50.0	2.5	/experiments/knapen_AOT/AOT_stimuli/rescaled_final/1376_fw.mp4	0.0	247.48244500160217	0.10004997253417969
53	223.90001487731934	fix_pre	0		120	51.0	2.5	/experiments/knapen_AOT/AOT_stimuli/rescaled_final/1526_rv.mp4	0.0	247.58249497413635	1.0000731945037842
53	224.90008807182312	movie	1		245	51.0	2.5	/experiments/knapen_AOT/AOT_stimuli/rescaled_final/1526_rv.mp4	0.0	248.58256816864014	2.4921019077301025
53	225.27532696723938	pulse	1	t		51.0	2.5	/experiments/knapen_AOT/AOT_stimuli/rescaled_final/1526_rv.mp4	0.0	248.9578070640564	
53	226.87579989433289	pulse	1	t		51.0	2.5	/experiments/knapen_AOT/AOT_stimuli/rescaled_final/1526_rv.mp4	0.0	250.5582799911499	
53	227.39218997955322	fix_post	2		12	51.0	2.5	/experiments/knapen_AOT/AOT_stimuli/rescaled_final/1526_rv.mp4	0.0	251.07467007637024	0.09994006156921387
54	227.49213004112244	fix_pre	0		119	52.0	2.5	/experiments/knapen_AOT/AOT_stimuli/rescaled_final/0956_fw.mp4	0.0	251.17461013793945	0.9918179512023926
54	228.4758460521698	pulse	0	t		52.0	2.5	/experiments/knapen_AOT/AOT_stimuli/rescaled_final/0956_fw.mp4	0.0	252.15832614898682	
54	228.48394799232483	movie	1		246	52.0	2.5	/experiments/knapen_AOT/AOT_stimuli/rescaled_final/0956_fw.mp4	0.0	252.16642808914185	2.508718967437744
54	230.0766589641571	pulse	1	t		52.0	2.5	/experiments/knapen_AOT/AOT_stimuli/rescaled_final/0956_fw.mp4	0.0	253.75913906097412	
54	230.99266695976257	fix_post	2		12	52.0	2.5	/experiments/knapen_AOT/AOT_stimuli/rescaled_final/0956_fw.mp4	0.0	254.6751470565796	0.1000509262084961
55	231.09271788597107	fix_pre	0		120	53.0	2.5	/experiments/knapen_AOT/AOT_stimuli/rescaled_final/1006_rv.mp4	0.0	254.7751979827881	1.0001351833343506
55	231.67628598213196	pulse	0	t		53.0	2.5	/experiments/knapen_AOT/AOT_stimuli/rescaled_final/1006_rv.mp4	0.0	255.35876607894897	
55	232.09285306930542	movie	1		245	53.0	2.5	/experiments/knapen_AOT/AOT_stimuli/rescaled_final/1006_rv.mp4	0.0	255.77533316612244	2.500349998474121
55	233.27662992477417	pulse	1	t		53.0	2.5	/experiments/knapen_AOT/AOT_stimuli/rescaled_final/1006_rv.mp4	0.0	256.9591100215912	
55	234.59320306777954	fix_post	2		12	53.0	2.5	/experiments/knapen_AOT/AOT_stimuli/rescaled_final/1006_rv.mp4	0.0	258.27568316459656	0.1000218391418457
56	234.6932249069214	fix_pre	0		120	54.0	2.5	/experiments/knapen_AOT/AOT_stimuli/rescaled_final/1518_rv.mp4	0.0	258.3757050037384	1.0001540184020996
56	234.87693691253662	pulse	0	t		54.0	2.5	/experiments/knapen_AOT/AOT_stimuli/rescaled_final/1518_rv.mp4	0.0	258.55941700935364	
56	235.6933789253235	movie	1		243	54.0	2.5	/experiments/knapen_AOT/AOT_stimuli/rescaled_final/1518_rv.mp4	0.0	259.3758590221405	2.5004000663757324
56	236.47699189186096	pulse	1	t		54.0	2.5	/experiments/knapen_AOT/AOT_stimuli/rescaled_final/1518_rv.mp4	0.0	260.159471988678	
56	238.07714295387268	pulse	1	t		54.0	2.5	/experiments/knapen_AOT/AOT_stimuli/rescaled_final/1518_rv.mp4	0.0	261.7596230506897	
56	238.19377899169922	fix_post	2		12	54.0	2.5	/experiments/knapen_AOT/AOT_stimuli/rescaled_final/1518_rv.mp4	0.0	261.87625908851624	0.10002994537353516
57	238.29380893707275	fix_pre	0		120	55.0	2.5	blank	1.0	261.97628903388977	1.0001060962677002
57	239.29391503334045	movie	1		299	55.0	2.5	blank	1.0	262.97639513015747	2.4920520782470703
57	239.67755508422852	pulse	1	t		55.0	2.5	blank	1.0	263.36003518104553	
57	241.2777819633484	pulse	1	t		55.0	2.5	blank	1.0	264.9602620601654	
57	241.78596711158752	fix_post	2		12	55.0	2.5	blank	1.0	265.46844720840454	0.10001897811889648
58	241.88598608970642	fix_pre	0		120	56.0	2.5	/experiments/knapen_AOT/AOT_stimuli/rescaled_final/0148_rv.mp4	0.0	265.56846618652344	1.0001859664916992
58	242.87799406051636	pulse	0	t		56.0	2.5	/experiments/knapen_AOT/AOT_stimuli/rescaled_final/0148_rv.mp4	0.0	266.5604741573334	
58	242.88617205619812	movie	1		246	56.0	2.5	/experiments/knapen_AOT/AOT_stimuli/rescaled_final/0148_rv.mp4	0.0	266.56865215301514	2.5086610317230225
58	244.4795799255371	pulse	1	t		56.0	2.5	/experiments/knapen_AOT/AOT_stimuli/rescaled_final/0148_rv.mp4	0.0	268.1620600223541	
58	245.39483308792114	fix_post	2		12	56.0	2.5	/experiments/knapen_AOT/AOT_stimuli/rescaled_final/0148_rv.mp4	0.0	269.07731318473816	0.09999799728393555
59	245.49483108520508	fix_pre	0		120	57.0	2.5	/experiments/knapen_AOT/AOT_stimuli/rescaled_final/1319_rv.mp4	0.0	269.1773111820221	1.0001590251922607
59	246.07855987548828	pulse	0	t		57.0	2.5	/experiments/knapen_AOT/AOT_stimuli/rescaled_final/1319_rv.mp4	0.0	269.7610399723053	
59	246.49499011039734	movie	1		247	57.0	2.5	/experiments/knapen_AOT/AOT_stimuli/rescaled_final/1319_rv.mp4	0.0	270.17747020721436	2.5003609657287598
59	247.67878603935242	pulse	1	t		57.0	2.5	/experiments/knapen_AOT/AOT_stimuli/rescaled_final/1319_rv.mp4	0.0	271.36126613616943	
59	248.9953510761261	fix_post	2		12	57.0	2.5	/experiments/knapen_AOT/AOT_stimuli/rescaled_final/1319_rv.mp4	0.0	272.6778311729431	0.10002303123474121
60	249.09537410736084	fix_pre	0		120	58.0	2.5	/experiments/knapen_AOT/AOT_stimuli/rescaled_final/0115_rv.mp4	0.0	272.77785420417786	1.0001928806304932
60	249.2789409160614	pulse	0	t		58.0	2.5	/experiments/knapen_AOT/AOT_stimuli/rescaled_final/0115_rv.mp4	0.0	272.9614210128784	
60	250.09556698799133	movie	1		242	58.0	2.5	/experiments/knapen_AOT/AOT_stimuli/rescaled_final/0115_rv.mp4	0.0	273.77804708480835	2.5003440380096436
60	250.87916707992554	pulse	1	t		58.0	2.5	/experiments/knapen_AOT/AOT_stimuli/rescaled_final/0115_rv.mp4	0.0	274.56164717674255	
60	252.47887706756592	pulse	1	t		58.0	2.5	/experiments/knapen_AOT/AOT_stimuli/rescaled_final/0115_rv.mp4	0.0	276.16135716438293	
60	252.59591102600098	fix_post	2		12	58.0	2.5	/experiments/knapen_AOT/AOT_stimuli/rescaled_final/0115_rv.mp4	0.0	276.278391122818	0.10000991821289062
61	252.69592094421387	fix_pre	0		120	59.0	2.5	/experiments/knapen_AOT/AOT_stimuli/rescaled_final/1717_fw.mp4	0.0	276.3784010410309	1.0001680850982666
61	253.69608902931213	movie	1		244	59.0	2.5	/experiments/knapen_AOT/AOT_stimuli/rescaled_final/1717_fw.mp4	0.0	277.37856912612915	2.4920010566711426
61	254.08020401000977	pulse	1	t		59.0	2.5	/experiments/knapen_AOT/AOT_stimuli/rescaled_final/1717_fw.mp4	0.0	277.7626841068268	
61	255.6800000667572	pulse	1	t		59.0	2.5	/experiments/knapen_AOT/AOT_stimuli/rescaled_final/1717_fw.mp4	0.0	279.3624801635742	
61	256.1880900859833	fix_post	2		12	59.0	2.5	/experiments/knapen_AOT/AOT_stimuli/rescaled_final/1717_fw.mp4	0.0	279.8705701828003	0.10005784034729004
62	256.28814792633057	fix_pre	0		120	60.0	2.5	/experiments/knapen_AOT/AOT_stimuli/rescaled_final/0235_fw.mp4	0.0	279.9706280231476	1.000136137008667
62	257.28006887435913	pulse	0	t		60.0	2.5	/experiments/knapen_AOT/AOT_stimuli/rescaled_final/0235_fw.mp4	0.0	280.96254897117615	
62	257.28828406333923	movie	1		247	60.0	2.5	/experiments/knapen_AOT/AOT_stimuli/rescaled_final/0235_fw.mp4	0.0	280.97076416015625	2.508697986602783
62	258.8845040798187	pulse	1	t		60.0	2.5	/experiments/knapen_AOT/AOT_stimuli/rescaled_final/0235_fw.mp4	0.0	282.56698417663574	
62	259.796982049942	fix_post	2		12	60.0	2.5	/experiments/knapen_AOT/AOT_stimuli/rescaled_final/0235_fw.mp4	0.0	283.47946214675903	0.10000085830688477
63	259.8969829082489	fix_pre	0		120	61.0	2.5	/experiments/knapen_AOT/AOT_stimuli/rescaled_final/2026_fw.mp4	0.0	283.5794630050659	1.0001451969146729
63	260.4807040691376	pulse	0	t		61.0	2.5	/experiments/knapen_AOT/AOT_stimuli/rescaled_final/2026_fw.mp4	0.0	284.1631841659546	
63	260.8971281051636	movie	1		244	61.0	2.5	/experiments/knapen_AOT/AOT_stimuli/rescaled_final/2026_fw.mp4	0.0	284.5796082019806	2.5003957748413086
63	262.0766739845276	pulse	1	t		61.0	2.5	/experiments/knapen_AOT/AOT_stimuli/rescaled_final/2026_fw.mp4	0.0	285.7591540813446	
63	263.3975238800049	fix_post	2		12	61.0	2.5	/experiments/knapen_AOT/AOT_stimuli/rescaled_final/2026_fw.mp4	0.0	287.0800039768219	0.10001420974731445
64	263.4975380897522	fix_pre	0		120	62.0	2.5	/experiments/knapen_AOT/AOT_stimuli/rescaled_final/1348_fw.mp4	0.0	287.1800181865692	1.0001327991485596
64	263.6810739040375	pulse	0	t		62.0	2.5	/experiments/knapen_AOT/AOT_stimuli/rescaled_final/1348_fw.mp4	0.0	287.3635540008545	
64	264.49767088890076	movie	1		244	62.0	2.5	/experiments/knapen_AOT/AOT_stimuli/rescaled_final/1348_fw.mp4	0.0	288.1801509857178	2.500359058380127
64	265.2813251018524	pulse	1	t		62.0	2.5	/experiments/knapen_AOT/AOT_stimuli/rescaled_final/1348_fw.mp4	0.0	288.96380519866943	
64	266.881649017334	pulse	1	t		62.0	2.5	/experiments/knapen_AOT/AOT_stimuli/rescaled_final/1348_fw.mp4	0.0	290.564129114151	
64	266.9980299472809	fix_post	2		11	62.0	2.5	/experiments/knapen_AOT/AOT_stimuli/rescaled_final/1348_fw.mp4	0.0	290.6805100440979	0.09171104431152344
65	267.0897409915924	fix_pre	0		120	63.0	2.5	blank	1.0	290.7722210884094	1.0001399517059326
65	268.08988094329834	movie	1		300	63.0	2.5	blank	1.0	291.77236104011536	2.5003609657287598
65	268.481880903244	pulse	1	t		63.0	2.5	blank	1.0	292.16436100006104	
65	270.0819869041443	pulse	1	t		63.0	2.5	blank	1.0	293.7644670009613	
65	270.5902419090271	fix_post	2		12	63.0	2.5	blank	1.0	294.2727220058441	0.10001301765441895
66	270.6902549266815	fix_pre	0		120	64.0	2.5	/experiments/knapen_AOT/AOT_stimuli/rescaled_final/1297_rv.mp4	0.0	294.37273502349854	1.00018310546875
66	271.68230295181274	pulse	0	t		64.0	2.5	/experiments/knapen_AOT/AOT_stimuli/rescaled_final/1297_rv.mp4	0.0	295.36478304862976	
66	271.69043803215027	movie	1		245	64.0	2.5	/experiments/knapen_AOT/AOT_stimuli/rescaled_final/1297_rv.mp4	0.0	295.3729181289673	2.5086710453033447
66	273.2830739021301	pulse	1	t		64.0	2.5	/experiments/knapen_AOT/AOT_stimuli/rescaled_final/1297_rv.mp4	0.0	296.96555399894714	
66	274.1991090774536	fix_post	2		12	64.0	2.5	/experiments/knapen_AOT/AOT_stimuli/rescaled_final/1297_rv.mp4	0.0	297.88158917427063	0.10008502006530762
67	274.2991940975189	fix_pre	0		120	65.0	2.5	/experiments/knapen_AOT/AOT_stimuli/rescaled_final/2098_fw.mp4	0.0	297.98167419433594	1.0000948905944824
67	274.88283491134644	pulse	0	t		65.0	2.5	/experiments/knapen_AOT/AOT_stimuli/rescaled_final/2098_fw.mp4	0.0	298.56531500816345	
67	275.2992889881134	movie	1		247	65.0	2.5	/experiments/knapen_AOT/AOT_stimuli/rescaled_final/2098_fw.mp4	0.0	298.9817690849304	2.5003631114959717
67	276.4831049442291	pulse	1	t		65.0	2.5	/experiments/knapen_AOT/AOT_stimuli/rescaled_final/2098_fw.mp4	0.0	300.16558504104614	
67	277.7996520996094	fix_post	2		12	65.0	2.5	/experiments/knapen_AOT/AOT_stimuli/rescaled_final/2098_fw.mp4	0.0	301.4821321964264	0.10003089904785156
68	277.8996829986572	fix_pre	0		120	66.0	2.5	/experiments/knapen_AOT/AOT_stimuli/rescaled_final/1873_fw.mp4	0.0	301.58216309547424	1.0001659393310547
68	278.0758218765259	pulse	0	t		66.0	2.5	/experiments/knapen_AOT/AOT_stimuli/rescaled_final/1873_fw.mp4	0.0	301.7583019733429	
68	278.8998489379883	movie	1		244	66.0	2.5	/experiments/knapen_AOT/AOT_stimuli/rescaled_final/1873_fw.mp4	0.0	302.5823290348053	2.5003340244293213
68	279.6760048866272	pulse	1	t		66.0	2.5	/experiments/knapen_AOT/AOT_stimuli/rescaled_final/1873_fw.mp4	0.0	303.3584849834442	
68	281.2812840938568	pulse	1	t		66.0	2.5	/experiments/knapen_AOT/AOT_stimuli/rescaled_final/1873_fw.mp4	0.0	304.9637641906738	
68	281.4001829624176	fix_post	2		12	66.0	2.5	/experiments/knapen_AOT/AOT_stimuli/rescaled_final/1873_fw.mp4	0.0	305.0826630592346	0.10000991821289062
69	281.5001928806305	fix_pre	0		120	67.0	2.5	/experiments/knapen_AOT/AOT_stimuli/rescaled_final/0357_fw.mp4	0.0	305.1826729774475	1.0001962184906006
69	282.5003890991211	movie	1		245	67.0	2.5	/experiments/knapen_AOT/AOT_stimuli/rescaled_final/0357_fw.mp4	0.0	306.1828691959381	2.4920198917388916
69	282.87569189071655	pulse	1	t		67.0	2.5	/experiments/knapen_AOT/AOT_stimuli/rescaled_final/0357_fw.mp4	0.0	306.55817198753357	
69	284.4758770465851	pulse	1	t		67.0	2.5	/experiments/knapen_AOT/AOT_stimuli/rescaled_final/0357_fw.mp4	0.0	308.1583571434021	
69	284.99240899086	fix_post	2		12	67.0	2.5	/experiments/knapen_AOT/AOT_stimuli/rescaled_final/0357_fw.mp4	0.0	308.674889087677	0.09996604919433594
70	285.0923750400543	fix_pre	0		119	68.0	2.5	/experiments/knapen_AOT/AOT_stimuli/rescaled_final/0436_rv.mp4	0.0	308.77485513687134	0.9918999671936035
70	286.0761020183563	pulse	0	t		68.0	2.5	/experiments/knapen_AOT/AOT_stimuli/rescaled_final/0436_rv.mp4	0.0	309.75858211517334	
70	286.0842750072479	movie	1		246	68.0	2.5	/experiments/knapen_AOT/AOT_stimuli/rescaled_final/0436_rv.mp4	0.0	309.76675510406494	2.508655071258545
70	287.6770100593567	pulse	1	t		68.0	2.5	/experiments/knapen_AOT/AOT_stimuli/rescaled_final/0436_rv.mp4	0.0	311.3594901561737	
70	288.59293007850647	fix_post	2		12	68.0	2.5	/experiments/knapen_AOT/AOT_stimuli/rescaled_final/0436_rv.mp4	0.0	312.2754101753235	0.10001301765441895
71	288.6929430961609	fix_pre	0		120	69.0	2.5	blank	1.0	312.3754231929779	1.0001468658447266
71	289.27661895751953	pulse	0	t		69.0	2.5	blank	1.0	312.95909905433655	
71	289.6930899620056	movie	1		300	69.0	2.5	blank	1.0	313.37557005882263	2.500380039215088
71	290.87686109542847	pulse	1	t		69.0	2.5	blank	1.0	314.5593411922455	
71	292.1934700012207	fix_post	2		12	69.0	2.5	blank	1.0	315.8759500980377	0.10009098052978516
72	292.2935609817505	fix_pre	0		120	70.0	2.5	/experiments/knapen_AOT/AOT_stimuli/rescaled_final/2100_rv.mp4	0.0	315.9760410785675	1.000148057937622
72	292.4770419597626	pulse	0	t		70.0	2.5	/experiments/knapen_AOT/AOT_stimuli/rescaled_final/2100_rv.mp4	0.0	316.1595220565796	
72	293.2937090396881	movie	1		244	70.0	2.5	/experiments/knapen_AOT/AOT_stimuli/rescaled_final/2100_rv.mp4	0.0	316.9761891365051	2.50028395652771
72	294.07737708091736	pulse	1	t		70.0	2.5	/experiments/knapen_AOT/AOT_stimuli/rescaled_final/2100_rv.mp4	0.0	317.7598571777344	
72	295.67751598358154	pulse	1	t		70.0	2.5	/experiments/knapen_AOT/AOT_stimuli/rescaled_final/2100_rv.mp4	0.0	319.35999608039856	
72	295.7939929962158	fix_post	2		12	70.0	2.5	/experiments/knapen_AOT/AOT_stimuli/rescaled_final/2100_rv.mp4	0.0	319.47647309303284	0.10002803802490234
73	295.8940210342407	fix_pre	0		120	71.0	2.5	/experiments/knapen_AOT/AOT_stimuli/rescaled_final/0323_fw.mp4	0.0	319.57650113105774	1.0001459121704102
73	296.89416694641113	movie	1		244	71.0	2.5	/experiments/knapen_AOT/AOT_stimuli/rescaled_final/0323_fw.mp4	0.0	320.57664704322815	2.492077112197876
73	297.2788701057434	pulse	1	t		71.0	2.5	/experiments/knapen_AOT/AOT_stimuli/rescaled_final/0323_fw.mp4	0.0	320.9613502025604	
73	298.87799096107483	pulse	1	t		71.0	2.5	/experiments/knapen_AOT/AOT_stimuli/rescaled_final/0323_fw.mp4	0.0	322.56047105789185	
73	299.386244058609	fix_post	2		12	71.0	2.5	/experiments/knapen_AOT/AOT_stimuli/rescaled_final/0323_fw.mp4	0.0	323.068724155426	0.0999908447265625
74	299.48623490333557	fix_pre	0		120	72.0	2.5	/experiments/knapen_AOT/AOT_stimuli/rescaled_final/1357_rv.mp4	0.0	323.1687150001526	1.000150203704834
74	300.47827410697937	pulse	0	t		72.0	2.5	/experiments/knapen_AOT/AOT_stimuli/rescaled_final/1357_rv.mp4	0.0	324.1607542037964	
74	300.4863851070404	movie	1		245	72.0	2.5	/experiments/knapen_AOT/AOT_stimuli/rescaled_final/1357_rv.mp4	0.0	324.1688652038574	2.508676767349243
74	302.0790948867798	pulse	1	t		72.0	2.5	/experiments/knapen_AOT/AOT_stimuli/rescaled_final/1357_rv.mp4	0.0	325.7615749835968	
74	302.99506187438965	fix_post	2		12	72.0	2.5	/experiments/knapen_AOT/AOT_stimuli/rescaled_final/1357_rv.mp4	0.0	326.67754197120667	0.10001921653747559
75	303.0950810909271	fix_pre	0		120	73.0	2.5	/experiments/knapen_AOT/AOT_stimuli/rescaled_final/1194_rv.mp4	0.0	326.77756118774414	1.0001718997955322
75	303.67878794670105	pulse	0	t		73.0	2.5	/experiments/knapen_AOT/AOT_stimuli/rescaled_final/1194_rv.mp4	0.0	327.36126804351807	
75	304.09525299072266	movie	1		248	73.0	2.5	/experiments/knapen_AOT/AOT_stimuli/rescaled_final/1194_rv.mp4	0.0	327.7777330875397	2.5003769397735596
75	305.2790279388428	pulse	1	t		73.0	2.5	/experiments/knapen_AOT/AOT_stimuli/rescaled_final/1194_rv.mp4	0.0	328.9615080356598	
75	306.5956299304962	fix_post	2		12	73.0	2.5	/experiments/knapen_AOT/AOT_stimuli/rescaled_final/1194_rv.mp4	0.0	330.27811002731323	0.10001206398010254
76	306.6956419944763	fix_pre	0		120	74.0	2.5	/experiments/knapen_AOT/AOT_stimuli/rescaled_final/0971_fw.mp4	0.0	330.37812209129333	1.0001659393310547
76	306.8791539669037	pulse	0	t		74.0	2.5	/experiments/knapen_AOT/AOT_stimuli/rescaled_final/0971_fw.mp4	0.0	330.5616340637207	
76	307.6958079338074	movie	1		244	74.0	2.5	/experiments/knapen_AOT/AOT_stimuli/rescaled_final/0971_fw.mp4	0.0	331.3782880306244	2.5003509521484375
76	308.4795639514923	pulse	1	t		74.0	2.5	/experiments/knapen_AOT/AOT_stimuli/rescaled_final/0971_fw.mp4	0.0	332.1620440483093	
76	310.07722997665405	pulse	1	t		74.0	2.5	/experiments/knapen_AOT/AOT_stimuli/rescaled_final/0971_fw.mp4	0.0	333.75971007347107	
76	310.1961588859558	fix_post	2		12	74.0	2.5	/experiments/knapen_AOT/AOT_stimuli/rescaled_final/0971_fw.mp4	0.0	333.8786389827728	0.10004806518554688
77	310.29620695114136	fix_pre	0		117	75.0	2.5	blank	1.0	333.9786870479584	1.0001180171966553
77	311.296324968338	movie	1		299	75.0	2.5	blank	1.0	334.97880506515503	2.492008924484253
77	311.67987298965454	pulse	1	t		75.0	2.5	blank	1.0	335.36235308647156	
77	313.2801170349121	pulse	1	t		75.0	2.5	blank	1.0	336.9625971317291	
77	313.78833389282227	fix_post	2		12	75.0	2.5	blank	1.0	337.4708139896393	0.10009121894836426
78	313.88842511177063	fix_pre	0		120	76.0	2.5	/experiments/knapen_AOT/AOT_stimuli/rescaled_final/0997_fw.mp4	0.0	337.57090520858765	1.0001108646392822
78	314.8805150985718	pulse	0	t		76.0	2.5	/experiments/knapen_AOT/AOT_stimuli/rescaled_final/0997_fw.mp4	0.0	338.5629951953888	
78	314.8885359764099	movie	1		246	76.0	2.5	/experiments/knapen_AOT/AOT_stimuli/rescaled_final/0997_fw.mp4	0.0	338.57101607322693	2.5086889266967773
78	316.4812979698181	pulse	1	t		76.0	2.5	/experiments/knapen_AOT/AOT_stimuli/rescaled_final/0997_fw.mp4	0.0	340.16377806663513	
78	317.3972249031067	fix_post	2		12	76.0	2.5	/experiments/knapen_AOT/AOT_stimuli/rescaled_final/0997_fw.mp4	0.0	341.0797049999237	0.1000051498413086
79	317.497230052948	fix_pre	0		120	77.0	2.5	/experiments/knapen_AOT/AOT_stimuli/rescaled_final/1367_fw.mp4	0.0	341.179710149765	1.000180959701538
79	318.0808310508728	pulse	0	t		77.0	2.5	/experiments/knapen_AOT/AOT_stimuli/rescaled_final/1367_fw.mp4	0.0	341.7633111476898	
79	318.49741101264954	movie	1		244	77.0	2.5	/experiments/knapen_AOT/AOT_stimuli/rescaled_final/1367_fw.mp4	0.0	342.17989110946655	2.5003669261932373
79	319.68117904663086	pulse	1	t		77.0	2.5	/experiments/knapen_AOT/AOT_stimuli/rescaled_final/1367_fw.mp4	0.0	343.3636591434479	
79	320.9977779388428	fix_post	2		12	77.0	2.5	/experiments/knapen_AOT/AOT_stimuli/rescaled_final/1367_fw.mp4	0.0	344.6802580356598	0.1000511646270752
80	321.09782910346985	fix_pre	0		120	78.0	2.5	/experiments/knapen_AOT/AOT_stimuli/rescaled_final/1746_fw.mp4	0.0	344.78030920028687	1.0001018047332764
80	321.28149604797363	pulse	0	t		78.0	2.5	/experiments/knapen_AOT/AOT_stimuli/rescaled_final/1746_fw.mp4	0.0	344.96397614479065	
80	322.0979309082031	movie	1		244	78.0	2.5	/experiments/knapen_AOT/AOT_stimuli/rescaled_final/1746_fw.mp4	0.0	345.78041100502014	2.5003881454467773
80	322.88164710998535	pulse	1	t		78.0	2.5	/experiments/knapen_AOT/AOT_stimuli/rescaled_final/1746_fw.mp4	0.0	346.56412720680237	
80	324.4819509983063	pulse	1	t		78.0	2.5	/experiments/knapen_AOT/AOT_stimuli/rescaled_final/1746_fw.mp4	0.0	348.1644310951233	
80	324.5983190536499	fix_post	2		12	78.0	2.5	/experiments/knapen_AOT/AOT_stimuli/rescaled_final/1746_fw.mp4	0.0	348.2807991504669	0.1000368595123291
81	324.69835591316223	fix_pre	0		120	79.0	2.5	/experiments/knapen_AOT/AOT_stimuli/rescaled_final/0175_rv.mp4	0.0	348.38083600997925	1.0000941753387451
81	325.698450088501	movie	1		244	79.0	2.5	/experiments/knapen_AOT/AOT_stimuli/rescaled_final/0175_rv.mp4	0.0	349.380930185318	2.492083787918091
81	326.0834069252014	pulse	1	t		79.0	2.5	/experiments/knapen_AOT/AOT_stimuli/rescaled_final/0175_rv.mp4	0.0	349.76588702201843	
81	327.68233609199524	pulse	1	t		79.0	2.5	/experiments/knapen_AOT/AOT_stimuli/rescaled_final/0175_rv.mp4	0.0	351.36481618881226	
81	328.19053387641907	fix_post	2		12	79.0	2.5	/experiments/knapen_AOT/AOT_stimuli/rescaled_final/0175_rv.mp4	0.0	351.8730139732361	0.10001802444458008
82	328.29055190086365	fix_pre	0		120	80.0	2.5	/experiments/knapen_AOT/AOT_stimuli/rescaled_final/1216_rv.mp4	0.0	351.97303199768066	1.0001201629638672
82	329.275043964386	pulse	0	t		80.0	2.5	/experiments/knapen_AOT/AOT_stimuli/rescaled_final/1216_rv.mp4	0.0	352.957524061203	
82	329.2906720638275	movie	1		245	80.0	2.5	/experiments/knapen_AOT/AOT_stimuli/rescaled_final/1216_rv.mp4	0.0	352.97315216064453	2.508702039718628
82	330.88313007354736	pulse	1	t		80.0	2.5	/experiments/knapen_AOT/AOT_stimuli/rescaled_final/1216_rv.mp4	0.0	354.5656101703644	
82	331.79937410354614	fix_post	2		12	80.0	2.5	/experiments/knapen_AOT/AOT_stimuli/rescaled_final/1216_rv.mp4	0.0	355.48185420036316	0.1000518798828125
83	331.89942598342896	fix_pre	0		120	81.0	2.5	/experiments/knapen_AOT/AOT_stimuli/rescaled_final/2048_rv.mp4	0.0	355.581906080246	1.0001471042633057
83	332.4755549430847	pulse	0	t		81.0	2.5	/experiments/knapen_AOT/AOT_stimuli/rescaled_final/2048_rv.mp4	0.0	356.15803503990173	
83	332.89957308769226	movie	1		245	81.0	2.5	/experiments/knapen_AOT/AOT_stimuli/rescaled_final/2048_rv.mp4	0.0	356.5820531845093	2.5003349781036377
83	334.0756108760834	pulse	1	t		81.0	2.5	/experiments/knapen_AOT/AOT_stimuli/rescaled_final/2048_rv.mp4	0.0	357.7580909729004	
83	335.3999080657959	fix_post	2		12	81.0	2.5	/experiments/knapen_AOT/AOT_stimuli/rescaled_final/2048_rv.mp4	0.0	359.0823881626129	0.10000896453857422
84	335.4999170303345	fix_pre	0		120	82.0	2.5	/experiments/knapen_AOT/AOT_stimuli/rescaled_final/1216_fw.mp4	0.0	359.1823971271515	1.0001590251922607
84	335.6751940250397	pulse	0	t		82.0	2.5	/experiments/knapen_AOT/AOT_stimuli/rescaled_final/1216_fw.mp4	0.0	359.3576741218567	
84	336.50007605552673	movie	1		244	82.0	2.5	/experiments/knapen_AOT/AOT_stimuli/rescaled_final/1216_fw.mp4	0.0	360.18255615234375	2.500361919403076
84	337.27548599243164	pulse	1	t		82.0	2.5	/experiments/knapen_AOT/AOT_stimuli/rescaled_final/1216_fw.mp4	0.0	360.95796608924866	
84	338.87554001808167	pulse	1	t		82.0	2.5	/experiments/knapen_AOT/AOT_stimuli/rescaled_final/1216_fw.mp4	0.0	362.5580201148987	
84	339.0004379749298	fix_post	2		12	82.0	2.5	/experiments/knapen_AOT/AOT_stimuli/rescaled_final/1216_fw.mp4	0.0	362.6829180717468	0.10001897811889648
85	339.1004569530487	fix_pre	0		120	83.0	2.5	blank	1.0	362.7829370498657	1.0001599788665771
85	340.1006169319153	movie	1		299	83.0	2.5	blank	1.0	363.7830970287323	2.49202299118042
85	340.4757978916168	pulse	1	t		83.0	2.5	blank	1.0	364.15827798843384	
85	342.0760269165039	pulse	1	t		83.0	2.5	blank	1.0	365.7585070133209	
85	342.5926399230957	fix_post	2		12	83.0	2.5	blank	1.0	366.2751200199127	0.10004115104675293
87	342.69268107414246	stim	0		1716					366.3751611709595	14.302186965942383
87	343.6763529777527	pulse	0	t						367.3588330745697	
87	345.27652192115784	pulse	0	t						368.95900201797485	
87	346.87684988975525	pulse	0	t						370.55932998657227	
87	348.4769868850708	pulse	0	t						372.1594669818878	
87	350.0773251056671	pulse	0	t						373.75980520248413	
87	351.67748403549194	pulse	0	t						375.35996413230896	
87	353.2777121067047	pulse	0	t						376.96019220352173	
87	354.87799310684204	pulse	0	t						378.56047320365906	
87	356.4781949520111	pulse	0	t						380.1606750488281	
