trial_nr	onset	event_type	phase	response	nr_frames	movie_index	movie_duration	movie_file	blank	onset_abs	duration
0	0.15833210945129395	stim	0		641					24.42093515396118	5.341567039489746
0	5.491940021514893	response	0	space						29.75454306602478	
1	5.49989914894104	stim	0		13289					29.762502193450928	110.74107003211975
1	116.23377299308777	pulse	0	t						140.49637603759766	
1	116.24096918106079	stim	1		1717					140.50357222557068	14.308318853378296
1	117.83284902572632	pulse	1	t						142.0954520702362	
1	119.43289709091187	pulse	1	t						143.69550013542175	
1	121.03282499313354	pulse	1	t						145.29542803764343	
1	122.63283705711365	pulse	1	t						146.89544010162354	
1	124.2329671382904	pulse	1	t						148.4955701828003	
1	125.83280515670776	pulse	1	t						150.09540820121765	
1	127.4327540397644	pulse	1	t						151.6953570842743	
1	129.03273701667786	pulse	1	t						153.29534006118774	
2	130.5492880344391	fix_pre	0		11	0.0	2.5	/experiments/AOT/AOT_stimuli/rescaled_final/1075_rv.mp4	0.0	154.81189107894897	0.09162211418151855
2	130.63274598121643	pulse	0	t		0.0	2.5	/experiments/AOT/AOT_stimuli/rescaled_final/1075_rv.mp4	0.0	154.89534902572632	
2	130.6409101486206	movie	1		242	0.0	2.5	/experiments/AOT/AOT_stimuli/rescaled_final/1075_rv.mp4	0.0	154.9035131931305	2.508380889892578
2	132.23405408859253	pulse	1	t		0.0	2.5	/experiments/AOT/AOT_stimuli/rescaled_final/1075_rv.mp4	0.0	156.49665713310242	
2	133.14929103851318	fix_post	2		12	0.0	2.5	/experiments/AOT/AOT_stimuli/rescaled_final/1075_rv.mp4	0.0	157.41189408302307	0.09997105598449707
3	133.24926209449768	fix_pre	0		120	1.0	2.5	/experiments/AOT/AOT_stimuli/rescaled_final/0198_rv.mp4	0.0	157.51186513900757	0.9995770454406738
3	133.83228516578674	pulse	0	t		1.0	2.5	/experiments/AOT/AOT_stimuli/rescaled_final/0198_rv.mp4	0.0	158.09488821029663	
3	134.24883913993835	movie	1		245	1.0	2.5	/experiments/AOT/AOT_stimuli/rescaled_final/0198_rv.mp4	0.0	158.51144218444824	2.5007128715515137
3	135.43265008926392	pulse	1	t		1.0	2.5	/experiments/AOT/AOT_stimuli/rescaled_final/0198_rv.mp4	0.0	159.6952531337738	
3	136.74955201148987	fix_post	2		12	1.0	2.5	/experiments/AOT/AOT_stimuli/rescaled_final/0198_rv.mp4	0.0	161.01215505599976	0.09956908226013184
4	136.84912109375	fix_pre	0		120	2.0	2.5	/experiments/AOT/AOT_stimuli/rescaled_final/0713_fw.mp4	0.0	161.1117241382599	1.0001649856567383
4	137.03269910812378	pulse	0	t		2.0	2.5	/experiments/AOT/AOT_stimuli/rescaled_final/0713_fw.mp4	0.0	161.29530215263367	
4	137.84928607940674	movie	1		247	2.0	2.5	/experiments/AOT/AOT_stimuli/rescaled_final/0713_fw.mp4	0.0	162.11188912391663	2.499882936477661
4	138.63267397880554	pulse	1	t		2.0	2.5	/experiments/AOT/AOT_stimuli/rescaled_final/0713_fw.mp4	0.0	162.89527702331543	
4	140.22880005836487	pulse	1	t		2.0	2.5	/experiments/AOT/AOT_stimuli/rescaled_final/0713_fw.mp4	0.0	164.49140310287476	
4	140.3491690158844	fix_post	2		12	2.0	2.5	/experiments/AOT/AOT_stimuli/rescaled_final/0713_fw.mp4	0.0	164.6117720603943	0.10001015663146973
5	140.44917917251587	fix_pre	0		120	3.0	2.5	/experiments/AOT/AOT_stimuli/rescaled_final/1267_rv.mp4	0.0	164.71178221702576	1.0000059604644775
5	141.44918513298035	movie	1		244	3.0	2.5	/experiments/AOT/AOT_stimuli/rescaled_final/1267_rv.mp4	0.0	165.71178817749023	2.4999868869781494
5	141.83247804641724	pulse	1	t		3.0	2.5	/experiments/AOT/AOT_stimuli/rescaled_final/1267_rv.mp4	0.0	166.09508109092712	
5	143.43262100219727	pulse	1	t		3.0	2.5	/experiments/AOT/AOT_stimuli/rescaled_final/1267_rv.mp4	0.0	167.69522404670715	
5	143.9491720199585	fix_post	2		12	3.0	2.5	/experiments/AOT/AOT_stimuli/rescaled_final/1267_rv.mp4	0.0	168.21177506446838	0.09995198249816895
6	144.04912400245667	fix_pre	0		119	4.0	2.5	/experiments/AOT/AOT_stimuli/rescaled_final/0077_rv.mp4	0.0	168.31172704696655	0.9917011260986328
6	145.0326430797577	pulse	0	t		4.0	2.5	/experiments/AOT/AOT_stimuli/rescaled_final/0077_rv.mp4	0.0	169.29524612426758	
6	145.0408251285553	movie	1		243	4.0	2.5	/experiments/AOT/AOT_stimuli/rescaled_final/0077_rv.mp4	0.0	169.30342817306519	2.5083389282226562
6	146.63321709632874	pulse	1	t		4.0	2.5	/experiments/AOT/AOT_stimuli/rescaled_final/0077_rv.mp4	0.0	170.89582014083862	
6	147.54916405677795	fix_post	2		12	4.0	2.5	/experiments/AOT/AOT_stimuli/rescaled_final/0077_rv.mp4	0.0	171.81176710128784	0.09995388984680176
7	147.64911794662476	fix_pre	0		120	5.0	2.5	/experiments/AOT/AOT_stimuli/rescaled_final/1813_fw.mp4	0.0	171.91172099113464	1.0000560283660889
7	148.23268604278564	pulse	0	t		5.0	2.5	/experiments/AOT/AOT_stimuli/rescaled_final/1813_fw.mp4	0.0	172.49528908729553	
7	148.64917397499084	movie	1		243	5.0	2.5	/experiments/AOT/AOT_stimuli/rescaled_final/1813_fw.mp4	0.0	172.91177701950073	2.4999730587005615
7	149.83269906044006	pulse	1	t		5.0	2.5	/experiments/AOT/AOT_stimuli/rescaled_final/1813_fw.mp4	0.0	174.09530210494995	
7	151.1491470336914	fix_post	2		12	5.0	2.5	/experiments/AOT/AOT_stimuli/rescaled_final/1813_fw.mp4	0.0	175.4117500782013	0.100006103515625
8	151.24915313720703	fix_pre	0		120	6.0	2.5	blank	1.0	175.51175618171692	0.9999380111694336
8	151.4326741695404	pulse	0	t		6.0	2.5	blank	1.0	175.6952772140503	
8	152.24909114837646	movie	1		300	6.0	2.5	blank	1.0	176.51169419288635	2.500131845474243
8	153.0326521396637	pulse	1	t		6.0	2.5	blank	1.0	177.29525518417358	
8	154.6326141357422	pulse	1	t		6.0	2.5	blank	1.0	178.89521718025208	
8	154.7492229938507	fix_post	2		12	6.0	2.5	blank	1.0	179.0118260383606	0.09990906715393066
9	154.84913206100464	fix_pre	0		120	7.0	2.5	/experiments/AOT/AOT_stimuli/rescaled_final/1988_rv.mp4	0.0	179.11173510551453	1.0000360012054443
9	155.84916806221008	movie	1		244	7.0	2.5	/experiments/AOT/AOT_stimuli/rescaled_final/1988_rv.mp4	0.0	180.11177110671997	2.5000839233398438
9	156.23221397399902	pulse	1	t		7.0	2.5	/experiments/AOT/AOT_stimuli/rescaled_final/1988_rv.mp4	0.0	180.4948170185089	
9	157.83263397216797	pulse	1	t		7.0	2.5	/experiments/AOT/AOT_stimuli/rescaled_final/1988_rv.mp4	0.0	182.09523701667786	
9	158.34925198554993	fix_post	2		12	7.0	2.5	/experiments/AOT/AOT_stimuli/rescaled_final/1988_rv.mp4	0.0	182.61185503005981	0.09987807273864746
10	158.44913005828857	fix_pre	0		119	8.0	2.5	/experiments/AOT/AOT_stimuli/rescaled_final/0718_rv.mp4	0.0	182.71173310279846	0.9916160106658936
10	159.43262195587158	pulse	0	t		8.0	2.5	/experiments/AOT/AOT_stimuli/rescaled_final/0718_rv.mp4	0.0	183.69522500038147	
10	159.44074606895447	movie	1		247	8.0	2.5	/experiments/AOT/AOT_stimuli/rescaled_final/0718_rv.mp4	0.0	183.70334911346436	2.50839900970459
10	161.0340940952301	pulse	1	t		8.0	2.5	/experiments/AOT/AOT_stimuli/rescaled_final/0718_rv.mp4	0.0	185.29669713974	
10	161.94914507865906	fix_post	2		12	8.0	2.5	/experiments/AOT/AOT_stimuli/rescaled_final/0718_rv.mp4	0.0	186.21174812316895	0.10000395774841309
11	162.04914903640747	fix_pre	0		120	9.0	2.5	/experiments/AOT/AOT_stimuli/rescaled_final/0829_rv.mp4	0.0	186.31175208091736	0.9999740123748779
11	162.63265800476074	pulse	0	t		9.0	2.5	/experiments/AOT/AOT_stimuli/rescaled_final/0829_rv.mp4	0.0	186.89526104927063	
11	163.04912304878235	movie	1		243	9.0	2.5	/experiments/AOT/AOT_stimuli/rescaled_final/0829_rv.mp4	0.0	187.31172609329224	2.4999189376831055
11	164.2327220439911	pulse	1	t		9.0	2.5	/experiments/AOT/AOT_stimuli/rescaled_final/0829_rv.mp4	0.0	188.49532508850098	
11	165.54904198646545	fix_post	2		12	9.0	2.5	/experiments/AOT/AOT_stimuli/rescaled_final/0829_rv.mp4	0.0	189.81164503097534	0.09998798370361328
12	165.64902997016907	fix_pre	0		120	10.0	2.5	/experiments/AOT/AOT_stimuli/rescaled_final/0121_rv.mp4	0.0	189.91163301467896	1.000068187713623
12	165.83254313468933	pulse	0	t		10.0	2.5	/experiments/AOT/AOT_stimuli/rescaled_final/0121_rv.mp4	0.0	190.09514617919922	
12	166.6490981578827	movie	1		244	10.0	2.5	/experiments/AOT/AOT_stimuli/rescaled_final/0121_rv.mp4	0.0	190.91170120239258	2.4999279975891113
12	167.4325840473175	pulse	1	t		10.0	2.5	/experiments/AOT/AOT_stimuli/rescaled_final/0121_rv.mp4	0.0	191.6951870918274	
12	169.03080201148987	pulse	1	t		10.0	2.5	/experiments/AOT/AOT_stimuli/rescaled_final/0121_rv.mp4	0.0	193.29340505599976	
12	169.1490261554718	fix_post	2		12	10.0	2.5	/experiments/AOT/AOT_stimuli/rescaled_final/0121_rv.mp4	0.0	193.4116291999817	0.10005998611450195
13	169.2490861415863	fix_pre	0		120	11.0	2.5	/experiments/AOT/AOT_stimuli/rescaled_final/0064_rv.mp4	0.0	193.5116891860962	0.9999468326568604
13	170.24903297424316	movie	1		244	11.0	2.5	/experiments/AOT/AOT_stimuli/rescaled_final/0064_rv.mp4	0.0	194.51163601875305	2.4999661445617676
13	170.6322660446167	pulse	1	t		11.0	2.5	/experiments/AOT/AOT_stimuli/rescaled_final/0064_rv.mp4	0.0	194.8948690891266	
13	172.23253297805786	pulse	1	t		11.0	2.5	/experiments/AOT/AOT_stimuli/rescaled_final/0064_rv.mp4	0.0	196.49513602256775	
13	172.74899911880493	fix_post	2		12	11.0	2.5	/experiments/AOT/AOT_stimuli/rescaled_final/0064_rv.mp4	0.0	197.01160216331482	0.10007190704345703
14	172.8490710258484	fix_pre	0		119	12.0	2.5	blank	1.0	197.11167407035828	0.9916889667510986
14	173.83256196975708	pulse	0	t		12.0	2.5	blank	1.0	198.09516501426697	
14	173.8407599925995	movie	1		301	12.0	2.5	blank	1.0	198.10336303710938	2.508319139480591
14	175.43268418312073	pulse	1	t		12.0	2.5	blank	1.0	199.69528722763062	
14	176.34907913208008	fix_post	2		12	12.0	2.5	blank	1.0	200.61168217658997	0.10001301765441895
15	176.4490921497345	fix_pre	0		120	13.0	2.5	/experiments/AOT/AOT_stimuli/rescaled_final/1270_rv.mp4	0.0	200.71169519424438	1.0000200271606445
15	177.0325300693512	pulse	0	t		13.0	2.5	/experiments/AOT/AOT_stimuli/rescaled_final/1270_rv.mp4	0.0	201.29513311386108	
15	177.44911217689514	movie	1		244	13.0	2.5	/experiments/AOT/AOT_stimuli/rescaled_final/1270_rv.mp4	0.0	201.71171522140503	2.500011920928955
15	178.63261699676514	pulse	1	t		13.0	2.5	/experiments/AOT/AOT_stimuli/rescaled_final/1270_rv.mp4	0.0	202.89522004127502	
15	179.9491240978241	fix_post	2		12	13.0	2.5	/experiments/AOT/AOT_stimuli/rescaled_final/1270_rv.mp4	0.0	204.21172714233398	0.09989190101623535
16	180.04901599884033	fix_pre	0		120	14.0	2.5	/experiments/AOT/AOT_stimuli/rescaled_final/1786_rv.mp4	0.0	204.31161904335022	1.0000030994415283
16	180.2325451374054	pulse	0	t		14.0	2.5	/experiments/AOT/AOT_stimuli/rescaled_final/1786_rv.mp4	0.0	204.49514818191528	
16	181.04901909828186	movie	1		244	14.0	2.5	/experiments/AOT/AOT_stimuli/rescaled_final/1786_rv.mp4	0.0	205.31162214279175	2.5000100135803223
16	181.83245396614075	pulse	1	t		14.0	2.5	/experiments/AOT/AOT_stimuli/rescaled_final/1786_rv.mp4	0.0	206.09505701065063	
16	183.43133902549744	pulse	1	t		14.0	2.5	/experiments/AOT/AOT_stimuli/rescaled_final/1786_rv.mp4	0.0	207.69394207000732	
16	183.54902911186218	fix_post	2		12	14.0	2.5	/experiments/AOT/AOT_stimuli/rescaled_final/1786_rv.mp4	0.0	207.81163215637207	0.09996986389160156
17	183.64899897575378	fix_pre	0		120	15.0	2.5	/experiments/AOT/AOT_stimuli/rescaled_final/0947_rv.mp4	0.0	207.91160202026367	1.0000030994415283
17	184.6490020751953	movie	1		244	15.0	2.5	/experiments/AOT/AOT_stimuli/rescaled_final/0947_rv.mp4	0.0	208.9116051197052	2.499969959259033
17	185.03199815750122	pulse	1	t		15.0	2.5	/experiments/AOT/AOT_stimuli/rescaled_final/0947_rv.mp4	0.0	209.2946012020111	
17	186.63233709335327	pulse	1	t		15.0	2.5	/experiments/AOT/AOT_stimuli/rescaled_final/0947_rv.mp4	0.0	210.89494013786316	
17	187.14897203445435	fix_post	2		12	15.0	2.5	/experiments/AOT/AOT_stimuli/rescaled_final/0947_rv.mp4	0.0	211.41157507896423	0.0999751091003418
18	187.2489471435547	fix_pre	0		119	16.0	2.5	/experiments/AOT/AOT_stimuli/rescaled_final/1092_rv.mp4	0.0	211.51155018806458	0.991750955581665
18	188.23251104354858	pulse	0	t		16.0	2.5	/experiments/AOT/AOT_stimuli/rescaled_final/1092_rv.mp4	0.0	212.49511408805847	
18	188.24069809913635	movie	1		244	16.0	2.5	/experiments/AOT/AOT_stimuli/rescaled_final/1092_rv.mp4	0.0	212.50330114364624	2.507943868637085
18	189.8334460258484	pulse	1	t		16.0	2.5	/experiments/AOT/AOT_stimuli/rescaled_final/1092_rv.mp4	0.0	214.09604907035828	
18	190.74864196777344	fix_post	2		12	16.0	2.5	/experiments/AOT/AOT_stimuli/rescaled_final/1092_rv.mp4	0.0	215.01124501228333	0.10000300407409668
19	190.84864497184753	fix_pre	0		120	17.0	2.5	/experiments/AOT/AOT_stimuli/rescaled_final/0184_rv.mp4	0.0	215.11124801635742	1.0005459785461426
19	191.4321801662445	pulse	0	t		17.0	2.5	/experiments/AOT/AOT_stimuli/rescaled_final/0184_rv.mp4	0.0	215.6947832107544	
19	191.84919095039368	movie	1		243	17.0	2.5	/experiments/AOT/AOT_stimuli/rescaled_final/0184_rv.mp4	0.0	216.11179399490356	2.4997801780700684
19	193.0324010848999	pulse	1	t		17.0	2.5	/experiments/AOT/AOT_stimuli/rescaled_final/0184_rv.mp4	0.0	217.2950041294098	
19	194.34897112846375	fix_post	2		12	17.0	2.5	/experiments/AOT/AOT_stimuli/rescaled_final/0184_rv.mp4	0.0	218.61157417297363	0.1000068187713623
20	194.4489779472351	fix_pre	0		120	18.0	2.5	/experiments/AOT/AOT_stimuli/rescaled_final/1962_fw.mp4	0.0	218.711580991745	1.0000081062316895
20	194.6325340270996	pulse	0	t		18.0	2.5	/experiments/AOT/AOT_stimuli/rescaled_final/1962_fw.mp4	0.0	218.8951370716095	
20	195.4489860534668	movie	1		244	18.0	2.5	/experiments/AOT/AOT_stimuli/rescaled_final/1962_fw.mp4	0.0	219.71158909797668	2.499859094619751
20	196.23238801956177	pulse	1	t		18.0	2.5	/experiments/AOT/AOT_stimuli/rescaled_final/1962_fw.mp4	0.0	220.49499106407166	
20	197.82845306396484	pulse	1	t		18.0	2.5	/experiments/AOT/AOT_stimuli/rescaled_final/1962_fw.mp4	0.0	222.09105610847473	
20	197.94884514808655	fix_post	2		12	18.0	2.5	/experiments/AOT/AOT_stimuli/rescaled_final/1962_fw.mp4	0.0	222.21144819259644	0.1000528335571289
21	198.04889798164368	fix_pre	0		120	19.0	2.5	blank	1.0	222.31150102615356	0.9999620914459229
21	199.0488600730896	movie	1		300	19.0	2.5	blank	1.0	223.3114631175995	2.5000340938568115
21	199.43236994743347	pulse	1	t		19.0	2.5	blank	1.0	223.69497299194336	
21	201.03237009048462	pulse	1	t		19.0	2.5	blank	1.0	225.2949731349945	
21	201.5488941669464	fix_post	2		12	19.0	2.5	blank	1.0	225.8114972114563	0.10000801086425781
22	201.64890217781067	fix_pre	0		119	20.0	2.5	/experiments/AOT/AOT_stimuli/rescaled_final/0974_fw.mp4	0.0	225.91150522232056	0.9916398525238037
22	202.63232707977295	pulse	0	t		20.0	2.5	/experiments/AOT/AOT_stimuli/rescaled_final/0974_fw.mp4	0.0	226.89493012428284	
22	202.64054203033447	movie	1		245	20.0	2.5	/experiments/AOT/AOT_stimuli/rescaled_final/0974_fw.mp4	0.0	226.90314507484436	2.508352041244507
22	204.23226594924927	pulse	1	t		20.0	2.5	/experiments/AOT/AOT_stimuli/rescaled_final/0974_fw.mp4	0.0	228.49486899375916	
22	205.14889407157898	fix_post	2		12	20.0	2.5	/experiments/AOT/AOT_stimuli/rescaled_final/0974_fw.mp4	0.0	229.41149711608887	0.10011601448059082
23	205.24901008605957	fix_pre	0		120	21.0	2.5	/experiments/AOT/AOT_stimuli/rescaled_final/1608_rv.mp4	0.0	229.51161313056946	0.9998719692230225
23	205.8323791027069	pulse	0	t		21.0	2.5	/experiments/AOT/AOT_stimuli/rescaled_final/1608_rv.mp4	0.0	230.0949821472168	
23	206.2488820552826	movie	1		244	21.0	2.5	/experiments/AOT/AOT_stimuli/rescaled_final/1608_rv.mp4	0.0	230.51148509979248	2.4999160766601562
23	207.4323160648346	pulse	1	t		21.0	2.5	/experiments/AOT/AOT_stimuli/rescaled_final/1608_rv.mp4	0.0	231.69491910934448	
23	208.74879813194275	fix_post	2		12	21.0	2.5	/experiments/AOT/AOT_stimuli/rescaled_final/1608_rv.mp4	0.0	233.01140117645264	0.10003495216369629
24	208.84883308410645	fix_pre	0		120	22.0	2.5	/experiments/AOT/AOT_stimuli/rescaled_final/1056_rv.mp4	0.0	233.11143612861633	1.0000669956207275
24	209.03234195709229	pulse	0	t		22.0	2.5	/experiments/AOT/AOT_stimuli/rescaled_final/1056_rv.mp4	0.0	233.29494500160217	
24	209.84890007972717	movie	1		243	22.0	2.5	/experiments/AOT/AOT_stimuli/rescaled_final/1056_rv.mp4	0.0	234.11150312423706	2.4999780654907227
24	210.63236498832703	pulse	1	t		22.0	2.5	/experiments/AOT/AOT_stimuli/rescaled_final/1056_rv.mp4	0.0	234.8949680328369	
24	212.23097395896912	pulse	1	t		22.0	2.5	/experiments/AOT/AOT_stimuli/rescaled_final/1056_rv.mp4	0.0	236.493577003479	
24	212.3488781452179	fix_post	2		12	22.0	2.5	/experiments/AOT/AOT_stimuli/rescaled_final/1056_rv.mp4	0.0	236.61148118972778	0.10001683235168457
25	212.44889497756958	fix_pre	0		120	23.0	2.5	/experiments/AOT/AOT_stimuli/rescaled_final/0064_fw.mp4	0.0	236.71149802207947	0.9999310970306396
25	213.44882607460022	movie	1		247	23.0	2.5	/experiments/AOT/AOT_stimuli/rescaled_final/0064_fw.mp4	0.0	237.7114291191101	2.5000360012054443
25	213.83191514015198	pulse	1	t		23.0	2.5	/experiments/AOT/AOT_stimuli/rescaled_final/0064_fw.mp4	0.0	238.09451818466187	
25	215.43233609199524	pulse	1	t		23.0	2.5	/experiments/AOT/AOT_stimuli/rescaled_final/0064_fw.mp4	0.0	239.69493913650513	
25	215.94886207580566	fix_post	2		12	23.0	2.5	/experiments/AOT/AOT_stimuli/rescaled_final/0064_fw.mp4	0.0	240.21146512031555	0.09999608993530273
26	216.04885816574097	fix_pre	0		119	24.0	2.5	/experiments/AOT/AOT_stimuli/rescaled_final/1988_fw.mp4	0.0	240.31146121025085	0.9916048049926758
26	217.03232502937317	pulse	0	t		24.0	2.5	/experiments/AOT/AOT_stimuli/rescaled_final/1988_fw.mp4	0.0	241.29492807388306	
26	217.04046297073364	movie	1		243	24.0	2.5	/experiments/AOT/AOT_stimuli/rescaled_final/1988_fw.mp4	0.0	241.30306601524353	2.50829815864563
26	218.63202810287476	pulse	1	t		24.0	2.5	/experiments/AOT/AOT_stimuli/rescaled_final/1988_fw.mp4	0.0	242.89463114738464	
26	219.54876112937927	fix_post	2		12	24.0	2.5	/experiments/AOT/AOT_stimuli/rescaled_final/1988_fw.mp4	0.0	243.81136417388916	0.10004901885986328
27	219.64881014823914	fix_pre	0		120	25.0	2.5	/experiments/AOT/AOT_stimuli/rescaled_final/0974_rv.mp4	0.0	243.91141319274902	1.0000238418579102
27	220.23233103752136	pulse	0	t		25.0	2.5	/experiments/AOT/AOT_stimuli/rescaled_final/0974_rv.mp4	0.0	244.49493408203125	
27	220.64883399009705	movie	1		245	25.0	2.5	/experiments/AOT/AOT_stimuli/rescaled_final/0974_rv.mp4	0.0	244.91143703460693	2.499998092651367
27	221.83239912986755	pulse	1	t		25.0	2.5	/experiments/AOT/AOT_stimuli/rescaled_final/0974_rv.mp4	0.0	246.09500217437744	
27	223.1488320827484	fix_post	2		12	25.0	2.5	/experiments/AOT/AOT_stimuli/rescaled_final/0974_rv.mp4	0.0	247.4114351272583	0.09999203681945801
28	223.24882411956787	fix_pre	0		120	26.0	2.5	/experiments/AOT/AOT_stimuli/rescaled_final/2014_fw.mp4	0.0	247.51142716407776	1.0000379085540771
28	223.43231296539307	pulse	0	t		26.0	2.5	/experiments/AOT/AOT_stimuli/rescaled_final/2014_fw.mp4	0.0	247.69491600990295	
28	224.24886202812195	movie	1		247	26.0	2.5	/experiments/AOT/AOT_stimuli/rescaled_final/2014_fw.mp4	0.0	248.51146507263184	2.500016927719116
28	225.03228497505188	pulse	1	t		26.0	2.5	/experiments/AOT/AOT_stimuli/rescaled_final/2014_fw.mp4	0.0	249.29488801956177	
28	226.6322181224823	pulse	1	t		26.0	2.5	/experiments/AOT/AOT_stimuli/rescaled_final/2014_fw.mp4	0.0	250.8948211669922	
28	226.74887895584106	fix_post	2		12	26.0	2.5	/experiments/AOT/AOT_stimuli/rescaled_final/2014_fw.mp4	0.0	251.01148200035095	0.09991216659545898
29	226.84879112243652	fix_pre	0		120	27.0	2.5	blank	1.0	251.1113941669464	1.0000948905944824
29	227.848886013031	movie	1		300	27.0	2.5	blank	1.0	252.1114890575409	2.49992299079895
29	228.23229718208313	pulse	1	t		27.0	2.5	blank	1.0	252.49490022659302	
29	229.8322241306305	pulse	1	t		27.0	2.5	blank	1.0	254.09482717514038	
29	230.34880900382996	fix_post	2		12	27.0	2.5	blank	1.0	254.61141204833984	0.09997010231018066
30	230.44877910614014	fix_pre	0		119	28.0	2.5	/experiments/AOT/AOT_stimuli/rescaled_final/2128_rv.mp4	0.0	254.71138215065002	0.9916129112243652
30	231.4322190284729	pulse	0	t		28.0	2.5	/experiments/AOT/AOT_stimuli/rescaled_final/2128_rv.mp4	0.0	255.6948220729828	
30	231.4403920173645	movie	1		245	28.0	2.5	/experiments/AOT/AOT_stimuli/rescaled_final/2128_rv.mp4	0.0	255.7029950618744	2.5083301067352295
30	233.0321340560913	pulse	1	t		28.0	2.5	/experiments/AOT/AOT_stimuli/rescaled_final/2128_rv.mp4	0.0	257.2947371006012	
30	233.94872212409973	fix_post	2		12	28.0	2.5	/experiments/AOT/AOT_stimuli/rescaled_final/2128_rv.mp4	0.0	258.2113251686096	0.09999799728393555
31	234.04872012138367	fix_pre	0		120	29.0	2.5	/experiments/AOT/AOT_stimuli/rescaled_final/2069_rv.mp4	0.0	258.31132316589355	1.0000739097595215
31	234.63227701187134	pulse	0	t		29.0	2.5	/experiments/AOT/AOT_stimuli/rescaled_final/2069_rv.mp4	0.0	258.8948800563812	
31	235.0487940311432	movie	1		244	29.0	2.5	/experiments/AOT/AOT_stimuli/rescaled_final/2069_rv.mp4	0.0	259.3113970756531	2.500044107437134
31	236.2323019504547	pulse	1	t		29.0	2.5	/experiments/AOT/AOT_stimuli/rescaled_final/2069_rv.mp4	0.0	260.4949049949646	
31	237.54883813858032	fix_post	2		12	29.0	2.5	/experiments/AOT/AOT_stimuli/rescaled_final/2069_rv.mp4	0.0	261.8114411830902	0.09986591339111328
32	237.64870405197144	fix_pre	0		120	30.0	2.5	/experiments/AOT/AOT_stimuli/rescaled_final/1739_rv.mp4	0.0	261.9113070964813	1.0000450611114502
32	237.83221411705017	pulse	0	t		30.0	2.5	/experiments/AOT/AOT_stimuli/rescaled_final/1739_rv.mp4	0.0	262.09481716156006	
32	238.64874911308289	movie	1		242	30.0	2.5	/experiments/AOT/AOT_stimuli/rescaled_final/1739_rv.mp4	0.0	262.9113521575928	2.4999828338623047
32	239.43220615386963	pulse	1	t		30.0	2.5	/experiments/AOT/AOT_stimuli/rescaled_final/1739_rv.mp4	0.0	263.6948091983795	
32	241.03057098388672	pulse	1	t		30.0	2.5	/experiments/AOT/AOT_stimuli/rescaled_final/1739_rv.mp4	0.0	265.2931740283966	
32	241.1487319469452	fix_post	2		12	30.0	2.5	/experiments/AOT/AOT_stimuli/rescaled_final/1739_rv.mp4	0.0	265.4113349914551	0.09998512268066406
33	241.24871706962585	fix_pre	0		120	31.0	2.5	/experiments/AOT/AOT_stimuli/rescaled_final/0096_rv.mp4	0.0	265.51132011413574	0.9999759197235107
33	242.24869298934937	movie	1		244	31.0	2.5	/experiments/AOT/AOT_stimuli/rescaled_final/0096_rv.mp4	0.0	266.51129603385925	2.499946117401123
33	242.63329410552979	pulse	1	t		31.0	2.5	/experiments/AOT/AOT_stimuli/rescaled_final/0096_rv.mp4	0.0	266.8958971500397	
33	244.23236107826233	pulse	1	t		31.0	2.5	/experiments/AOT/AOT_stimuli/rescaled_final/0096_rv.mp4	0.0	268.4949641227722	
33	244.7486391067505	fix_post	2		12	31.0	2.5	/experiments/AOT/AOT_stimuli/rescaled_final/0096_rv.mp4	0.0	269.0112421512604	0.10010194778442383
34	244.8487410545349	fix_pre	0		119	32.0	2.5	/experiments/AOT/AOT_stimuli/rescaled_final/0876_fw.mp4	0.0	269.1113440990448	0.9915990829467773
34	245.83175206184387	pulse	0	t		32.0	2.5	/experiments/AOT/AOT_stimuli/rescaled_final/0876_fw.mp4	0.0	270.09435510635376	
34	245.8403401374817	movie	1		245	32.0	2.5	/experiments/AOT/AOT_stimuli/rescaled_final/0876_fw.mp4	0.0	270.1029431819916	2.508669853210449
34	247.433345079422	pulse	1	t		32.0	2.5	/experiments/AOT/AOT_stimuli/rescaled_final/0876_fw.mp4	0.0	271.6959481239319	
34	248.34900999069214	fix_post	2		12	32.0	2.5	/experiments/AOT/AOT_stimuli/rescaled_final/0876_fw.mp4	0.0	272.611613035202	0.10004997253417969
35	248.44905996322632	fix_pre	0		120	33.0	2.5	blank	1.0	272.7116630077362	0.9996871948242188
35	249.0322630405426	pulse	0	t		33.0	2.5	blank	1.0	273.2948660850525	
35	249.44874715805054	movie	1		300	33.0	2.5	blank	1.0	273.7113502025604	2.4998779296875
35	250.63221907615662	pulse	1	t		33.0	2.5	blank	1.0	274.8948221206665	
35	251.94862508773804	fix_post	2		12	33.0	2.5	blank	1.0	276.2112281322479	0.1000359058380127
36	252.04866099357605	fix_pre	0		120	34.0	2.5	/experiments/AOT/AOT_stimuli/rescaled_final/1865_rv.mp4	0.0	276.31126403808594	0.9999871253967285
36	252.23218512535095	pulse	0	t		34.0	2.5	/experiments/AOT/AOT_stimuli/rescaled_final/1865_rv.mp4	0.0	276.49478816986084	
36	253.04864811897278	movie	1		243	34.0	2.5	/experiments/AOT/AOT_stimuli/rescaled_final/1865_rv.mp4	0.0	277.31125116348267	2.4999759197235107
36	253.83200812339783	pulse	1	t		34.0	2.5	/experiments/AOT/AOT_stimuli/rescaled_final/1865_rv.mp4	0.0	278.0946111679077	
36	255.43045711517334	pulse	1	t		34.0	2.5	/experiments/AOT/AOT_stimuli/rescaled_final/1865_rv.mp4	0.0	279.6930601596832	
36	255.5486240386963	fix_post	2		12	34.0	2.5	/experiments/AOT/AOT_stimuli/rescaled_final/1865_rv.mp4	0.0	279.8112270832062	0.09995293617248535
37	255.64857697486877	fix_pre	0		120	35.0	2.5	/experiments/AOT/AOT_stimuli/rescaled_final/1037_rv.mp4	0.0	279.91118001937866	1.000089168548584
37	256.64866614341736	movie	1		244	35.0	2.5	/experiments/AOT/AOT_stimuli/rescaled_final/1037_rv.mp4	0.0	280.91126918792725	2.4999098777770996
37	257.0321669578552	pulse	1	t		35.0	2.5	/experiments/AOT/AOT_stimuli/rescaled_final/1037_rv.mp4	0.0	281.2947700023651	
37	258.63200306892395	pulse	1	t		35.0	2.5	/experiments/AOT/AOT_stimuli/rescaled_final/1037_rv.mp4	0.0	282.89460611343384	
37	259.14857602119446	fix_post	2		12	35.0	2.5	/experiments/AOT/AOT_stimuli/rescaled_final/1037_rv.mp4	0.0	283.41117906570435	0.09997415542602539
38	259.2485501766205	fix_pre	0		119	36.0	2.5	/experiments/AOT/AOT_stimuli/rescaled_final/1670_rv.mp4	0.0	283.51115322113037	0.9916679859161377
38	260.23204612731934	pulse	0	t		36.0	2.5	/experiments/AOT/AOT_stimuli/rescaled_final/1670_rv.mp4	0.0	284.4946491718292	
38	260.2402181625366	movie	1		245	36.0	2.5	/experiments/AOT/AOT_stimuli/rescaled_final/1670_rv.mp4	0.0	284.5028212070465	2.508474826812744
38	261.831668138504	pulse	1	t		36.0	2.5	/experiments/AOT/AOT_stimuli/rescaled_final/1670_rv.mp4	0.0	286.0942711830139	
38	262.74869298934937	fix_post	2		12	36.0	2.5	/experiments/AOT/AOT_stimuli/rescaled_final/1670_rv.mp4	0.0	287.01129603385925	0.09993100166320801
39	262.8486239910126	fix_pre	0		120	37.0	2.5	/experiments/AOT/AOT_stimuli/rescaled_final/0596_fw.mp4	0.0	287.11122703552246	0.9999129772186279
39	263.43202900886536	pulse	0	t		37.0	2.5	/experiments/AOT/AOT_stimuli/rescaled_final/0596_fw.mp4	0.0	287.69463205337524	
39	263.8485369682312	movie	1		245	37.0	2.5	/experiments/AOT/AOT_stimuli/rescaled_final/0596_fw.mp4	0.0	288.1111400127411	2.500025987625122
39	265.0321741104126	pulse	1	t		37.0	2.5	/experiments/AOT/AOT_stimuli/rescaled_final/0596_fw.mp4	0.0	289.2947771549225	
39	266.3485629558563	fix_post	2		12	37.0	2.5	/experiments/AOT/AOT_stimuli/rescaled_final/0596_fw.mp4	0.0	290.6111660003662	0.10002613067626953
40	266.4485890865326	fix_pre	0		120	38.0	2.5	/experiments/AOT/AOT_stimuli/rescaled_final/2026_fw.mp4	0.0	290.7111921310425	0.9999420642852783
40	266.63204407691956	pulse	0	t		38.0	2.5	/experiments/AOT/AOT_stimuli/rescaled_final/2026_fw.mp4	0.0	290.89464712142944	
40	267.44853115081787	movie	1		244	38.0	2.5	/experiments/AOT/AOT_stimuli/rescaled_final/2026_fw.mp4	0.0	291.71113419532776	2.500128984451294
40	268.2320730686188	pulse	1	t		38.0	2.5	/experiments/AOT/AOT_stimuli/rescaled_final/2026_fw.mp4	0.0	292.49467611312866	
40	269.8305389881134	pulse	1	t		38.0	2.5	/experiments/AOT/AOT_stimuli/rescaled_final/2026_fw.mp4	0.0	294.0931420326233	
40	269.94866013526917	fix_post	2		12	38.0	2.5	/experiments/AOT/AOT_stimuli/rescaled_final/2026_fw.mp4	0.0	294.21126317977905	0.09988284111022949
41	270.0485429763794	fix_pre	0		120	39.0	2.5	/experiments/AOT/AOT_stimuli/rescaled_final/1670_fw.mp4	0.0	294.3111460208893	1.0000011920928955
41	271.0485441684723	movie	1		246	39.0	2.5	/experiments/AOT/AOT_stimuli/rescaled_final/1670_fw.mp4	0.0	295.3111472129822	2.5000507831573486
41	271.431538105011	pulse	1	t		39.0	2.5	/experiments/AOT/AOT_stimuli/rescaled_final/1670_fw.mp4	0.0	295.6941411495209	
41	273.0319950580597	pulse	1	t		39.0	2.5	/experiments/AOT/AOT_stimuli/rescaled_final/1670_fw.mp4	0.0	297.2945981025696	
41	273.54859495162964	fix_post	2		12	39.0	2.5	/experiments/AOT/AOT_stimuli/rescaled_final/1670_fw.mp4	0.0	297.8111979961395	0.09994721412658691
42	273.6485421657562	fix_pre	0		119	40.0	2.5	/experiments/AOT/AOT_stimuli/rescaled_final/1704_rv.mp4	0.0	297.9111452102661	0.991663932800293
42	274.6319999694824	pulse	0	t		40.0	2.5	/experiments/AOT/AOT_stimuli/rescaled_final/1704_rv.mp4	0.0	298.8946030139923	
42	274.6402060985565	movie	1		245	40.0	2.5	/experiments/AOT/AOT_stimuli/rescaled_final/1704_rv.mp4	0.0	298.9028091430664	2.5083820819854736
42	276.23189997673035	pulse	1	t		40.0	2.5	/experiments/AOT/AOT_stimuli/rescaled_final/1704_rv.mp4	0.0	300.49450302124023	
42	277.148588180542	fix_post	2		12	40.0	2.5	/experiments/AOT/AOT_stimuli/rescaled_final/1704_rv.mp4	0.0	301.4111912250519	0.09993577003479004
43	277.2485239505768	fix_pre	0		120	41.0	2.5	blank	1.0	301.51112699508667	1.0000691413879395
43	277.8321280479431	pulse	0	t		41.0	2.5	blank	1.0	302.094731092453	
43	278.2485930919647	movie	1		300	41.0	2.5	blank	1.0	302.5111961364746	2.499922037124634
43	279.43201518058777	pulse	1	t		41.0	2.5	blank	1.0	303.69461822509766	
43	280.74851512908936	fix_post	2		12	41.0	2.5	blank	1.0	305.01111817359924	0.09997200965881348
44	280.84848713874817	fix_pre	0		120	42.0	2.5	/experiments/AOT/AOT_stimuli/rescaled_final/1646_rv.mp4	0.0	305.11109018325806	0.9999759197235107
44	281.03203105926514	pulse	0	t		42.0	2.5	/experiments/AOT/AOT_stimuli/rescaled_final/1646_rv.mp4	0.0	305.294634103775	
44	281.8484630584717	movie	1		243	42.0	2.5	/experiments/AOT/AOT_stimuli/rescaled_final/1646_rv.mp4	0.0	306.11106610298157	2.500062942504883
44	282.6320130825043	pulse	1	t		42.0	2.5	/experiments/AOT/AOT_stimuli/rescaled_final/1646_rv.mp4	0.0	306.89461612701416	
44	284.23020005226135	pulse	1	t		42.0	2.5	/experiments/AOT/AOT_stimuli/rescaled_final/1646_rv.mp4	0.0	308.49280309677124	
44	284.34852600097656	fix_post	2		12	42.0	2.5	/experiments/AOT/AOT_stimuli/rescaled_final/1646_rv.mp4	0.0	308.61112904548645	0.10002017021179199
45	284.44854617118835	fix_pre	0		120	43.0	2.5	/experiments/AOT/AOT_stimuli/rescaled_final/2022_fw.mp4	0.0	308.71114921569824	0.9999868869781494
45	285.4485330581665	movie	1		246	43.0	2.5	/experiments/AOT/AOT_stimuli/rescaled_final/2022_fw.mp4	0.0	309.7111361026764	2.5005319118499756
45	285.8320779800415	pulse	1	t		43.0	2.5	/experiments/AOT/AOT_stimuli/rescaled_final/2022_fw.mp4	0.0	310.0946810245514	
45	287.43199014663696	pulse	1	t		43.0	2.5	/experiments/AOT/AOT_stimuli/rescaled_final/2022_fw.mp4	0.0	311.69459319114685	
45	287.9490649700165	fix_post	2		12	43.0	2.5	/experiments/AOT/AOT_stimuli/rescaled_final/2022_fw.mp4	0.0	312.21166801452637	0.0994720458984375
46	288.0485370159149	fix_pre	0		119	44.0	2.5	/experiments/AOT/AOT_stimuli/rescaled_final/0191_rv.mp4	0.0	312.3111400604248	0.9915280342102051
46	289.0319781303406	pulse	0	t		44.0	2.5	/experiments/AOT/AOT_stimuli/rescaled_final/0191_rv.mp4	0.0	313.29458117485046	
46	289.0400650501251	movie	1		246	44.0	2.5	/experiments/AOT/AOT_stimuli/rescaled_final/0191_rv.mp4	0.0	313.302668094635	2.5084280967712402
46	290.63174510002136	pulse	1	t		44.0	2.5	/experiments/AOT/AOT_stimuli/rescaled_final/0191_rv.mp4	0.0	314.89434814453125	
46	291.54849314689636	fix_post	2		12	44.0	2.5	/experiments/AOT/AOT_stimuli/rescaled_final/0191_rv.mp4	0.0	315.81109619140625	0.09990096092224121
47	291.6483941078186	fix_pre	0		120	45.0	2.5	/experiments/AOT/AOT_stimuli/rescaled_final/2022_rv.mp4	0.0	315.9109971523285	1.000011920928955
47	292.23201417922974	pulse	0	t		45.0	2.5	/experiments/AOT/AOT_stimuli/rescaled_final/2022_rv.mp4	0.0	316.4946172237396	
47	292.64840602874756	movie	1		244	45.0	2.5	/experiments/AOT/AOT_stimuli/rescaled_final/2022_rv.mp4	0.0	316.91100907325745	2.5001840591430664
47	293.83200097084045	pulse	1	t		45.0	2.5	/experiments/AOT/AOT_stimuli/rescaled_final/2022_rv.mp4	0.0	318.09460401535034	
47	295.1485900878906	fix_post	2		12	45.0	2.5	/experiments/AOT/AOT_stimuli/rescaled_final/2022_rv.mp4	0.0	319.4111931324005	0.09987688064575195
48	295.2484669685364	fix_pre	0		120	46.0	2.5	/experiments/AOT/AOT_stimuli/rescaled_final/0346_fw.mp4	0.0	319.51107001304626	1.0000431537628174
48	295.4319679737091	pulse	0	t		46.0	2.5	/experiments/AOT/AOT_stimuli/rescaled_final/0346_fw.mp4	0.0	319.694571018219	
48	296.2485101222992	movie	1		244	46.0	2.5	/experiments/AOT/AOT_stimuli/rescaled_final/0346_fw.mp4	0.0	320.5111131668091	2.4998109340667725
48	297.03197407722473	pulse	1	t		46.0	2.5	/experiments/AOT/AOT_stimuli/rescaled_final/0346_fw.mp4	0.0	321.2945771217346	
48	298.6303880214691	pulse	1	t		46.0	2.5	/experiments/AOT/AOT_stimuli/rescaled_final/0346_fw.mp4	0.0	322.892991065979	
48	298.74832105636597	fix_post	2		12	46.0	2.5	/experiments/AOT/AOT_stimuli/rescaled_final/0346_fw.mp4	0.0	323.01092410087585	0.10003900527954102
49	298.8483600616455	fix_pre	0		120	47.0	2.5	/experiments/AOT/AOT_stimuli/rescaled_final/1232_fw.mp4	0.0	323.1109631061554	1.000032901763916
49	299.8483929634094	movie	1		246	47.0	2.5	/experiments/AOT/AOT_stimuli/rescaled_final/1232_fw.mp4	0.0	324.1109960079193	2.4998741149902344
49	300.23186707496643	pulse	1	t		47.0	2.5	/experiments/AOT/AOT_stimuli/rescaled_final/1232_fw.mp4	0.0	324.4944701194763	
49	301.8315200805664	pulse	1	t		47.0	2.5	/experiments/AOT/AOT_stimuli/rescaled_final/1232_fw.mp4	0.0	326.0941231250763	
49	302.34826707839966	fix_post	2		12	47.0	2.5	/experiments/AOT/AOT_stimuli/rescaled_final/1232_fw.mp4	0.0	326.61087012290955	0.0997469425201416
50	302.4480140209198	fix_pre	0		119	48.0	2.5	/experiments/AOT/AOT_stimuli/rescaled_final/1232_rv.mp4	0.0	326.7106170654297	0.9918560981750488
50	303.4316921234131	pulse	0	t		48.0	2.5	/experiments/AOT/AOT_stimuli/rescaled_final/1232_rv.mp4	0.0	327.694295167923	
50	303.43987011909485	movie	1		246	48.0	2.5	/experiments/AOT/AOT_stimuli/rescaled_final/1232_rv.mp4	0.0	327.70247316360474	2.5085299015045166
50	305.03145813941956	pulse	1	t		48.0	2.5	/experiments/AOT/AOT_stimuli/rescaled_final/1232_rv.mp4	0.0	329.29406118392944	
50	305.94840002059937	fix_post	2		12	48.0	2.5	/experiments/AOT/AOT_stimuli/rescaled_final/1232_rv.mp4	0.0	330.21100306510925	0.1001739501953125
51	306.0485739707947	fix_pre	0		120	49.0	2.5	blank	1.0	330.31117701530457	0.9997930526733398
51	306.6318349838257	pulse	0	t		49.0	2.5	blank	1.0	330.89443802833557	
51	307.048367023468	movie	1		300	49.0	2.5	blank	1.0	331.3109700679779	2.4999821186065674
51	308.23185300827026	pulse	1	t		49.0	2.5	blank	1.0	332.49445605278015	
51	309.5483491420746	fix_post	2		12	49.0	2.5	blank	1.0	333.8109521865845	0.09996485710144043
52	309.648313999176	fix_pre	0		120	50.0	2.5	/experiments/AOT/AOT_stimuli/rescaled_final/0742_rv.mp4	0.0	333.9109170436859	0.9999711513519287
52	309.8318281173706	pulse	0	t		50.0	2.5	/experiments/AOT/AOT_stimuli/rescaled_final/0742_rv.mp4	0.0	334.0944311618805	
52	310.64828515052795	movie	1		244	50.0	2.5	/experiments/AOT/AOT_stimuli/rescaled_final/0742_rv.mp4	0.0	334.91088819503784	2.5000369548797607
52	311.4318721294403	pulse	1	t		50.0	2.5	/experiments/AOT/AOT_stimuli/rescaled_final/0742_rv.mp4	0.0	335.6944751739502	
52	313.0302269458771	pulse	1	t		50.0	2.5	/experiments/AOT/AOT_stimuli/rescaled_final/0742_rv.mp4	0.0	337.29282999038696	
52	313.1483221054077	fix_post	2		12	50.0	2.5	/experiments/AOT/AOT_stimuli/rescaled_final/0742_rv.mp4	0.0	337.4109251499176	0.10000300407409668
53	313.2483251094818	fix_pre	0		120	51.0	2.5	/experiments/AOT/AOT_stimuli/rescaled_final/0471_rv.mp4	0.0	337.5109281539917	0.9999830722808838
53	314.2483081817627	movie	1		245	51.0	2.5	/experiments/AOT/AOT_stimuli/rescaled_final/0471_rv.mp4	0.0	338.5109112262726	2.4999799728393555
53	314.63157510757446	pulse	1	t		51.0	2.5	/experiments/AOT/AOT_stimuli/rescaled_final/0471_rv.mp4	0.0	338.89417815208435	
53	316.23190999031067	pulse	1	t		51.0	2.5	/experiments/AOT/AOT_stimuli/rescaled_final/0471_rv.mp4	0.0	340.49451303482056	
53	316.74828815460205	fix_post	2		12	51.0	2.5	/experiments/AOT/AOT_stimuli/rescaled_final/0471_rv.mp4	0.0	341.01089119911194	0.1000068187713623
54	316.8482949733734	fix_pre	0		119	52.0	2.5	/experiments/AOT/AOT_stimuli/rescaled_final/0904_rv.mp4	0.0	341.1108980178833	0.991703987121582
54	317.8318541049957	pulse	0	t		52.0	2.5	/experiments/AOT/AOT_stimuli/rescaled_final/0904_rv.mp4	0.0	342.0944571495056	
54	317.839998960495	movie	1		247	52.0	2.5	/experiments/AOT/AOT_stimuli/rescaled_final/0904_rv.mp4	0.0	342.1026020050049	2.5082881450653076
54	319.4312529563904	pulse	1	t		52.0	2.5	/experiments/AOT/AOT_stimuli/rescaled_final/0904_rv.mp4	0.0	343.69385600090027	
54	320.3482871055603	fix_post	2		12	52.0	2.5	/experiments/AOT/AOT_stimuli/rescaled_final/0904_rv.mp4	0.0	344.6108901500702	0.0999288558959961
55	320.4482159614563	fix_pre	0		120	53.0	2.5	/experiments/AOT/AOT_stimuli/rescaled_final/1469_fw.mp4	0.0	344.7108190059662	1.0000619888305664
55	321.0318579673767	pulse	0	t		53.0	2.5	/experiments/AOT/AOT_stimuli/rescaled_final/1469_fw.mp4	0.0	345.2944610118866	
55	321.44827795028687	movie	1		243	53.0	2.5	/experiments/AOT/AOT_stimuli/rescaled_final/1469_fw.mp4	0.0	345.71088099479675	2.4999630451202393
55	322.63192200660706	pulse	1	t		53.0	2.5	/experiments/AOT/AOT_stimuli/rescaled_final/1469_fw.mp4	0.0	346.89452505111694	
55	323.9482409954071	fix_post	2		12	53.0	2.5	/experiments/AOT/AOT_stimuli/rescaled_final/1469_fw.mp4	0.0	348.210844039917	0.10000205039978027
56	324.0482430458069	fix_pre	0		120	54.0	2.5	/experiments/AOT/AOT_stimuli/rescaled_final/1825_fw.mp4	0.0	348.3108460903168	0.9999830722808838
56	324.23187804222107	pulse	0	t		54.0	2.5	/experiments/AOT/AOT_stimuli/rescaled_final/1825_fw.mp4	0.0	348.49448108673096	
56	325.04822611808777	movie	1		243	54.0	2.5	/experiments/AOT/AOT_stimuli/rescaled_final/1825_fw.mp4	0.0	349.31082916259766	2.5001070499420166
56	325.8317720890045	pulse	1	t		54.0	2.5	/experiments/AOT/AOT_stimuli/rescaled_final/1825_fw.mp4	0.0	350.0943751335144	
56	327.43018198013306	pulse	1	t		54.0	2.5	/experiments/AOT/AOT_stimuli/rescaled_final/1825_fw.mp4	0.0	351.69278502464294	
56	327.5483331680298	fix_post	2		12	54.0	2.5	/experiments/AOT/AOT_stimuli/rescaled_final/1825_fw.mp4	0.0	351.8109362125397	0.09995079040527344
57	327.64828395843506	fix_pre	0		120	55.0	2.5	blank	1.0	351.91088700294495	0.9999639987945557
57	328.6482479572296	movie	1		300	55.0	2.5	blank	1.0	352.9108510017395	2.5
57	329.0317950248718	pulse	1	t		55.0	2.5	blank	1.0	353.2943980693817	
57	330.6316349506378	pulse	1	t		55.0	2.5	blank	1.0	354.8942379951477	
57	331.1482479572296	fix_post	2		12	55.0	2.5	blank	1.0	355.4108510017395	0.09994816780090332
58	331.2481961250305	fix_pre	0		119	56.0	2.5	/experiments/AOT/AOT_stimuli/rescaled_final/1893_rv.mp4	0.0	355.5107991695404	0.9917030334472656
58	332.2316851615906	pulse	0	t		56.0	2.5	/experiments/AOT/AOT_stimuli/rescaled_final/1893_rv.mp4	0.0	356.49428820610046	
58	332.2398991584778	movie	1		246	56.0	2.5	/experiments/AOT/AOT_stimuli/rescaled_final/1893_rv.mp4	0.0	356.50250220298767	2.5084099769592285
58	333.831787109375	pulse	1	t		56.0	2.5	/experiments/AOT/AOT_stimuli/rescaled_final/1893_rv.mp4	0.0	358.0943901538849	
58	334.748309135437	fix_post	2		12	56.0	2.5	/experiments/AOT/AOT_stimuli/rescaled_final/1893_rv.mp4	0.0	359.0109121799469	0.09998583793640137
59	334.8482949733734	fix_pre	0		120	57.0	2.5	/experiments/AOT/AOT_stimuli/rescaled_final/0049_rv.mp4	0.0	359.1108980178833	0.9999101161956787
59	335.43180108070374	pulse	0	t		57.0	2.5	/experiments/AOT/AOT_stimuli/rescaled_final/0049_rv.mp4	0.0	359.6944041252136	
59	335.8482050895691	movie	1		245	57.0	2.5	/experiments/AOT/AOT_stimuli/rescaled_final/0049_rv.mp4	0.0	360.110808134079	2.5000319480895996
59	337.03177404403687	pulse	1	t		57.0	2.5	/experiments/AOT/AOT_stimuli/rescaled_final/0049_rv.mp4	0.0	361.29437708854675	
59	338.3482370376587	fix_post	2		12	57.0	2.5	/experiments/AOT/AOT_stimuli/rescaled_final/0049_rv.mp4	0.0	362.6108400821686	0.09993290901184082
60	338.44816994667053	fix_pre	0		120	58.0	2.5	/experiments/AOT/AOT_stimuli/rescaled_final/1973_rv.mp4	0.0	362.7107729911804	1.0000882148742676
60	338.631649017334	pulse	0	t		58.0	2.5	/experiments/AOT/AOT_stimuli/rescaled_final/1973_rv.mp4	0.0	362.8942520618439	
60	339.4482581615448	movie	1		246	58.0	2.5	/experiments/AOT/AOT_stimuli/rescaled_final/1973_rv.mp4	0.0	363.7108612060547	2.499835968017578
60	340.2317039966583	pulse	1	t		58.0	2.5	/experiments/AOT/AOT_stimuli/rescaled_final/1973_rv.mp4	0.0	364.4943070411682	
60	341.83029198646545	pulse	1	t		58.0	2.5	/experiments/AOT/AOT_stimuli/rescaled_final/1973_rv.mp4	0.0	366.09289503097534	
60	341.9480941295624	fix_post	2		12	58.0	2.5	/experiments/AOT/AOT_stimuli/rescaled_final/1973_rv.mp4	0.0	366.21069717407227	0.10006284713745117
61	342.04815697669983	fix_pre	0		120	59.0	2.5	/experiments/AOT/AOT_stimuli/rescaled_final/0713_rv.mp4	0.0	366.3107600212097	1.0000030994415283
61	343.04816007614136	movie	1		246	59.0	2.5	/experiments/AOT/AOT_stimuli/rescaled_final/0713_rv.mp4	0.0	367.31076312065125	2.4999709129333496
61	343.4319190979004	pulse	1	t		59.0	2.5	/experiments/AOT/AOT_stimuli/rescaled_final/0713_rv.mp4	0.0	367.6945221424103	
61	345.03168296813965	pulse	1	t		59.0	2.5	/experiments/AOT/AOT_stimuli/rescaled_final/0713_rv.mp4	0.0	369.29428601264954	
61	345.5481309890747	fix_post	2		12	59.0	2.5	/experiments/AOT/AOT_stimuli/rescaled_final/0713_rv.mp4	0.0	369.8107340335846	0.10006904602050781
62	345.6482000350952	fix_pre	0		119	60.0	2.5	/experiments/AOT/AOT_stimuli/rescaled_final/1270_fw.mp4	0.0	369.9108030796051	0.9916229248046875
62	346.6316571235657	pulse	0	t		60.0	2.5	/experiments/AOT/AOT_stimuli/rescaled_final/1270_fw.mp4	0.0	370.89426016807556	
62	346.6398229598999	movie	1		246	60.0	2.5	/experiments/AOT/AOT_stimuli/rescaled_final/1270_fw.mp4	0.0	370.9024260044098	2.5083401203155518
62	348.2314350605011	pulse	1	t		60.0	2.5	/experiments/AOT/AOT_stimuli/rescaled_final/1270_fw.mp4	0.0	372.494038105011	
62	349.14816308021545	fix_post	2		12	60.0	2.5	/experiments/AOT/AOT_stimuli/rescaled_final/1270_fw.mp4	0.0	373.41076612472534	0.10003089904785156
63	349.2481939792633	fix_pre	0		120	61.0	2.5	blank	1.0	373.5107970237732	0.9999041557312012
63	349.83173418045044	pulse	0	t		61.0	2.5	blank	1.0	374.0943372249603	
63	350.2480981349945	movie	1		300	61.0	2.5	blank	1.0	374.5107011795044	2.500092029571533
63	351.43174600601196	pulse	1	t		61.0	2.5	blank	1.0	375.69434905052185	
63	352.74819016456604	fix_post	2		12	61.0	2.5	blank	1.0	377.0107932090759	0.0999298095703125
64	352.84811997413635	fix_pre	0		120	62.0	2.5	/experiments/AOT/AOT_stimuli/rescaled_final/0458_rv.mp4	0.0	377.11072301864624	1.0001070499420166
64	353.031613111496	pulse	0	t		62.0	2.5	/experiments/AOT/AOT_stimuli/rescaled_final/0458_rv.mp4	0.0	377.29421615600586	
64	353.84822702407837	movie	1		244	62.0	2.5	/experiments/AOT/AOT_stimuli/rescaled_final/0458_rv.mp4	0.0	378.11083006858826	2.4999160766601562
64	354.63165307044983	pulse	1	t		62.0	2.5	/experiments/AOT/AOT_stimuli/rescaled_final/0458_rv.mp4	0.0	378.8942561149597	
64	356.230033159256	pulse	1	t		62.0	2.5	/experiments/AOT/AOT_stimuli/rescaled_final/0458_rv.mp4	0.0	380.49263620376587	
64	356.3481431007385	fix_post	2		12	62.0	2.5	/experiments/AOT/AOT_stimuli/rescaled_final/0458_rv.mp4	0.0	380.6107461452484	0.1004190444946289
65	356.44856214523315	fix_pre	0		120	63.0	2.5	/experiments/AOT/AOT_stimuli/rescaled_final/0324_rv.mp4	0.0	380.71116518974304	0.9991238117218018
65	357.44768595695496	movie	1		244	63.0	2.5	/experiments/AOT/AOT_stimuli/rescaled_final/0324_rv.mp4	0.0	381.71028900146484	2.500756025314331
65	357.8322379589081	pulse	1	t		63.0	2.5	/experiments/AOT/AOT_stimuli/rescaled_final/0324_rv.mp4	0.0	382.09484100341797	
65	359.4317331314087	pulse	1	t		63.0	2.5	/experiments/AOT/AOT_stimuli/rescaled_final/0324_rv.mp4	0.0	383.6943361759186	
65	359.9484419822693	fix_post	2		12	63.0	2.5	/experiments/AOT/AOT_stimuli/rescaled_final/0324_rv.mp4	0.0	384.2110450267792	0.09996700286865234
66	360.04840898513794	fix_pre	0		119	64.0	2.5	/experiments/AOT/AOT_stimuli/rescaled_final/1163_fw.mp4	0.0	384.3110120296478	0.9914510250091553
66	361.0316741466522	pulse	0	t		64.0	2.5	/experiments/AOT/AOT_stimuli/rescaled_final/1163_fw.mp4	0.0	385.2942771911621	
66	361.0398600101471	movie	1		246	64.0	2.5	/experiments/AOT/AOT_stimuli/rescaled_final/1163_fw.mp4	0.0	385.302463054657	2.508258104324341
66	362.63120007514954	pulse	1	t		64.0	2.5	/experiments/AOT/AOT_stimuli/rescaled_final/1163_fw.mp4	0.0	386.8938031196594	
66	363.54811811447144	fix_post	2		12	64.0	2.5	/experiments/AOT/AOT_stimuli/rescaled_final/1163_fw.mp4	0.0	387.8107211589813	0.1000070571899414
67	363.6481251716614	fix_pre	0		120	65.0	2.5	/experiments/AOT/AOT_stimuli/rescaled_final/0742_rv.mp4	0.0	387.91072821617126	1.0000529289245605
67	364.2315800189972	pulse	0	t		65.0	2.5	/experiments/AOT/AOT_stimuli/rescaled_final/0742_rv.mp4	0.0	388.4941830635071	
67	364.64817810058594	movie	1		244	65.0	2.5	/experiments/AOT/AOT_stimuli/rescaled_final/0742_rv.mp4	0.0	388.9107811450958	2.4999139308929443
67	365.83167600631714	pulse	1	t		65.0	2.5	/experiments/AOT/AOT_stimuli/rescaled_final/0742_rv.mp4	0.0	390.094279050827	
67	367.1480920314789	fix_post	2		12	65.0	2.5	/experiments/AOT/AOT_stimuli/rescaled_final/0742_rv.mp4	0.0	391.41069507598877	0.09990906715393066
68	367.2480010986328	fix_pre	0		120	66.0	2.5	/experiments/AOT/AOT_stimuli/rescaled_final/1306_rv.mp4	0.0	391.5106041431427	0.9999949932098389
68	367.4315390586853	pulse	0	t		66.0	2.5	/experiments/AOT/AOT_stimuli/rescaled_final/1306_rv.mp4	0.0	391.6941421031952	
68	368.24799609184265	movie	1		244	66.0	2.5	/experiments/AOT/AOT_stimuli/rescaled_final/1306_rv.mp4	0.0	392.51059913635254	2.500056028366089
68	369.03152799606323	pulse	1	t		66.0	2.5	/experiments/AOT/AOT_stimuli/rescaled_final/1306_rv.mp4	0.0	393.2941310405731	
68	370.63023710250854	pulse	1	t		66.0	2.5	/experiments/AOT/AOT_stimuli/rescaled_final/1306_rv.mp4	0.0	394.89284014701843	
68	370.74805212020874	fix_post	2		12	66.0	2.5	/experiments/AOT/AOT_stimuli/rescaled_final/1306_rv.mp4	0.0	395.0106551647186	0.10002398490905762
69	370.8480761051178	fix_pre	0		120	67.0	2.5	/experiments/AOT/AOT_stimuli/rescaled_final/1319_fw.mp4	0.0	395.1106791496277	0.9999780654907227
69	371.8480541706085	movie	1		246	67.0	2.5	/experiments/AOT/AOT_stimuli/rescaled_final/1319_fw.mp4	0.0	396.1106572151184	2.5000059604644775
69	372.23115611076355	pulse	1	t		67.0	2.5	/experiments/AOT/AOT_stimuli/rescaled_final/1319_fw.mp4	0.0	396.49375915527344	
69	373.8315119743347	pulse	1	t		67.0	2.5	/experiments/AOT/AOT_stimuli/rescaled_final/1319_fw.mp4	0.0	398.0941150188446	
69	374.348060131073	fix_post	2		12	67.0	2.5	/experiments/AOT/AOT_stimuli/rescaled_final/1319_fw.mp4	0.0	398.6106631755829	0.09995889663696289
70	374.44801902770996	fix_pre	0		119	68.0	2.5	blank	1.0	398.71062207221985	0.991706132888794
70	375.43159794807434	pulse	0	t		68.0	2.5	blank	1.0	399.69420099258423	
70	375.43972516059875	movie	1		301	68.0	2.5	blank	1.0	399.70232820510864	2.50836181640625
70	377.03148317337036	pulse	1	t		68.0	2.5	blank	1.0	401.29408621788025	
70	377.948086977005	fix_post	2		12	68.0	2.5	blank	1.0	402.2106900215149	0.09991812705993652
71	378.04800510406494	fix_pre	0		120	69.0	2.5	/experiments/AOT/AOT_stimuli/rescaled_final/1779_rv.mp4	0.0	402.31060814857483	0.9999899864196777
71	378.63149213790894	pulse	0	t		69.0	2.5	/experiments/AOT/AOT_stimuli/rescaled_final/1779_rv.mp4	0.0	402.8940951824188	
71	379.0479950904846	movie	1		245	69.0	2.5	/experiments/AOT/AOT_stimuli/rescaled_final/1779_rv.mp4	0.0	403.3105981349945	2.500067949295044
71	380.23152208328247	pulse	1	t		69.0	2.5	/experiments/AOT/AOT_stimuli/rescaled_final/1779_rv.mp4	0.0	404.49412512779236	
71	381.54806303977966	fix_post	2		12	69.0	2.5	/experiments/AOT/AOT_stimuli/rescaled_final/1779_rv.mp4	0.0	405.81066608428955	0.09998703002929688
72	381.64805006980896	fix_pre	0		120	70.0	2.5	/experiments/AOT/AOT_stimuli/rescaled_final/1656_fw.mp4	0.0	405.91065311431885	1.0000040531158447
72	381.8315601348877	pulse	0	t		70.0	2.5	/experiments/AOT/AOT_stimuli/rescaled_final/1656_fw.mp4	0.0	406.0941631793976	
72	382.6480541229248	movie	1		244	70.0	2.5	/experiments/AOT/AOT_stimuli/rescaled_final/1656_fw.mp4	0.0	406.9106571674347	2.4999589920043945
72	383.43152594566345	pulse	1	t		70.0	2.5	/experiments/AOT/AOT_stimuli/rescaled_final/1656_fw.mp4	0.0	407.69412899017334	
72	385.0297529697418	pulse	1	t		70.0	2.5	/experiments/AOT/AOT_stimuli/rescaled_final/1656_fw.mp4	0.0	409.2923560142517	
72	385.1480131149292	fix_post	2		12	70.0	2.5	/experiments/AOT/AOT_stimuli/rescaled_final/1656_fw.mp4	0.0	409.4106161594391	0.09994387626647949
73	385.2479569911957	fix_pre	0		120	71.0	2.5	/experiments/AOT/AOT_stimuli/rescaled_final/0646_fw.mp4	0.0	409.51056003570557	0.9999661445617676
73	386.24792313575745	movie	1		245	71.0	2.5	/experiments/AOT/AOT_stimuli/rescaled_final/0646_fw.mp4	0.0	410.51052618026733	2.5001158714294434
73	386.63131403923035	pulse	1	t		71.0	2.5	/experiments/AOT/AOT_stimuli/rescaled_final/0646_fw.mp4	0.0	410.89391708374023	
73	388.2314250469208	pulse	1	t		71.0	2.5	/experiments/AOT/AOT_stimuli/rescaled_final/0646_fw.mp4	0.0	412.49402809143066	
73	388.7480390071869	fix_post	2		12	71.0	2.5	/experiments/AOT/AOT_stimuli/rescaled_final/0646_fw.mp4	0.0	413.0106420516968	0.09990310668945312
74	388.84794211387634	fix_pre	0		119	72.0	2.5	/experiments/AOT/AOT_stimuli/rescaled_final/0885_rv.mp4	0.0	413.11054515838623	0.9917058944702148
74	389.8315119743347	pulse	0	t		72.0	2.5	/experiments/AOT/AOT_stimuli/rescaled_final/0885_rv.mp4	0.0	414.0941150188446	
74	389.83964800834656	movie	1		245	72.0	2.5	/experiments/AOT/AOT_stimuli/rescaled_final/0885_rv.mp4	0.0	414.10225105285645	2.508301019668579
74	391.4311771392822	pulse	1	t		72.0	2.5	/experiments/AOT/AOT_stimuli/rescaled_final/0885_rv.mp4	0.0	415.6937801837921	
74	392.34794902801514	fix_post	2		12	72.0	2.5	/experiments/AOT/AOT_stimuli/rescaled_final/0885_rv.mp4	0.0	416.610552072525	0.10005307197570801
75	392.44800209999084	fix_pre	0		120	73.0	2.5	/experiments/AOT/AOT_stimuli/rescaled_final/1139_rv.mp4	0.0	416.71060514450073	1.000020980834961
75	393.03150701522827	pulse	0	t		73.0	2.5	/experiments/AOT/AOT_stimuli/rescaled_final/1139_rv.mp4	0.0	417.29411005973816	
75	393.4480230808258	movie	1		245	73.0	2.5	/experiments/AOT/AOT_stimuli/rescaled_final/1139_rv.mp4	0.0	417.7106261253357	2.499924898147583
75	394.6314730644226	pulse	1	t		73.0	2.5	/experiments/AOT/AOT_stimuli/rescaled_final/1139_rv.mp4	0.0	418.8940761089325	
75	395.9479479789734	fix_post	2		12	73.0	2.5	/experiments/AOT/AOT_stimuli/rescaled_final/1139_rv.mp4	0.0	420.2105510234833	0.1000211238861084
76	396.0479691028595	fix_pre	0		120	74.0	2.5	/experiments/AOT/AOT_stimuli/rescaled_final/0729_rv.mp4	0.0	420.3105721473694	0.9999780654907227
76	396.23139214515686	pulse	0	t		74.0	2.5	/experiments/AOT/AOT_stimuli/rescaled_final/0729_rv.mp4	0.0	420.49399518966675	
76	397.0479471683502	movie	1		244	74.0	2.5	/experiments/AOT/AOT_stimuli/rescaled_final/0729_rv.mp4	0.0	421.3105502128601	2.500001907348633
76	397.83135199546814	pulse	1	t		74.0	2.5	/experiments/AOT/AOT_stimuli/rescaled_final/0729_rv.mp4	0.0	422.093955039978	
76	399.4298119544983	pulse	1	t		74.0	2.5	/experiments/AOT/AOT_stimuli/rescaled_final/0729_rv.mp4	0.0	423.6924149990082	
76	399.54794907569885	fix_post	2		12	74.0	2.5	/experiments/AOT/AOT_stimuli/rescaled_final/0729_rv.mp4	0.0	423.81055212020874	0.09998393058776855
77	399.6479330062866	fix_pre	0		120	75.0	2.5	/experiments/AOT/AOT_stimuli/rescaled_final/0243_fw.mp4	0.0	423.9105360507965	1.0000319480895996
77	400.6479649543762	movie	1		245	75.0	2.5	/experiments/AOT/AOT_stimuli/rescaled_final/0243_fw.mp4	0.0	424.9105679988861	2.4999570846557617
77	401.03097796440125	pulse	1	t		75.0	2.5	/experiments/AOT/AOT_stimuli/rescaled_final/0243_fw.mp4	0.0	425.29358100891113	
77	402.6313569545746	pulse	1	t		75.0	2.5	/experiments/AOT/AOT_stimuli/rescaled_final/0243_fw.mp4	0.0	426.8939599990845	
77	403.147922039032	fix_post	2		12	75.0	2.5	/experiments/AOT/AOT_stimuli/rescaled_final/0243_fw.mp4	0.0	427.41052508354187	0.09997200965881348
78	403.2478940486908	fix_pre	0		119	76.0	2.5	/experiments/AOT/AOT_stimuli/rescaled_final/1813_rv.mp4	0.0	427.5104970932007	0.9917330741882324
78	404.23132610321045	pulse	0	t		76.0	2.5	/experiments/AOT/AOT_stimuli/rescaled_final/1813_rv.mp4	0.0	428.49392914772034	
78	404.239627122879	movie	1		246	76.0	2.5	/experiments/AOT/AOT_stimuli/rescaled_final/1813_rv.mp4	0.0	428.5022301673889	2.5083370208740234
78	405.8309769630432	pulse	1	t		76.0	2.5	/experiments/AOT/AOT_stimuli/rescaled_final/1813_rv.mp4	0.0	430.0935800075531	
78	406.74796414375305	fix_post	2		12	76.0	2.5	/experiments/AOT/AOT_stimuli/rescaled_final/1813_rv.mp4	0.0	431.01056718826294	0.09989690780639648
79	406.84786105155945	fix_pre	0		120	77.0	2.5	blank	1.0	431.11046409606934	1.0000851154327393
79	407.4313759803772	pulse	0	t		77.0	2.5	blank	1.0	431.6939790248871	
79	407.8479461669922	movie	1		300	77.0	2.5	blank	1.0	432.1105492115021	2.4998939037323
79	409.03133511543274	pulse	1	t		77.0	2.5	blank	1.0	433.2939381599426	
79	410.3478400707245	fix_post	2		12	77.0	2.5	blank	1.0	434.6104431152344	0.1000828742980957
80	410.4479229450226	fix_pre	0		120	78.0	2.5	/experiments/AOT/AOT_stimuli/rescaled_final/1488_rv.mp4	0.0	434.71052598953247	0.999995231628418
80	410.6314010620117	pulse	0	t		78.0	2.5	/experiments/AOT/AOT_stimuli/rescaled_final/1488_rv.mp4	0.0	434.8940041065216	
80	411.447918176651	movie	1		246	78.0	2.5	/experiments/AOT/AOT_stimuli/rescaled_final/1488_rv.mp4	0.0	435.7105212211609	2.4995899200439453
80	412.23133611679077	pulse	1	t		78.0	2.5	/experiments/AOT/AOT_stimuli/rescaled_final/1488_rv.mp4	0.0	436.49393916130066	
80	413.82957100868225	pulse	1	t		78.0	2.5	/experiments/AOT/AOT_stimuli/rescaled_final/1488_rv.mp4	0.0	438.09217405319214	
80	413.94750809669495	fix_post	2		12	78.0	2.5	/experiments/AOT/AOT_stimuli/rescaled_final/1488_rv.mp4	0.0	438.21011114120483	0.0999898910522461
81	414.0474979877472	fix_pre	0		120	79.0	2.5	/experiments/AOT/AOT_stimuli/rescaled_final/0263_fw.mp4	0.0	438.3101010322571	1.0006341934204102
81	415.0481321811676	movie	1		244	79.0	2.5	/experiments/AOT/AOT_stimuli/rescaled_final/0263_fw.mp4	0.0	439.3107352256775	2.4997329711914062
81	415.4313759803772	pulse	1	t		79.0	2.5	/experiments/AOT/AOT_stimuli/rescaled_final/0263_fw.mp4	0.0	439.6939790248871	
81	417.031289100647	pulse	1	t		79.0	2.5	/experiments/AOT/AOT_stimuli/rescaled_final/0263_fw.mp4	0.0	441.29389214515686	
81	417.547865152359	fix_post	2		12	79.0	2.5	/experiments/AOT/AOT_stimuli/rescaled_final/0263_fw.mp4	0.0	441.8104681968689	0.10014700889587402
82	417.6480121612549	fix_pre	0		119	80.0	2.5	/experiments/AOT/AOT_stimuli/rescaled_final/1156_rv.mp4	0.0	441.91061520576477	0.9915897846221924
82	418.63138794898987	pulse	0	t		80.0	2.5	/experiments/AOT/AOT_stimuli/rescaled_final/1156_rv.mp4	0.0	442.89399099349976	
82	418.6396019458771	movie	1		245	80.0	2.5	/experiments/AOT/AOT_stimuli/rescaled_final/1156_rv.mp4	0.0	442.90220499038696	2.5083730220794678
82	420.2309181690216	pulse	1	t		80.0	2.5	/experiments/AOT/AOT_stimuli/rescaled_final/1156_rv.mp4	0.0	444.4935212135315	
82	421.14797496795654	fix_post	2		12	80.0	2.5	/experiments/AOT/AOT_stimuli/rescaled_final/1156_rv.mp4	0.0	445.41057801246643	0.09978699684143066
83	421.247761964798	fix_pre	0		120	81.0	2.5	/experiments/AOT/AOT_stimuli/rescaled_final/0523_fw.mp4	0.0	445.51036500930786	1.0000569820404053
83	421.83123898506165	pulse	0	t		81.0	2.5	/experiments/AOT/AOT_stimuli/rescaled_final/0523_fw.mp4	0.0	446.09384202957153	
83	422.2478189468384	movie	1		244	81.0	2.5	/experiments/AOT/AOT_stimuli/rescaled_final/0523_fw.mp4	0.0	446.51042199134827	2.4999840259552
83	423.4312741756439	pulse	1	t		81.0	2.5	/experiments/AOT/AOT_stimuli/rescaled_final/0523_fw.mp4	0.0	447.6938772201538	
83	424.7478029727936	fix_post	2		12	81.0	2.5	/experiments/AOT/AOT_stimuli/rescaled_final/0523_fw.mp4	0.0	449.01040601730347	0.09995102882385254
84	424.84775400161743	fix_pre	0		120	82.0	2.5	blank	1.0	449.1103570461273	1.0000619888305664
84	425.03121995925903	pulse	0	t		82.0	2.5	blank	1.0	449.2938230037689	
84	425.847815990448	movie	1		300	82.0	2.5	blank	1.0	450.1104190349579	2.4999561309814453
84	426.6312279701233	pulse	1	t		82.0	2.5	blank	1.0	450.8938310146332	
84	428.23122096061707	pulse	1	t		82.0	2.5	blank	1.0	452.49382400512695	
84	428.34777212142944	fix_post	2		12	82.0	2.5	blank	1.0	452.61037516593933	0.09998488426208496
85	428.4477570056915	fix_pre	0		120	83.0	2.5	/experiments/AOT/AOT_stimuli/rescaled_final/0847_fw.mp4	0.0	452.7103600502014	1.0000221729278564
85	429.4477791786194	movie	1		244	83.0	2.5	/experiments/AOT/AOT_stimuli/rescaled_final/0847_fw.mp4	0.0	453.7103822231293	2.4999918937683105
85	429.83137798309326	pulse	1	t		83.0	2.5	/experiments/AOT/AOT_stimuli/rescaled_final/0847_fw.mp4	0.0	454.09398102760315	
85	431.4312381744385	pulse	1	t		83.0	2.5	/experiments/AOT/AOT_stimuli/rescaled_final/0847_fw.mp4	0.0	455.69384121894836	
85	431.9477710723877	fix_post	2		12	83.0	2.5	/experiments/AOT/AOT_stimuli/rescaled_final/0847_fw.mp4	0.0	456.2103741168976	0.09996390342712402
87	432.0477349758148	stim	0		1716					456.3103380203247	14.29993200302124
87	433.03122115135193	pulse	0	t						457.2938241958618	
87	434.6311571598053	pulse	0	t						458.8937602043152	
87	436.2312171459198	pulse	0	t						460.4938201904297	
87	437.8312530517578	pulse	0	t						462.0938560962677	
87	439.4312150478363	pulse	0	t						463.6938180923462	
87	441.0311441421509	pulse	0	t						465.29374718666077	
87	442.63116908073425	pulse	0	t						466.89377212524414	
87	444.2312340736389	pulse	0	t						468.4938371181488	
87	445.8311171531677	pulse	0	t						470.0937201976776	
