trial_nr	onset	event_type	phase	response	nr_frames	movie_index	movie_duration	movie_file	blank	onset_abs	duration
0	0.2083299160003662	stim	0		90					29.65058207511902	0.7499849796295166
0	0.9503359794616699	response	0	space						30.392588138580322	
1	0.9583148956298828	stim	0		4699					30.400567054748535	39.17495918273926
1	40.123064041137695	pulse	0	t						69.56531620025635	
1	40.13327407836914	stim	1		1715					69.5755262374878	14.299695014953613
1	41.714797019958496	pulse	1	t						71.15704917907715	
1	43.31493806838989	pulse	1	t						72.75719022750854	
1	44.90761995315552	pulse	1	t						74.34987211227417	
1	46.50781607627869	pulse	1	t						75.95006823539734	
1	48.10803699493408	pulse	1	t						77.55028915405273	
1	49.70833206176758	pulse	1	t						79.15058422088623	
1	51.30859899520874	pulse	1	t						80.75085115432739	
1	52.90876793861389	pulse	1	t						82.35102009773254	
2	54.432969093322754	fix_pre	0		10	0.0	2.5	/experiments/knapen_AOT/AOT_stimuli/rescaled_final/0203_rv.mp4	0.0	83.8752212524414	0.09186697006225586
2	54.508142948150635	pulse	0	t		0.0	2.5	/experiments/knapen_AOT/AOT_stimuli/rescaled_final/0203_rv.mp4	0.0	83.95039510726929	
2	54.52483606338501	movie	1		247	0.0	2.5	/experiments/knapen_AOT/AOT_stimuli/rescaled_final/0203_rv.mp4	0.0	83.96708822250366	2.5001728534698486
2	56.109654903411865	pulse	1	t		0.0	2.5	/experiments/knapen_AOT/AOT_stimuli/rescaled_final/0203_rv.mp4	0.0	85.55190706253052	
2	57.02500891685486	fix_post	2		12	0.0	2.5	/experiments/knapen_AOT/AOT_stimuli/rescaled_final/0203_rv.mp4	0.0	86.46726107597351	0.10002517700195312
3	57.12503409385681	fix_pre	0		120	1.0	2.5	/experiments/knapen_AOT/AOT_stimuli/rescaled_final/1782_fw.mp4	0.0	86.56728625297546	1.0001449584960938
3	57.708632946014404	pulse	0	t		1.0	2.5	/experiments/knapen_AOT/AOT_stimuli/rescaled_final/1782_fw.mp4	0.0	87.15088510513306	
3	58.125179052352905	movie	1		244	1.0	2.5	/experiments/knapen_AOT/AOT_stimuli/rescaled_final/1782_fw.mp4	0.0	87.56743121147156	2.5003600120544434
3	59.30907702445984	pulse	1	t		1.0	2.5	/experiments/knapen_AOT/AOT_stimuli/rescaled_final/1782_fw.mp4	0.0	88.75132918357849	
3	60.62553906440735	fix_post	2		12	1.0	2.5	/experiments/knapen_AOT/AOT_stimuli/rescaled_final/1782_fw.mp4	0.0	90.067791223526	0.10003399848937988
4	60.72557306289673	fix_pre	0		120	2.0	2.5	/experiments/knapen_AOT/AOT_stimuli/rescaled_final/1048_fw.mp4	0.0	90.16782522201538	1.0002028942108154
4	60.90913009643555	pulse	0	t		2.0	2.5	/experiments/knapen_AOT/AOT_stimuli/rescaled_final/1048_fw.mp4	0.0	90.3513822555542	
4	61.725775957107544	movie	1		246	2.0	2.5	/experiments/knapen_AOT/AOT_stimuli/rescaled_final/1048_fw.mp4	0.0	91.1680281162262	2.5003180503845215
4	62.5094199180603	pulse	1	t		2.0	2.5	/experiments/knapen_AOT/AOT_stimuli/rescaled_final/1048_fw.mp4	0.0	91.95167207717896	
4	64.10958695411682	pulse	1	t		2.0	2.5	/experiments/knapen_AOT/AOT_stimuli/rescaled_final/1048_fw.mp4	0.0	93.55183911323547	
4	64.22609400749207	fix_post	2		12	2.0	2.5	/experiments/knapen_AOT/AOT_stimuli/rescaled_final/1048_fw.mp4	0.0	93.66834616661072	0.10000300407409668
5	64.32609701156616	fix_pre	0		119	3.0	2.5	/experiments/knapen_AOT/AOT_stimuli/rescaled_final/1167_fw.mp4	0.0	93.76834917068481	0.9918649196624756
5	65.31796193122864	movie	1		247	3.0	2.5	/experiments/knapen_AOT/AOT_stimuli/rescaled_final/1167_fw.mp4	0.0	94.76021409034729	2.5003790855407715
5	65.70993304252625	pulse	1	t		3.0	2.5	/experiments/knapen_AOT/AOT_stimuli/rescaled_final/1167_fw.mp4	0.0	95.1521852016449	
5	67.31011009216309	pulse	1	t		3.0	2.5	/experiments/knapen_AOT/AOT_stimuli/rescaled_final/1167_fw.mp4	0.0	96.75236225128174	
5	67.81834101676941	fix_post	2		12	3.0	2.5	/experiments/knapen_AOT/AOT_stimuli/rescaled_final/1167_fw.mp4	0.0	97.26059317588806	0.09995007514953613
6	67.91829109191895	fix_pre	0		120	4.0	2.5	/experiments/knapen_AOT/AOT_stimuli/rescaled_final/0185_rv.mp4	0.0	97.3605432510376	1.0001928806304932
6	68.91030287742615	pulse	0	t		4.0	2.5	/experiments/knapen_AOT/AOT_stimuli/rescaled_final/0185_rv.mp4	0.0	98.3525550365448	
6	68.91848397254944	movie	1		248	4.0	2.5	/experiments/knapen_AOT/AOT_stimuli/rescaled_final/0185_rv.mp4	0.0	98.36073613166809	2.50872802734375
6	70.51087999343872	pulse	1	t		4.0	2.5	/experiments/knapen_AOT/AOT_stimuli/rescaled_final/0185_rv.mp4	0.0	99.95313215255737	
6	71.42721199989319	fix_post	2		12	4.0	2.5	/experiments/knapen_AOT/AOT_stimuli/rescaled_final/0185_rv.mp4	0.0	100.86946415901184	0.1000220775604248
7	71.52723407745361	fix_pre	0		120	5.0	2.5	/experiments/knapen_AOT/AOT_stimuli/rescaled_final/2024_fw.mp4	0.0	100.96948623657227	1.0001168251037598
7	72.11094403266907	pulse	0	t		5.0	2.5	/experiments/knapen_AOT/AOT_stimuli/rescaled_final/2024_fw.mp4	0.0	101.55319619178772	
7	72.52735090255737	movie	1		243	5.0	2.5	/experiments/knapen_AOT/AOT_stimuli/rescaled_final/2024_fw.mp4	0.0	101.96960306167603	2.500343084335327
7	73.71118688583374	pulse	1	t		5.0	2.5	/experiments/knapen_AOT/AOT_stimuli/rescaled_final/2024_fw.mp4	0.0	103.15343904495239	
7	75.0276939868927	fix_post	2		12	5.0	2.5	/experiments/knapen_AOT/AOT_stimuli/rescaled_final/2024_fw.mp4	0.0	104.46994614601135	0.10002899169921875
8	75.12772297859192	fix_pre	0		120	6.0	2.5	/experiments/knapen_AOT/AOT_stimuli/rescaled_final/1975_rv.mp4	0.0	104.56997513771057	1.0001559257507324
8	75.31126999855042	pulse	0	t		6.0	2.5	/experiments/knapen_AOT/AOT_stimuli/rescaled_final/1975_rv.mp4	0.0	104.75352215766907	
8	76.12787890434265	movie	1		246	6.0	2.5	/experiments/knapen_AOT/AOT_stimuli/rescaled_final/1975_rv.mp4	0.0	105.5701310634613	2.5004451274871826
8	76.91174602508545	pulse	1	t		6.0	2.5	/experiments/knapen_AOT/AOT_stimuli/rescaled_final/1975_rv.mp4	0.0	106.3539981842041	
8	78.51190900802612	pulse	1	t		6.0	2.5	/experiments/knapen_AOT/AOT_stimuli/rescaled_final/1975_rv.mp4	0.0	107.95416116714478	
8	78.62832403182983	fix_post	2		12	6.0	2.5	/experiments/knapen_AOT/AOT_stimuli/rescaled_final/1975_rv.mp4	0.0	108.07057619094849	0.09991788864135742
9	78.72824192047119	fix_pre	0		120	7.0	2.5	blank	1.0	108.17049407958984	1.0001640319824219
9	79.72840595245361	movie	1		299	7.0	2.5	blank	1.0	109.17065811157227	2.492074966430664
9	80.1120069026947	pulse	1	t		7.0	2.5	blank	1.0	109.55425906181335	
9	81.71226000785828	pulse	1	t		7.0	2.5	blank	1.0	111.15451216697693	
9	82.22048091888428	fix_post	2		12	7.0	2.5	blank	1.0	111.66273307800293	0.10000109672546387
10	82.32048201560974	fix_pre	0		120	8.0	2.5	/experiments/knapen_AOT/AOT_stimuli/rescaled_final/2147_rv.mp4	0.0	111.7627341747284	1.000182867050171
10	83.31245303153992	pulse	0	t		8.0	2.5	/experiments/knapen_AOT/AOT_stimuli/rescaled_final/2147_rv.mp4	0.0	112.75470519065857	
10	83.32066488265991	movie	1		246	8.0	2.5	/experiments/knapen_AOT/AOT_stimuli/rescaled_final/2147_rv.mp4	0.0	112.76291704177856	2.5086100101470947
10	84.91387891769409	pulse	1	t		8.0	2.5	/experiments/knapen_AOT/AOT_stimuli/rescaled_final/2147_rv.mp4	0.0	114.35613107681274	
10	85.829274892807	fix_post	2		12	8.0	2.5	/experiments/knapen_AOT/AOT_stimuli/rescaled_final/2147_rv.mp4	0.0	115.27152705192566	0.10006904602050781
11	85.92934393882751	fix_pre	0		120	9.0	2.5	/experiments/knapen_AOT/AOT_stimuli/rescaled_final/0640_fw.mp4	0.0	115.37159609794617	1.0001640319824219
11	86.51307106018066	pulse	0	t		9.0	2.5	/experiments/knapen_AOT/AOT_stimuli/rescaled_final/0640_fw.mp4	0.0	115.95532321929932	
11	86.92950797080994	movie	1		244	9.0	2.5	/experiments/knapen_AOT/AOT_stimuli/rescaled_final/0640_fw.mp4	0.0	116.37176012992859	2.500361919403076
11	88.11328792572021	pulse	1	t		9.0	2.5	/experiments/knapen_AOT/AOT_stimuli/rescaled_final/0640_fw.mp4	0.0	117.55554008483887	
11	89.42986989021301	fix_post	2		12	9.0	2.5	/experiments/knapen_AOT/AOT_stimuli/rescaled_final/0640_fw.mp4	0.0	118.87212204933167	0.09997701644897461
12	89.52984690666199	fix_pre	0		120	10.0	2.5	/experiments/knapen_AOT/AOT_stimuli/rescaled_final/1653_fw.mp4	0.0	118.97209906578064	1.0001859664916992
12	89.71349000930786	pulse	0	t		10.0	2.5	/experiments/knapen_AOT/AOT_stimuli/rescaled_final/1653_fw.mp4	0.0	119.15574216842651	
12	90.53003287315369	movie	1		246	10.0	2.5	/experiments/knapen_AOT/AOT_stimuli/rescaled_final/1653_fw.mp4	0.0	119.97228503227234	2.5003910064697266
12	91.31382703781128	pulse	1	t		10.0	2.5	/experiments/knapen_AOT/AOT_stimuli/rescaled_final/1653_fw.mp4	0.0	120.75607919692993	
12	92.91392803192139	pulse	1	t		10.0	2.5	/experiments/knapen_AOT/AOT_stimuli/rescaled_final/1653_fw.mp4	0.0	122.35618019104004	
12	93.03042387962341	fix_post	2		12	10.0	2.5	/experiments/knapen_AOT/AOT_stimuli/rescaled_final/1653_fw.mp4	0.0	122.47267603874207	0.09999418258666992
13	93.13041806221008	fix_pre	0		120	11.0	2.5	/experiments/knapen_AOT/AOT_stimuli/rescaled_final/1206_fw.mp4	0.0	122.57267022132874	1.0001258850097656
13	94.13054394721985	movie	1		246	11.0	2.5	/experiments/knapen_AOT/AOT_stimuli/rescaled_final/1206_fw.mp4	0.0	123.5727961063385	2.4920990467071533
13	94.51477599143982	pulse	1	t		11.0	2.5	/experiments/knapen_AOT/AOT_stimuli/rescaled_final/1206_fw.mp4	0.0	123.95702815055847	
13	96.11453986167908	pulse	1	t		11.0	2.5	/experiments/knapen_AOT/AOT_stimuli/rescaled_final/1206_fw.mp4	0.0	125.55679202079773	
13	96.622642993927	fix_post	2		12	11.0	2.5	/experiments/knapen_AOT/AOT_stimuli/rescaled_final/1206_fw.mp4	0.0	126.06489515304565	0.1000220775604248
14	96.72266507148743	fix_pre	0		120	12.0	2.5	/experiments/knapen_AOT/AOT_stimuli/rescaled_final/0928_rv.mp4	0.0	126.16491723060608	1.0001049041748047
14	97.71466088294983	pulse	0	t		12.0	2.5	/experiments/knapen_AOT/AOT_stimuli/rescaled_final/0928_rv.mp4	0.0	127.15691304206848	
14	97.72276997566223	movie	1		246	12.0	2.5	/experiments/knapen_AOT/AOT_stimuli/rescaled_final/0928_rv.mp4	0.0	127.16502213478088	2.508699893951416
14	99.31543493270874	pulse	1	t		12.0	2.5	/experiments/knapen_AOT/AOT_stimuli/rescaled_final/0928_rv.mp4	0.0	128.7576870918274	
14	100.23146986961365	fix_post	2		12	12.0	2.5	/experiments/knapen_AOT/AOT_stimuli/rescaled_final/0928_rv.mp4	0.0	129.6737220287323	0.10003304481506348
15	100.33150291442871	fix_pre	0		120	13.0	2.5	blank	1.0	129.77375507354736	1.0001561641693115
15	100.90761590003967	pulse	0	t		13.0	2.5	blank	1.0	130.34986805915833	
15	101.33165907859802	movie	1		300	13.0	2.5	blank	1.0	130.77391123771667	2.500356912612915
15	102.50791501998901	pulse	1	t		13.0	2.5	blank	1.0	131.95016717910767	
15	103.83201599121094	fix_post	2		12	13.0	2.5	blank	1.0	133.2742681503296	0.1000370979309082
16	103.93205308914185	fix_pre	0		120	14.0	2.5	/experiments/knapen_AOT/AOT_stimuli/rescaled_final/0406_rv.mp4	0.0	133.3743052482605	1.0001227855682373
16	104.10806393623352	pulse	0	t		14.0	2.5	/experiments/knapen_AOT/AOT_stimuli/rescaled_final/0406_rv.mp4	0.0	133.55031609535217	
16	104.93217587471008	movie	1		245	14.0	2.5	/experiments/knapen_AOT/AOT_stimuli/rescaled_final/0406_rv.mp4	0.0	134.37442803382874	2.500408172607422
16	105.70840406417847	pulse	1	t		14.0	2.5	/experiments/knapen_AOT/AOT_stimuli/rescaled_final/0406_rv.mp4	0.0	135.15065622329712	
16	107.30778503417969	pulse	1	t		14.0	2.5	/experiments/knapen_AOT/AOT_stimuli/rescaled_final/0406_rv.mp4	0.0	136.75003719329834	
16	107.4325840473175	fix_post	2		12	14.0	2.5	/experiments/knapen_AOT/AOT_stimuli/rescaled_final/0406_rv.mp4	0.0	136.87483620643616	0.09998488426208496
17	107.53256893157959	fix_pre	0		120	15.0	2.5	/experiments/knapen_AOT/AOT_stimuli/rescaled_final/0905_fw.mp4	0.0	136.97482109069824	1.0001420974731445
17	108.53271102905273	movie	1		247	15.0	2.5	/experiments/knapen_AOT/AOT_stimuli/rescaled_final/0905_fw.mp4	0.0	137.9749631881714	2.492033004760742
17	108.90792989730835	pulse	1	t		15.0	2.5	/experiments/knapen_AOT/AOT_stimuli/rescaled_final/0905_fw.mp4	0.0	138.350182056427	
17	110.50824308395386	pulse	1	t		15.0	2.5	/experiments/knapen_AOT/AOT_stimuli/rescaled_final/0905_fw.mp4	0.0	139.9504952430725	
17	111.02474403381348	fix_post	2		12	15.0	2.5	/experiments/knapen_AOT/AOT_stimuli/rescaled_final/0905_fw.mp4	0.0	140.46699619293213	0.10003805160522461
18	111.1247820854187	fix_pre	0		119	16.0	2.5	/experiments/knapen_AOT/AOT_stimuli/rescaled_final/0848_rv.mp4	0.0	140.56703424453735	0.991811990737915
18	112.10853791236877	pulse	0	t		16.0	2.5	/experiments/knapen_AOT/AOT_stimuli/rescaled_final/0848_rv.mp4	0.0	141.55079007148743	
18	112.11659407615662	movie	1		248	16.0	2.5	/experiments/knapen_AOT/AOT_stimuli/rescaled_final/0848_rv.mp4	0.0	141.55884623527527	2.508746862411499
18	113.70946907997131	pulse	1	t		16.0	2.5	/experiments/knapen_AOT/AOT_stimuli/rescaled_final/0848_rv.mp4	0.0	143.15172123908997	
18	114.62534093856812	fix_post	2		12	16.0	2.5	/experiments/knapen_AOT/AOT_stimuli/rescaled_final/0848_rv.mp4	0.0	144.06759309768677	0.09996294975280762
19	114.72530388832092	fix_pre	0		120	17.0	2.5	/experiments/knapen_AOT/AOT_stimuli/rescaled_final/1861_fw.mp4	0.0	144.16755604743958	1.0002360343933105
19	115.30893802642822	pulse	0	t		17.0	2.5	/experiments/knapen_AOT/AOT_stimuli/rescaled_final/1861_fw.mp4	0.0	144.75119018554688	
19	115.72553992271423	movie	1		246	17.0	2.5	/experiments/knapen_AOT/AOT_stimuli/rescaled_final/1861_fw.mp4	0.0	145.16779208183289	2.500314950942993
19	116.9092378616333	pulse	1	t		17.0	2.5	/experiments/knapen_AOT/AOT_stimuli/rescaled_final/1861_fw.mp4	0.0	146.35149002075195	
19	118.22585487365723	fix_post	2		12	17.0	2.5	/experiments/knapen_AOT/AOT_stimuli/rescaled_final/1861_fw.mp4	0.0	147.66810703277588	0.1000051498413086
20	118.32586002349854	fix_pre	0		120	18.0	2.5	/experiments/knapen_AOT/AOT_stimuli/rescaled_final/2099_fw.mp4	0.0	147.7681121826172	1.000114917755127
20	118.50938606262207	pulse	0	t		18.0	2.5	/experiments/knapen_AOT/AOT_stimuli/rescaled_final/2099_fw.mp4	0.0	147.95163822174072	
20	119.32597494125366	movie	1		247	18.0	2.5	/experiments/knapen_AOT/AOT_stimuli/rescaled_final/2099_fw.mp4	0.0	148.76822710037231	2.50040602684021
20	120.10978198051453	pulse	1	t		18.0	2.5	/experiments/knapen_AOT/AOT_stimuli/rescaled_final/2099_fw.mp4	0.0	149.55203413963318	
20	121.7099220752716	pulse	1	t		18.0	2.5	/experiments/knapen_AOT/AOT_stimuli/rescaled_final/2099_fw.mp4	0.0	151.15217423439026	
20	121.82638096809387	fix_post	2		12	18.0	2.5	/experiments/knapen_AOT/AOT_stimuli/rescaled_final/2099_fw.mp4	0.0	151.26863312721252	0.10003209114074707
21	121.92641305923462	fix_pre	0		120	19.0	2.5	blank	1.0	151.36866521835327	1.0001859664916992
21	122.92659902572632	movie	1		299	19.0	2.5	blank	1.0	152.36885118484497	2.4919960498809814
21	123.31014800071716	pulse	1	t		19.0	2.5	blank	1.0	152.75240015983582	
21	124.91041207313538	pulse	1	t		19.0	2.5	blank	1.0	154.35266423225403	
21	125.4185950756073	fix_post	2		12	19.0	2.5	blank	1.0	154.86084723472595	0.10001087188720703
22	125.5186059474945	fix_pre	0		120	20.0	2.5	/experiments/knapen_AOT/AOT_stimuli/rescaled_final/0269_fw.mp4	0.0	154.96085810661316	1.0001411437988281
22	126.51069688796997	pulse	0	t		20.0	2.5	/experiments/knapen_AOT/AOT_stimuli/rescaled_final/0269_fw.mp4	0.0	155.95294904708862	
22	126.51874709129333	movie	1		247	20.0	2.5	/experiments/knapen_AOT/AOT_stimuli/rescaled_final/0269_fw.mp4	0.0	155.960999250412	2.5088279247283936
22	128.11133289337158	pulse	1	t		20.0	2.5	/experiments/knapen_AOT/AOT_stimuli/rescaled_final/0269_fw.mp4	0.0	157.55358505249023	
22	129.02757501602173	fix_post	2		12	20.0	2.5	/experiments/knapen_AOT/AOT_stimuli/rescaled_final/0269_fw.mp4	0.0	158.46982717514038	0.09989190101623535
23	129.12746691703796	fix_pre	0		120	21.0	2.5	/experiments/knapen_AOT/AOT_stimuli/rescaled_final/1091_fw.mp4	0.0	158.56971907615662	1.0001561641693115
23	129.71105909347534	pulse	0	t		21.0	2.5	/experiments/knapen_AOT/AOT_stimuli/rescaled_final/1091_fw.mp4	0.0	159.153311252594	
23	130.12762308120728	movie	1		245	21.0	2.5	/experiments/knapen_AOT/AOT_stimuli/rescaled_final/1091_fw.mp4	0.0	159.56987524032593	2.500342845916748
23	131.31149196624756	pulse	1	t		21.0	2.5	/experiments/knapen_AOT/AOT_stimuli/rescaled_final/1091_fw.mp4	0.0	160.7537441253662	
23	132.62796592712402	fix_post	2		12	21.0	2.5	/experiments/knapen_AOT/AOT_stimuli/rescaled_final/1091_fw.mp4	0.0	162.07021808624268	0.10003399848937988
24	132.7279999256134	fix_pre	0		120	22.0	2.5	/experiments/knapen_AOT/AOT_stimuli/rescaled_final/0324_rv.mp4	0.0	162.17025208473206	1.0001270771026611
24	132.91165590286255	pulse	0	t		22.0	2.5	/experiments/knapen_AOT/AOT_stimuli/rescaled_final/0324_rv.mp4	0.0	162.3539080619812	
24	133.72812700271606	movie	1		245	22.0	2.5	/experiments/knapen_AOT/AOT_stimuli/rescaled_final/0324_rv.mp4	0.0	163.17037916183472	2.5003910064697266
24	134.511962890625	pulse	1	t		22.0	2.5	/experiments/knapen_AOT/AOT_stimuli/rescaled_final/0324_rv.mp4	0.0	163.95421504974365	
24	136.11202788352966	pulse	1	t		22.0	2.5	/experiments/knapen_AOT/AOT_stimuli/rescaled_final/0324_rv.mp4	0.0	165.55428004264832	
24	136.2285180091858	fix_post	2		12	22.0	2.5	/experiments/knapen_AOT/AOT_stimuli/rescaled_final/0324_rv.mp4	0.0	165.67077016830444	0.10005903244018555
25	136.32857704162598	fix_pre	0		120	23.0	2.5	/experiments/knapen_AOT/AOT_stimuli/rescaled_final/0237_fw.mp4	0.0	165.77082920074463	1.0002188682556152
25	137.3287959098816	movie	1		240	23.0	2.5	/experiments/knapen_AOT/AOT_stimuli/rescaled_final/0237_fw.mp4	0.0	166.77104806900024	2.4919331073760986
25	137.7127869129181	pulse	1	t		23.0	2.5	/experiments/knapen_AOT/AOT_stimuli/rescaled_final/0237_fw.mp4	0.0	167.15503907203674	
25	139.3126199245453	pulse	1	t		23.0	2.5	/experiments/knapen_AOT/AOT_stimuli/rescaled_final/0237_fw.mp4	0.0	168.75487208366394	
25	139.8207290172577	fix_post	2		12	23.0	2.5	/experiments/knapen_AOT/AOT_stimuli/rescaled_final/0237_fw.mp4	0.0	169.26298117637634	0.1000368595123291
26	139.92076587677002	fix_pre	0		120	24.0	2.5	/experiments/knapen_AOT/AOT_stimuli/rescaled_final/1544_fw.mp4	0.0	169.36301803588867	1.0001311302185059
26	140.9128520488739	pulse	0	t		24.0	2.5	/experiments/knapen_AOT/AOT_stimuli/rescaled_final/1544_fw.mp4	0.0	170.35510420799255	
26	140.92089700698853	movie	1		245	24.0	2.5	/experiments/knapen_AOT/AOT_stimuli/rescaled_final/1544_fw.mp4	0.0	170.36314916610718	2.50871205329895
26	142.51759886741638	pulse	1	t		24.0	2.5	/experiments/knapen_AOT/AOT_stimuli/rescaled_final/1544_fw.mp4	0.0	171.95985102653503	
26	143.42960906028748	fix_post	2		12	24.0	2.5	/experiments/knapen_AOT/AOT_stimuli/rescaled_final/1544_fw.mp4	0.0	172.87186121940613	0.09999299049377441
27	143.52960205078125	fix_pre	0		120	25.0	2.5	/experiments/knapen_AOT/AOT_stimuli/rescaled_final/1826_rv.mp4	0.0	172.9718542098999	1.0001649856567383
27	144.11319303512573	pulse	0	t		25.0	2.5	/experiments/knapen_AOT/AOT_stimuli/rescaled_final/1826_rv.mp4	0.0	173.55544519424438	
27	144.529767036438	movie	1		246	25.0	2.5	/experiments/knapen_AOT/AOT_stimuli/rescaled_final/1826_rv.mp4	0.0	173.97201919555664	2.5003318786621094
27	145.70887899398804	pulse	1	t		25.0	2.5	/experiments/knapen_AOT/AOT_stimuli/rescaled_final/1826_rv.mp4	0.0	175.1511311531067	
27	147.0300989151001	fix_post	2		12	25.0	2.5	/experiments/knapen_AOT/AOT_stimuli/rescaled_final/1826_rv.mp4	0.0	176.47235107421875	0.100067138671875
28	147.13016605377197	fix_pre	0		120	26.0	2.5	/experiments/knapen_AOT/AOT_stimuli/rescaled_final/0177_rv.mp4	0.0	176.57241821289062	1.000135898590088
28	147.3138370513916	pulse	0	t		26.0	2.5	/experiments/knapen_AOT/AOT_stimuli/rescaled_final/0177_rv.mp4	0.0	176.75608921051025	
28	148.13030195236206	movie	1		247	26.0	2.5	/experiments/knapen_AOT/AOT_stimuli/rescaled_final/0177_rv.mp4	0.0	177.5725541114807	2.5005149841308594
28	148.91408801078796	pulse	1	t		26.0	2.5	/experiments/knapen_AOT/AOT_stimuli/rescaled_final/0177_rv.mp4	0.0	178.35634016990662	
28	150.51415395736694	pulse	1	t		26.0	2.5	/experiments/knapen_AOT/AOT_stimuli/rescaled_final/0177_rv.mp4	0.0	179.9564061164856	
28	150.63081693649292	fix_post	2		12	26.0	2.5	/experiments/knapen_AOT/AOT_stimuli/rescaled_final/0177_rv.mp4	0.0	180.07306909561157	0.09989309310913086
29	150.73071002960205	fix_pre	0		120	27.0	2.5	blank	1.0	180.1729621887207	1.0001559257507324
29	151.73086595535278	movie	1		299	27.0	2.5	blank	1.0	181.17311811447144	2.4920201301574707
29	152.11449003219604	pulse	1	t		27.0	2.5	blank	1.0	181.5567421913147	
29	153.71475291252136	pulse	1	t		27.0	2.5	blank	1.0	183.15700507164001	
29	154.22288608551025	fix_post	2		12	27.0	2.5	blank	1.0	183.6651382446289	0.10003089904785156
30	154.3229169845581	fix_pre	0		120	28.0	2.5	/experiments/knapen_AOT/AOT_stimuli/rescaled_final/1735_fw.mp4	0.0	183.76516914367676	1.000135898590088
30	155.30749893188477	pulse	0	t		28.0	2.5	/experiments/knapen_AOT/AOT_stimuli/rescaled_final/1735_fw.mp4	0.0	184.74975109100342	
30	155.3230528831482	movie	1		248	28.0	2.5	/experiments/knapen_AOT/AOT_stimuli/rescaled_final/1735_fw.mp4	0.0	184.76530504226685	2.50883412361145
30	156.9156858921051	pulse	1	t		28.0	2.5	/experiments/knapen_AOT/AOT_stimuli/rescaled_final/1735_fw.mp4	0.0	186.35793805122375	
30	157.83188700675964	fix_post	2		12	28.0	2.5	/experiments/knapen_AOT/AOT_stimuli/rescaled_final/1735_fw.mp4	0.0	187.2741391658783	0.09989404678344727
31	157.9317810535431	fix_pre	0		120	29.0	2.5	/experiments/knapen_AOT/AOT_stimuli/rescaled_final/2145_rv.mp4	0.0	187.37403321266174	1.000147819519043
31	158.50790190696716	pulse	0	t		29.0	2.5	/experiments/knapen_AOT/AOT_stimuli/rescaled_final/2145_rv.mp4	0.0	187.95015406608582	
31	158.93192887306213	movie	1		246	29.0	2.5	/experiments/knapen_AOT/AOT_stimuli/rescaled_final/2145_rv.mp4	0.0	188.3741810321808	2.5003340244293213
31	160.10822987556458	pulse	1	t		29.0	2.5	/experiments/knapen_AOT/AOT_stimuli/rescaled_final/2145_rv.mp4	0.0	189.55048203468323	
31	161.43226289749146	fix_post	2		12	29.0	2.5	/experiments/knapen_AOT/AOT_stimuli/rescaled_final/2145_rv.mp4	0.0	190.8745150566101	0.10007500648498535
32	161.53233790397644	fix_pre	0		120	30.0	2.5	/experiments/knapen_AOT/AOT_stimuli/rescaled_final/0895_fw.mp4	0.0	190.9745900630951	1.0001521110534668
32	161.70757293701172	pulse	0	t		30.0	2.5	/experiments/knapen_AOT/AOT_stimuli/rescaled_final/0895_fw.mp4	0.0	191.14982509613037	
32	162.5324900150299	movie	1		251	30.0	2.5	/experiments/knapen_AOT/AOT_stimuli/rescaled_final/0895_fw.mp4	0.0	191.97474217414856	2.5003318786621094
32	163.3077380657196	pulse	1	t		30.0	2.5	/experiments/knapen_AOT/AOT_stimuli/rescaled_final/0895_fw.mp4	0.0	192.74999022483826	
32	164.90803694725037	pulse	1	t		30.0	2.5	/experiments/knapen_AOT/AOT_stimuli/rescaled_final/0895_fw.mp4	0.0	194.35028910636902	
32	165.03282189369202	fix_post	2		12	30.0	2.5	/experiments/knapen_AOT/AOT_stimuli/rescaled_final/0895_fw.mp4	0.0	194.47507405281067	0.10002899169921875
33	165.13285088539124	fix_pre	0		119	31.0	2.5	/experiments/knapen_AOT/AOT_stimuli/rescaled_final/2142_rv.mp4	0.0	194.5751030445099	0.9918441772460938
33	166.12469506263733	movie	1		246	31.0	2.5	/experiments/knapen_AOT/AOT_stimuli/rescaled_final/2142_rv.mp4	0.0	195.56694722175598	2.5003159046173096
33	166.50880789756775	pulse	1	t		31.0	2.5	/experiments/knapen_AOT/AOT_stimuli/rescaled_final/2142_rv.mp4	0.0	195.9510600566864	
33	168.10853505134583	pulse	1	t		31.0	2.5	/experiments/knapen_AOT/AOT_stimuli/rescaled_final/2142_rv.mp4	0.0	197.55078721046448	
33	168.62501096725464	fix_post	2		12	31.0	2.5	/experiments/knapen_AOT/AOT_stimuli/rescaled_final/2142_rv.mp4	0.0	198.0672631263733	0.10003805160522461
34	168.72504901885986	fix_pre	0		119	32.0	2.5	/experiments/knapen_AOT/AOT_stimuli/rescaled_final/0715_rv.mp4	0.0	198.16730117797852	0.9918220043182373
34	169.7087218761444	pulse	0	t		32.0	2.5	/experiments/knapen_AOT/AOT_stimuli/rescaled_final/0715_rv.mp4	0.0	199.15097403526306	
34	169.7168710231781	movie	1		248	32.0	2.5	/experiments/knapen_AOT/AOT_stimuli/rescaled_final/0715_rv.mp4	0.0	199.15912318229675	2.50871205329895
34	171.30956196784973	pulse	1	t		32.0	2.5	/experiments/knapen_AOT/AOT_stimuli/rescaled_final/0715_rv.mp4	0.0	200.75181412696838	
34	172.22558307647705	fix_post	2		12	32.0	2.5	/experiments/knapen_AOT/AOT_stimuli/rescaled_final/0715_rv.mp4	0.0	201.6678352355957	0.0999758243560791
35	172.32555890083313	fix_pre	0		120	33.0	2.5	/experiments/knapen_AOT/AOT_stimuli/rescaled_final/1176_fw.mp4	0.0	201.76781105995178	1.0001401901245117
35	172.90922689437866	pulse	0	t		33.0	2.5	/experiments/knapen_AOT/AOT_stimuli/rescaled_final/1176_fw.mp4	0.0	202.35147905349731	
35	173.32569909095764	movie	1		248	33.0	2.5	/experiments/knapen_AOT/AOT_stimuli/rescaled_final/1176_fw.mp4	0.0	202.7679512500763	2.5005619525909424
35	174.5095489025116	pulse	1	t		33.0	2.5	/experiments/knapen_AOT/AOT_stimuli/rescaled_final/1176_fw.mp4	0.0	203.95180106163025	
35	175.82626104354858	fix_post	2		12	33.0	2.5	/experiments/knapen_AOT/AOT_stimuli/rescaled_final/1176_fw.mp4	0.0	205.26851320266724	0.09989786148071289
36	175.9261589050293	fix_pre	0		120	34.0	2.5	blank	1.0	205.36841106414795	1.0001521110534668
36	176.1097559928894	pulse	0	t		34.0	2.5	blank	1.0	205.55200815200806	
36	176.92631101608276	movie	1		300	34.0	2.5	blank	1.0	206.36856317520142	2.500370979309082
36	177.70995497703552	pulse	1	t		34.0	2.5	blank	1.0	207.15220713615417	
36	179.31010603904724	pulse	1	t		34.0	2.5	blank	1.0	208.7523581981659	
36	179.42668199539185	fix_post	2		12	34.0	2.5	blank	1.0	208.8689341545105	0.09997391700744629
37	179.5266559123993	fix_pre	0		120	35.0	2.5	/experiments/knapen_AOT/AOT_stimuli/rescaled_final/0260_fw.mp4	0.0	208.96890807151794	1.0002009868621826
37	180.52685689926147	movie	1		246	35.0	2.5	/experiments/knapen_AOT/AOT_stimuli/rescaled_final/0260_fw.mp4	0.0	209.96910905838013	2.491990089416504
37	180.9111008644104	pulse	1	t		35.0	2.5	/experiments/knapen_AOT/AOT_stimuli/rescaled_final/0260_fw.mp4	0.0	210.35335302352905	
37	182.51067686080933	pulse	1	t		35.0	2.5	/experiments/knapen_AOT/AOT_stimuli/rescaled_final/0260_fw.mp4	0.0	211.95292901992798	
37	183.01884698867798	fix_post	2		12	35.0	2.5	/experiments/knapen_AOT/AOT_stimuli/rescaled_final/0260_fw.mp4	0.0	212.46109914779663	0.10001802444458008
38	183.11886501312256	fix_pre	0		120	36.0	2.5	/experiments/knapen_AOT/AOT_stimuli/rescaled_final/1377_fw.mp4	0.0	212.5611171722412	1.0001380443572998
38	184.11096501350403	pulse	0	t		36.0	2.5	/experiments/knapen_AOT/AOT_stimuli/rescaled_final/1377_fw.mp4	0.0	213.55321717262268	
38	184.11900305747986	movie	1		245	36.0	2.5	/experiments/knapen_AOT/AOT_stimuli/rescaled_final/1377_fw.mp4	0.0	213.5612552165985	2.508730888366699
38	185.71540188789368	pulse	1	t		36.0	2.5	/experiments/knapen_AOT/AOT_stimuli/rescaled_final/1377_fw.mp4	0.0	215.15765404701233	
38	186.62773394584656	fix_post	2		12	36.0	2.5	/experiments/knapen_AOT/AOT_stimuli/rescaled_final/1377_fw.mp4	0.0	216.0699861049652	0.1000819206237793
39	186.72781586647034	fix_pre	0		120	37.0	2.5	/experiments/knapen_AOT/AOT_stimuli/rescaled_final/1194_fw.mp4	0.0	216.170068025589	1.0000882148742676
39	187.3114869594574	pulse	0	t		37.0	2.5	/experiments/knapen_AOT/AOT_stimuli/rescaled_final/1194_fw.mp4	0.0	216.75373911857605	
39	187.7279040813446	movie	1		250	37.0	2.5	/experiments/knapen_AOT/AOT_stimuli/rescaled_final/1194_fw.mp4	0.0	217.17015624046326	2.500361919403076
39	188.91171097755432	pulse	1	t		37.0	2.5	/experiments/knapen_AOT/AOT_stimuli/rescaled_final/1194_fw.mp4	0.0	218.35396313667297	
39	190.22826600074768	fix_post	2		12	37.0	2.5	/experiments/knapen_AOT/AOT_stimuli/rescaled_final/1194_fw.mp4	0.0	219.67051815986633	0.10000109672546387
40	190.32826709747314	fix_pre	0		120	38.0	2.5	/experiments/knapen_AOT/AOT_stimuli/rescaled_final/1754_rv.mp4	0.0	219.7705192565918	1.000166893005371
40	190.51180386543274	pulse	0	t		38.0	2.5	/experiments/knapen_AOT/AOT_stimuli/rescaled_final/1754_rv.mp4	0.0	219.9540560245514	
40	191.32843399047852	movie	1		248	38.0	2.5	/experiments/knapen_AOT/AOT_stimuli/rescaled_final/1754_rv.mp4	0.0	220.77068614959717	2.5003368854522705
40	192.11207604408264	pulse	1	t		38.0	2.5	/experiments/knapen_AOT/AOT_stimuli/rescaled_final/1754_rv.mp4	0.0	221.5543282032013	
40	193.71233701705933	pulse	1	t		38.0	2.5	/experiments/knapen_AOT/AOT_stimuli/rescaled_final/1754_rv.mp4	0.0	223.15458917617798	
40	193.8287708759308	fix_post	2		12	38.0	2.5	/experiments/knapen_AOT/AOT_stimuli/rescaled_final/1754_rv.mp4	0.0	223.27102303504944	0.10007500648498535
41	193.92884588241577	fix_pre	0		120	39.0	2.5	/experiments/knapen_AOT/AOT_stimuli/rescaled_final/0007_fw.mp4	0.0	223.37109804153442	1.0001320838928223
41	194.9289779663086	movie	1		244	39.0	2.5	/experiments/knapen_AOT/AOT_stimuli/rescaled_final/0007_fw.mp4	0.0	224.37123012542725	2.4920809268951416
41	195.31322193145752	pulse	1	t		39.0	2.5	/experiments/knapen_AOT/AOT_stimuli/rescaled_final/0007_fw.mp4	0.0	224.75547409057617	
41	196.91284799575806	pulse	1	t		39.0	2.5	/experiments/knapen_AOT/AOT_stimuli/rescaled_final/0007_fw.mp4	0.0	226.3551001548767	
41	197.42105889320374	fix_post	2		12	39.0	2.5	/experiments/knapen_AOT/AOT_stimuli/rescaled_final/0007_fw.mp4	0.0	226.8633110523224	0.09996819496154785
42	197.52102708816528	fix_pre	0		120	40.0	2.5	/experiments/knapen_AOT/AOT_stimuli/rescaled_final/0934_rv.mp4	0.0	226.96327924728394	1.0001440048217773
42	198.51309490203857	pulse	0	t		40.0	2.5	/experiments/knapen_AOT/AOT_stimuli/rescaled_final/0934_rv.mp4	0.0	227.95534706115723	
42	198.52117109298706	movie	1		248	40.0	2.5	/experiments/knapen_AOT/AOT_stimuli/rescaled_final/0934_rv.mp4	0.0	227.9634232521057	2.5088419914245605
42	200.11394000053406	pulse	1	t		40.0	2.5	/experiments/knapen_AOT/AOT_stimuli/rescaled_final/0934_rv.mp4	0.0	229.5561921596527	
42	201.03001308441162	fix_post	2		12	40.0	2.5	/experiments/knapen_AOT/AOT_stimuli/rescaled_final/0934_rv.mp4	0.0	230.47226524353027	0.09988999366760254
43	201.12990307807922	fix_pre	0		116	41.0	2.5	/experiments/knapen_AOT/AOT_stimuli/rescaled_final/0286_rv.mp4	0.0	230.57215523719788	1.0001518726348877
43	201.71363401412964	pulse	0	t		41.0	2.5	/experiments/knapen_AOT/AOT_stimuli/rescaled_final/0286_rv.mp4	0.0	231.1558861732483	
43	202.1300549507141	movie	1		245	41.0	2.5	/experiments/knapen_AOT/AOT_stimuli/rescaled_final/0286_rv.mp4	0.0	231.57230710983276	2.5004971027374268
43	203.31386804580688	pulse	1	t		41.0	2.5	/experiments/knapen_AOT/AOT_stimuli/rescaled_final/0286_rv.mp4	0.0	232.75612020492554	
43	204.63055205345154	fix_post	2		12	41.0	2.5	/experiments/knapen_AOT/AOT_stimuli/rescaled_final/0286_rv.mp4	0.0	234.0728042125702	0.09989786148071289
44	204.73044991493225	fix_pre	0		120	42.0	2.5	blank	1.0	234.1727020740509	1.0001420974731445
44	204.91403198242188	pulse	0	t		42.0	2.5	blank	1.0	234.35628414154053	
44	205.7305920124054	movie	1		300	42.0	2.5	blank	1.0	235.17284417152405	2.500377893447876
44	206.51418709754944	pulse	1	t		42.0	2.5	blank	1.0	235.9564392566681	
44	208.114590883255	pulse	1	t		42.0	2.5	blank	1.0	237.55684304237366	
44	208.23096990585327	fix_post	2		12	42.0	2.5	blank	1.0	237.67322206497192	0.09999513626098633
45	208.33096504211426	fix_pre	0		119	43.0	2.5	/experiments/knapen_AOT/AOT_stimuli/rescaled_final/1123_fw.mp4	0.0	237.7732172012329	0.9917938709259033
45	209.32275891304016	movie	1		246	43.0	2.5	/experiments/knapen_AOT/AOT_stimuli/rescaled_final/1123_fw.mp4	0.0	238.7650110721588	2.500476121902466
45	209.71479606628418	pulse	1	t		43.0	2.5	/experiments/knapen_AOT/AOT_stimuli/rescaled_final/1123_fw.mp4	0.0	239.15704822540283	
45	211.3149540424347	pulse	1	t		43.0	2.5	/experiments/knapen_AOT/AOT_stimuli/rescaled_final/1123_fw.mp4	0.0	240.75720620155334	
45	211.82323503494263	fix_post	2		12	43.0	2.5	/experiments/knapen_AOT/AOT_stimuli/rescaled_final/1123_fw.mp4	0.0	241.26548719406128	0.09999895095825195
46	211.92323398590088	fix_pre	0		120	44.0	2.5	/experiments/knapen_AOT/AOT_stimuli/rescaled_final/1008_rv.mp4	0.0	241.36548614501953	1.000096082687378
46	212.91515588760376	pulse	0	t		44.0	2.5	/experiments/knapen_AOT/AOT_stimuli/rescaled_final/1008_rv.mp4	0.0	242.3574080467224	
46	212.92333006858826	movie	1		246	44.0	2.5	/experiments/knapen_AOT/AOT_stimuli/rescaled_final/1008_rv.mp4	0.0	242.3655822277069	2.508697986602783
46	214.5165069103241	pulse	1	t		44.0	2.5	/experiments/knapen_AOT/AOT_stimuli/rescaled_final/1008_rv.mp4	0.0	243.95875906944275	
46	215.43202805519104	fix_post	2		12	44.0	2.5	/experiments/knapen_AOT/AOT_stimuli/rescaled_final/1008_rv.mp4	0.0	244.8742802143097	0.10001683235168457
47	215.53204488754272	fix_pre	0		120	45.0	2.5	/experiments/knapen_AOT/AOT_stimuli/rescaled_final/0628_rv.mp4	0.0	244.97429704666138	1.0001630783081055
47	216.10815000534058	pulse	0	t		45.0	2.5	/experiments/knapen_AOT/AOT_stimuli/rescaled_final/0628_rv.mp4	0.0	245.55040216445923	
47	216.53220796585083	movie	1		248	45.0	2.5	/experiments/knapen_AOT/AOT_stimuli/rescaled_final/0628_rv.mp4	0.0	245.97446012496948	2.500356912612915
47	217.71589589118958	pulse	1	t		45.0	2.5	/experiments/knapen_AOT/AOT_stimuli/rescaled_final/0628_rv.mp4	0.0	247.15814805030823	
47	219.03256487846375	fix_post	2		12	45.0	2.5	/experiments/knapen_AOT/AOT_stimuli/rescaled_final/0628_rv.mp4	0.0	248.4748170375824	0.09998106956481934
48	219.13254594802856	fix_pre	0		120	46.0	2.5	/experiments/knapen_AOT/AOT_stimuli/rescaled_final/0047_rv.mp4	0.0	248.57479810714722	1.0001990795135498
48	219.30863189697266	pulse	0	t		46.0	2.5	/experiments/knapen_AOT/AOT_stimuli/rescaled_final/0047_rv.mp4	0.0	248.7508840560913	
48	220.13274502754211	movie	1		247	46.0	2.5	/experiments/knapen_AOT/AOT_stimuli/rescaled_final/0047_rv.mp4	0.0	249.57499718666077	2.5003459453582764
48	220.90894603729248	pulse	1	t		46.0	2.5	/experiments/knapen_AOT/AOT_stimuli/rescaled_final/0047_rv.mp4	0.0	250.35119819641113	
48	222.50838088989258	pulse	1	t		46.0	2.5	/experiments/knapen_AOT/AOT_stimuli/rescaled_final/0047_rv.mp4	0.0	251.95063304901123	
48	222.6330909729004	fix_post	2		12	46.0	2.5	/experiments/knapen_AOT/AOT_stimuli/rescaled_final/0047_rv.mp4	0.0	252.07534313201904	0.10008406639099121
49	222.73317503929138	fix_pre	0		119	47.0	2.5	blank	1.0	252.17542719841003	0.9917378425598145
49	223.7249128818512	movie	1		300	47.0	2.5	blank	1.0	253.16716504096985	2.500418186187744
49	224.10849809646606	pulse	1	t		47.0	2.5	blank	1.0	253.55075025558472	
49	225.70884609222412	pulse	1	t		47.0	2.5	blank	1.0	255.15109825134277	
49	226.22533106803894	fix_post	2		12	47.0	2.5	blank	1.0	255.6675832271576	0.0999898910522461
50	226.3253209590912	fix_pre	0		119	48.0	2.5	/experiments/knapen_AOT/AOT_stimuli/rescaled_final/2100_rv.mp4	0.0	255.76757311820984	0.9918429851531982
50	227.30895805358887	pulse	0	t		48.0	2.5	/experiments/knapen_AOT/AOT_stimuli/rescaled_final/2100_rv.mp4	0.0	256.7512102127075	
50	227.31716394424438	movie	1		250	48.0	2.5	/experiments/knapen_AOT/AOT_stimuli/rescaled_final/2100_rv.mp4	0.0	256.75941610336304	2.5088329315185547
50	228.9094889163971	pulse	1	t		48.0	2.5	/experiments/knapen_AOT/AOT_stimuli/rescaled_final/2100_rv.mp4	0.0	258.35174107551575	
50	229.82599687576294	fix_post	2		12	48.0	2.5	/experiments/knapen_AOT/AOT_stimuli/rescaled_final/2100_rv.mp4	0.0	259.2682490348816	0.0998990535736084
51	229.92589592933655	fix_pre	0		120	49.0	2.5	/experiments/knapen_AOT/AOT_stimuli/rescaled_final/1395_rv.mp4	0.0	259.3681480884552	1.0001180171966553
51	230.50945591926575	pulse	0	t		49.0	2.5	/experiments/knapen_AOT/AOT_stimuli/rescaled_final/1395_rv.mp4	0.0	259.9517080783844	
51	230.9260139465332	movie	1		245	49.0	2.5	/experiments/knapen_AOT/AOT_stimuli/rescaled_final/1395_rv.mp4	0.0	260.36826610565186	2.5003950595855713
51	232.10979795455933	pulse	1	t		49.0	2.5	/experiments/knapen_AOT/AOT_stimuli/rescaled_final/1395_rv.mp4	0.0	261.552050113678	
51	233.42640900611877	fix_post	2		12	49.0	2.5	/experiments/knapen_AOT/AOT_stimuli/rescaled_final/1395_rv.mp4	0.0	262.8686611652374	0.10007095336914062
52	233.52647995948792	fix_pre	0		120	50.0	2.5	/experiments/knapen_AOT/AOT_stimuli/rescaled_final/1335_fw.mp4	0.0	262.96873211860657	1.0000429153442383
52	233.71005201339722	pulse	0	t		50.0	2.5	/experiments/knapen_AOT/AOT_stimuli/rescaled_final/1335_fw.mp4	0.0	263.15230417251587	
52	234.52652287483215	movie	1		244	50.0	2.5	/experiments/knapen_AOT/AOT_stimuli/rescaled_final/1335_fw.mp4	0.0	263.9687750339508	2.500364065170288
52	235.31015300750732	pulse	1	t		50.0	2.5	/experiments/knapen_AOT/AOT_stimuli/rescaled_final/1335_fw.mp4	0.0	264.752405166626	
52	236.9103729724884	pulse	1	t		50.0	2.5	/experiments/knapen_AOT/AOT_stimuli/rescaled_final/1335_fw.mp4	0.0	266.35262513160706	
52	237.02688694000244	fix_post	2		12	50.0	2.5	/experiments/knapen_AOT/AOT_stimuli/rescaled_final/1335_fw.mp4	0.0	266.4691390991211	0.10004806518554688
53	237.126935005188	fix_pre	0		119	51.0	2.5	/experiments/knapen_AOT/AOT_stimuli/rescaled_final/1683_rv.mp4	0.0	266.56918716430664	0.9918179512023926
53	238.11875295639038	movie	1		246	51.0	2.5	/experiments/knapen_AOT/AOT_stimuli/rescaled_final/1683_rv.mp4	0.0	267.56100511550903	2.5004160404205322
53	238.5107810497284	pulse	1	t		51.0	2.5	/experiments/knapen_AOT/AOT_stimuli/rescaled_final/1683_rv.mp4	0.0	267.95303320884705	
53	240.1109778881073	pulse	1	t		51.0	2.5	/experiments/knapen_AOT/AOT_stimuli/rescaled_final/1683_rv.mp4	0.0	269.55323004722595	
53	240.6191689968109	fix_post	2		12	51.0	2.5	/experiments/knapen_AOT/AOT_stimuli/rescaled_final/1683_rv.mp4	0.0	270.06142115592957	0.09997701644897461
54	240.7191460132599	fix_pre	0		120	52.0	2.5	/experiments/knapen_AOT/AOT_stimuli/rescaled_final/0669_fw.mp4	0.0	270.16139817237854	1.000182867050171
54	241.71112298965454	pulse	0	t		52.0	2.5	/experiments/knapen_AOT/AOT_stimuli/rescaled_final/0669_fw.mp4	0.0	271.1533751487732	
54	241.71932888031006	movie	1		246	52.0	2.5	/experiments/knapen_AOT/AOT_stimuli/rescaled_final/0669_fw.mp4	0.0	271.1615810394287	2.5086731910705566
54	243.31178092956543	pulse	1	t		52.0	2.5	/experiments/knapen_AOT/AOT_stimuli/rescaled_final/0669_fw.mp4	0.0	272.7540330886841	
54	244.22800207138062	fix_post	2		12	52.0	2.5	/experiments/knapen_AOT/AOT_stimuli/rescaled_final/0669_fw.mp4	0.0	273.67025423049927	0.09995889663696289
55	244.32796096801758	fix_pre	0		120	53.0	2.5	/experiments/knapen_AOT/AOT_stimuli/rescaled_final/0521_fw.mp4	0.0	273.77021312713623	1.000169038772583
55	244.91172409057617	pulse	0	t		53.0	2.5	/experiments/knapen_AOT/AOT_stimuli/rescaled_final/0521_fw.mp4	0.0	274.3539762496948	
55	245.32813000679016	movie	1		246	53.0	2.5	/experiments/knapen_AOT/AOT_stimuli/rescaled_final/0521_fw.mp4	0.0	274.7703821659088	2.5004539489746094
55	246.51199889183044	pulse	1	t		53.0	2.5	/experiments/knapen_AOT/AOT_stimuli/rescaled_final/0521_fw.mp4	0.0	275.9542510509491	
55	247.82858395576477	fix_post	2		12	53.0	2.5	/experiments/knapen_AOT/AOT_stimuli/rescaled_final/0521_fw.mp4	0.0	277.2708361148834	0.09995913505554199
56	247.9285430908203	fix_pre	0		120	54.0	2.5	/experiments/knapen_AOT/AOT_stimuli/rescaled_final/0656_rv.mp4	0.0	277.37079524993896	1.000112771987915
56	248.11210703849792	pulse	0	t		54.0	2.5	/experiments/knapen_AOT/AOT_stimuli/rescaled_final/0656_rv.mp4	0.0	277.5543591976166	
56	248.92865586280823	movie	1		245	54.0	2.5	/experiments/knapen_AOT/AOT_stimuli/rescaled_final/0656_rv.mp4	0.0	278.3709080219269	2.500427007675171
56	249.71230792999268	pulse	1	t		54.0	2.5	/experiments/knapen_AOT/AOT_stimuli/rescaled_final/0656_rv.mp4	0.0	279.1545600891113	
56	251.31021904945374	pulse	1	t		54.0	2.5	/experiments/knapen_AOT/AOT_stimuli/rescaled_final/0656_rv.mp4	0.0	280.7524712085724	
56	251.4290828704834	fix_post	2		12	54.0	2.5	/experiments/knapen_AOT/AOT_stimuli/rescaled_final/0656_rv.mp4	0.0	280.87133502960205	0.10005021095275879
57	251.52913308143616	fix_pre	0		119	55.0	2.5	blank	1.0	280.9713852405548	0.9917550086975098
57	252.52088809013367	movie	1		300	55.0	2.5	blank	1.0	281.9631402492523	2.5003838539123535
57	252.91294693946838	pulse	1	t		55.0	2.5	blank	1.0	282.35519909858704	
57	254.5131058692932	pulse	1	t		55.0	2.5	blank	1.0	283.95535802841187	
57	255.02127194404602	fix_post	2		12	55.0	2.5	blank	1.0	284.4635241031647	0.10001301765441895
58	255.12128496170044	fix_pre	0		120	56.0	2.5	/experiments/knapen_AOT/AOT_stimuli/rescaled_final/0318_rv.mp4	0.0	284.5635371208191	1.0001630783081055
58	256.11325907707214	pulse	0	t		56.0	2.5	/experiments/knapen_AOT/AOT_stimuli/rescaled_final/0318_rv.mp4	0.0	285.5555112361908	
58	256.12144804000854	movie	1		248	56.0	2.5	/experiments/knapen_AOT/AOT_stimuli/rescaled_final/0318_rv.mp4	0.0	285.5637001991272	2.5086779594421387
58	257.71385288238525	pulse	1	t		56.0	2.5	/experiments/knapen_AOT/AOT_stimuli/rescaled_final/0318_rv.mp4	0.0	287.1561050415039	
58	258.6301259994507	fix_post	2		12	56.0	2.5	/experiments/knapen_AOT/AOT_stimuli/rescaled_final/0318_rv.mp4	0.0	288.07237815856934	0.10002589225769043
59	258.7301518917084	fix_pre	0		120	57.0	2.5	/experiments/knapen_AOT/AOT_stimuli/rescaled_final/1487_rv.mp4	0.0	288.172404050827	1.0001561641693115
59	259.3137650489807	pulse	0	t		57.0	2.5	/experiments/knapen_AOT/AOT_stimuli/rescaled_final/1487_rv.mp4	0.0	288.75601720809937	
59	259.7303080558777	movie	1		247	57.0	2.5	/experiments/knapen_AOT/AOT_stimuli/rescaled_final/1487_rv.mp4	0.0	289.17256021499634	2.500342845916748
59	260.9096848964691	pulse	1	t		57.0	2.5	/experiments/knapen_AOT/AOT_stimuli/rescaled_final/1487_rv.mp4	0.0	290.35193705558777	
59	262.23065090179443	fix_post	2		12	57.0	2.5	/experiments/knapen_AOT/AOT_stimuli/rescaled_final/1487_rv.mp4	0.0	291.6729030609131	0.1000220775604248
60	262.33067297935486	fix_pre	0		120	58.0	2.5	/experiments/knapen_AOT/AOT_stimuli/rescaled_final/0798_fw.mp4	0.0	291.7729251384735	1.000169038772583
60	262.5142660140991	pulse	0	t		58.0	2.5	/experiments/knapen_AOT/AOT_stimuli/rescaled_final/0798_fw.mp4	0.0	291.9565181732178	
60	263.33084201812744	movie	1		246	58.0	2.5	/experiments/knapen_AOT/AOT_stimuli/rescaled_final/0798_fw.mp4	0.0	292.7730941772461	2.5016510486602783
60	264.1144690513611	pulse	1	t		58.0	2.5	/experiments/knapen_AOT/AOT_stimuli/rescaled_final/0798_fw.mp4	0.0	293.55672121047974	
60	265.7148129940033	pulse	1	t		58.0	2.5	/experiments/knapen_AOT/AOT_stimuli/rescaled_final/0798_fw.mp4	0.0	295.15706515312195	
60	265.8324930667877	fix_post	2		8	58.0	2.5	/experiments/knapen_AOT/AOT_stimuli/rescaled_final/0798_fw.mp4	0.0	295.2747452259064	0.09876894950866699
61	265.9312620162964	fix_pre	0		119	59.0	2.5	/experiments/knapen_AOT/AOT_stimuli/rescaled_final/1315_rv.mp4	0.0	295.37351417541504	0.9918110370635986
61	266.92307305336	movie	1		246	59.0	2.5	/experiments/knapen_AOT/AOT_stimuli/rescaled_final/1315_rv.mp4	0.0	296.36532521247864	2.500298023223877
61	267.3084170818329	pulse	1	t		59.0	2.5	/experiments/knapen_AOT/AOT_stimuli/rescaled_final/1315_rv.mp4	0.0	296.75066924095154	
61	268.90810203552246	pulse	1	t		59.0	2.5	/experiments/knapen_AOT/AOT_stimuli/rescaled_final/1315_rv.mp4	0.0	298.3503541946411	
61	269.42337107658386	fix_post	2		12	59.0	2.5	/experiments/knapen_AOT/AOT_stimuli/rescaled_final/1315_rv.mp4	0.0	298.8656232357025	0.10004281997680664
62	269.52341389656067	fix_pre	0		120	60.0	2.5	/experiments/knapen_AOT/AOT_stimuli/rescaled_final/1806_fw.mp4	0.0	298.9656660556793	1.00018310546875
62	270.5078408718109	pulse	0	t		60.0	2.5	/experiments/knapen_AOT/AOT_stimuli/rescaled_final/1806_fw.mp4	0.0	299.95009303092957	
62	270.5235970020294	movie	1		248	60.0	2.5	/experiments/knapen_AOT/AOT_stimuli/rescaled_final/1806_fw.mp4	0.0	299.96584916114807	2.5086660385131836
62	272.11631202697754	pulse	1	t		60.0	2.5	/experiments/knapen_AOT/AOT_stimuli/rescaled_final/1806_fw.mp4	0.0	301.5585641860962	
62	273.0322630405426	fix_post	2		12	60.0	2.5	/experiments/knapen_AOT/AOT_stimuli/rescaled_final/1806_fw.mp4	0.0	302.47451519966125	0.10002398490905762
63	273.13228702545166	fix_pre	0		120	61.0	2.5	/experiments/knapen_AOT/AOT_stimuli/rescaled_final/0058_fw.mp4	0.0	302.5745391845703	1.0001490116119385
63	273.7083840370178	pulse	0	t		61.0	2.5	/experiments/knapen_AOT/AOT_stimuli/rescaled_final/0058_fw.mp4	0.0	303.1506361961365	
63	274.1324360370636	movie	1		248	61.0	2.5	/experiments/knapen_AOT/AOT_stimuli/rescaled_final/0058_fw.mp4	0.0	303.57468819618225	2.5004138946533203
63	275.30830001831055	pulse	1	t		61.0	2.5	/experiments/knapen_AOT/AOT_stimuli/rescaled_final/0058_fw.mp4	0.0	304.7505521774292	
63	276.6328499317169	fix_post	2		12	61.0	2.5	/experiments/knapen_AOT/AOT_stimuli/rescaled_final/0058_fw.mp4	0.0	306.07510209083557	0.09998703002929688
64	276.7328369617462	fix_pre	0		120	62.0	2.5	blank	1.0	306.17508912086487	1.0001559257507324
64	276.90802001953125	pulse	0	t		62.0	2.5	blank	1.0	306.3502721786499	
64	277.73299288749695	movie	1		300	62.0	2.5	blank	1.0	307.1752450466156	2.500385046005249
64	278.5085029602051	pulse	1	t		62.0	2.5	blank	1.0	307.95075511932373	
64	280.1085479259491	pulse	1	t		62.0	2.5	blank	1.0	309.55080008506775	
64	280.2333779335022	fix_post	2		12	62.0	2.5	blank	1.0	309.67563009262085	0.09999203681945801
65	280.33336997032166	fix_pre	0		119	63.0	2.5	/experiments/knapen_AOT/AOT_stimuli/rescaled_final/0968_fw.mp4	0.0	309.7756221294403	0.9918479919433594
65	281.325217962265	movie	1		247	63.0	2.5	/experiments/knapen_AOT/AOT_stimuli/rescaled_final/0968_fw.mp4	0.0	310.76747012138367	2.5003879070281982
65	281.7092230319977	pulse	1	t		63.0	2.5	/experiments/knapen_AOT/AOT_stimuli/rescaled_final/0968_fw.mp4	0.0	311.15147519111633	
65	283.3091049194336	pulse	1	t		63.0	2.5	/experiments/knapen_AOT/AOT_stimuli/rescaled_final/0968_fw.mp4	0.0	312.75135707855225	
65	283.8256058692932	fix_post	2		12	63.0	2.5	/experiments/knapen_AOT/AOT_stimuli/rescaled_final/0968_fw.mp4	0.0	313.26785802841187	0.09998106956481934
66	283.92558693885803	fix_pre	0		119	64.0	2.5	/experiments/knapen_AOT/AOT_stimuli/rescaled_final/0669_rv.mp4	0.0	313.3678390979767	0.9918529987335205
66	284.90928292274475	pulse	0	t		64.0	2.5	/experiments/knapen_AOT/AOT_stimuli/rescaled_final/0669_rv.mp4	0.0	314.3515350818634	
66	284.91743993759155	movie	1		247	64.0	2.5	/experiments/knapen_AOT/AOT_stimuli/rescaled_final/0669_rv.mp4	0.0	314.3596920967102	2.5087881088256836
66	286.50994396209717	pulse	1	t		64.0	2.5	/experiments/knapen_AOT/AOT_stimuli/rescaled_final/0669_rv.mp4	0.0	315.9521961212158	
66	287.42622804641724	fix_post	2		12	64.0	2.5	/experiments/knapen_AOT/AOT_stimuli/rescaled_final/0669_rv.mp4	0.0	316.8684802055359	0.09987187385559082
67	287.5260999202728	fix_pre	0		120	65.0	2.5	/experiments/knapen_AOT/AOT_stimuli/rescaled_final/2100_rv.mp4	0.0	316.9683520793915	1.0001780986785889
67	288.1097688674927	pulse	0	t		65.0	2.5	/experiments/knapen_AOT/AOT_stimuli/rescaled_final/2100_rv.mp4	0.0	317.5520210266113	
67	288.5262780189514	movie	1		245	65.0	2.5	/experiments/knapen_AOT/AOT_stimuli/rescaled_final/2100_rv.mp4	0.0	317.96853017807007	2.5004160404205322
67	289.71008491516113	pulse	1	t		65.0	2.5	/experiments/knapen_AOT/AOT_stimuli/rescaled_final/2100_rv.mp4	0.0	319.1523370742798	
67	291.02669405937195	fix_post	2		12	65.0	2.5	/experiments/knapen_AOT/AOT_stimuli/rescaled_final/2100_rv.mp4	0.0	320.4689462184906	0.09995293617248535
68	291.12664699554443	fix_pre	0		120	66.0	2.5	/experiments/knapen_AOT/AOT_stimuli/rescaled_final/1697_rv.mp4	0.0	320.5688991546631	1.0002050399780273
68	291.31031608581543	pulse	0	t		66.0	2.5	/experiments/knapen_AOT/AOT_stimuli/rescaled_final/1697_rv.mp4	0.0	320.7525682449341	
68	292.12685203552246	movie	1		246	66.0	2.5	/experiments/knapen_AOT/AOT_stimuli/rescaled_final/1697_rv.mp4	0.0	321.5691041946411	2.500339984893799
68	292.9106168746948	pulse	1	t		66.0	2.5	/experiments/knapen_AOT/AOT_stimuli/rescaled_final/1697_rv.mp4	0.0	322.3528690338135	
68	294.51080799102783	pulse	1	t		66.0	2.5	/experiments/knapen_AOT/AOT_stimuli/rescaled_final/1697_rv.mp4	0.0	323.9530601501465	
68	294.62719202041626	fix_post	2		12	66.0	2.5	/experiments/knapen_AOT/AOT_stimuli/rescaled_final/1697_rv.mp4	0.0	324.0694441795349	0.10008788108825684
69	294.7272799015045	fix_pre	0		120	67.0	2.5	/experiments/knapen_AOT/AOT_stimuli/rescaled_final/0296_fw.mp4	0.0	324.16953206062317	1.0001120567321777
69	295.7273919582367	movie	1		246	67.0	2.5	/experiments/knapen_AOT/AOT_stimuli/rescaled_final/0296_fw.mp4	0.0	325.16964411735535	2.4919700622558594
69	296.1152780056	pulse	1	t		67.0	2.5	/experiments/knapen_AOT/AOT_stimuli/rescaled_final/0296_fw.mp4	0.0	325.5575301647186	
69	297.71119594573975	pulse	1	t		67.0	2.5	/experiments/knapen_AOT/AOT_stimuli/rescaled_final/0296_fw.mp4	0.0	327.1534481048584	
69	298.21936202049255	fix_post	2		12	67.0	2.5	/experiments/knapen_AOT/AOT_stimuli/rescaled_final/0296_fw.mp4	0.0	327.6616141796112	0.1001138687133789
70	298.31947588920593	fix_pre	0		120	68.0	2.5	/experiments/knapen_AOT/AOT_stimuli/rescaled_final/0084_rv.mp4	0.0	327.7617280483246	1.0001661777496338
70	299.3114938735962	pulse	0	t		68.0	2.5	/experiments/knapen_AOT/AOT_stimuli/rescaled_final/0084_rv.mp4	0.0	328.75374603271484	
70	299.31964206695557	movie	1		248	68.0	2.5	/experiments/knapen_AOT/AOT_stimuli/rescaled_final/0084_rv.mp4	0.0	328.7618942260742	2.508586883544922
70	300.91209292411804	pulse	1	t		68.0	2.5	/experiments/knapen_AOT/AOT_stimuli/rescaled_final/0084_rv.mp4	0.0	330.3543450832367	
70	301.8282289505005	fix_post	2		12	68.0	2.5	/experiments/knapen_AOT/AOT_stimuli/rescaled_final/0084_rv.mp4	0.0	331.27048110961914	0.10005307197570801
71	301.9282820224762	fix_pre	0		120	69.0	2.5	/experiments/knapen_AOT/AOT_stimuli/rescaled_final/1181_rv.mp4	0.0	331.37053418159485	1.0001649856567383
71	302.5119469165802	pulse	0	t		69.0	2.5	/experiments/knapen_AOT/AOT_stimuli/rescaled_final/1181_rv.mp4	0.0	331.95419907569885	
71	302.92844700813293	movie	1		245	69.0	2.5	/experiments/knapen_AOT/AOT_stimuli/rescaled_final/1181_rv.mp4	0.0	332.3706991672516	2.500380039215088
71	304.11218309402466	pulse	1	t		69.0	2.5	/experiments/knapen_AOT/AOT_stimuli/rescaled_final/1181_rv.mp4	0.0	333.5544352531433	
71	305.428827047348	fix_post	2		12	69.0	2.5	/experiments/knapen_AOT/AOT_stimuli/rescaled_final/1181_rv.mp4	0.0	334.8710792064667	0.09999895095825195
72	305.5288259983063	fix_pre	0		120	70.0	2.5	blank	1.0	334.9710781574249	1.0001740455627441
72	305.71249294281006	pulse	0	t		70.0	2.5	blank	1.0	335.1547451019287	
72	306.529000043869	movie	1		300	70.0	2.5	blank	1.0	335.97125220298767	2.5003550052642822
72	307.31275391578674	pulse	1	t		70.0	2.5	blank	1.0	336.7550060749054	
72	308.91291308403015	pulse	1	t		70.0	2.5	blank	1.0	338.3551652431488	
72	309.0293550491333	fix_post	2		12	70.0	2.5	blank	1.0	338.47160720825195	0.10004091262817383
73	309.1293959617615	fix_pre	0		120	71.0	2.5	/experiments/knapen_AOT/AOT_stimuli/rescaled_final/1680_rv.mp4	0.0	338.5716481208801	1.000162124633789
73	310.12955808639526	movie	1		245	71.0	2.5	/experiments/knapen_AOT/AOT_stimuli/rescaled_final/1680_rv.mp4	0.0	339.5718102455139	2.491938829421997
73	310.5134210586548	pulse	1	t		71.0	2.5	/experiments/knapen_AOT/AOT_stimuli/rescaled_final/1680_rv.mp4	0.0	339.95567321777344	
73	312.11338996887207	pulse	1	t		71.0	2.5	/experiments/knapen_AOT/AOT_stimuli/rescaled_final/1680_rv.mp4	0.0	341.5556421279907	
73	312.62149691581726	fix_post	2		12	71.0	2.5	/experiments/knapen_AOT/AOT_stimuli/rescaled_final/1680_rv.mp4	0.0	342.0637490749359	0.10003399848937988
74	312.72153091430664	fix_pre	0		120	72.0	2.5	/experiments/knapen_AOT/AOT_stimuli/rescaled_final/0107_rv.mp4	0.0	342.1637830734253	1.0001921653747559
74	313.71368408203125	pulse	0	t		72.0	2.5	/experiments/knapen_AOT/AOT_stimuli/rescaled_final/0107_rv.mp4	0.0	343.1559362411499	
74	313.7217230796814	movie	1		246	72.0	2.5	/experiments/knapen_AOT/AOT_stimuli/rescaled_final/0107_rv.mp4	0.0	343.16397523880005	2.508680820465088
74	315.3143570423126	pulse	1	t		72.0	2.5	/experiments/knapen_AOT/AOT_stimuli/rescaled_final/0107_rv.mp4	0.0	344.7566092014313	
74	316.2304039001465	fix_post	2		12	72.0	2.5	/experiments/knapen_AOT/AOT_stimuli/rescaled_final/0107_rv.mp4	0.0	345.67265605926514	0.10003399848937988
75	316.33043789863586	fix_pre	0		120	73.0	2.5	/experiments/knapen_AOT/AOT_stimuli/rescaled_final/1079_rv.mp4	0.0	345.7726900577545	1.000162124633789
75	316.914067029953	pulse	0	t		73.0	2.5	/experiments/knapen_AOT/AOT_stimuli/rescaled_final/1079_rv.mp4	0.0	346.35631918907166	
75	317.33060002326965	movie	1		245	73.0	2.5	/experiments/knapen_AOT/AOT_stimuli/rescaled_final/1079_rv.mp4	0.0	346.7728521823883	2.5004420280456543
75	318.51435589790344	pulse	1	t		73.0	2.5	/experiments/knapen_AOT/AOT_stimuli/rescaled_final/1079_rv.mp4	0.0	347.9566080570221	
75	319.8310420513153	fix_post	2		12	73.0	2.5	/experiments/knapen_AOT/AOT_stimuli/rescaled_final/1079_rv.mp4	0.0	349.27329421043396	0.09990382194519043
76	319.9309458732605	fix_pre	0		120	74.0	2.5	/experiments/knapen_AOT/AOT_stimuli/rescaled_final/0638_fw.mp4	0.0	349.37319803237915	1.0001931190490723
76	320.11465787887573	pulse	0	t		74.0	2.5	/experiments/knapen_AOT/AOT_stimuli/rescaled_final/0638_fw.mp4	0.0	349.5569100379944	
76	320.93113899230957	movie	1		248	74.0	2.5	/experiments/knapen_AOT/AOT_stimuli/rescaled_final/0638_fw.mp4	0.0	350.3733911514282	2.500441074371338
76	321.714891910553	pulse	1	t		74.0	2.5	/experiments/knapen_AOT/AOT_stimuli/rescaled_final/0638_fw.mp4	0.0	351.15714406967163	
76	323.3151090145111	pulse	1	t		74.0	2.5	/experiments/knapen_AOT/AOT_stimuli/rescaled_final/0638_fw.mp4	0.0	352.75736117362976	
76	323.4315800666809	fix_post	2		12	74.0	2.5	/experiments/knapen_AOT/AOT_stimuli/rescaled_final/0638_fw.mp4	0.0	352.87383222579956	0.09995388984680176
77	323.5315339565277	fix_pre	0		120	75.0	2.5	/experiments/knapen_AOT/AOT_stimuli/rescaled_final/1442_rv.mp4	0.0	352.97378611564636	1.0001459121704102
77	324.5316798686981	movie	1		245	75.0	2.5	/experiments/knapen_AOT/AOT_stimuli/rescaled_final/1442_rv.mp4	0.0	353.9739320278168	2.4921112060546875
77	324.9160089492798	pulse	1	t		75.0	2.5	/experiments/knapen_AOT/AOT_stimuli/rescaled_final/1442_rv.mp4	0.0	354.35826110839844	
77	326.5156090259552	pulse	1	t		75.0	2.5	/experiments/knapen_AOT/AOT_stimuli/rescaled_final/1442_rv.mp4	0.0	355.95786118507385	
77	327.0237910747528	fix_post	2		12	75.0	2.5	/experiments/knapen_AOT/AOT_stimuli/rescaled_final/1442_rv.mp4	0.0	356.46604323387146	0.09992098808288574
78	327.1237120628357	fix_pre	0		120	76.0	2.5	/experiments/knapen_AOT/AOT_stimuli/rescaled_final/0226_fw.mp4	0.0	356.56596422195435	1.000175952911377
78	328.1082410812378	pulse	0	t		76.0	2.5	/experiments/knapen_AOT/AOT_stimuli/rescaled_final/0226_fw.mp4	0.0	357.55049324035645	
78	328.12388801574707	movie	1		249	76.0	2.5	/experiments/knapen_AOT/AOT_stimuli/rescaled_final/0226_fw.mp4	0.0	357.5661401748657	2.508681058883667
78	329.7164309024811	pulse	1	t		76.0	2.5	/experiments/knapen_AOT/AOT_stimuli/rescaled_final/0226_fw.mp4	0.0	359.15868306159973	
78	330.63256907463074	fix_post	2		12	76.0	2.5	/experiments/knapen_AOT/AOT_stimuli/rescaled_final/0226_fw.mp4	0.0	360.0748212337494	0.10002493858337402
79	330.7325940132141	fix_pre	0		116	77.0	2.5	blank	1.0	360.17484617233276	1.000169038772583
79	331.3087239265442	pulse	0	t		77.0	2.5	blank	1.0	360.75097608566284	
79	331.7327630519867	movie	1		300	77.0	2.5	blank	1.0	361.17501521110535	2.5003490447998047
79	332.90890288352966	pulse	1	t		77.0	2.5	blank	1.0	362.3511550426483	
79	334.2331120967865	fix_post	2		12	77.0	2.5	blank	1.0	363.67536425590515	0.09995293617248535
80	334.333065032959	fix_pre	0		120	78.0	2.5	/experiments/knapen_AOT/AOT_stimuli/rescaled_final/1048_fw.mp4	0.0	363.77531719207764	1.0002059936523438
80	334.5085048675537	pulse	0	t		78.0	2.5	/experiments/knapen_AOT/AOT_stimuli/rescaled_final/1048_fw.mp4	0.0	363.95075702667236	
80	335.3332710266113	movie	1		247	78.0	2.5	/experiments/knapen_AOT/AOT_stimuli/rescaled_final/1048_fw.mp4	0.0	364.77552318573	2.5003879070281982
80	336.1085350513458	pulse	1	t		78.0	2.5	/experiments/knapen_AOT/AOT_stimuli/rescaled_final/1048_fw.mp4	0.0	365.5507872104645	
80	337.7088689804077	pulse	1	t		78.0	2.5	/experiments/knapen_AOT/AOT_stimuli/rescaled_final/1048_fw.mp4	0.0	367.15112113952637	
80	337.8336589336395	fix_post	2		12	78.0	2.5	/experiments/knapen_AOT/AOT_stimuli/rescaled_final/1048_fw.mp4	0.0	367.2759110927582	0.1000051498413086
81	337.93366408348083	fix_pre	0		120	79.0	2.5	/experiments/knapen_AOT/AOT_stimuli/rescaled_final/1194_rv.mp4	0.0	367.3759162425995	1.000147819519043
81	338.9338119029999	movie	1		248	79.0	2.5	/experiments/knapen_AOT/AOT_stimuli/rescaled_final/1194_rv.mp4	0.0	368.37606406211853	2.4920811653137207
81	339.30905199050903	pulse	1	t		79.0	2.5	/experiments/knapen_AOT/AOT_stimuli/rescaled_final/1194_rv.mp4	0.0	368.7513041496277	
81	340.9094588756561	pulse	1	t		79.0	2.5	/experiments/knapen_AOT/AOT_stimuli/rescaled_final/1194_rv.mp4	0.0	370.3517110347748	
81	341.4258930683136	fix_post	2		12	79.0	2.5	/experiments/knapen_AOT/AOT_stimuli/rescaled_final/1194_rv.mp4	0.0	370.86814522743225	0.09998798370361328
82	341.5258810520172	fix_pre	0		119	80.0	2.5	/experiments/knapen_AOT/AOT_stimuli/rescaled_final/1680_fw.mp4	0.0	370.96813321113586	0.9918098449707031
82	342.5096879005432	pulse	0	t		80.0	2.5	/experiments/knapen_AOT/AOT_stimuli/rescaled_final/1680_fw.mp4	0.0	371.95194005966187	
82	342.5176908969879	movie	1		247	80.0	2.5	/experiments/knapen_AOT/AOT_stimuli/rescaled_final/1680_fw.mp4	0.0	371.95994305610657	2.508711099624634
82	344.11014103889465	pulse	1	t		80.0	2.5	/experiments/knapen_AOT/AOT_stimuli/rescaled_final/1680_fw.mp4	0.0	373.5523931980133	
82	345.02640199661255	fix_post	2		12	80.0	2.5	/experiments/knapen_AOT/AOT_stimuli/rescaled_final/1680_fw.mp4	0.0	374.4686541557312	0.10001206398010254
83	345.12641406059265	fix_pre	0		120	81.0	2.5	/experiments/knapen_AOT/AOT_stimuli/rescaled_final/0507_rv.mp4	0.0	374.5686662197113	1.0001769065856934
83	345.7099840641022	pulse	0	t		81.0	2.5	/experiments/knapen_AOT/AOT_stimuli/rescaled_final/0507_rv.mp4	0.0	375.1522362232208	
83	346.12659096717834	movie	1		244	81.0	2.5	/experiments/knapen_AOT/AOT_stimuli/rescaled_final/0507_rv.mp4	0.0	375.568843126297	2.5004069805145264
83	347.310359954834	pulse	1	t		81.0	2.5	/experiments/knapen_AOT/AOT_stimuli/rescaled_final/0507_rv.mp4	0.0	376.75261211395264	
83	348.62699794769287	fix_post	2		12	81.0	2.5	/experiments/knapen_AOT/AOT_stimuli/rescaled_final/0507_rv.mp4	0.0	378.0692501068115	0.09992003440856934
84	348.72691798210144	fix_pre	0		120	82.0	2.5	blank	1.0	378.1691701412201	1.0001978874206543
84	348.9105820655823	pulse	0	t		82.0	2.5	blank	1.0	378.3528342247009	
84	349.7271158695221	movie	1		300	82.0	2.5	blank	1.0	379.16936802864075	2.5003671646118164
84	350.5107638835907	pulse	1	t		82.0	2.5	blank	1.0	379.95301604270935	
84	352.1110279560089	pulse	1	t		82.0	2.5	blank	1.0	381.55328011512756	
84	352.2274830341339	fix_post	2		12	82.0	2.5	blank	1.0	381.66973519325256	0.10004591941833496
85	352.32752895355225	fix_pre	0		120	83.0	2.5	/experiments/knapen_AOT/AOT_stimuli/rescaled_final/0784_fw.mp4	0.0	381.7697811126709	1.0000851154327393
85	353.327614068985	movie	1		245	83.0	2.5	/experiments/knapen_AOT/AOT_stimuli/rescaled_final/0784_fw.mp4	0.0	382.76986622810364	2.4920618534088135
85	353.7124390602112	pulse	1	t		83.0	2.5	/experiments/knapen_AOT/AOT_stimuli/rescaled_final/0784_fw.mp4	0.0	383.15469121932983	
85	355.31150007247925	pulse	1	t		83.0	2.5	/experiments/knapen_AOT/AOT_stimuli/rescaled_final/0784_fw.mp4	0.0	384.7537522315979	
85	355.8196759223938	fix_post	2		12	83.0	2.5	/experiments/knapen_AOT/AOT_stimuli/rescaled_final/0784_fw.mp4	0.0	385.26192808151245	0.09996414184570312
87	355.9196400642395	stim	0		1716					385.36189222335815	14.302253007888794
87	356.9116840362549	pulse	0	t						386.35393619537354	
87	358.5119459629059	pulse	0	t						387.95419812202454	
87	360.1121129989624	pulse	0	t						389.55436515808105	
87	361.712434053421	pulse	0	t						391.1546862125397	
87	363.312628030777	pulse	0	t						392.75488018989563	
87	364.912859916687	pulse	0	t						394.35511207580566	
87	366.5130729675293	pulse	0	t						395.95532512664795	
87	368.1134490966797	pulse	0	t						397.55570125579834	
87	369.71362686157227	pulse	0	t						399.1558790206909	
