trial_nr	onset	event_type	phase	response	nr_frames	movie_index	movie_duration	movie_file	blank	onset_abs	duration
0	0.15804481506347656	stim	0		17865					460.3002510070801	148.87437200546265
0	149.0250599384308	response	0	space						609.1672661304474	
1	149.03241682052612	stim	0		9880					609.1746230125427	82.332839012146
1	231.357088804245	pulse	0	t						691.4992949962616	
1	231.36525583267212	stim	1		1717					691.5074620246887	14.308223962783813
1	232.95711994171143	pulse	1	t						693.099326133728	
1	234.55706477165222	pulse	1	t						694.6992709636688	
1	236.15699982643127	pulse	1	t						696.2992060184479	
1	237.75706577301025	pulse	1	t						697.8992719650269	
1	239.35709977149963	pulse	1	t						699.4993059635162	
1	240.95704078674316	pulse	1	t						701.0992469787598	
1	242.5570468902588	pulse	1	t						702.6992530822754	
1	244.15700578689575	pulse	1	t						704.2992119789124	
2	245.67347979545593	fix_pre	0		11	0.0	2.5	/experiments/AOT/AOT_stimuli/rescaled_final/1999_rv.mp4	0.0	705.8156859874725	0.09164118766784668
2	245.7569878101349	pulse	0	t		0.0	2.5	/experiments/AOT/AOT_stimuli/rescaled_final/1999_rv.mp4	0.0	705.8991940021515	
2	245.76512098312378	movie	1		242	0.0	2.5	/experiments/AOT/AOT_stimuli/rescaled_final/1999_rv.mp4	0.0	705.9073271751404	2.508419990539551
2	247.35689783096313	pulse	1	t		0.0	2.5	/experiments/AOT/AOT_stimuli/rescaled_final/1999_rv.mp4	0.0	707.4991040229797	
2	248.27354097366333	fix_post	2		12	0.0	2.5	/experiments/AOT/AOT_stimuli/rescaled_final/1999_rv.mp4	0.0	708.4157471656799	0.09994888305664062
3	248.37348985671997	fix_pre	0		120	1.0	2.5	/experiments/AOT/AOT_stimuli/rescaled_final/1408_rv.mp4	0.0	708.5156960487366	1.0000159740447998
3	248.95701098442078	pulse	0	t		1.0	2.5	/experiments/AOT/AOT_stimuli/rescaled_final/1408_rv.mp4	0.0	709.0992171764374	
3	249.37350583076477	movie	1		243	1.0	2.5	/experiments/AOT/AOT_stimuli/rescaled_final/1408_rv.mp4	0.0	709.5157120227814	2.499986171722412
3	250.5570638179779	pulse	1	t		1.0	2.5	/experiments/AOT/AOT_stimuli/rescaled_final/1408_rv.mp4	0.0	710.6992700099945	
3	251.87349200248718	fix_post	2		12	1.0	2.5	/experiments/AOT/AOT_stimuli/rescaled_final/1408_rv.mp4	0.0	712.0156981945038	0.09996294975280762
4	251.97345495224	fix_pre	0		120	2.0	2.5	/experiments/AOT/AOT_stimuli/rescaled_final/1746_rv.mp4	0.0	712.1156611442566	1.0000319480895996
4	252.15697193145752	pulse	0	t		2.0	2.5	/experiments/AOT/AOT_stimuli/rescaled_final/1746_rv.mp4	0.0	712.2991781234741	
4	252.9734869003296	movie	1		243	2.0	2.5	/experiments/AOT/AOT_stimuli/rescaled_final/1746_rv.mp4	0.0	713.1156930923462	2.4999430179595947
4	253.75698399543762	pulse	1	t		2.0	2.5	/experiments/AOT/AOT_stimuli/rescaled_final/1746_rv.mp4	0.0	713.8991901874542	
4	255.355614900589	pulse	1	t		2.0	2.5	/experiments/AOT/AOT_stimuli/rescaled_final/1746_rv.mp4	0.0	715.4978210926056	
4	255.47342991828918	fix_post	2		12	2.0	2.5	/experiments/AOT/AOT_stimuli/rescaled_final/1746_rv.mp4	0.0	715.6156361103058	0.10010004043579102
5	255.57352995872498	fix_pre	0		120	3.0	2.5	/experiments/AOT/AOT_stimuli/rescaled_final/0396_fw.mp4	0.0	715.7157361507416	0.9999198913574219
5	256.5734498500824	movie	1		244	3.0	2.5	/experiments/AOT/AOT_stimuli/rescaled_final/0396_fw.mp4	0.0	716.715656042099	2.4999680519104004
5	256.95659494400024	pulse	1	t		3.0	2.5	/experiments/AOT/AOT_stimuli/rescaled_final/0396_fw.mp4	0.0	717.0988011360168	
5	258.5569529533386	pulse	1	t		3.0	2.5	/experiments/AOT/AOT_stimuli/rescaled_final/0396_fw.mp4	0.0	718.6991591453552	
5	259.0734179019928	fix_post	2		12	3.0	2.5	/experiments/AOT/AOT_stimuli/rescaled_final/0396_fw.mp4	0.0	719.2156240940094	0.10005903244018555
6	259.173476934433	fix_pre	0		119	4.0	2.5	/experiments/AOT/AOT_stimuli/rescaled_final/0422_rv.mp4	0.0	719.3156831264496	0.9916529655456543
6	260.15699791908264	pulse	0	t		4.0	2.5	/experiments/AOT/AOT_stimuli/rescaled_final/0422_rv.mp4	0.0	720.2992041110992	
6	260.16512989997864	movie	1		245	4.0	2.5	/experiments/AOT/AOT_stimuli/rescaled_final/0422_rv.mp4	0.0	720.3073360919952	2.5083730220794678
6	261.7577979564667	pulse	1	t		4.0	2.5	/experiments/AOT/AOT_stimuli/rescaled_final/0422_rv.mp4	0.0	721.9000041484833	
6	262.6735029220581	fix_post	2		12	4.0	2.5	/experiments/AOT/AOT_stimuli/rescaled_final/0422_rv.mp4	0.0	722.8157091140747	0.09992384910583496
7	262.77342677116394	fix_pre	0		120	5.0	2.5	blank	1.0	722.9156329631805	0.9999911785125732
7	263.35689997673035	pulse	0	t		5.0	2.5	blank	1.0	723.499106168747	
7	263.7734179496765	movie	1		300	5.0	2.5	blank	1.0	723.9156241416931	2.499980926513672
7	264.9568979740143	pulse	1	t		5.0	2.5	blank	1.0	725.0991041660309	
7	266.2733988761902	fix_post	2		12	5.0	2.5	blank	1.0	726.4156050682068	0.10003209114074707
8	266.37343096733093	fix_pre	0		120	6.0	2.5	/experiments/AOT/AOT_stimuli/rescaled_final/0922_rv.mp4	0.0	726.5156371593475	0.9999618530273438
8	266.55689787864685	pulse	0	t		6.0	2.5	/experiments/AOT/AOT_stimuli/rescaled_final/0922_rv.mp4	0.0	726.6991040706635	
8	267.3733928203583	movie	1		244	6.0	2.5	/experiments/AOT/AOT_stimuli/rescaled_final/0922_rv.mp4	0.0	727.5155990123749	2.499969005584717
8	268.15704798698425	pulse	1	t		6.0	2.5	/experiments/AOT/AOT_stimuli/rescaled_final/0922_rv.mp4	0.0	728.2992541790009	
8	269.75551891326904	pulse	1	t		6.0	2.5	/experiments/AOT/AOT_stimuli/rescaled_final/0922_rv.mp4	0.0	729.8977251052856	
8	269.873361825943	fix_post	2		12	6.0	2.5	/experiments/AOT/AOT_stimuli/rescaled_final/0922_rv.mp4	0.0	730.0155680179596	0.10007905960083008
9	269.9734408855438	fix_pre	0		120	7.0	2.5	/experiments/AOT/AOT_stimuli/rescaled_final/1523_rv.mp4	0.0	730.1156470775604	1.0000419616699219
9	270.97348284721375	movie	1		243	7.0	2.5	/experiments/AOT/AOT_stimuli/rescaled_final/1523_rv.mp4	0.0	731.1156890392303	2.499988079071045
9	271.3566060066223	pulse	1	t		7.0	2.5	/experiments/AOT/AOT_stimuli/rescaled_final/1523_rv.mp4	0.0	731.4988121986389	
9	272.95695400238037	pulse	1	t		7.0	2.5	/experiments/AOT/AOT_stimuli/rescaled_final/1523_rv.mp4	0.0	733.099160194397	
9	273.4734709262848	fix_post	2		12	7.0	2.5	/experiments/AOT/AOT_stimuli/rescaled_final/1523_rv.mp4	0.0	733.6156771183014	0.09995603561401367
10	273.5734269618988	fix_pre	0		119	8.0	2.5	/experiments/AOT/AOT_stimuli/rescaled_final/1169_rv.mp4	0.0	733.7156331539154	0.9916739463806152
10	274.55688095092773	pulse	0	t		8.0	2.5	/experiments/AOT/AOT_stimuli/rescaled_final/1169_rv.mp4	0.0	734.6990871429443	
10	274.5651009082794	movie	1		247	8.0	2.5	/experiments/AOT/AOT_stimuli/rescaled_final/1169_rv.mp4	0.0	734.707307100296	2.507843017578125
10	276.15575790405273	pulse	1	t		8.0	2.5	/experiments/AOT/AOT_stimuli/rescaled_final/1169_rv.mp4	0.0	736.2979640960693	
10	277.07294392585754	fix_post	2		12	8.0	2.5	/experiments/AOT/AOT_stimuli/rescaled_final/1169_rv.mp4	0.0	737.2151501178741	0.10005593299865723
11	277.1729998588562	fix_pre	0		120	9.0	2.5	/experiments/AOT/AOT_stimuli/rescaled_final/0724_fw.mp4	0.0	737.3152060508728	1.0000059604644775
11	277.7565178871155	pulse	0	t		9.0	2.5	/experiments/AOT/AOT_stimuli/rescaled_final/0724_fw.mp4	0.0	737.8987240791321	
11	278.1730058193207	movie	1		248	9.0	2.5	/experiments/AOT/AOT_stimuli/rescaled_final/0724_fw.mp4	0.0	738.3152120113373	2.5004329681396484
11	279.35715198516846	pulse	1	t		9.0	2.5	/experiments/AOT/AOT_stimuli/rescaled_final/0724_fw.mp4	0.0	739.4993581771851	
11	280.6734387874603	fix_post	2		12	9.0	2.5	/experiments/AOT/AOT_stimuli/rescaled_final/0724_fw.mp4	0.0	740.8156449794769	0.100006103515625
12	280.77344489097595	fix_pre	0		120	10.0	2.5	/experiments/AOT/AOT_stimuli/rescaled_final/2159_fw.mp4	0.0	740.9156510829926	0.9999370574951172
12	280.95690393447876	pulse	0	t		10.0	2.5	/experiments/AOT/AOT_stimuli/rescaled_final/2159_fw.mp4	0.0	741.0991101264954	
12	281.77338194847107	movie	1		244	10.0	2.5	/experiments/AOT/AOT_stimuli/rescaled_final/2159_fw.mp4	0.0	741.9155881404877	2.499959945678711
12	282.55679178237915	pulse	1	t		10.0	2.5	/experiments/AOT/AOT_stimuli/rescaled_final/2159_fw.mp4	0.0	742.6989979743958	
12	284.1551208496094	pulse	1	t		10.0	2.5	/experiments/AOT/AOT_stimuli/rescaled_final/2159_fw.mp4	0.0	744.297327041626	
12	284.2733418941498	fix_post	2		12	10.0	2.5	/experiments/AOT/AOT_stimuli/rescaled_final/2159_fw.mp4	0.0	744.4155480861664	0.09998106956481934
13	284.3733229637146	fix_pre	0		120	11.0	2.5	/experiments/AOT/AOT_stimuli/rescaled_final/0874_fw.mp4	0.0	744.5155291557312	1.0001099109649658
13	285.37343287467957	movie	1		245	11.0	2.5	/experiments/AOT/AOT_stimuli/rescaled_final/0874_fw.mp4	0.0	745.5156390666962	2.499964952468872
13	285.75641798973083	pulse	1	t		11.0	2.5	/experiments/AOT/AOT_stimuli/rescaled_final/0874_fw.mp4	0.0	745.8986241817474	
13	287.35677695274353	pulse	1	t		11.0	2.5	/experiments/AOT/AOT_stimuli/rescaled_final/0874_fw.mp4	0.0	747.4989831447601	
13	287.87339782714844	fix_post	2		12	11.0	2.5	/experiments/AOT/AOT_stimuli/rescaled_final/0874_fw.mp4	0.0	748.015604019165	0.09989714622497559
14	287.9732949733734	fix_pre	0		119	12.0	2.5	/experiments/AOT/AOT_stimuli/rescaled_final/1896_fw.mp4	0.0	748.11550116539	0.9916520118713379
14	288.956768989563	pulse	0	t		12.0	2.5	/experiments/AOT/AOT_stimuli/rescaled_final/1896_fw.mp4	0.0	749.0989751815796	
14	288.96494698524475	movie	1		247	12.0	2.5	/experiments/AOT/AOT_stimuli/rescaled_final/1896_fw.mp4	0.0	749.1071531772614	2.5083768367767334
14	290.55613684654236	pulse	1	t		12.0	2.5	/experiments/AOT/AOT_stimuli/rescaled_final/1896_fw.mp4	0.0	750.698343038559	
14	291.4733238220215	fix_post	2		12	12.0	2.5	/experiments/AOT/AOT_stimuli/rescaled_final/1896_fw.mp4	0.0	751.6155300140381	0.0999760627746582
15	291.57329988479614	fix_pre	0		120	13.0	2.5	/experiments/AOT/AOT_stimuli/rescaled_final/0080_fw.mp4	0.0	751.7155060768127	1.0000250339508057
15	292.1567928791046	pulse	0	t		13.0	2.5	/experiments/AOT/AOT_stimuli/rescaled_final/0080_fw.mp4	0.0	752.2989990711212	
15	292.57332491874695	movie	1		246	13.0	2.5	/experiments/AOT/AOT_stimuli/rescaled_final/0080_fw.mp4	0.0	752.7155311107635	2.499979019165039
15	293.75681591033936	pulse	1	t		13.0	2.5	/experiments/AOT/AOT_stimuli/rescaled_final/0080_fw.mp4	0.0	753.899022102356	
15	295.073303937912	fix_post	2		12	13.0	2.5	/experiments/AOT/AOT_stimuli/rescaled_final/0080_fw.mp4	0.0	755.2155101299286	0.09993195533752441
16	295.1732358932495	fix_pre	0		120	14.0	2.5	blank	1.0	755.3154420852661	1.0000059604644775
16	295.3567888736725	pulse	0	t		14.0	2.5	blank	1.0	755.4989950656891	
16	296.173241853714	movie	1		300	14.0	2.5	blank	1.0	756.3154480457306	2.49993896484375
16	296.9568657875061	pulse	1	t		14.0	2.5	blank	1.0	757.0990719795227	
16	298.55667185783386	pulse	1	t		14.0	2.5	blank	1.0	758.6988780498505	
16	298.67318081855774	fix_post	2		12	14.0	2.5	blank	1.0	758.8153870105743	0.100128173828125
17	298.77330899238586	fix_pre	0		120	15.0	2.5	/experiments/AOT/AOT_stimuli/rescaled_final/0813_fw.mp4	0.0	758.9155151844025	0.9998888969421387
17	299.773197889328	movie	1		245	15.0	2.5	/experiments/AOT/AOT_stimuli/rescaled_final/0813_fw.mp4	0.0	759.9154040813446	2.500049114227295
17	300.1563069820404	pulse	1	t		15.0	2.5	/experiments/AOT/AOT_stimuli/rescaled_final/0813_fw.mp4	0.0	760.298513174057	
17	301.75666880607605	pulse	1	t		15.0	2.5	/experiments/AOT/AOT_stimuli/rescaled_final/0813_fw.mp4	0.0	761.8988749980927	
17	302.2732470035553	fix_post	2		12	15.0	2.5	/experiments/AOT/AOT_stimuli/rescaled_final/0813_fw.mp4	0.0	762.4154531955719	0.10003900527954102
18	302.37328600883484	fix_pre	0		119	16.0	2.5	/experiments/AOT/AOT_stimuli/rescaled_final/1275_fw.mp4	0.0	762.5154922008514	0.9916048049926758
18	303.3566858768463	pulse	0	t		16.0	2.5	/experiments/AOT/AOT_stimuli/rescaled_final/1275_fw.mp4	0.0	763.4988920688629	
18	303.3648908138275	movie	1		247	16.0	2.5	/experiments/AOT/AOT_stimuli/rescaled_final/1275_fw.mp4	0.0	763.5070970058441	2.5083320140838623
18	304.9560778141022	pulse	1	t		16.0	2.5	/experiments/AOT/AOT_stimuli/rescaled_final/1275_fw.mp4	0.0	765.0982840061188	
18	305.8732228279114	fix_post	2		12	16.0	2.5	/experiments/AOT/AOT_stimuli/rescaled_final/1275_fw.mp4	0.0	766.015429019928	0.1000680923461914
19	305.97329092025757	fix_pre	0		120	17.0	2.5	/experiments/AOT/AOT_stimuli/rescaled_final/1137_rv.mp4	0.0	766.1154971122742	0.9999270439147949
19	306.5567648410797	pulse	0	t		17.0	2.5	/experiments/AOT/AOT_stimuli/rescaled_final/1137_rv.mp4	0.0	766.6989710330963	
19	306.97321796417236	movie	1		244	17.0	2.5	/experiments/AOT/AOT_stimuli/rescaled_final/1137_rv.mp4	0.0	767.115424156189	2.5000228881835938
19	308.1568069458008	pulse	1	t		17.0	2.5	/experiments/AOT/AOT_stimuli/rescaled_final/1137_rv.mp4	0.0	768.2990131378174	
19	309.47324085235596	fix_post	2		12	17.0	2.5	/experiments/AOT/AOT_stimuli/rescaled_final/1137_rv.mp4	0.0	769.6154470443726	0.10003495216369629
20	309.57327580451965	fix_pre	0		120	18.0	2.5	/experiments/AOT/AOT_stimuli/rescaled_final/2030_rv.mp4	0.0	769.7154819965363	0.9998931884765625
20	309.75671577453613	pulse	0	t		18.0	2.5	/experiments/AOT/AOT_stimuli/rescaled_final/2030_rv.mp4	0.0	769.8989219665527	
20	310.5731689929962	movie	1		243	18.0	2.5	/experiments/AOT/AOT_stimuli/rescaled_final/2030_rv.mp4	0.0	770.7153751850128	2.500093936920166
20	311.3567078113556	pulse	1	t		18.0	2.5	/experiments/AOT/AOT_stimuli/rescaled_final/2030_rv.mp4	0.0	771.4989140033722	
20	312.95499086380005	pulse	1	t		18.0	2.5	/experiments/AOT/AOT_stimuli/rescaled_final/2030_rv.mp4	0.0	773.0971970558167	
20	313.0732629299164	fix_post	2		12	18.0	2.5	/experiments/AOT/AOT_stimuli/rescaled_final/2030_rv.mp4	0.0	773.215469121933	0.09995889663696289
21	313.17322182655334	fix_pre	0		120	19.0	2.5	/experiments/AOT/AOT_stimuli/rescaled_final/0977_fw.mp4	0.0	773.31542801857	0.9998929500579834
21	314.1731147766113	movie	1		245	19.0	2.5	/experiments/AOT/AOT_stimuli/rescaled_final/0977_fw.mp4	0.0	774.3153209686279	2.5000240802764893
21	314.55599093437195	pulse	1	t		19.0	2.5	/experiments/AOT/AOT_stimuli/rescaled_final/0977_fw.mp4	0.0	774.6981971263885	
21	316.15677881240845	pulse	1	t		19.0	2.5	/experiments/AOT/AOT_stimuli/rescaled_final/0977_fw.mp4	0.0	776.298985004425	
21	316.6731388568878	fix_post	2		12	19.0	2.5	/experiments/AOT/AOT_stimuli/rescaled_final/0977_fw.mp4	0.0	776.8153450489044	0.10004806518554688
22	316.77318692207336	fix_pre	0		119	20.0	2.5	blank	1.0	776.91539311409	0.9916970729827881
22	317.75665378570557	pulse	0	t		20.0	2.5	blank	1.0	777.8988599777222	
22	317.76488399505615	movie	1		301	20.0	2.5	blank	1.0	777.9070901870728	2.5083398818969727
22	319.3566439151764	pulse	1	t		20.0	2.5	blank	1.0	779.498850107193	
22	320.2732238769531	fix_post	2		12	20.0	2.5	blank	1.0	780.4154300689697	0.09994792938232422
23	320.37317180633545	fix_pre	0		120	21.0	2.5	/experiments/AOT/AOT_stimuli/rescaled_final/1617_rv.mp4	0.0	780.515377998352	1.0001211166381836
23	320.95666790008545	pulse	0	t		21.0	2.5	/experiments/AOT/AOT_stimuli/rescaled_final/1617_rv.mp4	0.0	781.098874092102	
23	321.37329292297363	movie	1		242	21.0	2.5	/experiments/AOT/AOT_stimuli/rescaled_final/1617_rv.mp4	0.0	781.5154991149902	2.4998550415039062
23	322.5566668510437	pulse	1	t		21.0	2.5	/experiments/AOT/AOT_stimuli/rescaled_final/1617_rv.mp4	0.0	782.6988730430603	
23	323.87314796447754	fix_post	2		12	21.0	2.5	/experiments/AOT/AOT_stimuli/rescaled_final/1617_rv.mp4	0.0	784.0153541564941	0.10007500648498535
24	323.9732229709625	fix_pre	0		120	22.0	2.5	/experiments/AOT/AOT_stimuli/rescaled_final/1491_fw.mp4	0.0	784.1154291629791	0.9998500347137451
24	324.15667390823364	pulse	0	t		22.0	2.5	/experiments/AOT/AOT_stimuli/rescaled_final/1491_fw.mp4	0.0	784.2988801002502	
24	324.97307300567627	movie	1		243	22.0	2.5	/experiments/AOT/AOT_stimuli/rescaled_final/1491_fw.mp4	0.0	785.1152791976929	2.500063896179199
24	325.756591796875	pulse	1	t		22.0	2.5	/experiments/AOT/AOT_stimuli/rescaled_final/1491_fw.mp4	0.0	785.8987979888916	
24	327.3525719642639	pulse	1	t		22.0	2.5	/experiments/AOT/AOT_stimuli/rescaled_final/1491_fw.mp4	0.0	787.4947781562805	
24	327.47313690185547	fix_post	2		12	22.0	2.5	/experiments/AOT/AOT_stimuli/rescaled_final/1491_fw.mp4	0.0	787.6153430938721	0.100006103515625
25	327.5731430053711	fix_pre	0		120	23.0	2.5	/experiments/AOT/AOT_stimuli/rescaled_final/1337_rv.mp4	0.0	787.7153491973877	1.0000019073486328
25	328.5731449127197	movie	1		242	23.0	2.5	/experiments/AOT/AOT_stimuli/rescaled_final/1337_rv.mp4	0.0	788.7153511047363	2.5000240802764893
25	328.95628595352173	pulse	1	t		23.0	2.5	/experiments/AOT/AOT_stimuli/rescaled_final/1337_rv.mp4	0.0	789.0984921455383	
25	330.5566189289093	pulse	1	t		23.0	2.5	/experiments/AOT/AOT_stimuli/rescaled_final/1337_rv.mp4	0.0	790.6988251209259	
25	331.0731689929962	fix_post	2		12	23.0	2.5	/experiments/AOT/AOT_stimuli/rescaled_final/1337_rv.mp4	0.0	791.2153751850128	0.09997677803039551
26	331.1731457710266	fix_pre	0		119	24.0	2.5	/experiments/AOT/AOT_stimuli/rescaled_final/1905_fw.mp4	0.0	791.3153519630432	0.9916470050811768
26	332.1562237739563	pulse	0	t		24.0	2.5	/experiments/AOT/AOT_stimuli/rescaled_final/1905_fw.mp4	0.0	792.2984299659729	
26	332.1647927761078	movie	1		244	24.0	2.5	/experiments/AOT/AOT_stimuli/rescaled_final/1905_fw.mp4	0.0	792.3069989681244	2.5084660053253174
26	333.75605392456055	pulse	1	t		24.0	2.5	/experiments/AOT/AOT_stimuli/rescaled_final/1905_fw.mp4	0.0	793.8982601165771	
26	334.6732587814331	fix_post	2		12	24.0	2.5	/experiments/AOT/AOT_stimuli/rescaled_final/1905_fw.mp4	0.0	794.8154649734497	0.09958314895629883
27	334.7728419303894	fix_pre	0		120	25.0	2.5	/experiments/AOT/AOT_stimuli/rescaled_final/0650_fw.mp4	0.0	794.915048122406	1.0005829334259033
27	335.356910943985	pulse	0	t		25.0	2.5	/experiments/AOT/AOT_stimuli/rescaled_final/0650_fw.mp4	0.0	795.4991171360016	
27	335.7734248638153	movie	1		243	25.0	2.5	/experiments/AOT/AOT_stimuli/rescaled_final/0650_fw.mp4	0.0	795.9156310558319	2.499669075012207
27	336.95660877227783	pulse	1	t		25.0	2.5	/experiments/AOT/AOT_stimuli/rescaled_final/0650_fw.mp4	0.0	797.0988149642944	
27	338.2730939388275	fix_post	2		12	25.0	2.5	/experiments/AOT/AOT_stimuli/rescaled_final/0650_fw.mp4	0.0	798.4153001308441	0.09995603561401367
28	338.3730499744415	fix_pre	0		120	26.0	2.5	blank	1.0	798.5152561664581	1.000119924545288
28	338.5566248893738	pulse	0	t		26.0	2.5	blank	1.0	798.6988310813904	
28	339.3731698989868	movie	1		300	26.0	2.5	blank	1.0	799.5153760910034	2.500009059906006
28	340.15660095214844	pulse	1	t		26.0	2.5	blank	1.0	800.298807144165	
28	341.7564787864685	pulse	1	t		26.0	2.5	blank	1.0	801.8986849784851	
28	341.8731789588928	fix_post	2		12	26.0	2.5	blank	1.0	802.0153851509094	0.0998530387878418
29	341.97303199768066	fix_pre	0		120	27.0	2.5	/experiments/AOT/AOT_stimuli/rescaled_final/0925_rv.mp4	0.0	802.1152381896973	0.9999878406524658
29	342.97301983833313	movie	1		243	27.0	2.5	/experiments/AOT/AOT_stimuli/rescaled_final/0925_rv.mp4	0.0	803.1152260303497	2.500133991241455
29	343.3565499782562	pulse	1	t		27.0	2.5	/experiments/AOT/AOT_stimuli/rescaled_final/0925_rv.mp4	0.0	803.4987561702728	
29	344.95640087127686	pulse	1	t		27.0	2.5	/experiments/AOT/AOT_stimuli/rescaled_final/0925_rv.mp4	0.0	805.0986070632935	
29	345.4731538295746	fix_post	2		12	27.0	2.5	/experiments/AOT/AOT_stimuli/rescaled_final/0925_rv.mp4	0.0	805.6153600215912	0.09990215301513672
30	345.5730559825897	fix_pre	0		119	28.0	2.5	/experiments/AOT/AOT_stimuli/rescaled_final/1238_rv.mp4	0.0	805.7152621746063	0.9916038513183594
30	346.55655694007874	pulse	0	t		28.0	2.5	/experiments/AOT/AOT_stimuli/rescaled_final/1238_rv.mp4	0.0	806.6987631320953	
30	346.5646598339081	movie	1		246	28.0	2.5	/experiments/AOT/AOT_stimuli/rescaled_final/1238_rv.mp4	0.0	806.7068660259247	2.508392095565796
30	348.15779995918274	pulse	1	t		28.0	2.5	/experiments/AOT/AOT_stimuli/rescaled_final/1238_rv.mp4	0.0	808.3000061511993	
30	349.0730519294739	fix_post	2		12	28.0	2.5	/experiments/AOT/AOT_stimuli/rescaled_final/1238_rv.mp4	0.0	809.2152581214905	0.0999300479888916
31	349.17298197746277	fix_pre	0		120	29.0	2.5	/experiments/AOT/AOT_stimuli/rescaled_final/1349_rv.mp4	0.0	809.3151881694794	1.0001099109649658
31	349.75653100013733	pulse	0	t		29.0	2.5	/experiments/AOT/AOT_stimuli/rescaled_final/1349_rv.mp4	0.0	809.8987371921539	
31	350.17309188842773	movie	1		244	29.0	2.5	/experiments/AOT/AOT_stimuli/rescaled_final/1349_rv.mp4	0.0	810.3152980804443	2.5000319480895996
31	351.35660791397095	pulse	1	t		29.0	2.5	/experiments/AOT/AOT_stimuli/rescaled_final/1349_rv.mp4	0.0	811.4988141059875	
31	352.67312383651733	fix_post	2		12	29.0	2.5	/experiments/AOT/AOT_stimuli/rescaled_final/1349_rv.mp4	0.0	812.8153300285339	0.09989094734191895
32	352.77301478385925	fix_pre	0		120	30.0	2.5	/experiments/AOT/AOT_stimuli/rescaled_final/1275_fw.mp4	0.0	812.9152209758759	1.000054121017456
32	352.9565408229828	pulse	0	t		30.0	2.5	/experiments/AOT/AOT_stimuli/rescaled_final/1275_fw.mp4	0.0	813.0987470149994	
32	353.7730689048767	movie	1		245	30.0	2.5	/experiments/AOT/AOT_stimuli/rescaled_final/1275_fw.mp4	0.0	813.9152750968933	2.4999499320983887
32	354.55648589134216	pulse	1	t		30.0	2.5	/experiments/AOT/AOT_stimuli/rescaled_final/1275_fw.mp4	0.0	814.6986920833588	
32	356.15494990348816	pulse	1	t		30.0	2.5	/experiments/AOT/AOT_stimuli/rescaled_final/1275_fw.mp4	0.0	816.2971560955048	
32	356.2730188369751	fix_post	2		12	30.0	2.5	/experiments/AOT/AOT_stimuli/rescaled_final/1275_fw.mp4	0.0	816.4152250289917	0.09993815422058105
33	356.3729569911957	fix_pre	0		120	31.0	2.5	/experiments/AOT/AOT_stimuli/rescaled_final/1137_fw.mp4	0.0	816.5151631832123	0.9999549388885498
33	357.37291193008423	movie	1		244	31.0	2.5	/experiments/AOT/AOT_stimuli/rescaled_final/1137_fw.mp4	0.0	817.5151181221008	2.500108003616333
33	357.7562589645386	pulse	1	t		31.0	2.5	/experiments/AOT/AOT_stimuli/rescaled_final/1137_fw.mp4	0.0	817.8984651565552	
33	359.35647892951965	pulse	1	t		31.0	2.5	/experiments/AOT/AOT_stimuli/rescaled_final/1137_fw.mp4	0.0	819.4986851215363	
33	359.87301993370056	fix_post	2		12	31.0	2.5	/experiments/AOT/AOT_stimuli/rescaled_final/1137_fw.mp4	0.0	820.0152261257172	0.09998583793640137
34	359.97300577163696	fix_pre	0		119	32.0	2.5	/experiments/AOT/AOT_stimuli/rescaled_final/1708_fw.mp4	0.0	820.1152119636536	0.9915280342102051
34	360.9564278125763	pulse	0	t		32.0	2.5	/experiments/AOT/AOT_stimuli/rescaled_final/1708_fw.mp4	0.0	821.0986340045929	
34	360.96453380584717	movie	1		244	32.0	2.5	/experiments/AOT/AOT_stimuli/rescaled_final/1708_fw.mp4	0.0	821.1067399978638	2.5085129737854004
34	362.5559358596802	pulse	1	t		32.0	2.5	/experiments/AOT/AOT_stimuli/rescaled_final/1708_fw.mp4	0.0	822.6981420516968	
34	363.47304677963257	fix_post	2		12	32.0	2.5	/experiments/AOT/AOT_stimuli/rescaled_final/1708_fw.mp4	0.0	823.6152529716492	0.09990406036376953
35	363.57295083999634	fix_pre	0		120	33.0	2.5	blank	1.0	823.7151570320129	1.000002145767212
35	364.1564869880676	pulse	0	t		33.0	2.5	blank	1.0	824.2986931800842	
35	364.57295298576355	movie	1		300	33.0	2.5	blank	1.0	824.7151591777802	2.499941825866699
35	365.7564799785614	pulse	1	t		33.0	2.5	blank	1.0	825.898686170578	
35	367.07289481163025	fix_post	2		12	33.0	2.5	blank	1.0	827.2151010036469	0.10004496574401855
36	367.17293977737427	fix_pre	0		120	34.0	2.5	/experiments/AOT/AOT_stimuli/rescaled_final/1393_fw.mp4	0.0	827.3151459693909	1.0000190734863281
36	367.3563997745514	pulse	0	t		34.0	2.5	/experiments/AOT/AOT_stimuli/rescaled_final/1393_fw.mp4	0.0	827.498605966568	
36	368.1729588508606	movie	1		246	34.0	2.5	/experiments/AOT/AOT_stimuli/rescaled_final/1393_fw.mp4	0.0	828.3151650428772	2.500044107437134
36	368.9563488960266	pulse	1	t		34.0	2.5	/experiments/AOT/AOT_stimuli/rescaled_final/1393_fw.mp4	0.0	829.0985550880432	
36	370.5524549484253	pulse	1	t		34.0	2.5	/experiments/AOT/AOT_stimuli/rescaled_final/1393_fw.mp4	0.0	830.6946611404419	
36	370.67300295829773	fix_post	2		12	34.0	2.5	/experiments/AOT/AOT_stimuli/rescaled_final/1393_fw.mp4	0.0	830.8152091503143	0.0998389720916748
37	370.7728419303894	fix_pre	0		120	35.0	2.5	/experiments/AOT/AOT_stimuli/rescaled_final/0906_fw.mp4	0.0	830.915048122406	1.000135898590088
37	371.7729778289795	movie	1		247	35.0	2.5	/experiments/AOT/AOT_stimuli/rescaled_final/0906_fw.mp4	0.0	831.9151840209961	2.499962091445923
37	372.15579080581665	pulse	1	t		35.0	2.5	/experiments/AOT/AOT_stimuli/rescaled_final/0906_fw.mp4	0.0	832.2979969978333	
37	373.7565608024597	pulse	1	t		35.0	2.5	/experiments/AOT/AOT_stimuli/rescaled_final/0906_fw.mp4	0.0	833.8987669944763	
37	374.2729399204254	fix_post	2		12	35.0	2.5	/experiments/AOT/AOT_stimuli/rescaled_final/0906_fw.mp4	0.0	834.415146112442	0.09999203681945801
38	374.3729319572449	fix_pre	0		119	36.0	2.5	/experiments/AOT/AOT_stimuli/rescaled_final/1329_rv.mp4	0.0	834.5151381492615	0.9916529655456543
38	375.356351852417	pulse	0	t		36.0	2.5	/experiments/AOT/AOT_stimuli/rescaled_final/1329_rv.mp4	0.0	835.4985580444336	
38	375.3645849227905	movie	1		247	36.0	2.5	/experiments/AOT/AOT_stimuli/rescaled_final/1329_rv.mp4	0.0	835.5067911148071	2.5083539485931396
38	376.9560148715973	pulse	1	t		36.0	2.5	/experiments/AOT/AOT_stimuli/rescaled_final/1329_rv.mp4	0.0	837.0982210636139	
38	377.87293887138367	fix_post	2		12	36.0	2.5	/experiments/AOT/AOT_stimuli/rescaled_final/1329_rv.mp4	0.0	838.0151450634003	0.1000819206237793
39	377.97302079200745	fix_pre	0		120	37.0	2.5	/experiments/AOT/AOT_stimuli/rescaled_final/0912_rv.mp4	0.0	838.115226984024	1.0000081062316895
39	378.55639386177063	pulse	0	t		37.0	2.5	/experiments/AOT/AOT_stimuli/rescaled_final/0912_rv.mp4	0.0	838.6986000537872	
39	378.97302889823914	movie	1		244	37.0	2.5	/experiments/AOT/AOT_stimuli/rescaled_final/0912_rv.mp4	0.0	839.1152350902557	2.4999399185180664
39	380.1564619541168	pulse	1	t		37.0	2.5	/experiments/AOT/AOT_stimuli/rescaled_final/0912_rv.mp4	0.0	840.2986681461334	
39	381.4729688167572	fix_post	2		12	37.0	2.5	/experiments/AOT/AOT_stimuli/rescaled_final/0912_rv.mp4	0.0	841.6151750087738	0.0998849868774414
40	381.57285380363464	fix_pre	0		120	38.0	2.5	/experiments/AOT/AOT_stimuli/rescaled_final/0281_fw.mp4	0.0	841.7150599956512	1.0000641345977783
40	381.7563648223877	pulse	0	t		38.0	2.5	/experiments/AOT/AOT_stimuli/rescaled_final/0281_fw.mp4	0.0	841.8985710144043	
40	382.5729179382324	movie	1		245	38.0	2.5	/experiments/AOT/AOT_stimuli/rescaled_final/0281_fw.mp4	0.0	842.715124130249	2.4999420642852783
40	383.3563528060913	pulse	1	t		38.0	2.5	/experiments/AOT/AOT_stimuli/rescaled_final/0281_fw.mp4	0.0	843.4985589981079	
40	384.9548079967499	pulse	1	t		38.0	2.5	/experiments/AOT/AOT_stimuli/rescaled_final/0281_fw.mp4	0.0	845.0970141887665	
40	385.0728600025177	fix_post	2		12	38.0	2.5	/experiments/AOT/AOT_stimuli/rescaled_final/0281_fw.mp4	0.0	845.2150661945343	0.09995889663696289
41	385.17281889915466	fix_pre	0		120	39.0	2.5	/experiments/AOT/AOT_stimuli/rescaled_final/1106_rv.mp4	0.0	845.3150250911713	1.0000889301300049
41	386.17290782928467	movie	1		244	39.0	2.5	/experiments/AOT/AOT_stimuli/rescaled_final/1106_rv.mp4	0.0	846.3151140213013	2.49993896484375
41	386.5558669567108	pulse	1	t		39.0	2.5	/experiments/AOT/AOT_stimuli/rescaled_final/1106_rv.mp4	0.0	846.6980731487274	
41	388.15625977516174	pulse	1	t		39.0	2.5	/experiments/AOT/AOT_stimuli/rescaled_final/1106_rv.mp4	0.0	848.2984659671783	
41	388.6728467941284	fix_post	2		12	39.0	2.5	/experiments/AOT/AOT_stimuli/rescaled_final/1106_rv.mp4	0.0	848.815052986145	0.09964299201965332
42	388.77248978614807	fix_pre	0		119	40.0	2.5	/experiments/AOT/AOT_stimuli/rescaled_final/2170_rv.mp4	0.0	848.9146959781647	0.9916431903839111
42	389.7559268474579	pulse	0	t		40.0	2.5	/experiments/AOT/AOT_stimuli/rescaled_final/2170_rv.mp4	0.0	849.8981330394745	
42	389.764132976532	movie	1		244	40.0	2.5	/experiments/AOT/AOT_stimuli/rescaled_final/2170_rv.mp4	0.0	849.9063391685486	2.5086519718170166
42	391.3558449745178	pulse	1	t		40.0	2.5	/experiments/AOT/AOT_stimuli/rescaled_final/2170_rv.mp4	0.0	851.4980511665344	
42	392.272784948349	fix_post	2		12	40.0	2.5	/experiments/AOT/AOT_stimuli/rescaled_final/2170_rv.mp4	0.0	852.4149911403656	0.10008597373962402
43	392.3728709220886	fix_pre	0		120	41.0	2.5	/experiments/AOT/AOT_stimuli/rescaled_final/1938_rv.mp4	0.0	852.5150771141052	0.9999759197235107
43	392.9563479423523	pulse	0	t		41.0	2.5	/experiments/AOT/AOT_stimuli/rescaled_final/1938_rv.mp4	0.0	853.0985541343689	
43	393.37284684181213	movie	1		243	41.0	2.5	/experiments/AOT/AOT_stimuli/rescaled_final/1938_rv.mp4	0.0	853.5150530338287	2.4999959468841553
43	394.5563418865204	pulse	1	t		41.0	2.5	/experiments/AOT/AOT_stimuli/rescaled_final/1938_rv.mp4	0.0	854.698548078537	
43	395.8728427886963	fix_post	2		12	41.0	2.5	/experiments/AOT/AOT_stimuli/rescaled_final/1938_rv.mp4	0.0	856.0150489807129	0.09996604919433594
44	395.9728088378906	fix_pre	0		120	42.0	2.5	blank	1.0	856.1150150299072	1.0000200271606445
44	396.1563639640808	pulse	0	t		42.0	2.5	blank	1.0	856.2985701560974	
44	396.97282886505127	movie	1		300	42.0	2.5	blank	1.0	857.1150350570679	2.499932050704956
44	397.75621485710144	pulse	1	t		42.0	2.5	blank	1.0	857.898421049118	
44	399.356253862381	pulse	1	t		42.0	2.5	blank	1.0	859.4984600543976	
44	399.4727609157562	fix_post	2		12	42.0	2.5	blank	1.0	859.6149671077728	0.10001397132873535
45	399.57277488708496	fix_pre	0		120	43.0	2.5	/experiments/AOT/AOT_stimuli/rescaled_final/1830_rv.mp4	0.0	859.7149810791016	0.9999499320983887
45	400.57272481918335	movie	1		244	43.0	2.5	/experiments/AOT/AOT_stimuli/rescaled_final/1830_rv.mp4	0.0	860.7149310112	2.4999539852142334
45	400.95623898506165	pulse	1	t		43.0	2.5	/experiments/AOT/AOT_stimuli/rescaled_final/1830_rv.mp4	0.0	861.0984451770782	
45	402.5562369823456	pulse	1	t		43.0	2.5	/experiments/AOT/AOT_stimuli/rescaled_final/1830_rv.mp4	0.0	862.6984431743622	
45	403.0726788043976	fix_post	2		12	43.0	2.5	/experiments/AOT/AOT_stimuli/rescaled_final/1830_rv.mp4	0.0	863.2148849964142	0.10011816024780273
46	403.1727969646454	fix_pre	0		119	44.0	2.5	/experiments/AOT/AOT_stimuli/rescaled_final/0168_fw.mp4	0.0	863.315003156662	0.9916160106658936
46	404.1562428474426	pulse	0	t		44.0	2.5	/experiments/AOT/AOT_stimuli/rescaled_final/0168_fw.mp4	0.0	864.2984490394592	
46	404.1644129753113	movie	1		245	44.0	2.5	/experiments/AOT/AOT_stimuli/rescaled_final/0168_fw.mp4	0.0	864.3066191673279	2.5083529949188232
46	405.75569891929626	pulse	1	t		44.0	2.5	/experiments/AOT/AOT_stimuli/rescaled_final/0168_fw.mp4	0.0	865.8979051113129	
46	406.6727659702301	fix_post	2		12	44.0	2.5	/experiments/AOT/AOT_stimuli/rescaled_final/0168_fw.mp4	0.0	866.8149721622467	0.09993481636047363
47	406.7727007865906	fix_pre	0		120	45.0	2.5	/experiments/AOT/AOT_stimuli/rescaled_final/2159_rv.mp4	0.0	866.9149069786072	1.0000920295715332
47	407.35617995262146	pulse	0	t		45.0	2.5	/experiments/AOT/AOT_stimuli/rescaled_final/2159_rv.mp4	0.0	867.4983861446381	
47	407.7727928161621	movie	1		242	45.0	2.5	/experiments/AOT/AOT_stimuli/rescaled_final/2159_rv.mp4	0.0	867.9149990081787	2.499453067779541
47	408.9563138484955	pulse	1	t		45.0	2.5	/experiments/AOT/AOT_stimuli/rescaled_final/2159_rv.mp4	0.0	869.0985200405121	
47	410.27224588394165	fix_post	2		12	45.0	2.5	/experiments/AOT/AOT_stimuli/rescaled_final/2159_rv.mp4	0.0	870.4144520759583	0.1004800796508789
48	410.37272596359253	fix_pre	0		120	46.0	2.5	/experiments/AOT/AOT_stimuli/rescaled_final/0345_fw.mp4	0.0	870.5149321556091	0.9999220371246338
48	410.55629992485046	pulse	0	t		46.0	2.5	/experiments/AOT/AOT_stimuli/rescaled_final/0345_fw.mp4	0.0	870.6985061168671	
48	411.37264800071716	movie	1		242	46.0	2.5	/experiments/AOT/AOT_stimuli/rescaled_final/0345_fw.mp4	0.0	871.5148541927338	2.5000247955322266
48	412.15621280670166	pulse	1	t		46.0	2.5	/experiments/AOT/AOT_stimuli/rescaled_final/0345_fw.mp4	0.0	872.2984189987183	
48	413.7548267841339	pulse	1	t		46.0	2.5	/experiments/AOT/AOT_stimuli/rescaled_final/0345_fw.mp4	0.0	873.8970329761505	
48	413.8726727962494	fix_post	2		12	46.0	2.5	/experiments/AOT/AOT_stimuli/rescaled_final/0345_fw.mp4	0.0	874.014878988266	0.09998106956481934
49	413.9726538658142	fix_pre	0		120	47.0	2.5	/experiments/AOT/AOT_stimuli/rescaled_final/0922_fw.mp4	0.0	874.1148600578308	1.000054121017456
49	414.97270798683167	movie	1		243	47.0	2.5	/experiments/AOT/AOT_stimuli/rescaled_final/0922_fw.mp4	0.0	875.1149141788483	2.5000948905944824
49	415.35600781440735	pulse	1	t		47.0	2.5	/experiments/AOT/AOT_stimuli/rescaled_final/0922_fw.mp4	0.0	875.498214006424	
49	416.9562339782715	pulse	1	t		47.0	2.5	/experiments/AOT/AOT_stimuli/rescaled_final/0922_fw.mp4	0.0	877.0984401702881	
49	417.47280287742615	fix_post	2		12	47.0	2.5	/experiments/AOT/AOT_stimuli/rescaled_final/0922_fw.mp4	0.0	877.6150090694427	0.09992790222167969
50	417.5727307796478	fix_pre	0		119	48.0	2.5	/experiments/AOT/AOT_stimuli/rescaled_final/1523_fw.mp4	0.0	877.7149369716644	0.9916121959686279
50	418.55617690086365	pulse	0	t		48.0	2.5	/experiments/AOT/AOT_stimuli/rescaled_final/1523_fw.mp4	0.0	878.6983830928802	
50	418.56434297561646	movie	1		243	48.0	2.5	/experiments/AOT/AOT_stimuli/rescaled_final/1523_fw.mp4	0.0	878.706549167633	2.508296012878418
50	420.1558618545532	pulse	1	t		48.0	2.5	/experiments/AOT/AOT_stimuli/rescaled_final/1523_fw.mp4	0.0	880.2980680465698	
50	421.0726389884949	fix_post	2		12	48.0	2.5	/experiments/AOT/AOT_stimuli/rescaled_final/1523_fw.mp4	0.0	881.2148451805115	0.10007286071777344
51	421.17271184921265	fix_pre	0		120	49.0	2.5	blank	1.0	881.3149180412292	1.0000090599060059
51	421.7561478614807	pulse	0	t		49.0	2.5	blank	1.0	881.8983540534973	
51	422.17272090911865	movie	1		300	49.0	2.5	blank	1.0	882.3149271011353	2.499871015548706
51	423.35621094703674	pulse	1	t		49.0	2.5	blank	1.0	883.4984171390533	
51	424.67259192466736	fix_post	2		12	49.0	2.5	blank	1.0	884.814798116684	0.10004591941833496
52	424.7726378440857	fix_pre	0		120	50.0	2.5	/experiments/AOT/AOT_stimuli/rescaled_final/1470_fw.mp4	0.0	884.9148440361023	0.9999661445617676
52	424.9560959339142	pulse	0	t		50.0	2.5	/experiments/AOT/AOT_stimuli/rescaled_final/1470_fw.mp4	0.0	885.0983021259308	
52	425.77260398864746	movie	1		243	50.0	2.5	/experiments/AOT/AOT_stimuli/rescaled_final/1470_fw.mp4	0.0	885.9148101806641	2.4999818801879883
52	426.5561468601227	pulse	1	t		50.0	2.5	/experiments/AOT/AOT_stimuli/rescaled_final/1470_fw.mp4	0.0	886.6983530521393	
52	428.1548488140106	pulse	1	t		50.0	2.5	/experiments/AOT/AOT_stimuli/rescaled_final/1470_fw.mp4	0.0	888.2970550060272	
52	428.27258586883545	fix_post	2		12	50.0	2.5	/experiments/AOT/AOT_stimuli/rescaled_final/1470_fw.mp4	0.0	888.414792060852	0.10006308555603027
53	428.3726489543915	fix_pre	0		120	51.0	2.5	/experiments/AOT/AOT_stimuli/rescaled_final/1696_rv.mp4	0.0	888.5148551464081	1.0000159740447998
53	429.3726649284363	movie	1		243	51.0	2.5	/experiments/AOT/AOT_stimuli/rescaled_final/1696_rv.mp4	0.0	889.5148711204529	2.4999680519104004
53	429.7562918663025	pulse	1	t		51.0	2.5	/experiments/AOT/AOT_stimuli/rescaled_final/1696_rv.mp4	0.0	889.8984980583191	
53	431.3561677932739	pulse	1	t		51.0	2.5	/experiments/AOT/AOT_stimuli/rescaled_final/1696_rv.mp4	0.0	891.4983739852905	
53	431.8726329803467	fix_post	2		12	51.0	2.5	/experiments/AOT/AOT_stimuli/rescaled_final/1696_rv.mp4	0.0	892.0148391723633	0.0999908447265625
54	431.97262382507324	fix_pre	0		119	52.0	2.5	/experiments/AOT/AOT_stimuli/rescaled_final/0315_fw.mp4	0.0	892.1148300170898	0.9915721416473389
54	432.9561619758606	pulse	0	t		52.0	2.5	/experiments/AOT/AOT_stimuli/rescaled_final/0315_fw.mp4	0.0	893.0983681678772	
54	432.9641959667206	movie	1		245	52.0	2.5	/experiments/AOT/AOT_stimuli/rescaled_final/0315_fw.mp4	0.0	893.1064021587372	2.5084729194641113
54	434.55748200416565	pulse	1	t		52.0	2.5	/experiments/AOT/AOT_stimuli/rescaled_final/0315_fw.mp4	0.0	894.6996881961823	
54	435.4726688861847	fix_post	2		12	52.0	2.5	/experiments/AOT/AOT_stimuli/rescaled_final/0315_fw.mp4	0.0	895.6148750782013	0.10000991821289062
55	435.5726788043976	fix_pre	0		120	53.0	2.5	/experiments/AOT/AOT_stimuli/rescaled_final/0378_fw.mp4	0.0	895.7148849964142	0.9999849796295166
55	436.1561028957367	pulse	0	t		53.0	2.5	/experiments/AOT/AOT_stimuli/rescaled_final/0378_fw.mp4	0.0	896.2983090877533	
55	436.5726637840271	movie	1		244	53.0	2.5	/experiments/AOT/AOT_stimuli/rescaled_final/0378_fw.mp4	0.0	896.7148699760437	2.49949312210083
55	437.7562048435211	pulse	1	t		53.0	2.5	/experiments/AOT/AOT_stimuli/rescaled_final/0378_fw.mp4	0.0	897.8984110355377	
55	439.07215690612793	fix_post	2		12	53.0	2.5	/experiments/AOT/AOT_stimuli/rescaled_final/0378_fw.mp4	0.0	899.2143630981445	0.10046100616455078
56	439.1726179122925	fix_pre	0		120	54.0	2.5	/experiments/AOT/AOT_stimuli/rescaled_final/0546_fw.mp4	0.0	899.3148241043091	0.9999408721923828
56	439.35606384277344	pulse	0	t		54.0	2.5	/experiments/AOT/AOT_stimuli/rescaled_final/0546_fw.mp4	0.0	899.49827003479	
56	440.17255878448486	movie	1		243	54.0	2.5	/experiments/AOT/AOT_stimuli/rescaled_final/0546_fw.mp4	0.0	900.3147649765015	2.5001320838928223
56	440.9560618400574	pulse	1	t		54.0	2.5	/experiments/AOT/AOT_stimuli/rescaled_final/0546_fw.mp4	0.0	901.098268032074	
56	442.55472898483276	pulse	1	t		54.0	2.5	/experiments/AOT/AOT_stimuli/rescaled_final/0546_fw.mp4	0.0	902.6969351768494	
56	442.6726908683777	fix_post	2		12	54.0	2.5	/experiments/AOT/AOT_stimuli/rescaled_final/0546_fw.mp4	0.0	902.8148970603943	0.09992003440856934
57	442.77261090278625	fix_pre	0		120	55.0	2.5	/experiments/AOT/AOT_stimuli/rescaled_final/1291_rv.mp4	0.0	902.9148170948029	0.9999690055847168
57	443.772579908371	movie	1		244	55.0	2.5	/experiments/AOT/AOT_stimuli/rescaled_final/1291_rv.mp4	0.0	903.9147861003876	2.499753952026367
57	444.15615487098694	pulse	1	t		55.0	2.5	/experiments/AOT/AOT_stimuli/rescaled_final/1291_rv.mp4	0.0	904.2983610630035	
57	445.7555778026581	pulse	1	t		55.0	2.5	/experiments/AOT/AOT_stimuli/rescaled_final/1291_rv.mp4	0.0	905.8977839946747	
57	446.27233386039734	fix_post	2		12	55.0	2.5	/experiments/AOT/AOT_stimuli/rescaled_final/1291_rv.mp4	0.0	906.4145400524139	0.10036611557006836
58	446.3726999759674	fix_pre	0		119	56.0	2.5	blank	1.0	906.514906167984	0.991804838180542
58	447.35592579841614	pulse	0	t		56.0	2.5	blank	1.0	907.4981319904327	
58	447.36450481414795	movie	1		301	56.0	2.5	blank	1.0	907.5067110061646	2.5081281661987305
58	448.956093788147	pulse	1	t		56.0	2.5	blank	1.0	909.0982999801636	
58	449.8726329803467	fix_post	2		12	56.0	2.5	blank	1.0	910.0148391723633	0.09990882873535156
59	449.97254180908203	fix_pre	0		120	57.0	2.5	/experiments/AOT/AOT_stimuli/rescaled_final/2159_fw.mp4	0.0	910.1147480010986	1.0000231266021729
59	450.5560100078583	pulse	0	t		57.0	2.5	/experiments/AOT/AOT_stimuli/rescaled_final/2159_fw.mp4	0.0	910.6982161998749	
59	450.9725649356842	movie	1		244	57.0	2.5	/experiments/AOT/AOT_stimuli/rescaled_final/2159_fw.mp4	0.0	911.1147711277008	2.4999659061431885
59	452.1560788154602	pulse	1	t		57.0	2.5	/experiments/AOT/AOT_stimuli/rescaled_final/2159_fw.mp4	0.0	912.2982850074768	
59	453.4725308418274	fix_post	2		12	57.0	2.5	/experiments/AOT/AOT_stimuli/rescaled_final/2159_fw.mp4	0.0	913.614737033844	0.09997701644897461
60	453.57250785827637	fix_pre	0		120	58.0	2.5	/experiments/AOT/AOT_stimuli/rescaled_final/2128_fw.mp4	0.0	913.714714050293	1.0000159740447998
60	453.7560667991638	pulse	0	t		58.0	2.5	/experiments/AOT/AOT_stimuli/rescaled_final/2128_fw.mp4	0.0	913.8982729911804	
60	454.57252383232117	movie	1		245	58.0	2.5	/experiments/AOT/AOT_stimuli/rescaled_final/2128_fw.mp4	0.0	914.7147300243378	2.500023126602173
60	455.35598397254944	pulse	1	t		58.0	2.5	/experiments/AOT/AOT_stimuli/rescaled_final/2128_fw.mp4	0.0	915.498190164566	
60	456.9543128013611	pulse	1	t		58.0	2.5	/experiments/AOT/AOT_stimuli/rescaled_final/2128_fw.mp4	0.0	917.0965189933777	
60	457.07254695892334	fix_post	2		12	58.0	2.5	/experiments/AOT/AOT_stimuli/rescaled_final/2128_fw.mp4	0.0	917.2147531509399	0.0995938777923584
61	457.1721408367157	fix_pre	0		120	59.0	2.5	/experiments/AOT/AOT_stimuli/rescaled_final/0490_rv.mp4	0.0	917.3143470287323	0.9998691082000732
61	458.17200994491577	movie	1		244	59.0	2.5	/experiments/AOT/AOT_stimuli/rescaled_final/0490_rv.mp4	0.0	918.3142161369324	2.500051975250244
61	458.55574798583984	pulse	1	t		59.0	2.5	/experiments/AOT/AOT_stimuli/rescaled_final/0490_rv.mp4	0.0	918.6979541778564	
61	460.1559488773346	pulse	1	t		59.0	2.5	/experiments/AOT/AOT_stimuli/rescaled_final/0490_rv.mp4	0.0	920.2981550693512	
61	460.672061920166	fix_post	2		12	59.0	2.5	/experiments/AOT/AOT_stimuli/rescaled_final/0490_rv.mp4	0.0	920.8142681121826	0.10038900375366211
62	460.7724509239197	fix_pre	0		119	60.0	2.5	/experiments/AOT/AOT_stimuli/rescaled_final/1722_fw.mp4	0.0	920.9146571159363	0.9916629791259766
62	461.7558858394623	pulse	0	t		60.0	2.5	/experiments/AOT/AOT_stimuli/rescaled_final/1722_fw.mp4	0.0	921.8980920314789	
62	461.76411390304565	movie	1		243	60.0	2.5	/experiments/AOT/AOT_stimuli/rescaled_final/1722_fw.mp4	0.0	921.9063200950623	2.508251905441284
62	463.35545587539673	pulse	1	t		60.0	2.5	/experiments/AOT/AOT_stimuli/rescaled_final/1722_fw.mp4	0.0	923.4976620674133	
62	464.27236580848694	fix_post	2		12	60.0	2.5	/experiments/AOT/AOT_stimuli/rescaled_final/1722_fw.mp4	0.0	924.4145720005035	0.10005903244018555
63	464.3724248409271	fix_pre	0		120	61.0	2.5	/experiments/AOT/AOT_stimuli/rescaled_final/1450_rv.mp4	0.0	924.5146310329437	0.9999639987945557
63	464.95599484443665	pulse	0	t		61.0	2.5	/experiments/AOT/AOT_stimuli/rescaled_final/1450_rv.mp4	0.0	925.0982010364532	
63	465.3723888397217	movie	1		242	61.0	2.5	/experiments/AOT/AOT_stimuli/rescaled_final/1450_rv.mp4	0.0	925.5145950317383	2.500020980834961
63	466.555969953537	pulse	1	t		61.0	2.5	/experiments/AOT/AOT_stimuli/rescaled_final/1450_rv.mp4	0.0	926.6981761455536	
63	467.87240982055664	fix_post	2		12	61.0	2.5	/experiments/AOT/AOT_stimuli/rescaled_final/1450_rv.mp4	0.0	928.0146160125732	0.0999910831451416
64	467.9724009037018	fix_pre	0		120	62.0	2.5	blank	1.0	928.1146070957184	0.9999899864196777
64	468.15583777427673	pulse	0	t		62.0	2.5	blank	1.0	928.2980439662933	
64	468.97239089012146	movie	1		300	62.0	2.5	blank	1.0	929.1145970821381	2.4999969005584717
64	469.7559189796448	pulse	1	t		62.0	2.5	blank	1.0	929.8981251716614	
64	471.3559329509735	pulse	1	t		62.0	2.5	blank	1.0	931.4981391429901	
64	471.47238779067993	fix_post	2		12	62.0	2.5	blank	1.0	931.6145939826965	0.10001301765441895
65	471.57240080833435	fix_pre	0		120	63.0	2.5	/experiments/AOT/AOT_stimuli/rescaled_final/1589_rv.mp4	0.0	931.714607000351	1.0000641345977783
65	472.57246494293213	movie	1		245	63.0	2.5	/experiments/AOT/AOT_stimuli/rescaled_final/1589_rv.mp4	0.0	932.7146711349487	2.499501943588257
65	472.9558038711548	pulse	1	t		63.0	2.5	/experiments/AOT/AOT_stimuli/rescaled_final/1589_rv.mp4	0.0	933.0980100631714	
65	474.5558989048004	pulse	1	t		63.0	2.5	/experiments/AOT/AOT_stimuli/rescaled_final/1589_rv.mp4	0.0	934.698105096817	
65	475.0719668865204	fix_post	2		12	63.0	2.5	/experiments/AOT/AOT_stimuli/rescaled_final/1589_rv.mp4	0.0	935.214173078537	0.10039305686950684
66	475.1723599433899	fix_pre	0		119	64.0	2.5	/experiments/AOT/AOT_stimuli/rescaled_final/0977_rv.mp4	0.0	935.3145661354065	0.9917678833007812
66	476.1558427810669	pulse	0	t		64.0	2.5	/experiments/AOT/AOT_stimuli/rescaled_final/0977_rv.mp4	0.0	936.2980489730835	
66	476.1641278266907	movie	1		246	64.0	2.5	/experiments/AOT/AOT_stimuli/rescaled_final/0977_rv.mp4	0.0	936.3063340187073	2.5083580017089844
66	477.75567984580994	pulse	1	t		64.0	2.5	/experiments/AOT/AOT_stimuli/rescaled_final/0977_rv.mp4	0.0	937.8978860378265	
66	478.67248582839966	fix_post	2		12	64.0	2.5	/experiments/AOT/AOT_stimuli/rescaled_final/0977_rv.mp4	0.0	938.8146920204163	0.09997415542602539
67	478.7724599838257	fix_pre	0		120	65.0	2.5	/experiments/AOT/AOT_stimuli/rescaled_final/0602_rv.mp4	0.0	938.9146661758423	0.9999608993530273
67	479.35708594322205	pulse	0	t		65.0	2.5	/experiments/AOT/AOT_stimuli/rescaled_final/0602_rv.mp4	0.0	939.4992921352386	
67	479.7724208831787	movie	1		244	65.0	2.5	/experiments/AOT/AOT_stimuli/rescaled_final/0602_rv.mp4	0.0	939.9146270751953	2.4999499320983887
67	480.9559648036957	pulse	1	t		65.0	2.5	/experiments/AOT/AOT_stimuli/rescaled_final/0602_rv.mp4	0.0	941.0981709957123	
67	482.2723708152771	fix_post	2		12	65.0	2.5	/experiments/AOT/AOT_stimuli/rescaled_final/0602_rv.mp4	0.0	942.4145770072937	0.10004997253417969
68	482.3724207878113	fix_pre	0		120	66.0	2.5	/experiments/AOT/AOT_stimuli/rescaled_final/1193_fw.mp4	0.0	942.5146269798279	0.9999291896820068
68	482.55595088005066	pulse	0	t		66.0	2.5	/experiments/AOT/AOT_stimuli/rescaled_final/1193_fw.mp4	0.0	942.6981570720673	
68	483.3723499774933	movie	1		242	66.0	2.5	/experiments/AOT/AOT_stimuli/rescaled_final/1193_fw.mp4	0.0	943.5145561695099	2.4995789527893066
68	484.1558368206024	pulse	1	t		66.0	2.5	/experiments/AOT/AOT_stimuli/rescaled_final/1193_fw.mp4	0.0	944.298043012619	
68	485.7541558742523	pulse	1	t		66.0	2.5	/experiments/AOT/AOT_stimuli/rescaled_final/1193_fw.mp4	0.0	945.8963620662689	
68	485.8719289302826	fix_post	2		12	66.0	2.5	/experiments/AOT/AOT_stimuli/rescaled_final/1193_fw.mp4	0.0	946.0141351222992	0.10040807723999023
69	485.9723370075226	fix_pre	0		120	67.0	2.5	/experiments/AOT/AOT_stimuli/rescaled_final/0906_rv.mp4	0.0	946.1145431995392	0.9999759197235107
69	486.9723129272461	movie	1		245	67.0	2.5	/experiments/AOT/AOT_stimuli/rescaled_final/0906_rv.mp4	0.0	947.1145191192627	2.5000040531158447
69	487.35528898239136	pulse	1	t		67.0	2.5	/experiments/AOT/AOT_stimuli/rescaled_final/0906_rv.mp4	0.0	947.497495174408	
69	488.9559118747711	pulse	1	t		67.0	2.5	/experiments/AOT/AOT_stimuli/rescaled_final/0906_rv.mp4	0.0	949.0981180667877	
69	489.47231698036194	fix_post	2		12	67.0	2.5	/experiments/AOT/AOT_stimuli/rescaled_final/0906_rv.mp4	0.0	949.6145231723785	0.09997081756591797
70	489.57228779792786	fix_pre	0		119	68.0	2.5	blank	1.0	949.7144939899445	0.9917280673980713
70	490.55581879615784	pulse	0	t		68.0	2.5	blank	1.0	950.6980249881744	
70	490.5640158653259	movie	1		301	68.0	2.5	blank	1.0	950.7062220573425	2.5083539485931396
70	492.15582180023193	pulse	1	t		68.0	2.5	blank	1.0	952.2980279922485	
70	493.07236981391907	fix_post	2		12	68.0	2.5	blank	1.0	953.2145760059357	0.10012507438659668
71	493.17249488830566	fix_pre	0		120	69.0	2.5	/experiments/AOT/AOT_stimuli/rescaled_final/1583_fw.mp4	0.0	953.3147010803223	0.9994211196899414
71	493.755774974823	pulse	0	t		69.0	2.5	/experiments/AOT/AOT_stimuli/rescaled_final/1583_fw.mp4	0.0	953.8979811668396	
71	494.1719160079956	movie	1		243	69.0	2.5	/experiments/AOT/AOT_stimuli/rescaled_final/1583_fw.mp4	0.0	954.3141222000122	2.499983787536621
71	495.3559777736664	pulse	1	t		69.0	2.5	/experiments/AOT/AOT_stimuli/rescaled_final/1583_fw.mp4	0.0	955.498183965683	
71	496.6718997955322	fix_post	2		12	69.0	2.5	/experiments/AOT/AOT_stimuli/rescaled_final/1583_fw.mp4	0.0	956.8141059875488	0.10042619705200195
72	496.77232599258423	fix_pre	0		120	70.0	2.5	/experiments/AOT/AOT_stimuli/rescaled_final/0307_fw.mp4	0.0	956.9145321846008	1.00003981590271
72	496.95597195625305	pulse	0	t		70.0	2.5	/experiments/AOT/AOT_stimuli/rescaled_final/0307_fw.mp4	0.0	957.0981781482697	
72	497.77236580848694	movie	1		245	70.0	2.5	/experiments/AOT/AOT_stimuli/rescaled_final/0307_fw.mp4	0.0	957.9145720005035	2.499490976333618
72	498.5557758808136	pulse	1	t		70.0	2.5	/experiments/AOT/AOT_stimuli/rescaled_final/0307_fw.mp4	0.0	958.6979820728302	
72	500.1539959907532	pulse	1	t		70.0	2.5	/experiments/AOT/AOT_stimuli/rescaled_final/0307_fw.mp4	0.0	960.2962021827698	
72	500.27185678482056	fix_post	2		12	70.0	2.5	/experiments/AOT/AOT_stimuli/rescaled_final/0307_fw.mp4	0.0	960.4140629768372	0.10005307197570801
73	500.37190985679626	fix_pre	0		120	71.0	2.5	/experiments/AOT/AOT_stimuli/rescaled_final/0700_fw.mp4	0.0	960.5141160488129	1.0000219345092773
73	501.37193179130554	movie	1		243	71.0	2.5	/experiments/AOT/AOT_stimuli/rescaled_final/0700_fw.mp4	0.0	961.5141379833221	2.5004069805145264
73	501.75597500801086	pulse	1	t		71.0	2.5	/experiments/AOT/AOT_stimuli/rescaled_final/0700_fw.mp4	0.0	961.8981812000275	
73	503.3556659221649	pulse	1	t		71.0	2.5	/experiments/AOT/AOT_stimuli/rescaled_final/0700_fw.mp4	0.0	963.4978721141815	
73	503.87233877182007	fix_post	2		12	71.0	2.5	/experiments/AOT/AOT_stimuli/rescaled_final/0700_fw.mp4	0.0	964.0145449638367	0.10006213188171387
74	503.9724009037018	fix_pre	0		119	72.0	2.5	/experiments/AOT/AOT_stimuli/rescaled_final/0282_fw.mp4	0.0	964.1146070957184	0.9915421009063721
74	504.95583486557007	pulse	0	t		72.0	2.5	/experiments/AOT/AOT_stimuli/rescaled_final/0282_fw.mp4	0.0	965.0980410575867	
74	504.96394300460815	movie	1		244	72.0	2.5	/experiments/AOT/AOT_stimuli/rescaled_final/0282_fw.mp4	0.0	965.1061491966248	2.5079498291015625
74	506.5551459789276	pulse	1	t		72.0	2.5	/experiments/AOT/AOT_stimuli/rescaled_final/0282_fw.mp4	0.0	966.6973521709442	
74	507.4718928337097	fix_post	2		12	72.0	2.5	/experiments/AOT/AOT_stimuli/rescaled_final/0282_fw.mp4	0.0	967.6140990257263	0.1003720760345459
75	507.57226490974426	fix_pre	0		120	73.0	2.5	/experiments/AOT/AOT_stimuli/rescaled_final/1722_rv.mp4	0.0	967.7144711017609	0.9999830722808838
75	508.1556169986725	pulse	0	t		73.0	2.5	/experiments/AOT/AOT_stimuli/rescaled_final/1722_rv.mp4	0.0	968.2978231906891	
75	508.57224798202515	movie	1		242	73.0	2.5	/experiments/AOT/AOT_stimuli/rescaled_final/1722_rv.mp4	0.0	968.7144541740417	2.4999608993530273
75	509.75569796562195	pulse	1	t		73.0	2.5	/experiments/AOT/AOT_stimuli/rescaled_final/1722_rv.mp4	0.0	969.8979041576385	
75	511.0722088813782	fix_post	2		12	73.0	2.5	/experiments/AOT/AOT_stimuli/rescaled_final/1722_rv.mp4	0.0	971.2144150733948	0.09999990463256836
76	511.17220878601074	fix_pre	0		120	74.0	2.5	/experiments/AOT/AOT_stimuli/rescaled_final/2122_rv.mp4	0.0	971.3144149780273	0.9999690055847168
76	511.3557999134064	pulse	0	t		74.0	2.5	/experiments/AOT/AOT_stimuli/rescaled_final/2122_rv.mp4	0.0	971.498006105423	
76	512.1721777915955	movie	1		242	74.0	2.5	/experiments/AOT/AOT_stimuli/rescaled_final/2122_rv.mp4	0.0	972.3143839836121	2.5001251697540283
76	512.9555978775024	pulse	1	t		74.0	2.5	/experiments/AOT/AOT_stimuli/rescaled_final/2122_rv.mp4	0.0	973.097804069519	
76	514.554221868515	pulse	1	t		74.0	2.5	/experiments/AOT/AOT_stimuli/rescaled_final/2122_rv.mp4	0.0	974.6964280605316	
76	514.6723029613495	fix_post	2		12	74.0	2.5	/experiments/AOT/AOT_stimuli/rescaled_final/2122_rv.mp4	0.0	974.8145091533661	0.09952592849731445
77	514.7718288898468	fix_pre	0		120	75.0	2.5	/experiments/AOT/AOT_stimuli/rescaled_final/0874_fw.mp4	0.0	974.9140350818634	1.000365972518921
77	515.7721948623657	movie	1		242	75.0	2.5	/experiments/AOT/AOT_stimuli/rescaled_final/0874_fw.mp4	0.0	975.9144010543823	2.500005006790161
77	516.155464887619	pulse	1	t		75.0	2.5	/experiments/AOT/AOT_stimuli/rescaled_final/0874_fw.mp4	0.0	976.2976710796356	
77	517.7557058334351	pulse	1	t		75.0	2.5	/experiments/AOT/AOT_stimuli/rescaled_final/0874_fw.mp4	0.0	977.8979120254517	
77	518.2721998691559	fix_post	2		12	75.0	2.5	/experiments/AOT/AOT_stimuli/rescaled_final/0874_fw.mp4	0.0	978.4144060611725	0.0999460220336914
78	518.3721458911896	fix_pre	0		119	76.0	2.5	blank	1.0	978.5143520832062	0.9916539192199707
78	519.355703830719	pulse	0	t		76.0	2.5	blank	1.0	979.4979100227356	
78	519.3637998104095	movie	1		301	76.0	2.5	blank	1.0	979.5060060024261	2.508357048034668
78	520.95569896698	pulse	1	t		76.0	2.5	blank	1.0	981.0979051589966	
78	521.8721568584442	fix_post	2		12	76.0	2.5	blank	1.0	982.0143630504608	0.10000109672546387
79	521.9721579551697	fix_pre	0		120	77.0	2.5	/experiments/AOT/AOT_stimuli/rescaled_final/0485_rv.mp4	0.0	982.1143641471863	1.0000278949737549
79	522.5556559562683	pulse	0	t		77.0	2.5	/experiments/AOT/AOT_stimuli/rescaled_final/0485_rv.mp4	0.0	982.6978621482849	
79	522.9721858501434	movie	1		245	77.0	2.5	/experiments/AOT/AOT_stimuli/rescaled_final/0485_rv.mp4	0.0	983.11439204216	2.499993085861206
79	524.1557559967041	pulse	1	t		77.0	2.5	/experiments/AOT/AOT_stimuli/rescaled_final/0485_rv.mp4	0.0	984.2979621887207	
79	525.4721789360046	fix_post	2		12	77.0	2.5	/experiments/AOT/AOT_stimuli/rescaled_final/0485_rv.mp4	0.0	985.6143851280212	0.1000208854675293
80	525.5721998214722	fix_pre	0		120	78.0	2.5	/experiments/AOT/AOT_stimuli/rescaled_final/1450_fw.mp4	0.0	985.7144060134888	0.9999890327453613
80	525.7556719779968	pulse	0	t		78.0	2.5	/experiments/AOT/AOT_stimuli/rescaled_final/1450_fw.mp4	0.0	985.8978781700134	
80	526.5721888542175	movie	1		242	78.0	2.5	/experiments/AOT/AOT_stimuli/rescaled_final/1450_fw.mp4	0.0	986.7143950462341	2.4995601177215576
80	527.3557798862457	pulse	1	t		78.0	2.5	/experiments/AOT/AOT_stimuli/rescaled_final/1450_fw.mp4	0.0	987.4979860782623	
80	528.9540629386902	pulse	1	t		78.0	2.5	/experiments/AOT/AOT_stimuli/rescaled_final/1450_fw.mp4	0.0	989.0962691307068	
80	529.0717489719391	fix_post	2		12	78.0	2.5	/experiments/AOT/AOT_stimuli/rescaled_final/1450_fw.mp4	0.0	989.2139551639557	0.1003718376159668
81	529.172120809555	fix_pre	0		120	79.0	2.5	/experiments/AOT/AOT_stimuli/rescaled_final/0123_rv.mp4	0.0	989.3143270015717	0.9999961853027344
81	530.1721169948578	movie	1		242	79.0	2.5	/experiments/AOT/AOT_stimuli/rescaled_final/0123_rv.mp4	0.0	990.3143231868744	2.499586820602417
81	530.5553097724915	pulse	1	t		79.0	2.5	/experiments/AOT/AOT_stimuli/rescaled_final/0123_rv.mp4	0.0	990.697515964508	
81	532.1555798053741	pulse	1	t		79.0	2.5	/experiments/AOT/AOT_stimuli/rescaled_final/0123_rv.mp4	0.0	992.2977859973907	
81	532.6717038154602	fix_post	2		12	79.0	2.5	/experiments/AOT/AOT_stimuli/rescaled_final/0123_rv.mp4	0.0	992.8139100074768	0.10042500495910645
82	532.7721288204193	fix_pre	0		119	80.0	2.5	/experiments/AOT/AOT_stimuli/rescaled_final/0485_rv.mp4	0.0	992.9143350124359	0.9916560649871826
82	533.7555639743805	pulse	0	t		80.0	2.5	/experiments/AOT/AOT_stimuli/rescaled_final/0485_rv.mp4	0.0	993.8977701663971	
82	533.7637848854065	movie	1		244	80.0	2.5	/experiments/AOT/AOT_stimuli/rescaled_final/0485_rv.mp4	0.0	993.9059910774231	2.5082480907440186
82	535.3551478385925	pulse	1	t		80.0	2.5	/experiments/AOT/AOT_stimuli/rescaled_final/0485_rv.mp4	0.0	995.4973540306091	
82	536.2720329761505	fix_post	2		12	80.0	2.5	/experiments/AOT/AOT_stimuli/rescaled_final/0485_rv.mp4	0.0	996.4142391681671	0.10003900527954102
83	536.37207198143	fix_pre	0		120	81.0	2.5	/experiments/AOT/AOT_stimuli/rescaled_final/0906_rv.mp4	0.0	996.5142781734467	1.007948875427246
83	536.9555909633636	pulse	0	t		81.0	2.5	/experiments/AOT/AOT_stimuli/rescaled_final/0906_rv.mp4	0.0	997.0977971553802	
83	537.3800208568573	movie	1		244	81.0	2.5	/experiments/AOT/AOT_stimuli/rescaled_final/0906_rv.mp4	0.0	997.5222270488739	2.4920599460601807
83	538.5556058883667	pulse	1	t		81.0	2.5	/experiments/AOT/AOT_stimuli/rescaled_final/0906_rv.mp4	0.0	998.6978120803833	
83	539.8720808029175	fix_post	2		12	81.0	2.5	/experiments/AOT/AOT_stimuli/rescaled_final/0906_rv.mp4	0.0	1000.0142869949341	0.09993410110473633
84	539.9720149040222	fix_pre	0		120	82.0	2.5	/experiments/AOT/AOT_stimuli/rescaled_final/0130_rv.mp4	0.0	1000.1142210960388	1.0000910758972168
84	540.1555399894714	pulse	0	t		82.0	2.5	/experiments/AOT/AOT_stimuli/rescaled_final/0130_rv.mp4	0.0	1000.297746181488	
84	540.9721059799194	movie	1		242	82.0	2.5	/experiments/AOT/AOT_stimuli/rescaled_final/0130_rv.mp4	0.0	1001.114312171936	2.5000247955322266
84	541.7555658817291	pulse	1	t		82.0	2.5	/experiments/AOT/AOT_stimuli/rescaled_final/0130_rv.mp4	0.0	1001.8977720737457	
84	543.3540639877319	pulse	1	t		82.0	2.5	/experiments/AOT/AOT_stimuli/rescaled_final/0130_rv.mp4	0.0	1003.4962701797485	
84	543.4721307754517	fix_post	2		12	82.0	2.5	/experiments/AOT/AOT_stimuli/rescaled_final/0130_rv.mp4	0.0	1003.6143369674683	0.09991908073425293
85	543.5720498561859	fix_pre	0		120	83.0	2.5	blank	1.0	1003.7142560482025	1.0000829696655273
85	544.5721328258514	movie	1		300	83.0	2.5	blank	1.0	1004.714339017868	2.5000200271606445
85	544.9555149078369	pulse	1	t		83.0	2.5	blank	1.0	1005.0977210998535	
85	546.5554859638214	pulse	1	t		83.0	2.5	blank	1.0	1006.697692155838	
85	547.0721528530121	fix_post	2		12	83.0	2.5	blank	1.0	1007.2143590450287	0.0999290943145752
87	547.1720819473267	stim	0		1716					1007.3142881393433	14.29993200302124
87	548.1555597782135	pulse	0	t						1008.2977659702301	
87	549.7556247711182	pulse	0	t						1009.8978309631348	
87	551.3554790019989	pulse	0	t						1011.4976851940155	
87	552.9555559158325	pulse	0	t						1013.0977621078491	
87	554.5555868148804	pulse	0	t						1014.697793006897	
87	556.1550619602203	pulse	0	t						1016.2972681522369	
87	557.7551279067993	pulse	0	t						1017.8973340988159	
87	559.3554239273071	pulse	0	t						1019.4976301193237	
87	560.9554228782654	pulse	0	t						1021.097629070282	
