trial_nr	onset	event_type	phase	response	nr_frames	movie_index	movie_duration	movie_file	blank	onset_abs	duration
0	0.1998441219329834	stim	0		17					21.40230417251587	0.14171504974365234
0	0.3336219787597656	response	0	space						21.53608202934265	
1	0.34155917167663574	stim	0		4911					21.54401922225952	40.941452980041504
1	41.273112058639526	pulse	0	t						62.47557210922241	
1	41.28301215171814	stim	1		1715					62.485472202301025	14.300165891647339
1	42.864819049835205	pulse	1	t						64.06727910041809	
1	44.46501708030701	pulse	1	t						65.66747713088989	
1	46.0576491355896	pulse	1	t						67.26010918617249	
1	47.65795111656189	pulse	1	t						68.86041116714478	
1	49.258198976516724	pulse	1	t						70.46065902709961	
1	50.85828900337219	pulse	1	t						72.06074905395508	
1	52.45772695541382	pulse	1	t						73.6601870059967	
1	54.05802297592163	pulse	1	t						75.26048302650452	
2	55.58317804336548	fix_pre	0		10	0.0	2.5	/experiments/knapen_AOT/AOT_stimuli/rescaled_final/1985_rv.mp4	0.0	76.78563809394836	0.08327794075012207
2	55.658377170562744	pulse	0	t		0.0	2.5	/experiments/knapen_AOT/AOT_stimuli/rescaled_final/1985_rv.mp4	0.0	76.86083722114563	
2	55.6664559841156	movie	1		245	0.0	2.5	/experiments/knapen_AOT/AOT_stimuli/rescaled_final/1985_rv.mp4	0.0	76.86891603469849	2.508718967437744
2	57.25910711288452	pulse	1	t		0.0	2.5	/experiments/knapen_AOT/AOT_stimuli/rescaled_final/1985_rv.mp4	0.0	78.46156716346741	
2	58.175174951553345	fix_post	2		12	0.0	2.5	/experiments/knapen_AOT/AOT_stimuli/rescaled_final/1985_rv.mp4	0.0	79.37763500213623	0.10003209114074707
3	58.27520704269409	fix_pre	0		120	1.0	2.5	/experiments/knapen_AOT/AOT_stimuli/rescaled_final/0439_rv.mp4	0.0	79.47766709327698	1.000133991241455
3	58.85893511772156	pulse	0	t		1.0	2.5	/experiments/knapen_AOT/AOT_stimuli/rescaled_final/0439_rv.mp4	0.0	80.06139516830444	
3	59.27534103393555	movie	1		243	1.0	2.5	/experiments/knapen_AOT/AOT_stimuli/rescaled_final/0439_rv.mp4	0.0	80.47780108451843	2.500383138656616
3	60.45910596847534	pulse	1	t		1.0	2.5	/experiments/knapen_AOT/AOT_stimuli/rescaled_final/0439_rv.mp4	0.0	81.66156601905823	
3	61.77572417259216	fix_post	2		12	1.0	2.5	/experiments/knapen_AOT/AOT_stimuli/rescaled_final/0439_rv.mp4	0.0	82.97818422317505	0.1000068187713623
4	61.875730991363525	fix_pre	0		120	2.0	2.5	/experiments/knapen_AOT/AOT_stimuli/rescaled_final/1825_fw.mp4	0.0	83.07819104194641	1.0001680850982666
4	62.05926203727722	pulse	0	t		2.0	2.5	/experiments/knapen_AOT/AOT_stimuli/rescaled_final/1825_fw.mp4	0.0	83.26172208786011	
4	62.87589907646179	movie	1		243	2.0	2.5	/experiments/knapen_AOT/AOT_stimuli/rescaled_final/1825_fw.mp4	0.0	84.07835912704468	2.5003609657287598
4	63.65948414802551	pulse	1	t		2.0	2.5	/experiments/knapen_AOT/AOT_stimuli/rescaled_final/1825_fw.mp4	0.0	84.8619441986084	
4	65.25979900360107	pulse	1	t		2.0	2.5	/experiments/knapen_AOT/AOT_stimuli/rescaled_final/1825_fw.mp4	0.0	86.46225905418396	
4	65.37626004219055	fix_post	2		12	2.0	2.5	/experiments/knapen_AOT/AOT_stimuli/rescaled_final/1825_fw.mp4	0.0	86.57872009277344	0.1000220775604248
5	65.47628211975098	fix_pre	0		120	3.0	2.5	/experiments/knapen_AOT/AOT_stimuli/rescaled_final/2150_fw.mp4	0.0	86.67874217033386	1.0001559257507324
5	66.47643804550171	movie	1		242	3.0	2.5	/experiments/knapen_AOT/AOT_stimuli/rescaled_final/2150_fw.mp4	0.0	87.6788980960846	2.4920430183410645
5	66.86440515518188	pulse	1	t		3.0	2.5	/experiments/knapen_AOT/AOT_stimuli/rescaled_final/2150_fw.mp4	0.0	88.06686520576477	
5	68.4603340625763	pulse	1	t		3.0	2.5	/experiments/knapen_AOT/AOT_stimuli/rescaled_final/2150_fw.mp4	0.0	89.66279411315918	
5	68.96848106384277	fix_post	2		12	3.0	2.5	/experiments/knapen_AOT/AOT_stimuli/rescaled_final/2150_fw.mp4	0.0	90.17094111442566	0.10000300407409668
6	69.06848406791687	fix_pre	0		120	4.0	2.5	/experiments/knapen_AOT/AOT_stimuli/rescaled_final/0414_rv.mp4	0.0	90.27094411849976	1.0001559257507324
6	70.06048512458801	pulse	0	t		4.0	2.5	/experiments/knapen_AOT/AOT_stimuli/rescaled_final/0414_rv.mp4	0.0	91.2629451751709	
6	70.0686399936676	movie	1		244	4.0	2.5	/experiments/knapen_AOT/AOT_stimuli/rescaled_final/0414_rv.mp4	0.0	91.27110004425049	2.50870418548584
6	71.6613621711731	pulse	1	t		4.0	2.5	/experiments/knapen_AOT/AOT_stimuli/rescaled_final/0414_rv.mp4	0.0	92.86382222175598	
6	72.57734417915344	fix_post	2		12	4.0	2.5	/experiments/knapen_AOT/AOT_stimuli/rescaled_final/0414_rv.mp4	0.0	93.77980422973633	0.10001897811889648
7	72.67736315727234	fix_pre	0		120	5.0	2.5	blank	1.0	93.87982320785522	1.0001699924468994
7	73.26100707054138	pulse	0	t		5.0	2.5	blank	1.0	94.46346712112427	
7	73.67753314971924	movie	1		300	5.0	2.5	blank	1.0	94.87999320030212	2.5003609657287598
7	74.86132311820984	pulse	1	t		5.0	2.5	blank	1.0	96.06378316879272	
7	76.177894115448	fix_post	2		12	5.0	2.5	blank	1.0	97.38035416603088	0.09998488426208496
8	76.27787899971008	fix_pre	0		120	6.0	2.5	/experiments/knapen_AOT/AOT_stimuli/rescaled_final/0724_rv.mp4	0.0	97.48033905029297	1.0001471042633057
8	76.46160316467285	pulse	0	t		6.0	2.5	/experiments/knapen_AOT/AOT_stimuli/rescaled_final/0724_rv.mp4	0.0	97.66406321525574	
8	77.27802610397339	movie	1		243	6.0	2.5	/experiments/knapen_AOT/AOT_stimuli/rescaled_final/0724_rv.mp4	0.0	98.48048615455627	2.5005009174346924
8	78.06169009208679	pulse	1	t		6.0	2.5	/experiments/knapen_AOT/AOT_stimuli/rescaled_final/0724_rv.mp4	0.0	99.26415014266968	
8	79.6618881225586	pulse	1	t		6.0	2.5	/experiments/knapen_AOT/AOT_stimuli/rescaled_final/0724_rv.mp4	0.0	100.86434817314148	
8	79.77852702140808	fix_post	2		12	6.0	2.5	/experiments/knapen_AOT/AOT_stimuli/rescaled_final/0724_rv.mp4	0.0	100.98098707199097	0.09989500045776367
9	79.87842202186584	fix_pre	0		119	7.0	2.5	/experiments/knapen_AOT/AOT_stimuli/rescaled_final/1224_fw.mp4	0.0	101.08088207244873	0.9918229579925537
9	80.8702449798584	movie	1		244	7.0	2.5	/experiments/knapen_AOT/AOT_stimuli/rescaled_final/1224_fw.mp4	0.0	102.07270503044128	2.500394105911255
9	81.2623519897461	pulse	1	t		7.0	2.5	/experiments/knapen_AOT/AOT_stimuli/rescaled_final/1224_fw.mp4	0.0	102.46481204032898	
9	82.86245107650757	pulse	1	t		7.0	2.5	/experiments/knapen_AOT/AOT_stimuli/rescaled_final/1224_fw.mp4	0.0	104.06491112709045	
9	83.37063908576965	fix_post	2		12	7.0	2.5	/experiments/knapen_AOT/AOT_stimuli/rescaled_final/1224_fw.mp4	0.0	104.57309913635254	0.09997797012329102
10	83.47061705589294	fix_pre	0		120	8.0	2.5	/experiments/knapen_AOT/AOT_stimuli/rescaled_final/1046_rv.mp4	0.0	104.67307710647583	1.000162124633789
10	84.46273303031921	pulse	0	t		8.0	2.5	/experiments/knapen_AOT/AOT_stimuli/rescaled_final/1046_rv.mp4	0.0	105.6651930809021	
10	84.47077918052673	movie	1		244	8.0	2.5	/experiments/knapen_AOT/AOT_stimuli/rescaled_final/1046_rv.mp4	0.0	105.67323923110962	2.5087358951568604
10	86.06353306770325	pulse	1	t		8.0	2.5	/experiments/knapen_AOT/AOT_stimuli/rescaled_final/1046_rv.mp4	0.0	107.26599311828613	
10	86.9795150756836	fix_post	2		12	8.0	2.5	/experiments/knapen_AOT/AOT_stimuli/rescaled_final/1046_rv.mp4	0.0	108.18197512626648	0.10000991821289062
11	87.07952499389648	fix_pre	0		120	9.0	2.5	/experiments/knapen_AOT/AOT_stimuli/rescaled_final/1957_rv.mp4	0.0	108.28198504447937	1.0001270771026611
11	87.66312599182129	pulse	0	t		9.0	2.5	/experiments/knapen_AOT/AOT_stimuli/rescaled_final/1957_rv.mp4	0.0	108.86558604240417	
11	88.07965207099915	movie	1		243	9.0	2.5	/experiments/knapen_AOT/AOT_stimuli/rescaled_final/1957_rv.mp4	0.0	109.28211212158203	2.5003879070281982
11	89.26354217529297	pulse	1	t		9.0	2.5	/experiments/knapen_AOT/AOT_stimuli/rescaled_final/1957_rv.mp4	0.0	110.46600222587585	
11	90.58003997802734	fix_post	2		12	9.0	2.5	/experiments/knapen_AOT/AOT_stimuli/rescaled_final/1957_rv.mp4	0.0	111.78250002861023	0.09999513626098633
12	90.68003511428833	fix_pre	0		120	10.0	2.5	/experiments/knapen_AOT/AOT_stimuli/rescaled_final/0306_rv.mp4	0.0	111.88249516487122	1.000175952911377
12	90.86368608474731	pulse	0	t		10.0	2.5	/experiments/knapen_AOT/AOT_stimuli/rescaled_final/0306_rv.mp4	0.0	112.0661461353302	
12	91.6802110671997	movie	1		246	10.0	2.5	/experiments/knapen_AOT/AOT_stimuli/rescaled_final/0306_rv.mp4	0.0	112.88267111778259	2.500369071960449
12	92.46381902694702	pulse	1	t		10.0	2.5	/experiments/knapen_AOT/AOT_stimuli/rescaled_final/0306_rv.mp4	0.0	113.66627907752991	
12	94.06427216529846	pulse	1	t		10.0	2.5	/experiments/knapen_AOT/AOT_stimuli/rescaled_final/0306_rv.mp4	0.0	115.26673221588135	
12	94.18058013916016	fix_post	2		12	10.0	2.5	/experiments/knapen_AOT/AOT_stimuli/rescaled_final/0306_rv.mp4	0.0	115.38304018974304	0.09998703002929688
13	94.28056716918945	fix_pre	0		120	11.0	2.5	/experiments/knapen_AOT/AOT_stimuli/rescaled_final/2040_rv.mp4	0.0	115.48302721977234	1.0001449584960938
13	95.28071212768555	movie	1		246	11.0	2.5	/experiments/knapen_AOT/AOT_stimuli/rescaled_final/2040_rv.mp4	0.0	116.48317217826843	2.4920859336853027
13	95.66486501693726	pulse	1	t		11.0	2.5	/experiments/knapen_AOT/AOT_stimuli/rescaled_final/2040_rv.mp4	0.0	116.86732506752014	
13	97.26461505889893	pulse	1	t		11.0	2.5	/experiments/knapen_AOT/AOT_stimuli/rescaled_final/2040_rv.mp4	0.0	118.46707510948181	
13	97.77279806137085	fix_post	2		12	11.0	2.5	/experiments/knapen_AOT/AOT_stimuli/rescaled_final/2040_rv.mp4	0.0	118.97525811195374	0.09996700286865234
14	97.8727650642395	fix_pre	0		120	12.0	2.5	/experiments/knapen_AOT/AOT_stimuli/rescaled_final/1770_fw.mp4	0.0	119.07522511482239	1.0001709461212158
14	98.86479806900024	pulse	0	t		12.0	2.5	/experiments/knapen_AOT/AOT_stimuli/rescaled_final/1770_fw.mp4	0.0	120.06725811958313	
14	98.87293601036072	movie	1		244	12.0	2.5	/experiments/knapen_AOT/AOT_stimuli/rescaled_final/1770_fw.mp4	0.0	120.0753960609436	2.508676052093506
14	100.46550703048706	pulse	1	t		12.0	2.5	/experiments/knapen_AOT/AOT_stimuli/rescaled_final/1770_fw.mp4	0.0	121.66796708106995	
14	101.38161206245422	fix_post	2		12	12.0	2.5	/experiments/knapen_AOT/AOT_stimuli/rescaled_final/1770_fw.mp4	0.0	122.58407211303711	0.10005497932434082
15	101.48166704177856	fix_pre	0		120	13.0	2.5	/experiments/knapen_AOT/AOT_stimuli/rescaled_final/1670_rv.mp4	0.0	122.68412709236145	1.000143051147461
15	102.06532502174377	pulse	0	t		13.0	2.5	/experiments/knapen_AOT/AOT_stimuli/rescaled_final/1670_rv.mp4	0.0	123.26778507232666	
15	102.48181009292603	movie	1		245	13.0	2.5	/experiments/knapen_AOT/AOT_stimuli/rescaled_final/1670_rv.mp4	0.0	123.68427014350891	2.500356912612915
15	103.66567206382751	pulse	1	t		13.0	2.5	/experiments/knapen_AOT/AOT_stimuli/rescaled_final/1670_rv.mp4	0.0	124.8681321144104	
15	104.98216700553894	fix_post	2		12	13.0	2.5	/experiments/knapen_AOT/AOT_stimuli/rescaled_final/1670_rv.mp4	0.0	126.18462705612183	0.10006594657897949
16	105.08223295211792	fix_pre	0		120	14.0	2.5	blank	1.0	126.2846930027008	1.0001170635223389
16	105.25815296173096	pulse	0	t		14.0	2.5	blank	1.0	126.46061301231384	
16	106.08235001564026	movie	1		300	14.0	2.5	blank	1.0	127.28481006622314	2.500369071960449
16	106.85764217376709	pulse	1	t		14.0	2.5	blank	1.0	128.06010222434998	
16	108.45784902572632	pulse	1	t		14.0	2.5	blank	1.0	129.6603090763092	
16	108.58271908760071	fix_post	2		12	14.0	2.5	blank	1.0	129.7851791381836	0.09998798370361328
17	108.68270707130432	fix_pre	0		119	15.0	2.5	/experiments/knapen_AOT/AOT_stimuli/rescaled_final/1340_fw.mp4	0.0	129.8851671218872	0.9918460845947266
17	109.67455315589905	movie	1		243	15.0	2.5	/experiments/knapen_AOT/AOT_stimuli/rescaled_final/1340_fw.mp4	0.0	130.87701320648193	2.5004448890686035
17	110.05907797813416	pulse	1	t		15.0	2.5	/experiments/knapen_AOT/AOT_stimuli/rescaled_final/1340_fw.mp4	0.0	131.26153802871704	
17	111.65837502479553	pulse	1	t		15.0	2.5	/experiments/knapen_AOT/AOT_stimuli/rescaled_final/1340_fw.mp4	0.0	132.86083507537842	
17	112.17499804496765	fix_post	2		12	15.0	2.5	/experiments/knapen_AOT/AOT_stimuli/rescaled_final/1340_fw.mp4	0.0	133.37745809555054	0.09993505477905273
18	112.2749330997467	fix_pre	0		119	16.0	2.5	/experiments/knapen_AOT/AOT_stimuli/rescaled_final/1674_fw.mp4	0.0	133.4773931503296	0.9918148517608643
18	113.2587480545044	pulse	0	t		16.0	2.5	/experiments/knapen_AOT/AOT_stimuli/rescaled_final/1674_fw.mp4	0.0	134.46120810508728	
18	113.26674795150757	movie	1		244	16.0	2.5	/experiments/knapen_AOT/AOT_stimuli/rescaled_final/1674_fw.mp4	0.0	134.46920800209045	2.508690118789673
18	114.85938811302185	pulse	1	t		16.0	2.5	/experiments/knapen_AOT/AOT_stimuli/rescaled_final/1674_fw.mp4	0.0	136.06184816360474	
18	115.77543807029724	fix_post	2		12	16.0	2.5	/experiments/knapen_AOT/AOT_stimuli/rescaled_final/1674_fw.mp4	0.0	136.97789812088013	0.10015010833740234
19	115.87558817863464	fix_pre	0		120	17.0	2.5	/experiments/knapen_AOT/AOT_stimuli/rescaled_final/0594_rv.mp4	0.0	137.07804822921753	1.0000638961791992
19	116.45906114578247	pulse	0	t		17.0	2.5	/experiments/knapen_AOT/AOT_stimuli/rescaled_final/0594_rv.mp4	0.0	137.66152119636536	
19	116.87565207481384	movie	1		243	17.0	2.5	/experiments/knapen_AOT/AOT_stimuli/rescaled_final/0594_rv.mp4	0.0	138.07811212539673	2.5003468990325928
19	118.05942416191101	pulse	1	t		17.0	2.5	/experiments/knapen_AOT/AOT_stimuli/rescaled_final/0594_rv.mp4	0.0	139.2618842124939	
19	119.37599897384644	fix_post	2		12	17.0	2.5	/experiments/knapen_AOT/AOT_stimuli/rescaled_final/0594_rv.mp4	0.0	140.57845902442932	0.09999418258666992
20	119.4759931564331	fix_pre	0		120	18.0	2.5	/experiments/knapen_AOT/AOT_stimuli/rescaled_final/1301_rv.mp4	0.0	140.678453207016	1.000152826309204
20	119.65965414047241	pulse	0	t		18.0	2.5	/experiments/knapen_AOT/AOT_stimuli/rescaled_final/1301_rv.mp4	0.0	140.8621141910553	
20	120.47614598274231	movie	1		244	18.0	2.5	/experiments/knapen_AOT/AOT_stimuli/rescaled_final/1301_rv.mp4	0.0	141.6786060333252	2.500401020050049
20	121.25981903076172	pulse	1	t		18.0	2.5	/experiments/knapen_AOT/AOT_stimuli/rescaled_final/1301_rv.mp4	0.0	142.4622790813446	
20	122.86032915115356	pulse	1	t		18.0	2.5	/experiments/knapen_AOT/AOT_stimuli/rescaled_final/1301_rv.mp4	0.0	144.06278920173645	
20	122.97654700279236	fix_post	2		12	18.0	2.5	/experiments/knapen_AOT/AOT_stimuli/rescaled_final/1301_rv.mp4	0.0	144.17900705337524	0.10000205039978027
21	123.07654905319214	fix_pre	0		120	19.0	2.5	blank	1.0	144.27900910377502	1.0001239776611328
21	124.07667303085327	movie	1		299	19.0	2.5	blank	1.0	145.27913308143616	2.492058038711548
21	124.46027898788452	pulse	1	t		19.0	2.5	blank	1.0	145.6627390384674	
21	126.0606300830841	pulse	1	t		19.0	2.5	blank	1.0	147.263090133667	
21	126.56873106956482	fix_post	2		12	19.0	2.5	blank	1.0	147.7711911201477	0.10002994537353516
22	126.66876101493835	fix_pre	0		120	20.0	2.5	/experiments/knapen_AOT/AOT_stimuli/rescaled_final/0684_fw.mp4	0.0	147.87122106552124	1.000169038772583
22	127.66079211235046	pulse	0	t		20.0	2.5	/experiments/knapen_AOT/AOT_stimuli/rescaled_final/0684_fw.mp4	0.0	148.86325216293335	
22	127.66893005371094	movie	1		244	20.0	2.5	/experiments/knapen_AOT/AOT_stimuli/rescaled_final/0684_fw.mp4	0.0	148.87139010429382	2.5086829662323
22	129.26228404045105	pulse	1	t		20.0	2.5	/experiments/knapen_AOT/AOT_stimuli/rescaled_final/0684_fw.mp4	0.0	150.46474409103394	
22	130.17761301994324	fix_post	2		12	20.0	2.5	/experiments/knapen_AOT/AOT_stimuli/rescaled_final/0684_fw.mp4	0.0	151.38007307052612	0.10000801086425781
23	130.2776210308075	fix_pre	0		120	21.0	2.5	/experiments/knapen_AOT/AOT_stimuli/rescaled_final/0494_fw.mp4	0.0	151.48008108139038	1.0001590251922607
23	130.86132407188416	pulse	0	t		21.0	2.5	/experiments/knapen_AOT/AOT_stimuli/rescaled_final/0494_fw.mp4	0.0	152.06378412246704	
23	131.27778005599976	movie	1		243	21.0	2.5	/experiments/knapen_AOT/AOT_stimuli/rescaled_final/0494_fw.mp4	0.0	152.48024010658264	2.500351905822754
23	132.4579291343689	pulse	1	t		21.0	2.5	/experiments/knapen_AOT/AOT_stimuli/rescaled_final/0494_fw.mp4	0.0	153.66038918495178	
23	133.7781319618225	fix_post	2		12	21.0	2.5	/experiments/knapen_AOT/AOT_stimuli/rescaled_final/0494_fw.mp4	0.0	154.9805920124054	0.10003209114074707
24	133.87816405296326	fix_pre	0		120	22.0	2.5	/experiments/knapen_AOT/AOT_stimuli/rescaled_final/1522_rv.mp4	0.0	155.08062410354614	1.0001709461212158
24	134.06174111366272	pulse	0	t		22.0	2.5	/experiments/knapen_AOT/AOT_stimuli/rescaled_final/1522_rv.mp4	0.0	155.2642011642456	
24	134.87833499908447	movie	1		243	22.0	2.5	/experiments/knapen_AOT/AOT_stimuli/rescaled_final/1522_rv.mp4	0.0	156.08079504966736	2.5003371238708496
24	135.66195011138916	pulse	1	t		22.0	2.5	/experiments/knapen_AOT/AOT_stimuli/rescaled_final/1522_rv.mp4	0.0	156.86441016197205	
24	137.26246905326843	pulse	1	t		22.0	2.5	/experiments/knapen_AOT/AOT_stimuli/rescaled_final/1522_rv.mp4	0.0	158.46492910385132	
24	137.37867212295532	fix_post	2		10	22.0	2.5	/experiments/knapen_AOT/AOT_stimuli/rescaled_final/1522_rv.mp4	0.0	158.5811321735382	0.10004091262817383
25	137.4787130355835	fix_pre	0		120	23.0	2.5	/experiments/knapen_AOT/AOT_stimuli/rescaled_final/0129_rv.mp4	0.0	158.68117308616638	1.000162124633789
25	138.47887516021729	movie	1		242	23.0	2.5	/experiments/knapen_AOT/AOT_stimuli/rescaled_final/0129_rv.mp4	0.0	159.68133521080017	2.492039918899536
25	138.86277794837952	pulse	1	t		23.0	2.5	/experiments/knapen_AOT/AOT_stimuli/rescaled_final/0129_rv.mp4	0.0	160.0652379989624	
25	140.46276116371155	pulse	1	t		23.0	2.5	/experiments/knapen_AOT/AOT_stimuli/rescaled_final/0129_rv.mp4	0.0	161.66522121429443	
25	140.97091507911682	fix_post	2		12	23.0	2.5	/experiments/knapen_AOT/AOT_stimuli/rescaled_final/0129_rv.mp4	0.0	162.1733751296997	0.0999898910522461
26	141.07090497016907	fix_pre	0		120	24.0	2.5	/experiments/knapen_AOT/AOT_stimuli/rescaled_final/1933_fw.mp4	0.0	162.27336502075195	1.0001511573791504
26	142.06292605400085	pulse	0	t		24.0	2.5	/experiments/knapen_AOT/AOT_stimuli/rescaled_final/1933_fw.mp4	0.0	163.26538610458374	
26	142.07105612754822	movie	1		245	24.0	2.5	/experiments/knapen_AOT/AOT_stimuli/rescaled_final/1933_fw.mp4	0.0	163.2735161781311	2.508687973022461
26	143.6641809940338	pulse	1	t		24.0	2.5	/experiments/knapen_AOT/AOT_stimuli/rescaled_final/1933_fw.mp4	0.0	164.8666410446167	
26	144.57974410057068	fix_post	2		12	24.0	2.5	/experiments/knapen_AOT/AOT_stimuli/rescaled_final/1933_fw.mp4	0.0	165.78220415115356	0.10000991821289062
27	144.67975401878357	fix_pre	0		120	25.0	2.5	/experiments/knapen_AOT/AOT_stimuli/rescaled_final/2015_rv.mp4	0.0	165.88221406936646	1.000162124633789
27	145.2634401321411	pulse	0	t		25.0	2.5	/experiments/knapen_AOT/AOT_stimuli/rescaled_final/2015_rv.mp4	0.0	166.465900182724	
27	145.67991614341736	movie	1		243	25.0	2.5	/experiments/knapen_AOT/AOT_stimuli/rescaled_final/2015_rv.mp4	0.0	166.88237619400024	2.5003609657287598
27	146.86369800567627	pulse	1	t		25.0	2.5	/experiments/knapen_AOT/AOT_stimuli/rescaled_final/2015_rv.mp4	0.0	168.06615805625916	
27	148.18027710914612	fix_post	2		12	25.0	2.5	/experiments/knapen_AOT/AOT_stimuli/rescaled_final/2015_rv.mp4	0.0	169.382737159729	0.10001206398010254
28	148.28028917312622	fix_pre	0		120	26.0	2.5	/experiments/knapen_AOT/AOT_stimuli/rescaled_final/1753_rv.mp4	0.0	169.4827492237091	1.0001559257507324
28	148.4638340473175	pulse	0	t		26.0	2.5	/experiments/knapen_AOT/AOT_stimuli/rescaled_final/1753_rv.mp4	0.0	169.6662940979004	
28	149.28044509887695	movie	1		243	26.0	2.5	/experiments/knapen_AOT/AOT_stimuli/rescaled_final/1753_rv.mp4	0.0	170.48290514945984	2.5003628730773926
28	150.06418895721436	pulse	1	t		26.0	2.5	/experiments/knapen_AOT/AOT_stimuli/rescaled_final/1753_rv.mp4	0.0	171.26664900779724	
28	151.66527104377747	pulse	1	t		26.0	2.5	/experiments/knapen_AOT/AOT_stimuli/rescaled_final/1753_rv.mp4	0.0	172.86773109436035	
28	151.78080797195435	fix_post	2		12	26.0	2.5	/experiments/knapen_AOT/AOT_stimuli/rescaled_final/1753_rv.mp4	0.0	172.98326802253723	0.10003113746643066
29	151.88083910942078	fix_pre	0		120	27.0	2.5	/experiments/knapen_AOT/AOT_stimuli/rescaled_final/2134_rv.mp4	0.0	173.08329916000366	1.0001678466796875
29	152.88100695610046	movie	1		243	27.0	2.5	/experiments/knapen_AOT/AOT_stimuli/rescaled_final/2134_rv.mp4	0.0	174.08346700668335	2.4920270442962646
29	153.26503801345825	pulse	1	t		27.0	2.5	/experiments/knapen_AOT/AOT_stimuli/rescaled_final/2134_rv.mp4	0.0	174.46749806404114	
29	154.86477899551392	pulse	1	t		27.0	2.5	/experiments/knapen_AOT/AOT_stimuli/rescaled_final/2134_rv.mp4	0.0	176.0672390460968	
29	155.37303400039673	fix_post	2		12	27.0	2.5	/experiments/knapen_AOT/AOT_stimuli/rescaled_final/2134_rv.mp4	0.0	176.57549405097961	0.10008811950683594
30	155.47312211990356	fix_pre	0		120	28.0	2.5	blank	1.0	176.67558217048645	1.0000970363616943
30	156.4650640487671	pulse	0	t		28.0	2.5	blank	1.0	177.66752409934998	
30	156.47321915626526	movie	1		301	28.0	2.5	blank	1.0	177.67567920684814	2.508732795715332
30	158.06540298461914	pulse	1	t		28.0	2.5	blank	1.0	179.26786303520203	
30	158.9819519519806	fix_post	2		12	28.0	2.5	blank	1.0	180.18441200256348	0.09998106956481934
31	159.0819330215454	fix_pre	0		120	29.0	2.5	/experiments/knapen_AOT/AOT_stimuli/rescaled_final/1933_fw.mp4	0.0	180.2843930721283	1.0001399517059326
31	159.6580150127411	pulse	0	t		29.0	2.5	/experiments/knapen_AOT/AOT_stimuli/rescaled_final/1933_fw.mp4	0.0	180.86047506332397	
31	160.08207297325134	movie	1		244	29.0	2.5	/experiments/knapen_AOT/AOT_stimuli/rescaled_final/1933_fw.mp4	0.0	181.28453302383423	2.500375986099243
31	161.25812411308289	pulse	1	t		29.0	2.5	/experiments/knapen_AOT/AOT_stimuli/rescaled_final/1933_fw.mp4	0.0	182.46058416366577	
31	162.5824489593506	fix_post	2		12	29.0	2.5	/experiments/knapen_AOT/AOT_stimuli/rescaled_final/1933_fw.mp4	0.0	183.78490900993347	0.1000511646270752
32	162.68250012397766	fix_pre	0		120	30.0	2.5	/experiments/knapen_AOT/AOT_stimuli/rescaled_final/1599_fw.mp4	0.0	183.88496017456055	1.0001180171966553
32	162.85841703414917	pulse	0	t		30.0	2.5	/experiments/knapen_AOT/AOT_stimuli/rescaled_final/1599_fw.mp4	0.0	184.06087708473206	
32	163.68261814117432	movie	1		243	30.0	2.5	/experiments/knapen_AOT/AOT_stimuli/rescaled_final/1599_fw.mp4	0.0	184.8850781917572	2.5004029273986816
32	164.45871901512146	pulse	1	t		30.0	2.5	/experiments/knapen_AOT/AOT_stimuli/rescaled_final/1599_fw.mp4	0.0	185.66117906570435	
32	166.05830001831055	pulse	1	t		30.0	2.5	/experiments/knapen_AOT/AOT_stimuli/rescaled_final/1599_fw.mp4	0.0	187.26076006889343	
32	166.183021068573	fix_post	2		12	30.0	2.5	/experiments/knapen_AOT/AOT_stimuli/rescaled_final/1599_fw.mp4	0.0	187.38548111915588	0.09997296333312988
33	166.28299403190613	fix_pre	0		120	31.0	2.5	/experiments/knapen_AOT/AOT_stimuli/rescaled_final/1737_fw.mp4	0.0	187.485454082489	1.0001840591430664
33	167.2831780910492	movie	1		242	31.0	2.5	/experiments/knapen_AOT/AOT_stimuli/rescaled_final/1737_fw.mp4	0.0	188.48563814163208	2.49202299118042
33	167.6583731174469	pulse	1	t		31.0	2.5	/experiments/knapen_AOT/AOT_stimuli/rescaled_final/1737_fw.mp4	0.0	188.86083316802979	
33	169.25866508483887	pulse	1	t		31.0	2.5	/experiments/knapen_AOT/AOT_stimuli/rescaled_final/1737_fw.mp4	0.0	190.46112513542175	
33	169.77520108222961	fix_post	2		12	31.0	2.5	/experiments/knapen_AOT/AOT_stimuli/rescaled_final/1737_fw.mp4	0.0	190.9776611328125	0.10001897811889648
34	169.8752200603485	fix_pre	0		119	32.0	2.5	/experiments/knapen_AOT/AOT_stimuli/rescaled_final/0891_rv.mp4	0.0	191.0776801109314	0.9918210506439209
34	170.8588161468506	pulse	0	t		32.0	2.5	/experiments/knapen_AOT/AOT_stimuli/rescaled_final/0891_rv.mp4	0.0	192.06127619743347	
34	170.86704111099243	movie	1		244	32.0	2.5	/experiments/knapen_AOT/AOT_stimuli/rescaled_final/0891_rv.mp4	0.0	192.06950116157532	2.508668899536133
34	172.46007108688354	pulse	1	t		32.0	2.5	/experiments/knapen_AOT/AOT_stimuli/rescaled_final/0891_rv.mp4	0.0	193.66253113746643	
34	173.37571001052856	fix_post	2		12	32.0	2.5	/experiments/knapen_AOT/AOT_stimuli/rescaled_final/0891_rv.mp4	0.0	194.57817006111145	0.10003113746643066
35	173.475741147995	fix_pre	0		120	33.0	2.5	/experiments/knapen_AOT/AOT_stimuli/rescaled_final/1416_rv.mp4	0.0	194.67820119857788	1.0001299381256104
35	174.0594561100006	pulse	0	t		33.0	2.5	/experiments/knapen_AOT/AOT_stimuli/rescaled_final/1416_rv.mp4	0.0	195.2619161605835	
35	174.4758710861206	movie	1		244	33.0	2.5	/experiments/knapen_AOT/AOT_stimuli/rescaled_final/1416_rv.mp4	0.0	195.6783311367035	2.5003929138183594
35	175.6597080230713	pulse	1	t		33.0	2.5	/experiments/knapen_AOT/AOT_stimuli/rescaled_final/1416_rv.mp4	0.0	196.86216807365417	
35	176.97626399993896	fix_post	2		12	33.0	2.5	/experiments/knapen_AOT/AOT_stimuli/rescaled_final/1416_rv.mp4	0.0	198.17872405052185	0.10002398490905762
36	177.07628798484802	fix_pre	0		120	34.0	2.5	/experiments/knapen_AOT/AOT_stimuli/rescaled_final/2076_fw.mp4	0.0	198.2787480354309	1.0001959800720215
36	177.25975513458252	pulse	0	t		34.0	2.5	/experiments/knapen_AOT/AOT_stimuli/rescaled_final/2076_fw.mp4	0.0	198.4622151851654	
36	178.07648396492004	movie	1		245	34.0	2.5	/experiments/knapen_AOT/AOT_stimuli/rescaled_final/2076_fw.mp4	0.0	199.27894401550293	2.500310182571411
36	178.86017298698425	pulse	1	t		34.0	2.5	/experiments/knapen_AOT/AOT_stimuli/rescaled_final/2076_fw.mp4	0.0	200.06263303756714	
36	180.46031618118286	pulse	1	t		34.0	2.5	/experiments/knapen_AOT/AOT_stimuli/rescaled_final/2076_fw.mp4	0.0	201.66277623176575	
36	180.57679414749146	fix_post	2		12	34.0	2.5	/experiments/knapen_AOT/AOT_stimuli/rescaled_final/2076_fw.mp4	0.0	201.77925419807434	0.10003089904785156
37	180.6768250465393	fix_pre	0		119	35.0	2.5	blank	1.0	201.8792850971222	0.991847038269043
37	181.66867208480835	movie	1		300	35.0	2.5	blank	1.0	202.87113213539124	2.500417947769165
37	182.06063604354858	pulse	1	t		35.0	2.5	blank	1.0	203.26309609413147	
37	183.66078805923462	pulse	1	t		35.0	2.5	blank	1.0	204.8632481098175	
37	184.16909003257751	fix_post	2		12	35.0	2.5	blank	1.0	205.3715500831604	0.09997105598449707
38	184.269061088562	fix_pre	0		120	36.0	2.5	/experiments/knapen_AOT/AOT_stimuli/rescaled_final/1737_fw.mp4	0.0	205.4715211391449	1.0001189708709717
38	185.26099514961243	pulse	0	t		36.0	2.5	/experiments/knapen_AOT/AOT_stimuli/rescaled_final/1737_fw.mp4	0.0	206.4634552001953	
38	185.26918005943298	movie	1		244	36.0	2.5	/experiments/knapen_AOT/AOT_stimuli/rescaled_final/1737_fw.mp4	0.0	206.47164011001587	2.5087249279022217
38	186.86191296577454	pulse	1	t		36.0	2.5	/experiments/knapen_AOT/AOT_stimuli/rescaled_final/1737_fw.mp4	0.0	208.06437301635742	
38	187.7779049873352	fix_post	2		12	36.0	2.5	/experiments/knapen_AOT/AOT_stimuli/rescaled_final/1737_fw.mp4	0.0	208.9803650379181	0.0999600887298584
39	187.87786507606506	fix_pre	0		120	37.0	2.5	/experiments/knapen_AOT/AOT_stimuli/rescaled_final/1522_fw.mp4	0.0	209.08032512664795	1.0001928806304932
39	188.4616551399231	pulse	0	t		37.0	2.5	/experiments/knapen_AOT/AOT_stimuli/rescaled_final/1522_fw.mp4	0.0	209.66411519050598	
39	188.87805795669556	movie	1		245	37.0	2.5	/experiments/knapen_AOT/AOT_stimuli/rescaled_final/1522_fw.mp4	0.0	210.08051800727844	2.500408172607422
39	190.06182408332825	pulse	1	t		37.0	2.5	/experiments/knapen_AOT/AOT_stimuli/rescaled_final/1522_fw.mp4	0.0	211.26428413391113	
39	191.37846612930298	fix_post	2		12	37.0	2.5	/experiments/knapen_AOT/AOT_stimuli/rescaled_final/1522_fw.mp4	0.0	212.58092617988586	0.09999990463256836
40	191.47846603393555	fix_pre	0		120	38.0	2.5	/experiments/knapen_AOT/AOT_stimuli/rescaled_final/0841_fw.mp4	0.0	212.68092608451843	1.0001330375671387
40	191.66198706626892	pulse	0	t		38.0	2.5	/experiments/knapen_AOT/AOT_stimuli/rescaled_final/0841_fw.mp4	0.0	212.8644471168518	
40	192.47859907150269	movie	1		247	38.0	2.5	/experiments/knapen_AOT/AOT_stimuli/rescaled_final/0841_fw.mp4	0.0	213.68105912208557	2.500354051589966
40	193.2623040676117	pulse	1	t		38.0	2.5	/experiments/knapen_AOT/AOT_stimuli/rescaled_final/0841_fw.mp4	0.0	214.46476411819458	
40	194.86260104179382	pulse	1	t		38.0	2.5	/experiments/knapen_AOT/AOT_stimuli/rescaled_final/0841_fw.mp4	0.0	216.0650610923767	
40	194.97895312309265	fix_post	2		12	38.0	2.5	/experiments/knapen_AOT/AOT_stimuli/rescaled_final/0841_fw.mp4	0.0	216.18141317367554	0.09996604919433594
41	195.078919172287	fix_pre	0		119	39.0	2.5	/experiments/knapen_AOT/AOT_stimuli/rescaled_final/0553_rv.mp4	0.0	216.28137922286987	0.9918479919433594
41	196.07076716423035	movie	1		244	39.0	2.5	/experiments/knapen_AOT/AOT_stimuli/rescaled_final/0553_rv.mp4	0.0	217.27322721481323	2.5003368854522705
41	196.4628200531006	pulse	1	t		39.0	2.5	/experiments/knapen_AOT/AOT_stimuli/rescaled_final/0553_rv.mp4	0.0	217.66528010368347	
41	198.06290197372437	pulse	1	t		39.0	2.5	/experiments/knapen_AOT/AOT_stimuli/rescaled_final/0553_rv.mp4	0.0	219.26536202430725	
41	198.57110404968262	fix_post	2		12	39.0	2.5	/experiments/knapen_AOT/AOT_stimuli/rescaled_final/0553_rv.mp4	0.0	219.7735641002655	0.10007309913635254
42	198.67117714881897	fix_pre	0		118	40.0	2.5	/experiments/knapen_AOT/AOT_stimuli/rescaled_final/0980_rv.mp4	0.0	219.87363719940186	1.000126838684082
42	199.66315412521362	pulse	0	t		40.0	2.5	/experiments/knapen_AOT/AOT_stimuli/rescaled_final/0980_rv.mp4	0.0	220.8656141757965	
42	199.67130398750305	movie	1		244	40.0	2.5	/experiments/knapen_AOT/AOT_stimuli/rescaled_final/0980_rv.mp4	0.0	220.87376403808594	2.508707046508789
42	201.2638590335846	pulse	1	t		40.0	2.5	/experiments/knapen_AOT/AOT_stimuli/rescaled_final/0980_rv.mp4	0.0	222.46631908416748	
42	202.18001103401184	fix_post	2		12	40.0	2.5	/experiments/knapen_AOT/AOT_stimuli/rescaled_final/0980_rv.mp4	0.0	223.38247108459473	0.10005593299865723
43	202.2800669670105	fix_pre	0		120	41.0	2.5	blank	1.0	223.48252701759338	1.0001051425933838
43	202.8637571334839	pulse	0	t		41.0	2.5	blank	1.0	224.06621718406677	
43	203.28017210960388	movie	1		300	41.0	2.5	blank	1.0	224.48263216018677	2.50040602684021
43	204.4638741016388	pulse	1	t		41.0	2.5	blank	1.0	225.66633415222168	
43	205.7805781364441	fix_post	2		12	41.0	2.5	blank	1.0	226.98303818702698	0.10010290145874023
44	205.88068103790283	fix_pre	0		120	42.0	2.5	/experiments/knapen_AOT/AOT_stimuli/rescaled_final/0719_rv.mp4	0.0	227.08314108848572	1.0000650882720947
44	206.06411910057068	pulse	0	t		42.0	2.5	/experiments/knapen_AOT/AOT_stimuli/rescaled_final/0719_rv.mp4	0.0	227.26657915115356	
44	206.88074612617493	movie	1		245	42.0	2.5	/experiments/knapen_AOT/AOT_stimuli/rescaled_final/0719_rv.mp4	0.0	228.0832061767578	2.500332832336426
44	207.6644561290741	pulse	1	t		42.0	2.5	/experiments/knapen_AOT/AOT_stimuli/rescaled_final/0719_rv.mp4	0.0	228.86691617965698	
44	209.26207995414734	pulse	1	t		42.0	2.5	/experiments/knapen_AOT/AOT_stimuli/rescaled_final/0719_rv.mp4	0.0	230.46454000473022	
44	209.38107895851135	fix_post	2		12	42.0	2.5	/experiments/knapen_AOT/AOT_stimuli/rescaled_final/0719_rv.mp4	0.0	230.58353900909424	0.10004711151123047
45	209.48112607002258	fix_pre	0		120	43.0	2.5	/experiments/knapen_AOT/AOT_stimuli/rescaled_final/0504_rv.mp4	0.0	230.68358612060547	1.000154972076416
45	210.481281042099	movie	1		243	43.0	2.5	/experiments/knapen_AOT/AOT_stimuli/rescaled_final/0504_rv.mp4	0.0	231.68374109268188	2.4920079708099365
45	210.86541604995728	pulse	1	t		43.0	2.5	/experiments/knapen_AOT/AOT_stimuli/rescaled_final/0504_rv.mp4	0.0	232.06787610054016	
45	212.45781207084656	pulse	1	t		43.0	2.5	/experiments/knapen_AOT/AOT_stimuli/rescaled_final/0504_rv.mp4	0.0	233.66027212142944	
45	212.97328901290894	fix_post	2		12	43.0	2.5	/experiments/knapen_AOT/AOT_stimuli/rescaled_final/0504_rv.mp4	0.0	234.17574906349182	0.10007596015930176
46	213.07336497306824	fix_pre	0		120	44.0	2.5	/experiments/knapen_AOT/AOT_stimuli/rescaled_final/2040_rv.mp4	0.0	234.27582502365112	1.0000910758972168
46	214.05770707130432	pulse	0	t		44.0	2.5	/experiments/knapen_AOT/AOT_stimuli/rescaled_final/2040_rv.mp4	0.0	235.2601671218872	
46	214.07345604896545	movie	1		248	44.0	2.5	/experiments/knapen_AOT/AOT_stimuli/rescaled_final/2040_rv.mp4	0.0	235.27591609954834	2.5087649822235107
46	215.66664910316467	pulse	1	t		44.0	2.5	/experiments/knapen_AOT/AOT_stimuli/rescaled_final/2040_rv.mp4	0.0	236.86910915374756	
46	216.58222103118896	fix_post	2		12	44.0	2.5	/experiments/knapen_AOT/AOT_stimuli/rescaled_final/2040_rv.mp4	0.0	237.78468108177185	0.10003399848937988
47	216.68225502967834	fix_pre	0		120	45.0	2.5	/experiments/knapen_AOT/AOT_stimuli/rescaled_final/0221_fw.mp4	0.0	237.88471508026123	1.000108003616333
47	217.25837397575378	pulse	0	t		45.0	2.5	/experiments/knapen_AOT/AOT_stimuli/rescaled_final/0221_fw.mp4	0.0	238.46083402633667	
47	217.68236303329468	movie	1		243	45.0	2.5	/experiments/knapen_AOT/AOT_stimuli/rescaled_final/0221_fw.mp4	0.0	238.88482308387756	2.5003299713134766
47	218.85841608047485	pulse	1	t		45.0	2.5	/experiments/knapen_AOT/AOT_stimuli/rescaled_final/0221_fw.mp4	0.0	240.06087613105774	
47	220.18269300460815	fix_post	2		12	45.0	2.5	/experiments/knapen_AOT/AOT_stimuli/rescaled_final/0221_fw.mp4	0.0	241.38515305519104	0.10003805160522461
48	220.28273105621338	fix_pre	0		120	46.0	2.5	/experiments/knapen_AOT/AOT_stimuli/rescaled_final/0425_fw.mp4	0.0	241.48519110679626	1.0001590251922607
48	220.45802903175354	pulse	0	t		46.0	2.5	/experiments/knapen_AOT/AOT_stimuli/rescaled_final/0425_fw.mp4	0.0	241.66048908233643	
48	221.28289008140564	movie	1		245	46.0	2.5	/experiments/knapen_AOT/AOT_stimuli/rescaled_final/0425_fw.mp4	0.0	242.48535013198853	2.500354051589966
48	222.0581419467926	pulse	1	t		46.0	2.5	/experiments/knapen_AOT/AOT_stimuli/rescaled_final/0425_fw.mp4	0.0	243.2606019973755	
48	223.6583800315857	pulse	1	t		46.0	2.5	/experiments/knapen_AOT/AOT_stimuli/rescaled_final/0425_fw.mp4	0.0	244.86084008216858	
48	223.7832441329956	fix_post	2		12	46.0	2.5	/experiments/knapen_AOT/AOT_stimuli/rescaled_final/0425_fw.mp4	0.0	244.9857041835785	0.10003399848937988
49	223.88327813148499	fix_pre	0		120	47.0	2.5	/experiments/knapen_AOT/AOT_stimuli/rescaled_final/0806_rv.mp4	0.0	245.08573818206787	1.0001659393310547
49	224.88344407081604	movie	1		242	47.0	2.5	/experiments/knapen_AOT/AOT_stimuli/rescaled_final/0806_rv.mp4	0.0	246.08590412139893	2.491986036300659
49	225.25871896743774	pulse	1	t		47.0	2.5	/experiments/knapen_AOT/AOT_stimuli/rescaled_final/0806_rv.mp4	0.0	246.46117901802063	
49	226.858980178833	pulse	1	t		47.0	2.5	/experiments/knapen_AOT/AOT_stimuli/rescaled_final/0806_rv.mp4	0.0	248.0614402294159	
49	227.3754301071167	fix_post	2		12	47.0	2.5	/experiments/knapen_AOT/AOT_stimuli/rescaled_final/0806_rv.mp4	0.0	248.57789015769958	0.1000368595123291
50	227.47546696662903	fix_pre	0		119	48.0	2.5	/experiments/knapen_AOT/AOT_stimuli/rescaled_final/2015_fw.mp4	0.0	248.6779270172119	0.9918332099914551
50	228.459242105484	pulse	0	t		48.0	2.5	/experiments/knapen_AOT/AOT_stimuli/rescaled_final/2015_fw.mp4	0.0	249.6617021560669	
50	228.46730017662048	movie	1		244	48.0	2.5	/experiments/knapen_AOT/AOT_stimuli/rescaled_final/2015_fw.mp4	0.0	249.66976022720337	2.508647918701172
50	230.06050515174866	pulse	1	t		48.0	2.5	/experiments/knapen_AOT/AOT_stimuli/rescaled_final/2015_fw.mp4	0.0	251.26296520233154	
50	230.97594809532166	fix_post	2		12	48.0	2.5	/experiments/knapen_AOT/AOT_stimuli/rescaled_final/2015_fw.mp4	0.0	252.17840814590454	0.10006594657897949
51	231.07601404190063	fix_pre	0		120	49.0	2.5	blank	1.0	252.27847409248352	1.0001919269561768
51	231.65963912010193	pulse	0	t		49.0	2.5	blank	1.0	252.86209917068481	
51	232.0762059688568	movie	1		300	49.0	2.5	blank	1.0	253.2786660194397	2.500333070755005
51	233.2598249912262	pulse	1	t		49.0	2.5	blank	1.0	254.46228504180908	
51	234.57653903961182	fix_post	2		12	49.0	2.5	blank	1.0	255.7789990901947	0.09999608993530273
52	234.67653512954712	fix_pre	0		120	50.0	2.5	/experiments/knapen_AOT/AOT_stimuli/rescaled_final/1474_rv.mp4	0.0	255.87899518013	1.000180959701538
52	234.8601040840149	pulse	0	t		50.0	2.5	/experiments/knapen_AOT/AOT_stimuli/rescaled_final/1474_rv.mp4	0.0	256.0625641345978	
52	235.67671608924866	movie	1		244	50.0	2.5	/experiments/knapen_AOT/AOT_stimuli/rescaled_final/1474_rv.mp4	0.0	256.87917613983154	2.500361919403076
52	236.4603979587555	pulse	1	t		50.0	2.5	/experiments/knapen_AOT/AOT_stimuli/rescaled_final/1474_rv.mp4	0.0	257.6628580093384	
52	238.0607750415802	pulse	1	t		50.0	2.5	/experiments/knapen_AOT/AOT_stimuli/rescaled_final/1474_rv.mp4	0.0	259.2632350921631	
52	238.17707800865173	fix_post	2		12	50.0	2.5	/experiments/knapen_AOT/AOT_stimuli/rescaled_final/1474_rv.mp4	0.0	259.3795380592346	0.10000300407409668
53	238.27708101272583	fix_pre	0		120	51.0	2.5	/experiments/knapen_AOT/AOT_stimuli/rescaled_final/0267_fw.mp4	0.0	259.4795410633087	1.000133991241455
53	239.27721500396729	movie	1		244	51.0	2.5	/experiments/knapen_AOT/AOT_stimuli/rescaled_final/0267_fw.mp4	0.0	260.47967505455017	2.492033004760742
53	239.6611680984497	pulse	1	t		51.0	2.5	/experiments/knapen_AOT/AOT_stimuli/rescaled_final/0267_fw.mp4	0.0	260.8636281490326	
53	241.26112604141235	pulse	1	t		51.0	2.5	/experiments/knapen_AOT/AOT_stimuli/rescaled_final/0267_fw.mp4	0.0	262.46358609199524	
53	241.76924800872803	fix_post	2		12	51.0	2.5	/experiments/knapen_AOT/AOT_stimuli/rescaled_final/0267_fw.mp4	0.0	262.9717080593109	0.10001397132873535
54	241.86926198005676	fix_pre	0		120	52.0	2.5	/experiments/knapen_AOT/AOT_stimuli/rescaled_final/1228_rv.mp4	0.0	263.07172203063965	1.0001940727233887
54	242.86137294769287	pulse	0	t		52.0	2.5	/experiments/knapen_AOT/AOT_stimuli/rescaled_final/1228_rv.mp4	0.0	264.06383299827576	
54	242.86945605278015	movie	1		245	52.0	2.5	/experiments/knapen_AOT/AOT_stimuli/rescaled_final/1228_rv.mp4	0.0	264.07191610336304	2.508697986602783
54	244.46190309524536	pulse	1	t		52.0	2.5	/experiments/knapen_AOT/AOT_stimuli/rescaled_final/1228_rv.mp4	0.0	265.66436314582825	
54	245.37815403938293	fix_post	2		12	52.0	2.5	/experiments/knapen_AOT/AOT_stimuli/rescaled_final/1228_rv.mp4	0.0	266.5806140899658	0.10000395774841309
55	245.47815799713135	fix_pre	0		120	53.0	2.5	/experiments/knapen_AOT/AOT_stimuli/rescaled_final/1046_rv.mp4	0.0	266.68061804771423	1.000148057937622
55	246.06176209449768	pulse	0	t		53.0	2.5	/experiments/knapen_AOT/AOT_stimuli/rescaled_final/1046_rv.mp4	0.0	267.26422214508057	
55	246.47830605506897	movie	1		243	53.0	2.5	/experiments/knapen_AOT/AOT_stimuli/rescaled_final/1046_rv.mp4	0.0	267.68076610565186	2.500412940979004
55	247.66207909584045	pulse	1	t		53.0	2.5	/experiments/knapen_AOT/AOT_stimuli/rescaled_final/1046_rv.mp4	0.0	268.86453914642334	
55	248.97871899604797	fix_post	2		12	53.0	2.5	/experiments/knapen_AOT/AOT_stimuli/rescaled_final/1046_rv.mp4	0.0	270.18117904663086	0.10003304481506348
56	249.07875204086304	fix_pre	0		118	54.0	2.5	/experiments/knapen_AOT/AOT_stimuli/rescaled_final/2164_rv.mp4	0.0	270.2812120914459	1.0001161098480225
56	249.26230716705322	pulse	0	t		54.0	2.5	/experiments/knapen_AOT/AOT_stimuli/rescaled_final/2164_rv.mp4	0.0	270.4647672176361	
56	250.07886815071106	movie	1		243	54.0	2.5	/experiments/knapen_AOT/AOT_stimuli/rescaled_final/2164_rv.mp4	0.0	271.28132820129395	2.500335931777954
56	250.86261701583862	pulse	1	t		54.0	2.5	/experiments/knapen_AOT/AOT_stimuli/rescaled_final/2164_rv.mp4	0.0	272.0650770664215	
56	252.462660074234	pulse	1	t		54.0	2.5	/experiments/knapen_AOT/AOT_stimuli/rescaled_final/2164_rv.mp4	0.0	273.6651201248169	
56	252.579204082489	fix_post	2		12	54.0	2.5	/experiments/knapen_AOT/AOT_stimuli/rescaled_final/2164_rv.mp4	0.0	273.7816641330719	0.10007786750793457
57	252.67928194999695	fix_pre	0		120	55.0	2.5	blank	1.0	273.88174200057983	1.0001471042633057
57	253.67942905426025	movie	1		299	55.0	2.5	blank	1.0	274.88188910484314	2.49202299118042
57	254.0630180835724	pulse	1	t		55.0	2.5	blank	1.0	275.2654781341553	
57	255.6632580757141	pulse	1	t		55.0	2.5	blank	1.0	276.865718126297	
57	256.1714520454407	fix_post	2		12	55.0	2.5	blank	1.0	277.37391209602356	0.09997797012329102
58	256.27143001556396	fix_pre	0		120	56.0	2.5	/experiments/knapen_AOT/AOT_stimuli/rescaled_final/0308_fw.mp4	0.0	277.47389006614685	1.000157117843628
58	257.26358795166016	pulse	0	t		56.0	2.5	/experiments/knapen_AOT/AOT_stimuli/rescaled_final/0308_fw.mp4	0.0	278.46604800224304	
58	257.2715871334076	movie	1		245	56.0	2.5	/experiments/knapen_AOT/AOT_stimuli/rescaled_final/0308_fw.mp4	0.0	278.4740471839905	2.508692979812622
58	258.86414909362793	pulse	1	t		56.0	2.5	/experiments/knapen_AOT/AOT_stimuli/rescaled_final/0308_fw.mp4	0.0	280.0666091442108	
58	259.7802801132202	fix_post	2		12	56.0	2.5	/experiments/knapen_AOT/AOT_stimuli/rescaled_final/0308_fw.mp4	0.0	280.9827401638031	0.10003900527954102
59	259.88031911849976	fix_pre	0		120	57.0	2.5	/experiments/knapen_AOT/AOT_stimuli/rescaled_final/1225_rv.mp4	0.0	281.08277916908264	1.000166893005371
59	260.46388602256775	pulse	0	t		57.0	2.5	/experiments/knapen_AOT/AOT_stimuli/rescaled_final/1225_rv.mp4	0.0	281.66634607315063	
59	260.8804860115051	movie	1		244	57.0	2.5	/experiments/knapen_AOT/AOT_stimuli/rescaled_final/1225_rv.mp4	0.0	282.082946062088	2.500357151031494
59	262.0642640590668	pulse	1	t		57.0	2.5	/experiments/knapen_AOT/AOT_stimuli/rescaled_final/1225_rv.mp4	0.0	283.26672410964966	
59	263.3808431625366	fix_post	2		12	57.0	2.5	/experiments/knapen_AOT/AOT_stimuli/rescaled_final/1225_rv.mp4	0.0	284.5833032131195	0.0999908447265625
60	263.4808340072632	fix_pre	0		120	58.0	2.5	/experiments/knapen_AOT/AOT_stimuli/rescaled_final/0633_fw.mp4	0.0	284.68329405784607	1.000162124633789
60	263.66440510749817	pulse	0	t		58.0	2.5	/experiments/knapen_AOT/AOT_stimuli/rescaled_final/0633_fw.mp4	0.0	284.86686515808105	
60	264.480996131897	movie	1		244	58.0	2.5	/experiments/knapen_AOT/AOT_stimuli/rescaled_final/0633_fw.mp4	0.0	285.68345618247986	2.5004138946533203
60	265.26474499702454	pulse	1	t		58.0	2.5	/experiments/knapen_AOT/AOT_stimuli/rescaled_final/0633_fw.mp4	0.0	286.4672050476074	
60	266.86503505706787	pulse	1	t		58.0	2.5	/experiments/knapen_AOT/AOT_stimuli/rescaled_final/0633_fw.mp4	0.0	288.06749510765076	
60	266.9814100265503	fix_post	2		12	58.0	2.5	/experiments/knapen_AOT/AOT_stimuli/rescaled_final/0633_fw.mp4	0.0	288.1838700771332	0.0999760627746582
61	267.08138608932495	fix_pre	0		120	59.0	2.5	/experiments/knapen_AOT/AOT_stimuli/rescaled_final/0129_fw.mp4	0.0	288.28384613990784	1.000148057937622
61	268.0815341472626	movie	1		242	59.0	2.5	/experiments/knapen_AOT/AOT_stimuli/rescaled_final/0129_fw.mp4	0.0	289.28399419784546	2.4920098781585693
61	268.46572613716125	pulse	1	t		59.0	2.5	/experiments/knapen_AOT/AOT_stimuli/rescaled_final/0129_fw.mp4	0.0	289.66818618774414	
61	270.0654799938202	pulse	1	t		59.0	2.5	/experiments/knapen_AOT/AOT_stimuli/rescaled_final/0129_fw.mp4	0.0	291.2679400444031	
61	270.57354402542114	fix_post	2		12	59.0	2.5	/experiments/knapen_AOT/AOT_stimuli/rescaled_final/0129_fw.mp4	0.0	291.776004076004	0.10002994537353516
62	270.6735739707947	fix_pre	0		120	60.0	2.5	/experiments/knapen_AOT/AOT_stimuli/rescaled_final/2002_rv.mp4	0.0	291.87603402137756	1.0001561641693115
62	271.66556000709534	pulse	0	t		60.0	2.5	/experiments/knapen_AOT/AOT_stimuli/rescaled_final/2002_rv.mp4	0.0	292.8680200576782	
62	271.673730134964	movie	1		245	60.0	2.5	/experiments/knapen_AOT/AOT_stimuli/rescaled_final/2002_rv.mp4	0.0	292.8761901855469	2.5087778568267822
62	273.26614594459534	pulse	1	t		60.0	2.5	/experiments/knapen_AOT/AOT_stimuli/rescaled_final/2002_rv.mp4	0.0	294.4686059951782	
62	274.18250799179077	fix_post	2		12	60.0	2.5	/experiments/knapen_AOT/AOT_stimuli/rescaled_final/2002_rv.mp4	0.0	295.38496804237366	0.10003113746643066
63	274.2825391292572	fix_pre	0		120	61.0	2.5	/experiments/knapen_AOT/AOT_stimuli/rescaled_final/1424_rv.mp4	0.0	295.4849991798401	1.000072956085205
63	274.8585910797119	pulse	0	t		61.0	2.5	/experiments/knapen_AOT/AOT_stimuli/rescaled_final/1424_rv.mp4	0.0	296.0610511302948	
63	275.2826120853424	movie	1		244	61.0	2.5	/experiments/knapen_AOT/AOT_stimuli/rescaled_final/1424_rv.mp4	0.0	296.4850721359253	2.50039005279541
63	276.45846700668335	pulse	1	t		61.0	2.5	/experiments/knapen_AOT/AOT_stimuli/rescaled_final/1424_rv.mp4	0.0	297.66092705726624	
63	277.7830021381378	fix_post	2		12	61.0	2.5	/experiments/knapen_AOT/AOT_stimuli/rescaled_final/1424_rv.mp4	0.0	298.9854621887207	0.0999758243560791
64	277.8829779624939	fix_pre	0		120	62.0	2.5	/experiments/knapen_AOT/AOT_stimuli/rescaled_final/0137_rv.mp4	0.0	299.0854380130768	1.0002450942993164
64	278.0591299533844	pulse	0	t		62.0	2.5	/experiments/knapen_AOT/AOT_stimuli/rescaled_final/0137_rv.mp4	0.0	299.2615900039673	
64	278.8832230567932	movie	1		243	62.0	2.5	/experiments/knapen_AOT/AOT_stimuli/rescaled_final/0137_rv.mp4	0.0	300.0856831073761	2.500330924987793
64	279.65938901901245	pulse	1	t		62.0	2.5	/experiments/knapen_AOT/AOT_stimuli/rescaled_final/0137_rv.mp4	0.0	300.86184906959534	
64	281.25870394706726	pulse	1	t		62.0	2.5	/experiments/knapen_AOT/AOT_stimuli/rescaled_final/0137_rv.mp4	0.0	302.46116399765015	
64	281.383553981781	fix_post	2		12	62.0	2.5	/experiments/knapen_AOT/AOT_stimuli/rescaled_final/0137_rv.mp4	0.0	302.5860140323639	0.1000070571899414
65	281.48356103897095	fix_pre	0		120	63.0	2.5	blank	1.0	302.68602108955383	1.0001020431518555
65	282.4836630821228	movie	1		299	63.0	2.5	blank	1.0	303.6861231327057	2.492050886154175
65	282.858855009079	pulse	1	t		63.0	2.5	blank	1.0	304.06131505966187	
65	284.45917201042175	pulse	1	t		63.0	2.5	blank	1.0	305.66163206100464	
65	284.975713968277	fix_post	2		12	63.0	2.5	blank	1.0	306.17817401885986	0.10001015663146973
66	285.07572412490845	fix_pre	0		119	64.0	2.5	/experiments/knapen_AOT/AOT_stimuli/rescaled_final/0414_rv.mp4	0.0	306.27818417549133	0.991818904876709
66	286.0594871044159	pulse	0	t		64.0	2.5	/experiments/knapen_AOT/AOT_stimuli/rescaled_final/0414_rv.mp4	0.0	307.2619471549988	
66	286.06754302978516	movie	1		245	64.0	2.5	/experiments/knapen_AOT/AOT_stimuli/rescaled_final/0414_rv.mp4	0.0	307.27000308036804	2.508707046508789
66	287.66018509864807	pulse	1	t		64.0	2.5	/experiments/knapen_AOT/AOT_stimuli/rescaled_final/0414_rv.mp4	0.0	308.86264514923096	
66	288.57625007629395	fix_post	2		12	64.0	2.5	/experiments/knapen_AOT/AOT_stimuli/rescaled_final/0414_rv.mp4	0.0	309.77871012687683	0.1000370979309082
67	288.67628717422485	fix_pre	0		120	65.0	2.5	/experiments/knapen_AOT/AOT_stimuli/rescaled_final/2150_fw.mp4	0.0	309.87874722480774	1.0001938343048096
67	289.2598979473114	pulse	0	t		65.0	2.5	/experiments/knapen_AOT/AOT_stimuli/rescaled_final/2150_fw.mp4	0.0	310.4623579978943	
67	289.67648100852966	movie	1		243	65.0	2.5	/experiments/knapen_AOT/AOT_stimuli/rescaled_final/2150_fw.mp4	0.0	310.87894105911255	2.5003139972686768
67	290.86020016670227	pulse	1	t		65.0	2.5	/experiments/knapen_AOT/AOT_stimuli/rescaled_final/2150_fw.mp4	0.0	312.06266021728516	
67	292.17679500579834	fix_post	2		12	65.0	2.5	/experiments/knapen_AOT/AOT_stimuli/rescaled_final/2150_fw.mp4	0.0	313.3792550563812	0.10003304481506348
68	292.2768280506134	fix_pre	0		120	66.0	2.5	/experiments/knapen_AOT/AOT_stimuli/rescaled_final/1002_fw.mp4	0.0	313.4792881011963	1.0001299381256104
68	292.4605600833893	pulse	0	t		66.0	2.5	/experiments/knapen_AOT/AOT_stimuli/rescaled_final/1002_fw.mp4	0.0	313.66302013397217	
68	293.276957988739	movie	1		245	66.0	2.5	/experiments/knapen_AOT/AOT_stimuli/rescaled_final/1002_fw.mp4	0.0	314.4794180393219	2.500375986099243
68	294.06074500083923	pulse	1	t		66.0	2.5	/experiments/knapen_AOT/AOT_stimuli/rescaled_final/1002_fw.mp4	0.0	315.2632050514221	
68	295.6587040424347	pulse	1	t		66.0	2.5	/experiments/knapen_AOT/AOT_stimuli/rescaled_final/1002_fw.mp4	0.0	316.8611640930176	
68	295.77733397483826	fix_post	2		12	66.0	2.5	/experiments/knapen_AOT/AOT_stimuli/rescaled_final/1002_fw.mp4	0.0	316.97979402542114	0.100006103515625
69	295.8773400783539	fix_pre	0		120	67.0	2.5	/experiments/knapen_AOT/AOT_stimuli/rescaled_final/1881_rv.mp4	0.0	317.07980012893677	1.0001680850982666
69	296.87750816345215	movie	1		244	67.0	2.5	/experiments/knapen_AOT/AOT_stimuli/rescaled_final/1881_rv.mp4	0.0	318.07996821403503	2.491999864578247
69	297.262246131897	pulse	1	t		67.0	2.5	/experiments/knapen_AOT/AOT_stimuli/rescaled_final/1881_rv.mp4	0.0	318.46470618247986	
69	298.86150217056274	pulse	1	t		67.0	2.5	/experiments/knapen_AOT/AOT_stimuli/rescaled_final/1881_rv.mp4	0.0	320.06396222114563	
69	299.3695080280304	fix_post	2		12	67.0	2.5	/experiments/knapen_AOT/AOT_stimuli/rescaled_final/1881_rv.mp4	0.0	320.5719680786133	0.10002398490905762
70	299.46953201293945	fix_pre	0		120	68.0	2.5	/experiments/knapen_AOT/AOT_stimuli/rescaled_final/0654_rv.mp4	0.0	320.67199206352234	1.0001530647277832
70	300.4617040157318	pulse	0	t		68.0	2.5	/experiments/knapen_AOT/AOT_stimuli/rescaled_final/0654_rv.mp4	0.0	321.6641640663147	
70	300.46968507766724	movie	1		241	68.0	2.5	/experiments/knapen_AOT/AOT_stimuli/rescaled_final/0654_rv.mp4	0.0	321.6721451282501	2.508718967437744
70	302.062185049057	pulse	1	t		68.0	2.5	/experiments/knapen_AOT/AOT_stimuli/rescaled_final/0654_rv.mp4	0.0	323.2646450996399	
70	302.978404045105	fix_post	2		12	68.0	2.5	/experiments/knapen_AOT/AOT_stimuli/rescaled_final/0654_rv.mp4	0.0	324.18086409568787	0.1000070571899414
71	303.0784111022949	fix_pre	0		120	69.0	2.5	/experiments/knapen_AOT/AOT_stimuli/rescaled_final/1338_fw.mp4	0.0	324.2808711528778	1.0001490116119385
71	303.6620981693268	pulse	0	t		69.0	2.5	/experiments/knapen_AOT/AOT_stimuli/rescaled_final/1338_fw.mp4	0.0	324.86455821990967	
71	304.07856011390686	movie	1		244	69.0	2.5	/experiments/knapen_AOT/AOT_stimuli/rescaled_final/1338_fw.mp4	0.0	325.28102016448975	2.500391960144043
71	305.26235914230347	pulse	1	t		69.0	2.5	/experiments/knapen_AOT/AOT_stimuli/rescaled_final/1338_fw.mp4	0.0	326.46481919288635	
71	306.5789520740509	fix_post	2		12	69.0	2.5	/experiments/knapen_AOT/AOT_stimuli/rescaled_final/1338_fw.mp4	0.0	327.7814121246338	0.10002303123474121
72	306.67897510528564	fix_pre	0		120	70.0	2.5	blank	1.0	327.88143515586853	1.000187873840332
72	306.8627121448517	pulse	0	t		70.0	2.5	blank	1.0	328.06517219543457	
72	307.679162979126	movie	1		300	70.0	2.5	blank	1.0	328.88162302970886	2.500322103500366
72	308.46278715133667	pulse	1	t		70.0	2.5	blank	1.0	329.66524720191956	
72	310.0629141330719	pulse	1	t		70.0	2.5	blank	1.0	331.2653741836548	
72	310.17948508262634	fix_post	2		12	70.0	2.5	blank	1.0	331.38194513320923	0.1000070571899414
73	310.2794921398163	fix_pre	0		120	71.0	2.5	/experiments/knapen_AOT/AOT_stimuli/rescaled_final/0480_rv.mp4	0.0	331.48195219039917	1.0001649856567383
73	311.279657125473	movie	1		244	71.0	2.5	/experiments/knapen_AOT/AOT_stimuli/rescaled_final/0480_rv.mp4	0.0	332.4821171760559	2.491989850997925
73	311.6643280982971	pulse	1	t		71.0	2.5	/experiments/knapen_AOT/AOT_stimuli/rescaled_final/0480_rv.mp4	0.0	332.86678814888	
73	313.26348209381104	pulse	1	t		71.0	2.5	/experiments/knapen_AOT/AOT_stimuli/rescaled_final/0480_rv.mp4	0.0	334.4659421443939	
73	313.77164697647095	fix_post	2		12	71.0	2.5	/experiments/knapen_AOT/AOT_stimuli/rescaled_final/0480_rv.mp4	0.0	334.97410702705383	0.10004615783691406
74	313.87169313430786	fix_pre	0		120	72.0	2.5	/experiments/knapen_AOT/AOT_stimuli/rescaled_final/0029_rv.mp4	0.0	335.07415318489075	1.000147819519043
74	314.8638141155243	pulse	0	t		72.0	2.5	/experiments/knapen_AOT/AOT_stimuli/rescaled_final/0029_rv.mp4	0.0	336.0662741661072	
74	314.8718409538269	movie	1		246	72.0	2.5	/experiments/knapen_AOT/AOT_stimuli/rescaled_final/0029_rv.mp4	0.0	336.0743010044098	2.5087342262268066
74	316.46460914611816	pulse	1	t		72.0	2.5	/experiments/knapen_AOT/AOT_stimuli/rescaled_final/0029_rv.mp4	0.0	337.66706919670105	
74	317.3805751800537	fix_post	2		12	72.0	2.5	/experiments/knapen_AOT/AOT_stimuli/rescaled_final/0029_rv.mp4	0.0	338.5830352306366	0.10001277923583984
75	317.48058795928955	fix_pre	0		120	73.0	2.5	/experiments/knapen_AOT/AOT_stimuli/rescaled_final/0308_rv.mp4	0.0	338.68304800987244	1.0001251697540283
75	318.064355134964	pulse	0	t		73.0	2.5	/experiments/knapen_AOT/AOT_stimuli/rescaled_final/0308_rv.mp4	0.0	339.2668151855469	
75	318.4807131290436	movie	1		244	73.0	2.5	/experiments/knapen_AOT/AOT_stimuli/rescaled_final/0308_rv.mp4	0.0	339.68317317962646	2.500393867492676
75	319.664489030838	pulse	1	t		73.0	2.5	/experiments/knapen_AOT/AOT_stimuli/rescaled_final/0308_rv.mp4	0.0	340.8669490814209	
75	320.98110699653625	fix_post	2		12	73.0	2.5	/experiments/knapen_AOT/AOT_stimuli/rescaled_final/0308_rv.mp4	0.0	342.18356704711914	0.10001015663146973
76	321.0811171531677	fix_pre	0		120	74.0	2.5	/experiments/knapen_AOT/AOT_stimuli/rescaled_final/1127_rv.mp4	0.0	342.2835772037506	1.0001859664916992
76	321.2647171020508	pulse	0	t		74.0	2.5	/experiments/knapen_AOT/AOT_stimuli/rescaled_final/1127_rv.mp4	0.0	342.46717715263367	
76	322.0813031196594	movie	1		244	74.0	2.5	/experiments/knapen_AOT/AOT_stimuli/rescaled_final/1127_rv.mp4	0.0	343.2837631702423	2.5003390312194824
76	322.8648669719696	pulse	1	t		74.0	2.5	/experiments/knapen_AOT/AOT_stimuli/rescaled_final/1127_rv.mp4	0.0	344.0673270225525	
76	324.4628291130066	pulse	1	t		74.0	2.5	/experiments/knapen_AOT/AOT_stimuli/rescaled_final/1127_rv.mp4	0.0	345.6652891635895	
76	324.5816421508789	fix_post	2		12	74.0	2.5	/experiments/knapen_AOT/AOT_stimuli/rescaled_final/1127_rv.mp4	0.0	345.7841022014618	0.09998798370361328
77	324.6816301345825	fix_pre	0		120	75.0	2.5	blank	1.0	345.8840901851654	1.000182867050171
77	325.6818130016327	movie	1		299	75.0	2.5	blank	1.0	346.8842730522156	2.492032051086426
77	326.0654420852661	pulse	1	t		75.0	2.5	blank	1.0	347.267902135849	
77	327.6581840515137	pulse	1	t		75.0	2.5	blank	1.0	348.86064410209656	
77	328.1738450527191	fix_post	2		12	75.0	2.5	blank	1.0	349.376305103302	0.10001611709594727
78	328.27386116981506	fix_pre	0		120	76.0	2.5	/experiments/knapen_AOT/AOT_stimuli/rescaled_final/0633_rv.mp4	0.0	349.47632122039795	1.000173807144165
78	329.2583360671997	pulse	0	t		76.0	2.5	/experiments/knapen_AOT/AOT_stimuli/rescaled_final/0633_rv.mp4	0.0	350.4607961177826	
78	329.27403497695923	movie	1		245	76.0	2.5	/experiments/knapen_AOT/AOT_stimuli/rescaled_final/0633_rv.mp4	0.0	350.4764950275421	2.5086700916290283
78	330.86656403541565	pulse	1	t		76.0	2.5	/experiments/knapen_AOT/AOT_stimuli/rescaled_final/0633_rv.mp4	0.0	352.06902408599854	
78	331.78270506858826	fix_post	2		12	76.0	2.5	/experiments/knapen_AOT/AOT_stimuli/rescaled_final/0633_rv.mp4	0.0	352.98516511917114	0.09998798370361328
79	331.88269305229187	fix_pre	0		120	77.0	2.5	/experiments/knapen_AOT/AOT_stimuli/rescaled_final/1599_rv.mp4	0.0	353.08515310287476	1.00022292137146
79	332.45880103111267	pulse	0	t		77.0	2.5	/experiments/knapen_AOT/AOT_stimuli/rescaled_final/1599_rv.mp4	0.0	353.66126108169556	
79	332.88291597366333	movie	1		244	77.0	2.5	/experiments/knapen_AOT/AOT_stimuli/rescaled_final/1599_rv.mp4	0.0	354.0853760242462	2.500326156616211
79	334.05861616134644	pulse	1	t		77.0	2.5	/experiments/knapen_AOT/AOT_stimuli/rescaled_final/1599_rv.mp4	0.0	355.2610762119293	
79	335.38324213027954	fix_post	2		12	77.0	2.5	/experiments/knapen_AOT/AOT_stimuli/rescaled_final/1599_rv.mp4	0.0	356.5857021808624	0.10002684593200684
80	335.48326897621155	fix_pre	0		120	78.0	2.5	/experiments/knapen_AOT/AOT_stimuli/rescaled_final/1186_rv.mp4	0.0	356.68572902679443	1.0001840591430664
80	335.65844106674194	pulse	0	t		78.0	2.5	/experiments/knapen_AOT/AOT_stimuli/rescaled_final/1186_rv.mp4	0.0	356.86090111732483	
80	336.4834530353546	movie	1		243	78.0	2.5	/experiments/knapen_AOT/AOT_stimuli/rescaled_final/1186_rv.mp4	0.0	357.6859130859375	2.4920120239257812
80	337.2587549686432	pulse	1	t		78.0	2.5	/experiments/knapen_AOT/AOT_stimuli/rescaled_final/1186_rv.mp4	0.0	358.4612150192261	
80	338.8589119911194	pulse	1	t		78.0	2.5	/experiments/knapen_AOT/AOT_stimuli/rescaled_final/1186_rv.mp4	0.0	360.06137204170227	
80	338.9754650592804	fix_post	2		12	78.0	2.5	/experiments/knapen_AOT/AOT_stimuli/rescaled_final/1186_rv.mp4	0.0	360.1779251098633	0.10002803802490234
81	339.0754930973053	fix_pre	0		120	79.0	2.5	/experiments/knapen_AOT/AOT_stimuli/rescaled_final/0257_rv.mp4	0.0	360.2779531478882	1.0001559257507324
81	340.07564902305603	movie	1		243	79.0	2.5	/experiments/knapen_AOT/AOT_stimuli/rescaled_final/0257_rv.mp4	0.0	361.2781090736389	2.5003321170806885
81	340.4597010612488	pulse	1	t		79.0	2.5	/experiments/knapen_AOT/AOT_stimuli/rescaled_final/0257_rv.mp4	0.0	361.66216111183167	
81	342.05956506729126	pulse	1	t		79.0	2.5	/experiments/knapen_AOT/AOT_stimuli/rescaled_final/0257_rv.mp4	0.0	363.26202511787415	
81	342.5759811401367	fix_post	2		12	79.0	2.5	/experiments/knapen_AOT/AOT_stimuli/rescaled_final/0257_rv.mp4	0.0	363.7784411907196	0.10003089904785156
82	342.67601203918457	fix_pre	0		119	80.0	2.5	/experiments/knapen_AOT/AOT_stimuli/rescaled_final/0454_fw.mp4	0.0	363.87847208976746	0.9917969703674316
82	343.6596450805664	pulse	0	t		80.0	2.5	/experiments/knapen_AOT/AOT_stimuli/rescaled_final/0454_fw.mp4	0.0	364.8621051311493	
82	343.667809009552	movie	1		245	80.0	2.5	/experiments/knapen_AOT/AOT_stimuli/rescaled_final/0454_fw.mp4	0.0	364.8702690601349	2.5086941719055176
82	345.26493406295776	pulse	1	t		80.0	2.5	/experiments/knapen_AOT/AOT_stimuli/rescaled_final/0454_fw.mp4	0.0	366.46739411354065	
82	346.1765031814575	fix_post	2		12	80.0	2.5	/experiments/knapen_AOT/AOT_stimuli/rescaled_final/0454_fw.mp4	0.0	367.3789632320404	0.10004496574401855
83	346.27654814720154	fix_pre	0		120	81.0	2.5	/experiments/knapen_AOT/AOT_stimuli/rescaled_final/1340_rv.mp4	0.0	367.4790081977844	1.0001399517059326
83	346.8602261543274	pulse	0	t		81.0	2.5	/experiments/knapen_AOT/AOT_stimuli/rescaled_final/1340_rv.mp4	0.0	368.0626862049103	
83	347.27668809890747	movie	1		244	81.0	2.5	/experiments/knapen_AOT/AOT_stimuli/rescaled_final/1340_rv.mp4	0.0	368.47914814949036	2.5003509521484375
83	348.4605209827423	pulse	1	t		81.0	2.5	/experiments/knapen_AOT/AOT_stimuli/rescaled_final/1340_rv.mp4	0.0	369.6629810333252	
83	349.7770390510559	fix_post	2		12	81.0	2.5	/experiments/knapen_AOT/AOT_stimuli/rescaled_final/1340_rv.mp4	0.0	370.9794991016388	0.10005807876586914
84	349.8770971298218	fix_pre	0		120	82.0	2.5	blank	1.0	371.07955718040466	1.000147819519043
84	350.0606601238251	pulse	0	t		82.0	2.5	blank	1.0	371.26312017440796	
84	350.8772449493408	movie	1		300	82.0	2.5	blank	1.0	372.0797049999237	2.500364065170288
84	351.66087198257446	pulse	1	t		82.0	2.5	blank	1.0	372.86333203315735	
84	353.2610900402069	pulse	1	t		82.0	2.5	blank	1.0	374.4635500907898	
84	353.3776090145111	fix_post	2		12	82.0	2.5	blank	1.0	374.580069065094	0.09999608993530273
85	353.4776051044464	fix_pre	0		120	83.0	2.5	/experiments/knapen_AOT/AOT_stimuli/rescaled_final/0643_fw.mp4	0.0	374.6800651550293	1.000187873840332
85	354.47779297828674	movie	1		242	83.0	2.5	/experiments/knapen_AOT/AOT_stimuli/rescaled_final/0643_fw.mp4	0.0	375.68025302886963	2.4920010566711426
85	354.86175513267517	pulse	1	t		83.0	2.5	/experiments/knapen_AOT/AOT_stimuli/rescaled_final/0643_fw.mp4	0.0	376.06421518325806	
85	356.46169114112854	pulse	1	t		83.0	2.5	/experiments/knapen_AOT/AOT_stimuli/rescaled_final/0643_fw.mp4	0.0	377.6641511917114	
85	356.9697940349579	fix_post	2		12	83.0	2.5	/experiments/knapen_AOT/AOT_stimuli/rescaled_final/0643_fw.mp4	0.0	378.17225408554077	0.10003495216369629
87	357.0698289871216	stim	0		1716					378.27228903770447	14.3022301197052
87	358.06179094314575	pulse	0	t						379.26425099372864	
87	359.6620910167694	pulse	0	t						380.8645510673523	
87	361.26234197616577	pulse	0	t						382.46480202674866	
87	362.86262702941895	pulse	0	t						384.06508708000183	
87	364.462767124176	pulse	0	t						385.6652271747589	
87	366.06313395500183	pulse	0	t						387.2655940055847	
87	367.6632959842682	pulse	0	t						388.8657560348511	
87	369.2635500431061	pulse	0	t						390.46601009368896	
87	370.86374402046204	pulse	0	t						392.0662040710449	
