trial_nr	onset	event_type	phase	response	nr_frames	movie_index	movie_duration	movie_file	blank	onset_abs	duration
0	0.13295483589172363	stim	0		40					21.005436897277832	0.33319807052612305
0	0.4580528736114502	response	0	space						21.33053493499756	
1	0.4661529064178467	stim	0		2226					21.338634967803955	18.550339937210083
1	19.011831045150757	pulse	0	t						39.884313106536865	
1	19.01649284362793	stim	1		1717					39.88897490501404	14.30827808380127
1	20.60835099220276	pulse	1	t						41.48083305358887	
1	22.208285808563232	pulse	1	t						43.08076786994934	
1	23.808287858963013	pulse	1	t						44.68076992034912	
1	25.408280849456787	pulse	1	t						46.280762910842896	
1	27.00824785232544	pulse	1	t						47.88072991371155	
1	28.608255863189697	pulse	1	t						49.480737924575806	
1	30.208281993865967	pulse	1	t						51.080764055252075	
1	31.80824899673462	pulse	1	t						52.68073105812073	
2	33.3247709274292	fix_pre	0		11	0.0	2.5	/experiments/AOT/AOT_stimuli/rescaled_final/0336_fw.mp4	0.0	54.19725298881531	0.09154510498046875
2	33.40812087059021	pulse	0	t		0.0	2.5	/experiments/AOT/AOT_stimuli/rescaled_final/0336_fw.mp4	0.0	54.28060293197632	
2	33.41631603240967	movie	1		244	0.0	2.5	/experiments/AOT/AOT_stimuli/rescaled_final/0336_fw.mp4	0.0	54.288798093795776	2.508401870727539
2	35.00944185256958	pulse	1	t		0.0	2.5	/experiments/AOT/AOT_stimuli/rescaled_final/0336_fw.mp4	0.0	55.88192391395569	
2	35.92471790313721	fix_post	2		12	0.0	2.5	/experiments/AOT/AOT_stimuli/rescaled_final/0336_fw.mp4	0.0	56.797199964523315	0.10004210472106934
3	36.024760007858276	fix_pre	0		120	1.0	2.5	/experiments/AOT/AOT_stimuli/rescaled_final/1105_fw.mp4	0.0	56.897242069244385	0.9998998641967773
3	36.60824203491211	pulse	0	t		1.0	2.5	/experiments/AOT/AOT_stimuli/rescaled_final/1105_fw.mp4	0.0	57.48072409629822	
3	37.024659872055054	movie	1		245	1.0	2.5	/experiments/AOT/AOT_stimuli/rescaled_final/1105_fw.mp4	0.0	57.89714193344116	2.499988079071045
3	38.20820689201355	pulse	1	t		1.0	2.5	/experiments/AOT/AOT_stimuli/rescaled_final/1105_fw.mp4	0.0	59.08068895339966	
3	39.5246479511261	fix_post	2		12	1.0	2.5	/experiments/AOT/AOT_stimuli/rescaled_final/1105_fw.mp4	0.0	60.39713001251221	0.10003399848937988
4	39.62468194961548	fix_pre	0		120	2.0	2.5	/experiments/AOT/AOT_stimuli/rescaled_final/2003_rv.mp4	0.0	60.49716401100159	1.0000689029693604
4	39.80823588371277	pulse	0	t		2.0	2.5	/experiments/AOT/AOT_stimuli/rescaled_final/2003_rv.mp4	0.0	60.68071794509888	
4	40.62475085258484	movie	1		243	2.0	2.5	/experiments/AOT/AOT_stimuli/rescaled_final/2003_rv.mp4	0.0	61.49723291397095	2.4998960494995117
4	41.408177852630615	pulse	1	t		2.0	2.5	/experiments/AOT/AOT_stimuli/rescaled_final/2003_rv.mp4	0.0	62.280659914016724	
4	43.00646090507507	pulse	1	t		2.0	2.5	/experiments/AOT/AOT_stimuli/rescaled_final/2003_rv.mp4	0.0	63.87894296646118	
4	43.12464690208435	fix_post	2		12	2.0	2.5	/experiments/AOT/AOT_stimuli/rescaled_final/2003_rv.mp4	0.0	63.99712896347046	0.10007500648498535
5	43.224721908569336	fix_pre	0		120	3.0	2.5	/experiments/AOT/AOT_stimuli/rescaled_final/0780_rv.mp4	0.0	64.09720396995544	0.9995551109313965
5	44.22427701950073	movie	1		245	3.0	2.5	/experiments/AOT/AOT_stimuli/rescaled_final/0780_rv.mp4	0.0	65.09675908088684	2.500412940979004
5	44.60757493972778	pulse	1	t		3.0	2.5	/experiments/AOT/AOT_stimuli/rescaled_final/0780_rv.mp4	0.0	65.48005700111389	
5	46.20814490318298	pulse	1	t		3.0	2.5	/experiments/AOT/AOT_stimuli/rescaled_final/0780_rv.mp4	0.0	67.08062696456909	
5	46.724689960479736	fix_post	2		12	3.0	2.5	/experiments/AOT/AOT_stimuli/rescaled_final/0780_rv.mp4	0.0	67.59717202186584	0.1000058650970459
6	46.82469582557678	fix_pre	0		119	4.0	2.5	/experiments/AOT/AOT_stimuli/rescaled_final/0728_fw.mp4	0.0	67.69717788696289	0.9915440082550049
6	47.80815100669861	pulse	0	t		4.0	2.5	/experiments/AOT/AOT_stimuli/rescaled_final/0728_fw.mp4	0.0	68.68063306808472	
6	47.81623983383179	movie	1		244	4.0	2.5	/experiments/AOT/AOT_stimuli/rescaled_final/0728_fw.mp4	0.0	68.6887218952179	2.508411169052124
6	49.40806698799133	pulse	1	t		4.0	2.5	/experiments/AOT/AOT_stimuli/rescaled_final/0728_fw.mp4	0.0	70.28054904937744	
6	50.32465100288391	fix_post	2		12	4.0	2.5	/experiments/AOT/AOT_stimuli/rescaled_final/0728_fw.mp4	0.0	71.19713306427002	0.10000181198120117
7	50.42465281486511	fix_pre	0		120	5.0	2.5	/experiments/AOT/AOT_stimuli/rescaled_final/1229_rv.mp4	0.0	71.29713487625122	1.0000250339508057
7	51.008158922195435	pulse	0	t		5.0	2.5	/experiments/AOT/AOT_stimuli/rescaled_final/1229_rv.mp4	0.0	71.88064098358154	
7	51.42467784881592	movie	1		243	5.0	2.5	/experiments/AOT/AOT_stimuli/rescaled_final/1229_rv.mp4	0.0	72.29715991020203	2.49997615814209
7	52.60826897621155	pulse	1	t		5.0	2.5	/experiments/AOT/AOT_stimuli/rescaled_final/1229_rv.mp4	0.0	73.48075103759766	
7	53.92465400695801	fix_post	2		12	5.0	2.5	/experiments/AOT/AOT_stimuli/rescaled_final/1229_rv.mp4	0.0	74.79713606834412	0.10002303123474121
8	54.02467703819275	fix_pre	0		120	6.0	2.5	/experiments/AOT/AOT_stimuli/rescaled_final/1308_rv.mp4	0.0	74.89715909957886	0.9999759197235107
8	54.208396911621094	pulse	0	t		6.0	2.5	/experiments/AOT/AOT_stimuli/rescaled_final/1308_rv.mp4	0.0	75.0808789730072	
8	55.02465295791626	movie	1		244	6.0	2.5	/experiments/AOT/AOT_stimuli/rescaled_final/1308_rv.mp4	0.0	75.89713501930237	2.4996769428253174
8	55.80765390396118	pulse	1	t		6.0	2.5	/experiments/AOT/AOT_stimuli/rescaled_final/1308_rv.mp4	0.0	76.68013596534729	
8	57.406370878219604	pulse	1	t		6.0	2.5	/experiments/AOT/AOT_stimuli/rescaled_final/1308_rv.mp4	0.0	78.27885293960571	
8	57.52432990074158	fix_post	2		12	6.0	2.5	/experiments/AOT/AOT_stimuli/rescaled_final/1308_rv.mp4	0.0	78.39681196212769	0.09992194175720215
9	57.62425184249878	fix_pre	0		120	7.0	2.5	blank	1.0	78.49673390388489	1.0001881122589111
9	58.62443995475769	movie	1		300	7.0	2.5	blank	1.0	79.4969220161438	2.5001749992370605
9	59.00817084312439	pulse	1	t		7.0	2.5	blank	1.0	79.8806529045105	
9	60.6081178188324	pulse	1	t		7.0	2.5	blank	1.0	81.4805998802185	
9	61.12461495399475	fix_post	2		12	7.0	2.5	blank	1.0	81.99709701538086	0.10002994537353516
10	61.224644899368286	fix_pre	0		119	8.0	2.5	/experiments/AOT/AOT_stimuli/rescaled_final/0554_fw.mp4	0.0	82.0971269607544	0.9915859699249268
10	62.20808792114258	pulse	0	t		8.0	2.5	/experiments/AOT/AOT_stimuli/rescaled_final/0554_fw.mp4	0.0	83.08056998252869	
10	62.21623086929321	movie	1		245	8.0	2.5	/experiments/AOT/AOT_stimuli/rescaled_final/0554_fw.mp4	0.0	83.08871293067932	2.507996082305908
10	63.80821084976196	pulse	1	t		8.0	2.5	/experiments/AOT/AOT_stimuli/rescaled_final/0554_fw.mp4	0.0	84.68069291114807	
10	64.72422695159912	fix_post	2		12	8.0	2.5	/experiments/AOT/AOT_stimuli/rescaled_final/0554_fw.mp4	0.0	85.59670901298523	0.10035586357116699
11	64.82458281517029	fix_pre	0		120	9.0	2.5	/experiments/AOT/AOT_stimuli/rescaled_final/0682_fw.mp4	0.0	85.6970648765564	0.9999651908874512
11	65.40803289413452	pulse	0	t		9.0	2.5	/experiments/AOT/AOT_stimuli/rescaled_final/0682_fw.mp4	0.0	86.28051495552063	
11	65.82454800605774	movie	1		245	9.0	2.5	/experiments/AOT/AOT_stimuli/rescaled_final/0682_fw.mp4	0.0	86.69703006744385	2.5000100135803223
11	67.00809288024902	pulse	1	t		9.0	2.5	/experiments/AOT/AOT_stimuli/rescaled_final/0682_fw.mp4	0.0	87.88057494163513	
11	68.32455801963806	fix_post	2		12	9.0	2.5	/experiments/AOT/AOT_stimuli/rescaled_final/0682_fw.mp4	0.0	89.19704008102417	0.10008001327514648
12	68.42463803291321	fix_pre	0		120	10.0	2.5	/experiments/AOT/AOT_stimuli/rescaled_final/0732_fw.mp4	0.0	89.29712009429932	0.9998948574066162
12	68.60812187194824	pulse	0	t		10.0	2.5	/experiments/AOT/AOT_stimuli/rescaled_final/0732_fw.mp4	0.0	89.48060393333435	
12	69.42453289031982	movie	1		245	10.0	2.5	/experiments/AOT/AOT_stimuli/rescaled_final/0732_fw.mp4	0.0	90.29701495170593	2.4999821186065674
12	70.20797491073608	pulse	1	t		10.0	2.5	/experiments/AOT/AOT_stimuli/rescaled_final/0732_fw.mp4	0.0	91.08045697212219	
12	71.80398797988892	pulse	1	t		10.0	2.5	/experiments/AOT/AOT_stimuli/rescaled_final/0732_fw.mp4	0.0	92.67647004127502	
12	71.92451500892639	fix_post	2		12	10.0	2.5	/experiments/AOT/AOT_stimuli/rescaled_final/0732_fw.mp4	0.0	92.7969970703125	0.1000518798828125
13	72.0245668888092	fix_pre	0		120	11.0	2.5	/experiments/AOT/AOT_stimuli/rescaled_final/0682_rv.mp4	0.0	92.89704895019531	0.9999439716339111
13	73.02451086044312	movie	1		243	11.0	2.5	/experiments/AOT/AOT_stimuli/rescaled_final/0682_rv.mp4	0.0	93.89699292182922	2.500075101852417
13	73.4078299999237	pulse	1	t		11.0	2.5	/experiments/AOT/AOT_stimuli/rescaled_final/0682_rv.mp4	0.0	94.28031206130981	
13	75.00797700881958	pulse	1	t		11.0	2.5	/experiments/AOT/AOT_stimuli/rescaled_final/0682_rv.mp4	0.0	95.88045907020569	
13	75.52458596229553	fix_post	2		12	11.0	2.5	/experiments/AOT/AOT_stimuli/rescaled_final/0682_rv.mp4	0.0	96.39706802368164	0.09996294975280762
14	75.62454891204834	fix_pre	0		119	12.0	2.5	blank	1.0	96.49703097343445	0.9916279315948486
14	76.60803484916687	pulse	0	t		12.0	2.5	blank	1.0	97.48051691055298	
14	76.61617684364319	movie	1		301	12.0	2.5	blank	1.0	97.4886589050293	2.5083861351013184
14	78.20800399780273	pulse	1	t		12.0	2.5	blank	1.0	99.08048605918884	
14	79.1245629787445	fix_post	2		12	12.0	2.5	blank	1.0	99.99704504013062	0.09988784790039062
15	79.2244508266449	fix_pre	0		120	13.0	2.5	/experiments/AOT/AOT_stimuli/rescaled_final/0159_rv.mp4	0.0	100.096932888031	1.0000619888305664
15	79.80803394317627	pulse	0	t		13.0	2.5	/experiments/AOT/AOT_stimuli/rescaled_final/0159_rv.mp4	0.0	100.68051600456238	
15	80.22451281547546	movie	1		244	13.0	2.5	/experiments/AOT/AOT_stimuli/rescaled_final/0159_rv.mp4	0.0	101.09699487686157	2.4995150566101074
15	81.40813302993774	pulse	1	t		13.0	2.5	/experiments/AOT/AOT_stimuli/rescaled_final/0159_rv.mp4	0.0	102.28061509132385	
15	82.72402787208557	fix_post	2		12	13.0	2.5	/experiments/AOT/AOT_stimuli/rescaled_final/0159_rv.mp4	0.0	103.59650993347168	0.10044503211975098
16	82.82447290420532	fix_pre	0		120	14.0	2.5	/experiments/AOT/AOT_stimuli/rescaled_final/0171_rv.mp4	0.0	103.69695496559143	0.9999749660491943
16	83.00799083709717	pulse	0	t		14.0	2.5	/experiments/AOT/AOT_stimuli/rescaled_final/0171_rv.mp4	0.0	103.88047289848328	
16	83.82444787025452	movie	1		243	14.0	2.5	/experiments/AOT/AOT_stimuli/rescaled_final/0171_rv.mp4	0.0	104.69692993164062	2.4995839595794678
16	84.60801482200623	pulse	1	t		14.0	2.5	/experiments/AOT/AOT_stimuli/rescaled_final/0171_rv.mp4	0.0	105.48049688339233	
16	86.20710182189941	pulse	1	t		14.0	2.5	/experiments/AOT/AOT_stimuli/rescaled_final/0171_rv.mp4	0.0	107.07958388328552	
16	86.32403182983398	fix_post	2		12	14.0	2.5	/experiments/AOT/AOT_stimuli/rescaled_final/0171_rv.mp4	0.0	107.19651389122009	0.1005702018737793
17	86.42460203170776	fix_pre	0		120	15.0	2.5	/experiments/AOT/AOT_stimuli/rescaled_final/1666_rv.mp4	0.0	107.29708409309387	0.9998209476470947
17	87.42442297935486	movie	1		243	15.0	2.5	/experiments/AOT/AOT_stimuli/rescaled_final/1666_rv.mp4	0.0	108.29690504074097	2.5000429153442383
17	87.80793380737305	pulse	1	t		15.0	2.5	/experiments/AOT/AOT_stimuli/rescaled_final/1666_rv.mp4	0.0	108.68041586875916	
17	89.40787100791931	pulse	1	t		15.0	2.5	/experiments/AOT/AOT_stimuli/rescaled_final/1666_rv.mp4	0.0	110.28035306930542	
17	89.9244658946991	fix_post	2		12	15.0	2.5	/experiments/AOT/AOT_stimuli/rescaled_final/1666_rv.mp4	0.0	110.7969479560852	0.09990096092224121
18	90.02436685562134	fix_pre	0		119	16.0	2.5	/experiments/AOT/AOT_stimuli/rescaled_final/0919_fw.mp4	0.0	110.89684891700745	0.9918091297149658
18	91.00817084312439	pulse	0	t		16.0	2.5	/experiments/AOT/AOT_stimuli/rescaled_final/0919_fw.mp4	0.0	111.8806529045105	
18	91.0161759853363	movie	1		244	16.0	2.5	/experiments/AOT/AOT_stimuli/rescaled_final/0919_fw.mp4	0.0	111.88865804672241	2.5082008838653564
18	92.60767197608948	pulse	1	t		16.0	2.5	/experiments/AOT/AOT_stimuli/rescaled_final/0919_fw.mp4	0.0	113.48015403747559	
18	93.52437686920166	fix_post	2		12	16.0	2.5	/experiments/AOT/AOT_stimuli/rescaled_final/0919_fw.mp4	0.0	114.39685893058777	0.10013008117675781
19	93.62450695037842	fix_pre	0		120	17.0	2.5	/experiments/AOT/AOT_stimuli/rescaled_final/1908_fw.mp4	0.0	114.49698901176453	0.9999148845672607
19	94.20794892311096	pulse	0	t		17.0	2.5	/experiments/AOT/AOT_stimuli/rescaled_final/1908_fw.mp4	0.0	115.08043098449707	
19	94.62442183494568	movie	1		244	17.0	2.5	/experiments/AOT/AOT_stimuli/rescaled_final/1908_fw.mp4	0.0	115.49690389633179	2.499941110610962
19	95.80793595314026	pulse	1	t		17.0	2.5	/experiments/AOT/AOT_stimuli/rescaled_final/1908_fw.mp4	0.0	116.68041801452637	
19	97.12436294555664	fix_post	2		12	17.0	2.5	/experiments/AOT/AOT_stimuli/rescaled_final/1908_fw.mp4	0.0	117.99684500694275	0.10008788108825684
20	97.2244508266449	fix_pre	0		120	18.0	2.5	/experiments/AOT/AOT_stimuli/rescaled_final/2096_fw.mp4	0.0	118.096932888031	0.9999561309814453
20	97.40799903869629	pulse	0	t		18.0	2.5	/experiments/AOT/AOT_stimuli/rescaled_final/2096_fw.mp4	0.0	118.2804811000824	
20	98.22440695762634	movie	1		244	18.0	2.5	/experiments/AOT/AOT_stimuli/rescaled_final/2096_fw.mp4	0.0	119.09688901901245	2.499933958053589
20	99.0080029964447	pulse	1	t		18.0	2.5	/experiments/AOT/AOT_stimuli/rescaled_final/2096_fw.mp4	0.0	119.88048505783081	
20	100.60654497146606	pulse	1	t		18.0	2.5	/experiments/AOT/AOT_stimuli/rescaled_final/2096_fw.mp4	0.0	121.47902703285217	
20	100.72434091567993	fix_post	2		12	18.0	2.5	/experiments/AOT/AOT_stimuli/rescaled_final/2096_fw.mp4	0.0	121.59682297706604	0.09962797164916992
21	100.8239688873291	fix_pre	0		120	19.0	2.5	/experiments/AOT/AOT_stimuli/rescaled_final/0912_fw.mp4	0.0	121.69645094871521	1.0003550052642822
21	101.82432389259338	movie	1		244	19.0	2.5	/experiments/AOT/AOT_stimuli/rescaled_final/0912_fw.mp4	0.0	122.69680595397949	2.5001020431518555
21	102.20737099647522	pulse	1	t		19.0	2.5	/experiments/AOT/AOT_stimuli/rescaled_final/0912_fw.mp4	0.0	123.07985305786133	
21	103.80782890319824	pulse	1	t		19.0	2.5	/experiments/AOT/AOT_stimuli/rescaled_final/0912_fw.mp4	0.0	124.68031096458435	
21	104.32442593574524	fix_post	2		12	19.0	2.5	/experiments/AOT/AOT_stimuli/rescaled_final/0912_fw.mp4	0.0	125.19690799713135	0.09998893737792969
22	104.42441487312317	fix_pre	0		119	20.0	2.5	/experiments/AOT/AOT_stimuli/rescaled_final/0497_rv.mp4	0.0	125.29689693450928	0.9915370941162109
22	105.40785884857178	pulse	0	t		20.0	2.5	/experiments/AOT/AOT_stimuli/rescaled_final/0497_rv.mp4	0.0	126.28034090995789	
22	105.41595196723938	movie	1		245	20.0	2.5	/experiments/AOT/AOT_stimuli/rescaled_final/0497_rv.mp4	0.0	126.28843402862549	2.5083749294281006
22	107.00787901878357	pulse	1	t		20.0	2.5	/experiments/AOT/AOT_stimuli/rescaled_final/0497_rv.mp4	0.0	127.88036108016968	
22	107.92432689666748	fix_post	2		12	20.0	2.5	/experiments/AOT/AOT_stimuli/rescaled_final/0497_rv.mp4	0.0	128.7968089580536	0.10004401206970215
23	108.02437090873718	fix_pre	0		120	21.0	2.5	blank	1.0	128.8968529701233	0.9996371269226074
23	108.60791492462158	pulse	0	t		21.0	2.5	blank	1.0	129.4803969860077	
23	109.02400803565979	movie	1		300	21.0	2.5	blank	1.0	129.8964900970459	2.5003769397735596
23	110.20797300338745	pulse	1	t		21.0	2.5	blank	1.0	131.08045506477356	
23	111.52438497543335	fix_post	2		12	21.0	2.5	blank	1.0	132.39686703681946	0.09993886947631836
24	111.62432384490967	fix_pre	0		120	22.0	2.5	/experiments/AOT/AOT_stimuli/rescaled_final/1534_rv.mp4	0.0	132.49680590629578	1.0000619888305664
24	111.80791091918945	pulse	0	t		22.0	2.5	/experiments/AOT/AOT_stimuli/rescaled_final/1534_rv.mp4	0.0	132.68039298057556	
24	112.62438583374023	movie	1		244	22.0	2.5	/experiments/AOT/AOT_stimuli/rescaled_final/1534_rv.mp4	0.0	133.49686789512634	2.5002481937408447
24	113.40749883651733	pulse	1	t		22.0	2.5	/experiments/AOT/AOT_stimuli/rescaled_final/1534_rv.mp4	0.0	134.27998089790344	
24	115.00602293014526	pulse	1	t		22.0	2.5	/experiments/AOT/AOT_stimuli/rescaled_final/1534_rv.mp4	0.0	135.87850499153137	
24	115.12463402748108	fix_post	2		12	22.0	2.5	/experiments/AOT/AOT_stimuli/rescaled_final/1534_rv.mp4	0.0	135.9971160888672	0.09962892532348633
25	115.22426295280457	fix_pre	0		120	23.0	2.5	/experiments/AOT/AOT_stimuli/rescaled_final/0311_fw.mp4	0.0	136.09674501419067	1.0000388622283936
25	116.22430181503296	movie	1		243	23.0	2.5	/experiments/AOT/AOT_stimuli/rescaled_final/0311_fw.mp4	0.0	137.09678387641907	2.500094175338745
25	116.60736894607544	pulse	1	t		23.0	2.5	/experiments/AOT/AOT_stimuli/rescaled_final/0311_fw.mp4	0.0	137.47985100746155	
25	118.20776391029358	pulse	1	t		23.0	2.5	/experiments/AOT/AOT_stimuli/rescaled_final/0311_fw.mp4	0.0	139.0802459716797	
25	118.7243959903717	fix_post	2		12	23.0	2.5	/experiments/AOT/AOT_stimuli/rescaled_final/0311_fw.mp4	0.0	139.5968780517578	0.09998583793640137
26	118.8243818283081	fix_pre	0		119	24.0	2.5	/experiments/AOT/AOT_stimuli/rescaled_final/2070_rv.mp4	0.0	139.6968638896942	0.9916250705718994
26	119.80789995193481	pulse	0	t		24.0	2.5	/experiments/AOT/AOT_stimuli/rescaled_final/2070_rv.mp4	0.0	140.68038201332092	
26	119.81600689888	movie	1		245	24.0	2.5	/experiments/AOT/AOT_stimuli/rescaled_final/2070_rv.mp4	0.0	140.6884889602661	2.5083489418029785
26	121.40745282173157	pulse	1	t		24.0	2.5	/experiments/AOT/AOT_stimuli/rescaled_final/2070_rv.mp4	0.0	142.27993488311768	
26	122.32435584068298	fix_post	2		12	24.0	2.5	/experiments/AOT/AOT_stimuli/rescaled_final/2070_rv.mp4	0.0	143.1968379020691	0.09990715980529785
27	122.42426300048828	fix_pre	0		120	25.0	2.5	/experiments/AOT/AOT_stimuli/rescaled_final/2056_rv.mp4	0.0	143.2967450618744	0.9997110366821289
27	123.00789403915405	pulse	0	t		25.0	2.5	/experiments/AOT/AOT_stimuli/rescaled_final/2056_rv.mp4	0.0	143.88037610054016	
27	123.42397403717041	movie	1		245	25.0	2.5	/experiments/AOT/AOT_stimuli/rescaled_final/2056_rv.mp4	0.0	144.29645609855652	2.500253915786743
27	124.60785293579102	pulse	1	t		25.0	2.5	/experiments/AOT/AOT_stimuli/rescaled_final/2056_rv.mp4	0.0	145.48033499717712	
27	125.92422795295715	fix_post	2		12	25.0	2.5	/experiments/AOT/AOT_stimuli/rescaled_final/2056_rv.mp4	0.0	146.79671001434326	0.10007095336914062
28	126.0242989063263	fix_pre	0		120	26.0	2.5	blank	1.0	146.8967809677124	0.9999210834503174
28	126.20776295661926	pulse	0	t		26.0	2.5	blank	1.0	147.08024501800537	
28	127.02421998977661	movie	1		300	26.0	2.5	blank	1.0	147.89670205116272	2.500013828277588
28	127.80776190757751	pulse	1	t		26.0	2.5	blank	1.0	148.68024396896362	
28	129.40767884254456	pulse	1	t		26.0	2.5	blank	1.0	150.28016090393066	
28	129.5242338180542	fix_post	2		12	26.0	2.5	blank	1.0	150.3967158794403	0.09999799728393555
29	129.62423181533813	fix_pre	0		120	27.0	2.5	/experiments/AOT/AOT_stimuli/rescaled_final/2111_fw.mp4	0.0	150.49671387672424	0.9999730587005615
29	130.6242048740387	movie	1		244	27.0	2.5	/experiments/AOT/AOT_stimuli/rescaled_final/2111_fw.mp4	0.0	151.4966869354248	2.499946117401123
29	131.00793886184692	pulse	1	t		27.0	2.5	/experiments/AOT/AOT_stimuli/rescaled_final/2111_fw.mp4	0.0	151.88042092323303	
29	132.60774302482605	pulse	1	t		27.0	2.5	/experiments/AOT/AOT_stimuli/rescaled_final/2111_fw.mp4	0.0	153.48022508621216	
29	133.12415099143982	fix_post	2		12	27.0	2.5	/experiments/AOT/AOT_stimuli/rescaled_final/2111_fw.mp4	0.0	153.99663305282593	0.09980487823486328
30	133.22395586967468	fix_pre	0		119	28.0	2.5	/experiments/AOT/AOT_stimuli/rescaled_final/0204_fw.mp4	0.0	154.0964379310608	0.9919121265411377
30	134.2077169418335	pulse	0	t		28.0	2.5	/experiments/AOT/AOT_stimuli/rescaled_final/0204_fw.mp4	0.0	155.0801990032196	
30	134.21586799621582	movie	1		245	28.0	2.5	/experiments/AOT/AOT_stimuli/rescaled_final/0204_fw.mp4	0.0	155.08835005760193	2.508344888687134
30	135.80736994743347	pulse	1	t		28.0	2.5	/experiments/AOT/AOT_stimuli/rescaled_final/0204_fw.mp4	0.0	156.67985200881958	
30	136.72421288490295	fix_post	2		12	28.0	2.5	/experiments/AOT/AOT_stimuli/rescaled_final/0204_fw.mp4	0.0	157.59669494628906	0.09998893737792969
31	136.82420182228088	fix_pre	0		120	29.0	2.5	/experiments/AOT/AOT_stimuli/rescaled_final/1439_rv.mp4	0.0	157.696683883667	1.0000720024108887
31	137.40768384933472	pulse	0	t		29.0	2.5	/experiments/AOT/AOT_stimuli/rescaled_final/1439_rv.mp4	0.0	158.28016591072083	
31	137.82427382469177	movie	1		243	29.0	2.5	/experiments/AOT/AOT_stimuli/rescaled_final/1439_rv.mp4	0.0	158.69675588607788	2.4998650550842285
31	139.00776481628418	pulse	1	t		29.0	2.5	/experiments/AOT/AOT_stimuli/rescaled_final/1439_rv.mp4	0.0	159.8802468776703	
31	140.324138879776	fix_post	2		12	29.0	2.5	/experiments/AOT/AOT_stimuli/rescaled_final/1439_rv.mp4	0.0	161.1966209411621	0.1000070571899414
32	140.42414593696594	fix_pre	0		120	30.0	2.5	/experiments/AOT/AOT_stimuli/rescaled_final/1413_rv.mp4	0.0	161.29662799835205	1.0000410079956055
32	140.6077070236206	pulse	0	t		30.0	2.5	/experiments/AOT/AOT_stimuli/rescaled_final/1413_rv.mp4	0.0	161.4801890850067	
32	141.42418694496155	movie	1		246	30.0	2.5	/experiments/AOT/AOT_stimuli/rescaled_final/1413_rv.mp4	0.0	162.29666900634766	2.5000109672546387
32	142.20771884918213	pulse	1	t		30.0	2.5	/experiments/AOT/AOT_stimuli/rescaled_final/1413_rv.mp4	0.0	163.08020091056824	
32	143.80727696418762	pulse	1	t		30.0	2.5	/experiments/AOT/AOT_stimuli/rescaled_final/1413_rv.mp4	0.0	164.67975902557373	
32	143.9241979122162	fix_post	2		12	30.0	2.5	/experiments/AOT/AOT_stimuli/rescaled_final/1413_rv.mp4	0.0	164.7966799736023	0.1000359058380127
33	144.0242338180542	fix_pre	0		120	31.0	2.5	/experiments/AOT/AOT_stimuli/rescaled_final/1515_fw.mp4	0.0	164.8967158794403	0.9999291896820068
33	145.0241630077362	movie	1		245	31.0	2.5	/experiments/AOT/AOT_stimuli/rescaled_final/1515_fw.mp4	0.0	165.89664506912231	2.5000228881835938
33	145.40895104408264	pulse	1	t		31.0	2.5	/experiments/AOT/AOT_stimuli/rescaled_final/1515_fw.mp4	0.0	166.28143310546875	
33	147.00771594047546	pulse	1	t		31.0	2.5	/experiments/AOT/AOT_stimuli/rescaled_final/1515_fw.mp4	0.0	167.88019800186157	
33	147.5241858959198	fix_post	2		12	31.0	2.5	/experiments/AOT/AOT_stimuli/rescaled_final/1515_fw.mp4	0.0	168.3966679573059	0.09994292259216309
34	147.62412881851196	fix_pre	0		119	32.0	2.5	/experiments/AOT/AOT_stimuli/rescaled_final/1027_rv.mp4	0.0	168.49661087989807	0.9916520118713379
34	148.60783791542053	pulse	0	t		32.0	2.5	/experiments/AOT/AOT_stimuli/rescaled_final/1027_rv.mp4	0.0	169.48031997680664	
34	148.6157808303833	movie	1		248	32.0	2.5	/experiments/AOT/AOT_stimuli/rescaled_final/1027_rv.mp4	0.0	169.4882628917694	2.5083510875701904
34	150.20717000961304	pulse	1	t		32.0	2.5	/experiments/AOT/AOT_stimuli/rescaled_final/1027_rv.mp4	0.0	171.07965207099915	
34	151.1241319179535	fix_post	2		12	32.0	2.5	/experiments/AOT/AOT_stimuli/rescaled_final/1027_rv.mp4	0.0	171.9966139793396	0.09998512268066406
35	151.22411704063416	fix_pre	0		120	33.0	2.5	/experiments/AOT/AOT_stimuli/rescaled_final/0723_fw.mp4	0.0	172.09659910202026	0.9999969005584717
35	151.8077130317688	pulse	0	t		33.0	2.5	/experiments/AOT/AOT_stimuli/rescaled_final/0723_fw.mp4	0.0	172.6801950931549	
35	152.22411394119263	movie	1		246	33.0	2.5	/experiments/AOT/AOT_stimuli/rescaled_final/0723_fw.mp4	0.0	173.09659600257874	2.500082015991211
35	153.40774202346802	pulse	1	t		33.0	2.5	/experiments/AOT/AOT_stimuli/rescaled_final/0723_fw.mp4	0.0	174.28022408485413	
35	154.72419595718384	fix_post	2		12	33.0	2.5	/experiments/AOT/AOT_stimuli/rescaled_final/0723_fw.mp4	0.0	175.59667801856995	0.09991192817687988
36	154.82410788536072	fix_pre	0		120	34.0	2.5	blank	1.0	175.69658994674683	1.000096082687378
36	155.00766682624817	pulse	0	t		34.0	2.5	blank	1.0	175.88014888763428	
36	155.8242039680481	movie	1		300	34.0	2.5	blank	1.0	176.6966860294342	2.499958038330078
36	156.6077139377594	pulse	1	t		34.0	2.5	blank	1.0	177.4801959991455	
36	158.20762395858765	pulse	1	t		34.0	2.5	blank	1.0	179.08010601997375	
36	158.32416200637817	fix_post	2		12	34.0	2.5	blank	1.0	179.19664406776428	0.0999898910522461
37	158.42415189743042	fix_pre	0		120	35.0	2.5	/experiments/AOT/AOT_stimuli/rescaled_final/0753_fw.mp4	0.0	179.29663395881653	0.9999821186065674
37	159.424134016037	movie	1		244	35.0	2.5	/experiments/AOT/AOT_stimuli/rescaled_final/0753_fw.mp4	0.0	180.2966160774231	2.4999098777770996
37	159.80852699279785	pulse	1	t		35.0	2.5	/experiments/AOT/AOT_stimuli/rescaled_final/0753_fw.mp4	0.0	180.68100905418396	
37	161.4076099395752	pulse	1	t		35.0	2.5	/experiments/AOT/AOT_stimuli/rescaled_final/0753_fw.mp4	0.0	182.2800920009613	
37	161.9240438938141	fix_post	2		12	35.0	2.5	/experiments/AOT/AOT_stimuli/rescaled_final/0753_fw.mp4	0.0	182.7965259552002	0.10013198852539062
38	162.02417588233948	fix_pre	0		119	36.0	2.5	/experiments/AOT/AOT_stimuli/rescaled_final/0912_rv.mp4	0.0	182.8966579437256	0.9915571212768555
38	163.00758481025696	pulse	0	t		36.0	2.5	/experiments/AOT/AOT_stimuli/rescaled_final/0912_rv.mp4	0.0	183.88006687164307	
38	163.01573300361633	movie	1		245	36.0	2.5	/experiments/AOT/AOT_stimuli/rescaled_final/0912_rv.mp4	0.0	183.88821506500244	2.5083470344543457
38	164.60797595977783	pulse	1	t		36.0	2.5	/experiments/AOT/AOT_stimuli/rescaled_final/0912_rv.mp4	0.0	185.48045802116394	
38	165.52408003807068	fix_post	2		12	36.0	2.5	/experiments/AOT/AOT_stimuli/rescaled_final/0912_rv.mp4	0.0	186.3965620994568	0.1000058650970459
39	165.62408590316772	fix_pre	0		120	37.0	2.5	/experiments/AOT/AOT_stimuli/rescaled_final/0401_fw.mp4	0.0	186.49656796455383	0.9999759197235107
39	166.2077648639679	pulse	0	t		37.0	2.5	/experiments/AOT/AOT_stimuli/rescaled_final/0401_fw.mp4	0.0	187.080246925354	
39	166.62406182289124	movie	1		245	37.0	2.5	/experiments/AOT/AOT_stimuli/rescaled_final/0401_fw.mp4	0.0	187.49654388427734	2.4996511936187744
39	167.80712580680847	pulse	1	t		37.0	2.5	/experiments/AOT/AOT_stimuli/rescaled_final/0401_fw.mp4	0.0	188.67960786819458	
39	169.12371301651	fix_post	2		12	37.0	2.5	/experiments/AOT/AOT_stimuli/rescaled_final/0401_fw.mp4	0.0	189.99619507789612	0.10001492500305176
40	169.22372794151306	fix_pre	0		120	38.0	2.5	/experiments/AOT/AOT_stimuli/rescaled_final/1559_fw.mp4	0.0	190.09621000289917	1.0001540184020996
40	169.40723586082458	pulse	0	t		38.0	2.5	/experiments/AOT/AOT_stimuli/rescaled_final/1559_fw.mp4	0.0	190.2797179222107	
40	170.22388195991516	movie	1		246	38.0	2.5	/experiments/AOT/AOT_stimuli/rescaled_final/1559_fw.mp4	0.0	191.09636402130127	2.5001769065856934
40	171.00741982460022	pulse	1	t		38.0	2.5	/experiments/AOT/AOT_stimuli/rescaled_final/1559_fw.mp4	0.0	191.87990188598633	
40	172.60597681999207	pulse	1	t		38.0	2.5	/experiments/AOT/AOT_stimuli/rescaled_final/1559_fw.mp4	0.0	193.47845888137817	
40	172.72405886650085	fix_post	2		12	38.0	2.5	/experiments/AOT/AOT_stimuli/rescaled_final/1559_fw.mp4	0.0	193.59654092788696	0.09997797012329102
41	172.82403683662415	fix_pre	0		120	39.0	2.5	/experiments/AOT/AOT_stimuli/rescaled_final/1478_rv.mp4	0.0	193.69651889801025	1.000096082687378
41	173.82413291931152	movie	1		245	39.0	2.5	/experiments/AOT/AOT_stimuli/rescaled_final/1478_rv.mp4	0.0	194.69661498069763	2.4998741149902344
41	174.20700192451477	pulse	1	t		39.0	2.5	/experiments/AOT/AOT_stimuli/rescaled_final/1478_rv.mp4	0.0	195.07948398590088	
41	175.80753898620605	pulse	1	t		39.0	2.5	/experiments/AOT/AOT_stimuli/rescaled_final/1478_rv.mp4	0.0	196.68002104759216	
41	176.32400703430176	fix_post	2		12	39.0	2.5	/experiments/AOT/AOT_stimuli/rescaled_final/1478_rv.mp4	0.0	197.19648909568787	0.10002684593200684
42	176.42403388023376	fix_pre	0		119	40.0	2.5	blank	1.0	197.29651594161987	0.9916160106658936
42	177.40750193595886	pulse	0	t		40.0	2.5	blank	1.0	198.27998399734497	
42	177.41564989089966	movie	1		301	40.0	2.5	blank	1.0	198.28813195228577	2.5083060264587402
42	179.00748085975647	pulse	1	t		40.0	2.5	blank	1.0	199.87996292114258	
42	179.9239559173584	fix_post	2		12	40.0	2.5	blank	1.0	200.7964379787445	0.10007905960083008
43	180.02403497695923	fix_pre	0		120	41.0	2.5	/experiments/AOT/AOT_stimuli/rescaled_final/0726_fw.mp4	0.0	200.89651703834534	0.9999780654907227
43	180.60757684707642	pulse	0	t		41.0	2.5	/experiments/AOT/AOT_stimuli/rescaled_final/0726_fw.mp4	0.0	201.48005890846252	
43	181.02401304244995	movie	1		246	41.0	2.5	/experiments/AOT/AOT_stimuli/rescaled_final/0726_fw.mp4	0.0	201.89649510383606	2.499973773956299
43	182.2074999809265	pulse	1	t		41.0	2.5	/experiments/AOT/AOT_stimuli/rescaled_final/0726_fw.mp4	0.0	203.07998204231262	
43	183.52398681640625	fix_post	2		12	41.0	2.5	/experiments/AOT/AOT_stimuli/rescaled_final/0726_fw.mp4	0.0	204.39646887779236	0.09994912147521973
44	183.62393593788147	fix_pre	0		120	42.0	2.5	/experiments/AOT/AOT_stimuli/rescaled_final/1603_fw.mp4	0.0	204.49641799926758	1.0000739097595215
44	183.8074128627777	pulse	0	t		42.0	2.5	/experiments/AOT/AOT_stimuli/rescaled_final/1603_fw.mp4	0.0	204.67989492416382	
44	184.624009847641	movie	1		243	42.0	2.5	/experiments/AOT/AOT_stimuli/rescaled_final/1603_fw.mp4	0.0	205.4964919090271	2.499943971633911
44	185.40751194953918	pulse	1	t		42.0	2.5	/experiments/AOT/AOT_stimuli/rescaled_final/1603_fw.mp4	0.0	206.2799940109253	
44	187.0056869983673	pulse	1	t		42.0	2.5	/experiments/AOT/AOT_stimuli/rescaled_final/1603_fw.mp4	0.0	207.87816905975342	
44	187.1239538192749	fix_post	2		12	42.0	2.5	/experiments/AOT/AOT_stimuli/rescaled_final/1603_fw.mp4	0.0	207.996435880661	0.1000051498413086
45	187.2239589691162	fix_pre	0		120	43.0	2.5	/experiments/AOT/AOT_stimuli/rescaled_final/0480_rv.mp4	0.0	208.09644103050232	0.9999899864196777
45	188.2239489555359	movie	1		245	43.0	2.5	/experiments/AOT/AOT_stimuli/rescaled_final/0480_rv.mp4	0.0	209.096431016922	2.4999899864196777
45	188.6070749759674	pulse	1	t		43.0	2.5	/experiments/AOT/AOT_stimuli/rescaled_final/0480_rv.mp4	0.0	209.47955703735352	
45	190.20745301246643	pulse	1	t		43.0	2.5	/experiments/AOT/AOT_stimuli/rescaled_final/0480_rv.mp4	0.0	211.07993507385254	
45	190.72393894195557	fix_post	2		12	43.0	2.5	/experiments/AOT/AOT_stimuli/rescaled_final/0480_rv.mp4	0.0	211.59642100334167	0.10006093978881836
46	190.82399988174438	fix_pre	0		119	44.0	2.5	/experiments/AOT/AOT_stimuli/rescaled_final/0405_fw.mp4	0.0	211.6964819431305	0.9915790557861328
46	191.80747294425964	pulse	0	t		44.0	2.5	/experiments/AOT/AOT_stimuli/rescaled_final/0405_fw.mp4	0.0	212.67995500564575	
46	191.81557893753052	movie	1		244	44.0	2.5	/experiments/AOT/AOT_stimuli/rescaled_final/0405_fw.mp4	0.0	212.68806099891663	2.5083839893341064
46	193.40737104415894	pulse	1	t		44.0	2.5	/experiments/AOT/AOT_stimuli/rescaled_final/0405_fw.mp4	0.0	214.27985310554504	
46	194.32396292686462	fix_post	2		12	44.0	2.5	/experiments/AOT/AOT_stimuli/rescaled_final/0405_fw.mp4	0.0	215.19644498825073	0.09997010231018066
47	194.4239330291748	fix_pre	0		120	45.0	2.5	/experiments/AOT/AOT_stimuli/rescaled_final/0500_rv.mp4	0.0	215.2964150905609	0.9999690055847168
47	195.007483959198	pulse	0	t		45.0	2.5	/experiments/AOT/AOT_stimuli/rescaled_final/0500_rv.mp4	0.0	215.8799660205841	
47	195.42390203475952	movie	1		245	45.0	2.5	/experiments/AOT/AOT_stimuli/rescaled_final/0500_rv.mp4	0.0	216.29638409614563	2.500037908554077
47	196.60743188858032	pulse	1	t		45.0	2.5	/experiments/AOT/AOT_stimuli/rescaled_final/0500_rv.mp4	0.0	217.47991394996643	
47	197.9239399433136	fix_post	2		12	45.0	2.5	/experiments/AOT/AOT_stimuli/rescaled_final/0500_rv.mp4	0.0	218.7964220046997	0.1001279354095459
48	198.02406787872314	fix_pre	0		120	46.0	2.5	/experiments/AOT/AOT_stimuli/rescaled_final/0961_rv.mp4	0.0	218.89654994010925	0.9999010562896729
48	198.20745491981506	pulse	0	t		46.0	2.5	/experiments/AOT/AOT_stimuli/rescaled_final/0961_rv.mp4	0.0	219.07993698120117	
48	199.02396893501282	movie	1		243	46.0	2.5	/experiments/AOT/AOT_stimuli/rescaled_final/0961_rv.mp4	0.0	219.89645099639893	2.5
48	199.80748200416565	pulse	1	t		46.0	2.5	/experiments/AOT/AOT_stimuli/rescaled_final/0961_rv.mp4	0.0	220.67996406555176	
48	201.40577101707458	pulse	1	t		46.0	2.5	/experiments/AOT/AOT_stimuli/rescaled_final/0961_rv.mp4	0.0	222.2782530784607	
48	201.52396893501282	fix_post	2		12	46.0	2.5	/experiments/AOT/AOT_stimuli/rescaled_final/0961_rv.mp4	0.0	222.39645099639893	0.09996795654296875
49	201.6239368915558	fix_pre	0		120	47.0	2.5	blank	1.0	222.4964189529419	0.9999549388885498
49	202.62389183044434	movie	1		300	47.0	2.5	blank	1.0	223.49637389183044	2.5000641345977783
49	203.00740694999695	pulse	1	t		47.0	2.5	blank	1.0	223.87988901138306	
49	204.6074948310852	pulse	1	t		47.0	2.5	blank	1.0	225.4799768924713	
49	205.12395596504211	fix_post	2		12	47.0	2.5	blank	1.0	225.99643802642822	0.10001087188720703
50	205.22396683692932	fix_pre	0		119	48.0	2.5	/experiments/AOT/AOT_stimuli/rescaled_final/1161_fw.mp4	0.0	226.09644889831543	0.9915812015533447
50	206.20741200447083	pulse	0	t		48.0	2.5	/experiments/AOT/AOT_stimuli/rescaled_final/1161_fw.mp4	0.0	227.07989406585693	
50	206.21554803848267	movie	1		244	48.0	2.5	/experiments/AOT/AOT_stimuli/rescaled_final/1161_fw.mp4	0.0	227.08803009986877	2.508408784866333
50	207.80736684799194	pulse	1	t		48.0	2.5	/experiments/AOT/AOT_stimuli/rescaled_final/1161_fw.mp4	0.0	228.67984890937805	
50	208.723956823349	fix_post	2		12	48.0	2.5	/experiments/AOT/AOT_stimuli/rescaled_final/1161_fw.mp4	0.0	229.5964388847351	0.09995508193969727
51	208.8239119052887	fix_pre	0		120	49.0	2.5	/experiments/AOT/AOT_stimuli/rescaled_final/1534_fw.mp4	0.0	229.6963939666748	0.9999821186065674
51	209.40739583969116	pulse	0	t		49.0	2.5	/experiments/AOT/AOT_stimuli/rescaled_final/1534_fw.mp4	0.0	230.27987790107727	
51	209.82389402389526	movie	1		244	49.0	2.5	/experiments/AOT/AOT_stimuli/rescaled_final/1534_fw.mp4	0.0	230.69637608528137	2.4999899864196777
51	211.00741600990295	pulse	1	t		49.0	2.5	/experiments/AOT/AOT_stimuli/rescaled_final/1534_fw.mp4	0.0	231.87989807128906	
51	212.32388401031494	fix_post	2		12	49.0	2.5	/experiments/AOT/AOT_stimuli/rescaled_final/1534_fw.mp4	0.0	233.19636607170105	0.09998393058776855
52	212.4238679409027	fix_pre	0		120	50.0	2.5	/experiments/AOT/AOT_stimuli/rescaled_final/1341_fw.mp4	0.0	233.29635000228882	1.0000360012054443
52	212.60737299919128	pulse	0	t		50.0	2.5	/experiments/AOT/AOT_stimuli/rescaled_final/1341_fw.mp4	0.0	233.4798550605774	
52	213.42390394210815	movie	1		244	50.0	2.5	/experiments/AOT/AOT_stimuli/rescaled_final/1341_fw.mp4	0.0	234.29638600349426	2.4999310970306396
52	214.2073519229889	pulse	1	t		50.0	2.5	/experiments/AOT/AOT_stimuli/rescaled_final/1341_fw.mp4	0.0	235.079833984375	
52	215.80590891838074	pulse	1	t		50.0	2.5	/experiments/AOT/AOT_stimuli/rescaled_final/1341_fw.mp4	0.0	236.67839097976685	
52	215.9238350391388	fix_post	2		12	50.0	2.5	/experiments/AOT/AOT_stimuli/rescaled_final/1341_fw.mp4	0.0	236.7963171005249	0.10004281997680664
53	216.0238778591156	fix_pre	0		120	51.0	2.5	/experiments/AOT/AOT_stimuli/rescaled_final/2170_fw.mp4	0.0	236.8963599205017	0.9999849796295166
53	217.02386283874512	movie	1		246	51.0	2.5	/experiments/AOT/AOT_stimuli/rescaled_final/2170_fw.mp4	0.0	237.89634490013123	2.4999570846557617
53	217.40704798698425	pulse	1	t		51.0	2.5	/experiments/AOT/AOT_stimuli/rescaled_final/2170_fw.mp4	0.0	238.27953004837036	
53	219.00730800628662	pulse	1	t		51.0	2.5	/experiments/AOT/AOT_stimuli/rescaled_final/2170_fw.mp4	0.0	239.87979006767273	
53	219.52381992340088	fix_post	2		12	51.0	2.5	/experiments/AOT/AOT_stimuli/rescaled_final/2170_fw.mp4	0.0	240.396301984787	0.10005903244018555
54	219.62387895584106	fix_pre	0		119	52.0	2.5	/experiments/AOT/AOT_stimuli/rescaled_final/1603_rv.mp4	0.0	240.49636101722717	0.9915549755096436
54	220.6072919368744	pulse	0	t		52.0	2.5	/experiments/AOT/AOT_stimuli/rescaled_final/1603_rv.mp4	0.0	241.4797739982605	
54	220.6154339313507	movie	1		244	52.0	2.5	/experiments/AOT/AOT_stimuli/rescaled_final/1603_rv.mp4	0.0	241.48791599273682	2.5084030628204346
54	222.2072148323059	pulse	1	t		52.0	2.5	/experiments/AOT/AOT_stimuli/rescaled_final/1603_rv.mp4	0.0	243.07969689369202	
54	223.12383699417114	fix_post	2		12	52.0	2.5	/experiments/AOT/AOT_stimuli/rescaled_final/1603_rv.mp4	0.0	243.99631905555725	0.0999598503112793
55	223.22379684448242	fix_pre	0		120	53.0	2.5	/experiments/AOT/AOT_stimuli/rescaled_final/0550_rv.mp4	0.0	244.09627890586853	1.0000159740447998
55	223.80686402320862	pulse	0	t		53.0	2.5	/experiments/AOT/AOT_stimuli/rescaled_final/0550_rv.mp4	0.0	244.67934608459473	
55	224.22381281852722	movie	1		247	53.0	2.5	/experiments/AOT/AOT_stimuli/rescaled_final/0550_rv.mp4	0.0	245.09629487991333	2.49985408782959
55	225.40702986717224	pulse	1	t		53.0	2.5	/experiments/AOT/AOT_stimuli/rescaled_final/0550_rv.mp4	0.0	246.27951192855835	
55	226.7236669063568	fix_post	2		12	53.0	2.5	/experiments/AOT/AOT_stimuli/rescaled_final/0550_rv.mp4	0.0	247.59614896774292	0.10009407997131348
56	226.82376098632812	fix_pre	0		120	54.0	2.5	/experiments/AOT/AOT_stimuli/rescaled_final/0741_rv.mp4	0.0	247.69624304771423	1.0000250339508057
56	227.0073049068451	pulse	0	t		54.0	2.5	/experiments/AOT/AOT_stimuli/rescaled_final/0741_rv.mp4	0.0	247.8797869682312	
56	227.82378602027893	movie	1		244	54.0	2.5	/experiments/AOT/AOT_stimuli/rescaled_final/0741_rv.mp4	0.0	248.69626808166504	2.500005006790161
56	228.60719299316406	pulse	1	t		54.0	2.5	/experiments/AOT/AOT_stimuli/rescaled_final/0741_rv.mp4	0.0	249.47967505455017	
56	230.20611786842346	pulse	1	t		54.0	2.5	/experiments/AOT/AOT_stimuli/rescaled_final/0741_rv.mp4	0.0	251.07859992980957	
56	230.3237910270691	fix_post	2		12	54.0	2.5	/experiments/AOT/AOT_stimuli/rescaled_final/0741_rv.mp4	0.0	251.1962730884552	0.10003995895385742
57	230.42383098602295	fix_pre	0		120	55.0	2.5	/experiments/AOT/AOT_stimuli/rescaled_final/0779_rv.mp4	0.0	251.29631304740906	0.999992847442627
57	231.42382383346558	movie	1		245	55.0	2.5	/experiments/AOT/AOT_stimuli/rescaled_final/0779_rv.mp4	0.0	252.29630589485168	2.4999501705169678
57	231.80676198005676	pulse	1	t		55.0	2.5	/experiments/AOT/AOT_stimuli/rescaled_final/0779_rv.mp4	0.0	252.67924404144287	
57	233.40712881088257	pulse	1	t		55.0	2.5	/experiments/AOT/AOT_stimuli/rescaled_final/0779_rv.mp4	0.0	254.27961087226868	
57	233.92377400398254	fix_post	2		12	55.0	2.5	/experiments/AOT/AOT_stimuli/rescaled_final/0779_rv.mp4	0.0	254.79625606536865	0.10002994537353516
58	234.02380394935608	fix_pre	0		119	56.0	2.5	blank	1.0	254.8962860107422	0.9915690422058105
58	235.00725603103638	pulse	0	t		56.0	2.5	blank	1.0	255.87973809242249	
58	235.0153729915619	movie	1		301	56.0	2.5	blank	1.0	255.887855052948	2.5083489418029785
58	236.60724091529846	pulse	1	t		56.0	2.5	blank	1.0	257.47972297668457	
58	237.52372193336487	fix_post	2		12	56.0	2.5	blank	1.0	258.396203994751	0.09960794448852539
59	237.6233298778534	fix_pre	0		120	57.0	2.5	/experiments/AOT/AOT_stimuli/rescaled_final/1413_fw.mp4	0.0	258.4958119392395	1.0004000663757324
59	238.20721101760864	pulse	0	t		57.0	2.5	/experiments/AOT/AOT_stimuli/rescaled_final/1413_fw.mp4	0.0	259.07969307899475	
59	238.62372994422913	movie	1		247	57.0	2.5	/experiments/AOT/AOT_stimuli/rescaled_final/1413_fw.mp4	0.0	259.49621200561523	2.499945878982544
59	239.8072509765625	pulse	1	t		57.0	2.5	/experiments/AOT/AOT_stimuli/rescaled_final/1413_fw.mp4	0.0	260.6797330379486	
59	241.12367582321167	fix_post	2		12	57.0	2.5	/experiments/AOT/AOT_stimuli/rescaled_final/1413_fw.mp4	0.0	261.9961578845978	0.09998917579650879
60	241.22366499900818	fix_pre	0		120	58.0	2.5	/experiments/AOT/AOT_stimuli/rescaled_final/0268_fw.mp4	0.0	262.0961470603943	1.0000689029693604
60	241.40713095664978	pulse	0	t		58.0	2.5	/experiments/AOT/AOT_stimuli/rescaled_final/0268_fw.mp4	0.0	262.2796130180359	
60	242.22373390197754	movie	1		245	58.0	2.5	/experiments/AOT/AOT_stimuli/rescaled_final/0268_fw.mp4	0.0	263.09621596336365	2.499985933303833
60	243.0072009563446	pulse	1	t		58.0	2.5	/experiments/AOT/AOT_stimuli/rescaled_final/0268_fw.mp4	0.0	263.8796830177307	
60	244.60566401481628	pulse	1	t		58.0	2.5	/experiments/AOT/AOT_stimuli/rescaled_final/0268_fw.mp4	0.0	265.4781460762024	
60	244.72371983528137	fix_post	2		12	58.0	2.5	/experiments/AOT/AOT_stimuli/rescaled_final/0268_fw.mp4	0.0	265.5962018966675	0.09998607635498047
61	244.82370591163635	fix_pre	0		120	59.0	2.5	/experiments/AOT/AOT_stimuli/rescaled_final/0779_fw.mp4	0.0	265.69618797302246	1.0000600814819336
61	245.8237659931183	movie	1		245	59.0	2.5	/experiments/AOT/AOT_stimuli/rescaled_final/0779_fw.mp4	0.0	266.6962480545044	2.499889850616455
61	246.20805287361145	pulse	1	t		59.0	2.5	/experiments/AOT/AOT_stimuli/rescaled_final/0779_fw.mp4	0.0	267.08053493499756	
61	247.80716800689697	pulse	1	t		59.0	2.5	/experiments/AOT/AOT_stimuli/rescaled_final/0779_fw.mp4	0.0	268.6796500682831	
61	248.32365584373474	fix_post	2		12	59.0	2.5	/experiments/AOT/AOT_stimuli/rescaled_final/0779_fw.mp4	0.0	269.19613790512085	0.09998202323913574
62	248.42363786697388	fix_pre	0		119	60.0	2.5	/experiments/AOT/AOT_stimuli/rescaled_final/1114_rv.mp4	0.0	269.29611992836	0.9916691780090332
62	249.40716695785522	pulse	0	t		60.0	2.5	/experiments/AOT/AOT_stimuli/rescaled_final/1114_rv.mp4	0.0	270.27964901924133	
62	249.4153070449829	movie	1		244	60.0	2.5	/experiments/AOT/AOT_stimuli/rescaled_final/1114_rv.mp4	0.0	270.287789106369	2.508417844772339
62	251.0080599784851	pulse	1	t		60.0	2.5	/experiments/AOT/AOT_stimuli/rescaled_final/1114_rv.mp4	0.0	271.8805420398712	
62	251.92372488975525	fix_post	2		12	60.0	2.5	/experiments/AOT/AOT_stimuli/rescaled_final/1114_rv.mp4	0.0	272.79620695114136	0.0999610424041748
63	252.02368593215942	fix_pre	0		120	61.0	2.5	/experiments/AOT/AOT_stimuli/rescaled_final/0473_rv.mp4	0.0	272.89616799354553	0.9999868869781494
63	252.60718393325806	pulse	0	t		61.0	2.5	/experiments/AOT/AOT_stimuli/rescaled_final/0473_rv.mp4	0.0	273.47966599464417	
63	253.02367281913757	movie	1		244	61.0	2.5	/experiments/AOT/AOT_stimuli/rescaled_final/0473_rv.mp4	0.0	273.8961548805237	2.4999961853027344
63	254.2072069644928	pulse	1	t		61.0	2.5	/experiments/AOT/AOT_stimuli/rescaled_final/0473_rv.mp4	0.0	275.0796890258789	
63	255.5236690044403	fix_post	2		12	61.0	2.5	/experiments/AOT/AOT_stimuli/rescaled_final/0473_rv.mp4	0.0	276.3961510658264	0.10003781318664551
64	255.62370681762695	fix_pre	0		120	62.0	2.5	/experiments/AOT/AOT_stimuli/rescaled_final/1361_rv.mp4	0.0	276.49618887901306	0.9995450973510742
64	255.8071608543396	pulse	0	t		62.0	2.5	/experiments/AOT/AOT_stimuli/rescaled_final/1361_rv.mp4	0.0	276.6796429157257	
64	256.623251914978	movie	1		244	62.0	2.5	/experiments/AOT/AOT_stimuli/rescaled_final/1361_rv.mp4	0.0	277.49573397636414	2.5003550052642822
64	257.4071328639984	pulse	1	t		62.0	2.5	/experiments/AOT/AOT_stimuli/rescaled_final/1361_rv.mp4	0.0	278.2796149253845	
64	259.0056269168854	pulse	1	t		62.0	2.5	/experiments/AOT/AOT_stimuli/rescaled_final/1361_rv.mp4	0.0	279.8781089782715	
64	259.1236069202423	fix_post	2		12	62.0	2.5	/experiments/AOT/AOT_stimuli/rescaled_final/1361_rv.mp4	0.0	279.9960889816284	0.0999760627746582
65	259.22358298301697	fix_pre	0		120	63.0	2.5	blank	1.0	280.0960650444031	1.00010085105896
65	260.2236838340759	movie	1		300	63.0	2.5	blank	1.0	281.09616589546204	2.4999001026153564
65	260.6071689128876	pulse	1	t		63.0	2.5	blank	1.0	281.4796509742737	
65	262.20712900161743	pulse	1	t		63.0	2.5	blank	1.0	283.07961106300354	
65	262.7235839366913	fix_post	2		12	63.0	2.5	blank	1.0	283.5960659980774	0.09999489784240723
66	262.8235788345337	fix_pre	0		119	64.0	2.5	/experiments/AOT/AOT_stimuli/rescaled_final/0395_rv.mp4	0.0	283.6960608959198	0.9916541576385498
66	263.80702900886536	pulse	0	t		64.0	2.5	/experiments/AOT/AOT_stimuli/rescaled_final/0395_rv.mp4	0.0	284.67951107025146	
66	263.81523299217224	movie	1		248	64.0	2.5	/experiments/AOT/AOT_stimuli/rescaled_final/0395_rv.mp4	0.0	284.68771505355835	2.508401870727539
66	265.4066069126129	pulse	1	t		64.0	2.5	/experiments/AOT/AOT_stimuli/rescaled_final/0395_rv.mp4	0.0	286.279088973999	
66	266.3236348628998	fix_post	2		12	64.0	2.5	/experiments/AOT/AOT_stimuli/rescaled_final/0395_rv.mp4	0.0	287.1961169242859	0.09993100166320801
67	266.423565864563	fix_pre	0		120	65.0	2.5	/experiments/AOT/AOT_stimuli/rescaled_final/0114_rv.mp4	0.0	287.2960479259491	1.0000391006469727
67	267.0071189403534	pulse	0	t		65.0	2.5	/experiments/AOT/AOT_stimuli/rescaled_final/0114_rv.mp4	0.0	287.8796010017395	
67	267.42360496520996	movie	1		247	65.0	2.5	/experiments/AOT/AOT_stimuli/rescaled_final/0114_rv.mp4	0.0	288.29608702659607	2.4999709129333496
67	268.60711097717285	pulse	1	t		65.0	2.5	/experiments/AOT/AOT_stimuli/rescaled_final/0114_rv.mp4	0.0	289.47959303855896	
67	269.9235758781433	fix_post	2		12	65.0	2.5	/experiments/AOT/AOT_stimuli/rescaled_final/0114_rv.mp4	0.0	290.7960579395294	0.09995603561401367
68	270.0235319137573	fix_pre	0		120	66.0	2.5	/experiments/AOT/AOT_stimuli/rescaled_final/1771_rv.mp4	0.0	290.89601397514343	1.0002350807189941
68	270.20707297325134	pulse	0	t		66.0	2.5	/experiments/AOT/AOT_stimuli/rescaled_final/1771_rv.mp4	0.0	291.07955503463745	
68	271.0237669944763	movie	1		244	66.0	2.5	/experiments/AOT/AOT_stimuli/rescaled_final/1771_rv.mp4	0.0	291.8962490558624	2.4997589588165283
68	271.8071119785309	pulse	1	t		66.0	2.5	/experiments/AOT/AOT_stimuli/rescaled_final/1771_rv.mp4	0.0	292.679594039917	
68	273.4055700302124	pulse	1	t		66.0	2.5	/experiments/AOT/AOT_stimuli/rescaled_final/1771_rv.mp4	0.0	294.2780520915985	
68	273.52352595329285	fix_post	2		12	66.0	2.5	/experiments/AOT/AOT_stimuli/rescaled_final/1771_rv.mp4	0.0	294.39600801467896	0.10001301765441895
69	273.62353897094727	fix_pre	0		120	67.0	2.5	/experiments/AOT/AOT_stimuli/rescaled_final/2165_rv.mp4	0.0	294.4960210323334	1.0000319480895996
69	274.62357091903687	movie	1		243	67.0	2.5	/experiments/AOT/AOT_stimuli/rescaled_final/2165_rv.mp4	0.0	295.496052980423	2.5000269412994385
69	275.006796836853	pulse	1	t		67.0	2.5	/experiments/AOT/AOT_stimuli/rescaled_final/2165_rv.mp4	0.0	295.87927889823914	
69	276.6072578430176	pulse	1	t		67.0	2.5	/experiments/AOT/AOT_stimuli/rescaled_final/2165_rv.mp4	0.0	297.4797399044037	
69	277.1235978603363	fix_post	2		12	67.0	2.5	/experiments/AOT/AOT_stimuli/rescaled_final/2165_rv.mp4	0.0	297.9960799217224	0.0999300479888916
70	277.2235279083252	fix_pre	0		119	68.0	2.5	/experiments/AOT/AOT_stimuli/rescaled_final/2003_fw.mp4	0.0	298.0960099697113	0.9916179180145264
70	278.2070689201355	pulse	0	t		68.0	2.5	/experiments/AOT/AOT_stimuli/rescaled_final/2003_fw.mp4	0.0	299.0795509815216	
70	278.2151458263397	movie	1		246	68.0	2.5	/experiments/AOT/AOT_stimuli/rescaled_final/2003_fw.mp4	0.0	299.08762788772583	2.5080389976501465
70	279.80614590644836	pulse	1	t		68.0	2.5	/experiments/AOT/AOT_stimuli/rescaled_final/2003_fw.mp4	0.0	300.6786279678345	
70	280.72318482398987	fix_post	2		12	68.0	2.5	/experiments/AOT/AOT_stimuli/rescaled_final/2003_fw.mp4	0.0	301.595666885376	0.0999901294708252
71	280.8231749534607	fix_pre	0		120	69.0	2.5	blank	1.0	301.6956570148468	1.0001640319824219
71	281.4067180156708	pulse	0	t		69.0	2.5	blank	1.0	302.2792000770569	
71	281.8233389854431	movie	1		300	69.0	2.5	blank	1.0	302.6958210468292	2.5001790523529053
71	283.0071268081665	pulse	1	t		69.0	2.5	blank	1.0	303.8796088695526	
71	284.323518037796	fix_post	2		12	69.0	2.5	blank	1.0	305.19600009918213	0.1000058650970459
72	284.42352390289307	fix_pre	0		120	70.0	2.5	/experiments/AOT/AOT_stimuli/rescaled_final/2178_rv.mp4	0.0	305.2960059642792	1.0000450611114502
72	284.6069989204407	pulse	0	t		70.0	2.5	/experiments/AOT/AOT_stimuli/rescaled_final/2178_rv.mp4	0.0	305.4794809818268	
72	285.4235689640045	movie	1		244	70.0	2.5	/experiments/AOT/AOT_stimuli/rescaled_final/2178_rv.mp4	0.0	306.2960510253906	2.4998600482940674
72	286.20696902275085	pulse	1	t		70.0	2.5	/experiments/AOT/AOT_stimuli/rescaled_final/2178_rv.mp4	0.0	307.07945108413696	
72	287.80558681488037	pulse	1	t		70.0	2.5	/experiments/AOT/AOT_stimuli/rescaled_final/2178_rv.mp4	0.0	308.6780688762665	
72	287.9234290122986	fix_post	2		12	70.0	2.5	/experiments/AOT/AOT_stimuli/rescaled_final/2178_rv.mp4	0.0	308.7959110736847	0.10002303123474121
73	288.0234520435333	fix_pre	0		120	71.0	2.5	/experiments/AOT/AOT_stimuli/rescaled_final/1040_fw.mp4	0.0	308.89593410491943	1.0000109672546387
73	289.02346301078796	movie	1		245	71.0	2.5	/experiments/AOT/AOT_stimuli/rescaled_final/1040_fw.mp4	0.0	309.8959450721741	2.5001368522644043
73	289.4068229198456	pulse	1	t		71.0	2.5	/experiments/AOT/AOT_stimuli/rescaled_final/1040_fw.mp4	0.0	310.2793049812317	
73	291.0069749355316	pulse	1	t		71.0	2.5	/experiments/AOT/AOT_stimuli/rescaled_final/1040_fw.mp4	0.0	311.8794569969177	
73	291.52359986305237	fix_post	2		12	71.0	2.5	/experiments/AOT/AOT_stimuli/rescaled_final/1040_fw.mp4	0.0	312.3960819244385	0.09994316101074219
74	291.6235430240631	fix_pre	0		119	72.0	2.5	/experiments/AOT/AOT_stimuli/rescaled_final/1960_rv.mp4	0.0	312.4960250854492	0.9915988445281982
74	292.6068699359894	pulse	0	t		72.0	2.5	/experiments/AOT/AOT_stimuli/rescaled_final/1960_rv.mp4	0.0	313.4793519973755	
74	292.6151418685913	movie	1		245	72.0	2.5	/experiments/AOT/AOT_stimuli/rescaled_final/1960_rv.mp4	0.0	313.4876239299774	2.5083069801330566
74	294.206337928772	pulse	1	t		72.0	2.5	/experiments/AOT/AOT_stimuli/rescaled_final/1960_rv.mp4	0.0	315.0788199901581	
74	295.12344884872437	fix_post	2		12	72.0	2.5	/experiments/AOT/AOT_stimuli/rescaled_final/1960_rv.mp4	0.0	315.9959309101105	0.09958314895629883
75	295.22303199768066	fix_pre	0		120	73.0	2.5	/experiments/AOT/AOT_stimuli/rescaled_final/1908_fw.mp4	0.0	316.0955140590668	1.0004658699035645
75	295.80696988105774	pulse	0	t		73.0	2.5	/experiments/AOT/AOT_stimuli/rescaled_final/1908_fw.mp4	0.0	316.67945194244385	
75	296.22349786758423	movie	1		244	73.0	2.5	/experiments/AOT/AOT_stimuli/rescaled_final/1908_fw.mp4	0.0	317.09597992897034	2.5000109672546387
75	297.4070289134979	pulse	1	t		73.0	2.5	/experiments/AOT/AOT_stimuli/rescaled_final/1908_fw.mp4	0.0	318.27951097488403	
75	298.72350883483887	fix_post	2		12	73.0	2.5	/experiments/AOT/AOT_stimuli/rescaled_final/1908_fw.mp4	0.0	319.595990896225	0.09991312026977539
76	298.82342195510864	fix_pre	0		120	74.0	2.5	/experiments/AOT/AOT_stimuli/rescaled_final/0899_fw.mp4	0.0	319.69590401649475	1.0000379085540771
76	299.00691986083984	pulse	0	t		74.0	2.5	/experiments/AOT/AOT_stimuli/rescaled_final/0899_fw.mp4	0.0	319.87940192222595	
76	299.8234598636627	movie	1		243	74.0	2.5	/experiments/AOT/AOT_stimuli/rescaled_final/0899_fw.mp4	0.0	320.6959419250488	2.4998950958251953
76	300.6068458557129	pulse	1	t		74.0	2.5	/experiments/AOT/AOT_stimuli/rescaled_final/0899_fw.mp4	0.0	321.479327917099	
76	302.2051589488983	pulse	1	t		74.0	2.5	/experiments/AOT/AOT_stimuli/rescaled_final/0899_fw.mp4	0.0	323.0776410102844	
76	302.3233549594879	fix_post	2		12	74.0	2.5	/experiments/AOT/AOT_stimuli/rescaled_final/0899_fw.mp4	0.0	323.195837020874	0.10006904602050781
77	302.4234240055084	fix_pre	0		120	75.0	2.5	/experiments/AOT/AOT_stimuli/rescaled_final/1901_rv.mp4	0.0	323.29590606689453	1.0000009536743164
77	303.42342495918274	movie	1		245	75.0	2.5	/experiments/AOT/AOT_stimuli/rescaled_final/1901_rv.mp4	0.0	324.29590702056885	2.5000178813934326
77	303.8066098690033	pulse	1	t		75.0	2.5	/experiments/AOT/AOT_stimuli/rescaled_final/1901_rv.mp4	0.0	324.6790919303894	
77	305.4069080352783	pulse	1	t		75.0	2.5	/experiments/AOT/AOT_stimuli/rescaled_final/1901_rv.mp4	0.0	326.27939009666443	
77	305.9234428405762	fix_post	2		12	75.0	2.5	/experiments/AOT/AOT_stimuli/rescaled_final/1901_rv.mp4	0.0	326.7959249019623	0.09997200965881348
78	306.023414850235	fix_pre	0		119	76.0	2.5	blank	1.0	326.8958969116211	0.9916431903839111
78	307.00685381889343	pulse	0	t		76.0	2.5	blank	1.0	327.87933588027954	
78	307.0150580406189	movie	1		301	76.0	2.5	blank	1.0	327.887540102005	2.508316993713379
78	308.60681080818176	pulse	1	t		76.0	2.5	blank	1.0	329.47929286956787	
78	309.5233750343323	fix_post	2		12	76.0	2.5	blank	1.0	330.3958570957184	0.09999990463256836
79	309.62337493896484	fix_pre	0		120	77.0	2.5	/experiments/AOT/AOT_stimuli/rescaled_final/1450_rv.mp4	0.0	330.49585700035095	0.9999430179595947
79	310.20687198638916	pulse	0	t		77.0	2.5	/experiments/AOT/AOT_stimuli/rescaled_final/1450_rv.mp4	0.0	331.07935404777527	
79	310.62331795692444	movie	1		245	77.0	2.5	/experiments/AOT/AOT_stimuli/rescaled_final/1450_rv.mp4	0.0	331.49580001831055	2.500063896179199
79	311.8069598674774	pulse	1	t		77.0	2.5	/experiments/AOT/AOT_stimuli/rescaled_final/1450_rv.mp4	0.0	332.6794419288635	
79	313.12338185310364	fix_post	2		12	77.0	2.5	/experiments/AOT/AOT_stimuli/rescaled_final/1450_rv.mp4	0.0	333.99586391448975	0.10003900527954102
80	313.2234208583832	fix_pre	0		120	78.0	2.5	/experiments/AOT/AOT_stimuli/rescaled_final/0204_fw.mp4	0.0	334.0959029197693	0.999953031539917
80	313.4069628715515	pulse	0	t		78.0	2.5	/experiments/AOT/AOT_stimuli/rescaled_final/0204_fw.mp4	0.0	334.2794449329376	
80	314.2233738899231	movie	1		244	78.0	2.5	/experiments/AOT/AOT_stimuli/rescaled_final/0204_fw.mp4	0.0	335.0958559513092	2.4999749660491943
80	315.00689601898193	pulse	1	t		78.0	2.5	/experiments/AOT/AOT_stimuli/rescaled_final/0204_fw.mp4	0.0	335.87937808036804	
80	316.6054048538208	pulse	1	t		78.0	2.5	/experiments/AOT/AOT_stimuli/rescaled_final/0204_fw.mp4	0.0	337.4778869152069	
80	316.7233488559723	fix_post	2		12	78.0	2.5	/experiments/AOT/AOT_stimuli/rescaled_final/0204_fw.mp4	0.0	337.5958309173584	0.10001301765441895
81	316.8233618736267	fix_pre	0		120	79.0	2.5	/experiments/AOT/AOT_stimuli/rescaled_final/0617_fw.mp4	0.0	337.6958439350128	0.9999921321868896
81	317.8233540058136	movie	1		244	79.0	2.5	/experiments/AOT/AOT_stimuli/rescaled_final/0617_fw.mp4	0.0	338.6958360671997	2.4999678134918213
81	318.2064018249512	pulse	1	t		79.0	2.5	/experiments/AOT/AOT_stimuli/rescaled_final/0617_fw.mp4	0.0	339.0788838863373	
81	319.80680894851685	pulse	1	t		79.0	2.5	/experiments/AOT/AOT_stimuli/rescaled_final/0617_fw.mp4	0.0	340.67929100990295	
81	320.3233218193054	fix_post	2		12	79.0	2.5	/experiments/AOT/AOT_stimuli/rescaled_final/0617_fw.mp4	0.0	341.1958038806915	0.10005712509155273
82	320.423378944397	fix_pre	0		119	80.0	2.5	/experiments/AOT/AOT_stimuli/rescaled_final/2023_rv.mp4	0.0	341.2958610057831	0.9915919303894043
82	321.4068658351898	pulse	0	t		80.0	2.5	/experiments/AOT/AOT_stimuli/rescaled_final/2023_rv.mp4	0.0	342.2793478965759	
82	321.4149708747864	movie	1		244	80.0	2.5	/experiments/AOT/AOT_stimuli/rescaled_final/2023_rv.mp4	0.0	342.2874529361725	2.50833797454834
82	323.00802183151245	pulse	1	t		80.0	2.5	/experiments/AOT/AOT_stimuli/rescaled_final/2023_rv.mp4	0.0	343.88050389289856	
82	323.9233088493347	fix_post	2		12	80.0	2.5	/experiments/AOT/AOT_stimuli/rescaled_final/2023_rv.mp4	0.0	344.7957909107208	0.10004496574401855
83	324.02335381507874	fix_pre	0		120	81.0	2.5	/experiments/AOT/AOT_stimuli/rescaled_final/0691_fw.mp4	0.0	344.89583587646484	0.9999330043792725
83	324.60680985450745	pulse	0	t		81.0	2.5	/experiments/AOT/AOT_stimuli/rescaled_final/0691_fw.mp4	0.0	345.47929191589355	
83	325.023286819458	movie	1		244	81.0	2.5	/experiments/AOT/AOT_stimuli/rescaled_final/0691_fw.mp4	0.0	345.8957688808441	2.5000600814819336
83	326.2069709300995	pulse	1	t		81.0	2.5	/experiments/AOT/AOT_stimuli/rescaled_final/0691_fw.mp4	0.0	347.0794529914856	
83	327.52334690093994	fix_post	2		12	81.0	2.5	/experiments/AOT/AOT_stimuli/rescaled_final/0691_fw.mp4	0.0	348.39582896232605	0.09996795654296875
84	327.6233148574829	fix_pre	0		120	82.0	2.5	blank	1.0	348.495796918869	0.9999301433563232
84	327.8068289756775	pulse	0	t		82.0	2.5	blank	1.0	348.6793110370636	
84	328.62324500083923	movie	1		300	82.0	2.5	blank	1.0	349.49572706222534	2.500095844268799
84	329.4067180156708	pulse	1	t		82.0	2.5	blank	1.0	350.2792000770569	
84	331.0067398548126	pulse	1	t		82.0	2.5	blank	1.0	351.87922191619873	
84	331.12334084510803	fix_post	2		12	82.0	2.5	blank	1.0	351.99582290649414	0.09993910789489746
85	331.22327995300293	fix_pre	0		120	83.0	2.5	/experiments/AOT/AOT_stimuli/rescaled_final/0114_rv.mp4	0.0	352.09576201438904	1.0000278949737549
85	332.2233078479767	movie	1		245	83.0	2.5	/experiments/AOT/AOT_stimuli/rescaled_final/0114_rv.mp4	0.0	353.0957899093628	2.499969005584717
85	332.6062388420105	pulse	1	t		83.0	2.5	/experiments/AOT/AOT_stimuli/rescaled_final/0114_rv.mp4	0.0	353.4787209033966	
85	334.20671486854553	pulse	1	t		83.0	2.5	/experiments/AOT/AOT_stimuli/rescaled_final/0114_rv.mp4	0.0	355.07919692993164	
85	334.7232768535614	fix_post	2		12	83.0	2.5	/experiments/AOT/AOT_stimuli/rescaled_final/0114_rv.mp4	0.0	355.5957589149475	0.10001206398010254
87	334.8232889175415	stim	0		1716					355.6957709789276	14.299887895584106
87	335.8063988685608	pulse	0	t						356.6788809299469	
87	337.4064838886261	pulse	0	t						358.2789659500122	
87	339.00675892829895	pulse	0	t						359.87924098968506	
87	340.6067328453064	pulse	0	t						361.4792149066925	
87	342.2067070007324	pulse	0	t						363.07918906211853	
87	343.8065810203552	pulse	0	t						364.67906308174133	
87	345.40669298171997	pulse	0	t						366.2791750431061	
87	347.0066668987274	pulse	0	t						367.8791489601135	
87	348.60669589042664	pulse	0	t						369.47917795181274	
