trial_nr	onset	event_type	phase	response	nr_frames	movie_index	movie_duration	movie_file	blank	onset_abs	duration
0	0.14998078346252441	stim	0		70					24.327114582061768	0.5833539962768555
0	0.7251029014587402	response	0	space						24.902236700057983	
1	0.7333347797393799	stim	0		28834					24.910468578338623	240.28121900558472
1	241.0085837841034	pulse	0	t						265.18571758270264	
1	241.0145537853241	stim	1		1717					265.19168758392334	14.30950403213501
1	242.60778784751892	pulse	1	t						266.78492164611816	
1	244.2072718143463	pulse	1	t						268.38440561294556	
1	245.80722999572754	pulse	1	t						269.9843637943268	
1	247.40725183486938	pulse	1	t						271.5843856334686	
1	249.00716495513916	pulse	1	t						273.1842987537384	
1	250.60767889022827	pulse	1	t						274.7848126888275	
1	252.2072389125824	pulse	1	t						276.38437271118164	
1	253.8072009086609	pulse	1	t						277.98433470726013	
2	255.3240578174591	fix_pre	0		11	0.0	2.5	/experiments/AOT/AOT_stimuli/rescaled_final/1226_rv.mp4	0.0	279.50119161605835	0.09169816970825195
2	255.40769481658936	pulse	0	t		0.0	2.5	/experiments/AOT/AOT_stimuli/rescaled_final/1226_rv.mp4	0.0	279.5848286151886	
2	255.41575598716736	movie	1		243	0.0	2.5	/experiments/AOT/AOT_stimuli/rescaled_final/1226_rv.mp4	0.0	279.5928897857666	2.508340835571289
2	257.0071289539337	pulse	1	t		0.0	2.5	/experiments/AOT/AOT_stimuli/rescaled_final/1226_rv.mp4	0.0	281.18426275253296	
2	257.92409682273865	fix_post	2		12	0.0	2.5	/experiments/AOT/AOT_stimuli/rescaled_final/1226_rv.mp4	0.0	282.1012306213379	0.09819817543029785
3	258.02229499816895	fix_pre	0		120	1.0	2.5	/experiments/AOT/AOT_stimuli/rescaled_final/1682_fw.mp4	0.0	282.1994287967682	1.0008277893066406
3	258.6057929992676	pulse	0	t		1.0	2.5	/experiments/AOT/AOT_stimuli/rescaled_final/1682_fw.mp4	0.0	282.7829267978668	
3	259.0231227874756	movie	1		244	1.0	2.5	/experiments/AOT/AOT_stimuli/rescaled_final/1682_fw.mp4	0.0	283.20025658607483	2.5001041889190674
3	260.2067549228668	pulse	1	t		1.0	2.5	/experiments/AOT/AOT_stimuli/rescaled_final/1682_fw.mp4	0.0	284.38388872146606	
3	261.52322697639465	fix_post	2		12	1.0	2.5	/experiments/AOT/AOT_stimuli/rescaled_final/1682_fw.mp4	0.0	285.7003607749939	0.10010981559753418
4	261.6233367919922	fix_pre	0		120	2.0	2.5	/experiments/AOT/AOT_stimuli/rescaled_final/1327_fw.mp4	0.0	285.80047059059143	0.9999401569366455
4	261.80685091018677	pulse	0	t		2.0	2.5	/experiments/AOT/AOT_stimuli/rescaled_final/1327_fw.mp4	0.0	285.983984708786	
4	262.62327694892883	movie	1		243	2.0	2.5	/experiments/AOT/AOT_stimuli/rescaled_final/1327_fw.mp4	0.0	286.8004107475281	2.499863862991333
4	263.40658593177795	pulse	1	t		2.0	2.5	/experiments/AOT/AOT_stimuli/rescaled_final/1327_fw.mp4	0.0	287.5837197303772	
4	265.0048978328705	pulse	1	t		2.0	2.5	/experiments/AOT/AOT_stimuli/rescaled_final/1327_fw.mp4	0.0	289.1820316314697	
4	265.12314081192017	fix_post	2		12	2.0	2.5	/experiments/AOT/AOT_stimuli/rescaled_final/1327_fw.mp4	0.0	289.3002746105194	0.09919214248657227
5	265.22233295440674	fix_pre	0		120	3.0	2.5	/experiments/AOT/AOT_stimuli/rescaled_final/1015_rv.mp4	0.0	289.399466753006	0.9999208450317383
5	266.2222537994385	movie	1		244	3.0	2.5	/experiments/AOT/AOT_stimuli/rescaled_final/1015_rv.mp4	0.0	290.3993875980377	2.5009641647338867
5	266.60685777664185	pulse	1	t		3.0	2.5	/experiments/AOT/AOT_stimuli/rescaled_final/1015_rv.mp4	0.0	290.7839915752411	
5	268.2057259082794	pulse	1	t		3.0	2.5	/experiments/AOT/AOT_stimuli/rescaled_final/1015_rv.mp4	0.0	292.38285970687866	
5	268.72321796417236	fix_post	2		12	3.0	2.5	/experiments/AOT/AOT_stimuli/rescaled_final/1015_rv.mp4	0.0	292.9003517627716	0.09906983375549316
6	268.82228779792786	fix_pre	0		119	4.0	2.5	/experiments/AOT/AOT_stimuli/rescaled_final/1199_fw.mp4	0.0	292.9994215965271	0.9925401210784912
6	269.8057827949524	pulse	0	t		4.0	2.5	/experiments/AOT/AOT_stimuli/rescaled_final/1199_fw.mp4	0.0	293.98291659355164	
6	269.81482791900635	movie	1		245	4.0	2.5	/experiments/AOT/AOT_stimuli/rescaled_final/1199_fw.mp4	0.0	293.9919617176056	2.5073819160461426
6	271.4070439338684	pulse	1	t		4.0	2.5	/experiments/AOT/AOT_stimuli/rescaled_final/1199_fw.mp4	0.0	295.58417773246765	
6	272.3222098350525	fix_post	2		12	4.0	2.5	/experiments/AOT/AOT_stimuli/rescaled_final/1199_fw.mp4	0.0	296.49934363365173	0.10087108612060547
7	272.4230809211731	fix_pre	0		120	5.0	2.5	/experiments/AOT/AOT_stimuli/rescaled_final/1817_rv.mp4	0.0	296.60021471977234	0.9991190433502197
7	273.0058047771454	pulse	0	t		5.0	2.5	/experiments/AOT/AOT_stimuli/rescaled_final/1817_rv.mp4	0.0	297.18293857574463	
7	273.4221999645233	movie	1		244	5.0	2.5	/experiments/AOT/AOT_stimuli/rescaled_final/1817_rv.mp4	0.0	297.59933376312256	2.5000228881835938
7	274.6058177947998	pulse	1	t		5.0	2.5	/experiments/AOT/AOT_stimuli/rescaled_final/1817_rv.mp4	0.0	298.78295159339905	
7	275.9222228527069	fix_post	2		12	5.0	2.5	/experiments/AOT/AOT_stimuli/rescaled_final/1817_rv.mp4	0.0	300.09935665130615	0.09998393058776855
8	276.0222067832947	fix_pre	0		120	6.0	2.5	blank	1.0	300.1993405818939	1.0008301734924316
8	276.2065529823303	pulse	0	t		6.0	2.5	blank	1.0	300.38368678092957	
8	277.0230369567871	movie	1		300	6.0	2.5	blank	1.0	301.20017075538635	2.4991278648376465
8	277.80567479133606	pulse	1	t		6.0	2.5	blank	1.0	301.9828085899353	
8	279.40563678741455	pulse	1	t		6.0	2.5	blank	1.0	303.5827705860138	
8	279.52216482162476	fix_post	2		12	6.0	2.5	blank	1.0	303.699298620224	0.10004210472106934
9	279.6222069263458	fix_pre	0		120	7.0	2.5	/experiments/AOT/AOT_stimuli/rescaled_final/0353_fw.mp4	0.0	303.79934072494507	1.0008680820465088
9	280.62307500839233	movie	1		246	7.0	2.5	/experiments/AOT/AOT_stimuli/rescaled_final/0353_fw.mp4	0.0	304.8002088069916	2.4991118907928467
9	281.00518798828125	pulse	1	t		7.0	2.5	/experiments/AOT/AOT_stimuli/rescaled_final/0353_fw.mp4	0.0	305.1823217868805	
9	282.6064889431	pulse	1	t		7.0	2.5	/experiments/AOT/AOT_stimuli/rescaled_final/0353_fw.mp4	0.0	306.7836227416992	
9	283.1221868991852	fix_post	2		12	7.0	2.5	/experiments/AOT/AOT_stimuli/rescaled_final/0353_fw.mp4	0.0	307.2993206977844	0.09998488426208496
10	283.22217178344727	fix_pre	0		119	8.0	2.5	/experiments/AOT/AOT_stimuli/rescaled_final/0262_rv.mp4	0.0	307.3993055820465	0.9924900531768799
10	284.2056407928467	pulse	0	t		8.0	2.5	/experiments/AOT/AOT_stimuli/rescaled_final/0262_rv.mp4	0.0	308.3827745914459	
10	284.21466183662415	movie	1		248	8.0	2.5	/experiments/AOT/AOT_stimuli/rescaled_final/0262_rv.mp4	0.0	308.3917956352234	2.507575035095215
10	285.805743932724	pulse	1	t		8.0	2.5	/experiments/AOT/AOT_stimuli/rescaled_final/0262_rv.mp4	0.0	309.98287773132324	
10	286.72223687171936	fix_post	2		12	8.0	2.5	/experiments/AOT/AOT_stimuli/rescaled_final/0262_rv.mp4	0.0	310.8993706703186	0.09986591339111328
11	286.8221027851105	fix_pre	0		120	9.0	2.5	/experiments/AOT/AOT_stimuli/rescaled_final/0139_fw.mp4	0.0	310.9992365837097	1.0000231266021729
11	287.4056828022003	pulse	0	t		9.0	2.5	/experiments/AOT/AOT_stimuli/rescaled_final/0139_fw.mp4	0.0	311.58281660079956	
11	287.82212591171265	movie	1		243	9.0	2.5	/experiments/AOT/AOT_stimuli/rescaled_final/0139_fw.mp4	0.0	311.9992597103119	2.5018510818481445
11	289.00710678100586	pulse	1	t		9.0	2.5	/experiments/AOT/AOT_stimuli/rescaled_final/0139_fw.mp4	0.0	313.1842405796051	
11	290.3239769935608	fix_post	2		12	9.0	2.5	/experiments/AOT/AOT_stimuli/rescaled_final/0139_fw.mp4	0.0	314.50111079216003	0.09986591339111328
12	290.4238429069519	fix_pre	0		119	10.0	2.5	/experiments/AOT/AOT_stimuli/rescaled_final/1597_rv.mp4	0.0	314.60097670555115	0.9919240474700928
12	290.60711097717285	pulse	0	t		10.0	2.5	/experiments/AOT/AOT_stimuli/rescaled_final/1597_rv.mp4	0.0	314.7842447757721	
12	291.415766954422	movie	1		243	10.0	2.5	/experiments/AOT/AOT_stimuli/rescaled_final/1597_rv.mp4	0.0	315.59290075302124	2.508159875869751
12	292.2077569961548	pulse	1	t		10.0	2.5	/experiments/AOT/AOT_stimuli/rescaled_final/1597_rv.mp4	0.0	316.384890794754	
12	293.80713081359863	pulse	1	t		10.0	2.5	/experiments/AOT/AOT_stimuli/rescaled_final/1597_rv.mp4	0.0	317.9842646121979	
12	293.92392683029175	fix_post	2		11	10.0	2.5	/experiments/AOT/AOT_stimuli/rescaled_final/1597_rv.mp4	0.0	318.101060628891	0.09160995483398438
13	294.01553678512573	fix_pre	0		120	11.0	2.5	/experiments/AOT/AOT_stimuli/rescaled_final/0529_rv.mp4	0.0	318.192670583725	0.9995880126953125
13	295.01512479782104	movie	1		243	11.0	2.5	/experiments/AOT/AOT_stimuli/rescaled_final/0529_rv.mp4	0.0	319.1922585964203	2.5004281997680664
13	295.4070358276367	pulse	1	t		11.0	2.5	/experiments/AOT/AOT_stimuli/rescaled_final/0529_rv.mp4	0.0	319.58416962623596	
13	297.0069508552551	pulse	1	t		11.0	2.5	/experiments/AOT/AOT_stimuli/rescaled_final/0529_rv.mp4	0.0	321.18408465385437	
13	297.5155529975891	fix_post	2		13	11.0	2.5	/experiments/AOT/AOT_stimuli/rescaled_final/0529_rv.mp4	0.0	321.69268679618835	0.10807991027832031
14	297.62363290786743	fix_pre	0		119	12.0	2.5	/experiments/AOT/AOT_stimuli/rescaled_final/1984_fw.mp4	0.0	321.8007667064667	0.9915859699249268
14	298.60695481300354	pulse	0	t		12.0	2.5	/experiments/AOT/AOT_stimuli/rescaled_final/1984_fw.mp4	0.0	322.7840886116028	
14	298.61521887779236	movie	1		243	12.0	2.5	/experiments/AOT/AOT_stimuli/rescaled_final/1984_fw.mp4	0.0	322.7923526763916	2.5082600116729736
14	300.20692777633667	pulse	1	t		12.0	2.5	/experiments/AOT/AOT_stimuli/rescaled_final/1984_fw.mp4	0.0	324.3840615749359	
14	301.12347888946533	fix_post	2		12	12.0	2.5	/experiments/AOT/AOT_stimuli/rescaled_final/1984_fw.mp4	0.0	325.3006126880646	0.10048699378967285
15	301.223965883255	fix_pre	0		120	13.0	2.5	/experiments/AOT/AOT_stimuli/rescaled_final/0470_rv.mp4	0.0	325.40109968185425	0.9999699592590332
15	301.80704498291016	pulse	0	t		13.0	2.5	/experiments/AOT/AOT_stimuli/rescaled_final/0470_rv.mp4	0.0	325.9841787815094	
15	302.22393584251404	movie	1		244	13.0	2.5	/experiments/AOT/AOT_stimuli/rescaled_final/0470_rv.mp4	0.0	326.4010696411133	2.5000810623168945
15	303.4070818424225	pulse	1	t		13.0	2.5	/experiments/AOT/AOT_stimuli/rescaled_final/0470_rv.mp4	0.0	327.58421564102173	
15	304.72401690483093	fix_post	2		12	13.0	2.5	/experiments/AOT/AOT_stimuli/rescaled_final/0470_rv.mp4	0.0	328.9011507034302	0.09940195083618164
16	304.8234188556671	fix_pre	0		120	14.0	2.5	blank	1.0	329.00055265426636	1.0004990100860596
16	305.0074179172516	pulse	0	t		14.0	2.5	blank	1.0	329.18455171585083	
16	305.8239178657532	movie	1		300	14.0	2.5	blank	1.0	330.0010516643524	2.4999449253082275
16	306.60684084892273	pulse	1	t		14.0	2.5	blank	1.0	330.783974647522	
16	308.2068898677826	pulse	1	t		14.0	2.5	blank	1.0	332.38402366638184	
16	308.3238627910614	fix_post	2		12	14.0	2.5	blank	1.0	332.50099658966064	0.09948420524597168
17	308.4233469963074	fix_pre	0		120	15.0	2.5	/experiments/AOT/AOT_stimuli/rescaled_final/0362_fw.mp4	0.0	332.6004807949066	1.000006914138794
17	309.42335391044617	movie	1		243	15.0	2.5	/experiments/AOT/AOT_stimuli/rescaled_final/0362_fw.mp4	0.0	333.6004877090454	2.4991939067840576
17	309.80827593803406	pulse	1	t		15.0	2.5	/experiments/AOT/AOT_stimuli/rescaled_final/0362_fw.mp4	0.0	333.9854097366333	
17	311.40686678886414	pulse	1	t		15.0	2.5	/experiments/AOT/AOT_stimuli/rescaled_final/0362_fw.mp4	0.0	335.5840005874634	
17	311.9225478172302	fix_post	2		12	15.0	2.5	/experiments/AOT/AOT_stimuli/rescaled_final/0362_fw.mp4	0.0	336.09968161582947	0.10081911087036133
18	312.0233669281006	fix_pre	0		119	16.0	2.5	/experiments/AOT/AOT_stimuli/rescaled_final/1171_fw.mp4	0.0	336.20050072669983	0.9917268753051758
18	313.00684881210327	pulse	0	t		16.0	2.5	/experiments/AOT/AOT_stimuli/rescaled_final/1171_fw.mp4	0.0	337.1839826107025	
18	313.01509380340576	movie	1		243	16.0	2.5	/experiments/AOT/AOT_stimuli/rescaled_final/1171_fw.mp4	0.0	337.192227602005	2.508769989013672
18	314.6073489189148	pulse	1	t		16.0	2.5	/experiments/AOT/AOT_stimuli/rescaled_final/1171_fw.mp4	0.0	338.78448271751404	
18	315.52386379241943	fix_post	2		12	16.0	2.5	/experiments/AOT/AOT_stimuli/rescaled_final/1171_fw.mp4	0.0	339.7009975910187	0.09957408905029297
19	315.6234378814697	fix_pre	0		120	17.0	2.5	/experiments/AOT/AOT_stimuli/rescaled_final/2031_rv.mp4	0.0	339.80057168006897	1.0004849433898926
19	316.2069399356842	pulse	0	t		17.0	2.5	/experiments/AOT/AOT_stimuli/rescaled_final/2031_rv.mp4	0.0	340.38407373428345	
19	316.6239228248596	movie	1		242	17.0	2.5	/experiments/AOT/AOT_stimuli/rescaled_final/2031_rv.mp4	0.0	340.80105662345886	2.4998350143432617
19	317.8060688972473	pulse	1	t		17.0	2.5	/experiments/AOT/AOT_stimuli/rescaled_final/2031_rv.mp4	0.0	341.98320269584656	
19	319.1237578392029	fix_post	2		12	17.0	2.5	/experiments/AOT/AOT_stimuli/rescaled_final/2031_rv.mp4	0.0	343.3008916378021	0.09962201118469238
20	319.2233798503876	fix_pre	0		120	18.0	2.5	/experiments/AOT/AOT_stimuli/rescaled_final/1171_rv.mp4	0.0	343.4005136489868	1.0000519752502441
20	319.40630197525024	pulse	0	t		18.0	2.5	/experiments/AOT/AOT_stimuli/rescaled_final/1171_rv.mp4	0.0	343.5834357738495	
20	320.2234318256378	movie	1		242	18.0	2.5	/experiments/AOT/AOT_stimuli/rescaled_final/1171_rv.mp4	0.0	344.40056562423706	2.4998700618743896
20	321.0067949295044	pulse	1	t		18.0	2.5	/experiments/AOT/AOT_stimuli/rescaled_final/1171_rv.mp4	0.0	345.18392872810364	
20	322.6058359146118	pulse	1	t		18.0	2.5	/experiments/AOT/AOT_stimuli/rescaled_final/1171_rv.mp4	0.0	346.78296971321106	
20	322.7233018875122	fix_post	2		12	18.0	2.5	/experiments/AOT/AOT_stimuli/rescaled_final/1171_rv.mp4	0.0	346.90043568611145	0.10042691230773926
21	322.82372879981995	fix_pre	0		120	19.0	2.5	/experiments/AOT/AOT_stimuli/rescaled_final/0911_rv.mp4	0.0	347.0008625984192	0.9999880790710449
21	323.823716878891	movie	1		244	19.0	2.5	/experiments/AOT/AOT_stimuli/rescaled_final/0911_rv.mp4	0.0	348.00085067749023	2.4987521171569824
21	324.2056579589844	pulse	1	t		19.0	2.5	/experiments/AOT/AOT_stimuli/rescaled_final/0911_rv.mp4	0.0	348.3827917575836	
21	325.8072509765625	pulse	1	t		19.0	2.5	/experiments/AOT/AOT_stimuli/rescaled_final/0911_rv.mp4	0.0	349.98438477516174	
21	326.322468996048	fix_post	2		12	19.0	2.5	/experiments/AOT/AOT_stimuli/rescaled_final/0911_rv.mp4	0.0	350.4996027946472	0.10125398635864258
22	326.4237229824066	fix_pre	0		119	20.0	2.5	blank	1.0	350.60085678100586	0.9906949996948242
22	327.4072048664093	pulse	0	t		20.0	2.5	blank	1.0	351.58433866500854	
22	327.41441798210144	movie	1		301	20.0	2.5	blank	1.0	351.5915517807007	2.5083658695220947
22	329.0063009262085	pulse	1	t		20.0	2.5	blank	1.0	353.18343472480774	
22	329.92278385162354	fix_post	2		12	20.0	2.5	blank	1.0	354.0999176502228	0.0996251106262207
23	330.02240896224976	fix_pre	0		120	21.0	2.5	/experiments/AOT/AOT_stimuli/rescaled_final/0328_rv.mp4	0.0	354.199542760849	1.0004708766937256
23	330.6071557998657	pulse	0	t		21.0	2.5	/experiments/AOT/AOT_stimuli/rescaled_final/0328_rv.mp4	0.0	354.78428959846497	
23	331.0228798389435	movie	1		243	21.0	2.5	/experiments/AOT/AOT_stimuli/rescaled_final/0328_rv.mp4	0.0	355.2000136375427	2.4995689392089844
23	332.20536494255066	pulse	1	t		21.0	2.5	/experiments/AOT/AOT_stimuli/rescaled_final/0328_rv.mp4	0.0	356.3824987411499	
23	333.52244877815247	fix_post	2		12	21.0	2.5	/experiments/AOT/AOT_stimuli/rescaled_final/0328_rv.mp4	0.0	357.6995825767517	0.1004631519317627
24	333.62291193008423	fix_pre	0		120	22.0	2.5	/experiments/AOT/AOT_stimuli/rescaled_final/1744_fw.mp4	0.0	357.8000457286835	0.9994759559631348
24	333.80625891685486	pulse	0	t		22.0	2.5	/experiments/AOT/AOT_stimuli/rescaled_final/1744_fw.mp4	0.0	357.9833927154541	
24	334.62238788604736	movie	1		244	22.0	2.5	/experiments/AOT/AOT_stimuli/rescaled_final/1744_fw.mp4	0.0	358.7995216846466	2.499969959259033
24	335.406222820282	pulse	1	t		22.0	2.5	/experiments/AOT/AOT_stimuli/rescaled_final/1744_fw.mp4	0.0	359.5833566188812	
24	337.0044209957123	pulse	1	t		22.0	2.5	/experiments/AOT/AOT_stimuli/rescaled_final/1744_fw.mp4	0.0	361.1815547943115	
24	337.1223578453064	fix_post	2		12	22.0	2.5	/experiments/AOT/AOT_stimuli/rescaled_final/1744_fw.mp4	0.0	361.29949164390564	0.10048508644104004
25	337.22284293174744	fix_pre	0		120	23.0	2.5	/experiments/AOT/AOT_stimuli/rescaled_final/0083_rv.mp4	0.0	361.3999767303467	0.9995479583740234
25	338.22239089012146	movie	1		242	23.0	2.5	/experiments/AOT/AOT_stimuli/rescaled_final/0083_rv.mp4	0.0	362.3995246887207	2.500960111618042
25	338.60646080970764	pulse	1	t		23.0	2.5	/experiments/AOT/AOT_stimuli/rescaled_final/0083_rv.mp4	0.0	362.7835946083069	
25	340.2071039676666	pulse	1	t		23.0	2.5	/experiments/AOT/AOT_stimuli/rescaled_final/0083_rv.mp4	0.0	364.38423776626587	
25	340.7233510017395	fix_post	2		12	23.0	2.5	/experiments/AOT/AOT_stimuli/rescaled_final/0083_rv.mp4	0.0	364.90048480033875	0.09988594055175781
26	340.82323694229126	fix_pre	0		119	24.0	2.5	/experiments/AOT/AOT_stimuli/rescaled_final/1934_fw.mp4	0.0	365.0003707408905	0.9918320178985596
26	341.80713295936584	pulse	0	t		24.0	2.5	/experiments/AOT/AOT_stimuli/rescaled_final/1934_fw.mp4	0.0	365.9842667579651	
26	341.8150689601898	movie	1		245	24.0	2.5	/experiments/AOT/AOT_stimuli/rescaled_final/1934_fw.mp4	0.0	365.99220275878906	2.5082619190216064
26	343.4064989089966	pulse	1	t		24.0	2.5	/experiments/AOT/AOT_stimuli/rescaled_final/1934_fw.mp4	0.0	367.5836327075958	
26	344.3233308792114	fix_post	2		12	24.0	2.5	/experiments/AOT/AOT_stimuli/rescaled_final/1934_fw.mp4	0.0	368.50046467781067	0.10000896453857422
27	344.42333984375	fix_pre	0		120	25.0	2.5	/experiments/AOT/AOT_stimuli/rescaled_final/1217_fw.mp4	0.0	368.60047364234924	1.0000269412994385
27	345.00722098350525	pulse	0	t		25.0	2.5	/experiments/AOT/AOT_stimuli/rescaled_final/1217_fw.mp4	0.0	369.1843547821045	
27	345.42336678504944	movie	1		244	25.0	2.5	/experiments/AOT/AOT_stimuli/rescaled_final/1217_fw.mp4	0.0	369.6005005836487	2.500089168548584
27	346.6069338321686	pulse	1	t		25.0	2.5	/experiments/AOT/AOT_stimuli/rescaled_final/1217_fw.mp4	0.0	370.7840676307678	
27	347.923455953598	fix_post	2		12	25.0	2.5	/experiments/AOT/AOT_stimuli/rescaled_final/1217_fw.mp4	0.0	372.10058975219727	0.10007596015930176
28	348.0235319137573	fix_pre	0		120	26.0	2.5	blank	1.0	372.20066571235657	1.0000650882720947
28	348.2069318294525	pulse	0	t		26.0	2.5	blank	1.0	372.38406562805176	
28	349.0235970020294	movie	1		300	26.0	2.5	blank	1.0	373.20073080062866	2.5000147819519043
28	349.8071348667145	pulse	1	t		26.0	2.5	blank	1.0	373.9842686653137	
28	351.40706300735474	pulse	1	t		26.0	2.5	blank	1.0	375.584196805954	
28	351.5236117839813	fix_post	2		12	26.0	2.5	blank	1.0	375.70074558258057	0.09960412979125977
29	351.6232159137726	fix_pre	0		120	27.0	2.5	/experiments/AOT/AOT_stimuli/rescaled_final/0083_fw.mp4	0.0	375.8003497123718	1.0003159046173096
29	352.6235318183899	movie	1		241	27.0	2.5	/experiments/AOT/AOT_stimuli/rescaled_final/0083_fw.mp4	0.0	376.80066561698914	2.499608039855957
29	353.0065097808838	pulse	1	t		27.0	2.5	/experiments/AOT/AOT_stimuli/rescaled_final/0083_fw.mp4	0.0	377.18364357948303	
29	354.6066379547119	pulse	1	t		27.0	2.5	/experiments/AOT/AOT_stimuli/rescaled_final/0083_fw.mp4	0.0	378.78377175331116	
29	355.12313985824585	fix_post	2		12	27.0	2.5	/experiments/AOT/AOT_stimuli/rescaled_final/0083_fw.mp4	0.0	379.3002736568451	0.09916114807128906
30	355.22230100631714	fix_pre	0		119	28.0	2.5	/experiments/AOT/AOT_stimuli/rescaled_final/2037_fw.mp4	0.0	379.3994348049164	0.9925839900970459
30	356.2072129249573	pulse	0	t		28.0	2.5	/experiments/AOT/AOT_stimuli/rescaled_final/2037_fw.mp4	0.0	380.3843467235565	
30	356.2148849964142	movie	1		244	28.0	2.5	/experiments/AOT/AOT_stimuli/rescaled_final/2037_fw.mp4	0.0	380.3920187950134	2.508298873901367
30	357.80850100517273	pulse	1	t		28.0	2.5	/experiments/AOT/AOT_stimuli/rescaled_final/2037_fw.mp4	0.0	381.985634803772	
30	358.72318387031555	fix_post	2		12	28.0	2.5	/experiments/AOT/AOT_stimuli/rescaled_final/2037_fw.mp4	0.0	382.9003176689148	0.10002708435058594
31	358.82321095466614	fix_pre	0		120	29.0	2.5	/experiments/AOT/AOT_stimuli/rescaled_final/1788_fw.mp4	0.0	383.0003447532654	1.0003938674926758
31	359.4067997932434	pulse	0	t		29.0	2.5	/experiments/AOT/AOT_stimuli/rescaled_final/1788_fw.mp4	0.0	383.58393359184265	
31	359.8236048221588	movie	1		243	29.0	2.5	/experiments/AOT/AOT_stimuli/rescaled_final/1788_fw.mp4	0.0	384.00073862075806	2.499619960784912
31	361.0067448616028	pulse	1	t		29.0	2.5	/experiments/AOT/AOT_stimuli/rescaled_final/1788_fw.mp4	0.0	385.183878660202	
31	362.3232247829437	fix_post	2		12	29.0	2.5	/experiments/AOT/AOT_stimuli/rescaled_final/1788_fw.mp4	0.0	386.50035858154297	0.10008406639099121
32	362.4233088493347	fix_pre	0		120	30.0	2.5	/experiments/AOT/AOT_stimuli/rescaled_final/1022_fw.mp4	0.0	386.60044264793396	0.9998650550842285
32	362.60671496391296	pulse	0	t		30.0	2.5	/experiments/AOT/AOT_stimuli/rescaled_final/1022_fw.mp4	0.0	386.7838487625122	
32	363.42317390441895	movie	1		242	30.0	2.5	/experiments/AOT/AOT_stimuli/rescaled_final/1022_fw.mp4	0.0	387.6003077030182	2.4998910427093506
32	364.20731377601624	pulse	1	t		30.0	2.5	/experiments/AOT/AOT_stimuli/rescaled_final/1022_fw.mp4	0.0	388.3844475746155	
32	365.8057129383087	pulse	1	t		30.0	2.5	/experiments/AOT/AOT_stimuli/rescaled_final/1022_fw.mp4	0.0	389.98284673690796	
32	365.9230649471283	fix_post	2		12	30.0	2.5	/experiments/AOT/AOT_stimuli/rescaled_final/1022_fw.mp4	0.0	390.10019874572754	0.1000208854675293
33	366.0230858325958	fix_pre	0		120	31.0	2.5	/experiments/AOT/AOT_stimuli/rescaled_final/1532_rv.mp4	0.0	390.20021963119507	1.000458002090454
33	367.0235438346863	movie	1		242	31.0	2.5	/experiments/AOT/AOT_stimuli/rescaled_final/1532_rv.mp4	0.0	391.2006776332855	2.4996631145477295
33	367.40763783454895	pulse	1	t		31.0	2.5	/experiments/AOT/AOT_stimuli/rescaled_final/1532_rv.mp4	0.0	391.5847716331482	
33	369.007031917572	pulse	1	t		31.0	2.5	/experiments/AOT/AOT_stimuli/rescaled_final/1532_rv.mp4	0.0	393.18416571617126	
33	369.523206949234	fix_post	2		12	31.0	2.5	/experiments/AOT/AOT_stimuli/rescaled_final/1532_rv.mp4	0.0	393.70034074783325	0.09988594055175781
34	369.62309288978577	fix_pre	0		119	32.0	2.5	/experiments/AOT/AOT_stimuli/rescaled_final/0826_rv.mp4	0.0	393.800226688385	0.9917058944702148
34	370.60652685165405	pulse	0	t		32.0	2.5	/experiments/AOT/AOT_stimuli/rescaled_final/0826_rv.mp4	0.0	394.7836606502533	
34	370.614798784256	movie	1		244	32.0	2.5	/experiments/AOT/AOT_stimuli/rescaled_final/0826_rv.mp4	0.0	394.7919325828552	2.5083301067352295
34	372.2072219848633	pulse	1	t		32.0	2.5	/experiments/AOT/AOT_stimuli/rescaled_final/0826_rv.mp4	0.0	396.3843557834625	
34	373.1231288909912	fix_post	2		12	32.0	2.5	/experiments/AOT/AOT_stimuli/rescaled_final/0826_rv.mp4	0.0	397.30026268959045	0.10004496574401855
35	373.22317385673523	fix_pre	0		120	33.0	2.5	/experiments/AOT/AOT_stimuli/rescaled_final/0049_rv.mp4	0.0	397.4003076553345	1.000007152557373
35	373.8065838813782	pulse	0	t		33.0	2.5	/experiments/AOT/AOT_stimuli/rescaled_final/0049_rv.mp4	0.0	397.9837176799774	
35	374.2231810092926	movie	1		242	33.0	2.5	/experiments/AOT/AOT_stimuli/rescaled_final/0049_rv.mp4	0.0	398.40031480789185	2.4999589920043945
35	375.4065968990326	pulse	1	t		33.0	2.5	/experiments/AOT/AOT_stimuli/rescaled_final/0049_rv.mp4	0.0	399.58373069763184	
35	376.723140001297	fix_post	2		12	33.0	2.5	/experiments/AOT/AOT_stimuli/rescaled_final/0049_rv.mp4	0.0	400.90027379989624	0.10010981559753418
36	376.82324981689453	fix_pre	0		120	34.0	2.5	/experiments/AOT/AOT_stimuli/rescaled_final/1264_fw.mp4	0.0	401.0003836154938	0.9998741149902344
36	377.0065498352051	pulse	0	t		34.0	2.5	/experiments/AOT/AOT_stimuli/rescaled_final/1264_fw.mp4	0.0	401.1836836338043	
36	377.82312393188477	movie	1		244	34.0	2.5	/experiments/AOT/AOT_stimuli/rescaled_final/1264_fw.mp4	0.0	402.000257730484	2.5000159740448
36	378.6066279411316	pulse	1	t		34.0	2.5	/experiments/AOT/AOT_stimuli/rescaled_final/1264_fw.mp4	0.0	402.78376173973083	
36	380.2069787979126	pulse	1	t		34.0	2.5	/experiments/AOT/AOT_stimuli/rescaled_final/1264_fw.mp4	0.0	404.38411259651184	
36	380.32313990592957	fix_post	2		12	34.0	2.5	/experiments/AOT/AOT_stimuli/rescaled_final/1264_fw.mp4	0.0	404.5002737045288	0.09991288185119629
37	380.42305278778076	fix_pre	0		120	35.0	2.5	blank	1.0	404.60018658638	1.0004370212554932
37	381.42348980903625	movie	1		300	35.0	2.5	blank	1.0	405.6006236076355	2.4999501705169678
37	381.8064458370209	pulse	1	t		35.0	2.5	blank	1.0	405.9835796356201	
37	383.4065179824829	pulse	1	t		35.0	2.5	blank	1.0	407.58365178108215	
37	383.9234399795532	fix_post	2		12	35.0	2.5	blank	1.0	408.10057377815247	0.0996239185333252
38	384.02306389808655	fix_pre	0		119	36.0	2.5	/experiments/AOT/AOT_stimuli/rescaled_final/0851_rv.mp4	0.0	408.2001976966858	0.9916539192199707
38	385.0066158771515	pulse	0	t		36.0	2.5	/experiments/AOT/AOT_stimuli/rescaled_final/0851_rv.mp4	0.0	409.18374967575073	
38	385.0147178173065	movie	1		243	36.0	2.5	/experiments/AOT/AOT_stimuli/rescaled_final/0851_rv.mp4	0.0	409.19185161590576	2.5083181858062744
38	386.6065239906311	pulse	1	t		36.0	2.5	/experiments/AOT/AOT_stimuli/rescaled_final/0851_rv.mp4	0.0	410.78365778923035	
38	387.5230360031128	fix_post	2		12	36.0	2.5	/experiments/AOT/AOT_stimuli/rescaled_final/0851_rv.mp4	0.0	411.70016980171204	0.10050296783447266
39	387.62353897094727	fix_pre	0		120	37.0	2.5	/experiments/AOT/AOT_stimuli/rescaled_final/0289_fw.mp4	0.0	411.8006727695465	0.9996259212493896
39	388.20707178115845	pulse	0	t		37.0	2.5	/experiments/AOT/AOT_stimuli/rescaled_final/0289_fw.mp4	0.0	412.3842055797577	
39	388.62316489219666	movie	1		245	37.0	2.5	/experiments/AOT/AOT_stimuli/rescaled_final/0289_fw.mp4	0.0	412.8002986907959	2.5003559589385986
39	389.80706000328064	pulse	1	t		37.0	2.5	/experiments/AOT/AOT_stimuli/rescaled_final/0289_fw.mp4	0.0	413.9841938018799	
39	391.12352085113525	fix_post	2		12	37.0	2.5	/experiments/AOT/AOT_stimuli/rescaled_final/0289_fw.mp4	0.0	415.3006546497345	0.09948992729187012
40	391.2230107784271	fix_pre	0		120	38.0	2.5	/experiments/AOT/AOT_stimuli/rescaled_final/0305_rv.mp4	0.0	415.40014457702637	0.9990401268005371
40	391.40663385391235	pulse	0	t		38.0	2.5	/experiments/AOT/AOT_stimuli/rescaled_final/0305_rv.mp4	0.0	415.5837676525116	
40	392.22205090522766	movie	1		243	38.0	2.5	/experiments/AOT/AOT_stimuli/rescaled_final/0305_rv.mp4	0.0	416.3991847038269	2.5013580322265625
40	393.00642490386963	pulse	1	t		38.0	2.5	/experiments/AOT/AOT_stimuli/rescaled_final/0305_rv.mp4	0.0	417.1835587024689	
40	394.60544896125793	pulse	1	t		38.0	2.5	/experiments/AOT/AOT_stimuli/rescaled_final/0305_rv.mp4	0.0	418.7825827598572	
40	394.7234089374542	fix_post	2		12	38.0	2.5	/experiments/AOT/AOT_stimuli/rescaled_final/0305_rv.mp4	0.0	418.90054273605347	0.10001206398010254
41	394.8234210014343	fix_pre	0		120	39.0	2.5	/experiments/AOT/AOT_stimuli/rescaled_final/0718_rv.mp4	0.0	419.00055480003357	0.9999969005584717
41	395.8234179019928	movie	1		243	39.0	2.5	/experiments/AOT/AOT_stimuli/rescaled_final/0718_rv.mp4	0.0	420.00055170059204	2.4995439052581787
41	396.20708894729614	pulse	1	t		39.0	2.5	/experiments/AOT/AOT_stimuli/rescaled_final/0718_rv.mp4	0.0	420.3842227458954	
41	397.8065228462219	pulse	1	t		39.0	2.5	/experiments/AOT/AOT_stimuli/rescaled_final/0718_rv.mp4	0.0	421.98365664482117	
41	398.322961807251	fix_post	2		12	39.0	2.5	/experiments/AOT/AOT_stimuli/rescaled_final/0718_rv.mp4	0.0	422.5000956058502	0.10039019584655762
42	398.42335200309753	fix_pre	0		119	40.0	2.5	/experiments/AOT/AOT_stimuli/rescaled_final/0395_fw.mp4	0.0	422.6004858016968	0.991257905960083
42	399.4064838886261	pulse	0	t		40.0	2.5	/experiments/AOT/AOT_stimuli/rescaled_final/0395_fw.mp4	0.0	423.58361768722534	
42	399.4146099090576	movie	1		244	40.0	2.5	/experiments/AOT/AOT_stimuli/rescaled_final/0395_fw.mp4	0.0	423.59174370765686	2.508413076400757
42	401.0064549446106	pulse	1	t		40.0	2.5	/experiments/AOT/AOT_stimuli/rescaled_final/0395_fw.mp4	0.0	425.18358874320984	
42	401.9230229854584	fix_post	2		12	40.0	2.5	/experiments/AOT/AOT_stimuli/rescaled_final/0395_fw.mp4	0.0	426.1001567840576	0.09986281394958496
43	402.02288579940796	fix_pre	0		120	41.0	2.5	blank	1.0	426.2000195980072	1.0006041526794434
43	402.6069459915161	pulse	0	t		41.0	2.5	blank	1.0	426.78407979011536	
43	403.0234899520874	movie	1		300	41.0	2.5	blank	1.0	427.20062375068665	2.4998679161071777
43	404.2071897983551	pulse	1	t		41.0	2.5	blank	1.0	428.38432359695435	
43	405.5233578681946	fix_post	2		12	41.0	2.5	blank	1.0	429.7004916667938	0.09965801239013672
44	405.6230158805847	fix_pre	0		120	42.0	2.5	/experiments/AOT/AOT_stimuli/rescaled_final/1620_rv.mp4	0.0	429.80014967918396	1.000399112701416
44	405.8069248199463	pulse	0	t		42.0	2.5	/experiments/AOT/AOT_stimuli/rescaled_final/1620_rv.mp4	0.0	429.98405861854553	
44	406.62341499328613	movie	1		243	42.0	2.5	/experiments/AOT/AOT_stimuli/rescaled_final/1620_rv.mp4	0.0	430.8005487918854	2.4999380111694336
44	407.4068579673767	pulse	1	t		42.0	2.5	/experiments/AOT/AOT_stimuli/rescaled_final/1620_rv.mp4	0.0	431.58399176597595	
44	409.00549578666687	pulse	1	t		42.0	2.5	/experiments/AOT/AOT_stimuli/rescaled_final/1620_rv.mp4	0.0	433.1826295852661	
44	409.12335300445557	fix_post	2		12	42.0	2.5	/experiments/AOT/AOT_stimuli/rescaled_final/1620_rv.mp4	0.0	433.3004868030548	0.09997081756591797
45	409.2233238220215	fix_pre	0		120	43.0	2.5	/experiments/AOT/AOT_stimuli/rescaled_final/1880_rv.mp4	0.0	433.4004576206207	0.9999740123748779
45	410.22329783439636	movie	1		243	43.0	2.5	/experiments/AOT/AOT_stimuli/rescaled_final/1880_rv.mp4	0.0	434.4004316329956	2.5000381469726562
45	410.60608291625977	pulse	1	t		43.0	2.5	/experiments/AOT/AOT_stimuli/rescaled_final/1880_rv.mp4	0.0	434.783216714859	
45	412.206326007843	pulse	1	t		43.0	2.5	/experiments/AOT/AOT_stimuli/rescaled_final/1880_rv.mp4	0.0	436.38345980644226	
45	412.723335981369	fix_post	2		12	43.0	2.5	/experiments/AOT/AOT_stimuli/rescaled_final/1880_rv.mp4	0.0	436.90046977996826	0.09998703002929688
46	412.8233230113983	fix_pre	0		119	44.0	2.5	/experiments/AOT/AOT_stimuli/rescaled_final/1747_rv.mp4	0.0	437.00045680999756	0.991217851638794
46	413.8063759803772	pulse	0	t		44.0	2.5	/experiments/AOT/AOT_stimuli/rescaled_final/1747_rv.mp4	0.0	437.98350977897644	
46	413.8145408630371	movie	1		245	44.0	2.5	/experiments/AOT/AOT_stimuli/rescaled_final/1747_rv.mp4	0.0	437.99167466163635	2.5088109970092773
46	415.406124830246	pulse	1	t		44.0	2.5	/experiments/AOT/AOT_stimuli/rescaled_final/1747_rv.mp4	0.0	439.5832586288452	
46	416.3233518600464	fix_post	2		12	44.0	2.5	/experiments/AOT/AOT_stimuli/rescaled_final/1747_rv.mp4	0.0	440.50048565864563	0.10019111633300781
47	416.4235429763794	fix_pre	0		120	45.0	2.5	/experiments/AOT/AOT_stimuli/rescaled_final/0012_fw.mp4	0.0	440.60067677497864	0.9998040199279785
47	417.0068118572235	pulse	0	t		45.0	2.5	/experiments/AOT/AOT_stimuli/rescaled_final/0012_fw.mp4	0.0	441.18394565582275	
47	417.4233469963074	movie	1		244	45.0	2.5	/experiments/AOT/AOT_stimuli/rescaled_final/0012_fw.mp4	0.0	441.6004807949066	2.498626947402954
47	418.6064729690552	pulse	1	t		45.0	2.5	/experiments/AOT/AOT_stimuli/rescaled_final/0012_fw.mp4	0.0	442.7836067676544	
47	419.9219739437103	fix_post	2		12	45.0	2.5	/experiments/AOT/AOT_stimuli/rescaled_final/0012_fw.mp4	0.0	444.09910774230957	0.10105490684509277
48	420.0230288505554	fix_pre	0		120	46.0	2.5	/experiments/AOT/AOT_stimuli/rescaled_final/1400_rv.mp4	0.0	444.20016264915466	1.000002145767212
48	420.20676589012146	pulse	0	t		46.0	2.5	/experiments/AOT/AOT_stimuli/rescaled_final/1400_rv.mp4	0.0	444.3838996887207	
48	421.02303099632263	movie	1		243	46.0	2.5	/experiments/AOT/AOT_stimuli/rescaled_final/1400_rv.mp4	0.0	445.2001647949219	2.5003697872161865
48	421.8054509162903	pulse	1	t		46.0	2.5	/experiments/AOT/AOT_stimuli/rescaled_final/1400_rv.mp4	0.0	445.9825847148895	
48	423.40558385849	pulse	1	t		46.0	2.5	/experiments/AOT/AOT_stimuli/rescaled_final/1400_rv.mp4	0.0	447.58271765708923	
48	423.5234007835388	fix_post	2		12	46.0	2.5	/experiments/AOT/AOT_stimuli/rescaled_final/1400_rv.mp4	0.0	447.70053458213806	0.09984111785888672
49	423.6232419013977	fix_pre	0		120	47.0	2.5	/experiments/AOT/AOT_stimuli/rescaled_final/1568_rv.mp4	0.0	447.80037569999695	0.9987249374389648
49	424.62196683883667	movie	1		243	47.0	2.5	/experiments/AOT/AOT_stimuli/rescaled_final/1568_rv.mp4	0.0	448.7991006374359	2.500331163406372
49	425.0051918029785	pulse	1	t		47.0	2.5	/experiments/AOT/AOT_stimuli/rescaled_final/1568_rv.mp4	0.0	449.18232560157776	
49	426.6053478717804	pulse	1	t		47.0	2.5	/experiments/AOT/AOT_stimuli/rescaled_final/1568_rv.mp4	0.0	450.78248167037964	
49	427.12229800224304	fix_post	2		12	47.0	2.5	/experiments/AOT/AOT_stimuli/rescaled_final/1568_rv.mp4	0.0	451.2994318008423	0.10003495216369629
50	427.22233295440674	fix_pre	0		119	48.0	2.5	/experiments/AOT/AOT_stimuli/rescaled_final/0440_rv.mp4	0.0	451.399466753006	0.9925339221954346
50	428.20536279678345	pulse	0	t		48.0	2.5	/experiments/AOT/AOT_stimuli/rescaled_final/0440_rv.mp4	0.0	452.3824965953827	
50	428.2148668766022	movie	1		245	48.0	2.5	/experiments/AOT/AOT_stimuli/rescaled_final/0440_rv.mp4	0.0	452.3920006752014	2.5070900917053223
50	429.8065447807312	pulse	1	t		48.0	2.5	/experiments/AOT/AOT_stimuli/rescaled_final/0440_rv.mp4	0.0	453.98367857933044	
50	430.7219569683075	fix_post	2		12	48.0	2.5	/experiments/AOT/AOT_stimuli/rescaled_final/0440_rv.mp4	0.0	454.89909076690674	0.09996581077575684
51	430.82192277908325	fix_pre	0		120	49.0	2.5	blank	1.0	454.9990565776825	1.0004470348358154
51	431.40542793273926	pulse	0	t		49.0	2.5	blank	1.0	455.5825617313385	
51	431.82236981391907	movie	1		300	49.0	2.5	blank	1.0	455.9995036125183	2.49955415725708
51	433.00538992881775	pulse	1	t		49.0	2.5	blank	1.0	457.182523727417	
51	434.32192397117615	fix_post	2		12	49.0	2.5	blank	1.0	458.4990577697754	0.10002398490905762
52	434.4219479560852	fix_pre	0		120	50.0	2.5	/experiments/AOT/AOT_stimuli/rescaled_final/0911_rv.mp4	0.0	458.59908175468445	1.0001769065856934
52	434.60584592819214	pulse	0	t		50.0	2.5	/experiments/AOT/AOT_stimuli/rescaled_final/0911_rv.mp4	0.0	458.7829797267914	
52	435.4221248626709	movie	1		244	50.0	2.5	/experiments/AOT/AOT_stimuli/rescaled_final/0911_rv.mp4	0.0	459.59925866127014	2.499890089035034
52	436.2057158946991	pulse	1	t		50.0	2.5	/experiments/AOT/AOT_stimuli/rescaled_final/0911_rv.mp4	0.0	460.38284969329834	
52	437.8058578968048	pulse	1	t		50.0	2.5	/experiments/AOT/AOT_stimuli/rescaled_final/0911_rv.mp4	0.0	461.98299169540405	
52	437.92201495170593	fix_post	2		12	50.0	2.5	/experiments/AOT/AOT_stimuli/rescaled_final/0911_rv.mp4	0.0	462.0991487503052	0.09996891021728516
53	438.0219838619232	fix_pre	0		120	51.0	2.5	/experiments/AOT/AOT_stimuli/rescaled_final/1148_fw.mp4	0.0	462.19911766052246	0.9998929500579834
53	439.0218768119812	movie	1		244	51.0	2.5	/experiments/AOT/AOT_stimuli/rescaled_final/1148_fw.mp4	0.0	463.19901061058044	2.4995620250701904
53	439.40548181533813	pulse	1	t		51.0	2.5	/experiments/AOT/AOT_stimuli/rescaled_final/1148_fw.mp4	0.0	463.5826156139374	
53	441.00482177734375	pulse	1	t		51.0	2.5	/experiments/AOT/AOT_stimuli/rescaled_final/1148_fw.mp4	0.0	465.181955575943	
53	441.5214388370514	fix_post	2		12	51.0	2.5	/experiments/AOT/AOT_stimuli/rescaled_final/1148_fw.mp4	0.0	465.69857263565063	0.10038900375366211
54	441.62182784080505	fix_pre	0		119	52.0	2.5	/experiments/AOT/AOT_stimuli/rescaled_final/0031_rv.mp4	0.0	465.7989616394043	0.9920740127563477
54	442.6057209968567	pulse	0	t		52.0	2.5	/experiments/AOT/AOT_stimuli/rescaled_final/0031_rv.mp4	0.0	466.78285479545593	
54	442.6139018535614	movie	1		245	52.0	2.5	/experiments/AOT/AOT_stimuli/rescaled_final/0031_rv.mp4	0.0	466.79103565216064	2.5083529949188232
54	444.20481300354004	pulse	1	t		52.0	2.5	/experiments/AOT/AOT_stimuli/rescaled_final/0031_rv.mp4	0.0	468.3819468021393	
54	445.1222548484802	fix_post	2		12	52.0	2.5	/experiments/AOT/AOT_stimuli/rescaled_final/0031_rv.mp4	0.0	469.29938864707947	0.10001802444458008
55	445.2222728729248	fix_pre	0		120	53.0	2.5	/experiments/AOT/AOT_stimuli/rescaled_final/2158_fw.mp4	0.0	469.39940667152405	0.9999380111694336
55	445.80579686164856	pulse	0	t		53.0	2.5	/experiments/AOT/AOT_stimuli/rescaled_final/2158_fw.mp4	0.0	469.9829306602478	
55	446.22221088409424	movie	1		243	53.0	2.5	/experiments/AOT/AOT_stimuli/rescaled_final/2158_fw.mp4	0.0	470.3993446826935	2.500133991241455
55	447.40493297576904	pulse	1	t		53.0	2.5	/experiments/AOT/AOT_stimuli/rescaled_final/2158_fw.mp4	0.0	471.5820667743683	
55	448.7223448753357	fix_post	2		12	53.0	2.5	/experiments/AOT/AOT_stimuli/rescaled_final/2158_fw.mp4	0.0	472.89947867393494	0.09982609748840332
56	448.8221709728241	fix_pre	0		120	54.0	2.5	/experiments/AOT/AOT_stimuli/rescaled_final/1264_rv.mp4	0.0	472.99930477142334	1.000025987625122
56	449.0056598186493	pulse	0	t		54.0	2.5	/experiments/AOT/AOT_stimuli/rescaled_final/1264_rv.mp4	0.0	473.18279361724854	
56	449.8221969604492	movie	1		244	54.0	2.5	/experiments/AOT/AOT_stimuli/rescaled_final/1264_rv.mp4	0.0	473.99933075904846	2.499160051345825
56	450.60480093955994	pulse	1	t		54.0	2.5	/experiments/AOT/AOT_stimuli/rescaled_final/1264_rv.mp4	0.0	474.7819347381592	
56	452.2057158946991	pulse	1	t		54.0	2.5	/experiments/AOT/AOT_stimuli/rescaled_final/1264_rv.mp4	0.0	476.38284969329834	
56	452.32135701179504	fix_post	2		12	54.0	2.5	/experiments/AOT/AOT_stimuli/rescaled_final/1264_rv.mp4	0.0	476.4984908103943	0.10088276863098145
57	452.422239780426	fix_pre	0		120	55.0	2.5	/experiments/AOT/AOT_stimuli/rescaled_final/1131_rv.mp4	0.0	476.59937357902527	0.9991161823272705
57	453.4213559627533	movie	1		244	55.0	2.5	/experiments/AOT/AOT_stimuli/rescaled_final/1131_rv.mp4	0.0	477.59848976135254	2.499945878982544
57	453.805330991745	pulse	1	t		55.0	2.5	/experiments/AOT/AOT_stimuli/rescaled_final/1131_rv.mp4	0.0	477.98246479034424	
57	455.4056499004364	pulse	1	t		55.0	2.5	/experiments/AOT/AOT_stimuli/rescaled_final/1131_rv.mp4	0.0	479.58278369903564	
57	455.92130184173584	fix_post	2		12	55.0	2.5	/experiments/AOT/AOT_stimuli/rescaled_final/1131_rv.mp4	0.0	480.0984356403351	0.10096311569213867
58	456.022264957428	fix_pre	0		119	56.0	2.5	blank	1.0	480.1993987560272	0.9915668964385986
58	457.00485491752625	pulse	0	t		56.0	2.5	blank	1.0	481.1819887161255	
58	457.0138318538666	movie	1		301	56.0	2.5	blank	1.0	481.1909656524658	2.508544921875
58	458.6048889160156	pulse	1	t		56.0	2.5	blank	1.0	482.78202271461487	
58	459.5223767757416	fix_post	2		12	56.0	2.5	blank	1.0	483.6995105743408	0.0993661880493164
59	459.6217429637909	fix_pre	0		120	57.0	2.5	/experiments/AOT/AOT_stimuli/rescaled_final/1597_rv.mp4	0.0	483.79887676239014	1.0008509159088135
59	460.2059209346771	pulse	0	t		57.0	2.5	/experiments/AOT/AOT_stimuli/rescaled_final/1597_rv.mp4	0.0	484.38305473327637	
59	460.6225938796997	movie	1		245	57.0	2.5	/experiments/AOT/AOT_stimuli/rescaled_final/1597_rv.mp4	0.0	484.79972767829895	2.499579906463623
59	461.80483293533325	pulse	1	t		57.0	2.5	/experiments/AOT/AOT_stimuli/rescaled_final/1597_rv.mp4	0.0	485.9819667339325	
59	463.12217378616333	fix_post	2		12	57.0	2.5	/experiments/AOT/AOT_stimuli/rescaled_final/1597_rv.mp4	0.0	487.2993075847626	0.10002017021179199
60	463.2221939563751	fix_pre	0		120	58.0	2.5	/experiments/AOT/AOT_stimuli/rescaled_final/0079_rv.mp4	0.0	487.39932775497437	1.0001239776611328
60	463.40559792518616	pulse	0	t		58.0	2.5	/experiments/AOT/AOT_stimuli/rescaled_final/0079_rv.mp4	0.0	487.5827317237854	
60	464.22231793403625	movie	1		244	58.0	2.5	/experiments/AOT/AOT_stimuli/rescaled_final/0079_rv.mp4	0.0	488.3994517326355	2.49981689453125
60	465.0047798156738	pulse	1	t		58.0	2.5	/experiments/AOT/AOT_stimuli/rescaled_final/0079_rv.mp4	0.0	489.18191361427307	
60	466.60557985305786	pulse	1	t		58.0	2.5	/experiments/AOT/AOT_stimuli/rescaled_final/0079_rv.mp4	0.0	490.7827136516571	
60	466.7221348285675	fix_post	2		12	58.0	2.5	/experiments/AOT/AOT_stimuli/rescaled_final/0079_rv.mp4	0.0	490.89926862716675	0.10002803802490234
61	466.8221628665924	fix_pre	0		120	59.0	2.5	/experiments/AOT/AOT_stimuli/rescaled_final/0252_rv.mp4	0.0	490.99929666519165	0.9990689754486084
61	467.821231842041	movie	1		245	59.0	2.5	/experiments/AOT/AOT_stimuli/rescaled_final/0252_rv.mp4	0.0	491.99836564064026	2.5000171661376953
61	468.20600485801697	pulse	1	t		59.0	2.5	/experiments/AOT/AOT_stimuli/rescaled_final/0252_rv.mp4	0.0	492.3831386566162	
61	469.804655790329	pulse	1	t		59.0	2.5	/experiments/AOT/AOT_stimuli/rescaled_final/0252_rv.mp4	0.0	493.9817895889282	
61	470.3212490081787	fix_post	2		12	59.0	2.5	/experiments/AOT/AOT_stimuli/rescaled_final/0252_rv.mp4	0.0	494.49838280677795	0.09998178482055664
62	470.42123079299927	fix_pre	0		119	60.0	2.5	/experiments/AOT/AOT_stimuli/rescaled_final/1744_fw.mp4	0.0	494.5983645915985	0.9916369915008545
62	471.4046688079834	pulse	0	t		60.0	2.5	/experiments/AOT/AOT_stimuli/rescaled_final/1744_fw.mp4	0.0	495.58180260658264	
62	471.4128677845001	movie	1		245	60.0	2.5	/experiments/AOT/AOT_stimuli/rescaled_final/1744_fw.mp4	0.0	495.59000158309937	2.5083811283111572
62	473.00465989112854	pulse	1	t		60.0	2.5	/experiments/AOT/AOT_stimuli/rescaled_final/1744_fw.mp4	0.0	497.1817936897278	
62	473.9212489128113	fix_post	2		12	60.0	2.5	/experiments/AOT/AOT_stimuli/rescaled_final/1744_fw.mp4	0.0	498.0983827114105	0.1000208854675293
63	474.0212697982788	fix_pre	0		120	61.0	2.5	/experiments/AOT/AOT_stimuli/rescaled_final/0980_rv.mp4	0.0	498.19840359687805	0.9999361038208008
63	474.60555386543274	pulse	0	t		61.0	2.5	/experiments/AOT/AOT_stimuli/rescaled_final/0980_rv.mp4	0.0	498.782687664032	
63	475.0212059020996	movie	1		244	61.0	2.5	/experiments/AOT/AOT_stimuli/rescaled_final/0980_rv.mp4	0.0	499.19833970069885	2.5000720024108887
63	476.20471692085266	pulse	1	t		61.0	2.5	/experiments/AOT/AOT_stimuli/rescaled_final/0980_rv.mp4	0.0	500.3818507194519	
63	477.5212779045105	fix_post	2		12	61.0	2.5	/experiments/AOT/AOT_stimuli/rescaled_final/0980_rv.mp4	0.0	501.69841170310974	0.10003209114074707
64	477.62130999565125	fix_pre	0		120	62.0	2.5	blank	1.0	501.7984437942505	0.9998688697814941
64	477.804634809494	pulse	0	t		62.0	2.5	blank	1.0	501.98176860809326	
64	478.62117886543274	movie	1		300	62.0	2.5	blank	1.0	502.798312664032	2.4999561309814453
64	479.4055438041687	pulse	1	t		62.0	2.5	blank	1.0	503.58267760276794	
64	481.0047059059143	pulse	1	t		62.0	2.5	blank	1.0	505.18183970451355	
64	481.1211349964142	fix_post	2		12	62.0	2.5	blank	1.0	505.2982687950134	0.1001279354095459
65	481.22126293182373	fix_pre	0		120	63.0	2.5	/experiments/AOT/AOT_stimuli/rescaled_final/1579_fw.mp4	0.0	505.398396730423	1.0008008480072021
65	482.22206377983093	movie	1		245	63.0	2.5	/experiments/AOT/AOT_stimuli/rescaled_final/1579_fw.mp4	0.0	506.3991975784302	2.4991040229797363
65	482.60587787628174	pulse	1	t		63.0	2.5	/experiments/AOT/AOT_stimuli/rescaled_final/1579_fw.mp4	0.0	506.783011674881	
65	484.204687833786	pulse	1	t		63.0	2.5	/experiments/AOT/AOT_stimuli/rescaled_final/1579_fw.mp4	0.0	508.38182163238525	
65	484.72116780281067	fix_post	2		12	63.0	2.5	/experiments/AOT/AOT_stimuli/rescaled_final/1579_fw.mp4	0.0	508.8983016014099	0.09998106956481934
66	484.8211488723755	fix_pre	0		119	64.0	2.5	/experiments/AOT/AOT_stimuli/rescaled_final/2153_fw.mp4	0.0	508.99828267097473	0.9925899505615234
66	485.80550479888916	pulse	0	t		64.0	2.5	/experiments/AOT/AOT_stimuli/rescaled_final/2153_fw.mp4	0.0	509.9826385974884	
66	485.813738822937	movie	1		244	64.0	2.5	/experiments/AOT/AOT_stimuli/rescaled_final/2153_fw.mp4	0.0	509.99087262153625	2.507388114929199
66	487.40466380119324	pulse	1	t		64.0	2.5	/experiments/AOT/AOT_stimuli/rescaled_final/2153_fw.mp4	0.0	511.5817975997925	
66	488.3211269378662	fix_post	2		12	64.0	2.5	/experiments/AOT/AOT_stimuli/rescaled_final/2153_fw.mp4	0.0	512.4982607364655	0.10090303421020508
67	488.4220299720764	fix_pre	0		120	65.0	2.5	/experiments/AOT/AOT_stimuli/rescaled_final/0978_fw.mp4	0.0	512.5991637706757	0.9999969005584717
67	489.00548100471497	pulse	0	t		65.0	2.5	/experiments/AOT/AOT_stimuli/rescaled_final/0978_fw.mp4	0.0	513.1826148033142	
67	489.4220268726349	movie	1		242	65.0	2.5	/experiments/AOT/AOT_stimuli/rescaled_final/0978_fw.mp4	0.0	513.5991606712341	2.4991259574890137
67	490.60465478897095	pulse	1	t		65.0	2.5	/experiments/AOT/AOT_stimuli/rescaled_final/0978_fw.mp4	0.0	514.7817885875702	
67	491.9211528301239	fix_post	2		12	65.0	2.5	/experiments/AOT/AOT_stimuli/rescaled_final/0978_fw.mp4	0.0	516.0982866287231	0.10079407691955566
68	492.02194690704346	fix_pre	0		120	66.0	2.5	/experiments/AOT/AOT_stimuli/rescaled_final/0834_fw.mp4	0.0	516.1990807056427	1.0001039505004883
68	492.2053928375244	pulse	0	t		66.0	2.5	/experiments/AOT/AOT_stimuli/rescaled_final/0834_fw.mp4	0.0	516.3825266361237	
68	493.02205085754395	movie	1		243	66.0	2.5	/experiments/AOT/AOT_stimuli/rescaled_final/0834_fw.mp4	0.0	517.1991846561432	2.499083995819092
68	493.8056709766388	pulse	1	t		66.0	2.5	/experiments/AOT/AOT_stimuli/rescaled_final/0834_fw.mp4	0.0	517.982804775238	
68	495.41390085220337	pulse	1	t		66.0	2.5	/experiments/AOT/AOT_stimuli/rescaled_final/0834_fw.mp4	0.0	519.5910346508026	
68	495.52113485336304	fix_post	2		12	66.0	2.5	/experiments/AOT/AOT_stimuli/rescaled_final/0834_fw.mp4	0.0	519.6982686519623	0.09998202323913574
69	495.6211168766022	fix_pre	0		120	67.0	2.5	/experiments/AOT/AOT_stimuli/rescaled_final/0923_fw.mp4	0.0	519.7982506752014	0.9999909400939941
69	496.62110781669617	movie	1		243	67.0	2.5	/experiments/AOT/AOT_stimuli/rescaled_final/0923_fw.mp4	0.0	520.7982416152954	2.501739025115967
69	497.00602078437805	pulse	1	t		67.0	2.5	/experiments/AOT/AOT_stimuli/rescaled_final/0923_fw.mp4	0.0	521.1831545829773	
69	498.6059229373932	pulse	1	t		67.0	2.5	/experiments/AOT/AOT_stimuli/rescaled_final/0923_fw.mp4	0.0	522.7830567359924	
69	499.12284684181213	fix_post	2		12	67.0	2.5	/experiments/AOT/AOT_stimuli/rescaled_final/0923_fw.mp4	0.0	523.2999806404114	0.10013198852539062
70	499.2229788303375	fix_pre	0		119	68.0	2.5	/experiments/AOT/AOT_stimuli/rescaled_final/1764_rv.mp4	0.0	523.4001126289368	0.991671085357666
70	500.2063879966736	pulse	0	t		68.0	2.5	/experiments/AOT/AOT_stimuli/rescaled_final/1764_rv.mp4	0.0	524.3835217952728	
70	500.2146499156952	movie	1		245	68.0	2.5	/experiments/AOT/AOT_stimuli/rescaled_final/1764_rv.mp4	0.0	524.3917837142944	2.5077340602874756
70	501.80740880966187	pulse	1	t		68.0	2.5	/experiments/AOT/AOT_stimuli/rescaled_final/1764_rv.mp4	0.0	525.9845426082611	
70	502.72238397598267	fix_post	2		12	68.0	2.5	/experiments/AOT/AOT_stimuli/rescaled_final/1764_rv.mp4	0.0	526.8995177745819	0.10056591033935547
71	502.822949886322	fix_pre	0		120	69.0	2.5	blank	1.0	527.0000836849213	0.9999680519104004
71	503.406044960022	pulse	0	t		69.0	2.5	blank	1.0	527.5831787586212	
71	503.8229179382324	movie	1		300	69.0	2.5	blank	1.0	528.0000517368317	2.500203847885132
71	505.00634598731995	pulse	1	t		69.0	2.5	blank	1.0	529.1834797859192	
71	506.32312178611755	fix_post	2		12	69.0	2.5	blank	1.0	530.5002555847168	0.09930801391601562
72	506.42242980003357	fix_pre	0		120	70.0	2.5	/experiments/AOT/AOT_stimuli/rescaled_final/1199_fw.mp4	0.0	530.5995635986328	1.0003809928894043
72	506.60632395744324	pulse	0	t		70.0	2.5	/experiments/AOT/AOT_stimuli/rescaled_final/1199_fw.mp4	0.0	530.7834577560425	
72	507.422810792923	movie	1		243	70.0	2.5	/experiments/AOT/AOT_stimuli/rescaled_final/1199_fw.mp4	0.0	531.5999445915222	2.4995710849761963
72	508.20585894584656	pulse	1	t		70.0	2.5	/experiments/AOT/AOT_stimuli/rescaled_final/1199_fw.mp4	0.0	532.3829927444458	
72	509.80597591400146	pulse	1	t		70.0	2.5	/experiments/AOT/AOT_stimuli/rescaled_final/1199_fw.mp4	0.0	533.9831097126007	
72	509.92238187789917	fix_post	2		12	70.0	2.5	/experiments/AOT/AOT_stimuli/rescaled_final/1199_fw.mp4	0.0	534.0995156764984	0.1000969409942627
73	510.02247881889343	fix_pre	0		120	71.0	2.5	/experiments/AOT/AOT_stimuli/rescaled_final/1579_rv.mp4	0.0	534.1996126174927	1.0003390312194824
73	511.0228178501129	movie	1		243	71.0	2.5	/experiments/AOT/AOT_stimuli/rescaled_final/1579_rv.mp4	0.0	535.1999516487122	2.5000109672546387
73	511.406320810318	pulse	1	t		71.0	2.5	/experiments/AOT/AOT_stimuli/rescaled_final/1579_rv.mp4	0.0	535.5834546089172	
73	513.0062959194183	pulse	1	t		71.0	2.5	/experiments/AOT/AOT_stimuli/rescaled_final/1579_rv.mp4	0.0	537.1834297180176	
73	513.5228288173676	fix_post	2		12	71.0	2.5	/experiments/AOT/AOT_stimuli/rescaled_final/1579_rv.mp4	0.0	537.6999626159668	0.09958910942077637
74	513.6224179267883	fix_pre	0		119	72.0	2.5	/experiments/AOT/AOT_stimuli/rescaled_final/0060_fw.mp4	0.0	537.7995517253876	0.9923689365386963
74	514.6063549518585	pulse	0	t		72.0	2.5	/experiments/AOT/AOT_stimuli/rescaled_final/0060_fw.mp4	0.0	538.7834887504578	
74	514.614786863327	movie	1		245	72.0	2.5	/experiments/AOT/AOT_stimuli/rescaled_final/0060_fw.mp4	0.0	538.7919206619263	2.5080080032348633
74	516.2065238952637	pulse	1	t		72.0	2.5	/experiments/AOT/AOT_stimuli/rescaled_final/0060_fw.mp4	0.0	540.3836576938629	
74	517.1227948665619	fix_post	2		12	72.0	2.5	/experiments/AOT/AOT_stimuli/rescaled_final/0060_fw.mp4	0.0	541.2999286651611	0.10010004043579102
75	517.2228949069977	fix_pre	0		120	73.0	2.5	/experiments/AOT/AOT_stimuli/rescaled_final/1078_rv.mp4	0.0	541.4000287055969	0.9986839294433594
75	517.8062388896942	pulse	0	t		73.0	2.5	/experiments/AOT/AOT_stimuli/rescaled_final/1078_rv.mp4	0.0	541.9833726882935	
75	518.221578836441	movie	1		244	73.0	2.5	/experiments/AOT/AOT_stimuli/rescaled_final/1078_rv.mp4	0.0	542.3987126350403	2.499890089035034
75	519.4060637950897	pulse	1	t		73.0	2.5	/experiments/AOT/AOT_stimuli/rescaled_final/1078_rv.mp4	0.0	543.583197593689	
75	520.7214689254761	fix_post	2		12	73.0	2.5	/experiments/AOT/AOT_stimuli/rescaled_final/1078_rv.mp4	0.0	544.8986027240753	0.1009528636932373
76	520.8224217891693	fix_pre	0		120	74.0	2.5	/experiments/AOT/AOT_stimuli/rescaled_final/2153_fw.mp4	0.0	544.9995555877686	1.0004081726074219
76	521.0062108039856	pulse	0	t		74.0	2.5	/experiments/AOT/AOT_stimuli/rescaled_final/2153_fw.mp4	0.0	545.1833446025848	
76	521.8228299617767	movie	1		246	74.0	2.5	/experiments/AOT/AOT_stimuli/rescaled_final/2153_fw.mp4	0.0	545.999963760376	2.499990940093994
76	522.606202840805	pulse	1	t		74.0	2.5	/experiments/AOT/AOT_stimuli/rescaled_final/2153_fw.mp4	0.0	546.7833366394043	
76	524.2131259441376	pulse	1	t		74.0	2.5	/experiments/AOT/AOT_stimuli/rescaled_final/2153_fw.mp4	0.0	548.3902597427368	
76	524.3228209018707	fix_post	2		12	74.0	2.5	/experiments/AOT/AOT_stimuli/rescaled_final/2153_fw.mp4	0.0	548.49995470047	0.0989840030670166
77	524.4218049049377	fix_pre	0		120	75.0	2.5	/experiments/AOT/AOT_stimuli/rescaled_final/0543_rv.mp4	0.0	548.598938703537	0.9996728897094727
77	525.4214777946472	movie	1		243	75.0	2.5	/experiments/AOT/AOT_stimuli/rescaled_final/0543_rv.mp4	0.0	549.5986115932465	2.5003771781921387
77	525.8048098087311	pulse	1	t		75.0	2.5	/experiments/AOT/AOT_stimuli/rescaled_final/0543_rv.mp4	0.0	549.9819436073303	
77	527.4049580097198	pulse	1	t		75.0	2.5	/experiments/AOT/AOT_stimuli/rescaled_final/0543_rv.mp4	0.0	551.5820918083191	
77	527.9218549728394	fix_post	2		12	75.0	2.5	/experiments/AOT/AOT_stimuli/rescaled_final/0543_rv.mp4	0.0	552.0989887714386	0.10001683235168457
78	528.021871805191	fix_pre	0		119	76.0	2.5	/experiments/AOT/AOT_stimuli/rescaled_final/1880_fw.mp4	0.0	552.1990056037903	0.9917709827423096
78	529.005313873291	pulse	0	t		76.0	2.5	/experiments/AOT/AOT_stimuli/rescaled_final/1880_fw.mp4	0.0	553.1824476718903	
78	529.0136427879333	movie	1		246	76.0	2.5	/experiments/AOT/AOT_stimuli/rescaled_final/1880_fw.mp4	0.0	553.1907765865326	2.5077450275421143
78	530.6046648025513	pulse	1	t		76.0	2.5	/experiments/AOT/AOT_stimuli/rescaled_final/1880_fw.mp4	0.0	554.7817986011505	
78	531.5213878154755	fix_post	2		12	76.0	2.5	/experiments/AOT/AOT_stimuli/rescaled_final/1880_fw.mp4	0.0	555.6985216140747	0.10046195983886719
79	531.6218497753143	fix_pre	0		120	77.0	2.5	blank	1.0	555.7989835739136	0.9995710849761963
79	532.2048859596252	pulse	0	t		77.0	2.5	blank	1.0	556.3820197582245	
79	532.6214208602905	movie	1		300	77.0	2.5	blank	1.0	556.7985546588898	2.499953031539917
79	533.804878950119	pulse	1	t		77.0	2.5	blank	1.0	557.9820127487183	
79	535.1213738918304	fix_post	2		12	77.0	2.5	blank	1.0	559.2985076904297	0.10007190704345703
80	535.2214457988739	fix_pre	0		120	78.0	2.5	/experiments/AOT/AOT_stimuli/rescaled_final/0257_fw.mp4	0.0	559.3985795974731	0.9999411106109619
80	535.4048249721527	pulse	0	t		78.0	2.5	/experiments/AOT/AOT_stimuli/rescaled_final/0257_fw.mp4	0.0	559.581958770752	
80	536.2213869094849	movie	1		241	78.0	2.5	/experiments/AOT/AOT_stimuli/rescaled_final/0257_fw.mp4	0.0	560.3985207080841	2.4999969005584717
80	537.0052599906921	pulse	1	t		78.0	2.5	/experiments/AOT/AOT_stimuli/rescaled_final/0257_fw.mp4	0.0	561.1823937892914	
80	538.6127939224243	pulse	1	t		78.0	2.5	/experiments/AOT/AOT_stimuli/rescaled_final/0257_fw.mp4	0.0	562.7899277210236	
80	538.7213838100433	fix_post	2		12	78.0	2.5	/experiments/AOT/AOT_stimuli/rescaled_final/0257_fw.mp4	0.0	562.8985176086426	0.10033011436462402
81	538.821713924408	fix_pre	0		120	79.0	2.5	/experiments/AOT/AOT_stimuli/rescaled_final/1634_rv.mp4	0.0	562.9988477230072	0.9991700649261475
81	539.8208839893341	movie	1		245	79.0	2.5	/experiments/AOT/AOT_stimuli/rescaled_final/1634_rv.mp4	0.0	563.9980177879333	2.500001907348633
81	540.2057359218597	pulse	1	t		79.0	2.5	/experiments/AOT/AOT_stimuli/rescaled_final/1634_rv.mp4	0.0	564.382869720459	
81	541.8052759170532	pulse	1	t		79.0	2.5	/experiments/AOT/AOT_stimuli/rescaled_final/1634_rv.mp4	0.0	565.9824097156525	
81	542.3208858966827	fix_post	2		12	79.0	2.5	/experiments/AOT/AOT_stimuli/rescaled_final/1634_rv.mp4	0.0	566.498019695282	0.10047006607055664
82	542.4213559627533	fix_pre	0		119	80.0	2.5	/experiments/AOT/AOT_stimuli/rescaled_final/1229_rv.mp4	0.0	566.5984897613525	0.9916670322418213
82	543.4043509960175	pulse	0	t		80.0	2.5	/experiments/AOT/AOT_stimuli/rescaled_final/1229_rv.mp4	0.0	567.5814847946167	
82	543.4130229949951	movie	1		247	80.0	2.5	/experiments/AOT/AOT_stimuli/rescaled_final/1229_rv.mp4	0.0	567.5901567935944	2.5078558921813965
82	545.0042808055878	pulse	1	t		80.0	2.5	/experiments/AOT/AOT_stimuli/rescaled_final/1229_rv.mp4	0.0	569.181414604187	
82	545.9208788871765	fix_post	2		12	80.0	2.5	/experiments/AOT/AOT_stimuli/rescaled_final/1229_rv.mp4	0.0	570.0980126857758	0.09998393058776855
83	546.0208628177643	fix_pre	0		120	81.0	2.5	/experiments/AOT/AOT_stimuli/rescaled_final/0851_fw.mp4	0.0	570.1979966163635	1.0000519752502441
83	546.6051368713379	pulse	0	t		81.0	2.5	/experiments/AOT/AOT_stimuli/rescaled_final/0851_fw.mp4	0.0	570.7822706699371	
83	547.0209147930145	movie	1		243	81.0	2.5	/experiments/AOT/AOT_stimuli/rescaled_final/0851_fw.mp4	0.0	571.1980485916138	2.5018792152404785
83	548.2062449455261	pulse	1	t		81.0	2.5	/experiments/AOT/AOT_stimuli/rescaled_final/0851_fw.mp4	0.0	572.3833787441254	
83	549.522794008255	fix_post	2		12	81.0	2.5	/experiments/AOT/AOT_stimuli/rescaled_final/0851_fw.mp4	0.0	573.6999278068542	0.0998079776763916
84	549.6226019859314	fix_pre	0		120	82.0	2.5	/experiments/AOT/AOT_stimuli/rescaled_final/1596_fw.mp4	0.0	573.7997357845306	1.000032901763916
84	549.8060328960419	pulse	0	t		82.0	2.5	/experiments/AOT/AOT_stimuli/rescaled_final/1596_fw.mp4	0.0	573.9831666946411	
84	550.6226348876953	movie	1		243	82.0	2.5	/experiments/AOT/AOT_stimuli/rescaled_final/1596_fw.mp4	0.0	574.7997686862946	2.4996840953826904
84	551.4060208797455	pulse	1	t		82.0	2.5	/experiments/AOT/AOT_stimuli/rescaled_final/1596_fw.mp4	0.0	575.5831546783447	
84	553.0060927867889	pulse	1	t		82.0	2.5	/experiments/AOT/AOT_stimuli/rescaled_final/1596_fw.mp4	0.0	577.1832265853882	
84	553.122318983078	fix_post	2		12	82.0	2.5	/experiments/AOT/AOT_stimuli/rescaled_final/1596_fw.mp4	0.0	577.2994527816772	0.09986996650695801
85	553.222188949585	fix_pre	0		120	83.0	2.5	blank	1.0	577.3993227481842	1.0003900527954102
85	554.2225790023804	movie	1		300	83.0	2.5	blank	1.0	578.3997128009796	2.4999988079071045
85	554.6060450077057	pulse	1	t		83.0	2.5	blank	1.0	578.7831788063049	
85	556.2056930065155	pulse	1	t		83.0	2.5	blank	1.0	580.3828268051147	
85	556.7225778102875	fix_post	2		12	83.0	2.5	blank	1.0	580.8997116088867	0.09978818893432617
87	556.8223659992218	stim	0		1716					580.999499797821	14.29946780204773
87	557.8061699867249	pulse	0	t						581.9833037853241	
87	559.4058029651642	pulse	0	t						583.5829367637634	
87	561.0056087970734	pulse	0	t						585.1827425956726	
87	562.6056599617004	pulse	0	t						586.7827937602997	
87	564.2056457996368	pulse	0	t						588.3827795982361	
87	565.8060028553009	pulse	0	t						589.9831366539001	
87	567.4056367874146	pulse	0	t						591.5827705860138	
87	569.0055530071259	pulse	0	t						593.1826868057251	
87	570.6056158542633	pulse	0	t						594.7827496528625	
