trial_nr	onset	event_type	phase	response	nr_frames	movie_index	movie_duration	movie_file	blank	onset_abs	duration
0	0.15821504592895508	stim	0		15					20.28438711166382	0.12503600120544434
0	0.2753009796142578	response	0	space						20.40147304534912	
1	0.2832510471343994	stim	0		4664					20.409423112869263	38.86650490760803
1	39.1426739692688	pulse	0	t						59.26884603500366	
1	39.14975595474243	stim	1		1717					59.275928020477295	14.308258056640625
1	40.74160695075989	pulse	1	t						60.86777901649475	
1	42.34152698516846	pulse	1	t						62.46769905090332	
1	43.94154191017151	pulse	1	t						64.06771397590637	
1	45.54149794578552	pulse	1	t						65.66767001152039	
1	47.14113402366638	pulse	1	t						67.26730608940125	
1	48.74125003814697	pulse	1	t						68.86742210388184	
1	50.34155988693237	pulse	1	t						70.46773195266724	
1	51.94147992134094	pulse	1	t						72.0676519870758	
2	53.45801401138306	fix_pre	0		11	0.0	2.5	/experiments/AOT/AOT_stimuli/rescaled_final/0991_fw.mp4	0.0	73.58418607711792	0.09168791770935059
2	53.541491985321045	pulse	0	t		0.0	2.5	/experiments/AOT/AOT_stimuli/rescaled_final/0991_fw.mp4	0.0	73.66766405105591	
2	53.54970192909241	movie	1		243	0.0	2.5	/experiments/AOT/AOT_stimuli/rescaled_final/0991_fw.mp4	0.0	73.67587399482727	2.507866144180298
2	55.141037940979004	pulse	1	t		0.0	2.5	/experiments/AOT/AOT_stimuli/rescaled_final/0991_fw.mp4	0.0	75.26721000671387	
2	56.057568073272705	fix_post	2		12	0.0	2.5	/experiments/AOT/AOT_stimuli/rescaled_final/0991_fw.mp4	0.0	76.18374013900757	0.10035586357116699
3	56.15792393684387	fix_pre	0		120	1.0	2.5	/experiments/AOT/AOT_stimuli/rescaled_final/1067_fw.mp4	0.0	76.28409600257874	0.9996569156646729
3	56.741551876068115	pulse	0	t		1.0	2.5	/experiments/AOT/AOT_stimuli/rescaled_final/1067_fw.mp4	0.0	76.86772394180298	
3	57.157580852508545	movie	1		243	1.0	2.5	/experiments/AOT/AOT_stimuli/rescaled_final/1067_fw.mp4	0.0	77.28375291824341	2.5003421306610107
3	58.34156584739685	pulse	1	t		1.0	2.5	/experiments/AOT/AOT_stimuli/rescaled_final/1067_fw.mp4	0.0	78.46773791313171	
3	59.657922983169556	fix_post	2		12	1.0	2.5	/experiments/AOT/AOT_stimuli/rescaled_final/1067_fw.mp4	0.0	79.78409504890442	0.10001707077026367
4	59.75794005393982	fix_pre	0		120	2.0	2.5	/experiments/AOT/AOT_stimuli/rescaled_final/0169_fw.mp4	0.0	79.88411211967468	0.9999969005584717
4	59.941401958465576	pulse	0	t		2.0	2.5	/experiments/AOT/AOT_stimuli/rescaled_final/0169_fw.mp4	0.0	80.06757402420044	
4	60.75793695449829	movie	1		243	2.0	2.5	/experiments/AOT/AOT_stimuli/rescaled_final/0169_fw.mp4	0.0	80.88410902023315	2.5000150203704834
4	61.541362047195435	pulse	1	t		2.0	2.5	/experiments/AOT/AOT_stimuli/rescaled_final/0169_fw.mp4	0.0	81.6675341129303	
4	63.14032793045044	pulse	1	t		2.0	2.5	/experiments/AOT/AOT_stimuli/rescaled_final/0169_fw.mp4	0.0	83.2664999961853	
4	63.257951974868774	fix_post	2		12	2.0	2.5	/experiments/AOT/AOT_stimuli/rescaled_final/0169_fw.mp4	0.0	83.38412404060364	0.09999990463256836
5	63.35795187950134	fix_pre	0		120	3.0	2.5	/experiments/AOT/AOT_stimuli/rescaled_final/1067_rv.mp4	0.0	83.4841239452362	0.9996020793914795
5	64.35755395889282	movie	1		246	3.0	2.5	/experiments/AOT/AOT_stimuli/rescaled_final/1067_rv.mp4	0.0	84.48372602462769	2.499969005584717
5	64.74092602729797	pulse	1	t		3.0	2.5	/experiments/AOT/AOT_stimuli/rescaled_final/1067_rv.mp4	0.0	84.86709809303284	
5	66.34133386611938	pulse	1	t		3.0	2.5	/experiments/AOT/AOT_stimuli/rescaled_final/1067_rv.mp4	0.0	86.46750593185425	
5	66.85752296447754	fix_post	2		12	3.0	2.5	/experiments/AOT/AOT_stimuli/rescaled_final/1067_rv.mp4	0.0	86.9836950302124	0.10048389434814453
6	66.95800685882568	fix_pre	0		119	4.0	2.5	/experiments/AOT/AOT_stimuli/rescaled_final/1105_rv.mp4	0.0	87.08417892456055	0.9916830062866211
6	67.94147801399231	pulse	0	t		4.0	2.5	/experiments/AOT/AOT_stimuli/rescaled_final/1105_rv.mp4	0.0	88.06765007972717	
6	67.9496898651123	movie	1		246	4.0	2.5	/experiments/AOT/AOT_stimuli/rescaled_final/1105_rv.mp4	0.0	88.07586193084717	2.508183002471924
6	69.5409939289093	pulse	1	t		4.0	2.5	/experiments/AOT/AOT_stimuli/rescaled_final/1105_rv.mp4	0.0	89.66716599464417	
6	70.45787286758423	fix_post	2		12	4.0	2.5	/experiments/AOT/AOT_stimuli/rescaled_final/1105_rv.mp4	0.0	90.58404493331909	0.10000014305114746
7	70.55787301063538	fix_pre	0		120	5.0	2.5	blank	1.0	90.68404507637024	1.0000710487365723
7	71.14136385917664	pulse	0	t		5.0	2.5	blank	1.0	91.2675359249115	
7	71.55794405937195	movie	1		300	5.0	2.5	blank	1.0	91.68411612510681	2.4999468326568604
7	72.7414059638977	pulse	1	t		5.0	2.5	blank	1.0	92.86757802963257	
7	74.05789089202881	fix_post	2		12	5.0	2.5	blank	1.0	94.18406295776367	0.0999290943145752
8	74.15781998634338	fix_pre	0		120	6.0	2.5	/experiments/AOT/AOT_stimuli/rescaled_final/1864_fw.mp4	0.0	94.28399205207825	1.0001330375671387
8	74.34145903587341	pulse	0	t		6.0	2.5	/experiments/AOT/AOT_stimuli/rescaled_final/1864_fw.mp4	0.0	94.46763110160828	
8	75.15795302391052	movie	1		243	6.0	2.5	/experiments/AOT/AOT_stimuli/rescaled_final/1864_fw.mp4	0.0	95.28412508964539	2.4999639987945557
8	75.94136691093445	pulse	1	t		6.0	2.5	/experiments/AOT/AOT_stimuli/rescaled_final/1864_fw.mp4	0.0	96.06753897666931	
8	77.53995704650879	pulse	1	t		6.0	2.5	/experiments/AOT/AOT_stimuli/rescaled_final/1864_fw.mp4	0.0	97.66612911224365	
8	77.65791702270508	fix_post	2		12	6.0	2.5	/experiments/AOT/AOT_stimuli/rescaled_final/1864_fw.mp4	0.0	97.78408908843994	0.0999150276184082
9	77.75783205032349	fix_pre	0		120	7.0	2.5	/experiments/AOT/AOT_stimuli/rescaled_final/1592_fw.mp4	0.0	97.88400411605835	1.0000109672546387
9	78.75784301757812	movie	1		244	7.0	2.5	/experiments/AOT/AOT_stimuli/rescaled_final/1592_fw.mp4	0.0	98.88401508331299	2.4999680519104004
9	79.14209198951721	pulse	1	t		7.0	2.5	/experiments/AOT/AOT_stimuli/rescaled_final/1592_fw.mp4	0.0	99.26826405525208	
9	80.74136996269226	pulse	1	t		7.0	2.5	/experiments/AOT/AOT_stimuli/rescaled_final/1592_fw.mp4	0.0	100.86754202842712	
9	81.25781106948853	fix_post	2		12	7.0	2.5	/experiments/AOT/AOT_stimuli/rescaled_final/1592_fw.mp4	0.0	101.38398313522339	0.09969282150268555
10	81.35750389099121	fix_pre	0		119	8.0	2.5	/experiments/AOT/AOT_stimuli/rescaled_final/0421_fw.mp4	0.0	101.48367595672607	0.9920170307159424
10	82.34135794639587	pulse	0	t		8.0	2.5	/experiments/AOT/AOT_stimuli/rescaled_final/0421_fw.mp4	0.0	102.46753001213074	
10	82.34952092170715	movie	1		246	8.0	2.5	/experiments/AOT/AOT_stimuli/rescaled_final/0421_fw.mp4	0.0	102.47569298744202	2.508286952972412
10	83.94143295288086	pulse	1	t		8.0	2.5	/experiments/AOT/AOT_stimuli/rescaled_final/0421_fw.mp4	0.0	104.06760501861572	
10	84.85780787467957	fix_post	2		12	8.0	2.5	/experiments/AOT/AOT_stimuli/rescaled_final/0421_fw.mp4	0.0	104.98397994041443	0.1000971794128418
11	84.95790505409241	fix_pre	0		120	9.0	2.5	/experiments/AOT/AOT_stimuli/rescaled_final/0862_fw.mp4	0.0	105.08407711982727	1.0000159740447998
11	85.54139685630798	pulse	0	t		9.0	2.5	/experiments/AOT/AOT_stimuli/rescaled_final/0862_fw.mp4	0.0	105.66756892204285	
11	85.9579210281372	movie	1		245	9.0	2.5	/experiments/AOT/AOT_stimuli/rescaled_final/0862_fw.mp4	0.0	106.08409309387207	2.4999890327453613
11	87.14140486717224	pulse	1	t		9.0	2.5	/experiments/AOT/AOT_stimuli/rescaled_final/0862_fw.mp4	0.0	107.2675769329071	
11	88.45791006088257	fix_post	2		12	9.0	2.5	/experiments/AOT/AOT_stimuli/rescaled_final/0862_fw.mp4	0.0	108.58408212661743	0.10000300407409668
12	88.55791306495667	fix_pre	0		120	10.0	2.5	/experiments/AOT/AOT_stimuli/rescaled_final/1798_fw.mp4	0.0	108.68408513069153	1.0000379085540771
12	88.74139785766602	pulse	0	t		10.0	2.5	/experiments/AOT/AOT_stimuli/rescaled_final/1798_fw.mp4	0.0	108.86756992340088	
12	89.55795097351074	movie	1		244	10.0	2.5	/experiments/AOT/AOT_stimuli/rescaled_final/1798_fw.mp4	0.0	109.6841230392456	2.4994618892669678
12	90.34171295166016	pulse	1	t		10.0	2.5	/experiments/AOT/AOT_stimuli/rescaled_final/1798_fw.mp4	0.0	110.46788501739502	
12	91.93992590904236	pulse	1	t		10.0	2.5	/experiments/AOT/AOT_stimuli/rescaled_final/1798_fw.mp4	0.0	112.06609797477722	
12	92.05741286277771	fix_post	2		12	10.0	2.5	/experiments/AOT/AOT_stimuli/rescaled_final/1798_fw.mp4	0.0	112.18358492851257	0.10034918785095215
13	92.15776205062866	fix_pre	0		120	11.0	2.5	/experiments/AOT/AOT_stimuli/rescaled_final/0435_rv.mp4	0.0	112.28393411636353	0.9996798038482666
13	93.15744185447693	movie	1		245	11.0	2.5	/experiments/AOT/AOT_stimuli/rescaled_final/0435_rv.mp4	0.0	113.28361392021179	2.5002801418304443
13	93.54100298881531	pulse	1	t		11.0	2.5	/experiments/AOT/AOT_stimuli/rescaled_final/0435_rv.mp4	0.0	113.66717505455017	
13	95.14148092269897	pulse	1	t		11.0	2.5	/experiments/AOT/AOT_stimuli/rescaled_final/0435_rv.mp4	0.0	115.26765298843384	
13	95.65772199630737	fix_post	2		12	11.0	2.5	/experiments/AOT/AOT_stimuli/rescaled_final/0435_rv.mp4	0.0	115.78389406204224	0.09968686103820801
14	95.75740885734558	fix_pre	0		119	12.0	2.5	/experiments/AOT/AOT_stimuli/rescaled_final/1740_fw.mp4	0.0	115.88358092308044	0.9920740127563477
14	96.74127697944641	pulse	0	t		12.0	2.5	/experiments/AOT/AOT_stimuli/rescaled_final/1740_fw.mp4	0.0	116.86744904518127	
14	96.74948287010193	movie	1		245	12.0	2.5	/experiments/AOT/AOT_stimuli/rescaled_final/1740_fw.mp4	0.0	116.87565493583679	2.508319139480591
14	98.3410370349884	pulse	1	t		12.0	2.5	/experiments/AOT/AOT_stimuli/rescaled_final/1740_fw.mp4	0.0	118.46720910072327	
14	99.25780200958252	fix_post	2		12	12.0	2.5	/experiments/AOT/AOT_stimuli/rescaled_final/1740_fw.mp4	0.0	119.38397407531738	0.0999908447265625
15	99.35779285430908	fix_pre	0		120	13.0	2.5	blank	1.0	119.48396492004395	1.0001389980316162
15	99.94126105308533	pulse	0	t		13.0	2.5	blank	1.0	120.06743311882019	
15	100.3579318523407	movie	1		300	13.0	2.5	blank	1.0	120.48410391807556	2.4998161792755127
15	101.54120707511902	pulse	1	t		13.0	2.5	blank	1.0	121.66737914085388	
15	102.85774803161621	fix_post	2		12	13.0	2.5	blank	1.0	122.98392009735107	0.10001397132873535
16	102.95776200294495	fix_pre	0		120	14.0	2.5	/experiments/AOT/AOT_stimuli/rescaled_final/1603_rv.mp4	0.0	123.08393406867981	1.0000829696655273
16	103.14082884788513	pulse	0	t		14.0	2.5	/experiments/AOT/AOT_stimuli/rescaled_final/1603_rv.mp4	0.0	123.26700091362	
16	103.95784497261047	movie	1		244	14.0	2.5	/experiments/AOT/AOT_stimuli/rescaled_final/1603_rv.mp4	0.0	124.08401703834534	2.4995059967041016
16	104.74133586883545	pulse	1	t		14.0	2.5	/experiments/AOT/AOT_stimuli/rescaled_final/1603_rv.mp4	0.0	124.86750793457031	
16	106.3397228717804	pulse	1	t		14.0	2.5	/experiments/AOT/AOT_stimuli/rescaled_final/1603_rv.mp4	0.0	126.46589493751526	
16	106.45735096931458	fix_post	2		12	14.0	2.5	/experiments/AOT/AOT_stimuli/rescaled_final/1603_rv.mp4	0.0	126.58352303504944	0.10042500495910645
17	106.55777597427368	fix_pre	0		120	15.0	2.5	/experiments/AOT/AOT_stimuli/rescaled_final/1159_rv.mp4	0.0	126.68394804000854	0.999561071395874
17	107.55733704566956	movie	1		246	15.0	2.5	/experiments/AOT/AOT_stimuli/rescaled_final/1159_rv.mp4	0.0	127.68350911140442	2.499943971633911
17	107.9406189918518	pulse	1	t		15.0	2.5	/experiments/AOT/AOT_stimuli/rescaled_final/1159_rv.mp4	0.0	128.06679105758667	
17	109.54118990898132	pulse	1	t		15.0	2.5	/experiments/AOT/AOT_stimuli/rescaled_final/1159_rv.mp4	0.0	129.6673619747162	
17	110.05728101730347	fix_post	2		12	15.0	2.5	/experiments/AOT/AOT_stimuli/rescaled_final/1159_rv.mp4	0.0	130.18345308303833	0.10043001174926758
18	110.15771102905273	fix_pre	0		119	16.0	2.5	/experiments/AOT/AOT_stimuli/rescaled_final/1554_fw.mp4	0.0	130.2838830947876	0.9915850162506104
18	111.14111590385437	pulse	0	t		16.0	2.5	/experiments/AOT/AOT_stimuli/rescaled_final/1554_fw.mp4	0.0	131.26728796958923	
18	111.14929604530334	movie	1		247	16.0	2.5	/experiments/AOT/AOT_stimuli/rescaled_final/1554_fw.mp4	0.0	131.2754681110382	2.5083229541778564
18	112.7409029006958	pulse	1	t		16.0	2.5	/experiments/AOT/AOT_stimuli/rescaled_final/1554_fw.mp4	0.0	132.86707496643066	
18	113.6576189994812	fix_post	2		12	16.0	2.5	/experiments/AOT/AOT_stimuli/rescaled_final/1554_fw.mp4	0.0	133.78379106521606	0.09963297843933105
19	113.75725197792053	fix_pre	0		120	17.0	2.5	/experiments/AOT/AOT_stimuli/rescaled_final/1620_fw.mp4	0.0	133.8834240436554	1.0000429153442383
19	114.34114789962769	pulse	0	t		17.0	2.5	/experiments/AOT/AOT_stimuli/rescaled_final/1620_fw.mp4	0.0	134.46731996536255	
19	114.75729489326477	movie	1		245	17.0	2.5	/experiments/AOT/AOT_stimuli/rescaled_final/1620_fw.mp4	0.0	134.88346695899963	2.5004100799560547
19	115.94127798080444	pulse	1	t		17.0	2.5	/experiments/AOT/AOT_stimuli/rescaled_final/1620_fw.mp4	0.0	136.0674500465393	
19	117.25770497322083	fix_post	2		12	17.0	2.5	/experiments/AOT/AOT_stimuli/rescaled_final/1620_fw.mp4	0.0	137.3838770389557	0.09999203681945801
20	117.35769701004028	fix_pre	0		120	18.0	2.5	/experiments/AOT/AOT_stimuli/rescaled_final/2122_fw.mp4	0.0	137.48386907577515	1.000040054321289
20	117.54115796089172	pulse	0	t		18.0	2.5	/experiments/AOT/AOT_stimuli/rescaled_final/2122_fw.mp4	0.0	137.6673300266266	
20	118.35773706436157	movie	1		243	18.0	2.5	/experiments/AOT/AOT_stimuli/rescaled_final/2122_fw.mp4	0.0	138.48390913009644	2.500027894973755
20	119.14123487472534	pulse	1	t		18.0	2.5	/experiments/AOT/AOT_stimuli/rescaled_final/2122_fw.mp4	0.0	139.2674069404602	
20	120.7395248413086	pulse	1	t		18.0	2.5	/experiments/AOT/AOT_stimuli/rescaled_final/2122_fw.mp4	0.0	140.86569690704346	
20	120.85776495933533	fix_post	2		12	18.0	2.5	/experiments/AOT/AOT_stimuli/rescaled_final/2122_fw.mp4	0.0	140.9839370250702	0.09992003440856934
21	120.9576849937439	fix_pre	0		120	19.0	2.5	/experiments/AOT/AOT_stimuli/rescaled_final/0421_rv.mp4	0.0	141.08385705947876	0.9999439716339111
21	121.95762896537781	movie	1		243	19.0	2.5	/experiments/AOT/AOT_stimuli/rescaled_final/0421_rv.mp4	0.0	142.08380103111267	2.5001180171966553
21	122.34100604057312	pulse	1	t		19.0	2.5	/experiments/AOT/AOT_stimuli/rescaled_final/0421_rv.mp4	0.0	142.46717810630798	
21	123.94106888771057	pulse	1	t		19.0	2.5	/experiments/AOT/AOT_stimuli/rescaled_final/0421_rv.mp4	0.0	144.06724095344543	
21	124.45774698257446	fix_post	2		12	19.0	2.5	/experiments/AOT/AOT_stimuli/rescaled_final/0421_rv.mp4	0.0	144.58391904830933	0.09999299049377441
22	124.55773997306824	fix_pre	0		119	20.0	2.5	blank	1.0	144.6839120388031	0.9915750026702881
22	125.54103803634644	pulse	0	t		20.0	2.5	blank	1.0	145.6672101020813	
22	125.54931497573853	movie	1		301	20.0	2.5	blank	1.0	145.6754870414734	2.508401870727539
22	127.14108800888062	pulse	1	t		20.0	2.5	blank	1.0	147.26726007461548	
22	128.05771684646606	fix_post	2		12	20.0	2.5	blank	1.0	148.18388891220093	0.1001121997833252
23	128.1578290462494	fix_pre	0		120	21.0	2.5	/experiments/AOT/AOT_stimuli/rescaled_final/2159_fw.mp4	0.0	148.28400111198425	0.9997498989105225
23	128.74103498458862	pulse	0	t		21.0	2.5	/experiments/AOT/AOT_stimuli/rescaled_final/2159_fw.mp4	0.0	148.8672070503235	
23	129.1575789451599	movie	1		245	21.0	2.5	/experiments/AOT/AOT_stimuli/rescaled_final/2159_fw.mp4	0.0	149.28375101089478	2.5000290870666504
23	130.34133386611938	pulse	1	t		21.0	2.5	/experiments/AOT/AOT_stimuli/rescaled_final/2159_fw.mp4	0.0	150.46750593185425	
23	131.65760803222656	fix_post	2		12	21.0	2.5	/experiments/AOT/AOT_stimuli/rescaled_final/2159_fw.mp4	0.0	151.78378009796143	0.09991192817687988
24	131.75751996040344	fix_pre	0		120	22.0	2.5	/experiments/AOT/AOT_stimuli/rescaled_final/0898_fw.mp4	0.0	151.8836920261383	0.9996299743652344
24	131.94099497795105	pulse	0	t		22.0	2.5	/experiments/AOT/AOT_stimuli/rescaled_final/0898_fw.mp4	0.0	152.0671670436859	
24	132.75714993476868	movie	1		243	22.0	2.5	/experiments/AOT/AOT_stimuli/rescaled_final/0898_fw.mp4	0.0	152.88332200050354	2.5004589557647705
24	133.5410120487213	pulse	1	t		22.0	2.5	/experiments/AOT/AOT_stimuli/rescaled_final/0898_fw.mp4	0.0	153.66718411445618	
24	135.13976001739502	pulse	1	t		22.0	2.5	/experiments/AOT/AOT_stimuli/rescaled_final/0898_fw.mp4	0.0	155.26593208312988	
24	135.25760889053345	fix_post	2		12	22.0	2.5	/experiments/AOT/AOT_stimuli/rescaled_final/0898_fw.mp4	0.0	155.3837809562683	0.09998607635498047
25	135.35759496688843	fix_pre	0		120	23.0	2.5	/experiments/AOT/AOT_stimuli/rescaled_final/1088_fw.mp4	0.0	155.4837670326233	0.9999649524688721
25	136.3575599193573	movie	1		245	23.0	2.5	/experiments/AOT/AOT_stimuli/rescaled_final/1088_fw.mp4	0.0	156.48373198509216	2.4996259212493896
25	136.74065899848938	pulse	1	t		23.0	2.5	/experiments/AOT/AOT_stimuli/rescaled_final/1088_fw.mp4	0.0	156.86683106422424	
25	138.3410758972168	pulse	1	t		23.0	2.5	/experiments/AOT/AOT_stimuli/rescaled_final/1088_fw.mp4	0.0	158.46724796295166	
25	138.8571858406067	fix_post	2		12	23.0	2.5	/experiments/AOT/AOT_stimuli/rescaled_final/1088_fw.mp4	0.0	158.98335790634155	0.10044407844543457
26	138.95762991905212	fix_pre	0		119	24.0	2.5	/experiments/AOT/AOT_stimuli/rescaled_final/0813_fw.mp4	0.0	159.083801984787	0.9915609359741211
26	139.94107794761658	pulse	0	t		24.0	2.5	/experiments/AOT/AOT_stimuli/rescaled_final/0813_fw.mp4	0.0	160.06725001335144	
26	139.94919085502625	movie	1		245	24.0	2.5	/experiments/AOT/AOT_stimuli/rescaled_final/0813_fw.mp4	0.0	160.0753629207611	2.5084002017974854
26	141.5406539440155	pulse	1	t		24.0	2.5	/experiments/AOT/AOT_stimuli/rescaled_final/0813_fw.mp4	0.0	161.66682600975037	
26	142.45759105682373	fix_post	2		12	24.0	2.5	/experiments/AOT/AOT_stimuli/rescaled_final/0813_fw.mp4	0.0	162.5837631225586	0.0999598503112793
27	142.557550907135	fix_pre	0		120	25.0	2.5	/experiments/AOT/AOT_stimuli/rescaled_final/2166_rv.mp4	0.0	162.68372297286987	0.999993085861206
27	143.14104199409485	pulse	0	t		25.0	2.5	/experiments/AOT/AOT_stimuli/rescaled_final/2166_rv.mp4	0.0	163.2672140598297	
27	143.55754399299622	movie	1		244	25.0	2.5	/experiments/AOT/AOT_stimuli/rescaled_final/2166_rv.mp4	0.0	163.68371605873108	2.4999730587005615
27	144.74112391471863	pulse	1	t		25.0	2.5	/experiments/AOT/AOT_stimuli/rescaled_final/2166_rv.mp4	0.0	164.8672959804535	
27	146.05751705169678	fix_post	2		12	25.0	2.5	/experiments/AOT/AOT_stimuli/rescaled_final/2166_rv.mp4	0.0	166.18368911743164	0.10003900527954102
28	146.15755605697632	fix_pre	0		120	26.0	2.5	/experiments/AOT/AOT_stimuli/rescaled_final/1159_rv.mp4	0.0	166.28372812271118	0.9999949932098389
28	146.34103894233704	pulse	0	t		26.0	2.5	/experiments/AOT/AOT_stimuli/rescaled_final/1159_rv.mp4	0.0	166.4672110080719	
28	147.15755105018616	movie	1		245	26.0	2.5	/experiments/AOT/AOT_stimuli/rescaled_final/1159_rv.mp4	0.0	167.28372311592102	2.5000228881835938
28	147.9409999847412	pulse	1	t		26.0	2.5	/experiments/AOT/AOT_stimuli/rescaled_final/1159_rv.mp4	0.0	168.06717205047607	
28	149.54103899002075	pulse	1	t		26.0	2.5	/experiments/AOT/AOT_stimuli/rescaled_final/1159_rv.mp4	0.0	169.66721105575562	
28	149.65757393836975	fix_post	2		12	26.0	2.5	/experiments/AOT/AOT_stimuli/rescaled_final/1159_rv.mp4	0.0	169.78374600410461	0.09996509552001953
29	149.75753903388977	fix_pre	0		120	27.0	2.5	blank	1.0	169.88371109962463	1.000074863433838
29	150.7576138973236	movie	1		300	27.0	2.5	blank	1.0	170.88378596305847	2.4999239444732666
29	151.14099192619324	pulse	1	t		27.0	2.5	blank	1.0	171.2671639919281	
29	152.74096393585205	pulse	1	t		27.0	2.5	blank	1.0	172.8671360015869	
29	153.25753784179688	fix_post	2		12	27.0	2.5	blank	1.0	173.38370990753174	0.0999150276184082
30	153.35745286941528	fix_pre	0		119	28.0	2.5	/experiments/AOT/AOT_stimuli/rescaled_final/1454_fw.mp4	0.0	173.48362493515015	0.9917571544647217
30	154.34099292755127	pulse	0	t		28.0	2.5	/experiments/AOT/AOT_stimuli/rescaled_final/1454_fw.mp4	0.0	174.46716499328613	
30	154.34921002388	movie	1		246	28.0	2.5	/experiments/AOT/AOT_stimuli/rescaled_final/1454_fw.mp4	0.0	174.47538208961487	2.508309841156006
30	155.94057297706604	pulse	1	t		28.0	2.5	/experiments/AOT/AOT_stimuli/rescaled_final/1454_fw.mp4	0.0	176.0667450428009	
30	156.857519865036	fix_post	2		12	28.0	2.5	/experiments/AOT/AOT_stimuli/rescaled_final/1454_fw.mp4	0.0	176.98369193077087	0.10001897811889648
31	156.9575388431549	fix_pre	0		120	29.0	2.5	/experiments/AOT/AOT_stimuli/rescaled_final/1072_rv.mp4	0.0	177.08371090888977	0.9999690055847168
31	157.54103803634644	pulse	0	t		29.0	2.5	/experiments/AOT/AOT_stimuli/rescaled_final/1072_rv.mp4	0.0	177.6672101020813	
31	157.95750784873962	movie	1		244	29.0	2.5	/experiments/AOT/AOT_stimuli/rescaled_final/1072_rv.mp4	0.0	178.0836799144745	2.5001401901245117
31	159.14057207107544	pulse	1	t		29.0	2.5	/experiments/AOT/AOT_stimuli/rescaled_final/1072_rv.mp4	0.0	179.2667441368103	
31	160.45764803886414	fix_post	2		12	29.0	2.5	/experiments/AOT/AOT_stimuli/rescaled_final/1072_rv.mp4	0.0	180.583820104599	0.10004401206970215
32	160.55769205093384	fix_pre	0		120	30.0	2.5	/experiments/AOT/AOT_stimuli/rescaled_final/1902_fw.mp4	0.0	180.6838641166687	1.00010085105896
32	160.74114084243774	pulse	0	t		30.0	2.5	/experiments/AOT/AOT_stimuli/rescaled_final/1902_fw.mp4	0.0	180.8673129081726	
32	161.5577929019928	movie	1		245	30.0	2.5	/experiments/AOT/AOT_stimuli/rescaled_final/1902_fw.mp4	0.0	181.68396496772766	2.499207019805908
32	162.34092497825623	pulse	1	t		30.0	2.5	/experiments/AOT/AOT_stimuli/rescaled_final/1902_fw.mp4	0.0	182.4670970439911	
32	163.9395649433136	pulse	1	t		30.0	2.5	/experiments/AOT/AOT_stimuli/rescaled_final/1902_fw.mp4	0.0	184.06573700904846	
32	164.0569999217987	fix_post	2		12	30.0	2.5	/experiments/AOT/AOT_stimuli/rescaled_final/1902_fw.mp4	0.0	184.18317198753357	0.10048198699951172
33	164.15748190879822	fix_pre	0		120	31.0	2.5	/experiments/AOT/AOT_stimuli/rescaled_final/0091_fw.mp4	0.0	184.28365397453308	0.999582052230835
33	165.15706396102905	movie	1		248	31.0	2.5	/experiments/AOT/AOT_stimuli/rescaled_final/0091_fw.mp4	0.0	185.28323602676392	2.500446081161499
33	165.54072093963623	pulse	1	t		31.0	2.5	/experiments/AOT/AOT_stimuli/rescaled_final/0091_fw.mp4	0.0	185.6668930053711	
33	167.14082503318787	pulse	1	t		31.0	2.5	/experiments/AOT/AOT_stimuli/rescaled_final/0091_fw.mp4	0.0	187.26699709892273	
33	167.65751004219055	fix_post	2		12	31.0	2.5	/experiments/AOT/AOT_stimuli/rescaled_final/0091_fw.mp4	0.0	187.78368210792542	0.09991788864135742
34	167.7574279308319	fix_pre	0		119	32.0	2.5	/experiments/AOT/AOT_stimuli/rescaled_final/1740_rv.mp4	0.0	187.88359999656677	0.9916889667510986
34	168.74095797538757	pulse	0	t		32.0	2.5	/experiments/AOT/AOT_stimuli/rescaled_final/1740_rv.mp4	0.0	188.86713004112244	
34	168.749116897583	movie	1		244	32.0	2.5	/experiments/AOT/AOT_stimuli/rescaled_final/1740_rv.mp4	0.0	188.87528896331787	2.508255958557129
34	170.34050798416138	pulse	1	t		32.0	2.5	/experiments/AOT/AOT_stimuli/rescaled_final/1740_rv.mp4	0.0	190.46668004989624	
34	171.25737285614014	fix_post	2		12	32.0	2.5	/experiments/AOT/AOT_stimuli/rescaled_final/1740_rv.mp4	0.0	191.383544921875	0.10005617141723633
35	171.35742902755737	fix_pre	0		120	33.0	2.5	/experiments/AOT/AOT_stimuli/rescaled_final/1619_fw.mp4	0.0	191.48360109329224	0.9999489784240723
35	171.94087386131287	pulse	0	t		33.0	2.5	/experiments/AOT/AOT_stimuli/rescaled_final/1619_fw.mp4	0.0	192.06704592704773	
35	172.35737800598145	movie	1		244	33.0	2.5	/experiments/AOT/AOT_stimuli/rescaled_final/1619_fw.mp4	0.0	192.4835500717163	2.500040054321289
35	173.54094696044922	pulse	1	t		33.0	2.5	/experiments/AOT/AOT_stimuli/rescaled_final/1619_fw.mp4	0.0	193.66711902618408	
35	174.85741806030273	fix_post	2		12	33.0	2.5	/experiments/AOT/AOT_stimuli/rescaled_final/1619_fw.mp4	0.0	194.9835901260376	0.09998297691345215
36	174.9574010372162	fix_pre	0		120	34.0	2.5	/experiments/AOT/AOT_stimuli/rescaled_final/0055_rv.mp4	0.0	195.08357310295105	1.0000200271606445
36	175.1409158706665	pulse	0	t		34.0	2.5	/experiments/AOT/AOT_stimuli/rescaled_final/0055_rv.mp4	0.0	195.26708793640137	
36	175.95742106437683	movie	1		245	34.0	2.5	/experiments/AOT/AOT_stimuli/rescaled_final/0055_rv.mp4	0.0	196.0835931301117	2.4999639987945557
36	176.74089097976685	pulse	1	t		34.0	2.5	/experiments/AOT/AOT_stimuli/rescaled_final/0055_rv.mp4	0.0	196.8670630455017	
36	178.3393268585205	pulse	1	t		34.0	2.5	/experiments/AOT/AOT_stimuli/rescaled_final/0055_rv.mp4	0.0	198.46549892425537	
36	178.4573850631714	fix_post	2		12	34.0	2.5	/experiments/AOT/AOT_stimuli/rescaled_final/0055_rv.mp4	0.0	198.58355712890625	0.10001492500305176
37	178.55739998817444	fix_pre	0		120	35.0	2.5	blank	1.0	198.6835720539093	1.0000269412994385
37	179.55742692947388	movie	1		300	35.0	2.5	blank	1.0	199.68359899520874	2.5000109672546387
37	179.94088006019592	pulse	1	t		35.0	2.5	blank	1.0	200.0670521259308	
37	181.5409140586853	pulse	1	t		35.0	2.5	blank	1.0	201.66708612442017	
37	182.05743789672852	fix_post	2		12	35.0	2.5	blank	1.0	202.18360996246338	0.09992408752441406
38	182.15736198425293	fix_pre	0		119	36.0	2.5	/experiments/AOT/AOT_stimuli/rescaled_final/2090_fw.mp4	0.0	202.2835340499878	0.9916529655456543
38	183.1410949230194	pulse	0	t		36.0	2.5	/experiments/AOT/AOT_stimuli/rescaled_final/2090_fw.mp4	0.0	203.26726698875427	
38	183.14901494979858	movie	1		244	36.0	2.5	/experiments/AOT/AOT_stimuli/rescaled_final/2090_fw.mp4	0.0	203.27518701553345	2.5083470344543457
38	184.7403519153595	pulse	1	t		36.0	2.5	/experiments/AOT/AOT_stimuli/rescaled_final/2090_fw.mp4	0.0	204.86652398109436	
38	185.65736198425293	fix_post	2		12	36.0	2.5	/experiments/AOT/AOT_stimuli/rescaled_final/2090_fw.mp4	0.0	205.7835340499878	0.10001206398010254
39	185.75737404823303	fix_pre	0		120	37.0	2.5	/experiments/AOT/AOT_stimuli/rescaled_final/2109_rv.mp4	0.0	205.8835461139679	0.999891996383667
39	186.34082698822021	pulse	0	t		37.0	2.5	/experiments/AOT/AOT_stimuli/rescaled_final/2109_rv.mp4	0.0	206.46699905395508	
39	186.7572660446167	movie	1		243	37.0	2.5	/experiments/AOT/AOT_stimuli/rescaled_final/2109_rv.mp4	0.0	206.88343811035156	2.5000228881835938
39	187.94083285331726	pulse	1	t		37.0	2.5	/experiments/AOT/AOT_stimuli/rescaled_final/2109_rv.mp4	0.0	208.06700491905212	
39	189.2572889328003	fix_post	2		12	37.0	2.5	/experiments/AOT/AOT_stimuli/rescaled_final/2109_rv.mp4	0.0	209.38346099853516	0.10004091262817383
40	189.35732984542847	fix_pre	0		120	38.0	2.5	/experiments/AOT/AOT_stimuli/rescaled_final/1867_rv.mp4	0.0	209.48350191116333	0.9995779991149902
40	189.5406849384308	pulse	0	t		38.0	2.5	/experiments/AOT/AOT_stimuli/rescaled_final/1867_rv.mp4	0.0	209.66685700416565	
40	190.35690784454346	movie	1		244	38.0	2.5	/experiments/AOT/AOT_stimuli/rescaled_final/1867_rv.mp4	0.0	210.48307991027832	2.500437021255493
40	191.1407458782196	pulse	1	t		38.0	2.5	/experiments/AOT/AOT_stimuli/rescaled_final/1867_rv.mp4	0.0	211.26691794395447	
40	192.7393250465393	pulse	1	t		38.0	2.5	/experiments/AOT/AOT_stimuli/rescaled_final/1867_rv.mp4	0.0	212.86549711227417	
40	192.85734486579895	fix_post	2		12	38.0	2.5	/experiments/AOT/AOT_stimuli/rescaled_final/1867_rv.mp4	0.0	212.9835169315338	0.10002899169921875
41	192.95737385749817	fix_pre	0		120	39.0	2.5	/experiments/AOT/AOT_stimuli/rescaled_final/1188_rv.mp4	0.0	213.08354592323303	0.999934196472168
41	193.95730805397034	movie	1		244	39.0	2.5	/experiments/AOT/AOT_stimuli/rescaled_final/1188_rv.mp4	0.0	214.0834801197052	2.5000967979431152
41	194.3406858444214	pulse	1	t		39.0	2.5	/experiments/AOT/AOT_stimuli/rescaled_final/1188_rv.mp4	0.0	214.46685791015625	
41	195.94069504737854	pulse	1	t		39.0	2.5	/experiments/AOT/AOT_stimuli/rescaled_final/1188_rv.mp4	0.0	216.0668671131134	
41	196.45740485191345	fix_post	2		12	39.0	2.5	/experiments/AOT/AOT_stimuli/rescaled_final/1188_rv.mp4	0.0	216.58357691764832	0.0998849868774414
42	196.5572898387909	fix_pre	0		119	40.0	2.5	blank	1.0	216.68346190452576	0.9917740821838379
42	197.54077887535095	pulse	0	t		40.0	2.5	blank	1.0	217.66695094108582	
42	197.54906392097473	movie	1		301	40.0	2.5	blank	1.0	217.6752359867096	2.5081851482391357
42	199.14087104797363	pulse	1	t		40.0	2.5	blank	1.0	219.2670431137085	
42	200.05724906921387	fix_post	2		12	40.0	2.5	blank	1.0	220.18342113494873	0.10002994537353516
43	200.1572790145874	fix_pre	0		120	41.0	2.5	/experiments/AOT/AOT_stimuli/rescaled_final/1088_rv.mp4	0.0	220.28345108032227	1.0000519752502441
43	200.74080896377563	pulse	0	t		41.0	2.5	/experiments/AOT/AOT_stimuli/rescaled_final/1088_rv.mp4	0.0	220.8669810295105	
43	201.15733098983765	movie	1		246	41.0	2.5	/experiments/AOT/AOT_stimuli/rescaled_final/1088_rv.mp4	0.0	221.2835030555725	2.4998650550842285
43	202.34083795547485	pulse	1	t		41.0	2.5	/experiments/AOT/AOT_stimuli/rescaled_final/1088_rv.mp4	0.0	222.46701002120972	
43	203.65719604492188	fix_post	2		12	41.0	2.5	/experiments/AOT/AOT_stimuli/rescaled_final/1088_rv.mp4	0.0	223.78336811065674	0.10008692741394043
44	203.75728297233582	fix_pre	0		120	42.0	2.5	/experiments/AOT/AOT_stimuli/rescaled_final/1896_fw.mp4	0.0	223.88345503807068	0.9999699592590332
44	203.9407880306244	pulse	0	t		42.0	2.5	/experiments/AOT/AOT_stimuli/rescaled_final/1896_fw.mp4	0.0	224.06696009635925	
44	204.75725293159485	movie	1		243	42.0	2.5	/experiments/AOT/AOT_stimuli/rescaled_final/1896_fw.mp4	0.0	224.8834249973297	2.4999611377716064
44	205.54072189331055	pulse	1	t		42.0	2.5	/experiments/AOT/AOT_stimuli/rescaled_final/1896_fw.mp4	0.0	225.6668939590454	
44	207.13930201530457	pulse	1	t		42.0	2.5	/experiments/AOT/AOT_stimuli/rescaled_final/1896_fw.mp4	0.0	227.26547408103943	
44	207.25721406936646	fix_post	2		12	42.0	2.5	/experiments/AOT/AOT_stimuli/rescaled_final/1896_fw.mp4	0.0	227.38338613510132	0.10017991065979004
45	207.35739398002625	fix_pre	0		120	43.0	2.5	/experiments/AOT/AOT_stimuli/rescaled_final/0679_rv.mp4	0.0	227.4835660457611	0.9998409748077393
45	208.35723495483398	movie	1		244	43.0	2.5	/experiments/AOT/AOT_stimuli/rescaled_final/0679_rv.mp4	0.0	228.48340702056885	2.499958038330078
45	208.74072694778442	pulse	1	t		43.0	2.5	/experiments/AOT/AOT_stimuli/rescaled_final/0679_rv.mp4	0.0	228.8668990135193	
45	210.3407759666443	pulse	1	t		43.0	2.5	/experiments/AOT/AOT_stimuli/rescaled_final/0679_rv.mp4	0.0	230.46694803237915	
45	210.85719299316406	fix_post	2		12	43.0	2.5	/experiments/AOT/AOT_stimuli/rescaled_final/0679_rv.mp4	0.0	230.98336505889893	0.10001087188720703
46	210.95720386505127	fix_pre	0		119	44.0	2.5	/experiments/AOT/AOT_stimuli/rescaled_final/1862_fw.mp4	0.0	231.08337593078613	0.9917371273040771
46	211.94078493118286	pulse	0	t		44.0	2.5	/experiments/AOT/AOT_stimuli/rescaled_final/1862_fw.mp4	0.0	232.06695699691772	
46	211.94894099235535	movie	1		245	44.0	2.5	/experiments/AOT/AOT_stimuli/rescaled_final/1862_fw.mp4	0.0	232.0751130580902	2.5083680152893066
46	213.54018187522888	pulse	1	t		44.0	2.5	/experiments/AOT/AOT_stimuli/rescaled_final/1862_fw.mp4	0.0	233.66635394096375	
46	214.45730900764465	fix_post	2		12	44.0	2.5	/experiments/AOT/AOT_stimuli/rescaled_final/1862_fw.mp4	0.0	234.58348107337952	0.09956693649291992
47	214.55687594413757	fix_pre	0		120	45.0	2.5	/experiments/AOT/AOT_stimuli/rescaled_final/0169_fw.mp4	0.0	234.68304800987244	1.0004489421844482
47	215.14026284217834	pulse	0	t		45.0	2.5	/experiments/AOT/AOT_stimuli/rescaled_final/0169_fw.mp4	0.0	235.2664349079132	
47	215.55732488632202	movie	1		243	45.0	2.5	/experiments/AOT/AOT_stimuli/rescaled_final/0169_fw.mp4	0.0	235.68349695205688	2.4999771118164062
47	216.74058198928833	pulse	1	t		45.0	2.5	/experiments/AOT/AOT_stimuli/rescaled_final/0169_fw.mp4	0.0	236.8667540550232	
47	218.05730199813843	fix_post	2		12	45.0	2.5	/experiments/AOT/AOT_stimuli/rescaled_final/0169_fw.mp4	0.0	238.1834740638733	0.09998106956481934
48	218.15728306770325	fix_pre	0		120	46.0	2.5	/experiments/AOT/AOT_stimuli/rescaled_final/0685_rv.mp4	0.0	238.2834551334381	0.9995839595794678
48	218.3407850265503	pulse	0	t		46.0	2.5	/experiments/AOT/AOT_stimuli/rescaled_final/0685_rv.mp4	0.0	238.46695709228516	
48	219.15686702728271	movie	1		245	46.0	2.5	/experiments/AOT/AOT_stimuli/rescaled_final/0685_rv.mp4	0.0	239.28303909301758	2.4998860359191895
48	219.94063186645508	pulse	1	t		46.0	2.5	/experiments/AOT/AOT_stimuli/rescaled_final/0685_rv.mp4	0.0	240.06680393218994	
48	221.53937005996704	pulse	1	t		46.0	2.5	/experiments/AOT/AOT_stimuli/rescaled_final/0685_rv.mp4	0.0	241.6655421257019	
48	221.6567530632019	fix_post	2		12	46.0	2.5	/experiments/AOT/AOT_stimuli/rescaled_final/0685_rv.mp4	0.0	241.78292512893677	0.10048890113830566
49	221.7572419643402	fix_pre	0		120	47.0	2.5	/experiments/AOT/AOT_stimuli/rescaled_final/0364_rv.mp4	0.0	241.88341403007507	0.9998939037322998
49	222.7571358680725	movie	1		246	47.0	2.5	/experiments/AOT/AOT_stimuli/rescaled_final/0364_rv.mp4	0.0	242.88330793380737	2.5000391006469727
49	223.1403579711914	pulse	1	t		47.0	2.5	/experiments/AOT/AOT_stimuli/rescaled_final/0364_rv.mp4	0.0	243.26653003692627	
49	224.74062085151672	pulse	1	t		47.0	2.5	/experiments/AOT/AOT_stimuli/rescaled_final/0364_rv.mp4	0.0	244.8667929172516	
49	225.25717496871948	fix_post	2		12	47.0	2.5	/experiments/AOT/AOT_stimuli/rescaled_final/0364_rv.mp4	0.0	245.38334703445435	0.09995603561401367
50	225.3571310043335	fix_pre	0		119	48.0	2.5	blank	1.0	245.48330307006836	0.9916689395904541
50	226.34060502052307	pulse	0	t		48.0	2.5	blank	1.0	246.46677708625793	
50	226.34879994392395	movie	1		301	48.0	2.5	blank	1.0	246.4749720096588	2.5080161094665527
50	227.940593957901	pulse	1	t		48.0	2.5	blank	1.0	248.06676602363586	
50	228.8568160533905	fix_post	2		12	48.0	2.5	blank	1.0	248.98298811912537	0.10029888153076172
51	228.95711493492126	fix_pre	0		120	49.0	2.5	/experiments/AOT/AOT_stimuli/rescaled_final/1445_rv.mp4	0.0	249.08328700065613	1.0000979900360107
51	229.54049396514893	pulse	0	t		49.0	2.5	/experiments/AOT/AOT_stimuli/rescaled_final/1445_rv.mp4	0.0	249.6666660308838	
51	229.95721292495728	movie	1		243	49.0	2.5	/experiments/AOT/AOT_stimuli/rescaled_final/1445_rv.mp4	0.0	250.08338499069214	2.499526023864746
51	231.14062905311584	pulse	1	t		49.0	2.5	/experiments/AOT/AOT_stimuli/rescaled_final/1445_rv.mp4	0.0	251.2668011188507	
51	232.45673894882202	fix_post	2		12	49.0	2.5	/experiments/AOT/AOT_stimuli/rescaled_final/1445_rv.mp4	0.0	252.58291101455688	0.10035991668701172
52	232.55709886550903	fix_pre	0		120	50.0	2.5	/experiments/AOT/AOT_stimuli/rescaled_final/0842_rv.mp4	0.0	252.6832709312439	1.000035047531128
52	232.74061584472656	pulse	0	t		50.0	2.5	/experiments/AOT/AOT_stimuli/rescaled_final/0842_rv.mp4	0.0	252.86678791046143	
52	233.55713391304016	movie	1		244	50.0	2.5	/experiments/AOT/AOT_stimuli/rescaled_final/0842_rv.mp4	0.0	253.68330597877502	2.4995720386505127
52	234.34056305885315	pulse	1	t		50.0	2.5	/experiments/AOT/AOT_stimuli/rescaled_final/0842_rv.mp4	0.0	254.466735124588	
52	235.93918991088867	pulse	1	t		50.0	2.5	/experiments/AOT/AOT_stimuli/rescaled_final/0842_rv.mp4	0.0	256.06536197662354	
52	236.05670595169067	fix_post	2		12	50.0	2.5	/experiments/AOT/AOT_stimuli/rescaled_final/0842_rv.mp4	0.0	256.18287801742554	0.10038208961486816
53	236.15708804130554	fix_pre	0		120	51.0	2.5	/experiments/AOT/AOT_stimuli/rescaled_final/0423_fw.mp4	0.0	256.2832601070404	0.999992847442627
53	237.15708088874817	movie	1		244	51.0	2.5	/experiments/AOT/AOT_stimuli/rescaled_final/0423_fw.mp4	0.0	257.28325295448303	2.500009059906006
53	237.54156398773193	pulse	1	t		51.0	2.5	/experiments/AOT/AOT_stimuli/rescaled_final/0423_fw.mp4	0.0	257.6677360534668	
53	239.14061403274536	pulse	1	t		51.0	2.5	/experiments/AOT/AOT_stimuli/rescaled_final/0423_fw.mp4	0.0	259.2667860984802	
53	239.65708994865417	fix_post	2		12	51.0	2.5	/experiments/AOT/AOT_stimuli/rescaled_final/0423_fw.mp4	0.0	259.78326201438904	0.09997892379760742
54	239.75706887245178	fix_pre	0		119	52.0	2.5	/experiments/AOT/AOT_stimuli/rescaled_final/1991_fw.mp4	0.0	259.88324093818665	0.991645097732544
54	240.74054193496704	pulse	0	t		52.0	2.5	/experiments/AOT/AOT_stimuli/rescaled_final/1991_fw.mp4	0.0	260.8667140007019	
54	240.74871397018433	movie	1		245	52.0	2.5	/experiments/AOT/AOT_stimuli/rescaled_final/1991_fw.mp4	0.0	260.8748860359192	2.5079739093780518
54	242.34012293815613	pulse	1	t		52.0	2.5	/experiments/AOT/AOT_stimuli/rescaled_final/1991_fw.mp4	0.0	262.466295003891	
54	243.25668787956238	fix_post	2		12	52.0	2.5	/experiments/AOT/AOT_stimuli/rescaled_final/1991_fw.mp4	0.0	263.38285994529724	0.10038518905639648
55	243.35707306861877	fix_pre	0		120	53.0	2.5	/experiments/AOT/AOT_stimuli/rescaled_final/0250_fw.mp4	0.0	263.48324513435364	0.9999918937683105
55	243.94057202339172	pulse	0	t		53.0	2.5	/experiments/AOT/AOT_stimuli/rescaled_final/0250_fw.mp4	0.0	264.0667440891266	
55	244.35706496238708	movie	1		246	53.0	2.5	/experiments/AOT/AOT_stimuli/rescaled_final/0250_fw.mp4	0.0	264.48323702812195	2.4999940395355225
55	245.54059505462646	pulse	1	t		53.0	2.5	/experiments/AOT/AOT_stimuli/rescaled_final/0250_fw.mp4	0.0	265.6667671203613	
55	246.8570590019226	fix_post	2		12	53.0	2.5	/experiments/AOT/AOT_stimuli/rescaled_final/0250_fw.mp4	0.0	266.98323106765747	0.10002994537353516
56	246.95708894729614	fix_pre	0		120	54.0	2.5	blank	1.0	267.083261013031	1.0000998973846436
56	247.1405110359192	pulse	0	t		54.0	2.5	blank	1.0	267.26668310165405	
56	247.9571888446808	movie	1		300	54.0	2.5	blank	1.0	268.08336091041565	2.499843120574951
56	248.7405219078064	pulse	1	t		54.0	2.5	blank	1.0	268.86669397354126	
56	250.34053301811218	pulse	1	t		54.0	2.5	blank	1.0	270.46670508384705	
56	250.45703196525574	fix_post	2		12	54.0	2.5	blank	1.0	270.5832040309906	0.09998488426208496
57	250.55701684951782	fix_pre	0		120	55.0	2.5	/experiments/AOT/AOT_stimuli/rescaled_final/1406_fw.mp4	0.0	270.6831889152527	1.0000371932983398
57	251.55705404281616	movie	1		243	55.0	2.5	/experiments/AOT/AOT_stimuli/rescaled_final/1406_fw.mp4	0.0	271.683226108551	2.500027894973755
57	251.9402780532837	pulse	1	t		55.0	2.5	/experiments/AOT/AOT_stimuli/rescaled_final/1406_fw.mp4	0.0	272.06645011901855	
57	253.54046297073364	pulse	1	t		55.0	2.5	/experiments/AOT/AOT_stimuli/rescaled_final/1406_fw.mp4	0.0	273.6666350364685	
57	254.05708193778992	fix_post	2		12	55.0	2.5	/experiments/AOT/AOT_stimuli/rescaled_final/1406_fw.mp4	0.0	274.1832540035248	0.0999760627746582
58	254.15705800056458	fix_pre	0		119	56.0	2.5	/experiments/AOT/AOT_stimuli/rescaled_final/1740_rv.mp4	0.0	274.28323006629944	0.9916460514068604
58	255.14049005508423	pulse	0	t		56.0	2.5	/experiments/AOT/AOT_stimuli/rescaled_final/1740_rv.mp4	0.0	275.2666621208191	
58	255.14870405197144	movie	1		243	56.0	2.5	/experiments/AOT/AOT_stimuli/rescaled_final/1740_rv.mp4	0.0	275.2748761177063	2.5083248615264893
58	256.74185490608215	pulse	1	t		56.0	2.5	/experiments/AOT/AOT_stimuli/rescaled_final/1740_rv.mp4	0.0	276.868026971817	
58	257.6570289134979	fix_post	2		12	56.0	2.5	/experiments/AOT/AOT_stimuli/rescaled_final/1740_rv.mp4	0.0	277.7832009792328	0.09960412979125977
59	257.7566330432892	fix_pre	0		120	57.0	2.5	/experiments/AOT/AOT_stimuli/rescaled_final/1406_fw.mp4	0.0	277.88280510902405	1.0003678798675537
59	258.34052205085754	pulse	0	t		57.0	2.5	/experiments/AOT/AOT_stimuli/rescaled_final/1406_fw.mp4	0.0	278.4666941165924	
59	258.75700092315674	movie	1		243	57.0	2.5	/experiments/AOT/AOT_stimuli/rescaled_final/1406_fw.mp4	0.0	278.8831729888916	2.5000901222229004
59	259.9405288696289	pulse	1	t		57.0	2.5	/experiments/AOT/AOT_stimuli/rescaled_final/1406_fw.mp4	0.0	280.06670093536377	
59	261.25709104537964	fix_post	2		12	57.0	2.5	/experiments/AOT/AOT_stimuli/rescaled_final/1406_fw.mp4	0.0	281.3832631111145	0.09980392456054688
60	261.3568949699402	fix_pre	0		120	58.0	2.5	/experiments/AOT/AOT_stimuli/rescaled_final/1038_fw.mp4	0.0	281.48306703567505	1.0001649856567383
60	261.5404019355774	pulse	0	t		58.0	2.5	/experiments/AOT/AOT_stimuli/rescaled_final/1038_fw.mp4	0.0	281.66657400131226	
60	262.3570599555969	movie	1		243	58.0	2.5	/experiments/AOT/AOT_stimuli/rescaled_final/1038_fw.mp4	0.0	282.4832320213318	2.499922037124634
60	263.1404640674591	pulse	1	t		58.0	2.5	/experiments/AOT/AOT_stimuli/rescaled_final/1038_fw.mp4	0.0	283.26663613319397	
60	264.7388479709625	pulse	1	t		58.0	2.5	/experiments/AOT/AOT_stimuli/rescaled_final/1038_fw.mp4	0.0	284.8650200366974	
60	264.85698199272156	fix_post	2		12	58.0	2.5	/experiments/AOT/AOT_stimuli/rescaled_final/1038_fw.mp4	0.0	284.9831540584564	0.1000509262084961
61	264.95703291893005	fix_pre	0		120	59.0	2.5	/experiments/AOT/AOT_stimuli/rescaled_final/0599_rv.mp4	0.0	285.0832049846649	0.9994709491729736
61	265.956503868103	movie	1		244	59.0	2.5	/experiments/AOT/AOT_stimuli/rescaled_final/0599_rv.mp4	0.0	286.0826759338379	2.5001401901245117
61	266.3418688774109	pulse	1	t		59.0	2.5	/experiments/AOT/AOT_stimuli/rescaled_final/0599_rv.mp4	0.0	286.46804094314575	
61	267.9405629634857	pulse	1	t		59.0	2.5	/experiments/AOT/AOT_stimuli/rescaled_final/0599_rv.mp4	0.0	288.0667350292206	
61	268.45664405822754	fix_post	2		12	59.0	2.5	/experiments/AOT/AOT_stimuli/rescaled_final/0599_rv.mp4	0.0	288.5828161239624	0.10033392906188965
62	268.55697798728943	fix_pre	0		119	60.0	2.5	/experiments/AOT/AOT_stimuli/rescaled_final/1574_rv.mp4	0.0	288.6831500530243	0.9917140007019043
62	269.5405650138855	pulse	0	t		60.0	2.5	/experiments/AOT/AOT_stimuli/rescaled_final/1574_rv.mp4	0.0	289.66673707962036	
62	269.54869198799133	movie	1		247	60.0	2.5	/experiments/AOT/AOT_stimuli/rescaled_final/1574_rv.mp4	0.0	289.6748640537262	2.5084190368652344
62	271.13991594314575	pulse	1	t		60.0	2.5	/experiments/AOT/AOT_stimuli/rescaled_final/1574_rv.mp4	0.0	291.2660880088806	
62	272.05711102485657	fix_post	2		12	60.0	2.5	/experiments/AOT/AOT_stimuli/rescaled_final/1574_rv.mp4	0.0	292.18328309059143	0.09970498085021973
63	272.1568160057068	fix_pre	0		120	61.0	2.5	/experiments/AOT/AOT_stimuli/rescaled_final/1184_fw.mp4	0.0	292.28298807144165	1.0000460147857666
63	272.7402789592743	pulse	0	t		61.0	2.5	/experiments/AOT/AOT_stimuli/rescaled_final/1184_fw.mp4	0.0	292.86645102500916	
63	273.15686202049255	movie	1		246	61.0	2.5	/experiments/AOT/AOT_stimuli/rescaled_final/1184_fw.mp4	0.0	293.2830340862274	2.499650001525879
63	274.34047293663025	pulse	1	t		61.0	2.5	/experiments/AOT/AOT_stimuli/rescaled_final/1184_fw.mp4	0.0	294.4666450023651	
63	275.65651202201843	fix_post	2		12	61.0	2.5	/experiments/AOT/AOT_stimuli/rescaled_final/1184_fw.mp4	0.0	295.7826840877533	0.10039591789245605
64	275.7569079399109	fix_pre	0		120	62.0	2.5	/experiments/AOT/AOT_stimuli/rescaled_final/0542_fw.mp4	0.0	295.88308000564575	1.0001249313354492
64	275.940367937088	pulse	0	t		62.0	2.5	/experiments/AOT/AOT_stimuli/rescaled_final/0542_fw.mp4	0.0	296.0665400028229	
64	276.75703287124634	movie	1		247	62.0	2.5	/experiments/AOT/AOT_stimuli/rescaled_final/0542_fw.mp4	0.0	296.8832049369812	2.4998960494995117
64	277.5403850078583	pulse	1	t		62.0	2.5	/experiments/AOT/AOT_stimuli/rescaled_final/0542_fw.mp4	0.0	297.66655707359314	
64	279.1403329372406	pulse	1	t		62.0	2.5	/experiments/AOT/AOT_stimuli/rescaled_final/0542_fw.mp4	0.0	299.26650500297546	
64	279.25692892074585	fix_post	2		12	62.0	2.5	/experiments/AOT/AOT_stimuli/rescaled_final/0542_fw.mp4	0.0	299.3831009864807	0.09995412826538086
65	279.35688304901123	fix_pre	0		120	63.0	2.5	blank	1.0	299.4830551147461	1.0000088214874268
65	280.35689187049866	movie	1		300	63.0	2.5	blank	1.0	300.4830639362335	2.5000221729278564
65	280.74036407470703	pulse	1	t		63.0	2.5	blank	1.0	300.8665361404419	
65	282.3403809070587	pulse	1	t		63.0	2.5	blank	1.0	302.4665529727936	
65	282.8569140434265	fix_post	2		12	63.0	2.5	blank	1.0	302.9830861091614	0.09952688217163086
66	282.95644092559814	fix_pre	0		119	64.0	2.5	/experiments/AOT/AOT_stimuli/rescaled_final/1954_fw.mp4	0.0	303.082612991333	0.9921700954437256
66	283.94032406806946	pulse	0	t		64.0	2.5	/experiments/AOT/AOT_stimuli/rescaled_final/1954_fw.mp4	0.0	304.0664961338043	
66	283.94861102104187	movie	1		245	64.0	2.5	/experiments/AOT/AOT_stimuli/rescaled_final/1954_fw.mp4	0.0	304.07478308677673	2.5078279972076416
66	285.53993105888367	pulse	1	t		64.0	2.5	/experiments/AOT/AOT_stimuli/rescaled_final/1954_fw.mp4	0.0	305.66610312461853	
66	286.4564390182495	fix_post	2		12	64.0	2.5	/experiments/AOT/AOT_stimuli/rescaled_final/1954_fw.mp4	0.0	306.5826110839844	0.10041403770446777
67	286.556853055954	fix_pre	0		120	65.0	2.5	/experiments/AOT/AOT_stimuli/rescaled_final/1662_fw.mp4	0.0	306.68302512168884	0.99959397315979
67	287.14028000831604	pulse	0	t		65.0	2.5	/experiments/AOT/AOT_stimuli/rescaled_final/1662_fw.mp4	0.0	307.2664520740509	
67	287.55644702911377	movie	1		243	65.0	2.5	/experiments/AOT/AOT_stimuli/rescaled_final/1662_fw.mp4	0.0	307.68261909484863	2.4999728202819824
67	288.7403998374939	pulse	1	t		65.0	2.5	/experiments/AOT/AOT_stimuli/rescaled_final/1662_fw.mp4	0.0	308.86657190322876	
67	290.05641984939575	fix_post	2		12	65.0	2.5	/experiments/AOT/AOT_stimuli/rescaled_final/1662_fw.mp4	0.0	310.1825919151306	0.10042119026184082
68	290.1568410396576	fix_pre	0		120	66.0	2.5	/experiments/AOT/AOT_stimuli/rescaled_final/1864_rv.mp4	0.0	310.28301310539246	1.0000779628753662
68	290.34038496017456	pulse	0	t		66.0	2.5	/experiments/AOT/AOT_stimuli/rescaled_final/1864_rv.mp4	0.0	310.4665570259094	
68	291.15691900253296	movie	1		244	66.0	2.5	/experiments/AOT/AOT_stimuli/rescaled_final/1864_rv.mp4	0.0	311.2830910682678	2.4998810291290283
68	291.94027185440063	pulse	1	t		66.0	2.5	/experiments/AOT/AOT_stimuli/rescaled_final/1864_rv.mp4	0.0	312.0664439201355	
68	293.5387029647827	pulse	1	t		66.0	2.5	/experiments/AOT/AOT_stimuli/rescaled_final/1864_rv.mp4	0.0	313.6648750305176	
68	293.656800031662	fix_post	2		12	66.0	2.5	/experiments/AOT/AOT_stimuli/rescaled_final/1864_rv.mp4	0.0	313.78297209739685	0.09997081756591797
69	293.7567708492279	fix_pre	0		120	67.0	2.5	/experiments/AOT/AOT_stimuli/rescaled_final/1506_fw.mp4	0.0	313.88294291496277	1.000101089477539
69	294.75687193870544	movie	1		242	67.0	2.5	/experiments/AOT/AOT_stimuli/rescaled_final/1506_fw.mp4	0.0	314.8830440044403	2.499911069869995
69	295.14011883735657	pulse	1	t		67.0	2.5	/experiments/AOT/AOT_stimuli/rescaled_final/1506_fw.mp4	0.0	315.26629090309143	
69	296.7403600215912	pulse	1	t		67.0	2.5	/experiments/AOT/AOT_stimuli/rescaled_final/1506_fw.mp4	0.0	316.86653208732605	
69	297.25678300857544	fix_post	2		12	67.0	2.5	/experiments/AOT/AOT_stimuli/rescaled_final/1506_fw.mp4	0.0	317.3829550743103	0.10003805160522461
70	297.35682106018066	fix_pre	0		119	68.0	2.5	/experiments/AOT/AOT_stimuli/rescaled_final/0912_rv.mp4	0.0	317.4829931259155	0.9916319847106934
70	298.34030389785767	pulse	0	t		68.0	2.5	/experiments/AOT/AOT_stimuli/rescaled_final/0912_rv.mp4	0.0	318.46647596359253	
70	298.34845304489136	movie	1		244	68.0	2.5	/experiments/AOT/AOT_stimuli/rescaled_final/0912_rv.mp4	0.0	318.4746251106262	2.50834584236145
70	299.94055700302124	pulse	1	t		68.0	2.5	/experiments/AOT/AOT_stimuli/rescaled_final/0912_rv.mp4	0.0	320.0667290687561	
70	300.8567988872528	fix_post	2		12	68.0	2.5	/experiments/AOT/AOT_stimuli/rescaled_final/0912_rv.mp4	0.0	320.98297095298767	0.09959006309509277
71	300.9563889503479	fix_pre	0		120	69.0	2.5	blank	1.0	321.08256101608276	1.0003399848937988
71	301.5403070449829	pulse	0	t		69.0	2.5	blank	1.0	321.6664791107178	
71	301.9567289352417	movie	1		300	69.0	2.5	blank	1.0	322.08290100097656	2.500136137008667
71	303.140261888504	pulse	1	t		69.0	2.5	blank	1.0	323.2664339542389	
71	304.45686507225037	fix_post	2		12	69.0	2.5	blank	1.0	324.58303713798523	0.09987688064575195
72	304.5567419528961	fix_pre	0		120	70.0	2.5	/experiments/AOT/AOT_stimuli/rescaled_final/1350_rv.mp4	0.0	324.682914018631	1.0000569820404053
72	304.7402980327606	pulse	0	t		70.0	2.5	/experiments/AOT/AOT_stimuli/rescaled_final/1350_rv.mp4	0.0	324.8664700984955	
72	305.5567989349365	movie	1		245	70.0	2.5	/experiments/AOT/AOT_stimuli/rescaled_final/1350_rv.mp4	0.0	325.6829710006714	2.499972105026245
72	306.34025406837463	pulse	1	t		70.0	2.5	/experiments/AOT/AOT_stimuli/rescaled_final/1350_rv.mp4	0.0	326.4664261341095	
72	307.93895292282104	pulse	1	t		70.0	2.5	/experiments/AOT/AOT_stimuli/rescaled_final/1350_rv.mp4	0.0	328.0651249885559	
72	308.05677103996277	fix_post	2		12	70.0	2.5	/experiments/AOT/AOT_stimuli/rescaled_final/1350_rv.mp4	0.0	328.18294310569763	0.10000085830688477
73	308.15677189826965	fix_pre	0		120	71.0	2.5	/experiments/AOT/AOT_stimuli/rescaled_final/0720_rv.mp4	0.0	328.2829439640045	0.9996070861816406
73	309.1563789844513	movie	1		247	71.0	2.5	/experiments/AOT/AOT_stimuli/rescaled_final/0720_rv.mp4	0.0	329.28255105018616	2.5003578662872314
73	309.54122591018677	pulse	1	t		71.0	2.5	/experiments/AOT/AOT_stimuli/rescaled_final/0720_rv.mp4	0.0	329.66739797592163	
73	311.1402988433838	pulse	1	t		71.0	2.5	/experiments/AOT/AOT_stimuli/rescaled_final/0720_rv.mp4	0.0	331.26647090911865	
73	311.6567368507385	fix_post	2		12	71.0	2.5	/experiments/AOT/AOT_stimuli/rescaled_final/0720_rv.mp4	0.0	331.7829089164734	0.10001921653747559
74	311.756756067276	fix_pre	0		119	72.0	2.5	/experiments/AOT/AOT_stimuli/rescaled_final/2056_fw.mp4	0.0	331.88292813301086	0.9917418956756592
74	312.7402548789978	pulse	0	t		72.0	2.5	/experiments/AOT/AOT_stimuli/rescaled_final/2056_fw.mp4	0.0	332.86642694473267	
74	312.74849796295166	movie	1		246	72.0	2.5	/experiments/AOT/AOT_stimuli/rescaled_final/2056_fw.mp4	0.0	332.8746700286865	2.508193016052246
74	314.33997893333435	pulse	1	t		72.0	2.5	/experiments/AOT/AOT_stimuli/rescaled_final/2056_fw.mp4	0.0	334.4661509990692	
74	315.2566909790039	fix_post	2		12	72.0	2.5	/experiments/AOT/AOT_stimuli/rescaled_final/2056_fw.mp4	0.0	335.38286304473877	0.10001492500305176
75	315.35670590400696	fix_pre	0		120	73.0	2.5	/experiments/AOT/AOT_stimuli/rescaled_final/0451_fw.mp4	0.0	335.4828779697418	1.0000100135803223
75	315.9402480125427	pulse	0	t		73.0	2.5	/experiments/AOT/AOT_stimuli/rescaled_final/0451_fw.mp4	0.0	336.0664200782776	
75	316.3567159175873	movie	1		243	73.0	2.5	/experiments/AOT/AOT_stimuli/rescaled_final/0451_fw.mp4	0.0	336.48288798332214	2.499643087387085
75	317.54026794433594	pulse	1	t		73.0	2.5	/experiments/AOT/AOT_stimuli/rescaled_final/0451_fw.mp4	0.0	337.6664400100708	
75	318.85635900497437	fix_post	2		12	73.0	2.5	/experiments/AOT/AOT_stimuli/rescaled_final/0451_fw.mp4	0.0	338.98253107070923	0.10039806365966797
76	318.95675706863403	fix_pre	0		120	74.0	2.5	/experiments/AOT/AOT_stimuli/rescaled_final/1145_fw.mp4	0.0	339.0829291343689	1.0000097751617432
76	319.14017486572266	pulse	0	t		74.0	2.5	/experiments/AOT/AOT_stimuli/rescaled_final/1145_fw.mp4	0.0	339.2663469314575	
76	319.9567668437958	movie	1		245	74.0	2.5	/experiments/AOT/AOT_stimuli/rescaled_final/1145_fw.mp4	0.0	340.08293890953064	2.499983072280884
76	320.74005603790283	pulse	1	t		74.0	2.5	/experiments/AOT/AOT_stimuli/rescaled_final/1145_fw.mp4	0.0	340.8662281036377	
76	322.3401188850403	pulse	1	t		74.0	2.5	/experiments/AOT/AOT_stimuli/rescaled_final/1145_fw.mp4	0.0	342.46629095077515	
76	322.45674991607666	fix_post	2		12	74.0	2.5	/experiments/AOT/AOT_stimuli/rescaled_final/1145_fw.mp4	0.0	342.5829219818115	0.0999901294708252
77	322.5567400455475	fix_pre	0		120	75.0	2.5	/experiments/AOT/AOT_stimuli/rescaled_final/0072_fw.mp4	0.0	342.68291211128235	1.0000510215759277
77	323.5567910671234	movie	1		246	75.0	2.5	/experiments/AOT/AOT_stimuli/rescaled_final/0072_fw.mp4	0.0	343.6829631328583	2.4994959831237793
77	323.94012904167175	pulse	1	t		75.0	2.5	/experiments/AOT/AOT_stimuli/rescaled_final/0072_fw.mp4	0.0	344.0663011074066	
77	325.53961992263794	pulse	1	t		75.0	2.5	/experiments/AOT/AOT_stimuli/rescaled_final/0072_fw.mp4	0.0	345.6657919883728	
77	326.0562870502472	fix_post	2		12	75.0	2.5	/experiments/AOT/AOT_stimuli/rescaled_final/0072_fw.mp4	0.0	346.18245911598206	0.10002398490905762
78	326.15631103515625	fix_pre	0		119	76.0	2.5	/experiments/AOT/AOT_stimuli/rescaled_final/0045_fw.mp4	0.0	346.2824831008911	0.9916980266571045
78	327.1398298740387	pulse	0	t		76.0	2.5	/experiments/AOT/AOT_stimuli/rescaled_final/0045_fw.mp4	0.0	347.26600193977356	
78	327.14800906181335	movie	1		246	76.0	2.5	/experiments/AOT/AOT_stimuli/rescaled_final/0045_fw.mp4	0.0	347.2741811275482	2.508683919906616
78	328.739942073822	pulse	1	t		76.0	2.5	/experiments/AOT/AOT_stimuli/rescaled_final/0045_fw.mp4	0.0	348.8661141395569	
78	329.65669298171997	fix_post	2		12	76.0	2.5	/experiments/AOT/AOT_stimuli/rescaled_final/0045_fw.mp4	0.0	349.78286504745483	0.09993505477905273
79	329.756628036499	fix_pre	0		120	77.0	2.5	blank	1.0	349.8828001022339	1.0000298023223877
79	330.34015583992004	pulse	0	t		77.0	2.5	blank	1.0	350.4663279056549	
79	330.7566578388214	movie	1		300	77.0	2.5	blank	1.0	350.8828299045563	2.5
79	331.94012904167175	pulse	1	t		77.0	2.5	blank	1.0	352.0663011074066	
79	333.2566578388214	fix_post	2		12	77.0	2.5	blank	1.0	353.3828299045563	0.10001301765441895
80	333.35667085647583	fix_pre	0		120	78.0	2.5	/experiments/AOT/AOT_stimuli/rescaled_final/1741_fw.mp4	0.0	353.4828429222107	0.9999141693115234
80	333.5401849746704	pulse	0	t		78.0	2.5	/experiments/AOT/AOT_stimuli/rescaled_final/1741_fw.mp4	0.0	353.6663570404053	
80	334.35658502578735	movie	1		244	78.0	2.5	/experiments/AOT/AOT_stimuli/rescaled_final/1741_fw.mp4	0.0	354.4827570915222	2.4999959468841553
80	335.1400320529938	pulse	1	t		78.0	2.5	/experiments/AOT/AOT_stimuli/rescaled_final/1741_fw.mp4	0.0	355.26620411872864	
80	336.73820304870605	pulse	1	t		78.0	2.5	/experiments/AOT/AOT_stimuli/rescaled_final/1741_fw.mp4	0.0	356.8643751144409	
80	336.8565809726715	fix_post	2		12	78.0	2.5	/experiments/AOT/AOT_stimuli/rescaled_final/1741_fw.mp4	0.0	356.9827530384064	0.10000896453857422
81	336.9565899372101	fix_pre	0		120	79.0	2.5	/experiments/AOT/AOT_stimuli/rescaled_final/1169_rv.mp4	0.0	357.08276200294495	1.0
81	337.9565899372101	movie	1		246	79.0	2.5	/experiments/AOT/AOT_stimuli/rescaled_final/1169_rv.mp4	0.0	358.08276200294495	2.5000100135803223
81	338.3412010669708	pulse	1	t		79.0	2.5	/experiments/AOT/AOT_stimuli/rescaled_final/1169_rv.mp4	0.0	358.4673731327057	
81	339.94010186195374	pulse	1	t		79.0	2.5	/experiments/AOT/AOT_stimuli/rescaled_final/1169_rv.mp4	0.0	360.0662739276886	
81	340.4565999507904	fix_post	2		12	79.0	2.5	/experiments/AOT/AOT_stimuli/rescaled_final/1169_rv.mp4	0.0	360.58277201652527	0.09993290901184082
82	340.55653285980225	fix_pre	0		119	80.0	2.5	/experiments/AOT/AOT_stimuli/rescaled_final/1742_fw.mp4	0.0	360.6827049255371	0.99173903465271
82	341.54008388519287	pulse	0	t		80.0	2.5	/experiments/AOT/AOT_stimuli/rescaled_final/1742_fw.mp4	0.0	361.66625595092773	
82	341.54827189445496	movie	1		245	80.0	2.5	/experiments/AOT/AOT_stimuli/rescaled_final/1742_fw.mp4	0.0	361.6744439601898	2.507918119430542
82	343.1401958465576	pulse	1	t		80.0	2.5	/experiments/AOT/AOT_stimuli/rescaled_final/1742_fw.mp4	0.0	363.2663679122925	
82	344.0561900138855	fix_post	2		12	80.0	2.5	/experiments/AOT/AOT_stimuli/rescaled_final/1742_fw.mp4	0.0	364.18236207962036	0.10040593147277832
83	344.1565959453583	fix_pre	0		120	81.0	2.5	/experiments/AOT/AOT_stimuli/rescaled_final/1991_rv.mp4	0.0	364.28276801109314	1.0000131130218506
83	344.7401170730591	pulse	0	t		81.0	2.5	/experiments/AOT/AOT_stimuli/rescaled_final/1991_rv.mp4	0.0	364.86628913879395	
83	345.1566090583801	movie	1		243	81.0	2.5	/experiments/AOT/AOT_stimuli/rescaled_final/1991_rv.mp4	0.0	365.282781124115	2.49993896484375
83	346.3401219844818	pulse	1	t		81.0	2.5	/experiments/AOT/AOT_stimuli/rescaled_final/1991_rv.mp4	0.0	366.4662940502167	
83	347.6565480232239	fix_post	2		12	81.0	2.5	/experiments/AOT/AOT_stimuli/rescaled_final/1991_rv.mp4	0.0	367.78272008895874	0.10003495216369629
84	347.7565829753876	fix_pre	0		120	82.0	2.5	/experiments/AOT/AOT_stimuli/rescaled_final/0823_rv.mp4	0.0	367.88275504112244	0.9996218681335449
84	347.94001293182373	pulse	0	t		82.0	2.5	/experiments/AOT/AOT_stimuli/rescaled_final/0823_rv.mp4	0.0	368.0661849975586	
84	348.7562048435211	movie	1		246	82.0	2.5	/experiments/AOT/AOT_stimuli/rescaled_final/0823_rv.mp4	0.0	368.882376909256	2.5002641677856445
84	349.5399360656738	pulse	1	t		82.0	2.5	/experiments/AOT/AOT_stimuli/rescaled_final/0823_rv.mp4	0.0	369.6661081314087	
84	351.13959288597107	pulse	1	t		82.0	2.5	/experiments/AOT/AOT_stimuli/rescaled_final/0823_rv.mp4	0.0	371.26576495170593	
84	351.25646901130676	fix_post	2		12	82.0	2.5	/experiments/AOT/AOT_stimuli/rescaled_final/0823_rv.mp4	0.0	371.3826410770416	0.10006999969482422
85	351.3565390110016	fix_pre	0		120	83.0	2.5	blank	1.0	371.48271107673645	0.9999549388885498
85	352.35649394989014	movie	1		300	83.0	2.5	blank	1.0	372.482666015625	2.500027894973755
85	352.740033864975	pulse	1	t		83.0	2.5	blank	1.0	372.86620593070984	
85	354.3400459289551	pulse	1	t		83.0	2.5	blank	1.0	374.46621799468994	
85	354.8565218448639	fix_post	2		12	83.0	2.5	blank	1.0	374.98269391059875	0.09997105598449707
87	354.9564929008484	stim	0		1716					375.08266496658325	14.300029039382935
87	355.9400029182434	pulse	0	t						376.06617498397827	
87	357.5400700569153	pulse	0	t						377.66624212265015	
87	359.1399700641632	pulse	0	t						379.26614212989807	
87	360.74000906944275	pulse	0	t						380.8661811351776	
87	362.34000301361084	pulse	0	t						382.4661750793457	
87	363.93996500968933	pulse	0	t						384.0661370754242	
87	365.53999495506287	pulse	0	t						385.66616702079773	
87	367.13997292518616	pulse	0	t						387.266144990921	
87	368.73991799354553	pulse	0	t						388.8660900592804	
