trial_nr	onset	event_type	phase	response	nr_frames	movie_index	movie_duration	movie_file	blank	onset_abs	duration
0	0.15830588340759277	stim	0		125					258.0383870601654	1.0417160987854004
0	1.1918728351593018	response	0	space						259.0719540119171	
1	1.2000219821929932	stim	0		12276					259.0801031589508	102.29935002326965
1	103.49326086044312	pulse	0	t						361.3733420372009	
1	103.49937200546265	stim	1		1717					361.37945318222046	14.308279037475586
1	105.0911979675293	pulse	1	t						362.9712791442871	
1	106.69111895561218	pulse	1	t						364.57120013237	
1	108.29119801521301	pulse	1	t						366.1712791919708	
1	109.89112591743469	pulse	1	t						367.7712070941925	
1	111.49104285240173	pulse	1	t						369.37112402915955	
1	113.09107804298401	pulse	1	t						370.9711592197418	
1	114.69106793403625	pulse	1	t						372.57114911079407	
1	116.29108595848083	pulse	1	t						374.17116713523865	
2	117.80765104293823	fix_pre	0		11	0.0	2.5	/experiments/AOT/AOT_stimuli/rescaled_final/1246_fw.mp4	0.0	375.68773221969604	0.09161782264709473
2	117.89107298851013	pulse	0	t		0.0	2.5	/experiments/AOT/AOT_stimuli/rescaled_final/1246_fw.mp4	0.0	375.77115416526794	
2	117.89926886558533	movie	1		246	0.0	2.5	/experiments/AOT/AOT_stimuli/rescaled_final/1246_fw.mp4	0.0	375.77935004234314	2.508418083190918
2	119.4911789894104	pulse	1	t		0.0	2.5	/experiments/AOT/AOT_stimuli/rescaled_final/1246_fw.mp4	0.0	377.3712601661682	
2	120.40768694877625	fix_post	2		12	0.0	2.5	/experiments/AOT/AOT_stimuli/rescaled_final/1246_fw.mp4	0.0	378.28776812553406	0.0999898910522461
3	120.50767683982849	fix_pre	0		120	1.0	2.5	/experiments/AOT/AOT_stimuli/rescaled_final/0471_fw.mp4	0.0	378.3877580165863	1.0000100135803223
3	121.09120488166809	pulse	0	t		1.0	2.5	/experiments/AOT/AOT_stimuli/rescaled_final/0471_fw.mp4	0.0	378.9712860584259	
3	121.50768685340881	movie	1		245	1.0	2.5	/experiments/AOT/AOT_stimuli/rescaled_final/0471_fw.mp4	0.0	379.3877680301666	2.4999749660491943
3	122.69124293327332	pulse	1	t		1.0	2.5	/experiments/AOT/AOT_stimuli/rescaled_final/0471_fw.mp4	0.0	380.5713241100311	
3	124.00766181945801	fix_post	2		12	1.0	2.5	/experiments/AOT/AOT_stimuli/rescaled_final/0471_fw.mp4	0.0	381.8877429962158	0.1000070571899414
4	124.10766887664795	fix_pre	0		120	2.0	2.5	/experiments/AOT/AOT_stimuli/rescaled_final/1793_fw.mp4	0.0	381.98775005340576	1.0000569820404053
4	124.29116702079773	pulse	0	t		2.0	2.5	/experiments/AOT/AOT_stimuli/rescaled_final/1793_fw.mp4	0.0	382.17124819755554	
4	125.10772585868835	movie	1		245	2.0	2.5	/experiments/AOT/AOT_stimuli/rescaled_final/1793_fw.mp4	0.0	382.98780703544617	2.4998371601104736
4	125.89110398292542	pulse	1	t		2.0	2.5	/experiments/AOT/AOT_stimuli/rescaled_final/1793_fw.mp4	0.0	383.7711851596832	
4	127.49113082885742	pulse	1	t		2.0	2.5	/experiments/AOT/AOT_stimuli/rescaled_final/1793_fw.mp4	0.0	385.37121200561523	
4	127.60756301879883	fix_post	2		12	2.0	2.5	/experiments/AOT/AOT_stimuli/rescaled_final/1793_fw.mp4	0.0	385.48764419555664	0.10008597373962402
5	127.70764899253845	fix_pre	0		120	3.0	2.5	/experiments/AOT/AOT_stimuli/rescaled_final/0048_rv.mp4	0.0	385.58773016929626	0.9998760223388672
5	128.70752501487732	movie	1		244	3.0	2.5	/experiments/AOT/AOT_stimuli/rescaled_final/0048_rv.mp4	0.0	386.58760619163513	2.500152826309204
5	129.09050297737122	pulse	1	t		3.0	2.5	/experiments/AOT/AOT_stimuli/rescaled_final/0048_rv.mp4	0.0	386.970584154129	
5	130.69113302230835	pulse	1	t		3.0	2.5	/experiments/AOT/AOT_stimuli/rescaled_final/0048_rv.mp4	0.0	388.57121419906616	
5	131.20767784118652	fix_post	2		12	3.0	2.5	/experiments/AOT/AOT_stimuli/rescaled_final/0048_rv.mp4	0.0	389.08775901794434	0.09990215301513672
6	131.30757999420166	fix_pre	0		119	4.0	2.5	/experiments/AOT/AOT_stimuli/rescaled_final/1891_rv.mp4	0.0	389.1876611709595	0.9916038513183594
6	132.291170835495	pulse	0	t		4.0	2.5	/experiments/AOT/AOT_stimuli/rescaled_final/1891_rv.mp4	0.0	390.1712520122528	
6	132.29918384552002	movie	1		245	4.0	2.5	/experiments/AOT/AOT_stimuli/rescaled_final/1891_rv.mp4	0.0	390.17926502227783	2.5084331035614014
6	133.89070200920105	pulse	1	t		4.0	2.5	/experiments/AOT/AOT_stimuli/rescaled_final/1891_rv.mp4	0.0	391.77078318595886	
6	134.80761694908142	fix_post	2		12	4.0	2.5	/experiments/AOT/AOT_stimuli/rescaled_final/1891_rv.mp4	0.0	392.68769812583923	0.09989094734191895
7	134.90750789642334	fix_pre	0		120	5.0	2.5	/experiments/AOT/AOT_stimuli/rescaled_final/1421_fw.mp4	0.0	392.78758907318115	1.0001180171966553
7	135.49113583564758	pulse	0	t		5.0	2.5	/experiments/AOT/AOT_stimuli/rescaled_final/1421_fw.mp4	0.0	393.3712170124054	
7	135.90762591362	movie	1		242	5.0	2.5	/experiments/AOT/AOT_stimuli/rescaled_final/1421_fw.mp4	0.0	393.7877070903778	2.4999921321868896
7	137.09125590324402	pulse	1	t		5.0	2.5	/experiments/AOT/AOT_stimuli/rescaled_final/1421_fw.mp4	0.0	394.97133708000183	
7	138.40761804580688	fix_post	2		12	5.0	2.5	/experiments/AOT/AOT_stimuli/rescaled_final/1421_fw.mp4	0.0	396.2876992225647	0.09992480278015137
8	138.50754284858704	fix_pre	0		120	6.0	2.5	/experiments/AOT/AOT_stimuli/rescaled_final/0402_rv.mp4	0.0	396.38762402534485	0.9996030330657959
8	138.69110298156738	pulse	0	t		6.0	2.5	/experiments/AOT/AOT_stimuli/rescaled_final/0402_rv.mp4	0.0	396.5711841583252	
8	139.50714588165283	movie	1		244	6.0	2.5	/experiments/AOT/AOT_stimuli/rescaled_final/0402_rv.mp4	0.0	397.38722705841064	2.50016713142395
8	140.29061698913574	pulse	1	t		6.0	2.5	/experiments/AOT/AOT_stimuli/rescaled_final/0402_rv.mp4	0.0	398.17069816589355	
8	141.88968896865845	pulse	1	t		6.0	2.5	/experiments/AOT/AOT_stimuli/rescaled_final/0402_rv.mp4	0.0	399.76977014541626	
8	142.00731301307678	fix_post	2		12	6.0	2.5	/experiments/AOT/AOT_stimuli/rescaled_final/0402_rv.mp4	0.0	399.8873941898346	0.10007786750793457
9	142.10739088058472	fix_pre	0		120	7.0	2.5	blank	1.0	399.98747205734253	1.0002450942993164
9	143.10763597488403	movie	1		300	7.0	2.5	blank	1.0	400.98771715164185	2.500046968460083
9	143.4909520149231	pulse	1	t		7.0	2.5	blank	1.0	401.3710331916809	
9	145.0910279750824	pulse	1	t		7.0	2.5	blank	1.0	402.9711091518402	
9	145.60768294334412	fix_post	2		12	7.0	2.5	blank	1.0	403.48776412010193	0.09983992576599121
10	145.7075228691101	fix_pre	0		119	8.0	2.5	/experiments/AOT/AOT_stimuli/rescaled_final/1248_fw.mp4	0.0	403.5876040458679	0.9916789531707764
10	146.69100499153137	pulse	0	t		8.0	2.5	/experiments/AOT/AOT_stimuli/rescaled_final/1248_fw.mp4	0.0	404.5710861682892	
10	146.69920182228088	movie	1		248	8.0	2.5	/experiments/AOT/AOT_stimuli/rescaled_final/1248_fw.mp4	0.0	404.5792829990387	2.5083351135253906
10	148.29042887687683	pulse	1	t		8.0	2.5	/experiments/AOT/AOT_stimuli/rescaled_final/1248_fw.mp4	0.0	406.17051005363464	
10	149.20753693580627	fix_post	2		12	8.0	2.5	/experiments/AOT/AOT_stimuli/rescaled_final/1248_fw.mp4	0.0	407.0876181125641	0.10000205039978027
11	149.30753898620605	fix_pre	0		120	9.0	2.5	/experiments/AOT/AOT_stimuli/rescaled_final/1353_fw.mp4	0.0	407.18762016296387	0.99993896484375
11	149.8910059928894	pulse	0	t		9.0	2.5	/experiments/AOT/AOT_stimuli/rescaled_final/1353_fw.mp4	0.0	407.7710871696472	
11	150.3074779510498	movie	1		244	9.0	2.5	/experiments/AOT/AOT_stimuli/rescaled_final/1353_fw.mp4	0.0	408.1875591278076	2.4997990131378174
11	151.49101495742798	pulse	1	t		9.0	2.5	/experiments/AOT/AOT_stimuli/rescaled_final/1353_fw.mp4	0.0	409.3710961341858	
11	152.80727696418762	fix_post	2		12	9.0	2.5	/experiments/AOT/AOT_stimuli/rescaled_final/1353_fw.mp4	0.0	410.68735814094543	0.10020804405212402
12	152.90748500823975	fix_pre	0		120	10.0	2.5	/experiments/AOT/AOT_stimuli/rescaled_final/0191_rv.mp4	0.0	410.78756618499756	1.0000419616699219
12	153.09098601341248	pulse	0	t		10.0	2.5	/experiments/AOT/AOT_stimuli/rescaled_final/0191_rv.mp4	0.0	410.9710671901703	
12	153.90752696990967	movie	1		244	10.0	2.5	/experiments/AOT/AOT_stimuli/rescaled_final/0191_rv.mp4	0.0	411.7876081466675	2.500053882598877
12	154.690899848938	pulse	1	t		10.0	2.5	/experiments/AOT/AOT_stimuli/rescaled_final/0191_rv.mp4	0.0	412.5709810256958	
12	156.28959703445435	pulse	1	t		10.0	2.5	/experiments/AOT/AOT_stimuli/rescaled_final/0191_rv.mp4	0.0	414.16967821121216	
12	156.40758085250854	fix_post	2		12	10.0	2.5	/experiments/AOT/AOT_stimuli/rescaled_final/0191_rv.mp4	0.0	414.28766202926636	0.09984612464904785
13	156.5074269771576	fix_pre	0		120	11.0	2.5	/experiments/AOT/AOT_stimuli/rescaled_final/0013_fw.mp4	0.0	414.3875081539154	1.000035047531128
13	157.50746202468872	movie	1		244	11.0	2.5	/experiments/AOT/AOT_stimuli/rescaled_final/0013_fw.mp4	0.0	415.38754320144653	2.4999828338623047
13	157.89220595359802	pulse	1	t		11.0	2.5	/experiments/AOT/AOT_stimuli/rescaled_final/0013_fw.mp4	0.0	415.77228713035583	
13	159.49092888832092	pulse	1	t		11.0	2.5	/experiments/AOT/AOT_stimuli/rescaled_final/0013_fw.mp4	0.0	417.37101006507874	
13	160.00744485855103	fix_post	2		12	11.0	2.5	/experiments/AOT/AOT_stimuli/rescaled_final/0013_fw.mp4	0.0	417.88752603530884	0.09999918937683105
14	160.10744404792786	fix_pre	0		119	12.0	2.5	blank	1.0	417.98752522468567	0.9916458129882812
14	161.09089303016663	pulse	0	t		12.0	2.5	blank	1.0	418.97097420692444	
14	161.09908986091614	movie	1		301	12.0	2.5	blank	1.0	418.97917103767395	2.508324146270752
14	162.69100689888	pulse	1	t		12.0	2.5	blank	1.0	420.5710880756378	
14	163.6074140071869	fix_post	2		12	12.0	2.5	blank	1.0	421.4874951839447	0.09991884231567383
15	163.70733284950256	fix_pre	0		120	13.0	2.5	/experiments/AOT/AOT_stimuli/rescaled_final/1068_fw.mp4	0.0	421.5874140262604	1.0001749992370605
15	164.29097485542297	pulse	0	t		13.0	2.5	/experiments/AOT/AOT_stimuli/rescaled_final/1068_fw.mp4	0.0	422.1710560321808	
15	164.70750784873962	movie	1		245	13.0	2.5	/experiments/AOT/AOT_stimuli/rescaled_final/1068_fw.mp4	0.0	422.58758902549744	2.4999141693115234
15	165.89099597930908	pulse	1	t		13.0	2.5	/experiments/AOT/AOT_stimuli/rescaled_final/1068_fw.mp4	0.0	423.7710771560669	
15	167.20742201805115	fix_post	2		12	13.0	2.5	/experiments/AOT/AOT_stimuli/rescaled_final/1068_fw.mp4	0.0	425.08750319480896	0.09998703002929688
16	167.30740904808044	fix_pre	0		120	14.0	2.5	/experiments/AOT/AOT_stimuli/rescaled_final/0849_rv.mp4	0.0	425.18749022483826	1.000079870223999
16	167.49099683761597	pulse	0	t		14.0	2.5	/experiments/AOT/AOT_stimuli/rescaled_final/0849_rv.mp4	0.0	425.3710780143738	
16	168.30748891830444	movie	1		245	14.0	2.5	/experiments/AOT/AOT_stimuli/rescaled_final/0849_rv.mp4	0.0	426.18757009506226	2.4999680519104004
16	169.09090900421143	pulse	1	t		14.0	2.5	/experiments/AOT/AOT_stimuli/rescaled_final/0849_rv.mp4	0.0	426.97099018096924	
16	170.68974685668945	pulse	1	t		14.0	2.5	/experiments/AOT/AOT_stimuli/rescaled_final/0849_rv.mp4	0.0	428.56982803344727	
16	170.80745697021484	fix_post	2		12	14.0	2.5	/experiments/AOT/AOT_stimuli/rescaled_final/0849_rv.mp4	0.0	428.68753814697266	0.09989500045776367
17	170.9073519706726	fix_pre	0		120	15.0	2.5	/experiments/AOT/AOT_stimuli/rescaled_final/0109_fw.mp4	0.0	428.7874331474304	1.0001258850097656
17	171.90747785568237	movie	1		242	15.0	2.5	/experiments/AOT/AOT_stimuli/rescaled_final/0109_fw.mp4	0.0	429.7875590324402	2.4998281002044678
17	172.29047393798828	pulse	1	t		15.0	2.5	/experiments/AOT/AOT_stimuli/rescaled_final/0109_fw.mp4	0.0	430.1705551147461	
17	173.89077591896057	pulse	1	t		15.0	2.5	/experiments/AOT/AOT_stimuli/rescaled_final/0109_fw.mp4	0.0	431.7708570957184	
17	174.40730595588684	fix_post	2		12	15.0	2.5	/experiments/AOT/AOT_stimuli/rescaled_final/0109_fw.mp4	0.0	432.28738713264465	0.10007095336914062
18	174.50737690925598	fix_pre	0		119	16.0	2.5	/experiments/AOT/AOT_stimuli/rescaled_final/0713_rv.mp4	0.0	432.3874580860138	0.9916460514068604
18	175.4908459186554	pulse	0	t		16.0	2.5	/experiments/AOT/AOT_stimuli/rescaled_final/0713_rv.mp4	0.0	433.3709270954132	
18	175.49902296066284	movie	1		246	16.0	2.5	/experiments/AOT/AOT_stimuli/rescaled_final/0713_rv.mp4	0.0	433.37910413742065	2.508354902267456
18	177.09068703651428	pulse	1	t		16.0	2.5	/experiments/AOT/AOT_stimuli/rescaled_final/0713_rv.mp4	0.0	434.9707682132721	
18	178.0073778629303	fix_post	2		12	16.0	2.5	/experiments/AOT/AOT_stimuli/rescaled_final/0713_rv.mp4	0.0	435.8874590396881	0.09993314743041992
19	178.10731101036072	fix_pre	0		120	17.0	2.5	/experiments/AOT/AOT_stimuli/rescaled_final/1340_fw.mp4	0.0	435.98739218711853	0.9999988079071045
19	178.6907958984375	pulse	0	t		17.0	2.5	/experiments/AOT/AOT_stimuli/rescaled_final/1340_fw.mp4	0.0	436.5708770751953	
19	179.10730981826782	movie	1		242	17.0	2.5	/experiments/AOT/AOT_stimuli/rescaled_final/1340_fw.mp4	0.0	436.98739099502563	2.5001020431518555
19	180.2909688949585	pulse	1	t		17.0	2.5	/experiments/AOT/AOT_stimuli/rescaled_final/1340_fw.mp4	0.0	438.1710500717163	
19	181.60741186141968	fix_post	2		12	17.0	2.5	/experiments/AOT/AOT_stimuli/rescaled_final/1340_fw.mp4	0.0	439.4874930381775	0.09992599487304688
20	181.70733785629272	fix_pre	0		120	18.0	2.5	/experiments/AOT/AOT_stimuli/rescaled_final/0229_fw.mp4	0.0	439.58741903305054	1.0001239776611328
20	181.89084792137146	pulse	0	t		18.0	2.5	/experiments/AOT/AOT_stimuli/rescaled_final/0229_fw.mp4	0.0	439.7709290981293	
20	182.70746183395386	movie	1		243	18.0	2.5	/experiments/AOT/AOT_stimuli/rescaled_final/0229_fw.mp4	0.0	440.58754301071167	2.499833106994629
20	183.49079585075378	pulse	1	t		18.0	2.5	/experiments/AOT/AOT_stimuli/rescaled_final/0229_fw.mp4	0.0	441.3708770275116	
20	185.08917093276978	pulse	1	t		18.0	2.5	/experiments/AOT/AOT_stimuli/rescaled_final/0229_fw.mp4	0.0	442.9692521095276	
20	185.2072949409485	fix_post	2		12	18.0	2.5	/experiments/AOT/AOT_stimuli/rescaled_final/0229_fw.mp4	0.0	443.0873761177063	0.10003900527954102
21	185.30733394622803	fix_pre	0		120	19.0	2.5	/experiments/AOT/AOT_stimuli/rescaled_final/1270_rv.mp4	0.0	443.18741512298584	0.9999959468841553
21	186.30732989311218	movie	1		244	19.0	2.5	/experiments/AOT/AOT_stimuli/rescaled_final/1270_rv.mp4	0.0	444.18741106987	2.5000219345092773
21	186.6903338432312	pulse	1	t		19.0	2.5	/experiments/AOT/AOT_stimuli/rescaled_final/1270_rv.mp4	0.0	444.570415019989	
21	188.29083704948425	pulse	1	t		19.0	2.5	/experiments/AOT/AOT_stimuli/rescaled_final/1270_rv.mp4	0.0	446.17091822624207	
21	188.80735182762146	fix_post	2		12	19.0	2.5	/experiments/AOT/AOT_stimuli/rescaled_final/1270_rv.mp4	0.0	446.6874330043793	0.10000300407409668
22	188.90735483169556	fix_pre	0		119	20.0	2.5	blank	1.0	446.78743600845337	0.9916009902954102
22	189.89081501960754	pulse	0	t		20.0	2.5	blank	1.0	447.77089619636536	
22	189.89895582199097	movie	1		301	20.0	2.5	blank	1.0	447.7790369987488	2.5083911418914795
22	191.49085187911987	pulse	1	t		20.0	2.5	blank	1.0	449.3709330558777	
22	192.40734696388245	fix_post	2		12	20.0	2.5	blank	1.0	450.28742814064026	0.09996795654296875
23	192.50731492042542	fix_pre	0		120	21.0	2.5	/experiments/AOT/AOT_stimuli/rescaled_final/1318_rv.mp4	0.0	450.3873960971832	1.0000090599060059
23	193.09079599380493	pulse	0	t		21.0	2.5	/experiments/AOT/AOT_stimuli/rescaled_final/1318_rv.mp4	0.0	450.97087717056274	
23	193.50732398033142	movie	1		245	21.0	2.5	/experiments/AOT/AOT_stimuli/rescaled_final/1318_rv.mp4	0.0	451.38740515708923	2.4996180534362793
23	194.69080090522766	pulse	1	t		21.0	2.5	/experiments/AOT/AOT_stimuli/rescaled_final/1318_rv.mp4	0.0	452.5708820819855	
23	196.0069420337677	fix_post	2		12	21.0	2.5	/experiments/AOT/AOT_stimuli/rescaled_final/1318_rv.mp4	0.0	453.8870232105255	0.09989380836486816
24	196.10683584213257	fix_pre	0		120	22.0	2.5	/experiments/AOT/AOT_stimuli/rescaled_final/0316_fw.mp4	0.0	453.9869170188904	1.0006511211395264
24	196.2907989025116	pulse	0	t		22.0	2.5	/experiments/AOT/AOT_stimuli/rescaled_final/0316_fw.mp4	0.0	454.1708800792694	
24	197.1074869632721	movie	1		245	22.0	2.5	/experiments/AOT/AOT_stimuli/rescaled_final/0316_fw.mp4	0.0	454.9875681400299	2.4997708797454834
24	197.89059281349182	pulse	1	t		22.0	2.5	/experiments/AOT/AOT_stimuli/rescaled_final/0316_fw.mp4	0.0	455.77067399024963	
24	199.4908208847046	pulse	1	t		22.0	2.5	/experiments/AOT/AOT_stimuli/rescaled_final/0316_fw.mp4	0.0	457.3709020614624	
24	199.60725784301758	fix_post	2		12	22.0	2.5	/experiments/AOT/AOT_stimuli/rescaled_final/0316_fw.mp4	0.0	457.4873390197754	0.1000511646270752
25	199.70730900764465	fix_pre	0		120	23.0	2.5	/experiments/AOT/AOT_stimuli/rescaled_final/0293_fw.mp4	0.0	457.58739018440247	0.9999628067016602
25	200.7072718143463	movie	1		243	23.0	2.5	/experiments/AOT/AOT_stimuli/rescaled_final/0293_fw.mp4	0.0	458.5873529911041	2.499979019165039
25	201.09027791023254	pulse	1	t		23.0	2.5	/experiments/AOT/AOT_stimuli/rescaled_final/0293_fw.mp4	0.0	458.97035908699036	
25	202.69071197509766	pulse	1	t		23.0	2.5	/experiments/AOT/AOT_stimuli/rescaled_final/0293_fw.mp4	0.0	460.57079315185547	
25	203.20725083351135	fix_post	2		12	23.0	2.5	/experiments/AOT/AOT_stimuli/rescaled_final/0293_fw.mp4	0.0	461.08733201026917	0.099945068359375
26	203.30719590187073	fix_pre	0		119	24.0	2.5	/experiments/AOT/AOT_stimuli/rescaled_final/0729_fw.mp4	0.0	461.18727707862854	0.9916319847106934
26	204.2907600402832	pulse	0	t		24.0	2.5	/experiments/AOT/AOT_stimuli/rescaled_final/0729_fw.mp4	0.0	462.170841217041	
26	204.29882788658142	movie	1		243	24.0	2.5	/experiments/AOT/AOT_stimuli/rescaled_final/0729_fw.mp4	0.0	462.17890906333923	2.50838303565979
26	205.89034295082092	pulse	1	t		24.0	2.5	/experiments/AOT/AOT_stimuli/rescaled_final/0729_fw.mp4	0.0	463.77042412757874	
26	206.8072109222412	fix_post	2		12	24.0	2.5	/experiments/AOT/AOT_stimuli/rescaled_final/0729_fw.mp4	0.0	464.687292098999	0.09999990463256836
27	206.90721082687378	fix_pre	0		120	25.0	2.5	/experiments/AOT/AOT_stimuli/rescaled_final/0263_fw.mp4	0.0	464.7872920036316	0.9999589920043945
27	207.49067997932434	pulse	0	t		25.0	2.5	/experiments/AOT/AOT_stimuli/rescaled_final/0263_fw.mp4	0.0	465.37076115608215	
27	207.90716981887817	movie	1		246	25.0	2.5	/experiments/AOT/AOT_stimuli/rescaled_final/0263_fw.mp4	0.0	465.787250995636	2.5000882148742676
27	209.09072494506836	pulse	1	t		25.0	2.5	/experiments/AOT/AOT_stimuli/rescaled_final/0263_fw.mp4	0.0	466.9708061218262	
27	210.40725803375244	fix_post	2		12	25.0	2.5	/experiments/AOT/AOT_stimuli/rescaled_final/0263_fw.mp4	0.0	468.28733921051025	0.09987497329711914
28	210.50713300704956	fix_pre	0		120	26.0	2.5	blank	1.0	468.3872141838074	1.0000958442687988
28	210.69072699546814	pulse	0	t		26.0	2.5	blank	1.0	468.57080817222595	
28	211.50722885131836	movie	1		300	26.0	2.5	blank	1.0	469.3873100280762	2.4999020099639893
28	212.29078102111816	pulse	1	t		26.0	2.5	blank	1.0	470.170862197876	
28	213.89066696166992	pulse	1	t		26.0	2.5	blank	1.0	471.77074813842773	
28	214.00713086128235	fix_post	2		12	26.0	2.5	blank	1.0	471.88721203804016	0.10007214546203613
29	214.10720300674438	fix_pre	0		120	27.0	2.5	/experiments/AOT/AOT_stimuli/rescaled_final/0646_rv.mp4	0.0	471.9872841835022	0.9999499320983887
29	215.10715293884277	movie	1		245	27.0	2.5	/experiments/AOT/AOT_stimuli/rescaled_final/0646_rv.mp4	0.0	472.9872341156006	2.499972105026245
29	215.4907078742981	pulse	1	t		27.0	2.5	/experiments/AOT/AOT_stimuli/rescaled_final/0646_rv.mp4	0.0	473.3707890510559	
29	217.09069395065308	pulse	1	t		27.0	2.5	/experiments/AOT/AOT_stimuli/rescaled_final/0646_rv.mp4	0.0	474.9707751274109	
29	217.60712504386902	fix_post	2		12	27.0	2.5	/experiments/AOT/AOT_stimuli/rescaled_final/0646_rv.mp4	0.0	475.48720622062683	0.09998083114624023
30	217.70710587501526	fix_pre	0		119	28.0	2.5	/experiments/AOT/AOT_stimuli/rescaled_final/1160_fw.mp4	0.0	475.58718705177307	0.9917299747467041
30	218.69074392318726	pulse	0	t		28.0	2.5	/experiments/AOT/AOT_stimuli/rescaled_final/1160_fw.mp4	0.0	476.57082509994507	
30	218.69883584976196	movie	1		245	28.0	2.5	/experiments/AOT/AOT_stimuli/rescaled_final/1160_fw.mp4	0.0	476.5789170265198	2.5082499980926514
30	220.29001188278198	pulse	1	t		28.0	2.5	/experiments/AOT/AOT_stimuli/rescaled_final/1160_fw.mp4	0.0	478.1700930595398	
30	221.20708584785461	fix_post	2		12	28.0	2.5	/experiments/AOT/AOT_stimuli/rescaled_final/1160_fw.mp4	0.0	479.0871670246124	0.10005307197570801
31	221.30713891983032	fix_pre	0		120	29.0	2.5	/experiments/AOT/AOT_stimuli/rescaled_final/0294_rv.mp4	0.0	479.18722009658813	0.9998929500579834
31	221.89064288139343	pulse	0	t		29.0	2.5	/experiments/AOT/AOT_stimuli/rescaled_final/0294_rv.mp4	0.0	479.77072405815125	
31	222.3070318698883	movie	1		243	29.0	2.5	/experiments/AOT/AOT_stimuli/rescaled_final/0294_rv.mp4	0.0	480.1871130466461	2.500127077102661
31	223.49077796936035	pulse	1	t		29.0	2.5	/experiments/AOT/AOT_stimuli/rescaled_final/0294_rv.mp4	0.0	481.37085914611816	
31	224.80715894699097	fix_post	2		12	29.0	2.5	/experiments/AOT/AOT_stimuli/rescaled_final/0294_rv.mp4	0.0	482.6872401237488	0.09985804557800293
32	224.90701699256897	fix_pre	0		120	30.0	2.5	/experiments/AOT/AOT_stimuli/rescaled_final/1197_rv.mp4	0.0	482.7870981693268	1.0000569820404053
32	225.09062886238098	pulse	0	t		30.0	2.5	/experiments/AOT/AOT_stimuli/rescaled_final/1197_rv.mp4	0.0	482.9707100391388	
32	225.90707397460938	movie	1		243	30.0	2.5	/experiments/AOT/AOT_stimuli/rescaled_final/1197_rv.mp4	0.0	483.7871551513672	2.5000228881835938
32	226.69065594673157	pulse	1	t		30.0	2.5	/experiments/AOT/AOT_stimuli/rescaled_final/1197_rv.mp4	0.0	484.5707371234894	
32	228.28879189491272	pulse	1	t		30.0	2.5	/experiments/AOT/AOT_stimuli/rescaled_final/1197_rv.mp4	0.0	486.16887307167053	
32	228.40709686279297	fix_post	2		12	30.0	2.5	/experiments/AOT/AOT_stimuli/rescaled_final/1197_rv.mp4	0.0	486.2871780395508	0.10005712509155273
33	228.50715398788452	fix_pre	0		120	31.0	2.5	/experiments/AOT/AOT_stimuli/rescaled_final/0324_rv.mp4	0.0	486.38723516464233	0.9998948574066162
33	229.50704884529114	movie	1		244	31.0	2.5	/experiments/AOT/AOT_stimuli/rescaled_final/0324_rv.mp4	0.0	487.38713002204895	2.5000720024108887
33	229.8900740146637	pulse	1	t		31.0	2.5	/experiments/AOT/AOT_stimuli/rescaled_final/0324_rv.mp4	0.0	487.7701551914215	
33	231.4906029701233	pulse	1	t		31.0	2.5	/experiments/AOT/AOT_stimuli/rescaled_final/0324_rv.mp4	0.0	489.3706841468811	
33	232.00712084770203	fix_post	2		12	31.0	2.5	/experiments/AOT/AOT_stimuli/rescaled_final/0324_rv.mp4	0.0	489.88720202445984	0.09996318817138672
34	232.1070840358734	fix_pre	0		119	32.0	2.5	/experiments/AOT/AOT_stimuli/rescaled_final/1793_fw.mp4	0.0	489.9871652126312	0.9916529655456543
34	233.09055304527283	pulse	0	t		32.0	2.5	/experiments/AOT/AOT_stimuli/rescaled_final/1793_fw.mp4	0.0	490.97063422203064	
34	233.09873700141907	movie	1		248	32.0	2.5	/experiments/AOT/AOT_stimuli/rescaled_final/1793_fw.mp4	0.0	490.9788181781769	2.5082969665527344
34	234.69020986557007	pulse	1	t		32.0	2.5	/experiments/AOT/AOT_stimuli/rescaled_final/1793_fw.mp4	0.0	492.5702910423279	
34	235.6070339679718	fix_post	2		12	32.0	2.5	/experiments/AOT/AOT_stimuli/rescaled_final/1793_fw.mp4	0.0	493.4871151447296	0.09996795654296875
35	235.70700192451477	fix_pre	0		120	33.0	2.5	blank	1.0	493.5870831012726	0.9999899864196777
35	236.29055500030518	pulse	0	t		33.0	2.5	blank	1.0	494.170636177063	
35	236.70699191093445	movie	1		300	33.0	2.5	blank	1.0	494.58707308769226	2.5000720024108887
35	237.8905098438263	pulse	1	t		33.0	2.5	blank	1.0	495.7705910205841	
35	239.20706391334534	fix_post	2		12	33.0	2.5	blank	1.0	497.08714509010315	0.1000220775604248
36	239.30708599090576	fix_pre	0		120	34.0	2.5	/experiments/AOT/AOT_stimuli/rescaled_final/1197_fw.mp4	0.0	497.1871671676636	0.9999349117279053
36	239.49059796333313	pulse	0	t		34.0	2.5	/experiments/AOT/AOT_stimuli/rescaled_final/1197_fw.mp4	0.0	497.37067914009094	
36	240.30702090263367	movie	1		242	34.0	2.5	/experiments/AOT/AOT_stimuli/rescaled_final/1197_fw.mp4	0.0	498.1871020793915	2.5000109672546387
36	241.0906298160553	pulse	1	t		34.0	2.5	/experiments/AOT/AOT_stimuli/rescaled_final/1197_fw.mp4	0.0	498.9707109928131	
36	242.68887495994568	pulse	1	t		34.0	2.5	/experiments/AOT/AOT_stimuli/rescaled_final/1197_fw.mp4	0.0	500.5689561367035	
36	242.8070318698883	fix_post	2		12	34.0	2.5	/experiments/AOT/AOT_stimuli/rescaled_final/1197_fw.mp4	0.0	500.6871130466461	0.09994316101074219
37	242.90697503089905	fix_pre	0		120	35.0	2.5	/experiments/AOT/AOT_stimuli/rescaled_final/1496_fw.mp4	0.0	500.78705620765686	1.000082015991211
37	243.90705704689026	movie	1		245	35.0	2.5	/experiments/AOT/AOT_stimuli/rescaled_final/1496_fw.mp4	0.0	501.78713822364807	2.499990940093994
37	244.29013204574585	pulse	1	t		35.0	2.5	/experiments/AOT/AOT_stimuli/rescaled_final/1496_fw.mp4	0.0	502.17021322250366	
37	245.89051985740662	pulse	1	t		35.0	2.5	/experiments/AOT/AOT_stimuli/rescaled_final/1496_fw.mp4	0.0	503.77060103416443	
37	246.40704798698425	fix_post	2		12	35.0	2.5	/experiments/AOT/AOT_stimuli/rescaled_final/1496_fw.mp4	0.0	504.28712916374207	0.10003805160522461
38	246.50708603858948	fix_pre	0		119	36.0	2.5	/experiments/AOT/AOT_stimuli/rescaled_final/0655_fw.mp4	0.0	504.3871672153473	0.9917459487915039
38	247.49052095413208	pulse	0	t		36.0	2.5	/experiments/AOT/AOT_stimuli/rescaled_final/0655_fw.mp4	0.0	505.3706021308899	
38	247.49883198738098	movie	1		246	36.0	2.5	/experiments/AOT/AOT_stimuli/rescaled_final/0655_fw.mp4	0.0	505.3789131641388	2.508188009262085
38	249.09074997901917	pulse	1	t		36.0	2.5	/experiments/AOT/AOT_stimuli/rescaled_final/0655_fw.mp4	0.0	506.970831155777	
38	250.00701999664307	fix_post	2		12	36.0	2.5	/experiments/AOT/AOT_stimuli/rescaled_final/0655_fw.mp4	0.0	507.8871011734009	0.09998393058776855
39	250.10700392723083	fix_pre	0		120	37.0	2.5	/experiments/AOT/AOT_stimuli/rescaled_final/0904_fw.mp4	0.0	507.98708510398865	0.99959397315979
39	250.6906180381775	pulse	0	t		37.0	2.5	/experiments/AOT/AOT_stimuli/rescaled_final/0904_fw.mp4	0.0	508.5706992149353	
39	251.10659790039062	movie	1		247	37.0	2.5	/experiments/AOT/AOT_stimuli/rescaled_final/0904_fw.mp4	0.0	508.98667907714844	2.500244140625
39	252.29018902778625	pulse	1	t		37.0	2.5	/experiments/AOT/AOT_stimuli/rescaled_final/0904_fw.mp4	0.0	510.17027020454407	
39	253.60684204101562	fix_post	2		12	37.0	2.5	/experiments/AOT/AOT_stimuli/rescaled_final/0904_fw.mp4	0.0	511.48692321777344	0.10049200057983398
40	253.70733404159546	fix_pre	0		120	38.0	2.5	/experiments/AOT/AOT_stimuli/rescaled_final/0012_fw.mp4	0.0	511.58741521835327	0.9996898174285889
40	253.8903889656067	pulse	0	t		38.0	2.5	/experiments/AOT/AOT_stimuli/rescaled_final/0012_fw.mp4	0.0	511.7704701423645	
40	254.70702385902405	movie	1		246	38.0	2.5	/experiments/AOT/AOT_stimuli/rescaled_final/0012_fw.mp4	0.0	512.5871050357819	2.5000030994415283
40	255.4904088973999	pulse	1	t		38.0	2.5	/experiments/AOT/AOT_stimuli/rescaled_final/0012_fw.mp4	0.0	513.3704900741577	
40	257.0893199443817	pulse	1	t		38.0	2.5	/experiments/AOT/AOT_stimuli/rescaled_final/0012_fw.mp4	0.0	514.9694011211395	
40	257.2070269584656	fix_post	2		12	38.0	2.5	/experiments/AOT/AOT_stimuli/rescaled_final/0012_fw.mp4	0.0	515.0871081352234	0.09993696212768555
41	257.30696392059326	fix_pre	0		120	39.0	2.5	/experiments/AOT/AOT_stimuli/rescaled_final/1071_fw.mp4	0.0	515.1870450973511	1.0000360012054443
41	258.3069999217987	movie	1		244	39.0	2.5	/experiments/AOT/AOT_stimuli/rescaled_final/1071_fw.mp4	0.0	516.1870810985565	2.4999840259552
41	258.69001388549805	pulse	1	t		39.0	2.5	/experiments/AOT/AOT_stimuli/rescaled_final/1071_fw.mp4	0.0	516.5700950622559	
41	260.290522813797	pulse	1	t		39.0	2.5	/experiments/AOT/AOT_stimuli/rescaled_final/1071_fw.mp4	0.0	518.1706039905548	
41	260.8069839477539	fix_post	2		12	39.0	2.5	/experiments/AOT/AOT_stimuli/rescaled_final/1071_fw.mp4	0.0	518.6870651245117	0.10007691383361816
42	260.9070608615875	fix_pre	0		119	40.0	2.5	blank	1.0	518.7871420383453	0.9915640354156494
42	261.890419960022	pulse	0	t		40.0	2.5	blank	1.0	519.7705011367798	
42	261.8986248970032	movie	1		301	40.0	2.5	blank	1.0	519.778706073761	2.508327007293701
42	263.4905560016632	pulse	1	t		40.0	2.5	blank	1.0	521.370637178421	
42	264.4069519042969	fix_post	2		12	40.0	2.5	blank	1.0	522.2870330810547	0.09998893737792969
43	264.5069408416748	fix_pre	0		120	41.0	2.5	/experiments/AOT/AOT_stimuli/rescaled_final/0325_fw.mp4	0.0	522.3870220184326	0.9999880790710449
43	265.0903639793396	pulse	0	t		41.0	2.5	/experiments/AOT/AOT_stimuli/rescaled_final/0325_fw.mp4	0.0	522.9704451560974	
43	265.50692892074585	movie	1		241	41.0	2.5	/experiments/AOT/AOT_stimuli/rescaled_final/0325_fw.mp4	0.0	523.3870100975037	2.500044107437134
43	266.69055700302124	pulse	1	t		41.0	2.5	/experiments/AOT/AOT_stimuli/rescaled_final/0325_fw.mp4	0.0	524.570638179779	
43	268.006973028183	fix_post	2		12	41.0	2.5	/experiments/AOT/AOT_stimuli/rescaled_final/0325_fw.mp4	0.0	525.8870542049408	0.0999298095703125
44	268.1069028377533	fix_pre	0		120	42.0	2.5	/experiments/AOT/AOT_stimuli/rescaled_final/1717_rv.mp4	0.0	525.9869840145111	1.0000650882720947
44	268.29039788246155	pulse	0	t		42.0	2.5	/experiments/AOT/AOT_stimuli/rescaled_final/1717_rv.mp4	0.0	526.1704790592194	
44	269.1069679260254	movie	1		244	42.0	2.5	/experiments/AOT/AOT_stimuli/rescaled_final/1717_rv.mp4	0.0	526.9870491027832	2.499901056289673
44	269.8904519081116	pulse	1	t		42.0	2.5	/experiments/AOT/AOT_stimuli/rescaled_final/1717_rv.mp4	0.0	527.7705330848694	
44	271.48906803131104	pulse	1	t		42.0	2.5	/experiments/AOT/AOT_stimuli/rescaled_final/1717_rv.mp4	0.0	529.3691492080688	
44	271.60686898231506	fix_post	2		12	42.0	2.5	/experiments/AOT/AOT_stimuli/rescaled_final/1717_rv.mp4	0.0	529.4869501590729	0.1000678539276123
45	271.7069368362427	fix_pre	0		120	43.0	2.5	/experiments/AOT/AOT_stimuli/rescaled_final/0042_fw.mp4	0.0	529.5870180130005	0.9999849796295166
45	272.7069218158722	movie	1		245	43.0	2.5	/experiments/AOT/AOT_stimuli/rescaled_final/0042_fw.mp4	0.0	530.58700299263	2.4999661445617676
45	273.09001183509827	pulse	1	t		43.0	2.5	/experiments/AOT/AOT_stimuli/rescaled_final/0042_fw.mp4	0.0	530.9700930118561	
45	274.69037795066833	pulse	1	t		43.0	2.5	/experiments/AOT/AOT_stimuli/rescaled_final/0042_fw.mp4	0.0	532.5704591274261	
45	275.20688796043396	fix_post	2		12	43.0	2.5	/experiments/AOT/AOT_stimuli/rescaled_final/0042_fw.mp4	0.0	533.0869691371918	0.09999704360961914
46	275.3068850040436	fix_pre	0		119	44.0	2.5	/experiments/AOT/AOT_stimuli/rescaled_final/2078_fw.mp4	0.0	533.1869661808014	0.9916338920593262
46	276.2904119491577	pulse	0	t		44.0	2.5	/experiments/AOT/AOT_stimuli/rescaled_final/2078_fw.mp4	0.0	534.1704931259155	
46	276.2985188961029	movie	1		245	44.0	2.5	/experiments/AOT/AOT_stimuli/rescaled_final/2078_fw.mp4	0.0	534.1786000728607	2.508333921432495
46	277.8898329734802	pulse	1	t		44.0	2.5	/experiments/AOT/AOT_stimuli/rescaled_final/2078_fw.mp4	0.0	535.769914150238	
46	278.8068528175354	fix_post	2		12	44.0	2.5	/experiments/AOT/AOT_stimuli/rescaled_final/2078_fw.mp4	0.0	536.6869339942932	0.1000521183013916
47	278.9069049358368	fix_pre	0		120	45.0	2.5	/experiments/AOT/AOT_stimuli/rescaled_final/1731_fw.mp4	0.0	536.7869861125946	0.9999411106109619
47	279.4903898239136	pulse	0	t		45.0	2.5	/experiments/AOT/AOT_stimuli/rescaled_final/1731_fw.mp4	0.0	537.3704710006714	
47	279.90684604644775	movie	1		243	45.0	2.5	/experiments/AOT/AOT_stimuli/rescaled_final/1731_fw.mp4	0.0	537.7869272232056	2.4999518394470215
47	281.0903890132904	pulse	1	t		45.0	2.5	/experiments/AOT/AOT_stimuli/rescaled_final/1731_fw.mp4	0.0	538.9704701900482	
47	282.4067978858948	fix_post	2		12	45.0	2.5	/experiments/AOT/AOT_stimuli/rescaled_final/1731_fw.mp4	0.0	540.2868790626526	0.10000014305114746
48	282.5067980289459	fix_pre	0		120	46.0	2.5	/experiments/AOT/AOT_stimuli/rescaled_final/0906_fw.mp4	0.0	540.3868792057037	0.9999938011169434
48	282.690376996994	pulse	0	t		46.0	2.5	/experiments/AOT/AOT_stimuli/rescaled_final/0906_fw.mp4	0.0	540.5704581737518	
48	283.50679183006287	movie	1		247	46.0	2.5	/experiments/AOT/AOT_stimuli/rescaled_final/0906_fw.mp4	0.0	541.3868730068207	2.500030994415283
48	284.2904109954834	pulse	1	t		46.0	2.5	/experiments/AOT/AOT_stimuli/rescaled_final/0906_fw.mp4	0.0	542.1704921722412	
48	285.89031195640564	pulse	1	t		46.0	2.5	/experiments/AOT/AOT_stimuli/rescaled_final/0906_fw.mp4	0.0	543.7703931331635	
48	286.00682282447815	fix_post	2		12	46.0	2.5	/experiments/AOT/AOT_stimuli/rescaled_final/0906_fw.mp4	0.0	543.886904001236	0.09997916221618652
49	286.10680198669434	fix_pre	0		120	47.0	2.5	blank	1.0	543.9868831634521	1.000067949295044
49	287.1068699359894	movie	1		300	47.0	2.5	blank	1.0	544.9869511127472	2.499945878982544
49	287.4903509616852	pulse	1	t		47.0	2.5	blank	1.0	545.370432138443	
49	289.09034395217896	pulse	1	t		47.0	2.5	blank	1.0	546.9704251289368	
49	289.6068158149719	fix_post	2		12	47.0	2.5	blank	1.0	547.4868969917297	0.10001611709594727
50	289.70683193206787	fix_pre	0		119	48.0	2.5	/experiments/AOT/AOT_stimuli/rescaled_final/0064_fw.mp4	0.0	547.5869131088257	0.9916379451751709
50	290.69028401374817	pulse	0	t		48.0	2.5	/experiments/AOT/AOT_stimuli/rescaled_final/0064_fw.mp4	0.0	548.570365190506	
50	290.69846987724304	movie	1		248	48.0	2.5	/experiments/AOT/AOT_stimuli/rescaled_final/0064_fw.mp4	0.0	548.5785510540009	2.5084140300750732
50	292.2898609638214	pulse	1	t		48.0	2.5	/experiments/AOT/AOT_stimuli/rescaled_final/0064_fw.mp4	0.0	550.1699421405792	
50	293.2068839073181	fix_post	2		12	48.0	2.5	/experiments/AOT/AOT_stimuli/rescaled_final/0064_fw.mp4	0.0	551.0869650840759	0.09993505477905273
51	293.30681896209717	fix_pre	0		120	49.0	2.5	/experiments/AOT/AOT_stimuli/rescaled_final/0402_fw.mp4	0.0	551.186900138855	1.0000689029693604
51	293.890282869339	pulse	0	t		49.0	2.5	/experiments/AOT/AOT_stimuli/rescaled_final/0402_fw.mp4	0.0	551.7703640460968	
51	294.3068878650665	movie	1		247	49.0	2.5	/experiments/AOT/AOT_stimuli/rescaled_final/0402_fw.mp4	0.0	552.1869690418243	2.4999799728393555
51	295.49037289619446	pulse	1	t		49.0	2.5	/experiments/AOT/AOT_stimuli/rescaled_final/0402_fw.mp4	0.0	553.3704540729523	
51	296.8068678379059	fix_post	2		12	49.0	2.5	/experiments/AOT/AOT_stimuli/rescaled_final/0402_fw.mp4	0.0	554.6869490146637	0.09992814064025879
52	296.90679597854614	fix_pre	0		120	50.0	2.5	/experiments/AOT/AOT_stimuli/rescaled_final/0378_rv.mp4	0.0	554.786877155304	1.0000548362731934
52	297.0903868675232	pulse	0	t		50.0	2.5	/experiments/AOT/AOT_stimuli/rescaled_final/0378_rv.mp4	0.0	554.970468044281	
52	297.90685081481934	movie	1		245	50.0	2.5	/experiments/AOT/AOT_stimuli/rescaled_final/0378_rv.mp4	0.0	555.7869319915771	2.5000150203704834
52	298.69024085998535	pulse	1	t		50.0	2.5	/experiments/AOT/AOT_stimuli/rescaled_final/0378_rv.mp4	0.0	556.5703220367432	
52	300.2902019023895	pulse	1	t		50.0	2.5	/experiments/AOT/AOT_stimuli/rescaled_final/0378_rv.mp4	0.0	558.1702830791473	
52	300.4068658351898	fix_post	2		11	50.0	2.5	/experiments/AOT/AOT_stimuli/rescaled_final/0378_rv.mp4	0.0	558.2869470119476	0.09986209869384766
53	300.50672793388367	fix_pre	0		120	51.0	2.5	/experiments/AOT/AOT_stimuli/rescaled_final/0826_fw.mp4	0.0	558.3868091106415	1.000032901763916
53	301.5067608356476	movie	1		245	51.0	2.5	/experiments/AOT/AOT_stimuli/rescaled_final/0826_fw.mp4	0.0	559.3868420124054	2.5000171661376953
53	301.88988494873047	pulse	1	t		51.0	2.5	/experiments/AOT/AOT_stimuli/rescaled_final/0826_fw.mp4	0.0	559.7699661254883	
53	303.49033093452454	pulse	1	t		51.0	2.5	/experiments/AOT/AOT_stimuli/rescaled_final/0826_fw.mp4	0.0	561.3704121112823	
53	304.0067780017853	fix_post	2		12	51.0	2.5	/experiments/AOT/AOT_stimuli/rescaled_final/0826_fw.mp4	0.0	561.8868591785431	0.09999895095825195
54	304.10677695274353	fix_pre	0		119	52.0	2.5	/experiments/AOT/AOT_stimuli/rescaled_final/0946_rv.mp4	0.0	561.9868581295013	0.9917318820953369
54	305.0902650356293	pulse	0	t		52.0	2.5	/experiments/AOT/AOT_stimuli/rescaled_final/0946_rv.mp4	0.0	562.9703462123871	
54	305.09850883483887	movie	1		246	52.0	2.5	/experiments/AOT/AOT_stimuli/rescaled_final/0946_rv.mp4	0.0	562.9785900115967	2.5078091621398926
54	306.6900689601898	pulse	1	t		52.0	2.5	/experiments/AOT/AOT_stimuli/rescaled_final/0946_rv.mp4	0.0	564.5701501369476	
54	307.60631799697876	fix_post	2		12	52.0	2.5	/experiments/AOT/AOT_stimuli/rescaled_final/0946_rv.mp4	0.0	565.4863991737366	0.10001802444458008
55	307.70633602142334	fix_pre	0		120	53.0	2.5	/experiments/AOT/AOT_stimuli/rescaled_final/0620_rv.mp4	0.0	565.5864171981812	1.0001919269561768
55	308.28990292549133	pulse	0	t		53.0	2.5	/experiments/AOT/AOT_stimuli/rescaled_final/0620_rv.mp4	0.0	566.1699841022491	
55	308.7065279483795	movie	1		244	53.0	2.5	/experiments/AOT/AOT_stimuli/rescaled_final/0620_rv.mp4	0.0	566.5866091251373	2.500196933746338
55	309.8901798725128	pulse	1	t		53.0	2.5	/experiments/AOT/AOT_stimuli/rescaled_final/0620_rv.mp4	0.0	567.7702610492706	
55	311.20672488212585	fix_post	2		12	53.0	2.5	/experiments/AOT/AOT_stimuli/rescaled_final/0620_rv.mp4	0.0	569.0868060588837	0.1000521183013916
56	311.30677700042725	fix_pre	0		120	54.0	2.5	/experiments/AOT/AOT_stimuli/rescaled_final/0198_fw.mp4	0.0	569.1868581771851	0.9999969005584717
56	311.49024391174316	pulse	0	t		54.0	2.5	/experiments/AOT/AOT_stimuli/rescaled_final/0198_fw.mp4	0.0	569.370325088501	
56	312.3067739009857	movie	1		244	54.0	2.5	/experiments/AOT/AOT_stimuli/rescaled_final/0198_fw.mp4	0.0	570.1868550777435	2.5000219345092773
56	313.0901210308075	pulse	1	t		54.0	2.5	/experiments/AOT/AOT_stimuli/rescaled_final/0198_fw.mp4	0.0	570.9702022075653	
56	314.68870091438293	pulse	1	t		54.0	2.5	/experiments/AOT/AOT_stimuli/rescaled_final/0198_fw.mp4	0.0	572.5687820911407	
56	314.806795835495	fix_post	2		12	54.0	2.5	/experiments/AOT/AOT_stimuli/rescaled_final/0198_fw.mp4	0.0	572.6868770122528	0.09994220733642578
57	314.9067380428314	fix_pre	0		120	55.0	2.5	/experiments/AOT/AOT_stimuli/rescaled_final/1277_fw.mp4	0.0	572.7868192195892	0.9999368190765381
57	315.90667486190796	movie	1		245	55.0	2.5	/experiments/AOT/AOT_stimuli/rescaled_final/1277_fw.mp4	0.0	573.7867560386658	2.4999639987945557
57	316.2896029949188	pulse	1	t		55.0	2.5	/experiments/AOT/AOT_stimuli/rescaled_final/1277_fw.mp4	0.0	574.1696841716766	
57	317.89010095596313	pulse	1	t		55.0	2.5	/experiments/AOT/AOT_stimuli/rescaled_final/1277_fw.mp4	0.0	575.770182132721	
57	318.4066388607025	fix_post	2		12	55.0	2.5	/experiments/AOT/AOT_stimuli/rescaled_final/1277_fw.mp4	0.0	576.2867200374603	0.10002803802490234
58	318.5066668987274	fix_pre	0		119	56.0	2.5	blank	1.0	576.3867480754852	0.9916150569915771
58	319.4901068210602	pulse	0	t		56.0	2.5	blank	1.0	577.370187997818	
58	319.498281955719	movie	1		301	56.0	2.5	blank	1.0	577.3783631324768	2.508327007293701
58	321.0900719165802	pulse	1	t		56.0	2.5	blank	1.0	578.970153093338	
58	322.0066089630127	fix_post	2		12	56.0	2.5	blank	1.0	579.8866901397705	0.10006093978881836
59	322.1066699028015	fix_pre	0		120	57.0	2.5	/experiments/AOT/AOT_stimuli/rescaled_final/0282_fw.mp4	0.0	579.9867510795593	1.0000081062316895
59	322.6901569366455	pulse	0	t		57.0	2.5	/experiments/AOT/AOT_stimuli/rescaled_final/0282_fw.mp4	0.0	580.5702381134033	
59	323.1066780090332	movie	1		244	57.0	2.5	/experiments/AOT/AOT_stimuli/rescaled_final/0282_fw.mp4	0.0	580.986759185791	2.4999799728393555
59	324.2902178764343	pulse	1	t		57.0	2.5	/experiments/AOT/AOT_stimuli/rescaled_final/0282_fw.mp4	0.0	582.1702990531921	
59	325.60665798187256	fix_post	2		12	57.0	2.5	/experiments/AOT/AOT_stimuli/rescaled_final/0282_fw.mp4	0.0	583.4867391586304	0.0999748706817627
60	325.7066328525543	fix_pre	0		120	58.0	2.5	/experiments/AOT/AOT_stimuli/rescaled_final/1064_rv.mp4	0.0	583.5867140293121	1.000002145767212
60	325.89012598991394	pulse	0	t		58.0	2.5	/experiments/AOT/AOT_stimuli/rescaled_final/1064_rv.mp4	0.0	583.7702071666718	
60	326.70663499832153	movie	1		244	58.0	2.5	/experiments/AOT/AOT_stimuli/rescaled_final/1064_rv.mp4	0.0	584.5867161750793	2.500365972518921
60	327.4901828765869	pulse	1	t		58.0	2.5	/experiments/AOT/AOT_stimuli/rescaled_final/1064_rv.mp4	0.0	585.3702640533447	
60	329.0885510444641	pulse	1	t		58.0	2.5	/experiments/AOT/AOT_stimuli/rescaled_final/1064_rv.mp4	0.0	586.9686322212219	
60	329.20700097084045	fix_post	2		12	58.0	2.5	/experiments/AOT/AOT_stimuli/rescaled_final/1064_rv.mp4	0.0	587.0870821475983	0.09961295127868652
61	329.30661392211914	fix_pre	0		120	59.0	2.5	/experiments/AOT/AOT_stimuli/rescaled_final/0071_fw.mp4	0.0	587.186695098877	1.0000851154327393
61	330.3066990375519	movie	1		248	59.0	2.5	/experiments/AOT/AOT_stimuli/rescaled_final/0071_fw.mp4	0.0	588.1867802143097	2.4999938011169434
61	330.6898808479309	pulse	1	t		59.0	2.5	/experiments/AOT/AOT_stimuli/rescaled_final/0071_fw.mp4	0.0	588.5699620246887	
61	332.29007291793823	pulse	1	t		59.0	2.5	/experiments/AOT/AOT_stimuli/rescaled_final/0071_fw.mp4	0.0	590.170154094696	
61	332.8066928386688	fix_post	2		12	59.0	2.5	/experiments/AOT/AOT_stimuli/rescaled_final/0071_fw.mp4	0.0	590.6867740154266	0.09992313385009766
62	332.9066159725189	fix_pre	0		119	60.0	2.5	/experiments/AOT/AOT_stimuli/rescaled_final/0042_fw.mp4	0.0	590.7866971492767	0.9916388988494873
62	333.8903238773346	pulse	0	t		60.0	2.5	/experiments/AOT/AOT_stimuli/rescaled_final/0042_fw.mp4	0.0	591.7704050540924	
62	333.8982548713684	movie	1		246	60.0	2.5	/experiments/AOT/AOT_stimuli/rescaled_final/0042_fw.mp4	0.0	591.7783360481262	2.5083301067352295
62	335.4898819923401	pulse	1	t		60.0	2.5	/experiments/AOT/AOT_stimuli/rescaled_final/0042_fw.mp4	0.0	593.3699631690979	
62	336.40658497810364	fix_post	2		12	60.0	2.5	/experiments/AOT/AOT_stimuli/rescaled_final/0042_fw.mp4	0.0	594.2866661548615	0.0999760627746582
63	336.5065610408783	fix_pre	0		119	61.0	2.5	/experiments/AOT/AOT_stimuli/rescaled_final/1039_fw.mp4	0.0	594.3866422176361	1.0001468658447266
63	337.0900728702545	pulse	0	t		61.0	2.5	/experiments/AOT/AOT_stimuli/rescaled_final/1039_fw.mp4	0.0	594.9701540470123	
63	337.506707906723	movie	1		243	61.0	2.5	/experiments/AOT/AOT_stimuli/rescaled_final/1039_fw.mp4	0.0	595.3867890834808	2.499907970428467
63	338.69019985198975	pulse	1	t		61.0	2.5	/experiments/AOT/AOT_stimuli/rescaled_final/1039_fw.mp4	0.0	596.5702810287476	
63	340.0066158771515	fix_post	2		12	61.0	2.5	/experiments/AOT/AOT_stimuli/rescaled_final/1039_fw.mp4	0.0	597.8866970539093	0.09997797012329102
64	340.1065938472748	fix_pre	0		120	62.0	2.5	blank	1.0	597.9866750240326	1.0000360012054443
64	340.2901508808136	pulse	0	t		62.0	2.5	blank	1.0	598.1702320575714	
64	341.1066298484802	movie	1		300	62.0	2.5	blank	1.0	598.986711025238	2.4999260902404785
64	341.889986038208	pulse	1	t		62.0	2.5	blank	1.0	599.7700672149658	
64	343.49000096321106	pulse	1	t		62.0	2.5	blank	1.0	601.3700821399689	
64	343.6065559387207	fix_post	2		12	62.0	2.5	blank	1.0	601.4866371154785	0.09997987747192383
65	343.7065358161926	fix_pre	0		120	63.0	2.5	/experiments/AOT/AOT_stimuli/rescaled_final/1976_fw.mp4	0.0	601.5866169929504	1.000136137008667
65	344.7066719532013	movie	1		244	63.0	2.5	/experiments/AOT/AOT_stimuli/rescaled_final/1976_fw.mp4	0.0	602.5867531299591	2.499825954437256
65	345.08967900276184	pulse	1	t		63.0	2.5	/experiments/AOT/AOT_stimuli/rescaled_final/1976_fw.mp4	0.0	602.9697601795197	
65	346.69007897377014	pulse	1	t		63.0	2.5	/experiments/AOT/AOT_stimuli/rescaled_final/1976_fw.mp4	0.0	604.570160150528	
65	347.20649790763855	fix_post	2		12	63.0	2.5	/experiments/AOT/AOT_stimuli/rescaled_final/1976_fw.mp4	0.0	605.0865790843964	0.10002803802490234
66	347.30652594566345	fix_pre	0		119	64.0	2.5	/experiments/AOT/AOT_stimuli/rescaled_final/2087_fw.mp4	0.0	605.1866071224213	0.991858959197998
66	348.29008984565735	pulse	0	t		64.0	2.5	/experiments/AOT/AOT_stimuli/rescaled_final/2087_fw.mp4	0.0	606.1701710224152	
66	348.29838490486145	movie	1		245	64.0	2.5	/experiments/AOT/AOT_stimuli/rescaled_final/2087_fw.mp4	0.0	606.1784660816193	2.508129119873047
66	349.8914668560028	pulse	1	t		64.0	2.5	/experiments/AOT/AOT_stimuli/rescaled_final/2087_fw.mp4	0.0	607.7715480327606	
66	350.8065140247345	fix_post	2		12	64.0	2.5	/experiments/AOT/AOT_stimuli/rescaled_final/2087_fw.mp4	0.0	608.6865952014923	0.09998893737792969
67	350.9065029621124	fix_pre	0		120	65.0	2.5	/experiments/AOT/AOT_stimuli/rescaled_final/1306_rv.mp4	0.0	608.7865841388702	1.0000309944152832
67	351.4900178909302	pulse	0	t		65.0	2.5	/experiments/AOT/AOT_stimuli/rescaled_final/1306_rv.mp4	0.0	609.370099067688	
67	351.9065339565277	movie	1		243	65.0	2.5	/experiments/AOT/AOT_stimuli/rescaled_final/1306_rv.mp4	0.0	609.7866151332855	2.4999120235443115
67	353.0900719165802	pulse	1	t		65.0	2.5	/experiments/AOT/AOT_stimuli/rescaled_final/1306_rv.mp4	0.0	610.970153093338	
67	354.406445980072	fix_post	2		12	65.0	2.5	/experiments/AOT/AOT_stimuli/rescaled_final/1306_rv.mp4	0.0	612.2865271568298	0.10011005401611328
68	354.50655603408813	fix_pre	0		120	66.0	2.5	/experiments/AOT/AOT_stimuli/rescaled_final/0742_fw.mp4	0.0	612.386637210846	0.9998519420623779
68	354.68996691703796	pulse	0	t		66.0	2.5	/experiments/AOT/AOT_stimuli/rescaled_final/0742_fw.mp4	0.0	612.5700480937958	
68	355.5064079761505	movie	1		242	66.0	2.5	/experiments/AOT/AOT_stimuli/rescaled_final/0742_fw.mp4	0.0	613.3864891529083	2.5000739097595215
68	356.290011882782	pulse	1	t		66.0	2.5	/experiments/AOT/AOT_stimuli/rescaled_final/0742_fw.mp4	0.0	614.1700930595398	
68	357.88848090171814	pulse	1	t		66.0	2.5	/experiments/AOT/AOT_stimuli/rescaled_final/0742_fw.mp4	0.0	615.768562078476	
68	358.00648188591003	fix_post	2		12	66.0	2.5	/experiments/AOT/AOT_stimuli/rescaled_final/0742_fw.mp4	0.0	615.8865630626678	0.10007596015930176
69	358.10655784606934	fix_pre	0		120	67.0	2.5	/experiments/AOT/AOT_stimuli/rescaled_final/1201_rv.mp4	0.0	615.9866390228271	0.9999229907989502
69	359.1064808368683	movie	1		243	67.0	2.5	/experiments/AOT/AOT_stimuli/rescaled_final/1201_rv.mp4	0.0	616.9865620136261	2.5000030994415283
69	359.48999190330505	pulse	1	t		67.0	2.5	/experiments/AOT/AOT_stimuli/rescaled_final/1201_rv.mp4	0.0	617.3700730800629	
69	361.09000301361084	pulse	1	t		67.0	2.5	/experiments/AOT/AOT_stimuli/rescaled_final/1201_rv.mp4	0.0	618.9700841903687	
69	361.6064839363098	fix_post	2		12	67.0	2.5	/experiments/AOT/AOT_stimuli/rescaled_final/1201_rv.mp4	0.0	619.4865651130676	0.10007190704345703
70	361.70655584335327	fix_pre	0		119	68.0	2.5	/experiments/AOT/AOT_stimuli/rescaled_final/1201_fw.mp4	0.0	619.5866370201111	0.9915971755981445
70	362.6895079612732	pulse	0	t		68.0	2.5	/experiments/AOT/AOT_stimuli/rescaled_final/1201_fw.mp4	0.0	620.569589138031	
70	362.6981530189514	movie	1		244	68.0	2.5	/experiments/AOT/AOT_stimuli/rescaled_final/1201_fw.mp4	0.0	620.5782341957092	2.508129835128784
70	364.2980148792267	pulse	1	t		68.0	2.5	/experiments/AOT/AOT_stimuli/rescaled_final/1201_fw.mp4	0.0	622.1780960559845	
70	365.2062828540802	fix_post	2		12	68.0	2.5	/experiments/AOT/AOT_stimuli/rescaled_final/1201_fw.mp4	0.0	623.086364030838	0.1004490852355957
71	365.3067319393158	fix_pre	0		120	69.0	2.5	blank	1.0	623.1868131160736	0.999751091003418
71	365.8898220062256	pulse	0	t		69.0	2.5	blank	1.0	623.7699031829834	
71	366.3064830303192	movie	1		300	69.0	2.5	blank	1.0	624.186564207077	2.4999709129333496
71	367.4898958206177	pulse	1	t		69.0	2.5	blank	1.0	625.3699769973755	
71	368.80645394325256	fix_post	2		12	69.0	2.5	blank	1.0	626.6865351200104	0.10004687309265137
72	368.9065008163452	fix_pre	0		120	70.0	2.5	/experiments/AOT/AOT_stimuli/rescaled_final/0071_rv.mp4	0.0	626.786581993103	1.0000112056732178
72	369.0899238586426	pulse	0	t		70.0	2.5	/experiments/AOT/AOT_stimuli/rescaled_final/0071_rv.mp4	0.0	626.9700050354004	
72	369.90651202201843	movie	1		246	70.0	2.5	/experiments/AOT/AOT_stimuli/rescaled_final/0071_rv.mp4	0.0	627.7865931987762	2.4998719692230225
72	370.68973994255066	pulse	1	t		70.0	2.5	/experiments/AOT/AOT_stimuli/rescaled_final/0071_rv.mp4	0.0	628.5698211193085	
72	372.2894148826599	pulse	1	t		70.0	2.5	/experiments/AOT/AOT_stimuli/rescaled_final/0071_rv.mp4	0.0	630.1694960594177	
72	372.40638399124146	fix_post	2		12	70.0	2.5	/experiments/AOT/AOT_stimuli/rescaled_final/0071_rv.mp4	0.0	630.2864651679993	0.10002493858337402
73	372.50640892982483	fix_pre	0		120	71.0	2.5	/experiments/AOT/AOT_stimuli/rescaled_final/0557_rv.mp4	0.0	630.3864901065826	0.9999690055847168
73	373.50637793540955	movie	1		245	71.0	2.5	/experiments/AOT/AOT_stimuli/rescaled_final/0557_rv.mp4	0.0	631.3864591121674	2.500005006790161
73	373.8901069164276	pulse	1	t		71.0	2.5	/experiments/AOT/AOT_stimuli/rescaled_final/0557_rv.mp4	0.0	631.7701880931854	
73	375.48984694480896	pulse	1	t		71.0	2.5	/experiments/AOT/AOT_stimuli/rescaled_final/0557_rv.mp4	0.0	633.3699281215668	
73	376.0063829421997	fix_post	2		12	71.0	2.5	/experiments/AOT/AOT_stimuli/rescaled_final/0557_rv.mp4	0.0	633.8864641189575	0.09994196891784668
74	376.10632491111755	fix_pre	0		119	72.0	2.5	/experiments/AOT/AOT_stimuli/rescaled_final/1318_fw.mp4	0.0	633.9864060878754	0.9916489124298096
74	377.0899329185486	pulse	0	t		72.0	2.5	/experiments/AOT/AOT_stimuli/rescaled_final/1318_fw.mp4	0.0	634.9700140953064	
74	377.09797382354736	movie	1		246	72.0	2.5	/experiments/AOT/AOT_stimuli/rescaled_final/1318_fw.mp4	0.0	634.9780550003052	2.5083601474761963
74	378.68934988975525	pulse	1	t		72.0	2.5	/experiments/AOT/AOT_stimuli/rescaled_final/1318_fw.mp4	0.0	636.5694310665131	
74	379.60633397102356	fix_post	2		12	72.0	2.5	/experiments/AOT/AOT_stimuli/rescaled_final/1318_fw.mp4	0.0	637.4864151477814	0.10003304481506348
75	379.7063670158386	fix_pre	0		120	73.0	2.5	/experiments/AOT/AOT_stimuli/rescaled_final/1057_rv.mp4	0.0	637.5864481925964	0.9999969005584717
75	380.28986382484436	pulse	0	t		73.0	2.5	/experiments/AOT/AOT_stimuli/rescaled_final/1057_rv.mp4	0.0	638.1699450016022	
75	380.7063639163971	movie	1		242	73.0	2.5	/experiments/AOT/AOT_stimuli/rescaled_final/1057_rv.mp4	0.0	638.5864450931549	2.5000391006469727
75	381.88988399505615	pulse	1	t		73.0	2.5	/experiments/AOT/AOT_stimuli/rescaled_final/1057_rv.mp4	0.0	639.769965171814	
75	383.20640301704407	fix_post	2		12	73.0	2.5	/experiments/AOT/AOT_stimuli/rescaled_final/1057_rv.mp4	0.0	641.0864841938019	0.0999138355255127
76	383.3063168525696	fix_pre	0		120	74.0	2.5	/experiments/AOT/AOT_stimuli/rescaled_final/0324_fw.mp4	0.0	641.1863980293274	1.000089168548584
76	383.4898099899292	pulse	0	t		74.0	2.5	/experiments/AOT/AOT_stimuli/rescaled_final/0324_fw.mp4	0.0	641.369891166687	
76	384.30640602111816	movie	1		242	74.0	2.5	/experiments/AOT/AOT_stimuli/rescaled_final/0324_fw.mp4	0.0	642.186487197876	2.4999189376831055
76	385.0897979736328	pulse	1	t		74.0	2.5	/experiments/AOT/AOT_stimuli/rescaled_final/0324_fw.mp4	0.0	642.9698791503906	
76	386.6981580257416	pulse	1	t		74.0	2.5	/experiments/AOT/AOT_stimuli/rescaled_final/0324_fw.mp4	0.0	644.5782392024994	
76	386.80632495880127	fix_post	2		12	74.0	2.5	/experiments/AOT/AOT_stimuli/rescaled_final/0324_fw.mp4	0.0	644.6864061355591	0.09998703002929688
77	386.90631198883057	fix_pre	0		120	75.0	2.5	/experiments/AOT/AOT_stimuli/rescaled_final/0704_rv.mp4	0.0	644.7863931655884	1.000032901763916
77	387.9063448905945	movie	1		243	75.0	2.5	/experiments/AOT/AOT_stimuli/rescaled_final/0704_rv.mp4	0.0	645.7864260673523	2.5000569820404053
77	388.2895460128784	pulse	1	t		75.0	2.5	/experiments/AOT/AOT_stimuli/rescaled_final/0704_rv.mp4	0.0	646.1696271896362	
77	389.8898010253906	pulse	1	t		75.0	2.5	/experiments/AOT/AOT_stimuli/rescaled_final/0704_rv.mp4	0.0	647.7698822021484	
77	390.4064018726349	fix_post	2		12	75.0	2.5	/experiments/AOT/AOT_stimuli/rescaled_final/0704_rv.mp4	0.0	648.2864830493927	0.09984111785888672
78	390.5062429904938	fix_pre	0		119	76.0	2.5	/experiments/AOT/AOT_stimuli/rescaled_final/0294_fw.mp4	0.0	648.3863241672516	0.9917140007019043
78	391.4898238182068	pulse	0	t		76.0	2.5	/experiments/AOT/AOT_stimuli/rescaled_final/0294_fw.mp4	0.0	649.3699049949646	
78	391.4979569911957	movie	1		244	76.0	2.5	/experiments/AOT/AOT_stimuli/rescaled_final/0294_fw.mp4	0.0	649.3780381679535	2.5083119869232178
78	393.08937883377075	pulse	1	t		76.0	2.5	/experiments/AOT/AOT_stimuli/rescaled_final/0294_fw.mp4	0.0	650.9694600105286	
78	394.0062689781189	fix_post	2		12	76.0	2.5	/experiments/AOT/AOT_stimuli/rescaled_final/0294_fw.mp4	0.0	651.8863501548767	0.10004401206970215
79	394.1063129901886	fix_pre	0		120	77.0	2.5	blank	1.0	651.9863941669464	1.0000410079956055
79	394.68976187705994	pulse	0	t		77.0	2.5	blank	1.0	652.5698430538177	
79	395.1063539981842	movie	1		300	77.0	2.5	blank	1.0	652.986435174942	2.4999759197235107
79	396.28980898857117	pulse	1	t		77.0	2.5	blank	1.0	654.169890165329	
79	397.6063299179077	fix_post	2		12	77.0	2.5	blank	1.0	655.4864110946655	0.09996795654296875
80	397.7062978744507	fix_pre	0		120	78.0	2.5	/experiments/AOT/AOT_stimuli/rescaled_final/1092_rv.mp4	0.0	655.5863790512085	1.0000171661376953
80	397.88977098464966	pulse	0	t		78.0	2.5	/experiments/AOT/AOT_stimuli/rescaled_final/1092_rv.mp4	0.0	655.7698521614075	
80	398.7063150405884	movie	1		244	78.0	2.5	/experiments/AOT/AOT_stimuli/rescaled_final/1092_rv.mp4	0.0	656.5863962173462	2.4994778633117676
80	399.4897530078888	pulse	1	t		78.0	2.5	/experiments/AOT/AOT_stimuli/rescaled_final/1092_rv.mp4	0.0	657.3698341846466	
80	401.0981910228729	pulse	1	t		78.0	2.5	/experiments/AOT/AOT_stimuli/rescaled_final/1092_rv.mp4	0.0	658.9782721996307	
80	401.20579290390015	fix_post	2		12	78.0	2.5	/experiments/AOT/AOT_stimuli/rescaled_final/1092_rv.mp4	0.0	659.085874080658	0.10045909881591797
81	401.30625200271606	fix_pre	0		120	79.0	2.5	/experiments/AOT/AOT_stimuli/rescaled_final/0207_fw.mp4	0.0	659.1863331794739	1.000020980834961
81	402.306272983551	movie	1		244	79.0	2.5	/experiments/AOT/AOT_stimuli/rescaled_final/0207_fw.mp4	0.0	660.1863541603088	2.5000529289245605
81	402.6912410259247	pulse	1	t		79.0	2.5	/experiments/AOT/AOT_stimuli/rescaled_final/0207_fw.mp4	0.0	660.5713222026825	
81	404.2897958755493	pulse	1	t		79.0	2.5	/experiments/AOT/AOT_stimuli/rescaled_final/0207_fw.mp4	0.0	662.1698770523071	
81	404.8063259124756	fix_post	2		12	79.0	2.5	/experiments/AOT/AOT_stimuli/rescaled_final/0207_fw.mp4	0.0	662.6864070892334	0.09994697570800781
82	404.9062728881836	fix_pre	0		119	80.0	2.5	/experiments/AOT/AOT_stimuli/rescaled_final/0109_rv.mp4	0.0	662.7863540649414	0.9916391372680664
82	405.8899528980255	pulse	0	t		80.0	2.5	/experiments/AOT/AOT_stimuli/rescaled_final/0109_rv.mp4	0.0	663.7700340747833	
82	405.89791202545166	movie	1		244	80.0	2.5	/experiments/AOT/AOT_stimuli/rescaled_final/0109_rv.mp4	0.0	663.7779932022095	2.5083680152893066
82	407.489382982254	pulse	1	t		80.0	2.5	/experiments/AOT/AOT_stimuli/rescaled_final/0109_rv.mp4	0.0	665.3694641590118	
82	408.40628004074097	fix_post	2		12	80.0	2.5	/experiments/AOT/AOT_stimuli/rescaled_final/0109_rv.mp4	0.0	666.2863612174988	0.10001277923583984
83	408.5062928199768	fix_pre	0		120	81.0	2.5	/experiments/AOT/AOT_stimuli/rescaled_final/1199_rv.mp4	0.0	666.3863739967346	0.9999661445617676
83	409.089772939682	pulse	0	t		81.0	2.5	/experiments/AOT/AOT_stimuli/rescaled_final/1199_rv.mp4	0.0	666.9698541164398	
83	409.5062589645386	movie	1		244	81.0	2.5	/experiments/AOT/AOT_stimuli/rescaled_final/1199_rv.mp4	0.0	667.3863401412964	2.5000040531158447
83	410.6898138523102	pulse	1	t		81.0	2.5	/experiments/AOT/AOT_stimuli/rescaled_final/1199_rv.mp4	0.0	668.569895029068	
83	412.0062630176544	fix_post	2		12	81.0	2.5	/experiments/AOT/AOT_stimuli/rescaled_final/1199_rv.mp4	0.0	669.8863441944122	0.09995889663696289
84	412.1062219142914	fix_pre	0		120	82.0	2.5	/experiments/AOT/AOT_stimuli/rescaled_final/0115_fw.mp4	0.0	669.9863030910492	0.9999740123748779
84	412.28970885276794	pulse	0	t		82.0	2.5	/experiments/AOT/AOT_stimuli/rescaled_final/0115_fw.mp4	0.0	670.1697900295258	
84	413.10619592666626	movie	1		244	82.0	2.5	/experiments/AOT/AOT_stimuli/rescaled_final/0115_fw.mp4	0.0	670.9862771034241	2.4999730587005615
84	413.889652967453	pulse	1	t		82.0	2.5	/experiments/AOT/AOT_stimuli/rescaled_final/0115_fw.mp4	0.0	671.7697341442108	
84	415.489688873291	pulse	1	t		82.0	2.5	/experiments/AOT/AOT_stimuli/rescaled_final/0115_fw.mp4	0.0	673.3697700500488	
84	415.6061689853668	fix_post	2		12	82.0	2.5	/experiments/AOT/AOT_stimuli/rescaled_final/0115_fw.mp4	0.0	673.4862501621246	0.09999299049377441
85	415.7061619758606	fix_pre	0		120	83.0	2.5	blank	1.0	673.5862431526184	0.9999949932098389
85	416.70615696907043	movie	1		300	83.0	2.5	blank	1.0	674.5862381458282	2.499613046646118
85	417.08961296081543	pulse	1	t		83.0	2.5	blank	1.0	674.9696941375732	
85	418.68916487693787	pulse	1	t		83.0	2.5	blank	1.0	676.5692460536957	
85	419.20577001571655	fix_post	2		12	83.0	2.5	blank	1.0	677.0858511924744	0.10039401054382324
87	419.3061640262604	stim	0		1716					677.1862452030182	14.29993200302124
87	420.2894039154053	pulse	0	t						678.1694850921631	
87	421.88961386680603	pulse	0	t						679.7696950435638	
87	423.48965287208557	pulse	0	t						681.3697340488434	
87	425.08960604667664	pulse	0	t						682.9696872234344	
87	426.68949484825134	pulse	0	t						684.5695760250092	
87	428.2895288467407	pulse	0	t						686.1696100234985	
87	429.889524936676	pulse	0	t						687.7696061134338	
87	431.48952293395996	pulse	0	t						689.3696041107178	
87	433.0896189212799	pulse	0	t						690.9697000980377	
