trial_nr	onset	event_type	phase	response	nr_frames	movie_index	movie_duration	movie_file	blank	onset_abs	duration
0	0.17461776733398438	stim	0		12					22.00649929046631	0.09998416900634766
0	0.2665677070617676	response	0	space						22.098449230194092	
1	0.27460193634033203	stim	0		4373					22.106483459472656	36.45809626579285
1	36.722395181655884	pulse	0	t						58.55427670478821	
1	36.73269820213318	stim	1		1715					58.5645797252655	14.299497604370117
1	38.31383919715881	pulse	1	t						60.14572072029114	
1	39.914130449295044	pulse	1	t						61.74601197242737	
1	41.51431632041931	pulse	1	t						63.346197843551636	
1	43.11452651023865	pulse	1	t						64.94640803337097	
1	44.714805126190186	pulse	1	t						66.54668664932251	
1	46.31507229804993	pulse	1	t						68.14695382118225	
1	47.91521644592285	pulse	1	t						69.74709796905518	
1	49.51545000076294	pulse	1	t						71.34733152389526	
2	51.032195806503296	fix_pre	0		11	0.0	2.5	/experiments/Knapen_AOT/AOT_stimuli/rescaled_final/1198_fw.mp4	0.0	72.86407732963562	0.10841917991638184
2	51.11572313308716	pulse	0	t		0.0	2.5	/experiments/Knapen_AOT/AOT_stimuli/rescaled_final/1198_fw.mp4	0.0	72.94760465621948	
2	51.14061498641968	movie	1		281	0.0	2.5	/experiments/Knapen_AOT/AOT_stimuli/rescaled_final/1198_fw.mp4	0.0	72.972496509552	2.49198055267334
2	52.714507818222046	pulse	1	t		0.0	2.5	/experiments/Knapen_AOT/AOT_stimuli/rescaled_final/1198_fw.mp4	0.0	74.54638934135437	
2	53.63259553909302	fix_post	2		12	0.0	2.5	/experiments/Knapen_AOT/AOT_stimuli/rescaled_final/1198_fw.mp4	0.0	75.46447706222534	0.10024118423461914
3	53.73283672332764	fix_pre	0		120	1.0	2.5	/experiments/Knapen_AOT/AOT_stimuli/rescaled_final/0103_rv.mp4	0.0	75.56471824645996	1.0082907676696777
3	54.31628704071045	pulse	0	t		1.0	2.5	/experiments/Knapen_AOT/AOT_stimuli/rescaled_final/0103_rv.mp4	0.0	76.14816856384277	
3	54.741127490997314	movie	1		280	1.0	2.5	/experiments/Knapen_AOT/AOT_stimuli/rescaled_final/0103_rv.mp4	0.0	76.57300901412964	2.49200177192688
3	55.91583251953125	pulse	1	t		1.0	2.5	/experiments/Knapen_AOT/AOT_stimuli/rescaled_final/0103_rv.mp4	0.0	77.74771404266357	
3	57.233129262924194	fix_post	2		12	1.0	2.5	/experiments/Knapen_AOT/AOT_stimuli/rescaled_final/0103_rv.mp4	0.0	79.06501078605652	0.10001087188720703
4	57.3331401348114	fix_pre	0		120	2.0	2.5	/experiments/Knapen_AOT/AOT_stimuli/rescaled_final/0404_rv.mp4	0.0	79.16502165794373	1.008504867553711
4	57.516714334487915	pulse	0	t		2.0	2.5	/experiments/Knapen_AOT/AOT_stimuli/rescaled_final/0404_rv.mp4	0.0	79.34859585762024	
4	58.34164500236511	movie	1		273	2.0	2.5	/experiments/Knapen_AOT/AOT_stimuli/rescaled_final/0404_rv.mp4	0.0	80.17352652549744	2.4920437335968018
4	59.11682081222534	pulse	1	t		2.0	2.5	/experiments/Knapen_AOT/AOT_stimuli/rescaled_final/0404_rv.mp4	0.0	80.94870233535767	
4	60.715373277664185	pulse	1	t		2.0	2.5	/experiments/Knapen_AOT/AOT_stimuli/rescaled_final/0404_rv.mp4	0.0	82.54725480079651	
4	60.833688735961914	fix_post	2		12	2.0	2.5	/experiments/Knapen_AOT/AOT_stimuli/rescaled_final/0404_rv.mp4	0.0	82.66557025909424	0.09999203681945801
5	60.93368077278137	fix_pre	0		120	3.0	2.5	/experiments/Knapen_AOT/AOT_stimuli/rescaled_final/1616_fw.mp4	0.0	82.7655622959137	1.0085155963897705
5	61.94219636917114	movie	1		290	3.0	2.5	/experiments/Knapen_AOT/AOT_stimuli/rescaled_final/1616_fw.mp4	0.0	83.77407789230347	2.4919941425323486
5	62.315924882888794	pulse	1	t		3.0	2.5	/experiments/Knapen_AOT/AOT_stimuli/rescaled_final/1616_fw.mp4	0.0	84.14780640602112	
5	63.91558241844177	pulse	1	t		3.0	2.5	/experiments/Knapen_AOT/AOT_stimuli/rescaled_final/1616_fw.mp4	0.0	85.7474639415741	
5	64.43419051170349	fix_post	2		12	3.0	2.5	/experiments/Knapen_AOT/AOT_stimuli/rescaled_final/1616_fw.mp4	0.0	86.26607203483582	0.10004615783691406
6	64.5342366695404	fix_pre	0		119	4.0	2.5	/experiments/Knapen_AOT/AOT_stimuli/rescaled_final/0684_rv.mp4	0.0	86.36611819267273	1.0001354217529297
6	65.51792669296265	pulse	0	t		4.0	2.5	/experiments/Knapen_AOT/AOT_stimuli/rescaled_final/0684_rv.mp4	0.0	87.34980821609497	
6	65.53437209129333	movie	1		288	4.0	2.5	/experiments/Knapen_AOT/AOT_stimuli/rescaled_final/0684_rv.mp4	0.0	87.36625361442566	2.500396490097046
6	67.11659502983093	pulse	1	t		4.0	2.5	/experiments/Knapen_AOT/AOT_stimuli/rescaled_final/0684_rv.mp4	0.0	88.94847655296326	
6	68.03476858139038	fix_post	2		12	4.0	2.5	/experiments/Knapen_AOT/AOT_stimuli/rescaled_final/0684_rv.mp4	0.0	89.8666501045227	0.10003113746643066
7	68.13479971885681	fix_pre	0		120	5.0	2.5	/experiments/Knapen_AOT/AOT_stimuli/rescaled_final/1568_fw.mp4	0.0	89.96668124198914	1.0085217952728271
7	68.71847176551819	pulse	0	t		5.0	2.5	/experiments/Knapen_AOT/AOT_stimuli/rescaled_final/1568_fw.mp4	0.0	90.55035328865051	
7	69.14332151412964	movie	1		294	5.0	2.5	/experiments/Knapen_AOT/AOT_stimuli/rescaled_final/1568_fw.mp4	0.0	90.97520303726196	2.4919755458831787
7	70.31690073013306	pulse	1	t		5.0	2.5	/experiments/Knapen_AOT/AOT_stimuli/rescaled_final/1568_fw.mp4	0.0	92.14878225326538	
7	71.63529706001282	fix_post	2		12	5.0	2.5	/experiments/Knapen_AOT/AOT_stimuli/rescaled_final/1568_fw.mp4	0.0	93.46717858314514	0.1000058650970459
8	71.73530292510986	fix_pre	0		120	6.0	2.5	blank	1.0	93.56718444824219	1.0001604557037354
8	71.91902279853821	pulse	0	t		6.0	2.5	blank	1.0	93.75090432167053	
8	72.7354633808136	movie	1		300	6.0	2.5	blank	1.0	94.56734490394592	2.5003890991210938
8	73.51916337013245	pulse	1	t		6.0	2.5	blank	1.0	95.35104489326477	
8	75.11119246482849	pulse	1	t		6.0	2.5	blank	1.0	96.94307398796082	
8	75.23585247993469	fix_post	2		12	6.0	2.5	blank	1.0	97.06773400306702	0.1000063419342041
9	75.3358588218689	fix_pre	0		120	7.0	2.5	/experiments/Knapen_AOT/AOT_stimuli/rescaled_final/1330_rv.mp4	0.0	97.16774034500122	1.0085358619689941
9	76.34439468383789	movie	1		280	7.0	2.5	/experiments/Knapen_AOT/AOT_stimuli/rescaled_final/1330_rv.mp4	0.0	98.17627620697021	2.4920263290405273
9	76.71150040626526	pulse	1	t		7.0	2.5	/experiments/Knapen_AOT/AOT_stimuli/rescaled_final/1330_rv.mp4	0.0	98.54338192939758	
9	78.31152606010437	pulse	1	t		7.0	2.5	/experiments/Knapen_AOT/AOT_stimuli/rescaled_final/1330_rv.mp4	0.0	100.1434075832367	
9	78.83642101287842	fix_post	2		12	7.0	2.5	/experiments/Knapen_AOT/AOT_stimuli/rescaled_final/1330_rv.mp4	0.0	100.66830253601074	0.10001111030578613
10	78.9364321231842	fix_pre	0		118	8.0	2.5	/experiments/Knapen_AOT/AOT_stimuli/rescaled_final/0871_fw.mp4	0.0	100.76831364631653	0.9918026924133301
10	79.91177725791931	pulse	0	t		8.0	2.5	/experiments/Knapen_AOT/AOT_stimuli/rescaled_final/0871_fw.mp4	0.0	101.74365878105164	
10	79.92823481559753	movie	1		290	8.0	2.5	/experiments/Knapen_AOT/AOT_stimuli/rescaled_final/0871_fw.mp4	0.0	101.76011633872986	2.5003507137298584
10	81.5120837688446	pulse	1	t		8.0	2.5	/experiments/Knapen_AOT/AOT_stimuli/rescaled_final/0871_fw.mp4	0.0	103.34396529197693	
10	82.42858552932739	fix_post	2		12	8.0	2.5	/experiments/Knapen_AOT/AOT_stimuli/rescaled_final/0871_fw.mp4	0.0	104.26046705245972	0.10001802444458008
11	82.52860355377197	fix_pre	0		120	9.0	2.5	/experiments/Knapen_AOT/AOT_stimuli/rescaled_final/0848_rv.mp4	0.0	104.3604850769043	1.008488416671753
11	83.11225819587708	pulse	0	t		9.0	2.5	/experiments/Knapen_AOT/AOT_stimuli/rescaled_final/0848_rv.mp4	0.0	104.9441397190094	
11	83.53709197044373	movie	1		285	9.0	2.5	/experiments/Knapen_AOT/AOT_stimuli/rescaled_final/0848_rv.mp4	0.0	105.36897349357605	2.492037534713745
11	84.71259689331055	pulse	1	t		9.0	2.5	/experiments/Knapen_AOT/AOT_stimuli/rescaled_final/0848_rv.mp4	0.0	106.54447841644287	
11	86.02912950515747	fix_post	2		12	9.0	2.5	/experiments/Knapen_AOT/AOT_stimuli/rescaled_final/0848_rv.mp4	0.0	107.8610110282898	0.10001444816589355
12	86.12914395332336	fix_pre	0		120	10.0	2.5	/experiments/Knapen_AOT/AOT_stimuli/rescaled_final/1020_rv.mp4	0.0	107.96102547645569	1.0086305141448975
12	86.31274247169495	pulse	0	t		10.0	2.5	/experiments/Knapen_AOT/AOT_stimuli/rescaled_final/1020_rv.mp4	0.0	108.14462399482727	
12	87.13777446746826	movie	1		286	10.0	2.5	/experiments/Knapen_AOT/AOT_stimuli/rescaled_final/1020_rv.mp4	0.0	108.96965599060059	2.491929531097412
12	87.91299414634705	pulse	1	t		10.0	2.5	/experiments/Knapen_AOT/AOT_stimuli/rescaled_final/1020_rv.mp4	0.0	109.74487566947937	
12	89.51115202903748	pulse	1	t		10.0	2.5	/experiments/Knapen_AOT/AOT_stimuli/rescaled_final/1020_rv.mp4	0.0	111.3430335521698	
12	89.62970399856567	fix_post	2		12	10.0	2.5	/experiments/Knapen_AOT/AOT_stimuli/rescaled_final/1020_rv.mp4	0.0	111.461585521698	0.09998703002929688
13	89.72969102859497	fix_pre	0		120	11.0	2.5	/experiments/Knapen_AOT/AOT_stimuli/rescaled_final/0095_rv.mp4	0.0	111.5615725517273	1.0084929466247559
13	90.73818397521973	movie	1		273	11.0	2.5	/experiments/Knapen_AOT/AOT_stimuli/rescaled_final/0095_rv.mp4	0.0	112.57006549835205	2.492030382156372
13	91.11394047737122	pulse	1	t		11.0	2.5	/experiments/Knapen_AOT/AOT_stimuli/rescaled_final/0095_rv.mp4	0.0	112.94582200050354	
13	92.71164441108704	pulse	1	t		11.0	2.5	/experiments/Knapen_AOT/AOT_stimuli/rescaled_final/0095_rv.mp4	0.0	114.54352593421936	
13	93.2302143573761	fix_post	2		12	11.0	2.5	/experiments/Knapen_AOT/AOT_stimuli/rescaled_final/0095_rv.mp4	0.0	115.06209588050842	0.1000216007232666
14	93.33023595809937	fix_pre	0		119	12.0	2.5	/experiments/Knapen_AOT/AOT_stimuli/rescaled_final/0731_fw.mp4	0.0	115.16211748123169	1.0001888275146484
14	94.31393003463745	pulse	0	t		12.0	2.5	/experiments/Knapen_AOT/AOT_stimuli/rescaled_final/0731_fw.mp4	0.0	116.14581155776978	
14	94.33042478561401	movie	1		287	12.0	2.5	/experiments/Knapen_AOT/AOT_stimuli/rescaled_final/0731_fw.mp4	0.0	116.16230630874634	2.500338315963745
14	95.91423010826111	pulse	1	t		12.0	2.5	/experiments/Knapen_AOT/AOT_stimuli/rescaled_final/0731_fw.mp4	0.0	117.74611163139343	
14	96.83076310157776	fix_post	2		12	12.0	2.5	/experiments/Knapen_AOT/AOT_stimuli/rescaled_final/0731_fw.mp4	0.0	118.66264462471008	0.10003352165222168
15	96.93079662322998	fix_pre	0		120	13.0	2.5	blank	1.0	118.7626781463623	1.0001487731933594
15	97.51440334320068	pulse	0	t		13.0	2.5	blank	1.0	119.34628486633301	
15	97.93094539642334	movie	1		300	13.0	2.5	blank	1.0	119.76282691955566	2.5003464221954346
15	99.11462140083313	pulse	1	t		13.0	2.5	blank	1.0	120.94650292396545	
15	100.43129181861877	fix_post	2		12	13.0	2.5	blank	1.0	122.2631733417511	0.10003829002380371
16	100.53133010864258	fix_pre	0		120	14.0	2.5	/experiments/Knapen_AOT/AOT_stimuli/rescaled_final/0714_rv.mp4	0.0	122.3632116317749	1.0085527896881104
16	100.71490907669067	pulse	0	t		14.0	2.5	/experiments/Knapen_AOT/AOT_stimuli/rescaled_final/0714_rv.mp4	0.0	122.546790599823	
16	101.53988289833069	movie	1		284	14.0	2.5	/experiments/Knapen_AOT/AOT_stimuli/rescaled_final/0714_rv.mp4	0.0	123.37176442146301	2.4920341968536377
16	102.31316041946411	pulse	1	t		14.0	2.5	/experiments/Knapen_AOT/AOT_stimuli/rescaled_final/0714_rv.mp4	0.0	124.14504194259644	
16	103.91340565681458	pulse	1	t		14.0	2.5	/experiments/Knapen_AOT/AOT_stimuli/rescaled_final/0714_rv.mp4	0.0	125.7452871799469	
16	104.03191709518433	fix_post	2		12	14.0	2.5	/experiments/Knapen_AOT/AOT_stimuli/rescaled_final/0714_rv.mp4	0.0	125.86379861831665	0.0999610424041748
17	104.1318781375885	fix_pre	0		120	15.0	2.5	/experiments/Knapen_AOT/AOT_stimuli/rescaled_final/1681_rv.mp4	0.0	125.96375966072083	1.0084784030914307
17	105.14035654067993	movie	1		277	15.0	2.5	/experiments/Knapen_AOT/AOT_stimuli/rescaled_final/1681_rv.mp4	0.0	126.97223806381226	2.492022752761841
17	105.5143678188324	pulse	1	t		15.0	2.5	/experiments/Knapen_AOT/AOT_stimuli/rescaled_final/1681_rv.mp4	0.0	127.34624934196472	
17	107.1158561706543	pulse	1	t		15.0	2.5	/experiments/Knapen_AOT/AOT_stimuli/rescaled_final/1681_rv.mp4	0.0	128.94773769378662	
17	107.63237929344177	fix_post	2		12	15.0	2.5	/experiments/Knapen_AOT/AOT_stimuli/rescaled_final/1681_rv.mp4	0.0	129.4642608165741	0.10003042221069336
18	107.73240971565247	fix_pre	0		119	16.0	2.5	/experiments/Knapen_AOT/AOT_stimuli/rescaled_final/0131_fw.mp4	0.0	129.5642912387848	1.0001752376556396
18	108.71658086776733	pulse	0	t		16.0	2.5	/experiments/Knapen_AOT/AOT_stimuli/rescaled_final/0131_fw.mp4	0.0	130.54846239089966	
18	108.7325849533081	movie	1		297	16.0	2.5	/experiments/Knapen_AOT/AOT_stimuli/rescaled_final/0131_fw.mp4	0.0	130.56446647644043	2.500326633453369
18	110.31483006477356	pulse	1	t		16.0	2.5	/experiments/Knapen_AOT/AOT_stimuli/rescaled_final/0131_fw.mp4	0.0	132.14671158790588	
18	111.23291158676147	fix_post	2		12	16.0	2.5	/experiments/Knapen_AOT/AOT_stimuli/rescaled_final/0131_fw.mp4	0.0	133.0647931098938	0.10003376007080078
19	111.33294534683228	fix_pre	0		120	17.0	2.5	/experiments/Knapen_AOT/AOT_stimuli/rescaled_final/1678_rv.mp4	0.0	133.1648268699646	1.008540391921997
19	111.91684007644653	pulse	0	t		17.0	2.5	/experiments/Knapen_AOT/AOT_stimuli/rescaled_final/1678_rv.mp4	0.0	133.74872159957886	
19	112.34148573875427	movie	1		290	17.0	2.5	/experiments/Knapen_AOT/AOT_stimuli/rescaled_final/1678_rv.mp4	0.0	134.1733672618866	2.491969347000122
19	113.51478815078735	pulse	1	t		17.0	2.5	/experiments/Knapen_AOT/AOT_stimuli/rescaled_final/1678_rv.mp4	0.0	135.34666967391968	
19	114.8334550857544	fix_post	2		12	17.0	2.5	/experiments/Knapen_AOT/AOT_stimuli/rescaled_final/1678_rv.mp4	0.0	136.66533660888672	0.10009193420410156
20	114.9335470199585	fix_pre	0		120	18.0	2.5	/experiments/Knapen_AOT/AOT_stimuli/rescaled_final/0261_rv.mp4	0.0	136.76542854309082	1.0084490776062012
20	115.11707472801208	pulse	0	t		18.0	2.5	/experiments/Knapen_AOT/AOT_stimuli/rescaled_final/0261_rv.mp4	0.0	136.9489562511444	
20	115.9419960975647	movie	1		287	18.0	2.5	/experiments/Knapen_AOT/AOT_stimuli/rescaled_final/0261_rv.mp4	0.0	137.77387762069702	2.4920005798339844
20	116.71532893180847	pulse	1	t		18.0	2.5	/experiments/Knapen_AOT/AOT_stimuli/rescaled_final/0261_rv.mp4	0.0	138.5472104549408	
20	118.31547904014587	pulse	1	t		18.0	2.5	/experiments/Knapen_AOT/AOT_stimuli/rescaled_final/0261_rv.mp4	0.0	140.1473605632782	
20	118.43399667739868	fix_post	2		12	18.0	2.5	/experiments/Knapen_AOT/AOT_stimuli/rescaled_final/0261_rv.mp4	0.0	140.265878200531	0.10002851486206055
21	118.53402519226074	fix_pre	0		120	19.0	2.5	blank	1.0	140.36590671539307	1.0001416206359863
21	119.53416681289673	movie	1		300	19.0	2.5	blank	1.0	141.36604833602905	2.5003695487976074
21	119.91772961616516	pulse	1	t		19.0	2.5	blank	1.0	141.74961113929749	
21	121.51823139190674	pulse	1	t		19.0	2.5	blank	1.0	143.35011291503906	
21	122.03453636169434	fix_post	2		12	19.0	2.5	blank	1.0	143.86641788482666	0.10002803802490234
22	122.13456439971924	fix_pre	0		119	20.0	2.5	/experiments/Knapen_AOT/AOT_stimuli/rescaled_final/0265_rv.mp4	0.0	143.96644592285156	1.0002949237823486
22	123.11852264404297	pulse	0	t		20.0	2.5	/experiments/Knapen_AOT/AOT_stimuli/rescaled_final/0265_rv.mp4	0.0	144.9504041671753	
22	123.13485932350159	movie	1		282	20.0	2.5	/experiments/Knapen_AOT/AOT_stimuli/rescaled_final/0265_rv.mp4	0.0	144.9667408466339	2.5002381801605225
22	124.71763324737549	pulse	1	t		20.0	2.5	/experiments/Knapen_AOT/AOT_stimuli/rescaled_final/0265_rv.mp4	0.0	146.5495147705078	
22	125.63509750366211	fix_post	2		12	20.0	2.5	/experiments/Knapen_AOT/AOT_stimuli/rescaled_final/0265_rv.mp4	0.0	147.46697902679443	0.09999895095825195
23	125.73509645462036	fix_pre	0		120	21.0	2.5	/experiments/Knapen_AOT/AOT_stimuli/rescaled_final/0779_rv.mp4	0.0	147.56697797775269	1.0084795951843262
23	126.31867456436157	pulse	0	t		21.0	2.5	/experiments/Knapen_AOT/AOT_stimuli/rescaled_final/0779_rv.mp4	0.0	148.1505560874939	
23	126.74357604980469	movie	1		288	21.0	2.5	/experiments/Knapen_AOT/AOT_stimuli/rescaled_final/0779_rv.mp4	0.0	148.575457572937	2.4920430183410645
23	127.9171245098114	pulse	1	t		21.0	2.5	/experiments/Knapen_AOT/AOT_stimuli/rescaled_final/0779_rv.mp4	0.0	149.74900603294373	
23	129.23561906814575	fix_post	2		12	21.0	2.5	/experiments/Knapen_AOT/AOT_stimuli/rescaled_final/0779_rv.mp4	0.0	151.06750059127808	0.10003876686096191
24	129.3356578350067	fix_pre	0		120	22.0	2.5	/experiments/Knapen_AOT/AOT_stimuli/rescaled_final/0660_rv.mp4	0.0	151.16753935813904	1.0085091590881348
24	129.51216053962708	pulse	0	t		22.0	2.5	/experiments/Knapen_AOT/AOT_stimuli/rescaled_final/0660_rv.mp4	0.0	151.3440420627594	
24	130.34416699409485	movie	1		273	22.0	2.5	/experiments/Knapen_AOT/AOT_stimuli/rescaled_final/0660_rv.mp4	0.0	152.17604851722717	2.491997480392456
24	131.11946845054626	pulse	1	t		22.0	2.5	/experiments/Knapen_AOT/AOT_stimuli/rescaled_final/0660_rv.mp4	0.0	152.9513499736786	
24	132.71147775650024	pulse	1	t		22.0	2.5	/experiments/Knapen_AOT/AOT_stimuli/rescaled_final/0660_rv.mp4	0.0	154.54335927963257	
24	132.8361644744873	fix_post	2		12	22.0	2.5	/experiments/Knapen_AOT/AOT_stimuli/rescaled_final/0660_rv.mp4	0.0	154.66804599761963	0.1000375747680664
25	132.93620204925537	fix_pre	0		120	23.0	2.5	/experiments/Knapen_AOT/AOT_stimuli/rescaled_final/1824_rv.mp4	0.0	154.7680835723877	1.0084881782531738
25	133.94469022750854	movie	1		289	23.0	2.5	/experiments/Knapen_AOT/AOT_stimuli/rescaled_final/1824_rv.mp4	0.0	155.77657175064087	2.49202036857605
25	134.31159234046936	pulse	1	t		23.0	2.5	/experiments/Knapen_AOT/AOT_stimuli/rescaled_final/1824_rv.mp4	0.0	156.14347386360168	
25	135.91179823875427	pulse	1	t		23.0	2.5	/experiments/Knapen_AOT/AOT_stimuli/rescaled_final/1824_rv.mp4	0.0	157.7436797618866	
25	136.4367105960846	fix_post	2		12	23.0	2.5	/experiments/Knapen_AOT/AOT_stimuli/rescaled_final/1824_rv.mp4	0.0	158.26859211921692	0.10835909843444824
26	136.54506969451904	fix_pre	0		117	24.0	2.5	/experiments/Knapen_AOT/AOT_stimuli/rescaled_final/1279_rv.mp4	0.0	158.37695121765137	0.983501672744751
26	137.51207661628723	pulse	0	t		24.0	2.5	/experiments/Knapen_AOT/AOT_stimuli/rescaled_final/1279_rv.mp4	0.0	159.34395813941956	
26	137.5285713672638	movie	1		275	24.0	2.5	/experiments/Knapen_AOT/AOT_stimuli/rescaled_final/1279_rv.mp4	0.0	159.36045289039612	2.500366687774658
26	139.1124062538147	pulse	1	t		24.0	2.5	/experiments/Knapen_AOT/AOT_stimuli/rescaled_final/1279_rv.mp4	0.0	160.94428777694702	
26	140.02893805503845	fix_post	2		12	24.0	2.5	/experiments/Knapen_AOT/AOT_stimuli/rescaled_final/1279_rv.mp4	0.0	161.86081957817078	0.10002803802490234
27	140.12896609306335	fix_pre	0		120	25.0	2.5	/experiments/Knapen_AOT/AOT_stimuli/rescaled_final/1040_fw.mp4	0.0	161.96084761619568	1.0085699558258057
27	140.71256399154663	pulse	0	t		25.0	2.5	/experiments/Knapen_AOT/AOT_stimuli/rescaled_final/1040_fw.mp4	0.0	162.54444551467896	
27	141.13753604888916	movie	1		264	25.0	2.5	/experiments/Knapen_AOT/AOT_stimuli/rescaled_final/1040_fw.mp4	0.0	162.96941757202148	2.491947889328003
27	142.31198692321777	pulse	1	t		25.0	2.5	/experiments/Knapen_AOT/AOT_stimuli/rescaled_final/1040_fw.mp4	0.0	164.1438684463501	
27	143.62948393821716	fix_post	2		12	25.0	2.5	/experiments/Knapen_AOT/AOT_stimuli/rescaled_final/1040_fw.mp4	0.0	165.4613654613495	0.10000467300415039
28	143.7294886112213	fix_pre	0		120	26.0	2.5	blank	1.0	165.56137013435364	1.0001440048217773
28	143.9130289554596	pulse	0	t		26.0	2.5	blank	1.0	165.74491047859192	
28	144.7296326160431	movie	1		300	26.0	2.5	blank	1.0	166.56151413917542	2.5004024505615234
28	145.5132532119751	pulse	1	t		26.0	2.5	blank	1.0	167.34513473510742	
28	147.11349415779114	pulse	1	t		26.0	2.5	blank	1.0	168.94537568092346	
28	147.23003506660461	fix_post	2		12	26.0	2.5	blank	1.0	169.06191658973694	0.10001707077026367
29	147.33005213737488	fix_pre	0		120	27.0	2.5	/experiments/Knapen_AOT/AOT_stimuli/rescaled_final/1020_fw.mp4	0.0	169.1619336605072	1.008493423461914
29	148.3385455608368	movie	1		283	27.0	2.5	/experiments/Knapen_AOT/AOT_stimuli/rescaled_final/1020_fw.mp4	0.0	170.17042708396912	2.4920241832733154
29	148.7139048576355	pulse	1	t		27.0	2.5	/experiments/Knapen_AOT/AOT_stimuli/rescaled_final/1020_fw.mp4	0.0	170.54578638076782	
29	150.31288480758667	pulse	1	t		27.0	2.5	/experiments/Knapen_AOT/AOT_stimuli/rescaled_final/1020_fw.mp4	0.0	172.144766330719	
29	150.8305697441101	fix_post	2		12	27.0	2.5	/experiments/Knapen_AOT/AOT_stimuli/rescaled_final/1020_fw.mp4	0.0	172.66245126724243	0.10003137588500977
30	150.93060111999512	fix_pre	0		119	28.0	2.5	/experiments/Knapen_AOT/AOT_stimuli/rescaled_final/1312_fw.mp4	0.0	172.76248264312744	1.0001003742218018
30	151.91426920890808	pulse	0	t		28.0	2.5	/experiments/Knapen_AOT/AOT_stimuli/rescaled_final/1312_fw.mp4	0.0	173.7461507320404	
30	151.93070149421692	movie	1		278	28.0	2.5	/experiments/Knapen_AOT/AOT_stimuli/rescaled_final/1312_fw.mp4	0.0	173.76258301734924	2.5003926753997803
30	153.51312518119812	pulse	1	t		28.0	2.5	/experiments/Knapen_AOT/AOT_stimuli/rescaled_final/1312_fw.mp4	0.0	175.34500670433044	
30	154.4310941696167	fix_post	2		12	28.0	2.5	/experiments/Knapen_AOT/AOT_stimuli/rescaled_final/1312_fw.mp4	0.0	176.26297569274902	0.10005831718444824
31	154.53115248680115	fix_pre	0		120	29.0	2.5	/experiments/Knapen_AOT/AOT_stimuli/rescaled_final/1896_fw.mp4	0.0	176.36303400993347	1.008467674255371
31	155.11475038528442	pulse	0	t		29.0	2.5	/experiments/Knapen_AOT/AOT_stimuli/rescaled_final/1896_fw.mp4	0.0	176.94663190841675	
31	155.53962016105652	movie	1		288	29.0	2.5	/experiments/Knapen_AOT/AOT_stimuli/rescaled_final/1896_fw.mp4	0.0	177.37150168418884	2.4920156002044678
31	156.712961435318	pulse	1	t		29.0	2.5	/experiments/Knapen_AOT/AOT_stimuli/rescaled_final/1896_fw.mp4	0.0	178.54484295845032	
31	158.031635761261	fix_post	2		12	29.0	2.5	/experiments/Knapen_AOT/AOT_stimuli/rescaled_final/1896_fw.mp4	0.0	179.8635172843933	0.10006380081176758
32	158.13169956207275	fix_pre	0		120	30.0	2.5	/experiments/Knapen_AOT/AOT_stimuli/rescaled_final/1568_rv.mp4	0.0	179.96358108520508	1.0084855556488037
32	158.31517720222473	pulse	0	t		30.0	2.5	/experiments/Knapen_AOT/AOT_stimuli/rescaled_final/1568_rv.mp4	0.0	180.14705872535706	
32	159.14018511772156	movie	1		289	30.0	2.5	/experiments/Knapen_AOT/AOT_stimuli/rescaled_final/1568_rv.mp4	0.0	180.97206664085388	2.4920029640197754
32	159.91339206695557	pulse	1	t		30.0	2.5	/experiments/Knapen_AOT/AOT_stimuli/rescaled_final/1568_rv.mp4	0.0	181.7452735900879	
32	161.51370310783386	pulse	1	t		30.0	2.5	/experiments/Knapen_AOT/AOT_stimuli/rescaled_final/1568_rv.mp4	0.0	183.3455846309662	
32	161.63218808174133	fix_post	2		12	30.0	2.5	/experiments/Knapen_AOT/AOT_stimuli/rescaled_final/1568_rv.mp4	0.0	183.46406960487366	0.10005950927734375
33	161.73224759101868	fix_pre	0		120	31.0	2.5	/experiments/Knapen_AOT/AOT_stimuli/rescaled_final/1515_fw.mp4	0.0	183.564129114151	1.0085277557373047
33	162.74077534675598	movie	1		281	31.0	2.5	/experiments/Knapen_AOT/AOT_stimuli/rescaled_final/1515_fw.mp4	0.0	184.5726568698883	2.4919424057006836
33	163.1142942905426	pulse	1	t		31.0	2.5	/experiments/Knapen_AOT/AOT_stimuli/rescaled_final/1515_fw.mp4	0.0	184.94617581367493	
33	164.71409249305725	pulse	1	t		31.0	2.5	/experiments/Knapen_AOT/AOT_stimuli/rescaled_final/1515_fw.mp4	0.0	186.54597401618958	
33	165.23271775245667	fix_post	2		12	31.0	2.5	/experiments/Knapen_AOT/AOT_stimuli/rescaled_final/1515_fw.mp4	0.0	187.064599275589	0.10002350807189941
34	165.33274126052856	fix_pre	0		119	32.0	2.5	/experiments/Knapen_AOT/AOT_stimuli/rescaled_final/1537_rv.mp4	0.0	187.1646227836609	1.0003600120544434
34	166.31642866134644	pulse	0	t		32.0	2.5	/experiments/Knapen_AOT/AOT_stimuli/rescaled_final/1537_rv.mp4	0.0	188.14831018447876	
34	166.333101272583	movie	1		279	32.0	2.5	/experiments/Knapen_AOT/AOT_stimuli/rescaled_final/1537_rv.mp4	0.0	188.16498279571533	2.5001626014709473
34	167.91496682167053	pulse	1	t		32.0	2.5	/experiments/Knapen_AOT/AOT_stimuli/rescaled_final/1537_rv.mp4	0.0	189.74684834480286	
34	168.83326387405396	fix_post	2		12	32.0	2.5	/experiments/Knapen_AOT/AOT_stimuli/rescaled_final/1537_rv.mp4	0.0	190.66514539718628	0.10015273094177246
35	168.93341660499573	fix_pre	0		120	33.0	2.5	/experiments/Knapen_AOT/AOT_stimuli/rescaled_final/0640_rv.mp4	0.0	190.76529812812805	1.0083723068237305
35	169.51689052581787	pulse	0	t		33.0	2.5	/experiments/Knapen_AOT/AOT_stimuli/rescaled_final/0640_rv.mp4	0.0	191.3487720489502	
35	169.94178891181946	movie	1		292	33.0	2.5	/experiments/Knapen_AOT/AOT_stimuli/rescaled_final/0640_rv.mp4	0.0	191.77367043495178	2.492090940475464
35	171.115083694458	pulse	1	t		33.0	2.5	/experiments/Knapen_AOT/AOT_stimuli/rescaled_final/0640_rv.mp4	0.0	192.94696521759033	
35	172.43387985229492	fix_post	2		12	33.0	2.5	/experiments/Knapen_AOT/AOT_stimuli/rescaled_final/0640_rv.mp4	0.0	194.26576137542725	0.10826468467712402
36	172.54214453697205	fix_pre	0		119	34.0	2.5	/experiments/Knapen_AOT/AOT_stimuli/rescaled_final/1713_rv.mp4	0.0	194.37402606010437	1.0001938343048096
36	172.71735262870789	pulse	0	t		34.0	2.5	/experiments/Knapen_AOT/AOT_stimuli/rescaled_final/1713_rv.mp4	0.0	194.5492341518402	
36	173.54233837127686	movie	1		287	34.0	2.5	/experiments/Knapen_AOT/AOT_stimuli/rescaled_final/1713_rv.mp4	0.0	195.37421989440918	2.4920148849487305
36	174.31580710411072	pulse	1	t		34.0	2.5	/experiments/Knapen_AOT/AOT_stimuli/rescaled_final/1713_rv.mp4	0.0	196.14768862724304	
36	175.9158799648285	pulse	1	t		34.0	2.5	/experiments/Knapen_AOT/AOT_stimuli/rescaled_final/1713_rv.mp4	0.0	197.74776148796082	
36	176.0343532562256	fix_post	2		12	34.0	2.5	/experiments/Knapen_AOT/AOT_stimuli/rescaled_final/1713_rv.mp4	0.0	197.8662347793579	0.10000729560852051
37	176.1343605518341	fix_pre	0		120	35.0	2.5	blank	1.0	197.96624207496643	1.0004205703735352
37	177.13478112220764	movie	1		300	35.0	2.5	blank	1.0	198.96666264533997	2.5001142024993896
37	177.51811695098877	pulse	1	t		35.0	2.5	blank	1.0	199.3499984741211	
37	179.11827039718628	pulse	1	t		35.0	2.5	blank	1.0	200.9501519203186	
37	179.63489532470703	fix_post	2		12	35.0	2.5	blank	1.0	201.46677684783936	0.10001182556152344
38	179.73490715026855	fix_pre	0		119	36.0	2.5	/experiments/Knapen_AOT/AOT_stimuli/rescaled_final/0117_fw.mp4	0.0	201.56678867340088	1.0001366138458252
38	180.71852469444275	pulse	0	t		36.0	2.5	/experiments/Knapen_AOT/AOT_stimuli/rescaled_final/0117_fw.mp4	0.0	202.55040621757507	
38	180.73504376411438	movie	1		274	36.0	2.5	/experiments/Knapen_AOT/AOT_stimuli/rescaled_final/0117_fw.mp4	0.0	202.5669252872467	2.5004124641418457
38	182.31734442710876	pulse	1	t		36.0	2.5	/experiments/Knapen_AOT/AOT_stimuli/rescaled_final/0117_fw.mp4	0.0	204.1492259502411	
38	183.23545622825623	fix_post	2		12	36.0	2.5	/experiments/Knapen_AOT/AOT_stimuli/rescaled_final/0117_fw.mp4	0.0	205.06733775138855	0.0999901294708252
39	183.33544635772705	fix_pre	0		120	37.0	2.5	/experiments/Knapen_AOT/AOT_stimuli/rescaled_final/1623_rv.mp4	0.0	205.16732788085938	1.0085031986236572
39	183.91912651062012	pulse	0	t		37.0	2.5	/experiments/Knapen_AOT/AOT_stimuli/rescaled_final/1623_rv.mp4	0.0	205.75100803375244	
39	184.3439495563507	movie	1		291	37.0	2.5	/experiments/Knapen_AOT/AOT_stimuli/rescaled_final/1623_rv.mp4	0.0	206.17583107948303	2.4920835494995117
39	185.51847338676453	pulse	1	t		37.0	2.5	/experiments/Knapen_AOT/AOT_stimuli/rescaled_final/1623_rv.mp4	0.0	207.35035490989685	
39	186.83603310585022	fix_post	2		12	37.0	2.5	/experiments/Knapen_AOT/AOT_stimuli/rescaled_final/1623_rv.mp4	0.0	208.66791462898254	0.09993267059326172
40	186.93596577644348	fix_pre	0		120	38.0	2.5	/experiments/Knapen_AOT/AOT_stimuli/rescaled_final/0961_rv.mp4	0.0	208.7678472995758	1.0085325241088867
40	187.1195466518402	pulse	0	t		38.0	2.5	/experiments/Knapen_AOT/AOT_stimuli/rescaled_final/0961_rv.mp4	0.0	208.95142817497253	
40	187.94449830055237	movie	1		283	38.0	2.5	/experiments/Knapen_AOT/AOT_stimuli/rescaled_final/0961_rv.mp4	0.0	209.7763798236847	2.4920053482055664
40	188.71784377098083	pulse	1	t		38.0	2.5	/experiments/Knapen_AOT/AOT_stimuli/rescaled_final/0961_rv.mp4	0.0	210.54972529411316	
40	190.31202793121338	pulse	1	t		38.0	2.5	/experiments/Knapen_AOT/AOT_stimuli/rescaled_final/0961_rv.mp4	0.0	212.1439094543457	
40	190.43650364875793	fix_post	2		12	38.0	2.5	/experiments/Knapen_AOT/AOT_stimuli/rescaled_final/0961_rv.mp4	0.0	212.26838517189026	0.10009431838989258
41	190.53659796714783	fix_pre	0		120	39.0	2.5	/experiments/Knapen_AOT/AOT_stimuli/rescaled_final/1380_fw.mp4	0.0	212.36847949028015	1.0084164142608643
41	191.5450143814087	movie	1		281	39.0	2.5	/experiments/Knapen_AOT/AOT_stimuli/rescaled_final/1380_fw.mp4	0.0	213.37689590454102	2.4920437335968018
41	191.9121446609497	pulse	1	t		39.0	2.5	/experiments/Knapen_AOT/AOT_stimuli/rescaled_final/1380_fw.mp4	0.0	213.74402618408203	
41	193.51211977005005	pulse	1	t		39.0	2.5	/experiments/Knapen_AOT/AOT_stimuli/rescaled_final/1380_fw.mp4	0.0	215.34400129318237	
41	194.0370581150055	fix_post	2		12	39.0	2.5	/experiments/Knapen_AOT/AOT_stimuli/rescaled_final/1380_fw.mp4	0.0	215.86893963813782	0.1000058650970459
42	194.13706398010254	fix_pre	0		118	40.0	2.5	/experiments/Knapen_AOT/AOT_stimuli/rescaled_final/0550_fw.mp4	0.0	215.96894550323486	0.9919736385345459
42	195.11242842674255	pulse	0	t		40.0	2.5	/experiments/Knapen_AOT/AOT_stimuli/rescaled_final/0550_fw.mp4	0.0	216.94430994987488	
42	195.12903761863708	movie	1		280	40.0	2.5	/experiments/Knapen_AOT/AOT_stimuli/rescaled_final/0550_fw.mp4	0.0	216.9609191417694	2.5002331733703613
42	196.712628364563	pulse	1	t		40.0	2.5	/experiments/Knapen_AOT/AOT_stimuli/rescaled_final/0550_fw.mp4	0.0	218.5445098876953	
42	197.62927079200745	fix_post	2		12	40.0	2.5	/experiments/Knapen_AOT/AOT_stimuli/rescaled_final/0550_fw.mp4	0.0	219.46115231513977	0.10016727447509766
43	197.72943806648254	fix_pre	0		120	41.0	2.5	/experiments/Knapen_AOT/AOT_stimuli/rescaled_final/0950_fw.mp4	0.0	219.56131958961487	1.0083436965942383
43	198.31293416023254	pulse	0	t		41.0	2.5	/experiments/Knapen_AOT/AOT_stimuli/rescaled_final/0950_fw.mp4	0.0	220.14481568336487	
43	198.73778176307678	movie	1		279	41.0	2.5	/experiments/Knapen_AOT/AOT_stimuli/rescaled_final/0950_fw.mp4	0.0	220.5696632862091	2.4920902252197266
43	199.9131145477295	pulse	1	t		41.0	2.5	/experiments/Knapen_AOT/AOT_stimuli/rescaled_final/0950_fw.mp4	0.0	221.74499607086182	
43	201.2298719882965	fix_post	2		12	41.0	2.5	/experiments/Knapen_AOT/AOT_stimuli/rescaled_final/0950_fw.mp4	0.0	223.06175351142883	0.10834407806396484
44	201.33821606636047	fix_pre	0		119	42.0	2.5	blank	1.0	223.1700975894928	0.9917616844177246
44	201.5135097503662	pulse	0	t		42.0	2.5	blank	1.0	223.34539127349854	
44	202.3299777507782	movie	1		300	42.0	2.5	blank	1.0	224.16185927391052	2.500373363494873
44	203.1137719154358	pulse	1	t		42.0	2.5	blank	1.0	224.94565343856812	
44	204.71383929252625	pulse	1	t		42.0	2.5	blank	1.0	226.54572081565857	
44	204.83035111427307	fix_post	2		12	42.0	2.5	blank	1.0	226.6622326374054	0.10007524490356445
45	204.93042635917664	fix_pre	0		120	43.0	2.5	/experiments/Knapen_AOT/AOT_stimuli/rescaled_final/1404_rv.mp4	0.0	226.76230788230896	1.0084524154663086
45	205.93887877464294	movie	1		282	43.0	2.5	/experiments/Knapen_AOT/AOT_stimuli/rescaled_final/1404_rv.mp4	0.0	227.77076029777527	2.4920594692230225
45	206.31250500679016	pulse	1	t		43.0	2.5	/experiments/Knapen_AOT/AOT_stimuli/rescaled_final/1404_rv.mp4	0.0	228.14438652992249	
45	207.91254138946533	pulse	1	t		43.0	2.5	/experiments/Knapen_AOT/AOT_stimuli/rescaled_final/1404_rv.mp4	0.0	229.74442291259766	
45	208.43093824386597	fix_post	2		12	43.0	2.5	/experiments/Knapen_AOT/AOT_stimuli/rescaled_final/1404_rv.mp4	0.0	230.2628197669983	0.10003519058227539
46	208.53097343444824	fix_pre	0		119	44.0	2.5	/experiments/Knapen_AOT/AOT_stimuli/rescaled_final/1839_fw.mp4	0.0	230.36285495758057	1.0001499652862549
46	209.51463556289673	pulse	0	t		44.0	2.5	/experiments/Knapen_AOT/AOT_stimuli/rescaled_final/1839_fw.mp4	0.0	231.34651708602905	
46	209.5311233997345	movie	1		295	44.0	2.5	/experiments/Knapen_AOT/AOT_stimuli/rescaled_final/1839_fw.mp4	0.0	231.36300492286682	2.50030779838562
46	211.11328601837158	pulse	1	t		44.0	2.5	/experiments/Knapen_AOT/AOT_stimuli/rescaled_final/1839_fw.mp4	0.0	232.9451675415039	
46	212.03143119812012	fix_post	2		12	44.0	2.5	/experiments/Knapen_AOT/AOT_stimuli/rescaled_final/1839_fw.mp4	0.0	233.86331272125244	0.10001754760742188
47	212.13144874572754	fix_pre	0		120	45.0	2.5	/experiments/Knapen_AOT/AOT_stimuli/rescaled_final/0684_fw.mp4	0.0	233.96333026885986	1.0086352825164795
47	212.71505427360535	pulse	0	t		45.0	2.5	/experiments/Knapen_AOT/AOT_stimuli/rescaled_final/0684_fw.mp4	0.0	234.54693579673767	
47	213.14008402824402	movie	1		279	45.0	2.5	/experiments/Knapen_AOT/AOT_stimuli/rescaled_final/0684_fw.mp4	0.0	234.97196555137634	2.4919445514678955
47	214.31377696990967	pulse	1	t		45.0	2.5	/experiments/Knapen_AOT/AOT_stimuli/rescaled_final/0684_fw.mp4	0.0	236.145658493042	
47	215.6320285797119	fix_post	2		12	45.0	2.5	/experiments/Knapen_AOT/AOT_stimuli/rescaled_final/0684_fw.mp4	0.0	237.46391010284424	0.09996652603149414
48	215.7319951057434	fix_pre	0		120	46.0	2.5	/experiments/Knapen_AOT/AOT_stimuli/rescaled_final/0648_fw.mp4	0.0	237.56387662887573	1.0085163116455078
48	215.9154953956604	pulse	0	t		46.0	2.5	/experiments/Knapen_AOT/AOT_stimuli/rescaled_final/0648_fw.mp4	0.0	237.74737691879272	
48	216.74051141738892	movie	1		267	46.0	2.5	/experiments/Knapen_AOT/AOT_stimuli/rescaled_final/0648_fw.mp4	0.0	238.57239294052124	2.492009162902832
48	217.51516485214233	pulse	1	t		46.0	2.5	/experiments/Knapen_AOT/AOT_stimuli/rescaled_final/0648_fw.mp4	0.0	239.34704637527466	
48	219.11474657058716	pulse	1	t		46.0	2.5	/experiments/Knapen_AOT/AOT_stimuli/rescaled_final/0648_fw.mp4	0.0	240.94662809371948	
48	219.23252058029175	fix_post	2		12	46.0	2.5	/experiments/Knapen_AOT/AOT_stimuli/rescaled_final/0648_fw.mp4	0.0	241.06440210342407	0.10000228881835938
49	219.3325228691101	fix_pre	0		120	47.0	2.5	/experiments/Knapen_AOT/AOT_stimuli/rescaled_final/0848_rv.mp4	0.0	241.16440439224243	1.008556604385376
49	220.34107947349548	movie	1		270	47.0	2.5	/experiments/Knapen_AOT/AOT_stimuli/rescaled_final/0848_rv.mp4	0.0	242.1729609966278	2.4921517372131348
49	220.71479773521423	pulse	1	t		47.0	2.5	/experiments/Knapen_AOT/AOT_stimuli/rescaled_final/0848_rv.mp4	0.0	242.54667925834656	
49	222.31569051742554	pulse	1	t		47.0	2.5	/experiments/Knapen_AOT/AOT_stimuli/rescaled_final/0848_rv.mp4	0.0	244.14757204055786	
49	222.83323121070862	fix_post	2		12	47.0	2.5	/experiments/Knapen_AOT/AOT_stimuli/rescaled_final/0848_rv.mp4	0.0	244.66511273384094	0.09993720054626465
50	222.93316841125488	fix_pre	0		119	48.0	2.5	blank	1.0	244.7650499343872	0.9917521476745605
50	223.91685104370117	pulse	0	t		48.0	2.5	blank	1.0	245.7487325668335	
50	223.92492055892944	movie	1		301	48.0	2.5	blank	1.0	245.75680208206177	2.508676290512085
50	225.5171024799347	pulse	1	t		48.0	2.5	blank	1.0	247.34898400306702	
50	226.43359684944153	fix_post	2		12	48.0	2.5	blank	1.0	248.26547837257385	0.1000216007232666
51	226.5336184501648	fix_pre	0		120	49.0	2.5	/experiments/Knapen_AOT/AOT_stimuli/rescaled_final/1456_rv.mp4	0.0	248.36549997329712	1.008488416671753
51	227.11745858192444	pulse	0	t		49.0	2.5	/experiments/Knapen_AOT/AOT_stimuli/rescaled_final/1456_rv.mp4	0.0	248.94934010505676	
51	227.54210686683655	movie	1		277	49.0	2.5	/experiments/Knapen_AOT/AOT_stimuli/rescaled_final/1456_rv.mp4	0.0	249.37398838996887	2.4920895099639893
51	228.71618938446045	pulse	1	t		49.0	2.5	/experiments/Knapen_AOT/AOT_stimuli/rescaled_final/1456_rv.mp4	0.0	250.54807090759277	
51	230.03419637680054	fix_post	2		12	49.0	2.5	/experiments/Knapen_AOT/AOT_stimuli/rescaled_final/1456_rv.mp4	0.0	251.86607789993286	0.10006570816040039
52	230.13426208496094	fix_pre	0		120	50.0	2.5	/experiments/Knapen_AOT/AOT_stimuli/rescaled_final/1615_fw.mp4	0.0	251.96614360809326	1.0084271430969238
52	230.31771445274353	pulse	0	t		50.0	2.5	/experiments/Knapen_AOT/AOT_stimuli/rescaled_final/1615_fw.mp4	0.0	252.14959597587585	
52	231.14268922805786	movie	1		285	50.0	2.5	/experiments/Knapen_AOT/AOT_stimuli/rescaled_final/1615_fw.mp4	0.0	252.97457075119019	2.4920051097869873
52	231.91603541374207	pulse	1	t		50.0	2.5	/experiments/Knapen_AOT/AOT_stimuli/rescaled_final/1615_fw.mp4	0.0	253.7479169368744	
52	233.51631021499634	pulse	1	t		50.0	2.5	/experiments/Knapen_AOT/AOT_stimuli/rescaled_final/1615_fw.mp4	0.0	255.34819173812866	
52	233.63469433784485	fix_post	2		12	50.0	2.5	/experiments/Knapen_AOT/AOT_stimuli/rescaled_final/1615_fw.mp4	0.0	255.46657586097717	0.10000300407409668
53	233.73469734191895	fix_pre	0		120	51.0	2.5	/experiments/Knapen_AOT/AOT_stimuli/rescaled_final/0110_fw.mp4	0.0	255.56657886505127	1.0084972381591797
53	234.74319458007812	movie	1		276	51.0	2.5	/experiments/Knapen_AOT/AOT_stimuli/rescaled_final/0110_fw.mp4	0.0	256.57507610321045	2.4920496940612793
53	235.11869549751282	pulse	1	t		51.0	2.5	/experiments/Knapen_AOT/AOT_stimuli/rescaled_final/0110_fw.mp4	0.0	256.95057702064514	
53	236.71669960021973	pulse	1	t		51.0	2.5	/experiments/Knapen_AOT/AOT_stimuli/rescaled_final/0110_fw.mp4	0.0	258.54858112335205	
53	237.2352442741394	fix_post	2		12	51.0	2.5	/experiments/Knapen_AOT/AOT_stimuli/rescaled_final/0110_fw.mp4	0.0	259.06712579727173	0.10015153884887695
54	237.33539581298828	fix_pre	0		119	52.0	2.5	/experiments/Knapen_AOT/AOT_stimuli/rescaled_final/1618_fw.mp4	0.0	259.1672773361206	0.9999856948852539
54	238.31905102729797	pulse	0	t		52.0	2.5	/experiments/Knapen_AOT/AOT_stimuli/rescaled_final/1618_fw.mp4	0.0	260.1509325504303	
54	238.33538150787354	movie	1		281	52.0	2.5	/experiments/Knapen_AOT/AOT_stimuli/rescaled_final/1618_fw.mp4	0.0	260.16726303100586	2.500386953353882
54	239.91777777671814	pulse	1	t		52.0	2.5	/experiments/Knapen_AOT/AOT_stimuli/rescaled_final/1618_fw.mp4	0.0	261.74965929985046	
54	240.83576846122742	fix_post	2		12	52.0	2.5	/experiments/Knapen_AOT/AOT_stimuli/rescaled_final/1618_fw.mp4	0.0	262.66764998435974	0.10002732276916504
55	240.93579578399658	fix_pre	0		120	53.0	2.5	/experiments/Knapen_AOT/AOT_stimuli/rescaled_final/0985_rv.mp4	0.0	262.7676773071289	1.0084829330444336
55	241.5114369392395	pulse	0	t		53.0	2.5	/experiments/Knapen_AOT/AOT_stimuli/rescaled_final/0985_rv.mp4	0.0	263.3433184623718	
55	241.94427871704102	movie	1		281	53.0	2.5	/experiments/Knapen_AOT/AOT_stimuli/rescaled_final/0985_rv.mp4	0.0	263.77616024017334	2.492056131362915
55	243.111328125	pulse	1	t		53.0	2.5	/experiments/Knapen_AOT/AOT_stimuli/rescaled_final/0985_rv.mp4	0.0	264.9432096481323	
55	244.43633484840393	fix_post	2		12	53.0	2.5	/experiments/Knapen_AOT/AOT_stimuli/rescaled_final/0985_rv.mp4	0.0	266.26821637153625	0.10000038146972656
56	244.53633522987366	fix_pre	0		120	54.0	2.5	blank	1.0	266.368216753006	1.0001306533813477
56	244.71993708610535	pulse	0	t		54.0	2.5	blank	1.0	266.55181860923767	
56	245.536465883255	movie	1		300	54.0	2.5	blank	1.0	267.36834740638733	2.5003724098205566
56	246.3118598461151	pulse	1	t		54.0	2.5	blank	1.0	268.14374136924744	
56	247.91208028793335	pulse	1	t		54.0	2.5	blank	1.0	269.7439618110657	
56	248.03683829307556	fix_post	2		12	54.0	2.5	blank	1.0	269.8687198162079	0.10007166862487793
57	248.13690996170044	fix_pre	0		120	55.0	2.5	/experiments/Knapen_AOT/AOT_stimuli/rescaled_final/1616_fw.mp4	0.0	269.96879148483276	1.0084364414215088
57	249.14534640312195	movie	1		267	55.0	2.5	/experiments/Knapen_AOT/AOT_stimuli/rescaled_final/1616_fw.mp4	0.0	270.9772279262543	2.492053985595703
57	249.51259541511536	pulse	1	t		55.0	2.5	/experiments/Knapen_AOT/AOT_stimuli/rescaled_final/1616_fw.mp4	0.0	271.3444769382477	
57	251.11279034614563	pulse	1	t		55.0	2.5	/experiments/Knapen_AOT/AOT_stimuli/rescaled_final/1616_fw.mp4	0.0	272.94467186927795	
57	251.63740038871765	fix_post	2		12	55.0	2.5	/experiments/Knapen_AOT/AOT_stimuli/rescaled_final/1616_fw.mp4	0.0	273.46928191185	0.1000206470489502
58	251.7374210357666	fix_pre	0		118	56.0	2.5	/experiments/Knapen_AOT/AOT_stimuli/rescaled_final/1116_rv.mp4	0.0	273.5693025588989	0.9918153285980225
58	252.71285223960876	pulse	0	t		56.0	2.5	/experiments/Knapen_AOT/AOT_stimuli/rescaled_final/1116_rv.mp4	0.0	274.5447337627411	
58	252.72923636436462	movie	1		273	56.0	2.5	/experiments/Knapen_AOT/AOT_stimuli/rescaled_final/1116_rv.mp4	0.0	274.56111788749695	2.5003652572631836
58	254.31161856651306	pulse	1	t		56.0	2.5	/experiments/Knapen_AOT/AOT_stimuli/rescaled_final/1116_rv.mp4	0.0	276.1435000896454	
58	255.2296016216278	fix_post	2		12	56.0	2.5	/experiments/Knapen_AOT/AOT_stimuli/rescaled_final/1116_rv.mp4	0.0	277.06148314476013	0.1000220775604248
59	255.32962369918823	fix_pre	0		120	57.0	2.5	/experiments/Knapen_AOT/AOT_stimuli/rescaled_final/0657_fw.mp4	0.0	277.16150522232056	1.008531093597412
59	255.91338443756104	pulse	0	t		57.0	2.5	/experiments/Knapen_AOT/AOT_stimuli/rescaled_final/0657_fw.mp4	0.0	277.74526596069336	
59	256.33815479278564	movie	1		283	57.0	2.5	/experiments/Knapen_AOT/AOT_stimuli/rescaled_final/0657_fw.mp4	0.0	278.17003631591797	2.4919958114624023
59	257.5116605758667	pulse	1	t		57.0	2.5	/experiments/Knapen_AOT/AOT_stimuli/rescaled_final/0657_fw.mp4	0.0	279.343542098999	
59	258.83015060424805	fix_post	2		12	57.0	2.5	/experiments/Knapen_AOT/AOT_stimuli/rescaled_final/0657_fw.mp4	0.0	280.66203212738037	0.10004019737243652
60	258.9301908016205	fix_pre	0		120	58.0	2.5	/experiments/Knapen_AOT/AOT_stimuli/rescaled_final/0082_rv.mp4	0.0	280.7620723247528	1.008470058441162
60	259.11383056640625	pulse	0	t		58.0	2.5	/experiments/Knapen_AOT/AOT_stimuli/rescaled_final/0082_rv.mp4	0.0	280.9457120895386	
60	259.93866086006165	movie	1		279	58.0	2.5	/experiments/Knapen_AOT/AOT_stimuli/rescaled_final/0082_rv.mp4	0.0	281.77054238319397	2.492016315460205
60	260.7124516963959	pulse	1	t		58.0	2.5	/experiments/Knapen_AOT/AOT_stimuli/rescaled_final/0082_rv.mp4	0.0	282.5443332195282	
60	262.3126628398895	pulse	1	t		58.0	2.5	/experiments/Knapen_AOT/AOT_stimuli/rescaled_final/0082_rv.mp4	0.0	284.14454436302185	
60	262.43067717552185	fix_post	2		12	58.0	2.5	/experiments/Knapen_AOT/AOT_stimuli/rescaled_final/0082_rv.mp4	0.0	284.2625586986542	0.10003113746643066
61	262.5307083129883	fix_pre	0		120	59.0	2.5	/experiments/Knapen_AOT/AOT_stimuli/rescaled_final/1082_fw.mp4	0.0	284.3625898361206	1.0084803104400635
61	263.53918862342834	movie	1		276	59.0	2.5	/experiments/Knapen_AOT/AOT_stimuli/rescaled_final/1082_fw.mp4	0.0	285.37107014656067	2.4920473098754883
61	263.9134593009949	pulse	1	t		59.0	2.5	/experiments/Knapen_AOT/AOT_stimuli/rescaled_final/1082_fw.mp4	0.0	285.7453408241272	
61	265.5126087665558	pulse	1	t		59.0	2.5	/experiments/Knapen_AOT/AOT_stimuli/rescaled_final/1082_fw.mp4	0.0	287.3444902896881	
61	266.03123593330383	fix_post	2		12	59.0	2.5	/experiments/Knapen_AOT/AOT_stimuli/rescaled_final/1082_fw.mp4	0.0	287.86311745643616	0.09997916221618652
62	266.13121509552	fix_pre	0		119	60.0	2.5	/experiments/Knapen_AOT/AOT_stimuli/rescaled_final/0892_rv.mp4	0.0	287.96309661865234	1.0086069107055664
62	267.1151051521301	pulse	0	t		60.0	2.5	/experiments/Knapen_AOT/AOT_stimuli/rescaled_final/0892_rv.mp4	0.0	288.94698667526245	
62	267.1398220062256	movie	1		278	60.0	2.5	/experiments/Knapen_AOT/AOT_stimuli/rescaled_final/0892_rv.mp4	0.0	288.9717035293579	2.4919683933258057
62	268.7139778137207	pulse	1	t		60.0	2.5	/experiments/Knapen_AOT/AOT_stimuli/rescaled_final/0892_rv.mp4	0.0	290.545859336853	
62	269.6317903995514	fix_post	2		12	60.0	2.5	/experiments/Knapen_AOT/AOT_stimuli/rescaled_final/0892_rv.mp4	0.0	291.4636719226837	0.10001087188720703
63	269.7318012714386	fix_pre	0		120	61.0	2.5	/experiments/Knapen_AOT/AOT_stimuli/rescaled_final/0193_rv.mp4	0.0	291.5636827945709	1.008481740951538
63	270.3156623840332	pulse	0	t		61.0	2.5	/experiments/Knapen_AOT/AOT_stimuli/rescaled_final/0193_rv.mp4	0.0	292.1475439071655	
63	270.74028301239014	movie	1		270	61.0	2.5	/experiments/Knapen_AOT/AOT_stimuli/rescaled_final/0193_rv.mp4	0.0	292.57216453552246	2.492025852203369
63	271.91581559181213	pulse	1	t		61.0	2.5	/experiments/Knapen_AOT/AOT_stimuli/rescaled_final/0193_rv.mp4	0.0	293.74769711494446	
63	273.2323088645935	fix_post	2		12	61.0	2.5	/experiments/Knapen_AOT/AOT_stimuli/rescaled_final/0193_rv.mp4	0.0	295.06419038772583	0.10001730918884277
64	273.33232617378235	fix_pre	0		120	62.0	2.5	blank	1.0	295.1642076969147	1.000171184539795
64	273.51602029800415	pulse	0	t		62.0	2.5	blank	1.0	295.3479018211365	
64	274.33249735832214	movie	1		300	62.0	2.5	blank	1.0	296.16437888145447	2.5004689693450928
64	275.1162140369415	pulse	1	t		62.0	2.5	blank	1.0	296.94809556007385	
64	276.71648478507996	pulse	1	t		62.0	2.5	blank	1.0	298.5483663082123	
64	276.83296632766724	fix_post	2		12	62.0	2.5	blank	1.0	298.66484785079956	0.1000518798828125
65	276.93301820755005	fix_pre	0		120	63.0	2.5	/experiments/Knapen_AOT/AOT_stimuli/rescaled_final/0341_rv.mp4	0.0	298.7648997306824	1.0083491802215576
65	277.9413673877716	movie	1		278	63.0	2.5	/experiments/Knapen_AOT/AOT_stimuli/rescaled_final/0341_rv.mp4	0.0	299.77324891090393	2.4920222759246826
65	278.3166787624359	pulse	1	t		63.0	2.5	/experiments/Knapen_AOT/AOT_stimuli/rescaled_final/0341_rv.mp4	0.0	300.14856028556824	
65	279.9152076244354	pulse	1	t		63.0	2.5	/experiments/Knapen_AOT/AOT_stimuli/rescaled_final/0341_rv.mp4	0.0	301.74708914756775	
65	280.4333896636963	fix_post	2		12	63.0	2.5	/experiments/Knapen_AOT/AOT_stimuli/rescaled_final/0341_rv.mp4	0.0	302.2652711868286	0.10002303123474121
66	280.53341269493103	fix_pre	0		119	64.0	2.5	/experiments/Knapen_AOT/AOT_stimuli/rescaled_final/0127_rv.mp4	0.0	302.36529421806335	1.0085678100585938
66	281.51722526550293	pulse	0	t		64.0	2.5	/experiments/Knapen_AOT/AOT_stimuli/rescaled_final/0127_rv.mp4	0.0	303.34910678863525	
66	281.5419805049896	movie	1		278	64.0	2.5	/experiments/Knapen_AOT/AOT_stimuli/rescaled_final/0127_rv.mp4	0.0	303.37386202812195	2.491947889328003
66	283.11603355407715	pulse	1	t		64.0	2.5	/experiments/Knapen_AOT/AOT_stimuli/rescaled_final/0127_rv.mp4	0.0	304.9479150772095	
66	284.0339283943176	fix_post	2		12	64.0	2.5	/experiments/Knapen_AOT/AOT_stimuli/rescaled_final/0127_rv.mp4	0.0	305.86580991744995	0.1001434326171875
67	284.1340718269348	fix_pre	0		120	65.0	2.5	/experiments/Knapen_AOT/AOT_stimuli/rescaled_final/0371_rv.mp4	0.0	305.96595335006714	1.0083909034729004
67	284.717955827713	pulse	0	t		65.0	2.5	/experiments/Knapen_AOT/AOT_stimuli/rescaled_final/0371_rv.mp4	0.0	306.54983735084534	
67	285.1424627304077	movie	1		278	65.0	2.5	/experiments/Knapen_AOT/AOT_stimuli/rescaled_final/0371_rv.mp4	0.0	306.97434425354004	2.492027521133423
67	286.31599378585815	pulse	1	t		65.0	2.5	/experiments/Knapen_AOT/AOT_stimuli/rescaled_final/0371_rv.mp4	0.0	308.1478753089905	
67	287.63449025154114	fix_post	2		12	65.0	2.5	/experiments/Knapen_AOT/AOT_stimuli/rescaled_final/0371_rv.mp4	0.0	309.46637177467346	0.10005521774291992
68	287.73454546928406	fix_pre	0		120	66.0	2.5	/experiments/Knapen_AOT/AOT_stimuli/rescaled_final/0598_rv.mp4	0.0	309.5664269924164	1.0084640979766846
68	287.91812467575073	pulse	0	t		66.0	2.5	/experiments/Knapen_AOT/AOT_stimuli/rescaled_final/0598_rv.mp4	0.0	309.75000619888306	
68	288.74300956726074	movie	1		281	66.0	2.5	/experiments/Knapen_AOT/AOT_stimuli/rescaled_final/0598_rv.mp4	0.0	310.57489109039307	2.4920167922973633
68	289.5162823200226	pulse	1	t		66.0	2.5	/experiments/Knapen_AOT/AOT_stimuli/rescaled_final/0598_rv.mp4	0.0	311.3481638431549	
68	291.11681747436523	pulse	1	t		66.0	2.5	/experiments/Knapen_AOT/AOT_stimuli/rescaled_final/0598_rv.mp4	0.0	312.94869899749756	
68	291.2350263595581	fix_post	2		12	66.0	2.5	/experiments/Knapen_AOT/AOT_stimuli/rescaled_final/0598_rv.mp4	0.0	313.06690788269043	0.10000991821289062
69	291.335036277771	fix_pre	0		120	67.0	2.5	/experiments/Knapen_AOT/AOT_stimuli/rescaled_final/0714_rv.mp4	0.0	313.1669178009033	1.0084831714630127
69	292.343519449234	movie	1		264	67.0	2.5	/experiments/Knapen_AOT/AOT_stimuli/rescaled_final/0714_rv.mp4	0.0	314.17540097236633	2.492093801498413
69	292.7174377441406	pulse	1	t		67.0	2.5	/experiments/Knapen_AOT/AOT_stimuli/rescaled_final/0714_rv.mp4	0.0	314.54931926727295	
69	294.3168623447418	pulse	1	t		67.0	2.5	/experiments/Knapen_AOT/AOT_stimuli/rescaled_final/0714_rv.mp4	0.0	316.14874386787415	
69	294.8356132507324	fix_post	2		12	67.0	2.5	/experiments/Knapen_AOT/AOT_stimuli/rescaled_final/0714_rv.mp4	0.0	316.66749477386475	0.09996342658996582
70	294.9355766773224	fix_pre	0		119	68.0	2.5	/experiments/Knapen_AOT/AOT_stimuli/rescaled_final/0082_fw.mp4	0.0	316.7674582004547	1.0001678466796875
70	295.9121723175049	pulse	0	t		68.0	2.5	/experiments/Knapen_AOT/AOT_stimuli/rescaled_final/0082_fw.mp4	0.0	317.7440538406372	
70	295.9357445240021	movie	1		273	68.0	2.5	/experiments/Knapen_AOT/AOT_stimuli/rescaled_final/0082_fw.mp4	0.0	317.7676260471344	2.5003387928009033
70	297.518173456192	pulse	1	t		68.0	2.5	/experiments/Knapen_AOT/AOT_stimuli/rescaled_final/0082_fw.mp4	0.0	319.35005497932434	
70	298.436083316803	fix_post	2		12	68.0	2.5	/experiments/Knapen_AOT/AOT_stimuli/rescaled_final/0082_fw.mp4	0.0	320.2679648399353	0.10006022453308105
71	298.53614354133606	fix_pre	0		120	69.0	2.5	/experiments/Knapen_AOT/AOT_stimuli/rescaled_final/1068_fw.mp4	0.0	320.3680250644684	1.0084872245788574
71	299.11196541786194	pulse	0	t		69.0	2.5	/experiments/Knapen_AOT/AOT_stimuli/rescaled_final/1068_fw.mp4	0.0	320.94384694099426	
71	299.5446307659149	movie	1		270	69.0	2.5	/experiments/Knapen_AOT/AOT_stimuli/rescaled_final/1068_fw.mp4	0.0	321.37651228904724	2.4920217990875244
71	300.7118012905121	pulse	1	t		69.0	2.5	/experiments/Knapen_AOT/AOT_stimuli/rescaled_final/1068_fw.mp4	0.0	322.5436828136444	
71	302.03665256500244	fix_post	2		11	69.0	2.5	/experiments/Knapen_AOT/AOT_stimuli/rescaled_final/1068_fw.mp4	0.0	323.86853408813477	0.10001349449157715
72	302.136666059494	fix_pre	0		120	70.0	2.5	blank	1.0	323.96854758262634	1.0001425743103027
72	302.3120815753937	pulse	0	t		70.0	2.5	blank	1.0	324.143963098526	
72	303.1368086338043	movie	1		300	70.0	2.5	blank	1.0	324.96869015693665	2.500387668609619
72	303.9121820926666	pulse	1	t		70.0	2.5	blank	1.0	325.74406361579895	
72	305.51235699653625	pulse	1	t		70.0	2.5	blank	1.0	327.3442385196686	
72	305.63719630241394	fix_post	2		12	70.0	2.5	blank	1.0	327.46907782554626	0.10001873970031738
73	305.73721504211426	fix_pre	0		120	71.0	2.5	/experiments/Knapen_AOT/AOT_stimuli/rescaled_final/1058_rv.mp4	0.0	327.5690965652466	1.0085053443908691
73	306.7457203865051	movie	1		275	71.0	2.5	/experiments/Knapen_AOT/AOT_stimuli/rescaled_final/1058_rv.mp4	0.0	328.57760190963745	2.4919986724853516
73	307.11263966560364	pulse	1	t		71.0	2.5	/experiments/Knapen_AOT/AOT_stimuli/rescaled_final/1058_rv.mp4	0.0	328.94452118873596	
73	308.7130398750305	pulse	1	t		71.0	2.5	/experiments/Knapen_AOT/AOT_stimuli/rescaled_final/1058_rv.mp4	0.0	330.54492139816284	
73	309.2377190589905	fix_post	2		12	71.0	2.5	/experiments/Knapen_AOT/AOT_stimuli/rescaled_final/1058_rv.mp4	0.0	331.0696005821228	0.10003280639648438
74	309.33775186538696	fix_pre	0		118	72.0	2.5	/experiments/Knapen_AOT/AOT_stimuli/rescaled_final/0779_rv.mp4	0.0	331.1696333885193	0.9919149875640869
74	310.3131365776062	pulse	0	t		72.0	2.5	/experiments/Knapen_AOT/AOT_stimuli/rescaled_final/0779_rv.mp4	0.0	332.1450181007385	
74	310.32966685295105	movie	1		274	72.0	2.5	/experiments/Knapen_AOT/AOT_stimuli/rescaled_final/0779_rv.mp4	0.0	332.1615483760834	2.50028133392334
74	311.9130322933197	pulse	1	t		72.0	2.5	/experiments/Knapen_AOT/AOT_stimuli/rescaled_final/0779_rv.mp4	0.0	333.744913816452	
74	312.8299481868744	fix_post	2		12	72.0	2.5	/experiments/Knapen_AOT/AOT_stimuli/rescaled_final/0779_rv.mp4	0.0	334.6618297100067	0.10001397132873535
75	312.9299621582031	fix_pre	0		120	73.0	2.5	/experiments/Knapen_AOT/AOT_stimuli/rescaled_final/0594_fw.mp4	0.0	334.76184368133545	1.0084693431854248
75	313.51383328437805	pulse	0	t		73.0	2.5	/experiments/Knapen_AOT/AOT_stimuli/rescaled_final/0594_fw.mp4	0.0	335.3457148075104	
75	313.93843150138855	movie	1		284	73.0	2.5	/experiments/Knapen_AOT/AOT_stimuli/rescaled_final/0594_fw.mp4	0.0	335.7703130245209	2.492030143737793
75	315.11263060569763	pulse	1	t		73.0	2.5	/experiments/Knapen_AOT/AOT_stimuli/rescaled_final/0594_fw.mp4	0.0	336.94451212882996	
75	316.43046164512634	fix_post	2		12	73.0	2.5	/experiments/Knapen_AOT/AOT_stimuli/rescaled_final/0594_fw.mp4	0.0	338.26234316825867	0.10003185272216797
76	316.5304934978485	fix_pre	0		120	74.0	2.5	/experiments/Knapen_AOT/AOT_stimuli/rescaled_final/1040_rv.mp4	0.0	338.36237502098083	1.0084972381591797
76	316.7140564918518	pulse	0	t		74.0	2.5	/experiments/Knapen_AOT/AOT_stimuli/rescaled_final/1040_rv.mp4	0.0	338.54593801498413	
76	317.5389907360077	movie	1		281	74.0	2.5	/experiments/Knapen_AOT/AOT_stimuli/rescaled_final/1040_rv.mp4	0.0	339.37087225914	2.4922585487365723
76	318.31259512901306	pulse	1	t		74.0	2.5	/experiments/Knapen_AOT/AOT_stimuli/rescaled_final/1040_rv.mp4	0.0	340.1444766521454	
76	319.91285514831543	pulse	1	t		74.0	2.5	/experiments/Knapen_AOT/AOT_stimuli/rescaled_final/1040_rv.mp4	0.0	341.74473667144775	
76	320.03124928474426	fix_post	2		12	74.0	2.5	/experiments/Knapen_AOT/AOT_stimuli/rescaled_final/1040_rv.mp4	0.0	341.8631308078766	0.09980058670043945
77	320.1310498714447	fix_pre	0		120	75.0	2.5	/experiments/Knapen_AOT/AOT_stimuli/rescaled_final/2039_rv.mp4	0.0	341.962931394577	1.008514165878296
77	321.139564037323	movie	1		275	75.0	2.5	/experiments/Knapen_AOT/AOT_stimuli/rescaled_final/2039_rv.mp4	0.0	342.9714455604553	2.492039918899536
77	321.51321935653687	pulse	1	t		75.0	2.5	/experiments/Knapen_AOT/AOT_stimuli/rescaled_final/2039_rv.mp4	0.0	343.3451008796692	
77	323.1154673099518	pulse	1	t		75.0	2.5	/experiments/Knapen_AOT/AOT_stimuli/rescaled_final/2039_rv.mp4	0.0	344.9473488330841	
77	323.63160395622253	fix_post	2		12	75.0	2.5	/experiments/Knapen_AOT/AOT_stimuli/rescaled_final/2039_rv.mp4	0.0	345.46348547935486	0.09998226165771484
78	323.73158621788025	fix_pre	0		119	76.0	2.5	blank	1.0	345.5634677410126	0.9917609691619873
78	324.7155239582062	pulse	0	t		76.0	2.5	blank	1.0	346.5474054813385	
78	324.72334718704224	movie	1		301	76.0	2.5	blank	1.0	346.55522871017456	2.508795976638794
78	326.31599736213684	pulse	1	t		76.0	2.5	blank	1.0	348.14787888526917	
78	327.23214316368103	fix_post	2		12	76.0	2.5	blank	1.0	349.06402468681335	0.10006022453308105
79	327.3322033882141	fix_pre	0		120	77.0	2.5	/experiments/Knapen_AOT/AOT_stimuli/rescaled_final/1116_rv.mp4	0.0	349.16408491134644	1.0084264278411865
79	327.91576313972473	pulse	0	t		77.0	2.5	/experiments/Knapen_AOT/AOT_stimuli/rescaled_final/1116_rv.mp4	0.0	349.74764466285706	
79	328.3406298160553	movie	1		276	77.0	2.5	/experiments/Knapen_AOT/AOT_stimuli/rescaled_final/1116_rv.mp4	0.0	350.1725113391876	2.492020845413208
79	329.5142512321472	pulse	1	t		77.0	2.5	/experiments/Knapen_AOT/AOT_stimuli/rescaled_final/1116_rv.mp4	0.0	351.34613275527954	
79	330.8326506614685	fix_post	2		12	77.0	2.5	/experiments/Knapen_AOT/AOT_stimuli/rescaled_final/1116_rv.mp4	0.0	352.66453218460083	0.10010480880737305
80	330.9327554702759	fix_pre	0		120	78.0	2.5	/experiments/Knapen_AOT/AOT_stimuli/rescaled_final/0556_fw.mp4	0.0	352.7646369934082	1.0084176063537598
80	331.1163167953491	pulse	0	t		78.0	2.5	/experiments/Knapen_AOT/AOT_stimuli/rescaled_final/0556_fw.mp4	0.0	352.94819831848145	
80	331.94117307662964	movie	1		278	78.0	2.5	/experiments/Knapen_AOT/AOT_stimuli/rescaled_final/0556_fw.mp4	0.0	353.77305459976196	2.492014169692993
80	332.7144238948822	pulse	1	t		78.0	2.5	/experiments/Knapen_AOT/AOT_stimuli/rescaled_final/0556_fw.mp4	0.0	354.5463054180145	
80	334.314994096756	pulse	1	t		78.0	2.5	/experiments/Knapen_AOT/AOT_stimuli/rescaled_final/0556_fw.mp4	0.0	356.1468756198883	
80	334.43318724632263	fix_post	2		12	78.0	2.5	/experiments/Knapen_AOT/AOT_stimuli/rescaled_final/0556_fw.mp4	0.0	356.26506876945496	0.10003089904785156
81	334.5332181453705	fix_pre	0		120	79.0	2.5	/experiments/Knapen_AOT/AOT_stimuli/rescaled_final/0253_rv.mp4	0.0	356.3650996685028	1.0084984302520752
81	335.54171657562256	movie	1		275	79.0	2.5	/experiments/Knapen_AOT/AOT_stimuli/rescaled_final/0253_rv.mp4	0.0	357.3735980987549	2.4920291900634766
81	335.91576504707336	pulse	1	t		79.0	2.5	/experiments/Knapen_AOT/AOT_stimuli/rescaled_final/0253_rv.mp4	0.0	357.7476465702057	
81	337.51538252830505	pulse	1	t		79.0	2.5	/experiments/Knapen_AOT/AOT_stimuli/rescaled_final/0253_rv.mp4	0.0	359.3472640514374	
81	338.03374576568604	fix_post	2		12	79.0	2.5	/experiments/Knapen_AOT/AOT_stimuli/rescaled_final/0253_rv.mp4	0.0	359.86562728881836	0.09997892379760742
82	338.13372468948364	fix_pre	0		119	80.0	2.5	/experiments/Knapen_AOT/AOT_stimuli/rescaled_final/0871_rv.mp4	0.0	359.96560621261597	1.0086119174957275
82	339.11761808395386	pulse	0	t		80.0	2.5	/experiments/Knapen_AOT/AOT_stimuli/rescaled_final/0871_rv.mp4	0.0	360.9494996070862	
82	339.14233660697937	movie	1		253	80.0	2.5	/experiments/Knapen_AOT/AOT_stimuli/rescaled_final/0871_rv.mp4	0.0	360.9742181301117	2.4919826984405518
82	340.7182388305664	pulse	1	t		80.0	2.5	/experiments/Knapen_AOT/AOT_stimuli/rescaled_final/0871_rv.mp4	0.0	362.55012035369873	
82	341.6343193054199	fix_post	2		12	80.0	2.5	/experiments/Knapen_AOT/AOT_stimuli/rescaled_final/0871_rv.mp4	0.0	363.46620082855225	0.09998250007629395
83	341.7343018054962	fix_pre	0		120	81.0	2.5	/experiments/Knapen_AOT/AOT_stimuli/rescaled_final/0883_rv.mp4	0.0	363.56618332862854	1.0085771083831787
83	342.31835317611694	pulse	0	t		81.0	2.5	/experiments/Knapen_AOT/AOT_stimuli/rescaled_final/0883_rv.mp4	0.0	364.15023469924927	
83	342.7428789138794	movie	1		283	81.0	2.5	/experiments/Knapen_AOT/AOT_stimuli/rescaled_final/0883_rv.mp4	0.0	364.5747604370117	2.4919590950012207
83	343.91655254364014	pulse	1	t		81.0	2.5	/experiments/Knapen_AOT/AOT_stimuli/rescaled_final/0883_rv.mp4	0.0	365.74843406677246	
83	345.2348380088806	fix_post	2		12	81.0	2.5	/experiments/Knapen_AOT/AOT_stimuli/rescaled_final/0883_rv.mp4	0.0	367.06671953201294	0.10001468658447266
84	345.3348526954651	fix_pre	0		120	82.0	2.5	blank	1.0	367.1667342185974	1.0001378059387207
84	345.5191011428833	pulse	0	t		82.0	2.5	blank	1.0	367.3509826660156	
84	346.3349905014038	movie	1		300	82.0	2.5	blank	1.0	368.16687202453613	2.5003910064697266
84	347.11906456947327	pulse	1	t		82.0	2.5	blank	1.0	368.9509460926056	
84	348.7191948890686	pulse	1	t		82.0	2.5	blank	1.0	370.5510764122009	
84	348.83538150787354	fix_post	2		12	82.0	2.5	blank	1.0	370.66726303100586	0.10001444816589355
85	348.93539595603943	fix_pre	0		120	83.0	2.5	/experiments/Knapen_AOT/AOT_stimuli/rescaled_final/1515_fw.mp4	0.0	370.76727747917175	1.0085196495056152
85	349.94391560554504	movie	1		255	83.0	2.5	/experiments/Knapen_AOT/AOT_stimuli/rescaled_final/1515_fw.mp4	0.0	371.77579712867737	2.492044687271118
85	350.3136451244354	pulse	1	t		83.0	2.5	/experiments/Knapen_AOT/AOT_stimuli/rescaled_final/1515_fw.mp4	0.0	372.14552664756775	
85	351.91734313964844	pulse	1	t		83.0	2.5	/experiments/Knapen_AOT/AOT_stimuli/rescaled_final/1515_fw.mp4	0.0	373.74922466278076	
85	352.43596029281616	fix_post	2		12	83.0	2.5	/experiments/Knapen_AOT/AOT_stimuli/rescaled_final/1515_fw.mp4	0.0	374.2678418159485	0.12500357627868652
87	352.56096386909485	stim	0		1712					374.3928453922272	14.268766164779663
87	353.51957845687866	pulse	0	t						375.351459980011	
87	355.11293482780457	pulse	0	t						376.9448163509369	
87	356.7122755050659	pulse	0	t						378.54415702819824	
87	358.3123195171356	pulse	0	t						380.14420104026794	
87	359.9122381210327	pulse	0	t						381.74411964416504	
87	361.51292657852173	pulse	0	t						383.34480810165405	
87	363.11283683776855	pulse	0	t						384.9447183609009	
87	364.7129008769989	pulse	0	t						386.5447824001312	
87	366.3132872581482	pulse	0	t						388.1451687812805	
