trial_nr	onset	event_type	phase	response	nr_frames	movie_index	movie_duration	movie_file	blank	onset_abs	duration
0	0.1666574478149414	stim	0		1					16.314693927764893	0.008392333984375
0	0.1332566738128662	response	0	space						16.281293153762817	
1	0.1750497817993164	stim	0		4578					16.323086261749268	38.16801166534424
1	38.32829761505127	pulse	0	t						54.47633409500122	
1	38.343061447143555	stim	1		1715					54.491097927093506	14.298047542572021
1	39.922712564468384	pulse	1	t						56.070749044418335	
1	41.52294611930847	pulse	1	t						57.67098259925842	
1	43.123260736465454	pulse	1	t						59.271297216415405	
1	44.723408699035645	pulse	1	t						60.871445178985596	
1	46.32364010810852	pulse	1	t						62.47167658805847	
1	47.92388129234314	pulse	1	t						64.07191777229309	
1	49.52415132522583	pulse	1	t						65.67218780517578	
1	51.124510765075684	pulse	1	t						67.27254724502563	
2	52.641108989715576	fix_pre	0		11	0.0	2.5	/experiments/knapen_AOT/AOT_stimuli/rescaled_final/2137_rv.mp4	0.0	68.78914546966553	0.10841536521911621
2	52.72491002082825	pulse	0	t		0.0	2.5	/experiments/knapen_AOT/AOT_stimuli/rescaled_final/2137_rv.mp4	0.0	68.8729465007782	
2	52.74952435493469	movie	1		280	0.0	2.5	/experiments/knapen_AOT/AOT_stimuli/rescaled_final/2137_rv.mp4	0.0	68.89756083488464	2.4919707775115967
2	54.32362174987793	pulse	1	t		0.0	2.5	/experiments/knapen_AOT/AOT_stimuli/rescaled_final/2137_rv.mp4	0.0	70.47165822982788	
2	55.24149513244629	fix_post	2		12	0.0	2.5	/experiments/knapen_AOT/AOT_stimuli/rescaled_final/2137_rv.mp4	0.0	71.38953161239624	0.10004329681396484
3	55.341538429260254	fix_pre	0		120	1.0	2.5	/experiments/knapen_AOT/AOT_stimuli/rescaled_final/2031_fw.mp4	0.0	71.4895749092102	1.00850248336792
3	55.925119161605835	pulse	0	t		1.0	2.5	/experiments/knapen_AOT/AOT_stimuli/rescaled_final/2031_fw.mp4	0.0	72.07315564155579	
3	56.350040912628174	movie	1		272	1.0	2.5	/experiments/knapen_AOT/AOT_stimuli/rescaled_final/2031_fw.mp4	0.0	72.49807739257812	2.4920248985290527
3	57.52367806434631	pulse	1	t		1.0	2.5	/experiments/knapen_AOT/AOT_stimuli/rescaled_final/2031_fw.mp4	0.0	73.67171454429626	
3	58.84206581115723	fix_post	2		12	1.0	2.5	/experiments/knapen_AOT/AOT_stimuli/rescaled_final/2031_fw.mp4	0.0	74.99010229110718	0.09998846054077148
4	58.942054271698	fix_pre	0		120	2.0	2.5	/experiments/knapen_AOT/AOT_stimuli/rescaled_final/1282_fw.mp4	0.0	75.09009075164795	1.008540391921997
4	59.11767578125	pulse	0	t		2.0	2.5	/experiments/knapen_AOT/AOT_stimuli/rescaled_final/1282_fw.mp4	0.0	75.26571226119995	
4	59.950594663619995	movie	1		276	2.0	2.5	/experiments/knapen_AOT/AOT_stimuli/rescaled_final/1282_fw.mp4	0.0	76.09863114356995	2.5003490447998047
4	60.71813917160034	pulse	1	t		2.0	2.5	/experiments/knapen_AOT/AOT_stimuli/rescaled_final/1282_fw.mp4	0.0	76.8661756515503	
4	62.31780552864075	pulse	1	t		2.0	2.5	/experiments/knapen_AOT/AOT_stimuli/rescaled_final/1282_fw.mp4	0.0	78.4658420085907	
4	62.4509437084198	fix_post	2		11	2.0	2.5	/experiments/knapen_AOT/AOT_stimuli/rescaled_final/1282_fw.mp4	0.0	78.59898018836975	0.09165692329406738
5	62.54260063171387	fix_pre	0		120	3.0	2.5	/experiments/knapen_AOT/AOT_stimuli/rescaled_final/1943_fw.mp4	0.0	78.69063711166382	1.0084846019744873
5	63.551085233688354	movie	1		275	3.0	2.5	/experiments/knapen_AOT/AOT_stimuli/rescaled_final/1943_fw.mp4	0.0	79.6991217136383	2.492114305496216
5	63.91738486289978	pulse	1	t		3.0	2.5	/experiments/knapen_AOT/AOT_stimuli/rescaled_final/1943_fw.mp4	0.0	80.06542134284973	
5	65.51819205284119	pulse	1	t		3.0	2.5	/experiments/knapen_AOT/AOT_stimuli/rescaled_final/1943_fw.mp4	0.0	81.66622853279114	
5	66.04319953918457	fix_post	2		12	3.0	2.5	/experiments/knapen_AOT/AOT_stimuli/rescaled_final/1943_fw.mp4	0.0	82.19123601913452	0.1000669002532959
6	66.14326643943787	fix_pre	0		118	4.0	2.5	/experiments/knapen_AOT/AOT_stimuli/rescaled_final/0504_rv.mp4	0.0	82.29130291938782	0.9916605949401855
6	67.11842608451843	pulse	0	t		4.0	2.5	/experiments/knapen_AOT/AOT_stimuli/rescaled_final/0504_rv.mp4	0.0	83.26646256446838	
6	67.13492703437805	movie	1		279	4.0	2.5	/experiments/knapen_AOT/AOT_stimuli/rescaled_final/0504_rv.mp4	0.0	83.282963514328	2.5004539489746094
6	68.71878433227539	pulse	1	t		4.0	2.5	/experiments/knapen_AOT/AOT_stimuli/rescaled_final/0504_rv.mp4	0.0	84.86682081222534	
6	69.63538098335266	fix_post	2		12	4.0	2.5	/experiments/knapen_AOT/AOT_stimuli/rescaled_final/0504_rv.mp4	0.0	85.78341746330261	0.10001277923583984
7	69.7353937625885	fix_pre	0		120	5.0	2.5	/experiments/knapen_AOT/AOT_stimuli/rescaled_final/1070_rv.mp4	0.0	85.88343024253845	1.0084421634674072
7	70.31899213790894	pulse	0	t		5.0	2.5	/experiments/knapen_AOT/AOT_stimuli/rescaled_final/1070_rv.mp4	0.0	86.46702861785889	
7	70.74383592605591	movie	1		272	5.0	2.5	/experiments/knapen_AOT/AOT_stimuli/rescaled_final/1070_rv.mp4	0.0	86.89187240600586	2.4920437335968018
7	71.9197781085968	pulse	1	t		5.0	2.5	/experiments/knapen_AOT/AOT_stimuli/rescaled_final/1070_rv.mp4	0.0	88.06781458854675	
7	73.23587965965271	fix_post	2		12	5.0	2.5	/experiments/knapen_AOT/AOT_stimuli/rescaled_final/1070_rv.mp4	0.0	89.38391613960266	0.10000443458557129
8	73.33588409423828	fix_pre	0		120	6.0	2.5	/experiments/knapen_AOT/AOT_stimuli/rescaled_final/0001_rv.mp4	0.0	89.48392057418823	1.008540153503418
8	73.51962018013	pulse	0	t		6.0	2.5	/experiments/knapen_AOT/AOT_stimuli/rescaled_final/0001_rv.mp4	0.0	89.66765666007996	
8	74.3444242477417	movie	1		274	6.0	2.5	/experiments/knapen_AOT/AOT_stimuli/rescaled_final/0001_rv.mp4	0.0	90.49246072769165	2.491999626159668
8	75.11761975288391	pulse	1	t		6.0	2.5	/experiments/knapen_AOT/AOT_stimuli/rescaled_final/0001_rv.mp4	0.0	91.26565623283386	
8	76.71789455413818	pulse	1	t		6.0	2.5	/experiments/knapen_AOT/AOT_stimuli/rescaled_final/0001_rv.mp4	0.0	92.86593103408813	
8	76.83642387390137	fix_post	2		12	6.0	2.5	/experiments/knapen_AOT/AOT_stimuli/rescaled_final/0001_rv.mp4	0.0	92.98446035385132	0.10006833076477051
9	76.93649220466614	fix_pre	0		120	7.0	2.5	blank	1.0	93.08452868461609	1.0000782012939453
9	77.93657040596008	movie	1		300	7.0	2.5	blank	1.0	94.08460688591003	2.5003678798675537
9	78.32032871246338	pulse	1	t		7.0	2.5	blank	1.0	94.46836519241333	
9	79.92078757286072	pulse	1	t		7.0	2.5	blank	1.0	96.06882405281067	
9	80.43693828582764	fix_post	2		12	7.0	2.5	blank	1.0	96.58497476577759	0.10002636909484863
10	80.53696465492249	fix_pre	0		119	8.0	2.5	/experiments/knapen_AOT/AOT_stimuli/rescaled_final/0178_rv.mp4	0.0	96.68500113487244	1.0001862049102783
10	81.52086567878723	pulse	0	t		8.0	2.5	/experiments/knapen_AOT/AOT_stimuli/rescaled_final/0178_rv.mp4	0.0	97.66890215873718	
10	81.53715085983276	movie	1		274	8.0	2.5	/experiments/knapen_AOT/AOT_stimuli/rescaled_final/0178_rv.mp4	0.0	97.68518733978271	2.500404119491577
10	83.11957573890686	pulse	1	t		8.0	2.5	/experiments/knapen_AOT/AOT_stimuli/rescaled_final/0178_rv.mp4	0.0	99.26761221885681	
10	84.03755497932434	fix_post	2		12	8.0	2.5	/experiments/knapen_AOT/AOT_stimuli/rescaled_final/0178_rv.mp4	0.0	100.18559145927429	0.1000223159790039
11	84.13757729530334	fix_pre	0		120	9.0	2.5	/experiments/knapen_AOT/AOT_stimuli/rescaled_final/0697_fw.mp4	0.0	100.2856137752533	1.008429765701294
11	84.72120428085327	pulse	0	t		9.0	2.5	/experiments/knapen_AOT/AOT_stimuli/rescaled_final/0697_fw.mp4	0.0	100.86924076080322	
11	85.14600706100464	movie	1		270	9.0	2.5	/experiments/knapen_AOT/AOT_stimuli/rescaled_final/0697_fw.mp4	0.0	101.29404354095459	2.4920220375061035
11	86.32169675827026	pulse	1	t		9.0	2.5	/experiments/knapen_AOT/AOT_stimuli/rescaled_final/0697_fw.mp4	0.0	102.46973323822021	
11	87.63802909851074	fix_post	2		12	9.0	2.5	/experiments/knapen_AOT/AOT_stimuli/rescaled_final/0697_fw.mp4	0.0	103.7860655784607	0.10001635551452637
12	87.73804545402527	fix_pre	0		120	10.0	2.5	/experiments/knapen_AOT/AOT_stimuli/rescaled_final/0504_rv.mp4	0.0	103.88608193397522	1.008535385131836
12	87.92155027389526	pulse	0	t		10.0	2.5	/experiments/knapen_AOT/AOT_stimuli/rescaled_final/0504_rv.mp4	0.0	104.06958675384521	
12	88.7465808391571	movie	1		284	10.0	2.5	/experiments/knapen_AOT/AOT_stimuli/rescaled_final/0504_rv.mp4	0.0	104.89461731910706	2.492003917694092
12	89.51998209953308	pulse	1	t		10.0	2.5	/experiments/knapen_AOT/AOT_stimuli/rescaled_final/0504_rv.mp4	0.0	105.66801857948303	
12	91.12005805969238	pulse	1	t		10.0	2.5	/experiments/knapen_AOT/AOT_stimuli/rescaled_final/0504_rv.mp4	0.0	107.26809453964233	
12	91.2385847568512	fix_post	2		12	10.0	2.5	/experiments/knapen_AOT/AOT_stimuli/rescaled_final/0504_rv.mp4	0.0	107.38662123680115	0.1000070571899414
13	91.33859181404114	fix_pre	0		120	11.0	2.5	/experiments/knapen_AOT/AOT_stimuli/rescaled_final/0839_rv.mp4	0.0	107.48662829399109	1.0085320472717285
13	92.34712386131287	movie	1		275	11.0	2.5	/experiments/knapen_AOT/AOT_stimuli/rescaled_final/0839_rv.mp4	0.0	108.49516034126282	2.4919939041137695
13	92.72198152542114	pulse	1	t		11.0	2.5	/experiments/knapen_AOT/AOT_stimuli/rescaled_final/0839_rv.mp4	0.0	108.8700180053711	
13	94.32021379470825	pulse	1	t		11.0	2.5	/experiments/knapen_AOT/AOT_stimuli/rescaled_final/0839_rv.mp4	0.0	110.4682502746582	
13	94.83911776542664	fix_post	2		12	11.0	2.5	/experiments/knapen_AOT/AOT_stimuli/rescaled_final/0839_rv.mp4	0.0	110.98715424537659	0.10003304481506348
14	94.9391508102417	fix_pre	0		119	12.0	2.5	blank	1.0	111.08718729019165	0.9917893409729004
14	95.92281007766724	pulse	0	t		12.0	2.5	blank	1.0	112.07084655761719	
14	95.9309401512146	movie	1		301	12.0	2.5	blank	1.0	112.07897663116455	2.508716583251953
14	97.52302122116089	pulse	1	t		12.0	2.5	blank	1.0	113.67105770111084	
14	98.43965673446655	fix_post	2		12	12.0	2.5	blank	1.0	114.5876932144165	0.10007810592651367
15	98.53973484039307	fix_pre	0		120	13.0	2.5	/experiments/knapen_AOT/AOT_stimuli/rescaled_final/1961_rv.mp4	0.0	114.68777132034302	1.0084624290466309
15	99.1232180595398	pulse	0	t		13.0	2.5	/experiments/knapen_AOT/AOT_stimuli/rescaled_final/1961_rv.mp4	0.0	115.27125453948975	
15	99.5481972694397	movie	1		269	13.0	2.5	/experiments/knapen_AOT/AOT_stimuli/rescaled_final/1961_rv.mp4	0.0	115.69623374938965	2.4920654296875
15	100.72382283210754	pulse	1	t		13.0	2.5	/experiments/knapen_AOT/AOT_stimuli/rescaled_final/1961_rv.mp4	0.0	116.8718593120575	
15	102.0402626991272	fix_post	2		12	13.0	2.5	/experiments/knapen_AOT/AOT_stimuli/rescaled_final/1961_rv.mp4	0.0	118.18829917907715	0.09995889663696289
16	102.14022159576416	fix_pre	0		120	14.0	2.5	/experiments/knapen_AOT/AOT_stimuli/rescaled_final/0441_fw.mp4	0.0	118.28825807571411	1.0085172653198242
16	102.32375812530518	pulse	0	t		14.0	2.5	/experiments/knapen_AOT/AOT_stimuli/rescaled_final/0441_fw.mp4	0.0	118.47179460525513	
16	103.14873886108398	movie	1		272	14.0	2.5	/experiments/knapen_AOT/AOT_stimuli/rescaled_final/0441_fw.mp4	0.0	119.29677534103394	2.500399112701416
16	103.92299318313599	pulse	1	t		14.0	2.5	/experiments/knapen_AOT/AOT_stimuli/rescaled_final/0441_fw.mp4	0.0	120.07102966308594	
16	105.52213287353516	pulse	1	t		14.0	2.5	/experiments/knapen_AOT/AOT_stimuli/rescaled_final/0441_fw.mp4	0.0	121.67016935348511	
16	105.6491379737854	fix_post	2		11	14.0	2.5	/experiments/knapen_AOT/AOT_stimuli/rescaled_final/0441_fw.mp4	0.0	121.79717445373535	0.09163451194763184
17	105.74077248573303	fix_pre	0		120	15.0	2.5	/experiments/knapen_AOT/AOT_stimuli/rescaled_final/1868_fw.mp4	0.0	121.88880896568298	1.0084691047668457
17	106.74924159049988	movie	1		265	15.0	2.5	/experiments/knapen_AOT/AOT_stimuli/rescaled_final/1868_fw.mp4	0.0	122.89727807044983	2.492069959640503
17	107.12268948554993	pulse	1	t		15.0	2.5	/experiments/knapen_AOT/AOT_stimuli/rescaled_final/1868_fw.mp4	0.0	123.27072596549988	
17	108.72241830825806	pulse	1	t		15.0	2.5	/experiments/knapen_AOT/AOT_stimuli/rescaled_final/1868_fw.mp4	0.0	124.87045478820801	
17	109.24131155014038	fix_post	2		12	15.0	2.5	/experiments/knapen_AOT/AOT_stimuli/rescaled_final/1868_fw.mp4	0.0	125.38934803009033	0.09998488426208496
18	109.34129643440247	fix_pre	0		119	16.0	2.5	/experiments/knapen_AOT/AOT_stimuli/rescaled_final/0274_rv.mp4	0.0	125.48933291435242	1.0001730918884277
18	110.32492280006409	pulse	0	t		16.0	2.5	/experiments/knapen_AOT/AOT_stimuli/rescaled_final/0274_rv.mp4	0.0	126.47295928001404	
18	110.3414695262909	movie	1		280	16.0	2.5	/experiments/knapen_AOT/AOT_stimuli/rescaled_final/0274_rv.mp4	0.0	126.48950600624084	2.500368118286133
18	111.924067735672	pulse	1	t		16.0	2.5	/experiments/knapen_AOT/AOT_stimuli/rescaled_final/0274_rv.mp4	0.0	128.07210421562195	
18	112.84183764457703	fix_post	2		12	16.0	2.5	/experiments/knapen_AOT/AOT_stimuli/rescaled_final/0274_rv.mp4	0.0	128.98987412452698	0.10006308555603027
19	112.94190073013306	fix_pre	0		120	17.0	2.5	/experiments/knapen_AOT/AOT_stimuli/rescaled_final/0168_rv.mp4	0.0	129.089937210083	1.0084517002105713
19	113.51809525489807	pulse	0	t		17.0	2.5	/experiments/knapen_AOT/AOT_stimuli/rescaled_final/0168_rv.mp4	0.0	129.66613173484802	
19	113.95035243034363	movie	1		262	17.0	2.5	/experiments/knapen_AOT/AOT_stimuli/rescaled_final/0168_rv.mp4	0.0	130.09838891029358	2.492011308670044
19	115.1237804889679	pulse	1	t		17.0	2.5	/experiments/knapen_AOT/AOT_stimuli/rescaled_final/0168_rv.mp4	0.0	131.27181696891785	
19	116.44236373901367	fix_post	2		12	17.0	2.5	/experiments/knapen_AOT/AOT_stimuli/rescaled_final/0168_rv.mp4	0.0	132.59040021896362	0.10010075569152832
20	116.5424644947052	fix_pre	0		120	18.0	2.5	/experiments/knapen_AOT/AOT_stimuli/rescaled_final/2009_rv.mp4	0.0	132.69050097465515	1.008495569229126
20	116.71837854385376	pulse	0	t		18.0	2.5	/experiments/knapen_AOT/AOT_stimuli/rescaled_final/2009_rv.mp4	0.0	132.8664150238037	
20	117.55096006393433	movie	1		281	18.0	2.5	/experiments/knapen_AOT/AOT_stimuli/rescaled_final/2009_rv.mp4	0.0	133.69899654388428	2.491964817047119
20	118.31791114807129	pulse	1	t		18.0	2.5	/experiments/knapen_AOT/AOT_stimuli/rescaled_final/2009_rv.mp4	0.0	134.46594762802124	
20	119.91832685470581	pulse	1	t		18.0	2.5	/experiments/knapen_AOT/AOT_stimuli/rescaled_final/2009_rv.mp4	0.0	136.06636333465576	
20	120.04292488098145	fix_post	2		12	18.0	2.5	/experiments/knapen_AOT/AOT_stimuli/rescaled_final/2009_rv.mp4	0.0	136.1909613609314	0.10005760192871094
21	120.14298248291016	fix_pre	0		120	19.0	2.5	/experiments/knapen_AOT/AOT_stimuli/rescaled_final/1933_fw.mp4	0.0	136.2910189628601	1.0084364414215088
21	121.15141892433167	movie	1		280	19.0	2.5	/experiments/knapen_AOT/AOT_stimuli/rescaled_final/1933_fw.mp4	0.0	137.29945540428162	2.4920365810394287
21	121.51844549179077	pulse	1	t		19.0	2.5	/experiments/knapen_AOT/AOT_stimuli/rescaled_final/1933_fw.mp4	0.0	137.66648197174072	
21	123.11852264404297	pulse	1	t		19.0	2.5	/experiments/knapen_AOT/AOT_stimuli/rescaled_final/1933_fw.mp4	0.0	139.26655912399292	
21	123.6434555053711	fix_post	2		12	19.0	2.5	/experiments/knapen_AOT/AOT_stimuli/rescaled_final/1933_fw.mp4	0.0	139.79149198532104	0.10000467300415039
22	123.74346017837524	fix_pre	0		118	20.0	2.5	/experiments/knapen_AOT/AOT_stimuli/rescaled_final/1582_fw.mp4	0.0	139.8914966583252	0.9918603897094727
22	124.71886110305786	pulse	0	t		20.0	2.5	/experiments/knapen_AOT/AOT_stimuli/rescaled_final/1582_fw.mp4	0.0	140.8668975830078	
22	124.73532056808472	movie	1		278	20.0	2.5	/experiments/knapen_AOT/AOT_stimuli/rescaled_final/1582_fw.mp4	0.0	140.88335704803467	2.5087227821350098
22	126.31863403320312	pulse	1	t		20.0	2.5	/experiments/knapen_AOT/AOT_stimuli/rescaled_final/1582_fw.mp4	0.0	142.46667051315308	
22	127.24404335021973	fix_post	2		11	20.0	2.5	/experiments/knapen_AOT/AOT_stimuli/rescaled_final/1582_fw.mp4	0.0	143.39207983016968	0.09163212776184082
23	127.33567547798157	fix_pre	0		120	21.0	2.5	blank	1.0	143.48371195793152	1.000166654586792
23	127.9193024635315	pulse	0	t		21.0	2.5	blank	1.0	144.06733894348145	
23	128.33584213256836	movie	1		300	21.0	2.5	blank	1.0	144.4838786125183	2.500401020050049
23	129.51947689056396	pulse	1	t		21.0	2.5	blank	1.0	145.66751337051392	
23	130.8362431526184	fix_post	2		12	21.0	2.5	blank	1.0	146.98427963256836	0.09997248649597168
24	130.93621563911438	fix_pre	0		120	22.0	2.5	/experiments/knapen_AOT/AOT_stimuli/rescaled_final/1920_rv.mp4	0.0	147.08425211906433	1.0084869861602783
24	131.1197431087494	pulse	0	t		22.0	2.5	/experiments/knapen_AOT/AOT_stimuli/rescaled_final/1920_rv.mp4	0.0	147.26777958869934	
24	131.94470262527466	movie	1		267	22.0	2.5	/experiments/knapen_AOT/AOT_stimuli/rescaled_final/1920_rv.mp4	0.0	148.0927391052246	2.492094039916992
24	132.7200620174408	pulse	1	t		22.0	2.5	/experiments/knapen_AOT/AOT_stimuli/rescaled_final/1920_rv.mp4	0.0	148.86809849739075	
24	134.31955909729004	pulse	1	t		22.0	2.5	/experiments/knapen_AOT/AOT_stimuli/rescaled_final/1920_rv.mp4	0.0	150.46759557724	
24	134.43679666519165	fix_post	2		12	22.0	2.5	/experiments/knapen_AOT/AOT_stimuli/rescaled_final/1920_rv.mp4	0.0	150.5848331451416	0.09996247291564941
25	134.5367591381073	fix_pre	0		120	23.0	2.5	/experiments/knapen_AOT/AOT_stimuli/rescaled_final/1079_fw.mp4	0.0	150.68479561805725	1.0084846019744873
25	135.5452437400818	movie	1		264	23.0	2.5	/experiments/knapen_AOT/AOT_stimuli/rescaled_final/1079_fw.mp4	0.0	151.69328022003174	2.5005321502685547
25	135.9186568260193	pulse	1	t		23.0	2.5	/experiments/knapen_AOT/AOT_stimuli/rescaled_final/1079_fw.mp4	0.0	152.06669330596924	
25	137.520849943161	pulse	1	t		23.0	2.5	/experiments/knapen_AOT/AOT_stimuli/rescaled_final/1079_fw.mp4	0.0	153.66888642311096	
25	138.04577589035034	fix_post	2		11	23.0	2.5	/experiments/knapen_AOT/AOT_stimuli/rescaled_final/1079_fw.mp4	0.0	154.1938123703003	0.09164237976074219
26	138.13741827011108	fix_pre	0		119	24.0	2.5	/experiments/knapen_AOT/AOT_stimuli/rescaled_final/1820_fw.mp4	0.0	154.28545475006104	1.000084638595581
26	139.12094116210938	pulse	0	t		24.0	2.5	/experiments/knapen_AOT/AOT_stimuli/rescaled_final/1820_fw.mp4	0.0	155.26897764205933	
26	139.13750290870667	movie	1		273	24.0	2.5	/experiments/knapen_AOT/AOT_stimuli/rescaled_final/1820_fw.mp4	0.0	155.28553938865662	2.5003652572631836
26	140.71944761276245	pulse	1	t		24.0	2.5	/experiments/knapen_AOT/AOT_stimuli/rescaled_final/1820_fw.mp4	0.0	156.8674840927124	
26	141.63786816596985	fix_post	2		12	24.0	2.5	/experiments/knapen_AOT/AOT_stimuli/rescaled_final/1820_fw.mp4	0.0	157.7859046459198	0.10000276565551758
27	141.73787093162537	fix_pre	0		120	25.0	2.5	/experiments/knapen_AOT/AOT_stimuli/rescaled_final/0209_rv.mp4	0.0	157.88590741157532	1.0084505081176758
27	142.32144236564636	pulse	0	t		25.0	2.5	/experiments/knapen_AOT/AOT_stimuli/rescaled_final/0209_rv.mp4	0.0	158.4694788455963	
27	142.74632143974304	movie	1		275	25.0	2.5	/experiments/knapen_AOT/AOT_stimuli/rescaled_final/0209_rv.mp4	0.0	158.894357919693	2.492058515548706
27	143.92136907577515	pulse	1	t		25.0	2.5	/experiments/knapen_AOT/AOT_stimuli/rescaled_final/0209_rv.mp4	0.0	160.0694055557251	
27	145.23837995529175	fix_post	2		12	25.0	2.5	/experiments/knapen_AOT/AOT_stimuli/rescaled_final/0209_rv.mp4	0.0	161.3864164352417	0.10014057159423828
28	145.338520526886	fix_pre	0		120	26.0	2.5	/experiments/knapen_AOT/AOT_stimuli/rescaled_final/1034_rv.mp4	0.0	161.48655700683594	1.0083677768707275
28	145.52221775054932	pulse	0	t		26.0	2.5	/experiments/knapen_AOT/AOT_stimuli/rescaled_final/1034_rv.mp4	0.0	161.67025423049927	
28	146.3468883037567	movie	1		279	26.0	2.5	/experiments/knapen_AOT/AOT_stimuli/rescaled_final/1034_rv.mp4	0.0	162.49492478370667	2.4920246601104736
28	147.1202507019043	pulse	1	t		26.0	2.5	/experiments/knapen_AOT/AOT_stimuli/rescaled_final/1034_rv.mp4	0.0	163.26828718185425	
28	148.72062349319458	pulse	1	t		26.0	2.5	/experiments/knapen_AOT/AOT_stimuli/rescaled_final/1034_rv.mp4	0.0	164.86865997314453	
28	148.8389129638672	fix_post	2		12	26.0	2.5	/experiments/knapen_AOT/AOT_stimuli/rescaled_final/1034_rv.mp4	0.0	164.98694944381714	0.10002756118774414
29	148.93894052505493	fix_pre	0		120	27.0	2.5	/experiments/knapen_AOT/AOT_stimuli/rescaled_final/1856_fw.mp4	0.0	165.08697700500488	1.0084667205810547
29	149.947407245636	movie	1		268	27.0	2.5	/experiments/knapen_AOT/AOT_stimuli/rescaled_final/1856_fw.mp4	0.0	166.09544372558594	2.4920108318328857
29	150.32078790664673	pulse	1	t		27.0	2.5	/experiments/knapen_AOT/AOT_stimuli/rescaled_final/1856_fw.mp4	0.0	166.46882438659668	
29	151.92292499542236	pulse	1	t		27.0	2.5	/experiments/knapen_AOT/AOT_stimuli/rescaled_final/1856_fw.mp4	0.0	168.07096147537231	
29	152.43941807746887	fix_post	2		12	27.0	2.5	/experiments/knapen_AOT/AOT_stimuli/rescaled_final/1856_fw.mp4	0.0	168.58745455741882	0.10005998611450195
30	152.53947806358337	fix_pre	0		119	28.0	2.5	blank	1.0	168.68751454353333	0.9918856620788574
30	153.52311515808105	pulse	0	t		28.0	2.5	blank	1.0	169.671151638031	
30	153.53136372566223	movie	1		301	28.0	2.5	blank	1.0	169.67940020561218	2.5086777210235596
30	155.1233410835266	pulse	1	t		28.0	2.5	blank	1.0	171.27137756347656	
30	156.0400414466858	fix_post	2		12	28.0	2.5	blank	1.0	172.18807792663574	0.09997034072875977
31	156.14001178741455	fix_pre	0		120	29.0	2.5	/experiments/knapen_AOT/AOT_stimuli/rescaled_final/1164_fw.mp4	0.0	172.2880482673645	1.0085008144378662
31	156.7236213684082	pulse	0	t		29.0	2.5	/experiments/knapen_AOT/AOT_stimuli/rescaled_final/1164_fw.mp4	0.0	172.87165784835815	
31	157.14851260185242	movie	1		274	29.0	2.5	/experiments/knapen_AOT/AOT_stimuli/rescaled_final/1164_fw.mp4	0.0	173.29654908180237	2.492093801498413
31	158.32231307029724	pulse	1	t		29.0	2.5	/experiments/knapen_AOT/AOT_stimuli/rescaled_final/1164_fw.mp4	0.0	174.4703495502472	
31	159.64060640335083	fix_post	2		12	29.0	2.5	/experiments/knapen_AOT/AOT_stimuli/rescaled_final/1164_fw.mp4	0.0	175.78864288330078	0.09997940063476562
32	159.7405858039856	fix_pre	0		120	30.0	2.5	/experiments/knapen_AOT/AOT_stimuli/rescaled_final/1374_rv.mp4	0.0	175.88862228393555	1.0084717273712158
32	159.92401933670044	pulse	0	t		30.0	2.5	/experiments/knapen_AOT/AOT_stimuli/rescaled_final/1374_rv.mp4	0.0	176.0720558166504	
32	160.7490575313568	movie	1		275	30.0	2.5	/experiments/knapen_AOT/AOT_stimuli/rescaled_final/1374_rv.mp4	0.0	176.89709401130676	2.492030143737793
32	161.52226734161377	pulse	1	t		30.0	2.5	/experiments/knapen_AOT/AOT_stimuli/rescaled_final/1374_rv.mp4	0.0	177.67030382156372	
32	163.12295770645142	pulse	1	t		30.0	2.5	/experiments/knapen_AOT/AOT_stimuli/rescaled_final/1374_rv.mp4	0.0	179.27099418640137	
32	163.2410876750946	fix_post	2		12	30.0	2.5	/experiments/knapen_AOT/AOT_stimuli/rescaled_final/1374_rv.mp4	0.0	179.38912415504456	0.1002187728881836
33	163.3413064479828	fix_pre	0		120	31.0	2.5	/experiments/knapen_AOT/AOT_stimuli/rescaled_final/0168_fw.mp4	0.0	179.48934292793274	1.008350133895874
33	164.34965658187866	movie	1		265	31.0	2.5	/experiments/knapen_AOT/AOT_stimuli/rescaled_final/0168_fw.mp4	0.0	180.4976930618286	2.491966724395752
33	164.72473549842834	pulse	1	t		31.0	2.5	/experiments/knapen_AOT/AOT_stimuli/rescaled_final/0168_fw.mp4	0.0	180.8727719783783	
33	166.32306385040283	pulse	1	t		31.0	2.5	/experiments/knapen_AOT/AOT_stimuli/rescaled_final/0168_fw.mp4	0.0	182.47110033035278	
33	166.8416233062744	fix_post	2		12	31.0	2.5	/experiments/knapen_AOT/AOT_stimuli/rescaled_final/0168_fw.mp4	0.0	182.98965978622437	0.10001134872436523
34	166.94163465499878	fix_pre	0		119	32.0	2.5	/experiments/knapen_AOT/AOT_stimuli/rescaled_final/0609_fw.mp4	0.0	183.08967113494873	1.0002834796905518
34	167.9252588748932	pulse	0	t		32.0	2.5	/experiments/knapen_AOT/AOT_stimuli/rescaled_final/0609_fw.mp4	0.0	184.07329535484314	
34	167.94191813468933	movie	1		271	32.0	2.5	/experiments/knapen_AOT/AOT_stimuli/rescaled_final/0609_fw.mp4	0.0	184.08995461463928	2.5086138248443604
34	169.52551746368408	pulse	1	t		32.0	2.5	/experiments/knapen_AOT/AOT_stimuli/rescaled_final/0609_fw.mp4	0.0	185.67355394363403	
34	170.4505319595337	fix_post	2		11	32.0	2.5	/experiments/knapen_AOT/AOT_stimuli/rescaled_final/0609_fw.mp4	0.0	186.59856843948364	0.09164166450500488
35	170.5421736240387	fix_pre	0		120	33.0	2.5	/experiments/knapen_AOT/AOT_stimuli/rescaled_final/1471_fw.mp4	0.0	186.69021010398865	1.0084714889526367
35	171.1257507801056	pulse	0	t		33.0	2.5	/experiments/knapen_AOT/AOT_stimuli/rescaled_final/1471_fw.mp4	0.0	187.27378726005554	
35	171.55064511299133	movie	1		286	33.0	2.5	/experiments/knapen_AOT/AOT_stimuli/rescaled_final/1471_fw.mp4	0.0	187.69868159294128	2.4920544624328613
35	172.72421503067017	pulse	1	t		33.0	2.5	/experiments/knapen_AOT/AOT_stimuli/rescaled_final/1471_fw.mp4	0.0	188.87225151062012	
35	174.0426995754242	fix_post	2		12	33.0	2.5	/experiments/knapen_AOT/AOT_stimuli/rescaled_final/1471_fw.mp4	0.0	190.19073605537415	0.10001611709594727
36	174.14271569252014	fix_pre	0		120	34.0	2.5	/experiments/knapen_AOT/AOT_stimuli/rescaled_final/1555_rv.mp4	0.0	190.2907521724701	1.008504867553711
36	174.31837487220764	pulse	0	t		34.0	2.5	/experiments/knapen_AOT/AOT_stimuli/rescaled_final/1555_rv.mp4	0.0	190.4664113521576	
36	175.15122056007385	movie	1		273	34.0	2.5	/experiments/knapen_AOT/AOT_stimuli/rescaled_final/1555_rv.mp4	0.0	191.2992570400238	2.4920504093170166
36	175.91815066337585	pulse	1	t		34.0	2.5	/experiments/knapen_AOT/AOT_stimuli/rescaled_final/1555_rv.mp4	0.0	192.0661871433258	
36	177.51862454414368	pulse	1	t		34.0	2.5	/experiments/knapen_AOT/AOT_stimuli/rescaled_final/1555_rv.mp4	0.0	193.66666102409363	
36	177.64327096939087	fix_post	2		12	34.0	2.5	/experiments/knapen_AOT/AOT_stimuli/rescaled_final/1555_rv.mp4	0.0	193.79130744934082	0.10001921653747559
37	177.74329018592834	fix_pre	0		120	35.0	2.5	blank	1.0	193.8913266658783	1.0001099109649658
37	178.7434000968933	movie	1		300	35.0	2.5	blank	1.0	194.89143657684326	2.500392198562622
37	179.11929535865784	pulse	1	t		35.0	2.5	blank	1.0	195.2673318386078	
37	180.71934533119202	pulse	1	t		35.0	2.5	blank	1.0	196.86738181114197	
37	181.24379229545593	fix_post	2		12	35.0	2.5	blank	1.0	197.39182877540588	0.10004830360412598
38	181.34384059906006	fix_pre	0		118	36.0	2.5	/experiments/knapen_AOT/AOT_stimuli/rescaled_final/0103_rv.mp4	0.0	197.49187707901	0.9918582439422607
38	182.31911063194275	pulse	0	t		36.0	2.5	/experiments/knapen_AOT/AOT_stimuli/rescaled_final/0103_rv.mp4	0.0	198.4671471118927	
38	182.33569884300232	movie	1		275	36.0	2.5	/experiments/knapen_AOT/AOT_stimuli/rescaled_final/0103_rv.mp4	0.0	198.48373532295227	2.500291585922241
38	183.9178991317749	pulse	1	t		36.0	2.5	/experiments/knapen_AOT/AOT_stimuli/rescaled_final/0103_rv.mp4	0.0	200.06593561172485	
38	184.83599042892456	fix_post	2		12	36.0	2.5	/experiments/knapen_AOT/AOT_stimuli/rescaled_final/0103_rv.mp4	0.0	200.9840269088745	0.1000208854675293
39	184.9360113143921	fix_pre	0		120	37.0	2.5	/experiments/knapen_AOT/AOT_stimuli/rescaled_final/0535_fw.mp4	0.0	201.08404779434204	1.0085022449493408
39	185.5195803642273	pulse	0	t		37.0	2.5	/experiments/knapen_AOT/AOT_stimuli/rescaled_final/0535_fw.mp4	0.0	201.66761684417725	
39	185.94451355934143	movie	1		272	37.0	2.5	/experiments/knapen_AOT/AOT_stimuli/rescaled_final/0535_fw.mp4	0.0	202.09255003929138	2.4920411109924316
39	187.12010288238525	pulse	1	t		37.0	2.5	/experiments/knapen_AOT/AOT_stimuli/rescaled_final/0535_fw.mp4	0.0	203.2681393623352	
39	188.43655467033386	fix_post	2		12	37.0	2.5	/experiments/knapen_AOT/AOT_stimuli/rescaled_final/0535_fw.mp4	0.0	204.5845911502838	0.10004520416259766
40	188.53659987449646	fix_pre	0		120	38.0	2.5	/experiments/knapen_AOT/AOT_stimuli/rescaled_final/0904_rv.mp4	0.0	204.6846363544464	1.0084960460662842
40	188.72008204460144	pulse	0	t		38.0	2.5	/experiments/knapen_AOT/AOT_stimuli/rescaled_final/0904_rv.mp4	0.0	204.8681185245514	
40	189.54509592056274	movie	1		275	38.0	2.5	/experiments/knapen_AOT/AOT_stimuli/rescaled_final/0904_rv.mp4	0.0	205.6931324005127	2.4919941425323486
40	190.3183810710907	pulse	1	t		38.0	2.5	/experiments/knapen_AOT/AOT_stimuli/rescaled_final/0904_rv.mp4	0.0	206.46641755104065	
40	191.92064237594604	pulse	1	t		38.0	2.5	/experiments/knapen_AOT/AOT_stimuli/rescaled_final/0904_rv.mp4	0.0	208.068678855896	
40	192.0370900630951	fix_post	2		12	38.0	2.5	/experiments/knapen_AOT/AOT_stimuli/rescaled_final/0904_rv.mp4	0.0	208.18512654304504	0.10003113746643066
41	192.13712120056152	fix_pre	0		120	39.0	2.5	/experiments/knapen_AOT/AOT_stimuli/rescaled_final/1693_fw.mp4	0.0	208.28515768051147	1.0085196495056152
41	193.14564085006714	movie	1		275	39.0	2.5	/experiments/knapen_AOT/AOT_stimuli/rescaled_final/1693_fw.mp4	0.0	209.2936773300171	2.4920010566711426
41	193.51925110816956	pulse	1	t		39.0	2.5	/experiments/knapen_AOT/AOT_stimuli/rescaled_final/1693_fw.mp4	0.0	209.6672875881195	
41	195.11875009536743	pulse	1	t		39.0	2.5	/experiments/knapen_AOT/AOT_stimuli/rescaled_final/1693_fw.mp4	0.0	211.26678657531738	
41	195.63764190673828	fix_post	2		12	39.0	2.5	/experiments/knapen_AOT/AOT_stimuli/rescaled_final/1693_fw.mp4	0.0	211.78567838668823	0.10005521774291992
42	195.7376971244812	fix_pre	0		119	40.0	2.5	blank	1.0	211.88573360443115	0.991767406463623
42	196.72127866744995	pulse	0	t		40.0	2.5	blank	1.0	212.8693151473999	
42	196.72946453094482	movie	1		301	40.0	2.5	blank	1.0	212.87750101089478	2.508751153945923
42	198.32156324386597	pulse	1	t		40.0	2.5	blank	1.0	214.46959972381592	
42	199.23821568489075	fix_post	2		12	40.0	2.5	blank	1.0	215.3862521648407	0.1000523567199707
43	199.33826804161072	fix_pre	0		120	41.0	2.5	/experiments/knapen_AOT/AOT_stimuli/rescaled_final/0185_fw.mp4	0.0	215.48630452156067	1.0083956718444824
43	199.92176961898804	pulse	0	t		41.0	2.5	/experiments/knapen_AOT/AOT_stimuli/rescaled_final/0185_fw.mp4	0.0	216.069806098938	
43	200.3466637134552	movie	1		270	41.0	2.5	/experiments/knapen_AOT/AOT_stimuli/rescaled_final/0185_fw.mp4	0.0	216.49470019340515	2.4920804500579834
43	201.5199933052063	pulse	1	t		41.0	2.5	/experiments/knapen_AOT/AOT_stimuli/rescaled_final/0185_fw.mp4	0.0	217.66802978515625	
43	202.83874416351318	fix_post	2		12	41.0	2.5	/experiments/knapen_AOT/AOT_stimuli/rescaled_final/0185_fw.mp4	0.0	218.98678064346313	0.0999908447265625
44	202.93873500823975	fix_pre	0		120	42.0	2.5	/experiments/knapen_AOT/AOT_stimuli/rescaled_final/2157_rv.mp4	0.0	219.0867714881897	1.0084662437438965
44	203.12219166755676	pulse	0	t		42.0	2.5	/experiments/knapen_AOT/AOT_stimuli/rescaled_final/2157_rv.mp4	0.0	219.2702281475067	
44	203.94720125198364	movie	1		269	42.0	2.5	/experiments/knapen_AOT/AOT_stimuli/rescaled_final/2157_rv.mp4	0.0	220.0952377319336	2.492050886154175
44	204.72023844718933	pulse	1	t		42.0	2.5	/experiments/knapen_AOT/AOT_stimuli/rescaled_final/2157_rv.mp4	0.0	220.86827492713928	
44	206.3208086490631	pulse	1	t		42.0	2.5	/experiments/knapen_AOT/AOT_stimuli/rescaled_final/2157_rv.mp4	0.0	222.46884512901306	
44	206.43925213813782	fix_post	2		12	42.0	2.5	/experiments/knapen_AOT/AOT_stimuli/rescaled_final/2157_rv.mp4	0.0	222.58728861808777	0.1000514030456543
45	206.53930354118347	fix_pre	0		120	43.0	2.5	/experiments/knapen_AOT/AOT_stimuli/rescaled_final/1812_fw.mp4	0.0	222.68734002113342	1.008467674255371
45	207.54777121543884	movie	1		270	43.0	2.5	/experiments/knapen_AOT/AOT_stimuli/rescaled_final/1812_fw.mp4	0.0	223.6958076953888	2.492114305496216
45	207.92254900932312	pulse	1	t		43.0	2.5	/experiments/knapen_AOT/AOT_stimuli/rescaled_final/1812_fw.mp4	0.0	224.07058548927307	
45	209.52165007591248	pulse	1	t		43.0	2.5	/experiments/knapen_AOT/AOT_stimuli/rescaled_final/1812_fw.mp4	0.0	225.66968655586243	
45	210.03988552093506	fix_post	2		12	43.0	2.5	/experiments/knapen_AOT/AOT_stimuli/rescaled_final/1812_fw.mp4	0.0	226.187922000885	0.09989523887634277
46	210.1397807598114	fix_pre	0		119	44.0	2.5	/experiments/knapen_AOT/AOT_stimuli/rescaled_final/0395_fw.mp4	0.0	226.28781723976135	1.0001435279846191
46	211.12341570854187	pulse	0	t		44.0	2.5	/experiments/knapen_AOT/AOT_stimuli/rescaled_final/0395_fw.mp4	0.0	227.27145218849182	
46	211.13992428779602	movie	1		281	44.0	2.5	/experiments/knapen_AOT/AOT_stimuli/rescaled_final/0395_fw.mp4	0.0	227.28796076774597	2.5004091262817383
46	212.7224247455597	pulse	1	t		44.0	2.5	/experiments/knapen_AOT/AOT_stimuli/rescaled_final/0395_fw.mp4	0.0	228.87046122550964	
46	213.64033341407776	fix_post	2		12	44.0	2.5	/experiments/knapen_AOT/AOT_stimuli/rescaled_final/0395_fw.mp4	0.0	229.7883698940277	0.10003113746643066
47	213.7403645515442	fix_pre	0		120	45.0	2.5	/experiments/knapen_AOT/AOT_stimuli/rescaled_final/1731_fw.mp4	0.0	229.88840103149414	1.008636236190796
47	214.3241822719574	pulse	0	t		45.0	2.5	/experiments/knapen_AOT/AOT_stimuli/rescaled_final/1731_fw.mp4	0.0	230.47221875190735	
47	214.74900078773499	movie	1		276	45.0	2.5	/experiments/knapen_AOT/AOT_stimuli/rescaled_final/1731_fw.mp4	0.0	230.89703726768494	2.491894245147705
47	215.92434740066528	pulse	1	t		45.0	2.5	/experiments/knapen_AOT/AOT_stimuli/rescaled_final/1731_fw.mp4	0.0	232.07238388061523	
47	217.2408950328827	fix_post	2		12	45.0	2.5	/experiments/knapen_AOT/AOT_stimuli/rescaled_final/1731_fw.mp4	0.0	233.38893151283264	0.10001587867736816
48	217.34091091156006	fix_pre	0		120	46.0	2.5	/experiments/knapen_AOT/AOT_stimuli/rescaled_final/0274_fw.mp4	0.0	233.48894739151	1.0084569454193115
48	217.52436661720276	pulse	0	t		46.0	2.5	/experiments/knapen_AOT/AOT_stimuli/rescaled_final/0274_fw.mp4	0.0	233.6724030971527	
48	218.34936785697937	movie	1		277	46.0	2.5	/experiments/knapen_AOT/AOT_stimuli/rescaled_final/0274_fw.mp4	0.0	234.49740433692932	2.492037773132324
48	219.12278723716736	pulse	1	t		46.0	2.5	/experiments/knapen_AOT/AOT_stimuli/rescaled_final/0274_fw.mp4	0.0	235.2708237171173	
48	220.7232894897461	pulse	1	t		46.0	2.5	/experiments/knapen_AOT/AOT_stimuli/rescaled_final/0274_fw.mp4	0.0	236.87132596969604	
48	220.8414056301117	fix_post	2		12	46.0	2.5	/experiments/knapen_AOT/AOT_stimuli/rescaled_final/0274_fw.mp4	0.0	236.98944211006165	0.10001969337463379
49	220.94142532348633	fix_pre	0		109	47.0	2.5	/experiments/knapen_AOT/AOT_stimuli/rescaled_final/1435_rv.mp4	0.0	237.08946180343628	1.0419557094573975
49	221.98338103294373	movie	1		251	47.0	2.5	/experiments/knapen_AOT/AOT_stimuli/rescaled_final/1435_rv.mp4	0.0	238.13141751289368	2.4585745334625244
49	222.3252944946289	pulse	1	t		47.0	2.5	/experiments/knapen_AOT/AOT_stimuli/rescaled_final/1435_rv.mp4	0.0	238.47333097457886	
49	223.92347025871277	pulse	1	t		47.0	2.5	/experiments/knapen_AOT/AOT_stimuli/rescaled_final/1435_rv.mp4	0.0	240.07150673866272	
49	224.44195556640625	fix_post	2		12	47.0	2.5	/experiments/knapen_AOT/AOT_stimuli/rescaled_final/1435_rv.mp4	0.0	240.5899920463562	0.10007214546203613
50	224.5420277118683	fix_pre	0		119	48.0	2.5	blank	1.0	240.69006419181824	0.9918026924133301
50	225.5179660320282	pulse	0	t		48.0	2.5	blank	1.0	241.66600251197815	
50	225.53383040428162	movie	1		301	48.0	2.5	blank	1.0	241.68186688423157	2.5086612701416016
50	227.11781311035156	pulse	1	t		48.0	2.5	blank	1.0	243.2658495903015	
50	228.04249167442322	fix_post	2		12	48.0	2.5	blank	1.0	244.19052815437317	0.10007834434509277
51	228.1425700187683	fix_pre	0		120	49.0	2.5	/experiments/knapen_AOT/AOT_stimuli/rescaled_final/0996_fw.mp4	0.0	244.29060649871826	1.008439540863037
51	228.71781873703003	pulse	0	t		49.0	2.5	/experiments/knapen_AOT/AOT_stimuli/rescaled_final/0996_fw.mp4	0.0	244.86585521697998	
51	229.15100955963135	movie	1		263	49.0	2.5	/experiments/knapen_AOT/AOT_stimuli/rescaled_final/0996_fw.mp4	0.0	245.2990460395813	2.4920172691345215
51	230.31807589530945	pulse	1	t		49.0	2.5	/experiments/knapen_AOT/AOT_stimuli/rescaled_final/0996_fw.mp4	0.0	246.4661123752594	
51	231.64302682876587	fix_post	2		12	49.0	2.5	/experiments/knapen_AOT/AOT_stimuli/rescaled_final/0996_fw.mp4	0.0	247.79106330871582	0.10004496574401855
52	231.7430717945099	fix_pre	0		120	50.0	2.5	/experiments/knapen_AOT/AOT_stimuli/rescaled_final/0065_fw.mp4	0.0	247.89110827445984	1.0085430145263672
52	231.91832494735718	pulse	0	t		50.0	2.5	/experiments/knapen_AOT/AOT_stimuli/rescaled_final/0065_fw.mp4	0.0	248.06636142730713	
52	232.75161480903625	movie	1		281	50.0	2.5	/experiments/knapen_AOT/AOT_stimuli/rescaled_final/0065_fw.mp4	0.0	248.8996512889862	2.4920434951782227
52	233.51935029029846	pulse	1	t		50.0	2.5	/experiments/knapen_AOT/AOT_stimuli/rescaled_final/0065_fw.mp4	0.0	249.6673867702484	
52	235.11894536018372	pulse	1	t		50.0	2.5	/experiments/knapen_AOT/AOT_stimuli/rescaled_final/0065_fw.mp4	0.0	251.26698184013367	
52	235.24365830421448	fix_post	2		12	50.0	2.5	/experiments/knapen_AOT/AOT_stimuli/rescaled_final/0065_fw.mp4	0.0	251.39169478416443	0.10005855560302734
53	235.3437168598175	fix_pre	0		120	51.0	2.5	/experiments/knapen_AOT/AOT_stimuli/rescaled_final/0274_rv.mp4	0.0	251.49175333976746	1.0083873271942139
53	236.35210418701172	movie	1		276	51.0	2.5	/experiments/knapen_AOT/AOT_stimuli/rescaled_final/0274_rv.mp4	0.0	252.50014066696167	2.49200701713562
53	236.71800875663757	pulse	1	t		51.0	2.5	/experiments/knapen_AOT/AOT_stimuli/rescaled_final/0274_rv.mp4	0.0	252.86604523658752	
53	238.31926465034485	pulse	1	t		51.0	2.5	/experiments/knapen_AOT/AOT_stimuli/rescaled_final/0274_rv.mp4	0.0	254.4673011302948	
53	238.84411120414734	fix_post	2		12	51.0	2.5	/experiments/knapen_AOT/AOT_stimuli/rescaled_final/0274_rv.mp4	0.0	254.9921476840973	0.10007023811340332
54	238.94418144226074	fix_pre	0		118	52.0	2.5	/experiments/knapen_AOT/AOT_stimuli/rescaled_final/1877_fw.mp4	0.0	255.0922179222107	0.9917478561401367
54	239.91950607299805	pulse	0	t		52.0	2.5	/experiments/knapen_AOT/AOT_stimuli/rescaled_final/1877_fw.mp4	0.0	256.067542552948	
54	239.93592929840088	movie	1		275	52.0	2.5	/experiments/knapen_AOT/AOT_stimuli/rescaled_final/1877_fw.mp4	0.0	256.08396577835083	2.5004076957702637
54	241.51806569099426	pulse	1	t		52.0	2.5	/experiments/knapen_AOT/AOT_stimuli/rescaled_final/1877_fw.mp4	0.0	257.6661021709442	
54	242.43633699417114	fix_post	2		12	52.0	2.5	/experiments/knapen_AOT/AOT_stimuli/rescaled_final/1877_fw.mp4	0.0	258.5843734741211	0.10003447532653809
55	242.53637146949768	fix_pre	0		120	53.0	2.5	/experiments/knapen_AOT/AOT_stimuli/rescaled_final/1447_fw.mp4	0.0	258.68440794944763	1.0085465908050537
55	243.119961977005	pulse	0	t		53.0	2.5	/experiments/knapen_AOT/AOT_stimuli/rescaled_final/1447_fw.mp4	0.0	259.26799845695496	
55	243.54491806030273	movie	1		285	53.0	2.5	/experiments/knapen_AOT/AOT_stimuli/rescaled_final/1447_fw.mp4	0.0	259.6929545402527	2.49194073677063
55	244.7187795639038	pulse	1	t		53.0	2.5	/experiments/knapen_AOT/AOT_stimuli/rescaled_final/1447_fw.mp4	0.0	260.86681604385376	
55	246.03685879707336	fix_post	2		12	53.0	2.5	/experiments/knapen_AOT/AOT_stimuli/rescaled_final/1447_fw.mp4	0.0	262.1848952770233	0.10011982917785645
56	246.13697862625122	fix_pre	0		120	54.0	2.5	blank	1.0	262.2850151062012	1.0000667572021484
56	246.3205111026764	pulse	0	t		54.0	2.5	blank	1.0	262.46854758262634	
56	247.13704538345337	movie	1		300	54.0	2.5	blank	1.0	263.2850818634033	2.500420570373535
56	247.9207148551941	pulse	1	t		54.0	2.5	blank	1.0	264.06875133514404	
56	249.52091646194458	pulse	1	t		54.0	2.5	blank	1.0	265.66895294189453	
56	249.6374659538269	fix_post	2		12	54.0	2.5	blank	1.0	265.78550243377686	0.09997153282165527
57	249.73743748664856	fix_pre	0		120	55.0	2.5	/experiments/knapen_AOT/AOT_stimuli/rescaled_final/0758_rv.mp4	0.0	265.8854739665985	1.00850510597229
57	250.74594259262085	movie	1		271	55.0	2.5	/experiments/knapen_AOT/AOT_stimuli/rescaled_final/0758_rv.mp4	0.0	266.8939790725708	2.49202561378479
57	251.1198024749756	pulse	1	t		55.0	2.5	/experiments/knapen_AOT/AOT_stimuli/rescaled_final/0758_rv.mp4	0.0	267.26783895492554	
57	252.72010731697083	pulse	1	t		55.0	2.5	/experiments/knapen_AOT/AOT_stimuli/rescaled_final/0758_rv.mp4	0.0	268.8681437969208	
57	253.23796820640564	fix_post	2		12	55.0	2.5	/experiments/knapen_AOT/AOT_stimuli/rescaled_final/0758_rv.mp4	0.0	269.3860046863556	0.10007119178771973
58	253.33803939819336	fix_pre	0		119	56.0	2.5	/experiments/knapen_AOT/AOT_stimuli/rescaled_final/0638_rv.mp4	0.0	269.4860758781433	1.0000896453857422
58	254.3216679096222	pulse	0	t		56.0	2.5	/experiments/knapen_AOT/AOT_stimuli/rescaled_final/0638_rv.mp4	0.0	270.46970438957214	
58	254.3381290435791	movie	1		275	56.0	2.5	/experiments/knapen_AOT/AOT_stimuli/rescaled_final/0638_rv.mp4	0.0	270.48616552352905	2.5003716945648193
58	255.92051601409912	pulse	1	t		56.0	2.5	/experiments/knapen_AOT/AOT_stimuli/rescaled_final/0638_rv.mp4	0.0	272.0685524940491	
58	256.8385007381439	fix_post	2		12	56.0	2.5	/experiments/knapen_AOT/AOT_stimuli/rescaled_final/0638_rv.mp4	0.0	272.9865372180939	0.10001373291015625
59	256.9385144710541	fix_pre	0		120	57.0	2.5	/experiments/knapen_AOT/AOT_stimuli/rescaled_final/0043_rv.mp4	0.0	273.086550951004	1.0084965229034424
59	257.5221359729767	pulse	0	t		57.0	2.5	/experiments/knapen_AOT/AOT_stimuli/rescaled_final/0043_rv.mp4	0.0	273.67017245292664	
59	257.9470109939575	movie	1		277	57.0	2.5	/experiments/knapen_AOT/AOT_stimuli/rescaled_final/0043_rv.mp4	0.0	274.09504747390747	2.4920332431793213
59	259.12051224708557	pulse	1	t		57.0	2.5	/experiments/knapen_AOT/AOT_stimuli/rescaled_final/0043_rv.mp4	0.0	275.2685487270355	
59	260.43904423713684	fix_post	2		12	57.0	2.5	/experiments/knapen_AOT/AOT_stimuli/rescaled_final/0043_rv.mp4	0.0	276.5870807170868	0.10000753402709961
60	260.53905177116394	fix_pre	0		120	58.0	2.5	/experiments/knapen_AOT/AOT_stimuli/rescaled_final/1260_rv.mp4	0.0	276.6870882511139	1.0085062980651855
60	260.72271370887756	pulse	0	t		58.0	2.5	/experiments/knapen_AOT/AOT_stimuli/rescaled_final/1260_rv.mp4	0.0	276.8707501888275	
60	261.5475580692291	movie	1		283	58.0	2.5	/experiments/knapen_AOT/AOT_stimuli/rescaled_final/1260_rv.mp4	0.0	277.6955945491791	2.4920248985290527
60	262.3205654621124	pulse	1	t		58.0	2.5	/experiments/knapen_AOT/AOT_stimuli/rescaled_final/1260_rv.mp4	0.0	278.4686019420624	
60	263.92106795310974	pulse	1	t		58.0	2.5	/experiments/knapen_AOT/AOT_stimuli/rescaled_final/1260_rv.mp4	0.0	280.0691044330597	
60	264.0395829677582	fix_post	2		12	58.0	2.5	/experiments/knapen_AOT/AOT_stimuli/rescaled_final/1260_rv.mp4	0.0	280.18761944770813	0.10002517700195312
61	264.13960814476013	fix_pre	0		120	59.0	2.5	/experiments/knapen_AOT/AOT_stimuli/rescaled_final/0966_rv.mp4	0.0	280.2876446247101	1.0084683895111084
61	265.14807653427124	movie	1		278	59.0	2.5	/experiments/knapen_AOT/AOT_stimuli/rescaled_final/0966_rv.mp4	0.0	281.2961130142212	2.4921061992645264
61	265.52197527885437	pulse	1	t		59.0	2.5	/experiments/knapen_AOT/AOT_stimuli/rescaled_final/0966_rv.mp4	0.0	281.6700117588043	
61	267.1227059364319	pulse	1	t		59.0	2.5	/experiments/knapen_AOT/AOT_stimuli/rescaled_final/0966_rv.mp4	0.0	283.27074241638184	
61	267.64018273353577	fix_post	2		12	59.0	2.5	/experiments/knapen_AOT/AOT_stimuli/rescaled_final/0966_rv.mp4	0.0	283.7882192134857	0.09995484352111816
62	267.7401375770569	fix_pre	0		119	60.0	2.5	/experiments/knapen_AOT/AOT_stimuli/rescaled_final/0241_rv.mp4	0.0	283.88817405700684	1.0001912117004395
62	268.7242388725281	pulse	0	t		60.0	2.5	/experiments/knapen_AOT/AOT_stimuli/rescaled_final/0241_rv.mp4	0.0	284.872275352478	
62	268.7403287887573	movie	1		269	60.0	2.5	/experiments/knapen_AOT/AOT_stimuli/rescaled_final/0241_rv.mp4	0.0	284.8883652687073	2.50041127204895
62	270.3225190639496	pulse	1	t		60.0	2.5	/experiments/knapen_AOT/AOT_stimuli/rescaled_final/0241_rv.mp4	0.0	286.47055554389954	
62	271.2407400608063	fix_post	2		12	60.0	2.5	/experiments/knapen_AOT/AOT_stimuli/rescaled_final/0241_rv.mp4	0.0	287.3887765407562	0.09993720054626465
63	271.34067726135254	fix_pre	0		120	61.0	2.5	blank	1.0	287.4887137413025	1.0001769065856934
63	271.9242889881134	pulse	0	t		61.0	2.5	blank	1.0	288.07232546806335	
63	272.34085416793823	movie	1		300	61.0	2.5	blank	1.0	288.4888906478882	2.500366687774658
63	273.5246434211731	pulse	1	t		61.0	2.5	blank	1.0	289.67267990112305	
63	274.8412208557129	fix_post	2		12	61.0	2.5	blank	1.0	290.98925733566284	0.09999823570251465
64	274.9412190914154	fix_pre	0		120	62.0	2.5	/experiments/knapen_AOT/AOT_stimuli/rescaled_final/1089_rv.mp4	0.0	291.08925557136536	1.0085139274597168
64	275.125022649765	pulse	0	t		62.0	2.5	/experiments/knapen_AOT/AOT_stimuli/rescaled_final/1089_rv.mp4	0.0	291.27305912971497	
64	275.9497330188751	movie	1		280	62.0	2.5	/experiments/knapen_AOT/AOT_stimuli/rescaled_final/1089_rv.mp4	0.0	292.0977694988251	2.492030382156372
64	276.72305369377136	pulse	1	t		62.0	2.5	/experiments/knapen_AOT/AOT_stimuli/rescaled_final/1089_rv.mp4	0.0	292.8710901737213	
64	278.3236196041107	pulse	1	t		62.0	2.5	/experiments/knapen_AOT/AOT_stimuli/rescaled_final/1089_rv.mp4	0.0	294.47165608406067	
64	278.4417634010315	fix_post	2		12	62.0	2.5	/experiments/knapen_AOT/AOT_stimuli/rescaled_final/1089_rv.mp4	0.0	294.58979988098145	0.10005831718444824
65	278.54182171821594	fix_pre	0		120	63.0	2.5	/experiments/knapen_AOT/AOT_stimuli/rescaled_final/1731_rv.mp4	0.0	294.6898581981659	1.0085229873657227
65	279.55034470558167	movie	1		272	63.0	2.5	/experiments/knapen_AOT/AOT_stimuli/rescaled_final/1731_rv.mp4	0.0	295.6983811855316	2.4919676780700684
65	279.92480635643005	pulse	1	t		63.0	2.5	/experiments/knapen_AOT/AOT_stimuli/rescaled_final/1731_rv.mp4	0.0	296.07284283638	
65	281.5251383781433	pulse	1	t		63.0	2.5	/experiments/knapen_AOT/AOT_stimuli/rescaled_final/1731_rv.mp4	0.0	297.67317485809326	
65	282.04231238365173	fix_post	2		12	63.0	2.5	/experiments/knapen_AOT/AOT_stimuli/rescaled_final/1731_rv.mp4	0.0	298.1903488636017	0.09998750686645508
66	282.1422998905182	fix_pre	0		119	64.0	2.5	/experiments/knapen_AOT/AOT_stimuli/rescaled_final/1641_fw.mp4	0.0	298.29033637046814	1.0001578330993652
66	283.1182246208191	pulse	0	t		64.0	2.5	/experiments/knapen_AOT/AOT_stimuli/rescaled_final/1641_fw.mp4	0.0	299.26626110076904	
66	283.14245772361755	movie	1		285	64.0	2.5	/experiments/knapen_AOT/AOT_stimuli/rescaled_final/1641_fw.mp4	0.0	299.2904942035675	2.5005042552948
66	284.71850967407227	pulse	1	t		64.0	2.5	/experiments/knapen_AOT/AOT_stimuli/rescaled_final/1641_fw.mp4	0.0	300.8665461540222	
66	285.64296197891235	fix_post	2		12	64.0	2.5	/experiments/knapen_AOT/AOT_stimuli/rescaled_final/1641_fw.mp4	0.0	301.7909984588623	0.0998842716217041
67	285.74284625053406	fix_pre	0		120	65.0	2.5	/experiments/knapen_AOT/AOT_stimuli/rescaled_final/1869_rv.mp4	0.0	301.890882730484	1.0085008144378662
67	286.31828927993774	pulse	0	t		65.0	2.5	/experiments/knapen_AOT/AOT_stimuli/rescaled_final/1869_rv.mp4	0.0	302.4663257598877	
67	286.7513470649719	movie	1		271	65.0	2.5	/experiments/knapen_AOT/AOT_stimuli/rescaled_final/1869_rv.mp4	0.0	302.8993835449219	2.492082118988037
67	287.9186861515045	pulse	1	t		65.0	2.5	/experiments/knapen_AOT/AOT_stimuli/rescaled_final/1869_rv.mp4	0.0	304.06672263145447	
67	289.24342918395996	fix_post	2		12	65.0	2.5	/experiments/knapen_AOT/AOT_stimuli/rescaled_final/1869_rv.mp4	0.0	305.3914656639099	0.09995841979980469
68	289.34338760375977	fix_pre	0		120	66.0	2.5	/experiments/knapen_AOT/AOT_stimuli/rescaled_final/0103_fw.mp4	0.0	305.4914240837097	1.0085532665252686
68	289.51861357688904	pulse	0	t		66.0	2.5	/experiments/knapen_AOT/AOT_stimuli/rescaled_final/0103_fw.mp4	0.0	305.666650056839	
68	290.35194087028503	movie	1		281	66.0	2.5	/experiments/knapen_AOT/AOT_stimuli/rescaled_final/0103_fw.mp4	0.0	306.499977350235	2.492018699645996
68	291.1189069747925	pulse	1	t		66.0	2.5	/experiments/knapen_AOT/AOT_stimuli/rescaled_final/0103_fw.mp4	0.0	307.26694345474243	
68	292.71923208236694	pulse	1	t		66.0	2.5	/experiments/knapen_AOT/AOT_stimuli/rescaled_final/0103_fw.mp4	0.0	308.8672685623169	
68	292.84395956993103	fix_post	2		12	66.0	2.5	/experiments/knapen_AOT/AOT_stimuli/rescaled_final/0103_fw.mp4	0.0	308.991996049881	0.10001611709594727
69	292.943975687027	fix_pre	0		120	67.0	2.5	/experiments/knapen_AOT/AOT_stimuli/rescaled_final/0129_fw.mp4	0.0	309.09201216697693	1.0084037780761719
69	293.95237946510315	movie	1		279	67.0	2.5	/experiments/knapen_AOT/AOT_stimuli/rescaled_final/0129_fw.mp4	0.0	310.1004159450531	2.4920737743377686
69	294.3195834159851	pulse	1	t		67.0	2.5	/experiments/knapen_AOT/AOT_stimuli/rescaled_final/0129_fw.mp4	0.0	310.46761989593506	
69	295.9197316169739	pulse	1	t		67.0	2.5	/experiments/knapen_AOT/AOT_stimuli/rescaled_final/0129_fw.mp4	0.0	312.0677680969238	
69	296.4444532394409	fix_post	2		12	67.0	2.5	/experiments/knapen_AOT/AOT_stimuli/rescaled_final/0129_fw.mp4	0.0	312.59248971939087	0.10002255439758301
70	296.5444757938385	fix_pre	0		118	68.0	2.5	/experiments/knapen_AOT/AOT_stimuli/rescaled_final/1634_fw.mp4	0.0	312.69251227378845	0.9918110370635986
70	297.5198209285736	pulse	0	t		68.0	2.5	/experiments/knapen_AOT/AOT_stimuli/rescaled_final/1634_fw.mp4	0.0	313.66785740852356	
70	297.5362868309021	movie	1		292	68.0	2.5	/experiments/knapen_AOT/AOT_stimuli/rescaled_final/1634_fw.mp4	0.0	313.68432331085205	2.5004053115844727
70	299.1183354854584	pulse	1	t		68.0	2.5	/experiments/knapen_AOT/AOT_stimuli/rescaled_final/1634_fw.mp4	0.0	315.2663719654083	
70	300.0366921424866	fix_post	2		12	68.0	2.5	/experiments/knapen_AOT/AOT_stimuli/rescaled_final/1634_fw.mp4	0.0	316.1847286224365	0.09999728202819824
71	300.13668942451477	fix_pre	0		120	69.0	2.5	/experiments/knapen_AOT/AOT_stimuli/rescaled_final/1767_rv.mp4	0.0	316.2847259044647	1.008465051651001
71	300.7205741405487	pulse	0	t		69.0	2.5	/experiments/knapen_AOT/AOT_stimuli/rescaled_final/1767_rv.mp4	0.0	316.86861062049866	
71	301.14515447616577	movie	1		295	69.0	2.5	/experiments/knapen_AOT/AOT_stimuli/rescaled_final/1767_rv.mp4	0.0	317.2931909561157	2.492020845413208
71	302.3185667991638	pulse	1	t		69.0	2.5	/experiments/knapen_AOT/AOT_stimuli/rescaled_final/1767_rv.mp4	0.0	318.46660327911377	
71	303.637175321579	fix_post	2		12	69.0	2.5	/experiments/knapen_AOT/AOT_stimuli/rescaled_final/1767_rv.mp4	0.0	319.78521180152893	0.10001039505004883
72	303.737185716629	fix_pre	0		120	70.0	2.5	blank	1.0	319.885222196579	1.000157356262207
72	303.9207019805908	pulse	0	t		70.0	2.5	blank	1.0	320.06873846054077	
72	304.73734307289124	movie	1		300	70.0	2.5	blank	1.0	320.8853795528412	2.500410795211792
72	305.5209610462189	pulse	1	t		70.0	2.5	blank	1.0	321.6689975261688	
72	307.12124490737915	pulse	1	t		70.0	2.5	blank	1.0	323.2692813873291	
72	307.237753868103	fix_post	2		12	70.0	2.5	blank	1.0	323.385790348053	0.10001063346862793
73	307.33776450157166	fix_pre	0		120	71.0	2.5	/experiments/knapen_AOT/AOT_stimuli/rescaled_final/0504_fw.mp4	0.0	323.4858009815216	1.00848388671875
73	308.3462483882904	movie	1		272	71.0	2.5	/experiments/knapen_AOT/AOT_stimuli/rescaled_final/0504_fw.mp4	0.0	324.49428486824036	2.4920260906219482
73	308.71969270706177	pulse	1	t		71.0	2.5	/experiments/knapen_AOT/AOT_stimuli/rescaled_final/0504_fw.mp4	0.0	324.8677291870117	
73	310.3196494579315	pulse	1	t		71.0	2.5	/experiments/knapen_AOT/AOT_stimuli/rescaled_final/0504_fw.mp4	0.0	326.46768593788147	
73	310.83827447891235	fix_post	2		12	71.0	2.5	/experiments/knapen_AOT/AOT_stimuli/rescaled_final/0504_fw.mp4	0.0	326.9863109588623	0.1000208854675293
74	310.9382953643799	fix_pre	0		119	72.0	2.5	/experiments/knapen_AOT/AOT_stimuli/rescaled_final/0858_rv.mp4	0.0	327.08633184432983	1.0001769065856934
74	311.9220504760742	pulse	0	t		72.0	2.5	/experiments/knapen_AOT/AOT_stimuli/rescaled_final/0858_rv.mp4	0.0	328.07008695602417	
74	311.9384722709656	movie	1		278	72.0	2.5	/experiments/knapen_AOT/AOT_stimuli/rescaled_final/0858_rv.mp4	0.0	328.0865087509155	2.500406503677368
74	313.52087330818176	pulse	1	t		72.0	2.5	/experiments/knapen_AOT/AOT_stimuli/rescaled_final/0858_rv.mp4	0.0	329.6689097881317	
74	314.43887877464294	fix_post	2		12	72.0	2.5	/experiments/knapen_AOT/AOT_stimuli/rescaled_final/0858_rv.mp4	0.0	330.5869152545929	0.09999275207519531
75	314.53887152671814	fix_pre	0		120	73.0	2.5	/experiments/knapen_AOT/AOT_stimuli/rescaled_final/0430_fw.mp4	0.0	330.6869080066681	1.0084404945373535
75	315.12249517440796	pulse	0	t		73.0	2.5	/experiments/knapen_AOT/AOT_stimuli/rescaled_final/0430_fw.mp4	0.0	331.2705316543579	
75	315.5473120212555	movie	1		286	73.0	2.5	/experiments/knapen_AOT/AOT_stimuli/rescaled_final/0430_fw.mp4	0.0	331.69534850120544	2.4920530319213867
75	316.72094321250916	pulse	1	t		73.0	2.5	/experiments/knapen_AOT/AOT_stimuli/rescaled_final/0430_fw.mp4	0.0	332.8689796924591	
75	318.0393650531769	fix_post	2		12	73.0	2.5	/experiments/knapen_AOT/AOT_stimuli/rescaled_final/0430_fw.mp4	0.0	334.18740153312683	0.1000370979309082
76	318.1394021511078	fix_pre	0		120	74.0	2.5	/experiments/knapen_AOT/AOT_stimuli/rescaled_final/0350_fw.mp4	0.0	334.28743863105774	1.0085275173187256
76	318.32300186157227	pulse	0	t		74.0	2.5	/experiments/knapen_AOT/AOT_stimuli/rescaled_final/0350_fw.mp4	0.0	334.4710383415222	
76	319.1479296684265	movie	1		284	74.0	2.5	/experiments/knapen_AOT/AOT_stimuli/rescaled_final/0350_fw.mp4	0.0	335.29596614837646	2.4919750690460205
76	319.92512488365173	pulse	1	t		74.0	2.5	/experiments/knapen_AOT/AOT_stimuli/rescaled_final/0350_fw.mp4	0.0	336.0731613636017	
76	321.5213677883148	pulse	1	t		74.0	2.5	/experiments/knapen_AOT/AOT_stimuli/rescaled_final/0350_fw.mp4	0.0	337.66940426826477	
76	321.63990473747253	fix_post	2		12	74.0	2.5	/experiments/knapen_AOT/AOT_stimuli/rescaled_final/0350_fw.mp4	0.0	337.7879412174225	0.10002565383911133
77	321.73993039131165	fix_pre	0		120	75.0	2.5	/experiments/knapen_AOT/AOT_stimuli/rescaled_final/0930_fw.mp4	0.0	337.8879668712616	1.008514404296875
77	322.7484447956085	movie	1		283	75.0	2.5	/experiments/knapen_AOT/AOT_stimuli/rescaled_final/0930_fw.mp4	0.0	338.8964812755585	2.4921724796295166
77	323.12355518341064	pulse	1	t		75.0	2.5	/experiments/knapen_AOT/AOT_stimuli/rescaled_final/0930_fw.mp4	0.0	339.2715916633606	
77	324.72229385375977	pulse	1	t		75.0	2.5	/experiments/knapen_AOT/AOT_stimuli/rescaled_final/0930_fw.mp4	0.0	340.8703303337097	
77	325.24061727523804	fix_post	2		12	75.0	2.5	/experiments/knapen_AOT/AOT_stimuli/rescaled_final/0930_fw.mp4	0.0	341.388653755188	0.09984707832336426
78	325.3404643535614	fix_pre	0		119	76.0	2.5	blank	1.0	341.48850083351135	0.9918065071105957
78	326.32418394088745	pulse	0	t		76.0	2.5	blank	1.0	342.4722204208374	
78	326.332270860672	movie	1		301	76.0	2.5	blank	1.0	342.48030734062195	2.5087106227874756
78	327.92437767982483	pulse	1	t		76.0	2.5	blank	1.0	344.0724141597748	
78	328.8409814834595	fix_post	2		12	76.0	2.5	blank	1.0	344.9890179634094	0.1000216007232666
79	328.94100308418274	fix_pre	0		120	77.0	2.5	/experiments/knapen_AOT/AOT_stimuli/rescaled_final/0566_fw.mp4	0.0	345.0890395641327	1.0085320472717285
79	329.5245883464813	pulse	0	t		77.0	2.5	/experiments/knapen_AOT/AOT_stimuli/rescaled_final/0566_fw.mp4	0.0	345.6726248264313	
79	329.94953513145447	movie	1		287	77.0	2.5	/experiments/knapen_AOT/AOT_stimuli/rescaled_final/0566_fw.mp4	0.0	346.0975716114044	2.492079496383667
79	331.1227912902832	pulse	1	t		77.0	2.5	/experiments/knapen_AOT/AOT_stimuli/rescaled_final/0566_fw.mp4	0.0	347.27082777023315	
79	332.44161462783813	fix_post	2		12	77.0	2.5	/experiments/knapen_AOT/AOT_stimuli/rescaled_final/0566_fw.mp4	0.0	348.5896511077881	0.09990239143371582
80	332.54151701927185	fix_pre	0		120	78.0	2.5	/experiments/knapen_AOT/AOT_stimuli/rescaled_final/1566_fw.mp4	0.0	348.6895534992218	1.0085203647613525
80	332.7250626087189	pulse	0	t		78.0	2.5	/experiments/knapen_AOT/AOT_stimuli/rescaled_final/1566_fw.mp4	0.0	348.8730990886688	
80	333.5500373840332	movie	1		278	78.0	2.5	/experiments/knapen_AOT/AOT_stimuli/rescaled_final/1566_fw.mp4	0.0	349.69807386398315	2.492274045944214
80	334.3248586654663	pulse	1	t		78.0	2.5	/experiments/knapen_AOT/AOT_stimuli/rescaled_final/1566_fw.mp4	0.0	350.47289514541626	
80	335.9236948490143	pulse	1	t		78.0	2.5	/experiments/knapen_AOT/AOT_stimuli/rescaled_final/1566_fw.mp4	0.0	352.07173132896423	
80	336.0423114299774	fix_post	2		12	78.0	2.5	/experiments/knapen_AOT/AOT_stimuli/rescaled_final/1566_fw.mp4	0.0	352.19034790992737	0.09976649284362793
81	336.14207792282104	fix_pre	0		120	79.0	2.5	/experiments/knapen_AOT/AOT_stimuli/rescaled_final/0578_rv.mp4	0.0	352.290114402771	1.008549690246582
81	337.1506276130676	movie	1		275	79.0	2.5	/experiments/knapen_AOT/AOT_stimuli/rescaled_final/0578_rv.mp4	0.0	353.2986640930176	2.491992235183716
81	337.52454376220703	pulse	1	t		79.0	2.5	/experiments/knapen_AOT/AOT_stimuli/rescaled_final/0578_rv.mp4	0.0	353.672580242157	
81	339.12465739250183	pulse	1	t		79.0	2.5	/experiments/knapen_AOT/AOT_stimuli/rescaled_final/0578_rv.mp4	0.0	355.2726938724518	
81	339.64261984825134	fix_post	2		12	79.0	2.5	/experiments/knapen_AOT/AOT_stimuli/rescaled_final/0578_rv.mp4	0.0	355.7906563282013	0.10001468658447266
82	339.7426345348358	fix_pre	0		119	80.0	2.5	/experiments/knapen_AOT/AOT_stimuli/rescaled_final/0898_rv.mp4	0.0	355.89067101478577	1.0086791515350342
82	340.71871542930603	pulse	0	t		80.0	2.5	/experiments/knapen_AOT/AOT_stimuli/rescaled_final/0898_rv.mp4	0.0	356.866751909256	
82	340.75131368637085	movie	1		280	80.0	2.5	/experiments/knapen_AOT/AOT_stimuli/rescaled_final/0898_rv.mp4	0.0	356.8993501663208	2.4918434619903564
82	342.31843733787537	pulse	1	t		80.0	2.5	/experiments/knapen_AOT/AOT_stimuli/rescaled_final/0898_rv.mp4	0.0	358.4664738178253	
82	343.2431571483612	fix_post	2		12	80.0	2.5	/experiments/knapen_AOT/AOT_stimuli/rescaled_final/0898_rv.mp4	0.0	359.39119362831116	0.10001897811889648
83	343.3431761264801	fix_pre	0		120	81.0	2.5	/experiments/knapen_AOT/AOT_stimuli/rescaled_final/0621_fw.mp4	0.0	359.49121260643005	1.0084452629089355
83	343.9185149669647	pulse	0	t		81.0	2.5	/experiments/knapen_AOT/AOT_stimuli/rescaled_final/0621_fw.mp4	0.0	360.0665514469147	
83	344.35162138938904	movie	1		275	81.0	2.5	/experiments/knapen_AOT/AOT_stimuli/rescaled_final/0621_fw.mp4	0.0	360.499657869339	2.492093324661255
83	345.5185122489929	pulse	1	t		81.0	2.5	/experiments/knapen_AOT/AOT_stimuli/rescaled_final/0621_fw.mp4	0.0	361.66654872894287	
83	346.8437147140503	fix_post	2		12	81.0	2.5	/experiments/knapen_AOT/AOT_stimuli/rescaled_final/0621_fw.mp4	0.0	362.99175119400024	0.1000661849975586
84	346.94378089904785	fix_pre	0		120	82.0	2.5	blank	1.0	363.0918173789978	1.000075101852417
84	347.11900329589844	pulse	0	t		82.0	2.5	blank	1.0	363.2670397758484	
84	347.94385600090027	movie	1		300	82.0	2.5	blank	1.0	364.0918924808502	2.500385284423828
84	348.71926975250244	pulse	1	t		82.0	2.5	blank	1.0	364.8673062324524	
84	350.3193995952606	pulse	1	t		82.0	2.5	blank	1.0	366.46743607521057	
84	350.4442412853241	fix_post	2		12	82.0	2.5	blank	1.0	366.59227776527405	0.10002326965332031
85	350.5442645549774	fix_pre	0		120	83.0	2.5	/experiments/knapen_AOT/AOT_stimuli/rescaled_final/0007_rv.mp4	0.0	366.69230103492737	1.0084943771362305
85	351.55275893211365	movie	1		276	83.0	2.5	/experiments/knapen_AOT/AOT_stimuli/rescaled_final/0007_rv.mp4	0.0	367.7007954120636	2.492060422897339
85	351.9183874130249	pulse	1	t		83.0	2.5	/experiments/knapen_AOT/AOT_stimuli/rescaled_final/0007_rv.mp4	0.0	368.06642389297485	
85	353.51788091659546	pulse	1	t		83.0	2.5	/experiments/knapen_AOT/AOT_stimuli/rescaled_final/0007_rv.mp4	0.0	369.6659173965454	
85	354.044819355011	fix_post	2		12	83.0	2.5	/experiments/knapen_AOT/AOT_stimuli/rescaled_final/0007_rv.mp4	0.0	370.19285583496094	0.10004377365112305
87	354.1448631286621	stim	0		1716					370.29289960861206	14.302151679992676
87	355.12015080451965	pulse	0	t						371.2681872844696	
87	356.7203845977783	pulse	0	t						372.86842107772827	
87	358.3206560611725	pulse	0	t						374.46869254112244	
87	359.920902967453	pulse	0	t						376.06893944740295	
87	361.521048784256	pulse	0	t						377.66908526420593	
87	363.1214039325714	pulse	0	t						379.26944041252136	
87	364.7215554714203	pulse	0	t						380.86959195137024	
87	366.3218004703522	pulse	0	t						382.4698369503021	
87	367.92220735549927	pulse	0	t						384.0702438354492	
