trial_nr	onset	event_type	phase	response	nr_frames	movie_index	movie_duration	movie_file	blank	onset_abs	duration
0	0.20836591720581055	stim	0		4					20.61327600479126	0.03325510025024414
0	0.23376107215881348	response	0	space						20.638671159744263	
1	0.2416210174560547	stim	0		4146					20.646531105041504	34.57452583312988
1	34.78652095794678	pulse	0	t						55.19143104553223	
1	34.81614685058594	stim	1		1716					55.22105693817139	14.299435138702393
1	36.381372928619385	pulse	1	t						56.786283016204834	
1	37.980905055999756	pulse	1	t						58.385815143585205	
1	39.58097505569458	pulse	1	t						59.98588514328003	
1	41.18130588531494	pulse	1	t						61.58621597290039	
1	42.78157687187195	pulse	1	t						63.1864869594574	
1	44.38166403770447	pulse	1	t						64.78657412528992	
1	45.982033014297485	pulse	1	t						66.38694310188293	
1	47.58217000961304	pulse	1	t						67.98708009719849	
2	49.11558198928833	fix_pre	0		9	0.0	2.5	/experiments/knapen_AOT/AOT_stimuli/rescaled_final/1102_fw.mp4	0.0	69.52049207687378	0.07503700256347656
2	49.182525873184204	pulse	0	t		0.0	2.5	/experiments/knapen_AOT/AOT_stimuli/rescaled_final/1102_fw.mp4	0.0	69.58743596076965	
2	49.19061899185181	movie	1		242	0.0	2.5	/experiments/knapen_AOT/AOT_stimuli/rescaled_final/1102_fw.mp4	0.0	69.59552907943726	2.508729934692383
2	50.78339695930481	pulse	1	t		0.0	2.5	/experiments/knapen_AOT/AOT_stimuli/rescaled_final/1102_fw.mp4	0.0	71.18830704689026	
2	51.69934892654419	fix_post	2		12	0.0	2.5	/experiments/knapen_AOT/AOT_stimuli/rescaled_final/1102_fw.mp4	0.0	72.10425901412964	0.09999513626098633
3	51.799344062805176	fix_pre	0		120	1.0	2.5	/experiments/knapen_AOT/AOT_stimuli/rescaled_final/0631_rv.mp4	0.0	72.20425415039062	1.0001249313354492
3	52.38300585746765	pulse	0	t		1.0	2.5	/experiments/knapen_AOT/AOT_stimuli/rescaled_final/0631_rv.mp4	0.0	72.7879159450531	
3	52.799468994140625	movie	1		243	1.0	2.5	/experiments/knapen_AOT/AOT_stimuli/rescaled_final/0631_rv.mp4	0.0	73.20437908172607	2.5004940032958984
3	53.983288049697876	pulse	1	t		1.0	2.5	/experiments/knapen_AOT/AOT_stimuli/rescaled_final/0631_rv.mp4	0.0	74.38819813728333	
3	55.29996299743652	fix_post	2		12	1.0	2.5	/experiments/knapen_AOT/AOT_stimuli/rescaled_final/0631_rv.mp4	0.0	75.70487308502197	0.10004496574401855
4	55.40000796318054	fix_pre	0		120	2.0	2.5	/experiments/knapen_AOT/AOT_stimuli/rescaled_final/0573_fw.mp4	0.0	75.80491805076599	1.000087022781372
4	55.583478927612305	pulse	0	t		2.0	2.5	/experiments/knapen_AOT/AOT_stimuli/rescaled_final/0573_fw.mp4	0.0	75.98838901519775	
4	56.400094985961914	movie	1		244	2.0	2.5	/experiments/knapen_AOT/AOT_stimuli/rescaled_final/0573_fw.mp4	0.0	76.80500507354736	2.5003209114074707
4	57.1836838722229	pulse	1	t		2.0	2.5	/experiments/knapen_AOT/AOT_stimuli/rescaled_final/0573_fw.mp4	0.0	77.58859395980835	
4	58.787171840667725	pulse	1	t		2.0	2.5	/experiments/knapen_AOT/AOT_stimuli/rescaled_final/0573_fw.mp4	0.0	79.19208192825317	
4	58.900415897369385	fix_post	2		12	2.0	2.5	/experiments/knapen_AOT/AOT_stimuli/rescaled_final/0573_fw.mp4	0.0	79.30532598495483	0.10003399848937988
5	59.000449895858765	fix_pre	0		120	3.0	2.5	/experiments/knapen_AOT/AOT_stimuli/rescaled_final/1398_rv.mp4	0.0	79.40535998344421	1.0001070499420166
5	60.00055694580078	movie	1		242	3.0	2.5	/experiments/knapen_AOT/AOT_stimuli/rescaled_final/1398_rv.mp4	0.0	80.40546703338623	2.492079973220825
5	60.384501934051514	pulse	1	t		3.0	2.5	/experiments/knapen_AOT/AOT_stimuli/rescaled_final/1398_rv.mp4	0.0	80.78941202163696	
5	61.984439849853516	pulse	1	t		3.0	2.5	/experiments/knapen_AOT/AOT_stimuli/rescaled_final/1398_rv.mp4	0.0	82.38934993743896	
5	62.492636919021606	fix_post	2		12	3.0	2.5	/experiments/knapen_AOT/AOT_stimuli/rescaled_final/1398_rv.mp4	0.0	82.89754700660706	0.10005307197570801
6	62.592689990997314	fix_pre	0		120	4.0	2.5	/experiments/knapen_AOT/AOT_stimuli/rescaled_final/1163_fw.mp4	0.0	82.99760007858276	1.0001099109649658
6	63.584627866744995	pulse	0	t		4.0	2.5	/experiments/knapen_AOT/AOT_stimuli/rescaled_final/1163_fw.mp4	0.0	83.98953795433044	
6	63.59279990196228	movie	1		244	4.0	2.5	/experiments/knapen_AOT/AOT_stimuli/rescaled_final/1163_fw.mp4	0.0	83.99770998954773	2.5086870193481445
6	65.18564987182617	pulse	1	t		4.0	2.5	/experiments/knapen_AOT/AOT_stimuli/rescaled_final/1163_fw.mp4	0.0	85.59055995941162	
6	66.10148692131042	fix_post	2		12	4.0	2.5	/experiments/knapen_AOT/AOT_stimuli/rescaled_final/1163_fw.mp4	0.0	86.50639700889587	0.09998393058776855
7	66.2014708518982	fix_pre	0		120	5.0	2.5	/experiments/knapen_AOT/AOT_stimuli/rescaled_final/0004_fw.mp4	0.0	86.60638093948364	1.0002450942993164
7	66.78526902198792	pulse	0	t		5.0	2.5	/experiments/knapen_AOT/AOT_stimuli/rescaled_final/0004_fw.mp4	0.0	87.19017910957336	
7	67.20171594619751	movie	1		242	5.0	2.5	/experiments/knapen_AOT/AOT_stimuli/rescaled_final/0004_fw.mp4	0.0	87.60662603378296	2.5004239082336426
7	68.38548994064331	pulse	1	t		5.0	2.5	/experiments/knapen_AOT/AOT_stimuli/rescaled_final/0004_fw.mp4	0.0	88.79040002822876	
7	69.70213985443115	fix_post	2		12	5.0	2.5	/experiments/knapen_AOT/AOT_stimuli/rescaled_final/0004_fw.mp4	0.0	90.1070499420166	0.10001707077026367
8	69.80215692520142	fix_pre	0		120	6.0	2.5	blank	1.0	90.20706701278687	1.0000929832458496
8	69.98559904098511	pulse	0	t		6.0	2.5	blank	1.0	90.39050912857056	
8	70.80224990844727	movie	1		300	6.0	2.5	blank	1.0	91.20715999603271	2.5002901554107666
8	71.5857880115509	pulse	1	t		6.0	2.5	blank	1.0	91.99069809913635	
8	73.18597984313965	pulse	1	t		6.0	2.5	blank	1.0	93.5908899307251	
8	73.30254006385803	fix_post	2		12	6.0	2.5	blank	1.0	93.70745015144348	0.10001897811889648
9	73.40255904197693	fix_pre	0		120	7.0	2.5	/experiments/knapen_AOT/AOT_stimuli/rescaled_final/0878_fw.mp4	0.0	93.80746912956238	1.0001628398895264
9	74.40272188186646	movie	1		242	7.0	2.5	/experiments/knapen_AOT/AOT_stimuli/rescaled_final/0878_fw.mp4	0.0	94.8076319694519	2.492180109024048
9	74.78753590583801	pulse	1	t		7.0	2.5	/experiments/knapen_AOT/AOT_stimuli/rescaled_final/0878_fw.mp4	0.0	95.19244599342346	
9	76.38658499717712	pulse	1	t		7.0	2.5	/experiments/knapen_AOT/AOT_stimuli/rescaled_final/0878_fw.mp4	0.0	96.79149508476257	
9	76.8949019908905	fix_post	2		12	7.0	2.5	/experiments/knapen_AOT/AOT_stimuli/rescaled_final/0878_fw.mp4	0.0	97.29981207847595	0.09991788864135742
10	76.99481987953186	fix_pre	0		120	8.0	2.5	/experiments/knapen_AOT/AOT_stimuli/rescaled_final/0011_fw.mp4	0.0	97.39972996711731	1.0001490116119385
10	77.98678398132324	pulse	0	t		8.0	2.5	/experiments/knapen_AOT/AOT_stimuli/rescaled_final/0011_fw.mp4	0.0	98.39169406890869	
10	77.9949688911438	movie	1		241	8.0	2.5	/experiments/knapen_AOT/AOT_stimuli/rescaled_final/0011_fw.mp4	0.0	98.39987897872925	2.508664131164551
10	79.58735203742981	pulse	1	t		8.0	2.5	/experiments/knapen_AOT/AOT_stimuli/rescaled_final/0011_fw.mp4	0.0	99.99226212501526	
10	80.50363302230835	fix_post	2		12	8.0	2.5	/experiments/knapen_AOT/AOT_stimuli/rescaled_final/0011_fw.mp4	0.0	100.9085431098938	0.10003304481506348
11	80.60366606712341	fix_pre	0		120	9.0	2.5	/experiments/knapen_AOT/AOT_stimuli/rescaled_final/1558_rv.mp4	0.0	101.00857615470886	1.0001327991485596
11	81.18729591369629	pulse	0	t		9.0	2.5	/experiments/knapen_AOT/AOT_stimuli/rescaled_final/1558_rv.mp4	0.0	101.59220600128174	
11	81.60379886627197	movie	1		243	9.0	2.5	/experiments/knapen_AOT/AOT_stimuli/rescaled_final/1558_rv.mp4	0.0	102.00870895385742	2.500519037246704
11	82.7804708480835	pulse	1	t		9.0	2.5	/experiments/knapen_AOT/AOT_stimuli/rescaled_final/1558_rv.mp4	0.0	103.18538093566895	
11	84.10431790351868	fix_post	2		12	9.0	2.5	/experiments/knapen_AOT/AOT_stimuli/rescaled_final/1558_rv.mp4	0.0	104.50922799110413	0.09989714622497559
12	84.20421504974365	fix_pre	0		120	10.0	2.5	/experiments/knapen_AOT/AOT_stimuli/rescaled_final/0616_rv.mp4	0.0	104.6091251373291	1.0001568794250488
12	84.38034987449646	pulse	0	t		10.0	2.5	/experiments/knapen_AOT/AOT_stimuli/rescaled_final/0616_rv.mp4	0.0	104.78525996208191	
12	85.2043719291687	movie	1		242	10.0	2.5	/experiments/knapen_AOT/AOT_stimuli/rescaled_final/0616_rv.mp4	0.0	105.60928201675415	2.5003960132598877
12	85.98063397407532	pulse	1	t		10.0	2.5	/experiments/knapen_AOT/AOT_stimuli/rescaled_final/0616_rv.mp4	0.0	106.38554406166077	
12	87.58898901939392	pulse	1	t		10.0	2.5	/experiments/knapen_AOT/AOT_stimuli/rescaled_final/0616_rv.mp4	0.0	107.99389910697937	
12	87.70476794242859	fix_post	2		12	10.0	2.5	/experiments/knapen_AOT/AOT_stimuli/rescaled_final/0616_rv.mp4	0.0	108.10967803001404	0.10001397132873535
13	87.80478191375732	fix_pre	0		119	11.0	2.5	/experiments/knapen_AOT/AOT_stimuli/rescaled_final/0934_rv.mp4	0.0	108.20969200134277	0.991750955581665
13	88.79653286933899	movie	1		242	11.0	2.5	/experiments/knapen_AOT/AOT_stimuli/rescaled_final/0934_rv.mp4	0.0	109.20144295692444	2.500519037246704
13	89.18077802658081	pulse	1	t		11.0	2.5	/experiments/knapen_AOT/AOT_stimuli/rescaled_final/0934_rv.mp4	0.0	109.58568811416626	
13	90.78118085861206	pulse	1	t		11.0	2.5	/experiments/knapen_AOT/AOT_stimuli/rescaled_final/0934_rv.mp4	0.0	111.18609094619751	
13	91.2970519065857	fix_post	2		12	11.0	2.5	/experiments/knapen_AOT/AOT_stimuli/rescaled_final/0934_rv.mp4	0.0	111.70196199417114	0.09989595413208008
14	91.39694786071777	fix_pre	0		119	12.0	2.5	/experiments/knapen_AOT/AOT_stimuli/rescaled_final/0595_rv.mp4	0.0	111.80185794830322	0.9918711185455322
14	92.38055992126465	pulse	0	t		12.0	2.5	/experiments/knapen_AOT/AOT_stimuli/rescaled_final/0595_rv.mp4	0.0	112.7854700088501	
14	92.3888189792633	movie	1		243	12.0	2.5	/experiments/knapen_AOT/AOT_stimuli/rescaled_final/0595_rv.mp4	0.0	112.79372906684875	2.5086159706115723
14	93.98147702217102	pulse	1	t		12.0	2.5	/experiments/knapen_AOT/AOT_stimuli/rescaled_final/0595_rv.mp4	0.0	114.38638710975647	
14	94.89743494987488	fix_post	2		12	12.0	2.5	/experiments/knapen_AOT/AOT_stimuli/rescaled_final/0595_rv.mp4	0.0	115.30234503746033	0.10003399848937988
15	94.99746894836426	fix_pre	0		120	13.0	2.5	/experiments/knapen_AOT/AOT_stimuli/rescaled_final/1332_fw.mp4	0.0	115.4023790359497	1.0001659393310547
15	95.58106184005737	pulse	0	t		13.0	2.5	/experiments/knapen_AOT/AOT_stimuli/rescaled_final/1332_fw.mp4	0.0	115.98597192764282	
15	95.99763488769531	movie	1		242	13.0	2.5	/experiments/knapen_AOT/AOT_stimuli/rescaled_final/1332_fw.mp4	0.0	116.40254497528076	2.5004470348358154
15	97.18138003349304	pulse	1	t		13.0	2.5	/experiments/knapen_AOT/AOT_stimuli/rescaled_final/1332_fw.mp4	0.0	117.58629012107849	
15	98.49808192253113	fix_post	2		12	13.0	2.5	/experiments/knapen_AOT/AOT_stimuli/rescaled_final/1332_fw.mp4	0.0	118.90299201011658	0.09992694854736328
16	98.59800887107849	fix_pre	0		120	14.0	2.5	blank	1.0	119.00291895866394	1.0001401901245117
16	98.78157305717468	pulse	0	t		14.0	2.5	blank	1.0	119.18648314476013	
16	99.598149061203	movie	1		300	14.0	2.5	blank	1.0	120.00305914878845	2.5003437995910645
16	100.38171005249023	pulse	1	t		14.0	2.5	blank	1.0	120.78662014007568	
16	101.98202705383301	pulse	1	t		14.0	2.5	blank	1.0	122.38693714141846	
16	102.09849286079407	fix_post	2		12	14.0	2.5	blank	1.0	122.50340294837952	0.10003900527954102
17	102.19853186607361	fix_pre	0		120	15.0	2.5	/experiments/knapen_AOT/AOT_stimuli/rescaled_final/1140_rv.mp4	0.0	122.60344195365906	1.000128984451294
17	103.1986608505249	movie	1		241	15.0	2.5	/experiments/knapen_AOT/AOT_stimuli/rescaled_final/1140_rv.mp4	0.0	123.60357093811035	2.492302179336548
17	103.58301401138306	pulse	1	t		15.0	2.5	/experiments/knapen_AOT/AOT_stimuli/rescaled_final/1140_rv.mp4	0.0	123.9879240989685	
17	105.18252992630005	pulse	1	t		15.0	2.5	/experiments/knapen_AOT/AOT_stimuli/rescaled_final/1140_rv.mp4	0.0	125.5874400138855	
17	105.69096302986145	fix_post	2		12	15.0	2.5	/experiments/knapen_AOT/AOT_stimuli/rescaled_final/1140_rv.mp4	0.0	126.0958731174469	0.09983396530151367
18	105.79079699516296	fix_pre	0		120	16.0	2.5	/experiments/knapen_AOT/AOT_stimuli/rescaled_final/1863_rv.mp4	0.0	126.19570708274841	1.0001108646392822
18	106.78266406059265	pulse	0	t		16.0	2.5	/experiments/knapen_AOT/AOT_stimuli/rescaled_final/1863_rv.mp4	0.0	127.1875741481781	
18	106.79090785980225	movie	1		245	16.0	2.5	/experiments/knapen_AOT/AOT_stimuli/rescaled_final/1863_rv.mp4	0.0	127.1958179473877	2.5086700916290283
18	108.38371586799622	pulse	1	t		16.0	2.5	/experiments/knapen_AOT/AOT_stimuli/rescaled_final/1863_rv.mp4	0.0	128.78862595558167	
18	109.29957795143127	fix_post	2		12	16.0	2.5	/experiments/knapen_AOT/AOT_stimuli/rescaled_final/1863_rv.mp4	0.0	129.70448803901672	0.10001611709594727
19	109.39959406852722	fix_pre	0		120	17.0	2.5	/experiments/knapen_AOT/AOT_stimuli/rescaled_final/1742_fw.mp4	0.0	129.80450415611267	1.0002717971801758
19	109.98318099975586	pulse	0	t		17.0	2.5	/experiments/knapen_AOT/AOT_stimuli/rescaled_final/1742_fw.mp4	0.0	130.3880910873413	
19	110.3998658657074	movie	1		242	17.0	2.5	/experiments/knapen_AOT/AOT_stimuli/rescaled_final/1742_fw.mp4	0.0	130.80477595329285	2.500387191772461
19	111.58352494239807	pulse	1	t		17.0	2.5	/experiments/knapen_AOT/AOT_stimuli/rescaled_final/1742_fw.mp4	0.0	131.98843502998352	
19	112.90025305747986	fix_post	2		12	17.0	2.5	/experiments/knapen_AOT/AOT_stimuli/rescaled_final/1742_fw.mp4	0.0	133.3051631450653	0.09990191459655762
20	113.00015497207642	fix_pre	0		120	18.0	2.5	/experiments/knapen_AOT/AOT_stimuli/rescaled_final/0471_rv.mp4	0.0	133.40506505966187	1.0001308917999268
20	113.18366289138794	pulse	0	t		18.0	2.5	/experiments/knapen_AOT/AOT_stimuli/rescaled_final/0471_rv.mp4	0.0	133.5885729789734	
20	114.00028586387634	movie	1		243	18.0	2.5	/experiments/knapen_AOT/AOT_stimuli/rescaled_final/0471_rv.mp4	0.0	134.4051959514618	2.5004420280456543
20	114.78402996063232	pulse	1	t		18.0	2.5	/experiments/knapen_AOT/AOT_stimuli/rescaled_final/0471_rv.mp4	0.0	135.18894004821777	
20	116.38464784622192	pulse	1	t		18.0	2.5	/experiments/knapen_AOT/AOT_stimuli/rescaled_final/0471_rv.mp4	0.0	136.78955793380737	
20	116.500727891922	fix_post	2		12	18.0	2.5	/experiments/knapen_AOT/AOT_stimuli/rescaled_final/0471_rv.mp4	0.0	136.90563797950745	0.09996294975280762
21	116.6006908416748	fix_pre	0		120	19.0	2.5	/experiments/knapen_AOT/AOT_stimuli/rescaled_final/1911_rv.mp4	0.0	137.00560092926025	1.0001912117004395
21	117.60088205337524	movie	1		241	19.0	2.5	/experiments/knapen_AOT/AOT_stimuli/rescaled_final/1911_rv.mp4	0.0	138.0057921409607	2.4920477867126465
21	117.98524904251099	pulse	1	t		19.0	2.5	/experiments/knapen_AOT/AOT_stimuli/rescaled_final/1911_rv.mp4	0.0	138.39015913009644	
21	119.5846209526062	pulse	1	t		19.0	2.5	/experiments/knapen_AOT/AOT_stimuli/rescaled_final/1911_rv.mp4	0.0	139.98953104019165	
21	120.09292984008789	fix_post	2		12	19.0	2.5	/experiments/knapen_AOT/AOT_stimuli/rescaled_final/1911_rv.mp4	0.0	140.49783992767334	0.09996700286865234
22	120.19289684295654	fix_pre	0		120	20.0	2.5	/experiments/knapen_AOT/AOT_stimuli/rescaled_final/1841_rv.mp4	0.0	140.597806930542	1.0001602172851562
22	121.18499803543091	pulse	0	t		20.0	2.5	/experiments/knapen_AOT/AOT_stimuli/rescaled_final/1841_rv.mp4	0.0	141.58990812301636	
22	121.1930570602417	movie	1		244	20.0	2.5	/experiments/knapen_AOT/AOT_stimuli/rescaled_final/1841_rv.mp4	0.0	141.59796714782715	2.508749008178711
22	122.78652787208557	pulse	1	t		20.0	2.5	/experiments/knapen_AOT/AOT_stimuli/rescaled_final/1841_rv.mp4	0.0	143.19143795967102	
22	123.70180606842041	fix_post	2		12	20.0	2.5	/experiments/knapen_AOT/AOT_stimuli/rescaled_final/1841_rv.mp4	0.0	144.10671615600586	0.09998488426208496
23	123.8017909526825	fix_pre	0		120	21.0	2.5	blank	1.0	144.20670104026794	1.0000901222229004
23	124.38548302650452	pulse	0	t		21.0	2.5	blank	1.0	144.79039311408997	
23	124.8018810749054	movie	1		300	21.0	2.5	blank	1.0	145.20679116249084	2.500438928604126
23	125.98557996749878	pulse	1	t		21.0	2.5	blank	1.0	146.39049005508423	
23	127.30232000350952	fix_post	2		12	21.0	2.5	blank	1.0	147.70723009109497	0.10000205039978027
24	127.4023220539093	fix_pre	0		120	22.0	2.5	/experiments/knapen_AOT/AOT_stimuli/rescaled_final/0218_fw.mp4	0.0	147.80723214149475	1.0001029968261719
24	127.58605599403381	pulse	0	t		22.0	2.5	/experiments/knapen_AOT/AOT_stimuli/rescaled_final/0218_fw.mp4	0.0	147.99096608161926	
24	128.40242505073547	movie	1		243	22.0	2.5	/experiments/knapen_AOT/AOT_stimuli/rescaled_final/0218_fw.mp4	0.0	148.80733513832092	2.500535011291504
24	129.18611407279968	pulse	1	t		22.0	2.5	/experiments/knapen_AOT/AOT_stimuli/rescaled_final/0218_fw.mp4	0.0	149.59102416038513	
24	130.78613305091858	pulse	1	t		22.0	2.5	/experiments/knapen_AOT/AOT_stimuli/rescaled_final/0218_fw.mp4	0.0	151.19104313850403	
24	130.90296006202698	fix_post	2		12	22.0	2.5	/experiments/knapen_AOT/AOT_stimuli/rescaled_final/0218_fw.mp4	0.0	151.30787014961243	0.09991788864135742
25	131.00287795066833	fix_pre	0		120	23.0	2.5	/experiments/knapen_AOT/AOT_stimuli/rescaled_final/0686_fw.mp4	0.0	151.40778803825378	1.0000979900360107
25	132.00297594070435	movie	1		242	23.0	2.5	/experiments/knapen_AOT/AOT_stimuli/rescaled_final/0686_fw.mp4	0.0	152.4078860282898	2.4921770095825195
25	132.38710689544678	pulse	1	t		23.0	2.5	/experiments/knapen_AOT/AOT_stimuli/rescaled_final/0686_fw.mp4	0.0	152.79201698303223	
25	133.98683285713196	pulse	1	t		23.0	2.5	/experiments/knapen_AOT/AOT_stimuli/rescaled_final/0686_fw.mp4	0.0	154.3917429447174	
25	134.49515295028687	fix_post	2		12	23.0	2.5	/experiments/knapen_AOT/AOT_stimuli/rescaled_final/0686_fw.mp4	0.0	154.90006303787231	0.0999150276184082
26	134.59506797790527	fix_pre	0		120	24.0	2.5	/experiments/knapen_AOT/AOT_stimuli/rescaled_final/0384_fw.mp4	0.0	154.99997806549072	1.0001509189605713
26	135.58718299865723	pulse	0	t		24.0	2.5	/experiments/knapen_AOT/AOT_stimuli/rescaled_final/0384_fw.mp4	0.0	155.99209308624268	
26	135.59521889686584	movie	1		243	24.0	2.5	/experiments/knapen_AOT/AOT_stimuli/rescaled_final/0384_fw.mp4	0.0	156.0001289844513	2.5086941719055176
26	137.18776297569275	pulse	1	t		24.0	2.5	/experiments/knapen_AOT/AOT_stimuli/rescaled_final/0384_fw.mp4	0.0	157.5926730632782	
26	138.10391306877136	fix_post	2		12	24.0	2.5	/experiments/knapen_AOT/AOT_stimuli/rescaled_final/0384_fw.mp4	0.0	158.5088231563568	0.10001778602600098
27	138.20393085479736	fix_pre	0		118	25.0	2.5	/experiments/knapen_AOT/AOT_stimuli/rescaled_final/1632_fw.mp4	0.0	158.6088409423828	1.000162124633789
27	138.78761887550354	pulse	0	t		25.0	2.5	/experiments/knapen_AOT/AOT_stimuli/rescaled_final/1632_fw.mp4	0.0	159.192528963089	
27	139.20409297943115	movie	1		243	25.0	2.5	/experiments/knapen_AOT/AOT_stimuli/rescaled_final/1632_fw.mp4	0.0	159.6090030670166	2.5003859996795654
27	140.3878378868103	pulse	1	t		25.0	2.5	/experiments/knapen_AOT/AOT_stimuli/rescaled_final/1632_fw.mp4	0.0	160.79274797439575	
27	141.70447897911072	fix_post	2		12	25.0	2.5	/experiments/knapen_AOT/AOT_stimuli/rescaled_final/1632_fw.mp4	0.0	162.10938906669617	0.09994697570800781
28	141.80442595481873	fix_pre	0		120	26.0	2.5	/experiments/knapen_AOT/AOT_stimuli/rescaled_final/0042_rv.mp4	0.0	162.20933604240417	1.0001580715179443
28	141.98818397521973	pulse	0	t		26.0	2.5	/experiments/knapen_AOT/AOT_stimuli/rescaled_final/0042_rv.mp4	0.0	162.39309406280518	
28	142.80458402633667	movie	1		243	26.0	2.5	/experiments/knapen_AOT/AOT_stimuli/rescaled_final/0042_rv.mp4	0.0	163.20949411392212	2.500427007675171
28	143.58836388587952	pulse	1	t		26.0	2.5	/experiments/knapen_AOT/AOT_stimuli/rescaled_final/0042_rv.mp4	0.0	163.99327397346497	
28	145.1803228855133	pulse	1	t		26.0	2.5	/experiments/knapen_AOT/AOT_stimuli/rescaled_final/0042_rv.mp4	0.0	165.58523297309875	
28	145.30501103401184	fix_post	2		12	26.0	2.5	/experiments/knapen_AOT/AOT_stimuli/rescaled_final/0042_rv.mp4	0.0	165.7099211215973	0.1000068187713623
29	145.4050178527832	fix_pre	0		120	27.0	2.5	blank	1.0	165.80992794036865	1.000133991241455
29	146.40515184402466	movie	1		299	27.0	2.5	blank	1.0	166.8100619316101	2.492075204849243
29	146.78030395507812	pulse	1	t		27.0	2.5	blank	1.0	167.18521404266357	
29	148.3805799484253	pulse	1	t		27.0	2.5	blank	1.0	168.78549003601074	
29	148.8972270488739	fix_post	2		12	27.0	2.5	blank	1.0	169.30213713645935	0.1000068187713623
30	148.99723386764526	fix_pre	0		119	28.0	2.5	/experiments/knapen_AOT/AOT_stimuli/rescaled_final/0545_rv.mp4	0.0	169.4021439552307	0.9918231964111328
30	149.98084092140198	pulse	0	t		28.0	2.5	/experiments/knapen_AOT/AOT_stimuli/rescaled_final/0545_rv.mp4	0.0	170.38575100898743	
30	149.9890570640564	movie	1		244	28.0	2.5	/experiments/knapen_AOT/AOT_stimuli/rescaled_final/0545_rv.mp4	0.0	170.39396715164185	2.5086848735809326
30	151.58163404464722	pulse	1	t		28.0	2.5	/experiments/knapen_AOT/AOT_stimuli/rescaled_final/0545_rv.mp4	0.0	171.98654413223267	
30	152.49774193763733	fix_post	2		12	28.0	2.5	/experiments/knapen_AOT/AOT_stimuli/rescaled_final/0545_rv.mp4	0.0	172.90265202522278	0.09998393058776855
31	152.5977258682251	fix_pre	0		120	29.0	2.5	/experiments/knapen_AOT/AOT_stimuli/rescaled_final/0697_rv.mp4	0.0	173.00263595581055	1.0002381801605225
31	153.18140602111816	pulse	0	t		29.0	2.5	/experiments/knapen_AOT/AOT_stimuli/rescaled_final/0697_rv.mp4	0.0	173.5863161087036	
31	153.59796404838562	movie	1		242	29.0	2.5	/experiments/knapen_AOT/AOT_stimuli/rescaled_final/0697_rv.mp4	0.0	174.00287413597107	2.500427007675171
31	154.78164386749268	pulse	1	t		29.0	2.5	/experiments/knapen_AOT/AOT_stimuli/rescaled_final/0697_rv.mp4	0.0	175.18655395507812	
31	156.0983910560608	fix_post	2		12	29.0	2.5	/experiments/knapen_AOT/AOT_stimuli/rescaled_final/0697_rv.mp4	0.0	176.50330114364624	0.09992384910583496
32	156.19831490516663	fix_pre	0		120	30.0	2.5	/experiments/knapen_AOT/AOT_stimuli/rescaled_final/0573_fw.mp4	0.0	176.60322499275208	1.000133991241455
32	156.3817629814148	pulse	0	t		30.0	2.5	/experiments/knapen_AOT/AOT_stimuli/rescaled_final/0573_fw.mp4	0.0	176.78667306900024	
32	157.19844889640808	movie	1		244	30.0	2.5	/experiments/knapen_AOT/AOT_stimuli/rescaled_final/0573_fw.mp4	0.0	177.60335898399353	2.5003440380096436
32	157.98202991485596	pulse	1	t		30.0	2.5	/experiments/knapen_AOT/AOT_stimuli/rescaled_final/0573_fw.mp4	0.0	178.3869400024414	
32	159.58220601081848	pulse	1	t		30.0	2.5	/experiments/knapen_AOT/AOT_stimuli/rescaled_final/0573_fw.mp4	0.0	179.98711609840393	
32	159.69879293441772	fix_post	2		12	30.0	2.5	/experiments/knapen_AOT/AOT_stimuli/rescaled_final/0573_fw.mp4	0.0	180.10370302200317	0.10001802444458008
33	159.7988109588623	fix_pre	0		120	31.0	2.5	/experiments/knapen_AOT/AOT_stimuli/rescaled_final/0617_fw.mp4	0.0	180.20372104644775	1.0001640319824219
33	160.79897499084473	movie	1		242	31.0	2.5	/experiments/knapen_AOT/AOT_stimuli/rescaled_final/0617_fw.mp4	0.0	181.20388507843018	2.492053985595703
33	161.18315887451172	pulse	1	t		31.0	2.5	/experiments/knapen_AOT/AOT_stimuli/rescaled_final/0617_fw.mp4	0.0	181.58806896209717	
33	162.78271889686584	pulse	1	t		31.0	2.5	/experiments/knapen_AOT/AOT_stimuli/rescaled_final/0617_fw.mp4	0.0	183.1876289844513	
33	163.29102897644043	fix_post	2		12	31.0	2.5	/experiments/knapen_AOT/AOT_stimuli/rescaled_final/0617_fw.mp4	0.0	183.69593906402588	0.09998297691345215
34	163.39101195335388	fix_pre	0		120	32.0	2.5	/experiments/knapen_AOT/AOT_stimuli/rescaled_final/1038_fw.mp4	0.0	183.79592204093933	1.0001990795135498
34	164.38298392295837	pulse	0	t		32.0	2.5	/experiments/knapen_AOT/AOT_stimuli/rescaled_final/1038_fw.mp4	0.0	184.78789401054382	
34	164.39121103286743	movie	1		243	32.0	2.5	/experiments/knapen_AOT/AOT_stimuli/rescaled_final/1038_fw.mp4	0.0	184.79612112045288	2.5086898803710938
34	165.98395800590515	pulse	1	t		32.0	2.5	/experiments/knapen_AOT/AOT_stimuli/rescaled_final/1038_fw.mp4	0.0	186.3888680934906	
34	166.89990091323853	fix_post	2		12	32.0	2.5	/experiments/knapen_AOT/AOT_stimuli/rescaled_final/1038_fw.mp4	0.0	187.30481100082397	0.09995102882385254
35	166.99985194206238	fix_pre	0		120	33.0	2.5	/experiments/knapen_AOT/AOT_stimuli/rescaled_final/0073_fw.mp4	0.0	187.40476202964783	1.000209093093872
35	167.58358502388	pulse	0	t		33.0	2.5	/experiments/knapen_AOT/AOT_stimuli/rescaled_final/0073_fw.mp4	0.0	187.98849511146545	
35	168.00006103515625	movie	1		243	33.0	2.5	/experiments/knapen_AOT/AOT_stimuli/rescaled_final/0073_fw.mp4	0.0	188.4049711227417	2.500342845916748
35	169.18380689620972	pulse	1	t		33.0	2.5	/experiments/knapen_AOT/AOT_stimuli/rescaled_final/0073_fw.mp4	0.0	189.58871698379517	
35	170.500403881073	fix_post	2		12	33.0	2.5	/experiments/knapen_AOT/AOT_stimuli/rescaled_final/0073_fw.mp4	0.0	190.90531396865845	0.10000419616699219
36	170.60040807724	fix_pre	0		120	34.0	2.5	blank	1.0	191.00531816482544	1.0001349449157715
36	170.7840678691864	pulse	0	t		34.0	2.5	blank	1.0	191.18897795677185	
36	171.60054302215576	movie	1		300	34.0	2.5	blank	1.0	192.0054531097412	2.5003700256347656
36	172.38416695594788	pulse	1	t		34.0	2.5	blank	1.0	192.78907704353333	
36	173.98450994491577	pulse	1	t		34.0	2.5	blank	1.0	194.38942003250122	
36	174.10091304779053	fix_post	2		12	34.0	2.5	blank	1.0	194.50582313537598	0.10008597373962402
37	174.20099902153015	fix_pre	0		120	35.0	2.5	/experiments/knapen_AOT/AOT_stimuli/rescaled_final/0595_fw.mp4	0.0	194.6059091091156	1.0001039505004883
37	175.20110297203064	movie	1		241	35.0	2.5	/experiments/knapen_AOT/AOT_stimuli/rescaled_final/0595_fw.mp4	0.0	195.6060130596161	2.492105007171631
37	175.58692288398743	pulse	1	t		35.0	2.5	/experiments/knapen_AOT/AOT_stimuli/rescaled_final/0595_fw.mp4	0.0	195.99183297157288	
37	177.1849548816681	pulse	1	t		35.0	2.5	/experiments/knapen_AOT/AOT_stimuli/rescaled_final/0595_fw.mp4	0.0	197.58986496925354	
37	177.69320797920227	fix_post	2		12	35.0	2.5	/experiments/knapen_AOT/AOT_stimuli/rescaled_final/0595_fw.mp4	0.0	198.09811806678772	0.09996390342712402
38	177.7931718826294	fix_pre	0		120	36.0	2.5	/experiments/knapen_AOT/AOT_stimuli/rescaled_final/1742_rv.mp4	0.0	198.19808197021484	1.0002021789550781
38	178.78515696525574	pulse	0	t		36.0	2.5	/experiments/knapen_AOT/AOT_stimuli/rescaled_final/1742_rv.mp4	0.0	199.1900670528412	
38	178.79337406158447	movie	1		243	36.0	2.5	/experiments/knapen_AOT/AOT_stimuli/rescaled_final/1742_rv.mp4	0.0	199.19828414916992	2.508641004562378
38	180.38672494888306	pulse	1	t		36.0	2.5	/experiments/knapen_AOT/AOT_stimuli/rescaled_final/1742_rv.mp4	0.0	200.7916350364685	
38	181.30201506614685	fix_post	2		12	36.0	2.5	/experiments/knapen_AOT/AOT_stimuli/rescaled_final/1742_rv.mp4	0.0	201.7069251537323	0.10004377365112305
39	181.40205883979797	fix_pre	0		120	37.0	2.5	/experiments/knapen_AOT/AOT_stimuli/rescaled_final/1570_rv.mp4	0.0	201.80696892738342	1.000162124633789
39	181.98566794395447	pulse	0	t		37.0	2.5	/experiments/knapen_AOT/AOT_stimuli/rescaled_final/1570_rv.mp4	0.0	202.39057803153992	
39	182.40222096443176	movie	1		244	37.0	2.5	/experiments/knapen_AOT/AOT_stimuli/rescaled_final/1570_rv.mp4	0.0	202.8071310520172	2.500298023223877
39	183.58592700958252	pulse	1	t		37.0	2.5	/experiments/knapen_AOT/AOT_stimuli/rescaled_final/1570_rv.mp4	0.0	203.99083709716797	
39	184.90251898765564	fix_post	2		12	37.0	2.5	/experiments/knapen_AOT/AOT_stimuli/rescaled_final/1570_rv.mp4	0.0	205.3074290752411	0.10004806518554688
40	185.0025670528412	fix_pre	0		120	38.0	2.5	/experiments/knapen_AOT/AOT_stimuli/rescaled_final/1791_rv.mp4	0.0	205.40747714042664	1.0002069473266602
40	185.18605399131775	pulse	0	t		38.0	2.5	/experiments/knapen_AOT/AOT_stimuli/rescaled_final/1791_rv.mp4	0.0	205.5909640789032	
40	186.00277400016785	movie	1		243	38.0	2.5	/experiments/knapen_AOT/AOT_stimuli/rescaled_final/1791_rv.mp4	0.0	206.4076840877533	2.5003700256347656
40	186.786395072937	pulse	1	t		38.0	2.5	/experiments/knapen_AOT/AOT_stimuli/rescaled_final/1791_rv.mp4	0.0	207.19130516052246	
40	188.38649606704712	pulse	1	t		38.0	2.5	/experiments/knapen_AOT/AOT_stimuli/rescaled_final/1791_rv.mp4	0.0	208.79140615463257	
40	188.5031440258026	fix_post	2		12	38.0	2.5	/experiments/knapen_AOT/AOT_stimuli/rescaled_final/1791_rv.mp4	0.0	208.90805411338806	0.09998703002929688
41	188.6031310558319	fix_pre	0		120	39.0	2.5	/experiments/knapen_AOT/AOT_stimuli/rescaled_final/1581_rv.mp4	0.0	209.00804114341736	1.000133991241455
41	189.60326504707336	movie	1		243	39.0	2.5	/experiments/knapen_AOT/AOT_stimuli/rescaled_final/1581_rv.mp4	0.0	210.0081751346588	2.492017984390259
41	189.9876480102539	pulse	1	t		39.0	2.5	/experiments/knapen_AOT/AOT_stimuli/rescaled_final/1581_rv.mp4	0.0	210.39255809783936	
41	191.58715295791626	pulse	1	t		39.0	2.5	/experiments/knapen_AOT/AOT_stimuli/rescaled_final/1581_rv.mp4	0.0	211.9920630455017	
41	192.09528303146362	fix_post	2		12	39.0	2.5	/experiments/knapen_AOT/AOT_stimuli/rescaled_final/1581_rv.mp4	0.0	212.50019311904907	0.10010886192321777
42	192.19539189338684	fix_pre	0		120	40.0	2.5	blank	1.0	212.6003019809723	1.0000231266021729
42	193.1873278617859	pulse	0	t		40.0	2.5	blank	1.0	213.59223794937134	
42	193.195415019989	movie	1		301	40.0	2.5	blank	1.0	213.60032510757446	2.5087268352508545
42	194.78751397132874	pulse	1	t		40.0	2.5	blank	1.0	215.19242405891418	
42	195.70414185523987	fix_post	2		12	40.0	2.5	blank	1.0	216.10905194282532	0.10004520416259766
43	195.80418705940247	fix_pre	0		120	41.0	2.5	/experiments/knapen_AOT/AOT_stimuli/rescaled_final/1461_rv.mp4	0.0	216.20909714698792	1.0001308917999268
43	196.38779306411743	pulse	0	t		41.0	2.5	/experiments/knapen_AOT/AOT_stimuli/rescaled_final/1461_rv.mp4	0.0	216.79270315170288	
43	196.8043179512024	movie	1		244	41.0	2.5	/experiments/knapen_AOT/AOT_stimuli/rescaled_final/1461_rv.mp4	0.0	217.20922803878784	2.500437021255493
43	197.98810386657715	pulse	1	t		41.0	2.5	/experiments/knapen_AOT/AOT_stimuli/rescaled_final/1461_rv.mp4	0.0	218.3930139541626	
43	199.30475497245789	fix_post	2		12	41.0	2.5	/experiments/knapen_AOT/AOT_stimuli/rescaled_final/1461_rv.mp4	0.0	219.70966506004333	0.10001802444458008
44	199.40477299690247	fix_pre	0		120	42.0	2.5	/experiments/knapen_AOT/AOT_stimuli/rescaled_final/0113_fw.mp4	0.0	219.80968308448792	1.0001220703125
44	199.58091592788696	pulse	0	t		42.0	2.5	/experiments/knapen_AOT/AOT_stimuli/rescaled_final/0113_fw.mp4	0.0	219.9858260154724	
44	200.40489506721497	movie	1		244	42.0	2.5	/experiments/knapen_AOT/AOT_stimuli/rescaled_final/0113_fw.mp4	0.0	220.80980515480042	2.5003550052642822
44	201.18114686012268	pulse	1	t		42.0	2.5	/experiments/knapen_AOT/AOT_stimuli/rescaled_final/0113_fw.mp4	0.0	221.58605694770813	
44	202.78862595558167	pulse	1	t		42.0	2.5	/experiments/knapen_AOT/AOT_stimuli/rescaled_final/0113_fw.mp4	0.0	223.19353604316711	
44	202.90525007247925	fix_post	2		12	42.0	2.5	/experiments/knapen_AOT/AOT_stimuli/rescaled_final/0113_fw.mp4	0.0	223.3101601600647	0.10000181198120117
45	203.00525188446045	fix_pre	0		120	43.0	2.5	/experiments/knapen_AOT/AOT_stimuli/rescaled_final/1528_rv.mp4	0.0	223.4101619720459	1.0001699924468994
45	204.00542187690735	movie	1		244	43.0	2.5	/experiments/knapen_AOT/AOT_stimuli/rescaled_final/1528_rv.mp4	0.0	224.4103319644928	2.492032051086426
45	204.38942289352417	pulse	1	t		43.0	2.5	/experiments/knapen_AOT/AOT_stimuli/rescaled_final/1528_rv.mp4	0.0	224.79433298110962	
45	205.9810609817505	pulse	1	t		43.0	2.5	/experiments/knapen_AOT/AOT_stimuli/rescaled_final/1528_rv.mp4	0.0	226.38597106933594	
45	206.49745392799377	fix_post	2		9	43.0	2.5	/experiments/knapen_AOT/AOT_stimuli/rescaled_final/1528_rv.mp4	0.0	226.90236401557922	0.09997391700744629
46	206.59742784500122	fix_pre	0		119	44.0	2.5	/experiments/knapen_AOT/AOT_stimuli/rescaled_final/1338_fw.mp4	0.0	227.00233793258667	0.9918441772460938
46	207.5810890197754	pulse	0	t		44.0	2.5	/experiments/knapen_AOT/AOT_stimuli/rescaled_final/1338_fw.mp4	0.0	227.98599910736084	
46	207.58927202224731	movie	1		243	44.0	2.5	/experiments/knapen_AOT/AOT_stimuli/rescaled_final/1338_fw.mp4	0.0	227.99418210983276	2.5087549686431885
46	209.18264985084534	pulse	1	t		44.0	2.5	/experiments/knapen_AOT/AOT_stimuli/rescaled_final/1338_fw.mp4	0.0	229.5875599384308	
46	210.0980269908905	fix_post	2		12	44.0	2.5	/experiments/knapen_AOT/AOT_stimuli/rescaled_final/1338_fw.mp4	0.0	230.50293707847595	0.09993290901184082
47	210.19795989990234	fix_pre	0		120	45.0	2.5	/experiments/knapen_AOT/AOT_stimuli/rescaled_final/1522_rv.mp4	0.0	230.6028699874878	1.0002501010894775
47	210.7815420627594	pulse	0	t		45.0	2.5	/experiments/knapen_AOT/AOT_stimuli/rescaled_final/1522_rv.mp4	0.0	231.18645215034485	
47	211.19821000099182	movie	1		243	45.0	2.5	/experiments/knapen_AOT/AOT_stimuli/rescaled_final/1522_rv.mp4	0.0	231.60312008857727	2.5002858638763428
47	212.3819329738617	pulse	1	t		45.0	2.5	/experiments/knapen_AOT/AOT_stimuli/rescaled_final/1522_rv.mp4	0.0	232.78684306144714	
47	213.69849586486816	fix_post	2		12	45.0	2.5	/experiments/knapen_AOT/AOT_stimuli/rescaled_final/1522_rv.mp4	0.0	234.1034059524536	0.10000920295715332
48	213.79850506782532	fix_pre	0		120	46.0	2.5	/experiments/knapen_AOT/AOT_stimuli/rescaled_final/0970_rv.mp4	0.0	234.20341515541077	1.0002808570861816
48	213.98219394683838	pulse	0	t		46.0	2.5	/experiments/knapen_AOT/AOT_stimuli/rescaled_final/0970_rv.mp4	0.0	234.38710403442383	
48	214.7987859249115	movie	1		242	46.0	2.5	/experiments/knapen_AOT/AOT_stimuli/rescaled_final/0970_rv.mp4	0.0	235.20369601249695	2.500415086746216
48	215.58237886428833	pulse	1	t		46.0	2.5	/experiments/knapen_AOT/AOT_stimuli/rescaled_final/0970_rv.mp4	0.0	235.98728895187378	
48	217.1836609840393	pulse	1	t		46.0	2.5	/experiments/knapen_AOT/AOT_stimuli/rescaled_final/0970_rv.mp4	0.0	237.58857107162476	
48	217.29920101165771	fix_post	2		12	46.0	2.5	/experiments/knapen_AOT/AOT_stimuli/rescaled_final/0970_rv.mp4	0.0	237.70411109924316	0.09989094734191895
49	217.39909195899963	fix_pre	0		120	47.0	2.5	blank	1.0	237.80400204658508	1.000133991241455
49	218.3992259502411	movie	1		299	47.0	2.5	blank	1.0	238.80413603782654	2.4920759201049805
49	218.7827389240265	pulse	1	t		47.0	2.5	blank	1.0	239.18764901161194	
49	220.38314485549927	pulse	1	t		47.0	2.5	blank	1.0	240.78805494308472	
49	220.89130187034607	fix_post	2		12	47.0	2.5	blank	1.0	241.29621195793152	0.10001802444458008
50	220.99131989479065	fix_pre	0		120	48.0	2.5	/experiments/knapen_AOT/AOT_stimuli/rescaled_final/1737_fw.mp4	0.0	241.3962299823761	1.0000650882720947
50	221.9834020137787	pulse	0	t		48.0	2.5	/experiments/knapen_AOT/AOT_stimuli/rescaled_final/1737_fw.mp4	0.0	242.38831210136414	
50	221.99138498306274	movie	1		243	48.0	2.5	/experiments/knapen_AOT/AOT_stimuli/rescaled_final/1737_fw.mp4	0.0	242.3962950706482	2.5087509155273438
50	223.58800792694092	pulse	1	t		48.0	2.5	/experiments/knapen_AOT/AOT_stimuli/rescaled_final/1737_fw.mp4	0.0	243.99291801452637	
50	224.5001358985901	fix_post	2		12	48.0	2.5	/experiments/knapen_AOT/AOT_stimuli/rescaled_final/1737_fw.mp4	0.0	244.90504598617554	0.10003399848937988
51	224.60016989707947	fix_pre	0		120	49.0	2.5	/experiments/knapen_AOT/AOT_stimuli/rescaled_final/2076_rv.mp4	0.0	245.00507998466492	1.0001730918884277
51	225.1836860179901	pulse	0	t		49.0	2.5	/experiments/knapen_AOT/AOT_stimuli/rescaled_final/2076_rv.mp4	0.0	245.58859610557556	
51	225.6003429889679	movie	1		244	49.0	2.5	/experiments/knapen_AOT/AOT_stimuli/rescaled_final/2076_rv.mp4	0.0	246.00525307655334	2.500303030014038
51	226.78414297103882	pulse	1	t		49.0	2.5	/experiments/knapen_AOT/AOT_stimuli/rescaled_final/2076_rv.mp4	0.0	247.18905305862427	
51	228.10064601898193	fix_post	2		12	49.0	2.5	/experiments/knapen_AOT/AOT_stimuli/rescaled_final/2076_rv.mp4	0.0	248.50555610656738	0.10001492500305176
52	228.20066094398499	fix_pre	0		120	50.0	2.5	/experiments/knapen_AOT/AOT_stimuli/rescaled_final/0752_rv.mp4	0.0	248.60557103157043	1.0002100467681885
52	228.38427686691284	pulse	0	t		50.0	2.5	/experiments/knapen_AOT/AOT_stimuli/rescaled_final/0752_rv.mp4	0.0	248.7891869544983	
52	229.20087099075317	movie	1		244	50.0	2.5	/experiments/knapen_AOT/AOT_stimuli/rescaled_final/0752_rv.mp4	0.0	249.60578107833862	2.5002970695495605
52	229.98454093933105	pulse	1	t		50.0	2.5	/experiments/knapen_AOT/AOT_stimuli/rescaled_final/0752_rv.mp4	0.0	250.3894510269165	
52	231.58475184440613	pulse	1	t		50.0	2.5	/experiments/knapen_AOT/AOT_stimuli/rescaled_final/0752_rv.mp4	0.0	251.98966193199158	
52	231.70116806030273	fix_post	2		12	50.0	2.5	/experiments/knapen_AOT/AOT_stimuli/rescaled_final/0752_rv.mp4	0.0	252.10607814788818	0.10007786750793457
53	231.80124592781067	fix_pre	0		120	51.0	2.5	/experiments/knapen_AOT/AOT_stimuli/rescaled_final/1670_fw.mp4	0.0	252.20615601539612	1.0001680850982666
53	232.80141401290894	movie	1		242	51.0	2.5	/experiments/knapen_AOT/AOT_stimuli/rescaled_final/1670_fw.mp4	0.0	253.20632410049438	2.492029905319214
53	233.18535685539246	pulse	1	t		51.0	2.5	/experiments/knapen_AOT/AOT_stimuli/rescaled_final/1670_fw.mp4	0.0	253.5902669429779	
53	234.7853238582611	pulse	1	t		51.0	2.5	/experiments/knapen_AOT/AOT_stimuli/rescaled_final/1670_fw.mp4	0.0	255.19023394584656	
53	235.29344391822815	fix_post	2		12	51.0	2.5	/experiments/knapen_AOT/AOT_stimuli/rescaled_final/1670_fw.mp4	0.0	255.6983540058136	0.09997415542602539
54	235.39341807365417	fix_pre	0		120	52.0	2.5	/experiments/knapen_AOT/AOT_stimuli/rescaled_final/0752_fw.mp4	0.0	255.79832816123962	1.0001139640808105
54	236.38552689552307	pulse	0	t		52.0	2.5	/experiments/knapen_AOT/AOT_stimuli/rescaled_final/0752_fw.mp4	0.0	256.7904369831085	
54	236.39353203773499	movie	1		245	52.0	2.5	/experiments/knapen_AOT/AOT_stimuli/rescaled_final/0752_fw.mp4	0.0	256.79844212532043	2.5087878704071045
54	237.98619890213013	pulse	1	t		52.0	2.5	/experiments/knapen_AOT/AOT_stimuli/rescaled_final/0752_fw.mp4	0.0	258.3911089897156	
54	238.9023199081421	fix_post	2		12	52.0	2.5	/experiments/knapen_AOT/AOT_stimuli/rescaled_final/0752_fw.mp4	0.0	259.30722999572754	0.09999704360961914
55	239.0023169517517	fix_pre	0		120	53.0	2.5	/experiments/knapen_AOT/AOT_stimuli/rescaled_final/0815_rv.mp4	0.0	259.40722703933716	1.0000989437103271
55	239.58593106269836	pulse	0	t		53.0	2.5	/experiments/knapen_AOT/AOT_stimuli/rescaled_final/0815_rv.mp4	0.0	259.9908411502838	
55	240.00241589546204	movie	1		242	53.0	2.5	/experiments/knapen_AOT/AOT_stimuli/rescaled_final/0815_rv.mp4	0.0	260.4073259830475	2.500499963760376
55	241.1862199306488	pulse	1	t		53.0	2.5	/experiments/knapen_AOT/AOT_stimuli/rescaled_final/0815_rv.mp4	0.0	261.59113001823425	
55	242.5029158592224	fix_post	2		12	53.0	2.5	/experiments/knapen_AOT/AOT_stimuli/rescaled_final/0815_rv.mp4	0.0	262.90782594680786	0.09991908073425293
56	242.60283493995667	fix_pre	0		120	54.0	2.5	/experiments/knapen_AOT/AOT_stimuli/rescaled_final/0116_rv.mp4	0.0	263.0077450275421	1.0001420974731445
56	242.7864089012146	pulse	0	t		54.0	2.5	/experiments/knapen_AOT/AOT_stimuli/rescaled_final/0116_rv.mp4	0.0	263.19131898880005	
56	243.6029770374298	movie	1		242	54.0	2.5	/experiments/knapen_AOT/AOT_stimuli/rescaled_final/0116_rv.mp4	0.0	264.00788712501526	2.5004959106445312
56	244.38667488098145	pulse	1	t		54.0	2.5	/experiments/knapen_AOT/AOT_stimuli/rescaled_final/0116_rv.mp4	0.0	264.7915849685669	
56	245.9874770641327	pulse	1	t		54.0	2.5	/experiments/knapen_AOT/AOT_stimuli/rescaled_final/0116_rv.mp4	0.0	266.39238715171814	
56	246.10347294807434	fix_post	2		12	54.0	2.5	/experiments/knapen_AOT/AOT_stimuli/rescaled_final/0116_rv.mp4	0.0	266.5083830356598	0.09987807273864746
57	246.203351020813	fix_pre	0		120	55.0	2.5	blank	1.0	266.60826110839844	1.000154972076416
57	247.2035059928894	movie	1		299	55.0	2.5	blank	1.0	267.60841608047485	2.4920270442962646
57	247.58709907531738	pulse	1	t		55.0	2.5	blank	1.0	267.99200916290283	
57	249.1873960494995	pulse	1	t		55.0	2.5	blank	1.0	269.59230613708496	
57	249.69553303718567	fix_post	2		12	55.0	2.5	blank	1.0	270.1004431247711	0.10003995895385742
58	249.79557299613953	fix_pre	0		120	56.0	2.5	/experiments/knapen_AOT/AOT_stimuli/rescaled_final/2124_rv.mp4	0.0	270.200483083725	1.0001349449157715
58	250.78769207000732	pulse	0	t		56.0	2.5	/experiments/knapen_AOT/AOT_stimuli/rescaled_final/2124_rv.mp4	0.0	271.1926021575928	
58	250.7957079410553	movie	1		244	56.0	2.5	/experiments/knapen_AOT/AOT_stimuli/rescaled_final/2124_rv.mp4	0.0	271.20061802864075	2.508726119995117
58	252.38848304748535	pulse	1	t		56.0	2.5	/experiments/knapen_AOT/AOT_stimuli/rescaled_final/2124_rv.mp4	0.0	272.7933931350708	
58	253.30443406105042	fix_post	2		12	56.0	2.5	/experiments/knapen_AOT/AOT_stimuli/rescaled_final/2124_rv.mp4	0.0	273.70934414863586	0.0999917984008789
59	253.4044258594513	fix_pre	0		120	57.0	2.5	/experiments/knapen_AOT/AOT_stimuli/rescaled_final/0667_fw.mp4	0.0	273.80933594703674	1.0001780986785889
59	253.98053097724915	pulse	0	t		57.0	2.5	/experiments/knapen_AOT/AOT_stimuli/rescaled_final/0667_fw.mp4	0.0	274.3854410648346	
59	254.40460395812988	movie	1		242	57.0	2.5	/experiments/knapen_AOT/AOT_stimuli/rescaled_final/0667_fw.mp4	0.0	274.80951404571533	2.5004758834838867
59	255.58120107650757	pulse	1	t		57.0	2.5	/experiments/knapen_AOT/AOT_stimuli/rescaled_final/0667_fw.mp4	0.0	275.986111164093	
59	256.90507984161377	fix_post	2		12	57.0	2.5	/experiments/knapen_AOT/AOT_stimuli/rescaled_final/0667_fw.mp4	0.0	277.3099899291992	0.09996819496154785
60	257.0050480365753	fix_pre	0		120	58.0	2.5	/experiments/knapen_AOT/AOT_stimuli/rescaled_final/0199_fw.mp4	0.0	277.40995812416077	1.0000579357147217
60	257.1809549331665	pulse	0	t		58.0	2.5	/experiments/knapen_AOT/AOT_stimuli/rescaled_final/0199_fw.mp4	0.0	277.58586502075195	
60	258.00510597229004	movie	1		244	58.0	2.5	/experiments/knapen_AOT/AOT_stimuli/rescaled_final/0199_fw.mp4	0.0	278.4100160598755	2.5003740787506104
60	258.7813379764557	pulse	1	t		58.0	2.5	/experiments/knapen_AOT/AOT_stimuli/rescaled_final/0199_fw.mp4	0.0	279.18624806404114	
60	260.38072299957275	pulse	1	t		58.0	2.5	/experiments/knapen_AOT/AOT_stimuli/rescaled_final/0199_fw.mp4	0.0	280.7856330871582	
60	260.50548005104065	fix_post	2		12	58.0	2.5	/experiments/knapen_AOT/AOT_stimuli/rescaled_final/0199_fw.mp4	0.0	280.9103901386261	0.10000801086425781
61	260.6054880619049	fix_pre	0		120	59.0	2.5	/experiments/knapen_AOT/AOT_stimuli/rescaled_final/1352_rv.mp4	0.0	281.01039814949036	1.0001938343048096
61	261.6056818962097	movie	1		241	59.0	2.5	/experiments/knapen_AOT/AOT_stimuli/rescaled_final/1352_rv.mp4	0.0	282.01059198379517	2.492211103439331
61	261.980859041214	pulse	1	t		59.0	2.5	/experiments/knapen_AOT/AOT_stimuli/rescaled_final/1352_rv.mp4	0.0	282.38576912879944	
61	263.5812120437622	pulse	1	t		59.0	2.5	/experiments/knapen_AOT/AOT_stimuli/rescaled_final/1352_rv.mp4	0.0	283.98612213134766	
61	264.09789299964905	fix_post	2		12	59.0	2.5	/experiments/knapen_AOT/AOT_stimuli/rescaled_final/1352_rv.mp4	0.0	284.5028030872345	0.0998530387878418
62	264.1977460384369	fix_pre	0		119	60.0	2.5	/experiments/knapen_AOT/AOT_stimuli/rescaled_final/1628_rv.mp4	0.0	284.60265612602234	0.9917678833007812
62	265.18137192726135	pulse	0	t		60.0	2.5	/experiments/knapen_AOT/AOT_stimuli/rescaled_final/1628_rv.mp4	0.0	285.5862820148468	
62	265.18951392173767	movie	1		243	60.0	2.5	/experiments/knapen_AOT/AOT_stimuli/rescaled_final/1628_rv.mp4	0.0	285.5944240093231	2.508697986602783
62	266.78283500671387	pulse	1	t		60.0	2.5	/experiments/knapen_AOT/AOT_stimuli/rescaled_final/1628_rv.mp4	0.0	287.1877450942993	
62	267.69821190834045	fix_post	2		12	60.0	2.5	/experiments/knapen_AOT/AOT_stimuli/rescaled_final/1628_rv.mp4	0.0	288.1031219959259	0.10011005401611328
63	267.79832196235657	fix_pre	0		118	61.0	2.5	blank	1.0	288.203232049942	1.000101089477539
63	268.38190603256226	pulse	0	t		61.0	2.5	blank	1.0	288.7868161201477	
63	268.7984230518341	movie	1		300	61.0	2.5	blank	1.0	289.20333313941956	2.500351905822754
63	269.9820818901062	pulse	1	t		61.0	2.5	blank	1.0	290.38699197769165	
63	271.29877495765686	fix_post	2		12	61.0	2.5	blank	1.0	291.7036850452423	0.10010004043579102
64	271.39887499809265	fix_pre	0		120	62.0	2.5	/experiments/knapen_AOT/AOT_stimuli/rescaled_final/0088_rv.mp4	0.0	291.8037850856781	1.0000889301300049
64	271.5823018550873	pulse	0	t		62.0	2.5	/experiments/knapen_AOT/AOT_stimuli/rescaled_final/0088_rv.mp4	0.0	291.98721194267273	
64	272.39896392822266	movie	1		243	62.0	2.5	/experiments/knapen_AOT/AOT_stimuli/rescaled_final/0088_rv.mp4	0.0	292.8038740158081	2.5004661083221436
64	273.18258595466614	pulse	1	t		62.0	2.5	/experiments/knapen_AOT/AOT_stimuli/rescaled_final/0088_rv.mp4	0.0	293.5874960422516	
64	274.783175945282	pulse	1	t		62.0	2.5	/experiments/knapen_AOT/AOT_stimuli/rescaled_final/0088_rv.mp4	0.0	295.18808603286743	
64	274.8994300365448	fix_post	2		12	62.0	2.5	/experiments/knapen_AOT/AOT_stimuli/rescaled_final/0088_rv.mp4	0.0	295.30434012413025	0.09996986389160156
65	274.9993999004364	fix_pre	0		119	63.0	2.5	/experiments/knapen_AOT/AOT_stimuli/rescaled_final/0588_rv.mp4	0.0	295.40430998802185	0.9917750358581543
65	275.99117493629456	movie	1		242	63.0	2.5	/experiments/knapen_AOT/AOT_stimuli/rescaled_final/0588_rv.mp4	0.0	296.39608502388	2.5004940032958984
65	276.38325905799866	pulse	1	t		63.0	2.5	/experiments/knapen_AOT/AOT_stimuli/rescaled_final/0588_rv.mp4	0.0	296.7881691455841	
65	277.9832880496979	pulse	1	t		63.0	2.5	/experiments/knapen_AOT/AOT_stimuli/rescaled_final/0588_rv.mp4	0.0	298.3881981372833	
65	278.49166893959045	fix_post	2		12	63.0	2.5	/experiments/knapen_AOT/AOT_stimuli/rescaled_final/0588_rv.mp4	0.0	298.8965790271759	0.09986090660095215
66	278.5915298461914	fix_pre	0		120	64.0	2.5	/experiments/knapen_AOT/AOT_stimuli/rescaled_final/0064_rv.mp4	0.0	298.99643993377686	1.0001342296600342
66	279.5835819244385	pulse	0	t		64.0	2.5	/experiments/knapen_AOT/AOT_stimuli/rescaled_final/0064_rv.mp4	0.0	299.9884920120239	
66	279.59166407585144	movie	1		245	64.0	2.5	/experiments/knapen_AOT/AOT_stimuli/rescaled_final/0064_rv.mp4	0.0	299.9965741634369	2.5088047981262207
66	281.1850280761719	pulse	1	t		64.0	2.5	/experiments/knapen_AOT/AOT_stimuli/rescaled_final/0064_rv.mp4	0.0	301.5899381637573	
66	282.10046887397766	fix_post	2		12	64.0	2.5	/experiments/knapen_AOT/AOT_stimuli/rescaled_final/0064_rv.mp4	0.0	302.5053789615631	0.09994912147521973
67	282.2004179954529	fix_pre	0		120	65.0	2.5	/experiments/knapen_AOT/AOT_stimuli/rescaled_final/1301_fw.mp4	0.0	302.60532808303833	1.0001418590545654
67	282.7841238975525	pulse	0	t		65.0	2.5	/experiments/knapen_AOT/AOT_stimuli/rescaled_final/1301_fw.mp4	0.0	303.18903398513794	
67	283.20055985450745	movie	1		244	65.0	2.5	/experiments/knapen_AOT/AOT_stimuli/rescaled_final/1301_fw.mp4	0.0	303.6054699420929	2.500385046005249
67	284.3843660354614	pulse	1	t		65.0	2.5	/experiments/knapen_AOT/AOT_stimuli/rescaled_final/1301_fw.mp4	0.0	304.7892761230469	
67	285.7009449005127	fix_post	2		12	65.0	2.5	/experiments/knapen_AOT/AOT_stimuli/rescaled_final/1301_fw.mp4	0.0	306.10585498809814	0.10002613067626953
68	285.80097103118896	fix_pre	0		120	66.0	2.5	/experiments/knapen_AOT/AOT_stimuli/rescaled_final/1611_rv.mp4	0.0	306.2058811187744	1.000195026397705
68	285.9844460487366	pulse	0	t		66.0	2.5	/experiments/knapen_AOT/AOT_stimuli/rescaled_final/1611_rv.mp4	0.0	306.389356136322	
68	286.80116605758667	movie	1		242	66.0	2.5	/experiments/knapen_AOT/AOT_stimuli/rescaled_final/1611_rv.mp4	0.0	307.2060761451721	2.5003039836883545
68	287.58469891548157	pulse	1	t		66.0	2.5	/experiments/knapen_AOT/AOT_stimuli/rescaled_final/1611_rv.mp4	0.0	307.989609003067	
68	289.1851990222931	pulse	1	t		66.0	2.5	/experiments/knapen_AOT/AOT_stimuli/rescaled_final/1611_rv.mp4	0.0	309.59010910987854	
68	289.301470041275	fix_post	2		12	66.0	2.5	/experiments/knapen_AOT/AOT_stimuli/rescaled_final/1611_rv.mp4	0.0	309.7063801288605	0.0999898910522461
69	289.40145993232727	fix_pre	0		120	67.0	2.5	/experiments/knapen_AOT/AOT_stimuli/rescaled_final/0655_rv.mp4	0.0	309.8063700199127	1.0001730918884277
69	290.4016330242157	movie	1		243	67.0	2.5	/experiments/knapen_AOT/AOT_stimuli/rescaled_final/0655_rv.mp4	0.0	310.80654311180115	2.49206805229187
69	290.78574800491333	pulse	1	t		67.0	2.5	/experiments/knapen_AOT/AOT_stimuli/rescaled_final/0655_rv.mp4	0.0	311.1906580924988	
69	292.38542795181274	pulse	1	t		67.0	2.5	/experiments/knapen_AOT/AOT_stimuli/rescaled_final/0655_rv.mp4	0.0	312.7903380393982	
69	292.89370107650757	fix_post	2		12	67.0	2.5	/experiments/knapen_AOT/AOT_stimuli/rescaled_final/0655_rv.mp4	0.0	313.298611164093	0.10002279281616211
70	292.99372386932373	fix_pre	0		120	68.0	2.5	/experiments/knapen_AOT/AOT_stimuli/rescaled_final/0475_fw.mp4	0.0	313.3986339569092	1.0001330375671387
70	293.9856469631195	pulse	0	t		68.0	2.5	/experiments/knapen_AOT/AOT_stimuli/rescaled_final/0475_fw.mp4	0.0	314.39055705070496	
70	293.99385690689087	movie	1		243	68.0	2.5	/experiments/knapen_AOT/AOT_stimuli/rescaled_final/0475_fw.mp4	0.0	314.3987669944763	2.5086910724639893
70	295.58720302581787	pulse	1	t		68.0	2.5	/experiments/knapen_AOT/AOT_stimuli/rescaled_final/0475_fw.mp4	0.0	315.9921131134033	
70	296.50254797935486	fix_post	2		12	68.0	2.5	/experiments/knapen_AOT/AOT_stimuli/rescaled_final/0475_fw.mp4	0.0	316.9074580669403	0.09997296333312988
71	296.602520942688	fix_pre	0		120	69.0	2.5	/experiments/knapen_AOT/AOT_stimuli/rescaled_final/1758_fw.mp4	0.0	317.00743103027344	1.0002100467681885
71	297.1862380504608	pulse	0	t		69.0	2.5	/experiments/knapen_AOT/AOT_stimuli/rescaled_final/1758_fw.mp4	0.0	317.59114813804626	
71	297.6027309894562	movie	1		243	69.0	2.5	/experiments/knapen_AOT/AOT_stimuli/rescaled_final/1758_fw.mp4	0.0	318.0076410770416	2.5004050731658936
71	298.7865650653839	pulse	1	t		69.0	2.5	/experiments/knapen_AOT/AOT_stimuli/rescaled_final/1758_fw.mp4	0.0	319.19147515296936	
71	300.10313606262207	fix_post	2		12	69.0	2.5	/experiments/knapen_AOT/AOT_stimuli/rescaled_final/1758_fw.mp4	0.0	320.5080461502075	0.0999608039855957
72	300.20309686660767	fix_pre	0		120	70.0	2.5	blank	1.0	320.6080069541931	1.0001771450042725
72	300.38663506507874	pulse	0	t		70.0	2.5	blank	1.0	320.7915451526642	
72	301.20327401161194	movie	1		300	70.0	2.5	blank	1.0	321.6081840991974	2.5003349781036377
72	301.98688292503357	pulse	1	t		70.0	2.5	blank	1.0	322.391793012619	
72	303.58721899986267	pulse	1	t		70.0	2.5	blank	1.0	323.9921290874481	
72	303.7036089897156	fix_post	2		12	70.0	2.5	blank	1.0	324.108519077301	0.10004901885986328
73	303.80365800857544	fix_pre	0		119	71.0	2.5	/experiments/knapen_AOT/AOT_stimuli/rescaled_final/0686_rv.mp4	0.0	324.2085680961609	0.9918038845062256
73	304.79546189308167	movie	1		243	71.0	2.5	/experiments/knapen_AOT/AOT_stimuli/rescaled_final/0686_rv.mp4	0.0	325.2003719806671	2.50051212310791
73	305.187481880188	pulse	1	t		71.0	2.5	/experiments/knapen_AOT/AOT_stimuli/rescaled_final/0686_rv.mp4	0.0	325.59239196777344	
73	306.7876069545746	pulse	1	t		71.0	2.5	/experiments/knapen_AOT/AOT_stimuli/rescaled_final/0686_rv.mp4	0.0	327.19251704216003	
73	307.2959740161896	fix_post	2		12	71.0	2.5	/experiments/knapen_AOT/AOT_stimuli/rescaled_final/0686_rv.mp4	0.0	327.700884103775	0.09989190101623535
74	307.3958659172058	fix_pre	0		120	72.0	2.5	/experiments/knapen_AOT/AOT_stimuli/rescaled_final/1783_fw.mp4	0.0	327.80077600479126	1.0001170635223389
74	308.3879020214081	pulse	0	t		72.0	2.5	/experiments/knapen_AOT/AOT_stimuli/rescaled_final/1783_fw.mp4	0.0	328.79281210899353	
74	308.39598298072815	movie	1		243	72.0	2.5	/experiments/knapen_AOT/AOT_stimuli/rescaled_final/1783_fw.mp4	0.0	328.8008930683136	2.5087130069732666
74	309.988648891449	pulse	1	t		72.0	2.5	/experiments/knapen_AOT/AOT_stimuli/rescaled_final/1783_fw.mp4	0.0	330.3935589790344	
74	310.9046959877014	fix_post	2		12	72.0	2.5	/experiments/knapen_AOT/AOT_stimuli/rescaled_final/1783_fw.mp4	0.0	331.30960607528687	0.10010385513305664
75	311.0047998428345	fix_pre	0		120	73.0	2.5	/experiments/knapen_AOT/AOT_stimuli/rescaled_final/0864_fw.mp4	0.0	331.4097099304199	1.0000851154327393
75	311.58839106559753	pulse	0	t		73.0	2.5	/experiments/knapen_AOT/AOT_stimuli/rescaled_final/0864_fw.mp4	0.0	331.993301153183	
75	312.0048849582672	movie	1		243	73.0	2.5	/experiments/knapen_AOT/AOT_stimuli/rescaled_final/0864_fw.mp4	0.0	332.40979504585266	2.5005500316619873
75	313.1816990375519	pulse	1	t		73.0	2.5	/experiments/knapen_AOT/AOT_stimuli/rescaled_final/0864_fw.mp4	0.0	333.58660912513733	
75	314.5054349899292	fix_post	2		12	73.0	2.5	/experiments/knapen_AOT/AOT_stimuli/rescaled_final/0864_fw.mp4	0.0	334.91034507751465	0.09981799125671387
76	314.6052529811859	fix_pre	0		120	74.0	2.5	/experiments/knapen_AOT/AOT_stimuli/rescaled_final/0047_rv.mp4	0.0	335.01016306877136	1.0001649856567383
76	314.7813320159912	pulse	0	t		74.0	2.5	/experiments/knapen_AOT/AOT_stimuli/rescaled_final/0047_rv.mp4	0.0	335.18624210357666	
76	315.60541796684265	movie	1		242	74.0	2.5	/experiments/knapen_AOT/AOT_stimuli/rescaled_final/0047_rv.mp4	0.0	336.0103280544281	2.5003960132598877
76	316.38162899017334	pulse	1	t		74.0	2.5	/experiments/knapen_AOT/AOT_stimuli/rescaled_final/0047_rv.mp4	0.0	336.7865390777588	
76	317.9897699356079	pulse	1	t		74.0	2.5	/experiments/knapen_AOT/AOT_stimuli/rescaled_final/0047_rv.mp4	0.0	338.39468002319336	
76	318.10581398010254	fix_post	2		12	74.0	2.5	/experiments/knapen_AOT/AOT_stimuli/rescaled_final/0047_rv.mp4	0.0	338.510724067688	0.09998488426208496
77	318.2057988643646	fix_pre	0		120	75.0	2.5	blank	1.0	338.6107089519501	1.0001420974731445
77	319.20594096183777	movie	1		299	75.0	2.5	blank	1.0	339.6108510494232	2.4920899868011475
77	319.58199405670166	pulse	1	t		75.0	2.5	blank	1.0	339.9869041442871	
77	321.18152689933777	pulse	1	t		75.0	2.5	blank	1.0	341.5864369869232	
77	321.6980309486389	fix_post	2		12	75.0	2.5	blank	1.0	342.10294103622437	0.0999441146850586
78	321.797975063324	fix_pre	0		119	76.0	2.5	/experiments/knapen_AOT/AOT_stimuli/rescaled_final/1165_fw.mp4	0.0	342.2028851509094	0.9919228553771973
78	322.7815818786621	pulse	0	t		76.0	2.5	/experiments/knapen_AOT/AOT_stimuli/rescaled_final/1165_fw.mp4	0.0	343.18649196624756	
78	322.7898979187012	movie	1		244	76.0	2.5	/experiments/knapen_AOT/AOT_stimuli/rescaled_final/1165_fw.mp4	0.0	343.1948080062866	2.5085830688476562
78	324.3824610710144	pulse	1	t		76.0	2.5	/experiments/knapen_AOT/AOT_stimuli/rescaled_final/1165_fw.mp4	0.0	344.78737115859985	
78	325.2984809875488	fix_post	2		12	76.0	2.5	/experiments/knapen_AOT/AOT_stimuli/rescaled_final/1165_fw.mp4	0.0	345.7033910751343	0.1000058650970459
79	325.3984868526459	fix_pre	0		120	77.0	2.5	/experiments/knapen_AOT/AOT_stimuli/rescaled_final/0878_rv.mp4	0.0	345.8033969402313	1.0001521110534668
79	325.982195854187	pulse	0	t		77.0	2.5	/experiments/knapen_AOT/AOT_stimuli/rescaled_final/0878_rv.mp4	0.0	346.38710594177246	
79	326.39863896369934	movie	1		243	77.0	2.5	/experiments/knapen_AOT/AOT_stimuli/rescaled_final/0878_rv.mp4	0.0	346.8035490512848	2.5005218982696533
79	327.5825479030609	pulse	1	t		77.0	2.5	/experiments/knapen_AOT/AOT_stimuli/rescaled_final/0878_rv.mp4	0.0	347.98745799064636	
79	328.899160861969	fix_post	2		12	77.0	2.5	/experiments/knapen_AOT/AOT_stimuli/rescaled_final/0878_rv.mp4	0.0	349.30407094955444	0.09995317459106445
80	328.99911403656006	fix_pre	0		120	78.0	2.5	/experiments/knapen_AOT/AOT_stimuli/rescaled_final/1696_fw.mp4	0.0	349.4040241241455	1.0001089572906494
80	329.1826009750366	pulse	0	t		78.0	2.5	/experiments/knapen_AOT/AOT_stimuli/rescaled_final/1696_fw.mp4	0.0	349.58751106262207	
80	329.9992229938507	movie	1		237	78.0	2.5	/experiments/knapen_AOT/AOT_stimuli/rescaled_final/1696_fw.mp4	0.0	350.40413308143616	2.500393867492676
80	330.7828018665314	pulse	1	t		78.0	2.5	/experiments/knapen_AOT/AOT_stimuli/rescaled_final/1696_fw.mp4	0.0	351.1877119541168	
80	332.3828718662262	pulse	1	t		78.0	2.5	/experiments/knapen_AOT/AOT_stimuli/rescaled_final/1696_fw.mp4	0.0	352.78778195381165	
80	332.4996168613434	fix_post	2		12	78.0	2.5	/experiments/knapen_AOT/AOT_stimuli/rescaled_final/1696_fw.mp4	0.0	352.90452694892883	0.09994316101074219
81	332.5995600223541	fix_pre	0		119	79.0	2.5	/experiments/knapen_AOT/AOT_stimuli/rescaled_final/1738_fw.mp4	0.0	353.0044701099396	0.9918370246887207
81	333.59139704704285	movie	1		242	79.0	2.5	/experiments/knapen_AOT/AOT_stimuli/rescaled_final/1738_fw.mp4	0.0	353.9963071346283	2.5004498958587646
81	333.9834518432617	pulse	1	t		79.0	2.5	/experiments/knapen_AOT/AOT_stimuli/rescaled_final/1738_fw.mp4	0.0	354.38836193084717	
81	335.58359003067017	pulse	1	t		79.0	2.5	/experiments/knapen_AOT/AOT_stimuli/rescaled_final/1738_fw.mp4	0.0	355.9885001182556	
81	336.0918469429016	fix_post	2		12	79.0	2.5	/experiments/knapen_AOT/AOT_stimuli/rescaled_final/1738_fw.mp4	0.0	356.49675703048706	0.10006499290466309
82	336.1919119358063	fix_pre	0		120	80.0	2.5	/experiments/knapen_AOT/AOT_stimuli/rescaled_final/0993_fw.mp4	0.0	356.5968220233917	1.0000600814819336
82	337.18377590179443	pulse	0	t		80.0	2.5	/experiments/knapen_AOT/AOT_stimuli/rescaled_final/0993_fw.mp4	0.0	357.5886859893799	
82	337.1919720172882	movie	1		243	80.0	2.5	/experiments/knapen_AOT/AOT_stimuli/rescaled_final/0993_fw.mp4	0.0	357.59688210487366	2.508683919906616
82	338.78442788124084	pulse	1	t		80.0	2.5	/experiments/knapen_AOT/AOT_stimuli/rescaled_final/0993_fw.mp4	0.0	359.1893379688263	
82	339.7006559371948	fix_post	2		12	80.0	2.5	/experiments/knapen_AOT/AOT_stimuli/rescaled_final/0993_fw.mp4	0.0	360.1055660247803	0.10003995895385742
83	339.8006958961487	fix_pre	0		120	81.0	2.5	/experiments/knapen_AOT/AOT_stimuli/rescaled_final/0573_rv.mp4	0.0	360.20560598373413	1.0001111030578613
83	340.3843369483948	pulse	0	t		81.0	2.5	/experiments/knapen_AOT/AOT_stimuli/rescaled_final/0573_rv.mp4	0.0	360.7892470359802	
83	340.80080699920654	movie	1		244	81.0	2.5	/experiments/knapen_AOT/AOT_stimuli/rescaled_final/0573_rv.mp4	0.0	361.205717086792	2.500427007675171
83	341.98470997810364	pulse	1	t		81.0	2.5	/experiments/knapen_AOT/AOT_stimuli/rescaled_final/0573_rv.mp4	0.0	362.3896200656891	
83	343.3012340068817	fix_post	2		12	81.0	2.5	/experiments/knapen_AOT/AOT_stimuli/rescaled_final/0573_rv.mp4	0.0	363.70614409446716	0.09999299049377441
84	343.4012269973755	fix_pre	0		120	82.0	2.5	/experiments/knapen_AOT/AOT_stimuli/rescaled_final/0218_fw.mp4	0.0	363.80613708496094	1.0001769065856934
84	343.5847079753876	pulse	0	t		82.0	2.5	/experiments/knapen_AOT/AOT_stimuli/rescaled_final/0218_fw.mp4	0.0	363.989618062973	
84	344.4014039039612	movie	1		243	82.0	2.5	/experiments/knapen_AOT/AOT_stimuli/rescaled_final/0218_fw.mp4	0.0	364.80631399154663	2.500333070755005
84	345.1849699020386	pulse	1	t		82.0	2.5	/experiments/knapen_AOT/AOT_stimuli/rescaled_final/0218_fw.mp4	0.0	365.589879989624	
84	346.7851040363312	pulse	1	t		82.0	2.5	/experiments/knapen_AOT/AOT_stimuli/rescaled_final/0218_fw.mp4	0.0	367.1900141239166	
84	346.9017369747162	fix_post	2		12	82.0	2.5	/experiments/knapen_AOT/AOT_stimuli/rescaled_final/0218_fw.mp4	0.0	367.30664706230164	0.10000896453857422
85	347.00174593925476	fix_pre	0		120	83.0	2.5	blank	1.0	367.4066560268402	1.0001609325408936
85	348.00190687179565	movie	1		299	83.0	2.5	blank	1.0	368.4068169593811	2.49206805229187
85	348.3855390548706	pulse	1	t		83.0	2.5	blank	1.0	368.79044914245605	
85	349.9856140613556	pulse	1	t		83.0	2.5	blank	1.0	370.39052414894104	
85	350.4939749240875	fix_post	2		12	83.0	2.5	blank	1.0	370.898885011673	0.09995198249816895
87	350.5939269065857	stim	0		1716					370.99883699417114	14.302181005477905
87	351.58605694770813	pulse	0	t						371.9909670352936	
87	353.1861209869385	pulse	0	t						373.5910310745239	
87	354.78646302223206	pulse	0	t						375.1913731098175	
87	356.3866469860077	pulse	0	t						376.79155707359314	
87	357.98697996139526	pulse	0	t						378.3918900489807	
87	359.5871410369873	pulse	0	t						379.99205112457275	
87	361.18745589256287	pulse	0	t						381.5923659801483	
87	362.7875769138336	pulse	0	t						383.19248700141907	
87	364.3877959251404	pulse	0	t						384.79270601272583	
