trial_nr	onset	event_type	phase	response	nr_frames	movie_index	movie_duration	movie_file	blank	onset_abs	duration
0	0.1750659942626953	stim	0		138					140.87892079353333	1.1502840518951416
0	1.31703782081604	response	0	space						142.02089262008667	
1	1.325350046157837	stim	0		4979					142.02920484542847	41.49766278266907
1	42.814826011657715	pulse	0	t						183.51868081092834	
1	42.823012828826904	stim	1		1715					183.52686762809753	14.302095174789429
1	44.40682291984558	pulse	1	t						185.1106777191162	
1	46.00689387321472	pulse	1	t						186.71074867248535	
1	47.60716390609741	pulse	1	t						188.31101870536804	
1	49.2074339389801	pulse	1	t						189.91128873825073	
1	50.80774784088135	pulse	1	t						191.51160264015198	
1	52.40786695480347	pulse	1	t						193.1117217540741	
1	54.00821805000305	pulse	1	t						194.71207284927368	
1	55.60841703414917	pulse	1	t						196.3122718334198	
2	57.12510800361633	fix_pre	0		11	0.0	2.5	/experiments/knapen_AOT/AOT_stimuli/rescaled_final/0185_fw.mp4	0.0	197.82896280288696	0.10019183158874512
2	57.20882201194763	pulse	0	t		0.0	2.5	/experiments/knapen_AOT/AOT_stimuli/rescaled_final/0185_fw.mp4	0.0	197.91267681121826	
2	57.22529983520508	movie	1		243	0.0	2.5	/experiments/knapen_AOT/AOT_stimuli/rescaled_final/0185_fw.mp4	0.0	197.9291546344757	2.5002942085266113
2	58.80998396873474	pulse	1	t		0.0	2.5	/experiments/knapen_AOT/AOT_stimuli/rescaled_final/0185_fw.mp4	0.0	199.51383876800537	
2	59.72559404373169	fix_post	2		12	0.0	2.5	/experiments/knapen_AOT/AOT_stimuli/rescaled_final/0185_fw.mp4	0.0	200.42944884300232	0.0999147891998291
3	59.82550883293152	fix_pre	0		120	1.0	2.5	/experiments/knapen_AOT/AOT_stimuli/rescaled_final/0113_rv.mp4	0.0	200.52936363220215	1.0003361701965332
3	60.409318923950195	pulse	0	t		1.0	2.5	/experiments/knapen_AOT/AOT_stimuli/rescaled_final/0113_rv.mp4	0.0	201.11317372322083	
3	60.82584500312805	movie	1		245	1.0	2.5	/experiments/knapen_AOT/AOT_stimuli/rescaled_final/0113_rv.mp4	0.0	201.52969980239868	2.5002050399780273
3	62.00954985618591	pulse	1	t		1.0	2.5	/experiments/knapen_AOT/AOT_stimuli/rescaled_final/0113_rv.mp4	0.0	202.71340465545654	
3	63.32605004310608	fix_post	2		12	1.0	2.5	/experiments/knapen_AOT/AOT_stimuli/rescaled_final/0113_rv.mp4	0.0	204.0299048423767	0.10008788108825684
4	63.426137924194336	fix_pre	0		120	2.0	2.5	/experiments/knapen_AOT/AOT_stimuli/rescaled_final/0212_rv.mp4	0.0	204.12999272346497	1.0002150535583496
4	63.60960602760315	pulse	0	t		2.0	2.5	/experiments/knapen_AOT/AOT_stimuli/rescaled_final/0212_rv.mp4	0.0	204.31346082687378	
4	64.42635297775269	movie	1		244	2.0	2.5	/experiments/knapen_AOT/AOT_stimuli/rescaled_final/0212_rv.mp4	0.0	205.13020777702332	2.5004050731658936
4	65.20993900299072	pulse	1	t		2.0	2.5	/experiments/knapen_AOT/AOT_stimuli/rescaled_final/0212_rv.mp4	0.0	205.91379380226135	
4	66.81031084060669	pulse	1	t		2.0	2.5	/experiments/knapen_AOT/AOT_stimuli/rescaled_final/0212_rv.mp4	0.0	207.51416563987732	
4	66.92675805091858	fix_post	2		12	2.0	2.5	/experiments/knapen_AOT/AOT_stimuli/rescaled_final/0212_rv.mp4	0.0	207.6306128501892	0.09982585906982422
5	67.0265839099884	fix_pre	0		120	3.0	2.5	/experiments/knapen_AOT/AOT_stimuli/rescaled_final/0028_rv.mp4	0.0	207.73043870925903	1.000248908996582
5	68.02683281898499	movie	1		242	3.0	2.5	/experiments/knapen_AOT/AOT_stimuli/rescaled_final/0028_rv.mp4	0.0	208.73068761825562	2.492063045501709
5	68.41076397895813	pulse	1	t		3.0	2.5	/experiments/knapen_AOT/AOT_stimuli/rescaled_final/0028_rv.mp4	0.0	209.11461877822876	
5	70.01056504249573	pulse	1	t		3.0	2.5	/experiments/knapen_AOT/AOT_stimuli/rescaled_final/0028_rv.mp4	0.0	210.71441984176636	
5	70.5188958644867	fix_post	2		12	3.0	2.5	/experiments/knapen_AOT/AOT_stimuli/rescaled_final/0028_rv.mp4	0.0	211.22275066375732	0.09990310668945312
6	70.61879897117615	fix_pre	0		120	4.0	2.5	/experiments/knapen_AOT/AOT_stimuli/rescaled_final/0511_fw.mp4	0.0	211.32265377044678	1.0002880096435547
6	71.61092400550842	pulse	0	t		4.0	2.5	/experiments/knapen_AOT/AOT_stimuli/rescaled_final/0511_fw.mp4	0.0	212.31477880477905	
6	71.6190869808197	movie	1		246	4.0	2.5	/experiments/knapen_AOT/AOT_stimuli/rescaled_final/0511_fw.mp4	0.0	212.32294178009033	2.508676052093506
6	73.21155405044556	pulse	1	t		4.0	2.5	/experiments/knapen_AOT/AOT_stimuli/rescaled_final/0511_fw.mp4	0.0	213.9154088497162	
6	74.12776303291321	fix_post	2		12	4.0	2.5	/experiments/knapen_AOT/AOT_stimuli/rescaled_final/0511_fw.mp4	0.0	214.83161783218384	0.09989500045776367
7	74.22765803337097	fix_pre	0		120	5.0	2.5	blank	1.0	214.9315128326416	1.0002498626708984
7	74.81146597862244	pulse	0	t		5.0	2.5	blank	1.0	215.51532077789307	
7	75.22790789604187	movie	1		300	5.0	2.5	blank	1.0	215.9317626953125	2.500359058380127
7	76.41167402267456	pulse	1	t		5.0	2.5	blank	1.0	217.1155288219452	
7	77.728266954422	fix_post	2		12	5.0	2.5	blank	1.0	218.43212175369263	0.10014200210571289
8	77.82840895652771	fix_pre	0		120	6.0	2.5	/experiments/knapen_AOT/AOT_stimuli/rescaled_final/2074_rv.mp4	0.0	218.53226375579834	1.0001208782196045
8	78.01174998283386	pulse	0	t		6.0	2.5	/experiments/knapen_AOT/AOT_stimuli/rescaled_final/2074_rv.mp4	0.0	218.7156047821045	
8	78.82852983474731	movie	1		244	6.0	2.5	/experiments/knapen_AOT/AOT_stimuli/rescaled_final/2074_rv.mp4	0.0	219.53238463401794	2.500293016433716
8	79.61204504966736	pulse	1	t		6.0	2.5	/experiments/knapen_AOT/AOT_stimuli/rescaled_final/2074_rv.mp4	0.0	220.315899848938	
8	81.21222591400146	pulse	1	t		6.0	2.5	/experiments/knapen_AOT/AOT_stimuli/rescaled_final/2074_rv.mp4	0.0	221.9160807132721	
8	81.32882285118103	fix_post	2		12	6.0	2.5	/experiments/knapen_AOT/AOT_stimuli/rescaled_final/2074_rv.mp4	0.0	222.03267765045166	0.0999000072479248
9	81.42872285842896	fix_pre	0		120	7.0	2.5	/experiments/knapen_AOT/AOT_stimuli/rescaled_final/0939_rv.mp4	0.0	222.13257765769958	1.0003340244293213
9	82.42905688285828	movie	1		243	7.0	2.5	/experiments/knapen_AOT/AOT_stimuli/rescaled_final/0939_rv.mp4	0.0	223.1329116821289	2.492048978805542
9	82.81715798377991	pulse	1	t		7.0	2.5	/experiments/knapen_AOT/AOT_stimuli/rescaled_final/0939_rv.mp4	0.0	223.52101278305054	
9	84.41268801689148	pulse	1	t		7.0	2.5	/experiments/knapen_AOT/AOT_stimuli/rescaled_final/0939_rv.mp4	0.0	225.1165428161621	
9	84.92110586166382	fix_post	2		12	7.0	2.5	/experiments/knapen_AOT/AOT_stimuli/rescaled_final/0939_rv.mp4	0.0	225.62496066093445	0.09985899925231934
10	85.02096486091614	fix_pre	0		120	8.0	2.5	/experiments/knapen_AOT/AOT_stimuli/rescaled_final/0698_fw.mp4	0.0	225.72481966018677	1.0003609657287598
10	86.01299786567688	pulse	0	t		8.0	2.5	/experiments/knapen_AOT/AOT_stimuli/rescaled_final/0698_fw.mp4	0.0	226.7168526649475	
10	86.0213258266449	movie	1		245	8.0	2.5	/experiments/knapen_AOT/AOT_stimuli/rescaled_final/0698_fw.mp4	0.0	226.72518062591553	2.508554220199585
10	87.61694598197937	pulse	1	t		8.0	2.5	/experiments/knapen_AOT/AOT_stimuli/rescaled_final/0698_fw.mp4	0.0	228.32080078125	
10	88.52988004684448	fix_post	2		12	8.0	2.5	/experiments/knapen_AOT/AOT_stimuli/rescaled_final/0698_fw.mp4	0.0	229.2337348461151	0.0999448299407959
11	88.62982487678528	fix_pre	0		120	9.0	2.5	/experiments/knapen_AOT/AOT_stimuli/rescaled_final/2010_fw.mp4	0.0	229.3336796760559	1.0003440380096436
11	89.21357297897339	pulse	0	t		9.0	2.5	/experiments/knapen_AOT/AOT_stimuli/rescaled_final/2010_fw.mp4	0.0	229.91742777824402	
11	89.63016891479492	movie	1		245	9.0	2.5	/experiments/knapen_AOT/AOT_stimuli/rescaled_final/2010_fw.mp4	0.0	230.33402371406555	2.5004191398620605
11	90.80613589286804	pulse	1	t		9.0	2.5	/experiments/knapen_AOT/AOT_stimuli/rescaled_final/2010_fw.mp4	0.0	231.50999069213867	
11	92.13058805465698	fix_post	2		12	9.0	2.5	/experiments/knapen_AOT/AOT_stimuli/rescaled_final/2010_fw.mp4	0.0	232.8344428539276	0.1024169921875
12	92.23300504684448	fix_pre	0		118	10.0	2.5	/experiments/knapen_AOT/AOT_stimuli/rescaled_final/0854_rv.mp4	0.0	232.9368598461151	0.9976840019226074
12	92.4063470363617	pulse	0	t		10.0	2.5	/experiments/knapen_AOT/AOT_stimuli/rescaled_final/0854_rv.mp4	0.0	233.11020183563232	
12	93.23068904876709	movie	1		243	10.0	2.5	/experiments/knapen_AOT/AOT_stimuli/rescaled_final/0854_rv.mp4	0.0	233.93454384803772	2.500309944152832
12	94.00593185424805	pulse	1	t		10.0	2.5	/experiments/knapen_AOT/AOT_stimuli/rescaled_final/0854_rv.mp4	0.0	234.70978665351868	
12	95.60596895217896	pulse	1	t		10.0	2.5	/experiments/knapen_AOT/AOT_stimuli/rescaled_final/0854_rv.mp4	0.0	236.30982375144958	
12	95.73099899291992	fix_post	2		12	10.0	2.5	/experiments/knapen_AOT/AOT_stimuli/rescaled_final/0854_rv.mp4	0.0	236.43485379219055	0.09989190101623535
13	95.83089089393616	fix_pre	0		120	11.0	2.5	/experiments/knapen_AOT/AOT_stimuli/rescaled_final/1462_fw.mp4	0.0	236.5347456932068	1.0003230571746826
13	96.83121395111084	movie	1		247	11.0	2.5	/experiments/knapen_AOT/AOT_stimuli/rescaled_final/1462_fw.mp4	0.0	237.53506875038147	2.4918549060821533
13	97.20641589164734	pulse	1	t		11.0	2.5	/experiments/knapen_AOT/AOT_stimuli/rescaled_final/1462_fw.mp4	0.0	237.91027069091797	
13	98.80670094490051	pulse	1	t		11.0	2.5	/experiments/knapen_AOT/AOT_stimuli/rescaled_final/1462_fw.mp4	0.0	239.51055574417114	
13	99.323068857193	fix_post	2		12	11.0	2.5	/experiments/knapen_AOT/AOT_stimuli/rescaled_final/1462_fw.mp4	0.0	240.02692365646362	0.10005903244018555
14	99.42312788963318	fix_pre	0		119	12.0	2.5	blank	1.0	240.1269826889038	0.9918701648712158
14	100.40690994262695	pulse	0	t		12.0	2.5	blank	1.0	241.11076474189758	
14	100.4149980545044	movie	1		301	12.0	2.5	blank	1.0	241.11885285377502	2.508635997772217
14	102.0069420337677	pulse	1	t		12.0	2.5	blank	1.0	242.71079683303833	
14	102.92363405227661	fix_post	2		12	12.0	2.5	blank	1.0	243.62748885154724	0.10015678405761719
15	103.02379083633423	fix_pre	0		120	13.0	2.5	/experiments/knapen_AOT/AOT_stimuli/rescaled_final/1346_fw.mp4	0.0	243.72764563560486	1.0000851154327393
15	103.60741186141968	pulse	0	t		13.0	2.5	/experiments/knapen_AOT/AOT_stimuli/rescaled_final/1346_fw.mp4	0.0	244.3112666606903	
15	104.02387595176697	movie	1		243	13.0	2.5	/experiments/knapen_AOT/AOT_stimuli/rescaled_final/1346_fw.mp4	0.0	244.7277307510376	2.5004920959472656
15	105.20769095420837	pulse	1	t		13.0	2.5	/experiments/knapen_AOT/AOT_stimuli/rescaled_final/1346_fw.mp4	0.0	245.911545753479	
15	106.52436804771423	fix_post	2		12	13.0	2.5	/experiments/knapen_AOT/AOT_stimuli/rescaled_final/1346_fw.mp4	0.0	247.22822284698486	0.09980297088623047
16	106.62417101860046	fix_pre	0		120	14.0	2.5	/experiments/knapen_AOT/AOT_stimuli/rescaled_final/0092_fw.mp4	0.0	247.3280258178711	1.0002739429473877
16	106.80783987045288	pulse	0	t		14.0	2.5	/experiments/knapen_AOT/AOT_stimuli/rescaled_final/0092_fw.mp4	0.0	247.5116946697235	
16	107.62444496154785	movie	1		244	14.0	2.5	/experiments/knapen_AOT/AOT_stimuli/rescaled_final/0092_fw.mp4	0.0	248.32829976081848	2.5003490447998047
16	108.40802788734436	pulse	1	t		14.0	2.5	/experiments/knapen_AOT/AOT_stimuli/rescaled_final/0092_fw.mp4	0.0	249.111882686615	
16	110.00827598571777	pulse	1	t		14.0	2.5	/experiments/knapen_AOT/AOT_stimuli/rescaled_final/0092_fw.mp4	0.0	250.7121307849884	
16	110.12479400634766	fix_post	2		12	14.0	2.5	/experiments/knapen_AOT/AOT_stimuli/rescaled_final/0092_fw.mp4	0.0	250.8286488056183	0.09990096092224121
17	110.2246949672699	fix_pre	0		120	15.0	2.5	/experiments/knapen_AOT/AOT_stimuli/rescaled_final/0265_fw.mp4	0.0	250.92854976654053	1.0002808570861816
17	111.22497582435608	movie	1		244	15.0	2.5	/experiments/knapen_AOT/AOT_stimuli/rescaled_final/0265_fw.mp4	0.0	251.9288306236267	2.4920032024383545
17	111.60889983177185	pulse	1	t		15.0	2.5	/experiments/knapen_AOT/AOT_stimuli/rescaled_final/0265_fw.mp4	0.0	252.31275463104248	
17	113.20867204666138	pulse	1	t		15.0	2.5	/experiments/knapen_AOT/AOT_stimuli/rescaled_final/0265_fw.mp4	0.0	253.912526845932	
17	113.71697902679443	fix_post	2		12	15.0	2.5	/experiments/knapen_AOT/AOT_stimuli/rescaled_final/0265_fw.mp4	0.0	254.42083382606506	0.09991884231567383
18	113.81689786911011	fix_pre	0		120	16.0	2.5	/experiments/knapen_AOT/AOT_stimuli/rescaled_final/1413_fw.mp4	0.0	254.52075266838074	1.0003230571746826
18	114.8089439868927	pulse	0	t		16.0	2.5	/experiments/knapen_AOT/AOT_stimuli/rescaled_final/1413_fw.mp4	0.0	255.51279878616333	
18	114.81722092628479	movie	1		247	16.0	2.5	/experiments/knapen_AOT/AOT_stimuli/rescaled_final/1413_fw.mp4	0.0	255.52107572555542	2.508549928665161
18	116.410640001297	pulse	1	t		16.0	2.5	/experiments/knapen_AOT/AOT_stimuli/rescaled_final/1413_fw.mp4	0.0	257.1144948005676	
18	117.32577085494995	fix_post	2		12	16.0	2.5	/experiments/knapen_AOT/AOT_stimuli/rescaled_final/1413_fw.mp4	0.0	258.0296256542206	0.09999203681945801
19	117.42576289176941	fix_pre	0		120	17.0	2.5	/experiments/knapen_AOT/AOT_stimuli/rescaled_final/0777_rv.mp4	0.0	258.12961769104004	1.0002880096435547
19	118.00955295562744	pulse	0	t		17.0	2.5	/experiments/knapen_AOT/AOT_stimuli/rescaled_final/0777_rv.mp4	0.0	258.71340775489807	
19	118.42605090141296	movie	1		243	17.0	2.5	/experiments/knapen_AOT/AOT_stimuli/rescaled_final/0777_rv.mp4	0.0	259.1299057006836	2.5004749298095703
19	119.60984492301941	pulse	1	t		17.0	2.5	/experiments/knapen_AOT/AOT_stimuli/rescaled_final/0777_rv.mp4	0.0	260.31369972229004	
19	120.92652583122253	fix_post	2		12	17.0	2.5	/experiments/knapen_AOT/AOT_stimuli/rescaled_final/0777_rv.mp4	0.0	261.63038063049316	0.0997772216796875
20	121.02630305290222	fix_pre	0		120	18.0	2.5	/experiments/knapen_AOT/AOT_stimuli/rescaled_final/1864_fw.mp4	0.0	261.73015785217285	1.0004208087921143
20	121.2099380493164	pulse	0	t		18.0	2.5	/experiments/knapen_AOT/AOT_stimuli/rescaled_final/1864_fw.mp4	0.0	261.91379284858704	
20	122.02672386169434	movie	1		243	18.0	2.5	/experiments/knapen_AOT/AOT_stimuli/rescaled_final/1864_fw.mp4	0.0	262.73057866096497	2.5002031326293945
20	122.81018590927124	pulse	1	t		18.0	2.5	/experiments/knapen_AOT/AOT_stimuli/rescaled_final/1864_fw.mp4	0.0	263.51404070854187	
20	124.41009998321533	pulse	1	t		18.0	2.5	/experiments/knapen_AOT/AOT_stimuli/rescaled_final/1864_fw.mp4	0.0	265.11395478248596	
20	124.52692699432373	fix_post	2		12	18.0	2.5	/experiments/knapen_AOT/AOT_stimuli/rescaled_final/1864_fw.mp4	0.0	265.23078179359436	0.0999138355255127
21	124.62684082984924	fix_pre	0		120	19.0	2.5	blank	1.0	265.3306956291199	1.0002601146697998
21	125.62710094451904	movie	1		299	19.0	2.5	blank	1.0	266.3309557437897	2.4920289516448975
21	126.0105848312378	pulse	1	t		19.0	2.5	blank	1.0	266.7144396305084	
21	127.61085987091064	pulse	1	t		19.0	2.5	blank	1.0	268.3147146701813	
21	128.11912989616394	fix_post	2		12	19.0	2.5	blank	1.0	268.82298469543457	0.10011816024780273
22	128.21924805641174	fix_pre	0		120	20.0	2.5	/experiments/knapen_AOT/AOT_stimuli/rescaled_final/0632_fw.mp4	0.0	268.9231028556824	1.000091791152954
22	129.21114492416382	pulse	0	t		20.0	2.5	/experiments/knapen_AOT/AOT_stimuli/rescaled_final/0632_fw.mp4	0.0	269.91499972343445	
22	129.2193398475647	movie	1		246	20.0	2.5	/experiments/knapen_AOT/AOT_stimuli/rescaled_final/0632_fw.mp4	0.0	269.9231946468353	2.50864315032959
22	130.81180787086487	pulse	1	t		20.0	2.5	/experiments/knapen_AOT/AOT_stimuli/rescaled_final/0632_fw.mp4	0.0	271.5156626701355	
22	131.7279829978943	fix_post	2		12	20.0	2.5	/experiments/knapen_AOT/AOT_stimuli/rescaled_final/0632_fw.mp4	0.0	272.4318377971649	0.09992599487304688
23	131.82790899276733	fix_pre	0		120	21.0	2.5	/experiments/knapen_AOT/AOT_stimuli/rescaled_final/0058_fw.mp4	0.0	272.53176379203796	1.0002989768981934
23	132.4117259979248	pulse	0	t		21.0	2.5	/experiments/knapen_AOT/AOT_stimuli/rescaled_final/0058_fw.mp4	0.0	273.11558079719543	
23	132.82820796966553	movie	1		247	21.0	2.5	/experiments/knapen_AOT/AOT_stimuli/rescaled_final/0058_fw.mp4	0.0	273.53206276893616	2.5003468990325928
23	134.01193404197693	pulse	1	t		21.0	2.5	/experiments/knapen_AOT/AOT_stimuli/rescaled_final/0058_fw.mp4	0.0	274.71578884124756	
23	135.32855486869812	fix_post	2		12	21.0	2.5	/experiments/knapen_AOT/AOT_stimuli/rescaled_final/0058_fw.mp4	0.0	276.03240966796875	0.09990096092224121
24	135.42845582962036	fix_pre	0		120	22.0	2.5	/experiments/knapen_AOT/AOT_stimuli/rescaled_final/2156_fw.mp4	0.0	276.132310628891	1.0003480911254883
24	135.61201095581055	pulse	0	t		22.0	2.5	/experiments/knapen_AOT/AOT_stimuli/rescaled_final/2156_fw.mp4	0.0	276.3158657550812	
24	136.42880392074585	movie	1		244	22.0	2.5	/experiments/knapen_AOT/AOT_stimuli/rescaled_final/2156_fw.mp4	0.0	277.1326587200165	2.500354051589966
24	137.21237301826477	pulse	1	t		22.0	2.5	/experiments/knapen_AOT/AOT_stimuli/rescaled_final/2156_fw.mp4	0.0	277.9162278175354	
24	138.8101508617401	pulse	1	t		22.0	2.5	/experiments/knapen_AOT/AOT_stimuli/rescaled_final/2156_fw.mp4	0.0	279.51400566101074	
24	138.92915797233582	fix_post	2		12	22.0	2.5	/experiments/knapen_AOT/AOT_stimuli/rescaled_final/2156_fw.mp4	0.0	279.63301277160645	0.09983587265014648
25	139.02899384498596	fix_pre	0		120	23.0	2.5	/experiments/knapen_AOT/AOT_stimuli/rescaled_final/1199_fw.mp4	0.0	279.7328486442566	1.0003321170806885
25	140.02932596206665	movie	1		244	23.0	2.5	/experiments/knapen_AOT/AOT_stimuli/rescaled_final/1199_fw.mp4	0.0	280.7331807613373	2.4919989109039307
25	140.41320085525513	pulse	1	t		23.0	2.5	/experiments/knapen_AOT/AOT_stimuli/rescaled_final/1199_fw.mp4	0.0	281.11705565452576	
25	142.0129508972168	pulse	1	t		23.0	2.5	/experiments/knapen_AOT/AOT_stimuli/rescaled_final/1199_fw.mp4	0.0	282.7168056964874	
25	142.52132487297058	fix_post	2		12	23.0	2.5	/experiments/knapen_AOT/AOT_stimuli/rescaled_final/1199_fw.mp4	0.0	283.2251796722412	0.09987306594848633
26	142.62119793891907	fix_pre	0		120	24.0	2.5	/experiments/knapen_AOT/AOT_stimuli/rescaled_final/0266_fw.mp4	0.0	283.3250527381897	1.0002760887145996
26	143.61337804794312	pulse	0	t		24.0	2.5	/experiments/knapen_AOT/AOT_stimuli/rescaled_final/0266_fw.mp4	0.0	284.31723284721375	
26	143.62147402763367	movie	1		246	24.0	2.5	/experiments/knapen_AOT/AOT_stimuli/rescaled_final/0266_fw.mp4	0.0	284.3253288269043	2.5085549354553223
26	145.2141149044037	pulse	1	t		24.0	2.5	/experiments/knapen_AOT/AOT_stimuli/rescaled_final/0266_fw.mp4	0.0	285.9179697036743	
26	146.130028963089	fix_post	2		12	24.0	2.5	/experiments/knapen_AOT/AOT_stimuli/rescaled_final/0266_fw.mp4	0.0	286.8338837623596	0.10004186630249023
27	146.23007082939148	fix_pre	0		120	25.0	2.5	/experiments/knapen_AOT/AOT_stimuli/rescaled_final/0062_rv.mp4	0.0	286.9339256286621	1.0002691745758057
27	146.8063850402832	pulse	0	t		25.0	2.5	/experiments/knapen_AOT/AOT_stimuli/rescaled_final/0062_rv.mp4	0.0	287.51023983955383	
27	147.23034000396729	movie	1		244	25.0	2.5	/experiments/knapen_AOT/AOT_stimuli/rescaled_final/0062_rv.mp4	0.0	287.9341948032379	2.500473976135254
27	148.4062089920044	pulse	1	t		25.0	2.5	/experiments/knapen_AOT/AOT_stimuli/rescaled_final/0062_rv.mp4	0.0	289.110063791275	
27	149.73081398010254	fix_post	2		9	25.0	2.5	/experiments/knapen_AOT/AOT_stimuli/rescaled_final/0062_rv.mp4	0.0	290.43466877937317	0.09981703758239746
28	149.83063101768494	fix_pre	0		120	26.0	2.5	/experiments/knapen_AOT/AOT_stimuli/rescaled_final/0460_fw.mp4	0.0	290.53448581695557	1.0002329349517822
28	150.00669598579407	pulse	0	t		26.0	2.5	/experiments/knapen_AOT/AOT_stimuli/rescaled_final/0460_fw.mp4	0.0	290.7105507850647	
28	150.83086395263672	movie	1		243	26.0	2.5	/experiments/knapen_AOT/AOT_stimuli/rescaled_final/0460_fw.mp4	0.0	291.53471875190735	2.5004770755767822
28	151.60717701911926	pulse	1	t		26.0	2.5	/experiments/knapen_AOT/AOT_stimuli/rescaled_final/0460_fw.mp4	0.0	292.3110318183899	
28	153.20635795593262	pulse	1	t		26.0	2.5	/experiments/knapen_AOT/AOT_stimuli/rescaled_final/0460_fw.mp4	0.0	293.91021275520325	
28	153.3313410282135	fix_post	2		12	26.0	2.5	/experiments/knapen_AOT/AOT_stimuli/rescaled_final/0460_fw.mp4	0.0	294.03519582748413	0.09982800483703613
29	153.43116903305054	fix_pre	0		120	27.0	2.5	/experiments/knapen_AOT/AOT_stimuli/rescaled_final/0149_rv.mp4	0.0	294.13502383232117	1.0002708435058594
29	154.4314398765564	movie	1		243	27.0	2.5	/experiments/knapen_AOT/AOT_stimuli/rescaled_final/0149_rv.mp4	0.0	295.135294675827	2.492110013961792
29	154.80656385421753	pulse	1	t		27.0	2.5	/experiments/knapen_AOT/AOT_stimuli/rescaled_final/0149_rv.mp4	0.0	295.51041865348816	
29	156.40685987472534	pulse	1	t		27.0	2.5	/experiments/knapen_AOT/AOT_stimuli/rescaled_final/0149_rv.mp4	0.0	297.110714673996	
29	156.9235498905182	fix_post	2		12	27.0	2.5	/experiments/knapen_AOT/AOT_stimuli/rescaled_final/0149_rv.mp4	0.0	297.6274046897888	0.09980201721191406
30	157.0233519077301	fix_pre	0		119	28.0	2.5	blank	1.0	297.72720670700073	0.9919090270996094
30	158.00712203979492	pulse	0	t		28.0	2.5	blank	1.0	298.71097683906555	
30	158.0152609348297	movie	1		301	28.0	2.5	blank	1.0	298.71911573410034	2.5086328983306885
30	159.6073980331421	pulse	1	t		28.0	2.5	blank	1.0	300.3112528324127	
30	160.5238938331604	fix_post	2		12	28.0	2.5	blank	1.0	301.22774863243103	0.10019803047180176
31	160.6240918636322	fix_pre	0		120	29.0	2.5	/experiments/knapen_AOT/AOT_stimuli/rescaled_final/1369_rv.mp4	0.0	301.32794666290283	1.0001800060272217
31	161.2075958251953	pulse	0	t		29.0	2.5	/experiments/knapen_AOT/AOT_stimuli/rescaled_final/1369_rv.mp4	0.0	301.91145062446594	
31	161.62427186965942	movie	1		243	29.0	2.5	/experiments/knapen_AOT/AOT_stimuli/rescaled_final/1369_rv.mp4	0.0	302.32812666893005	2.5002641677856445
31	162.80785489082336	pulse	1	t		29.0	2.5	/experiments/knapen_AOT/AOT_stimuli/rescaled_final/1369_rv.mp4	0.0	303.511709690094	
31	164.12453603744507	fix_post	2		12	29.0	2.5	/experiments/knapen_AOT/AOT_stimuli/rescaled_final/1369_rv.mp4	0.0	304.8283908367157	0.09993290901184082
32	164.2244689464569	fix_pre	0		120	30.0	2.5	/experiments/knapen_AOT/AOT_stimuli/rescaled_final/0358_fw.mp4	0.0	304.92832374572754	1.000288963317871
32	164.40794396400452	pulse	0	t		30.0	2.5	/experiments/knapen_AOT/AOT_stimuli/rescaled_final/0358_fw.mp4	0.0	305.11179876327515	
32	165.22475790977478	movie	1		244	30.0	2.5	/experiments/knapen_AOT/AOT_stimuli/rescaled_final/0358_fw.mp4	0.0	305.9286127090454	2.5004100799560547
32	166.00840592384338	pulse	1	t		30.0	2.5	/experiments/knapen_AOT/AOT_stimuli/rescaled_final/0358_fw.mp4	0.0	306.712260723114	
32	167.61188101768494	pulse	1	t		30.0	2.5	/experiments/knapen_AOT/AOT_stimuli/rescaled_final/0358_fw.mp4	0.0	308.31573581695557	
32	167.72516798973083	fix_post	2		12	30.0	2.5	/experiments/knapen_AOT/AOT_stimuli/rescaled_final/0358_fw.mp4	0.0	308.42902278900146	0.09984493255615234
33	167.825012922287	fix_pre	0		120	31.0	2.5	/experiments/knapen_AOT/AOT_stimuli/rescaled_final/0083_fw.mp4	0.0	308.5288677215576	1.000288963317871
33	168.82530188560486	movie	1		243	31.0	2.5	/experiments/knapen_AOT/AOT_stimuli/rescaled_final/0083_fw.mp4	0.0	309.5291566848755	2.4918391704559326
33	169.21081495285034	pulse	1	t		31.0	2.5	/experiments/knapen_AOT/AOT_stimuli/rescaled_final/0083_fw.mp4	0.0	309.914669752121	
33	170.80895495414734	pulse	1	t		31.0	2.5	/experiments/knapen_AOT/AOT_stimuli/rescaled_final/0083_fw.mp4	0.0	311.51280975341797	
33	171.3171410560608	fix_post	2		12	31.0	2.5	/experiments/knapen_AOT/AOT_stimuli/rescaled_final/0083_fw.mp4	0.0	312.0209958553314	0.10006284713745117
34	171.41720390319824	fix_pre	0		120	32.0	2.5	/experiments/knapen_AOT/AOT_stimuli/rescaled_final/0748_rv.mp4	0.0	312.1210587024689	1.0001320838928223
34	172.40928983688354	pulse	0	t		32.0	2.5	/experiments/knapen_AOT/AOT_stimuli/rescaled_final/0748_rv.mp4	0.0	313.1131446361542	
34	172.41733598709106	movie	1		247	32.0	2.5	/experiments/knapen_AOT/AOT_stimuli/rescaled_final/0748_rv.mp4	0.0	313.1211907863617	2.50872802734375
34	174.0103988647461	pulse	1	t		32.0	2.5	/experiments/knapen_AOT/AOT_stimuli/rescaled_final/0748_rv.mp4	0.0	314.7142536640167	
34	174.92606401443481	fix_post	2		12	32.0	2.5	/experiments/knapen_AOT/AOT_stimuli/rescaled_final/0748_rv.mp4	0.0	315.62991881370544	0.0999908447265625
35	175.02605485916138	fix_pre	0		120	33.0	2.5	/experiments/knapen_AOT/AOT_stimuli/rescaled_final/1957_rv.mp4	0.0	315.729909658432	1.0001611709594727
35	175.6097068786621	pulse	0	t		33.0	2.5	/experiments/knapen_AOT/AOT_stimuli/rescaled_final/1957_rv.mp4	0.0	316.31356167793274	
35	176.02621603012085	movie	1		243	33.0	2.5	/experiments/knapen_AOT/AOT_stimuli/rescaled_final/1957_rv.mp4	0.0	316.7300708293915	2.500358819961548
35	177.21003890037537	pulse	1	t		33.0	2.5	/experiments/knapen_AOT/AOT_stimuli/rescaled_final/1957_rv.mp4	0.0	317.913893699646	
35	178.5265748500824	fix_post	2		12	33.0	2.5	/experiments/knapen_AOT/AOT_stimuli/rescaled_final/1957_rv.mp4	0.0	319.230429649353	0.1000211238861084
36	178.6265959739685	fix_pre	0		120	34.0	2.5	/experiments/knapen_AOT/AOT_stimuli/rescaled_final/1381_fw.mp4	0.0	319.33045077323914	1.00016188621521
36	178.81027388572693	pulse	0	t		34.0	2.5	/experiments/knapen_AOT/AOT_stimuli/rescaled_final/1381_fw.mp4	0.0	319.51412868499756	
36	179.62675786018372	movie	1		245	34.0	2.5	/experiments/knapen_AOT/AOT_stimuli/rescaled_final/1381_fw.mp4	0.0	320.33061265945435	2.500324010848999
36	180.410493850708	pulse	1	t		34.0	2.5	/experiments/knapen_AOT/AOT_stimuli/rescaled_final/1381_fw.mp4	0.0	321.11434864997864	
36	182.00823092460632	pulse	1	t		34.0	2.5	/experiments/knapen_AOT/AOT_stimuli/rescaled_final/1381_fw.mp4	0.0	322.71208572387695	
36	182.12708187103271	fix_post	2		12	34.0	2.5	/experiments/knapen_AOT/AOT_stimuli/rescaled_final/1381_fw.mp4	0.0	322.83093667030334	0.1000971794128418
37	182.22717905044556	fix_pre	0		120	35.0	2.5	blank	1.0	322.9310338497162	1.0001018047332764
37	183.22728085517883	movie	1		299	35.0	2.5	blank	1.0	323.93113565444946	2.492053985595703
37	183.61087489128113	pulse	1	t		35.0	2.5	blank	1.0	324.31472969055176	
37	185.2110788822174	pulse	1	t		35.0	2.5	blank	1.0	325.91493368148804	
37	185.71933484077454	fix_post	2		12	35.0	2.5	blank	1.0	326.42318964004517	0.10002613067626953
38	185.8193609714508	fix_pre	0		120	36.0	2.5	/experiments/knapen_AOT/AOT_stimuli/rescaled_final/1637_fw.mp4	0.0	326.52321577072144	1.0001590251922607
38	186.81145882606506	pulse	0	t		36.0	2.5	/experiments/knapen_AOT/AOT_stimuli/rescaled_final/1637_fw.mp4	0.0	327.5153136253357	
38	186.81951999664307	movie	1		245	36.0	2.5	/experiments/knapen_AOT/AOT_stimuli/rescaled_final/1637_fw.mp4	0.0	327.5233747959137	2.508697986602783
38	188.41543889045715	pulse	1	t		36.0	2.5	/experiments/knapen_AOT/AOT_stimuli/rescaled_final/1637_fw.mp4	0.0	329.1192936897278	
38	189.32821798324585	fix_post	2		12	36.0	2.5	/experiments/knapen_AOT/AOT_stimuli/rescaled_final/1637_fw.mp4	0.0	330.0320727825165	0.0999748706817627
39	189.4281928539276	fix_pre	0		120	37.0	2.5	/experiments/knapen_AOT/AOT_stimuli/rescaled_final/1864_fw.mp4	0.0	330.13204765319824	1.0001270771026611
39	190.01187586784363	pulse	0	t		37.0	2.5	/experiments/knapen_AOT/AOT_stimuli/rescaled_final/1864_fw.mp4	0.0	330.71573066711426	
39	190.42831993103027	movie	1		244	37.0	2.5	/experiments/knapen_AOT/AOT_stimuli/rescaled_final/1864_fw.mp4	0.0	331.1321747303009	2.500408887863159
39	191.61212992668152	pulse	1	t		37.0	2.5	/experiments/knapen_AOT/AOT_stimuli/rescaled_final/1864_fw.mp4	0.0	332.31598472595215	
39	192.92872881889343	fix_post	2		12	37.0	2.5	/experiments/knapen_AOT/AOT_stimuli/rescaled_final/1864_fw.mp4	0.0	333.63258361816406	0.1000211238861084
40	193.02874994277954	fix_pre	0		120	38.0	2.5	/experiments/knapen_AOT/AOT_stimuli/rescaled_final/1517_fw.mp4	0.0	333.73260474205017	1.0001630783081055
40	193.2123908996582	pulse	0	t		38.0	2.5	/experiments/knapen_AOT/AOT_stimuli/rescaled_final/1517_fw.mp4	0.0	333.91624569892883	
40	194.02891302108765	movie	1		244	38.0	2.5	/experiments/knapen_AOT/AOT_stimuli/rescaled_final/1517_fw.mp4	0.0	334.7327678203583	2.5003578662872314
40	194.8126769065857	pulse	1	t		38.0	2.5	/experiments/knapen_AOT/AOT_stimuli/rescaled_final/1517_fw.mp4	0.0	335.5165317058563	
40	196.4108169078827	pulse	1	t		38.0	2.5	/experiments/knapen_AOT/AOT_stimuli/rescaled_final/1517_fw.mp4	0.0	337.1146717071533	
40	196.52927088737488	fix_post	2		12	38.0	2.5	/experiments/knapen_AOT/AOT_stimuli/rescaled_final/1517_fw.mp4	0.0	337.2331256866455	0.09999394416809082
41	196.62926483154297	fix_pre	0		120	39.0	2.5	/experiments/knapen_AOT/AOT_stimuli/rescaled_final/1203_rv.mp4	0.0	337.3331196308136	1.0001602172851562
41	197.62942504882812	movie	1		243	39.0	2.5	/experiments/knapen_AOT/AOT_stimuli/rescaled_final/1203_rv.mp4	0.0	338.33327984809875	2.492025852203369
41	198.01413297653198	pulse	1	t		39.0	2.5	/experiments/knapen_AOT/AOT_stimuli/rescaled_final/1203_rv.mp4	0.0	338.7179877758026	
41	199.6059808731079	pulse	1	t		39.0	2.5	/experiments/knapen_AOT/AOT_stimuli/rescaled_final/1203_rv.mp4	0.0	340.30983567237854	
41	200.1214509010315	fix_post	2		12	39.0	2.5	/experiments/knapen_AOT/AOT_stimuli/rescaled_final/1203_rv.mp4	0.0	340.8253057003021	0.10005807876586914
42	200.22150897979736	fix_pre	0		120	40.0	2.5	blank	1.0	340.925363779068	1.0001490116119385
42	201.20593404769897	pulse	0	t		40.0	2.5	blank	1.0	341.9097888469696	
42	201.2216579914093	movie	1		301	40.0	2.5	blank	1.0	341.92551279067993	2.5086820125579834
42	202.8062779903412	pulse	1	t		40.0	2.5	blank	1.0	343.5101327896118	
42	203.73034000396729	fix_post	2		12	40.0	2.5	blank	1.0	344.4341948032379	0.10001301765441895
43	203.8303530216217	fix_pre	0		120	41.0	2.5	/experiments/knapen_AOT/AOT_stimuli/rescaled_final/0754_rv.mp4	0.0	344.53420782089233	1.0001428127288818
43	204.40660881996155	pulse	0	t		41.0	2.5	/experiments/knapen_AOT/AOT_stimuli/rescaled_final/0754_rv.mp4	0.0	345.1104636192322	
43	204.8304958343506	movie	1		245	41.0	2.5	/experiments/knapen_AOT/AOT_stimuli/rescaled_final/0754_rv.mp4	0.0	345.5343506336212	2.5004169940948486
43	206.00659584999084	pulse	1	t		41.0	2.5	/experiments/knapen_AOT/AOT_stimuli/rescaled_final/0754_rv.mp4	0.0	346.7104506492615	
43	207.33091282844543	fix_post	2		12	41.0	2.5	/experiments/knapen_AOT/AOT_stimuli/rescaled_final/0754_rv.mp4	0.0	348.03476762771606	0.09998607635498047
44	207.43089890480042	fix_pre	0		120	42.0	2.5	/experiments/knapen_AOT/AOT_stimuli/rescaled_final/1917_fw.mp4	0.0	348.13475370407104	1.0001640319824219
44	207.60608291625977	pulse	0	t		42.0	2.5	/experiments/knapen_AOT/AOT_stimuli/rescaled_final/1917_fw.mp4	0.0	348.3099377155304	
44	208.43106293678284	movie	1		242	42.0	2.5	/experiments/knapen_AOT/AOT_stimuli/rescaled_final/1917_fw.mp4	0.0	349.13491773605347	2.5003669261932373
44	209.20634698867798	pulse	1	t		42.0	2.5	/experiments/knapen_AOT/AOT_stimuli/rescaled_final/1917_fw.mp4	0.0	349.9102017879486	
44	210.8067970275879	pulse	1	t		42.0	2.5	/experiments/knapen_AOT/AOT_stimuli/rescaled_final/1917_fw.mp4	0.0	351.5106518268585	
44	210.93142986297607	fix_post	2		12	42.0	2.5	/experiments/knapen_AOT/AOT_stimuli/rescaled_final/1917_fw.mp4	0.0	351.6352846622467	0.09999418258666992
45	211.03142404556274	fix_pre	0		120	43.0	2.5	/experiments/knapen_AOT/AOT_stimuli/rescaled_final/1510_rv.mp4	0.0	351.7352788448334	1.0001249313354492
45	212.0315489768982	movie	1		242	43.0	2.5	/experiments/knapen_AOT/AOT_stimuli/rescaled_final/1510_rv.mp4	0.0	352.7354037761688	2.4920690059661865
45	212.40685486793518	pulse	1	t		43.0	2.5	/experiments/knapen_AOT/AOT_stimuli/rescaled_final/1510_rv.mp4	0.0	353.1107096672058	
45	214.007257938385	pulse	1	t		43.0	2.5	/experiments/knapen_AOT/AOT_stimuli/rescaled_final/1510_rv.mp4	0.0	354.71111273765564	
45	214.52361798286438	fix_post	2		12	43.0	2.5	/experiments/knapen_AOT/AOT_stimuli/rescaled_final/1510_rv.mp4	0.0	355.227472782135	0.10001707077026367
46	214.62363505363464	fix_pre	0		119	44.0	2.5	/experiments/knapen_AOT/AOT_stimuli/rescaled_final/0866_rv.mp4	0.0	355.3274898529053	0.9917988777160645
46	215.60737490653992	pulse	0	t		44.0	2.5	/experiments/knapen_AOT/AOT_stimuli/rescaled_final/0866_rv.mp4	0.0	356.31122970581055	
46	215.6154339313507	movie	1		245	44.0	2.5	/experiments/knapen_AOT/AOT_stimuli/rescaled_final/0866_rv.mp4	0.0	356.31928873062134	2.508768081665039
46	217.20860385894775	pulse	1	t		44.0	2.5	/experiments/knapen_AOT/AOT_stimuli/rescaled_final/0866_rv.mp4	0.0	357.9124586582184	
46	218.12420201301575	fix_post	2		12	44.0	2.5	/experiments/knapen_AOT/AOT_stimuli/rescaled_final/0866_rv.mp4	0.0	358.8280568122864	0.10001587867736816
47	218.22421789169312	fix_pre	0		120	45.0	2.5	/experiments/knapen_AOT/AOT_stimuli/rescaled_final/1253_fw.mp4	0.0	358.92807269096375	1.0001580715179443
47	218.8078589439392	pulse	0	t		45.0	2.5	/experiments/knapen_AOT/AOT_stimuli/rescaled_final/1253_fw.mp4	0.0	359.51171374320984	
47	219.22437596321106	movie	1		243	45.0	2.5	/experiments/knapen_AOT/AOT_stimuli/rescaled_final/1253_fw.mp4	0.0	359.9282307624817	2.5003089904785156
47	220.4080970287323	pulse	1	t		45.0	2.5	/experiments/knapen_AOT/AOT_stimuli/rescaled_final/1253_fw.mp4	0.0	361.11195182800293	
47	221.72468495368958	fix_post	2		12	45.0	2.5	/experiments/knapen_AOT/AOT_stimuli/rescaled_final/1253_fw.mp4	0.0	362.4285397529602	0.10004901885986328
48	221.82473397254944	fix_pre	0		120	46.0	2.5	/experiments/knapen_AOT/AOT_stimuli/rescaled_final/1801_rv.mp4	0.0	362.52858877182007	1.0001270771026611
48	222.0082869529724	pulse	0	t		46.0	2.5	/experiments/knapen_AOT/AOT_stimuli/rescaled_final/1801_rv.mp4	0.0	362.71214175224304	
48	222.8248610496521	movie	1		244	46.0	2.5	/experiments/knapen_AOT/AOT_stimuli/rescaled_final/1801_rv.mp4	0.0	363.52871584892273	2.500417947769165
48	223.60849404335022	pulse	1	t		46.0	2.5	/experiments/knapen_AOT/AOT_stimuli/rescaled_final/1801_rv.mp4	0.0	364.31234884262085	
48	225.20857191085815	pulse	1	t		46.0	2.5	/experiments/knapen_AOT/AOT_stimuli/rescaled_final/1801_rv.mp4	0.0	365.9124267101288	
48	225.32527899742126	fix_post	2		12	46.0	2.5	/experiments/knapen_AOT/AOT_stimuli/rescaled_final/1801_rv.mp4	0.0	366.0291337966919	0.09995293617248535
49	225.42523193359375	fix_pre	0		120	47.0	2.5	/experiments/knapen_AOT/AOT_stimuli/rescaled_final/1177_fw.mp4	0.0	366.1290867328644	1.0001590251922607
49	226.425390958786	movie	1		242	47.0	2.5	/experiments/knapen_AOT/AOT_stimuli/rescaled_final/1177_fw.mp4	0.0	367.12924575805664	2.4921300411224365
49	226.81039190292358	pulse	1	t		47.0	2.5	/experiments/knapen_AOT/AOT_stimuli/rescaled_final/1177_fw.mp4	0.0	367.5142467021942	
49	228.40929794311523	pulse	1	t		47.0	2.5	/experiments/knapen_AOT/AOT_stimuli/rescaled_final/1177_fw.mp4	0.0	369.11315274238586	
49	228.91752099990845	fix_post	2		12	47.0	2.5	/experiments/knapen_AOT/AOT_stimuli/rescaled_final/1177_fw.mp4	0.0	369.6213757991791	0.09993600845336914
50	229.01745700836182	fix_pre	0		120	48.0	2.5	blank	1.0	369.72131180763245	1.000135898590088
50	230.00949001312256	pulse	0	t		48.0	2.5	blank	1.0	370.7133448123932	
50	230.0175929069519	movie	1		301	48.0	2.5	blank	1.0	370.72144770622253	2.5087170600891113
50	231.6097128391266	pulse	1	t		48.0	2.5	blank	1.0	372.3135676383972	
50	232.52630996704102	fix_post	2		12	48.0	2.5	blank	1.0	373.23016476631165	0.10003399848937988
51	232.6263439655304	fix_pre	0		120	49.0	2.5	/experiments/knapen_AOT/AOT_stimuli/rescaled_final/0266_fw.mp4	0.0	373.330198764801	1.0001499652862549
51	233.20987105369568	pulse	0	t		49.0	2.5	/experiments/knapen_AOT/AOT_stimuli/rescaled_final/0266_fw.mp4	0.0	373.9137258529663	
51	233.62649393081665	movie	1		245	49.0	2.5	/experiments/knapen_AOT/AOT_stimuli/rescaled_final/0266_fw.mp4	0.0	374.3303487300873	2.5003631114959717
51	234.81029200553894	pulse	1	t		49.0	2.5	/experiments/knapen_AOT/AOT_stimuli/rescaled_final/0266_fw.mp4	0.0	375.51414680480957	
51	236.12685704231262	fix_post	2		12	49.0	2.5	/experiments/knapen_AOT/AOT_stimuli/rescaled_final/0266_fw.mp4	0.0	376.83071184158325	0.09998488426208496
52	236.2268419265747	fix_pre	0		120	50.0	2.5	/experiments/knapen_AOT/AOT_stimuli/rescaled_final/0358_fw.mp4	0.0	376.93069672584534	1.0001559257507324
52	236.41044998168945	pulse	0	t		50.0	2.5	/experiments/knapen_AOT/AOT_stimuli/rescaled_final/0358_fw.mp4	0.0	377.1143047809601	
52	237.22699785232544	movie	1		244	50.0	2.5	/experiments/knapen_AOT/AOT_stimuli/rescaled_final/0358_fw.mp4	0.0	377.93085265159607	2.5004191398620605
52	238.0106749534607	pulse	1	t		50.0	2.5	/experiments/knapen_AOT/AOT_stimuli/rescaled_final/0358_fw.mp4	0.0	378.7145297527313	
52	239.61108493804932	pulse	1	t		50.0	2.5	/experiments/knapen_AOT/AOT_stimuli/rescaled_final/0358_fw.mp4	0.0	380.31493973731995	
52	239.7274169921875	fix_post	2		12	50.0	2.5	/experiments/knapen_AOT/AOT_stimuli/rescaled_final/0358_fw.mp4	0.0	380.43127179145813	0.09998393058776855
53	239.82740092277527	fix_pre	0		120	51.0	2.5	/experiments/knapen_AOT/AOT_stimuli/rescaled_final/0551_rv.mp4	0.0	380.5312557220459	1.0001680850982666
53	240.82756900787354	movie	1		242	51.0	2.5	/experiments/knapen_AOT/AOT_stimuli/rescaled_final/0551_rv.mp4	0.0	381.53142380714417	2.4920458793640137
53	241.2118330001831	pulse	1	t		51.0	2.5	/experiments/knapen_AOT/AOT_stimuli/rescaled_final/0551_rv.mp4	0.0	381.91568779945374	
53	242.811420917511	pulse	1	t		51.0	2.5	/experiments/knapen_AOT/AOT_stimuli/rescaled_final/0551_rv.mp4	0.0	383.5152757167816	
53	243.31961488723755	fix_post	2		12	51.0	2.5	/experiments/knapen_AOT/AOT_stimuli/rescaled_final/0551_rv.mp4	0.0	384.0234696865082	0.10001802444458008
54	243.41963291168213	fix_pre	0		120	52.0	2.5	/experiments/knapen_AOT/AOT_stimuli/rescaled_final/0680_rv.mp4	0.0	384.12348771095276	1.0000970363616943
54	244.4116199016571	pulse	0	t		52.0	2.5	/experiments/knapen_AOT/AOT_stimuli/rescaled_final/0680_rv.mp4	0.0	385.11547470092773	
54	244.41972994804382	movie	1		244	52.0	2.5	/experiments/knapen_AOT/AOT_stimuli/rescaled_final/0680_rv.mp4	0.0	385.12358474731445	2.5086989402770996
54	246.01258492469788	pulse	1	t		52.0	2.5	/experiments/knapen_AOT/AOT_stimuli/rescaled_final/0680_rv.mp4	0.0	386.7164397239685	
54	246.92842888832092	fix_post	2		12	52.0	2.5	/experiments/knapen_AOT/AOT_stimuli/rescaled_final/0680_rv.mp4	0.0	387.63228368759155	0.10004210472106934
55	247.028470993042	fix_pre	0		120	53.0	2.5	/experiments/knapen_AOT/AOT_stimuli/rescaled_final/0264_rv.mp4	0.0	387.7323257923126	1.0001490116119385
55	247.61211395263672	pulse	0	t		53.0	2.5	/experiments/knapen_AOT/AOT_stimuli/rescaled_final/0264_rv.mp4	0.0	388.31596875190735	
55	248.02862000465393	movie	1		244	53.0	2.5	/experiments/knapen_AOT/AOT_stimuli/rescaled_final/0264_rv.mp4	0.0	388.73247480392456	2.5003678798675537
55	249.21239590644836	pulse	1	t		53.0	2.5	/experiments/knapen_AOT/AOT_stimuli/rescaled_final/0264_rv.mp4	0.0	389.916250705719	
55	250.52898788452148	fix_post	2		12	53.0	2.5	/experiments/knapen_AOT/AOT_stimuli/rescaled_final/0264_rv.mp4	0.0	391.2328426837921	0.10010313987731934
56	250.6290910243988	fix_pre	0		120	54.0	2.5	blank	1.0	391.33294582366943	1.000074863433838
56	250.81251883506775	pulse	0	t		54.0	2.5	blank	1.0	391.5163736343384	
56	251.62916588783264	movie	1		300	54.0	2.5	blank	1.0	392.33302068710327	2.500375986099243
56	252.41278982162476	pulse	1	t		54.0	2.5	blank	1.0	393.1166446208954	
56	254.01306986808777	pulse	1	t		54.0	2.5	blank	1.0	394.7169246673584	
56	254.12954187393188	fix_post	2		12	54.0	2.5	blank	1.0	394.8333966732025	0.10001802444458008
57	254.22955989837646	fix_pre	0		120	55.0	2.5	/experiments/knapen_AOT/AOT_stimuli/rescaled_final/2112_fw.mp4	0.0	394.9334146976471	1.000136137008667
57	255.22969603538513	movie	1		245	55.0	2.5	/experiments/knapen_AOT/AOT_stimuli/rescaled_final/2112_fw.mp4	0.0	395.93355083465576	2.492013931274414
57	255.61445498466492	pulse	1	t		55.0	2.5	/experiments/knapen_AOT/AOT_stimuli/rescaled_final/2112_fw.mp4	0.0	396.31830978393555	
57	257.213595867157	pulse	1	t		55.0	2.5	/experiments/knapen_AOT/AOT_stimuli/rescaled_final/2112_fw.mp4	0.0	397.9174506664276	
57	257.72170996665955	fix_post	2		12	55.0	2.5	/experiments/knapen_AOT/AOT_stimuli/rescaled_final/2112_fw.mp4	0.0	398.4255647659302	0.10004591941833496
58	257.8217558860779	fix_pre	0		120	56.0	2.5	/experiments/knapen_AOT/AOT_stimuli/rescaled_final/0698_rv.mp4	0.0	398.5256106853485	1.000128984451294
58	258.8137218952179	pulse	0	t		56.0	2.5	/experiments/knapen_AOT/AOT_stimuli/rescaled_final/0698_rv.mp4	0.0	399.5175766944885	
58	258.8218848705292	movie	1		246	56.0	2.5	/experiments/knapen_AOT/AOT_stimuli/rescaled_final/0698_rv.mp4	0.0	399.5257396697998	2.5087320804595947
58	260.4153368473053	pulse	1	t		56.0	2.5	/experiments/knapen_AOT/AOT_stimuli/rescaled_final/0698_rv.mp4	0.0	401.1191916465759	
58	261.33061695098877	fix_post	2		12	56.0	2.5	/experiments/knapen_AOT/AOT_stimuli/rescaled_final/0698_rv.mp4	0.0	402.0344717502594	0.10000801086425781
59	261.430624961853	fix_pre	0		120	57.0	2.5	/experiments/knapen_AOT/AOT_stimuli/rescaled_final/1620_fw.mp4	0.0	402.13447976112366	1.0001490116119385
59	262.0067389011383	pulse	0	t		57.0	2.5	/experiments/knapen_AOT/AOT_stimuli/rescaled_final/1620_fw.mp4	0.0	402.71059370040894	
59	262.43077397346497	movie	1		245	57.0	2.5	/experiments/knapen_AOT/AOT_stimuli/rescaled_final/1620_fw.mp4	0.0	403.1346287727356	2.500354051589966
59	263.6101038455963	pulse	1	t		57.0	2.5	/experiments/knapen_AOT/AOT_stimuli/rescaled_final/1620_fw.mp4	0.0	404.31395864486694	
59	264.93112802505493	fix_post	2		12	57.0	2.5	/experiments/knapen_AOT/AOT_stimuli/rescaled_final/1620_fw.mp4	0.0	405.63498282432556	0.10002899169921875
60	265.03115701675415	fix_pre	0		120	58.0	2.5	/experiments/knapen_AOT/AOT_stimuli/rescaled_final/0493_rv.mp4	0.0	405.7350118160248	1.0001540184020996
60	265.20729184150696	pulse	0	t		58.0	2.5	/experiments/knapen_AOT/AOT_stimuli/rescaled_final/0493_rv.mp4	0.0	405.9111466407776	
60	266.03131103515625	movie	1		244	58.0	2.5	/experiments/knapen_AOT/AOT_stimuli/rescaled_final/0493_rv.mp4	0.0	406.7351658344269	2.500377893447876
60	266.80773401260376	pulse	1	t		58.0	2.5	/experiments/knapen_AOT/AOT_stimuli/rescaled_final/0493_rv.mp4	0.0	407.5115888118744	
60	268.4068830013275	pulse	1	t		58.0	2.5	/experiments/knapen_AOT/AOT_stimuli/rescaled_final/0493_rv.mp4	0.0	409.11073780059814	
60	268.5316889286041	fix_post	2		12	58.0	2.5	/experiments/knapen_AOT/AOT_stimuli/rescaled_final/0493_rv.mp4	0.0	409.23554372787476	0.10000205039978027
61	268.6316909790039	fix_pre	0		120	59.0	2.5	/experiments/knapen_AOT/AOT_stimuli/rescaled_final/1510_fw.mp4	0.0	409.33554577827454	1.0001530647277832
61	269.6318440437317	movie	1		242	59.0	2.5	/experiments/knapen_AOT/AOT_stimuli/rescaled_final/1510_fw.mp4	0.0	410.3356988430023	2.4923818111419678
61	270.00704884529114	pulse	1	t		59.0	2.5	/experiments/knapen_AOT/AOT_stimuli/rescaled_final/1510_fw.mp4	0.0	410.71090364456177	
61	271.60734486579895	pulse	1	t		59.0	2.5	/experiments/knapen_AOT/AOT_stimuli/rescaled_final/1510_fw.mp4	0.0	412.3111996650696	
61	272.12422585487366	fix_post	2		11	59.0	2.5	/experiments/knapen_AOT/AOT_stimuli/rescaled_final/1510_fw.mp4	0.0	412.8280806541443	0.09968304634094238
62	272.2239089012146	fix_pre	0		119	60.0	2.5	/experiments/knapen_AOT/AOT_stimuli/rescaled_final/0662_rv.mp4	0.0	412.92776370048523	0.9917919635772705
62	273.20767402648926	pulse	0	t		60.0	2.5	/experiments/knapen_AOT/AOT_stimuli/rescaled_final/0662_rv.mp4	0.0	413.9115288257599	
62	273.21570086479187	movie	1		245	60.0	2.5	/experiments/knapen_AOT/AOT_stimuli/rescaled_final/0662_rv.mp4	0.0	413.9195556640625	2.5087361335754395
62	274.8084900379181	pulse	1	t		60.0	2.5	/experiments/knapen_AOT/AOT_stimuli/rescaled_final/0662_rv.mp4	0.0	415.5123448371887	
62	275.7244369983673	fix_post	2		12	60.0	2.5	/experiments/knapen_AOT/AOT_stimuli/rescaled_final/0662_rv.mp4	0.0	416.42829179763794	0.1000528335571289
63	275.82448983192444	fix_pre	0		120	61.0	2.5	/experiments/knapen_AOT/AOT_stimuli/rescaled_final/1500_rv.mp4	0.0	416.52834463119507	1.0001370906829834
63	276.40803384780884	pulse	0	t		61.0	2.5	/experiments/knapen_AOT/AOT_stimuli/rescaled_final/1500_rv.mp4	0.0	417.11188864707947	
63	276.8246269226074	movie	1		245	61.0	2.5	/experiments/knapen_AOT/AOT_stimuli/rescaled_final/1500_rv.mp4	0.0	417.52848172187805	2.5003490447998047
63	278.00842690467834	pulse	1	t		61.0	2.5	/experiments/knapen_AOT/AOT_stimuli/rescaled_final/1500_rv.mp4	0.0	418.712281703949	
63	279.3249759674072	fix_post	2		12	61.0	2.5	/experiments/knapen_AOT/AOT_stimuli/rescaled_final/1500_rv.mp4	0.0	420.02883076667786	0.10002303123474121
64	279.42499899864197	fix_pre	0		120	62.0	2.5	blank	1.0	420.1288537979126	1.0001299381256104
64	279.6086518764496	pulse	0	t		62.0	2.5	blank	1.0	420.3125066757202	
64	280.4251289367676	movie	1		300	62.0	2.5	blank	1.0	421.1289837360382	2.5003879070281982
64	281.208792924881	pulse	1	t		62.0	2.5	blank	1.0	421.9126477241516	
64	282.8089430332184	pulse	1	t		62.0	2.5	blank	1.0	423.512797832489	
64	282.9255168437958	fix_post	2		12	62.0	2.5	blank	1.0	423.6293716430664	0.10002899169921875
65	283.025545835495	fix_pre	0		120	63.0	2.5	/experiments/knapen_AOT/AOT_stimuli/rescaled_final/2112_fw.mp4	0.0	423.7294006347656	1.0001211166381836
65	284.0256669521332	movie	1		245	63.0	2.5	/experiments/knapen_AOT/AOT_stimuli/rescaled_final/2112_fw.mp4	0.0	424.7295217514038	2.4920380115509033
65	284.4096438884735	pulse	1	t		63.0	2.5	/experiments/knapen_AOT/AOT_stimuli/rescaled_final/2112_fw.mp4	0.0	425.11349868774414	
65	286.0096459388733	pulse	1	t		63.0	2.5	/experiments/knapen_AOT/AOT_stimuli/rescaled_final/2112_fw.mp4	0.0	426.7135007381439	
65	286.5177049636841	fix_post	2		12	63.0	2.5	/experiments/knapen_AOT/AOT_stimuli/rescaled_final/2112_fw.mp4	0.0	427.2215597629547	0.1000058650970459
66	286.6177108287811	fix_pre	0		120	64.0	2.5	/experiments/knapen_AOT/AOT_stimuli/rescaled_final/1806_rv.mp4	0.0	427.32156562805176	1.0001699924468994
66	287.60981583595276	pulse	0	t		64.0	2.5	/experiments/knapen_AOT/AOT_stimuli/rescaled_final/1806_rv.mp4	0.0	428.3136706352234	
66	287.617880821228	movie	1		245	64.0	2.5	/experiments/knapen_AOT/AOT_stimuli/rescaled_final/1806_rv.mp4	0.0	428.32173562049866	2.508726119995117
66	289.2143440246582	pulse	1	t		64.0	2.5	/experiments/knapen_AOT/AOT_stimuli/rescaled_final/1806_rv.mp4	0.0	429.91819882392883	
66	290.12660694122314	fix_post	2		12	64.0	2.5	/experiments/knapen_AOT/AOT_stimuli/rescaled_final/1806_rv.mp4	0.0	430.8304617404938	0.09998607635498047
67	290.2265930175781	fix_pre	0		120	65.0	2.5	/experiments/knapen_AOT/AOT_stimuli/rescaled_final/1177_rv.mp4	0.0	430.93044781684875	1.0001449584960938
67	290.8102140426636	pulse	0	t		65.0	2.5	/experiments/knapen_AOT/AOT_stimuli/rescaled_final/1177_rv.mp4	0.0	431.5140688419342	
67	291.2267379760742	movie	1		243	65.0	2.5	/experiments/knapen_AOT/AOT_stimuli/rescaled_final/1177_rv.mp4	0.0	431.93059277534485	2.500424861907959
67	292.40642285346985	pulse	1	t		65.0	2.5	/experiments/knapen_AOT/AOT_stimuli/rescaled_final/1177_rv.mp4	0.0	433.1102776527405	
67	293.7271628379822	fix_post	2		12	65.0	2.5	/experiments/knapen_AOT/AOT_stimuli/rescaled_final/1177_rv.mp4	0.0	434.4310176372528	0.09996414184570312
68	293.8271269798279	fix_pre	0		120	66.0	2.5	/experiments/knapen_AOT/AOT_stimuli/rescaled_final/1593_fw.mp4	0.0	434.5309817790985	1.0001790523529053
68	294.01078486442566	pulse	0	t		66.0	2.5	/experiments/knapen_AOT/AOT_stimuli/rescaled_final/1593_fw.mp4	0.0	434.7146396636963	
68	294.8273060321808	movie	1		244	66.0	2.5	/experiments/knapen_AOT/AOT_stimuli/rescaled_final/1593_fw.mp4	0.0	435.5311608314514	2.5003819465637207
68	295.6109230518341	pulse	1	t		66.0	2.5	/experiments/knapen_AOT/AOT_stimuli/rescaled_final/1593_fw.mp4	0.0	436.31477785110474	
68	297.2129900455475	pulse	1	t		66.0	2.5	/experiments/knapen_AOT/AOT_stimuli/rescaled_final/1593_fw.mp4	0.0	437.9168448448181	
68	297.3276879787445	fix_post	2		12	66.0	2.5	/experiments/knapen_AOT/AOT_stimuli/rescaled_final/1593_fw.mp4	0.0	438.03154277801514	0.1000070571899414
69	297.42769503593445	fix_pre	0		119	67.0	2.5	/experiments/knapen_AOT/AOT_stimuli/rescaled_final/1879_fw.mp4	0.0	438.1315498352051	0.9917938709259033
69	298.41948890686035	movie	1		245	67.0	2.5	/experiments/knapen_AOT/AOT_stimuli/rescaled_final/1879_fw.mp4	0.0	439.123343706131	2.500330924987793
69	298.8114800453186	pulse	1	t		67.0	2.5	/experiments/knapen_AOT/AOT_stimuli/rescaled_final/1879_fw.mp4	0.0	439.51533484458923	
69	300.4117999076843	pulse	1	t		67.0	2.5	/experiments/knapen_AOT/AOT_stimuli/rescaled_final/1879_fw.mp4	0.0	441.11565470695496	
69	300.91981983184814	fix_post	2		12	67.0	2.5	/experiments/knapen_AOT/AOT_stimuli/rescaled_final/1879_fw.mp4	0.0	441.6236746311188	0.10004615783691406
70	301.01986598968506	fix_pre	0		120	68.0	2.5	blank	1.0	441.7237207889557	1.0001509189605713
70	302.01186203956604	pulse	0	t		68.0	2.5	blank	1.0	442.71571683883667	
70	302.02001690864563	movie	1		301	68.0	2.5	blank	1.0	442.72387170791626	2.5087411403656006
70	303.61207699775696	pulse	1	t		68.0	2.5	blank	1.0	444.3159317970276	
70	304.52875804901123	fix_post	2		12	68.0	2.5	blank	1.0	445.23261284828186	0.10002279281616211
71	304.6287808418274	fix_pre	0		120	69.0	2.5	/experiments/knapen_AOT/AOT_stimuli/rescaled_final/0440_rv.mp4	0.0	445.332635641098	1.0001389980316162
71	305.2123830318451	pulse	0	t		69.0	2.5	/experiments/knapen_AOT/AOT_stimuli/rescaled_final/0440_rv.mp4	0.0	445.9162378311157	
71	305.628919839859	movie	1		245	69.0	2.5	/experiments/knapen_AOT/AOT_stimuli/rescaled_final/0440_rv.mp4	0.0	446.33277463912964	2.5004091262817383
71	306.81276202201843	pulse	1	t		69.0	2.5	/experiments/knapen_AOT/AOT_stimuli/rescaled_final/0440_rv.mp4	0.0	447.51661682128906	
71	308.12932896614075	fix_post	2		12	69.0	2.5	/experiments/knapen_AOT/AOT_stimuli/rescaled_final/0440_rv.mp4	0.0	448.8331837654114	0.09999895095825195
72	308.229327917099	fix_pre	0		120	70.0	2.5	/experiments/knapen_AOT/AOT_stimuli/rescaled_final/1991_fw.mp4	0.0	448.93318271636963	1.0001380443572998
72	308.4129309654236	pulse	0	t		70.0	2.5	/experiments/knapen_AOT/AOT_stimuli/rescaled_final/1991_fw.mp4	0.0	449.1167857646942	
72	309.2294659614563	movie	1		244	70.0	2.5	/experiments/knapen_AOT/AOT_stimuli/rescaled_final/1991_fw.mp4	0.0	449.93332076072693	2.500314950942993
72	310.0130820274353	pulse	1	t		70.0	2.5	/experiments/knapen_AOT/AOT_stimuli/rescaled_final/1991_fw.mp4	0.0	450.71693682670593	
72	311.6147530078888	pulse	1	t		70.0	2.5	/experiments/knapen_AOT/AOT_stimuli/rescaled_final/1991_fw.mp4	0.0	452.3186078071594	
72	311.7297809123993	fix_post	2		12	70.0	2.5	/experiments/knapen_AOT/AOT_stimuli/rescaled_final/1991_fw.mp4	0.0	452.4336357116699	0.10003113746643066
73	311.8298120498657	fix_pre	0		119	71.0	2.5	/experiments/knapen_AOT/AOT_stimuli/rescaled_final/1063_rv.mp4	0.0	452.53366684913635	0.9918580055236816
73	312.8216700553894	movie	1		244	71.0	2.5	/experiments/knapen_AOT/AOT_stimuli/rescaled_final/1063_rv.mp4	0.0	453.52552485466003	2.500382900238037
73	313.2137289047241	pulse	1	t		71.0	2.5	/experiments/knapen_AOT/AOT_stimuli/rescaled_final/1063_rv.mp4	0.0	453.91758370399475	
73	314.806382894516	pulse	1	t		71.0	2.5	/experiments/knapen_AOT/AOT_stimuli/rescaled_final/1063_rv.mp4	0.0	455.5102376937866	
73	315.32205295562744	fix_post	2		12	71.0	2.5	/experiments/knapen_AOT/AOT_stimuli/rescaled_final/1063_rv.mp4	0.0	456.02590775489807	0.10001206398010254
74	315.42206501960754	fix_pre	0		120	72.0	2.5	/experiments/knapen_AOT/AOT_stimuli/rescaled_final/0594_rv.mp4	0.0	456.1259198188782	1.0001139640808105
74	316.4066138267517	pulse	0	t		72.0	2.5	/experiments/knapen_AOT/AOT_stimuli/rescaled_final/0594_rv.mp4	0.0	457.11046862602234	
74	316.42217898368835	movie	1		245	72.0	2.5	/experiments/knapen_AOT/AOT_stimuli/rescaled_final/0594_rv.mp4	0.0	457.126033782959	2.5086779594421387
74	318.01490902900696	pulse	1	t		72.0	2.5	/experiments/knapen_AOT/AOT_stimuli/rescaled_final/0594_rv.mp4	0.0	458.7187638282776	
74	318.9308569431305	fix_post	2		12	72.0	2.5	/experiments/knapen_AOT/AOT_stimuli/rescaled_final/0594_rv.mp4	0.0	459.6347117424011	0.1000680923461914
75	319.0309250354767	fix_pre	0		120	73.0	2.5	/experiments/knapen_AOT/AOT_stimuli/rescaled_final/1381_rv.mp4	0.0	459.7347798347473	1.0001029968261719
75	319.60699582099915	pulse	0	t		73.0	2.5	/experiments/knapen_AOT/AOT_stimuli/rescaled_final/1381_rv.mp4	0.0	460.3108506202698	
75	320.03102803230286	movie	1		245	73.0	2.5	/experiments/knapen_AOT/AOT_stimuli/rescaled_final/1381_rv.mp4	0.0	460.7348828315735	2.5004098415374756
75	321.20712900161743	pulse	1	t		73.0	2.5	/experiments/knapen_AOT/AOT_stimuli/rescaled_final/1381_rv.mp4	0.0	461.91098380088806	
75	322.53143787384033	fix_post	2		12	73.0	2.5	/experiments/knapen_AOT/AOT_stimuli/rescaled_final/1381_rv.mp4	0.0	463.23529267311096	0.09999418258666992
76	322.631432056427	fix_pre	0		120	74.0	2.5	/experiments/knapen_AOT/AOT_stimuli/rescaled_final/1203_fw.mp4	0.0	463.33528685569763	1.000147819519043
76	322.806617975235	pulse	0	t		74.0	2.5	/experiments/knapen_AOT/AOT_stimuli/rescaled_final/1203_fw.mp4	0.0	463.5104727745056	
76	323.63157987594604	movie	1		244	74.0	2.5	/experiments/knapen_AOT/AOT_stimuli/rescaled_final/1203_fw.mp4	0.0	464.3354346752167	2.5004191398620605
76	324.40683484077454	pulse	1	t		74.0	2.5	/experiments/knapen_AOT/AOT_stimuli/rescaled_final/1203_fw.mp4	0.0	465.11068964004517	
76	326.00726294517517	pulse	1	t		74.0	2.5	/experiments/knapen_AOT/AOT_stimuli/rescaled_final/1203_fw.mp4	0.0	466.7111177444458	
76	326.1319990158081	fix_post	2		12	74.0	2.5	/experiments/knapen_AOT/AOT_stimuli/rescaled_final/1203_fw.mp4	0.0	466.83585381507874	0.10001897811889648
77	326.232017993927	fix_pre	0		119	75.0	2.5	/experiments/knapen_AOT/AOT_stimuli/rescaled_final/0177_fw.mp4	0.0	466.93587279319763	0.9917638301849365
77	327.22378182411194	movie	1		244	75.0	2.5	/experiments/knapen_AOT/AOT_stimuli/rescaled_final/0177_fw.mp4	0.0	467.92763662338257	2.5003581047058105
77	327.60788798332214	pulse	1	t		75.0	2.5	/experiments/knapen_AOT/AOT_stimuli/rescaled_final/0177_fw.mp4	0.0	468.3117427825928	
77	329.2076299190521	pulse	1	t		75.0	2.5	/experiments/knapen_AOT/AOT_stimuli/rescaled_final/0177_fw.mp4	0.0	469.91148471832275	
77	329.72413992881775	fix_post	2		12	75.0	2.5	/experiments/knapen_AOT/AOT_stimuli/rescaled_final/0177_fw.mp4	0.0	470.4279947280884	0.10006189346313477
78	329.8242018222809	fix_pre	0		119	76.0	2.5	/experiments/knapen_AOT/AOT_stimuli/rescaled_final/0418_rv.mp4	0.0	470.5280566215515	0.9918022155761719
78	330.8078508377075	pulse	0	t		76.0	2.5	/experiments/knapen_AOT/AOT_stimuli/rescaled_final/0418_rv.mp4	0.0	471.51170563697815	
78	330.81600403785706	movie	1		243	76.0	2.5	/experiments/knapen_AOT/AOT_stimuli/rescaled_final/0418_rv.mp4	0.0	471.5198588371277	2.508711814880371
78	332.4088840484619	pulse	1	t		76.0	2.5	/experiments/knapen_AOT/AOT_stimuli/rescaled_final/0418_rv.mp4	0.0	473.11273884773254	
78	333.3247158527374	fix_post	2		12	76.0	2.5	/experiments/knapen_AOT/AOT_stimuli/rescaled_final/0418_rv.mp4	0.0	474.02857065200806	0.09999608993530273
79	333.42471194267273	fix_pre	0		120	77.0	2.5	blank	1.0	474.12856674194336	1.0001609325408936
79	334.0083248615265	pulse	0	t		77.0	2.5	blank	1.0	474.7121796607971	
79	334.4248728752136	movie	1		300	77.0	2.5	blank	1.0	475.12872767448425	2.5003840923309326
79	335.60852885246277	pulse	1	t		77.0	2.5	blank	1.0	476.3123836517334	
79	336.92525696754456	fix_post	2		12	77.0	2.5	blank	1.0	477.6291117668152	0.09995794296264648
80	337.0252149105072	fix_pre	0		120	78.0	2.5	/experiments/knapen_AOT/AOT_stimuli/rescaled_final/0464_rv.mp4	0.0	477.72906970977783	1.0001559257507324
80	337.2088029384613	pulse	0	t		78.0	2.5	/experiments/knapen_AOT/AOT_stimuli/rescaled_final/0464_rv.mp4	0.0	477.91265773773193	
80	338.02537083625793	movie	1		244	78.0	2.5	/experiments/knapen_AOT/AOT_stimuli/rescaled_final/0464_rv.mp4	0.0	478.72922563552856	2.500444173812866
80	338.80905294418335	pulse	1	t		78.0	2.5	/experiments/knapen_AOT/AOT_stimuli/rescaled_final/0464_rv.mp4	0.0	479.512907743454	
80	340.41267800331116	pulse	1	t		78.0	2.5	/experiments/knapen_AOT/AOT_stimuli/rescaled_final/0464_rv.mp4	0.0	481.1165328025818	
80	340.5258150100708	fix_post	2		12	78.0	2.5	/experiments/knapen_AOT/AOT_stimuli/rescaled_final/0464_rv.mp4	0.0	481.22966980934143	0.09994292259216309
81	340.62575793266296	fix_pre	0		120	79.0	2.5	/experiments/knapen_AOT/AOT_stimuli/rescaled_final/0555_rv.mp4	0.0	481.3296127319336	1.000154972076416
81	341.6259129047394	movie	1		244	79.0	2.5	/experiments/knapen_AOT/AOT_stimuli/rescaled_final/0555_rv.mp4	0.0	482.32976770401	2.4920859336853027
81	342.0107388496399	pulse	1	t		79.0	2.5	/experiments/knapen_AOT/AOT_stimuli/rescaled_final/0555_rv.mp4	0.0	482.7145936489105	
81	343.6097459793091	pulse	1	t		79.0	2.5	/experiments/knapen_AOT/AOT_stimuli/rescaled_final/0555_rv.mp4	0.0	484.3136007785797	
81	344.1179988384247	fix_post	2		12	79.0	2.5	/experiments/knapen_AOT/AOT_stimuli/rescaled_final/0555_rv.mp4	0.0	484.8218536376953	0.10002899169921875
82	344.2180278301239	fix_pre	0		120	80.0	2.5	/experiments/knapen_AOT/AOT_stimuli/rescaled_final/1246_fw.mp4	0.0	484.92188262939453	1.0001211166381836
82	345.2099988460541	pulse	0	t		80.0	2.5	/experiments/knapen_AOT/AOT_stimuli/rescaled_final/1246_fw.mp4	0.0	485.9138536453247	
82	345.2181489467621	movie	1		248	80.0	2.5	/experiments/knapen_AOT/AOT_stimuli/rescaled_final/1246_fw.mp4	0.0	485.9220037460327	2.50871205329895
82	346.81103587150574	pulse	1	t		80.0	2.5	/experiments/knapen_AOT/AOT_stimuli/rescaled_final/1246_fw.mp4	0.0	487.51489067077637	
82	347.72686100006104	fix_post	2		12	80.0	2.5	/experiments/knapen_AOT/AOT_stimuli/rescaled_final/1246_fw.mp4	0.0	488.43071579933167	0.09997987747192383
83	347.82684087753296	fix_pre	0		120	81.0	2.5	/experiments/knapen_AOT/AOT_stimuli/rescaled_final/1198_fw.mp4	0.0	488.5306956768036	1.0002241134643555
83	348.41061902046204	pulse	0	t		81.0	2.5	/experiments/knapen_AOT/AOT_stimuli/rescaled_final/1198_fw.mp4	0.0	489.11447381973267	
83	348.8270649909973	movie	1		245	81.0	2.5	/experiments/knapen_AOT/AOT_stimuli/rescaled_final/1198_fw.mp4	0.0	489.53091979026794	2.5004220008850098
83	350.01084995269775	pulse	1	t		81.0	2.5	/experiments/knapen_AOT/AOT_stimuli/rescaled_final/1198_fw.mp4	0.0	490.7147047519684	
83	351.3274869918823	fix_post	2		12	81.0	2.5	/experiments/knapen_AOT/AOT_stimuli/rescaled_final/1198_fw.mp4	0.0	492.03134179115295	0.09991598129272461
84	351.42740297317505	fix_pre	0		120	82.0	2.5	blank	1.0	492.1312577724457	1.0001389980316162
84	351.610965013504	pulse	0	t		82.0	2.5	blank	1.0	492.31481981277466	
84	352.42754197120667	movie	1		300	82.0	2.5	blank	1.0	493.1313967704773	2.5004050731658936
84	353.2111990451813	pulse	1	t		82.0	2.5	blank	1.0	493.9150538444519	
84	354.8115358352661	pulse	1	t		82.0	2.5	blank	1.0	495.51539063453674	
84	354.92794704437256	fix_post	2		12	82.0	2.5	blank	1.0	495.6318018436432	0.09995484352111816
85	355.0279018878937	fix_pre	0		120	83.0	2.5	/experiments/knapen_AOT/AOT_stimuli/rescaled_final/1434_fw.mp4	0.0	495.7317566871643	1.000230073928833
85	356.0281319618225	movie	1		247	83.0	2.5	/experiments/knapen_AOT/AOT_stimuli/rescaled_final/1434_fw.mp4	0.0	496.73198676109314	2.4919850826263428
85	356.41285586357117	pulse	1	t		83.0	2.5	/experiments/knapen_AOT/AOT_stimuli/rescaled_final/1434_fw.mp4	0.0	497.1167106628418	
85	358.0118749141693	pulse	1	t		83.0	2.5	/experiments/knapen_AOT/AOT_stimuli/rescaled_final/1434_fw.mp4	0.0	498.71572971343994	
85	358.52011704444885	fix_post	2		12	83.0	2.5	/experiments/knapen_AOT/AOT_stimuli/rescaled_final/1434_fw.mp4	0.0	499.2239718437195	0.10014486312866211
87	358.6202619075775	stim	0		1716					499.32411670684814	14.302129983901978
87	359.6122999191284	pulse	0	t						500.31615471839905	
87	361.21247005462646	pulse	0	t						501.9163248538971	
87	362.8126459121704	pulse	0	t						503.51650071144104	
87	364.41279888153076	pulse	0	t						505.1166536808014	
87	366.01305985450745	pulse	0	t						506.7169146537781	
87	367.6133749485016	pulse	0	t						508.3172297477722	
87	369.2136068344116	pulse	0	t						509.91746163368225	
87	370.81384897232056	pulse	0	t						511.5177037715912	
87	372.4139919281006	pulse	0	t						513.1178467273712	
