trial_nr	onset	event_type	phase	response	nr_frames	movie_index	movie_duration	movie_file	blank	onset_abs	duration
0	0.1581869125366211	stim	0		16					21.86219596862793	0.13460016250610352
0	0.27629899978637695	response	0	space						21.980308055877686	
1	0.2927870750427246	stim	0		4796					21.996796131134033	39.965234994888306
1	40.25111198425293	pulse	0	t						61.95512104034424	
1	40.25802206993103	stim	1		1717					61.96203112602234	14.30824899673462
1	41.84981393814087	pulse	1	t						63.55382299423218	
1	43.44978308677673	pulse	1	t						65.15379214286804	
1	45.04979395866394	pulse	1	t						66.75380301475525	
1	46.64979791641235	pulse	1	t						68.35380697250366	
1	48.249804973602295	pulse	1	t						69.9538140296936	
1	49.849772930145264	pulse	1	t						71.55378198623657	
1	51.44975304603577	pulse	1	t						73.15376210212708	
1	53.04966592788696	pulse	1	t						74.75367498397827	
2	54.56627106666565	fix_pre	0		11	0.0	2.5	/experiments/AOT/AOT_stimuli/rescaled_final/0102_fw.mp4	0.0	76.27028012275696	0.09159588813781738
2	54.64981293678284	pulse	0	t		0.0	2.5	/experiments/AOT/AOT_stimuli/rescaled_final/0102_fw.mp4	0.0	76.35382199287415	
2	54.65786695480347	movie	1		246	0.0	2.5	/experiments/AOT/AOT_stimuli/rescaled_final/0102_fw.mp4	0.0	76.36187601089478	2.5080881118774414
2	56.249634981155396	pulse	1	t		0.0	2.5	/experiments/AOT/AOT_stimuli/rescaled_final/0102_fw.mp4	0.0	77.9536440372467	
2	57.16595506668091	fix_post	2		12	0.0	2.5	/experiments/AOT/AOT_stimuli/rescaled_final/0102_fw.mp4	0.0	78.86996412277222	0.0999598503112793
3	57.26591491699219	fix_pre	0		120	1.0	2.5	/experiments/AOT/AOT_stimuli/rescaled_final/0901_rv.mp4	0.0	78.9699239730835	0.9999442100524902
3	57.84972906112671	pulse	0	t		1.0	2.5	/experiments/AOT/AOT_stimuli/rescaled_final/0901_rv.mp4	0.0	79.55373811721802	
3	58.26585912704468	movie	1		250	1.0	2.5	/experiments/AOT/AOT_stimuli/rescaled_final/0901_rv.mp4	0.0	79.96986818313599	2.500398874282837
3	59.44955110549927	pulse	1	t		1.0	2.5	/experiments/AOT/AOT_stimuli/rescaled_final/0901_rv.mp4	0.0	81.15356016159058	
3	60.766258001327515	fix_post	2		12	1.0	2.5	/experiments/AOT/AOT_stimuli/rescaled_final/0901_rv.mp4	0.0	82.47026705741882	0.09957695007324219
4	60.86583495140076	fix_pre	0		120	2.0	2.5	/experiments/AOT/AOT_stimuli/rescaled_final/1863_fw.mp4	0.0	82.56984400749207	1.0004050731658936
4	61.049761056900024	pulse	0	t		2.0	2.5	/experiments/AOT/AOT_stimuli/rescaled_final/1863_fw.mp4	0.0	82.75377011299133	
4	61.86624002456665	movie	1		247	2.0	2.5	/experiments/AOT/AOT_stimuli/rescaled_final/1863_fw.mp4	0.0	83.57024908065796	2.4998068809509277
4	62.64966797828674	pulse	1	t		2.0	2.5	/experiments/AOT/AOT_stimuli/rescaled_final/1863_fw.mp4	0.0	84.35367703437805	
4	64.24969005584717	pulse	1	t		2.0	2.5	/experiments/AOT/AOT_stimuli/rescaled_final/1863_fw.mp4	0.0	85.95369911193848	
4	64.36604690551758	fix_post	2		12	2.0	2.5	/experiments/AOT/AOT_stimuli/rescaled_final/1863_fw.mp4	0.0	86.07005596160889	0.10016417503356934
5	64.46621108055115	fix_pre	0		120	3.0	2.5	/experiments/AOT/AOT_stimuli/rescaled_final/0766_fw.mp4	0.0	86.17022013664246	0.9999220371246338
5	65.46613311767578	movie	1		247	3.0	2.5	/experiments/AOT/AOT_stimuli/rescaled_final/0766_fw.mp4	0.0	87.17014217376709	2.5001039505004883
5	65.84923911094666	pulse	1	t		3.0	2.5	/experiments/AOT/AOT_stimuli/rescaled_final/0766_fw.mp4	0.0	87.55324816703796	
5	67.44962406158447	pulse	1	t		3.0	2.5	/experiments/AOT/AOT_stimuli/rescaled_final/0766_fw.mp4	0.0	89.15363311767578	
5	67.96623706817627	fix_post	2		12	3.0	2.5	/experiments/AOT/AOT_stimuli/rescaled_final/0766_fw.mp4	0.0	89.67024612426758	0.09988999366760254
6	68.06612706184387	fix_pre	0		119	4.0	2.5	/experiments/AOT/AOT_stimuli/rescaled_final/0948_fw.mp4	0.0	89.77013611793518	0.9917149543762207
6	69.04969191551208	pulse	0	t		4.0	2.5	/experiments/AOT/AOT_stimuli/rescaled_final/0948_fw.mp4	0.0	90.7537009716034	
6	69.05784201622009	movie	1		245	4.0	2.5	/experiments/AOT/AOT_stimuli/rescaled_final/0948_fw.mp4	0.0	90.7618510723114	2.5082480907440186
6	70.65112209320068	pulse	1	t		4.0	2.5	/experiments/AOT/AOT_stimuli/rescaled_final/0948_fw.mp4	0.0	92.35513114929199	
6	71.56609010696411	fix_post	2		12	4.0	2.5	/experiments/AOT/AOT_stimuli/rescaled_final/0948_fw.mp4	0.0	93.27009916305542	0.10008597373962402
7	71.66617608070374	fix_pre	0		120	5.0	2.5	/experiments/AOT/AOT_stimuli/rescaled_final/1005_rv.mp4	0.0	93.37018513679504	0.9996538162231445
7	72.24962496757507	pulse	0	t		5.0	2.5	/experiments/AOT/AOT_stimuli/rescaled_final/1005_rv.mp4	0.0	93.95363402366638	
7	72.66582989692688	movie	1		245	5.0	2.5	/experiments/AOT/AOT_stimuli/rescaled_final/1005_rv.mp4	0.0	94.36983895301819	2.5003840923309326
7	73.84976291656494	pulse	1	t		5.0	2.5	/experiments/AOT/AOT_stimuli/rescaled_final/1005_rv.mp4	0.0	95.55377197265625	
7	75.16621398925781	fix_post	2		12	5.0	2.5	/experiments/AOT/AOT_stimuli/rescaled_final/1005_rv.mp4	0.0	96.87022304534912	0.0999000072479248
8	75.26611399650574	fix_pre	0		120	6.0	2.5	blank	1.0	96.97012305259705	0.9999890327453613
8	75.44968295097351	pulse	0	t		6.0	2.5	blank	1.0	97.15369200706482	
8	76.2661030292511	movie	1		300	6.0	2.5	blank	1.0	97.97011208534241	2.499980926513672
8	77.04964590072632	pulse	1	t		6.0	2.5	blank	1.0	98.75365495681763	
8	78.64960408210754	pulse	1	t		6.0	2.5	blank	1.0	100.35361313819885	
8	78.76608395576477	fix_post	2		12	6.0	2.5	blank	1.0	100.47009301185608	0.10004210472106934
9	78.86612606048584	fix_pre	0		120	7.0	2.5	/experiments/AOT/AOT_stimuli/rescaled_final/1759_fw.mp4	0.0	100.57013511657715	0.9999790191650391
9	79.86610507965088	movie	1		246	7.0	2.5	/experiments/AOT/AOT_stimuli/rescaled_final/1759_fw.mp4	0.0	101.57011413574219	2.499581813812256
9	80.2492790222168	pulse	1	t		7.0	2.5	/experiments/AOT/AOT_stimuli/rescaled_final/1759_fw.mp4	0.0	101.9532880783081	
9	81.84964394569397	pulse	1	t		7.0	2.5	/experiments/AOT/AOT_stimuli/rescaled_final/1759_fw.mp4	0.0	103.55365300178528	
9	82.36568689346313	fix_post	2		12	7.0	2.5	/experiments/AOT/AOT_stimuli/rescaled_final/1759_fw.mp4	0.0	104.06969594955444	0.10036516189575195
10	82.46605205535889	fix_pre	0		119	8.0	2.5	/experiments/AOT/AOT_stimuli/rescaled_final/0252_rv.mp4	0.0	104.1700611114502	0.9916908740997314
10	83.44967198371887	pulse	0	t		8.0	2.5	/experiments/AOT/AOT_stimuli/rescaled_final/0252_rv.mp4	0.0	105.15368103981018	
10	83.45774292945862	movie	1		245	8.0	2.5	/experiments/AOT/AOT_stimuli/rescaled_final/0252_rv.mp4	0.0	105.16175198554993	2.507871150970459
10	85.0494019985199	pulse	1	t		8.0	2.5	/experiments/AOT/AOT_stimuli/rescaled_final/0252_rv.mp4	0.0	106.7534110546112	
10	85.96561408042908	fix_post	2		12	8.0	2.5	/experiments/AOT/AOT_stimuli/rescaled_final/0252_rv.mp4	0.0	107.66962313652039	0.10047483444213867
11	86.06608891487122	fix_pre	0		120	9.0	2.5	/experiments/AOT/AOT_stimuli/rescaled_final/1078_rv.mp4	0.0	107.77009797096252	0.9999160766601562
11	86.64968490600586	pulse	0	t		9.0	2.5	/experiments/AOT/AOT_stimuli/rescaled_final/1078_rv.mp4	0.0	108.35369396209717	
11	87.06600499153137	movie	1		240	9.0	2.5	/experiments/AOT/AOT_stimuli/rescaled_final/1078_rv.mp4	0.0	108.77001404762268	2.500113010406494
11	88.24962091445923	pulse	1	t		9.0	2.5	/experiments/AOT/AOT_stimuli/rescaled_final/1078_rv.mp4	0.0	109.95362997055054	
11	89.56611800193787	fix_post	2		12	9.0	2.5	/experiments/AOT/AOT_stimuli/rescaled_final/1078_rv.mp4	0.0	111.27012705802917	0.10001492500305176
12	89.66613292694092	fix_pre	0		120	10.0	2.5	/experiments/AOT/AOT_stimuli/rescaled_final/0986_rv.mp4	0.0	111.37014198303223	0.9999411106109619
12	89.84962010383606	pulse	0	t		10.0	2.5	/experiments/AOT/AOT_stimuli/rescaled_final/0986_rv.mp4	0.0	111.55362915992737	
12	90.66607403755188	movie	1		246	10.0	2.5	/experiments/AOT/AOT_stimuli/rescaled_final/0986_rv.mp4	0.0	112.37008309364319	2.499937057495117
12	91.44954109191895	pulse	1	t		10.0	2.5	/experiments/AOT/AOT_stimuli/rescaled_final/0986_rv.mp4	0.0	113.15355014801025	
12	93.04819989204407	pulse	1	t		10.0	2.5	/experiments/AOT/AOT_stimuli/rescaled_final/0986_rv.mp4	0.0	114.75220894813538	
12	93.166011095047	fix_post	2		12	10.0	2.5	/experiments/AOT/AOT_stimuli/rescaled_final/0986_rv.mp4	0.0	114.8700201511383	0.09996485710144043
13	93.26597595214844	fix_pre	0		120	11.0	2.5	/experiments/AOT/AOT_stimuli/rescaled_final/1772_rv.mp4	0.0	114.96998500823975	1.0000231266021729
13	94.26599907875061	movie	1		243	11.0	2.5	/experiments/AOT/AOT_stimuli/rescaled_final/1772_rv.mp4	0.0	115.97000813484192	2.4999568462371826
13	94.6493399143219	pulse	1	t		11.0	2.5	/experiments/AOT/AOT_stimuli/rescaled_final/1772_rv.mp4	0.0	116.35334897041321	
13	96.2495059967041	pulse	1	t		11.0	2.5	/experiments/AOT/AOT_stimuli/rescaled_final/1772_rv.mp4	0.0	117.95351505279541	
13	96.7659559249878	fix_post	2		12	11.0	2.5	/experiments/AOT/AOT_stimuli/rescaled_final/1772_rv.mp4	0.0	118.4699649810791	0.10009598731994629
14	96.86605191230774	fix_pre	0		119	12.0	2.5	blank	1.0	118.57006096839905	0.9916141033172607
14	97.84947395324707	pulse	0	t		12.0	2.5	blank	1.0	119.55348300933838	
14	97.857666015625	movie	1		301	12.0	2.5	blank	1.0	119.56167507171631	2.5083229541778564
14	99.44954204559326	pulse	1	t		12.0	2.5	blank	1.0	121.15355110168457	
14	100.36598896980286	fix_post	2		12	12.0	2.5	blank	1.0	122.06999802589417	0.10001492500305176
15	100.46600389480591	fix_pre	0		120	13.0	2.5	/experiments/AOT/AOT_stimuli/rescaled_final/1773_fw.mp4	0.0	122.17001295089722	1.0000262260437012
15	101.04958391189575	pulse	0	t		13.0	2.5	/experiments/AOT/AOT_stimuli/rescaled_final/1773_fw.mp4	0.0	122.75359296798706	
15	101.46603012084961	movie	1		244	13.0	2.5	/experiments/AOT/AOT_stimuli/rescaled_final/1773_fw.mp4	0.0	123.17003917694092	2.4999778270721436
15	102.64962196350098	pulse	1	t		13.0	2.5	/experiments/AOT/AOT_stimuli/rescaled_final/1773_fw.mp4	0.0	124.35363101959229	
15	103.96600794792175	fix_post	2		12	13.0	2.5	/experiments/AOT/AOT_stimuli/rescaled_final/1773_fw.mp4	0.0	125.67001700401306	0.09956216812133789
16	104.06557011604309	fix_pre	0		120	14.0	2.5	/experiments/AOT/AOT_stimuli/rescaled_final/0124_rv.mp4	0.0	125.7695791721344	1.0003509521484375
16	104.24958395957947	pulse	0	t		14.0	2.5	/experiments/AOT/AOT_stimuli/rescaled_final/0124_rv.mp4	0.0	125.95359301567078	
16	105.06592106819153	movie	1		244	14.0	2.5	/experiments/AOT/AOT_stimuli/rescaled_final/0124_rv.mp4	0.0	126.76993012428284	2.500108003616333
16	105.84952998161316	pulse	1	t		14.0	2.5	/experiments/AOT/AOT_stimuli/rescaled_final/0124_rv.mp4	0.0	127.55353903770447	
16	107.4478349685669	pulse	1	t		14.0	2.5	/experiments/AOT/AOT_stimuli/rescaled_final/0124_rv.mp4	0.0	129.1518440246582	
16	107.56602907180786	fix_post	2		12	14.0	2.5	/experiments/AOT/AOT_stimuli/rescaled_final/0124_rv.mp4	0.0	129.27003812789917	0.09997391700744629
17	107.66600298881531	fix_pre	0		120	15.0	2.5	/experiments/AOT/AOT_stimuli/rescaled_final/0814_fw.mp4	0.0	129.37001204490662	0.9999690055847168
17	108.66597199440002	movie	1		245	15.0	2.5	/experiments/AOT/AOT_stimuli/rescaled_final/0814_fw.mp4	0.0	130.36998105049133	2.499622106552124
17	109.04927611351013	pulse	1	t		15.0	2.5	/experiments/AOT/AOT_stimuli/rescaled_final/0814_fw.mp4	0.0	130.75328516960144	
17	110.6494300365448	pulse	1	t		15.0	2.5	/experiments/AOT/AOT_stimuli/rescaled_final/0814_fw.mp4	0.0	132.3534390926361	
17	111.16559410095215	fix_post	2		12	15.0	2.5	/experiments/AOT/AOT_stimuli/rescaled_final/0814_fw.mp4	0.0	132.86960315704346	0.10039401054382324
18	111.26598811149597	fix_pre	0		119	16.0	2.5	/experiments/AOT/AOT_stimuli/rescaled_final/1859_fw.mp4	0.0	132.96999716758728	0.9916548728942871
18	112.24903392791748	pulse	0	t		16.0	2.5	/experiments/AOT/AOT_stimuli/rescaled_final/1859_fw.mp4	0.0	133.9530429840088	
18	112.25764298439026	movie	1		244	16.0	2.5	/experiments/AOT/AOT_stimuli/rescaled_final/1859_fw.mp4	0.0	133.96165204048157	2.5085129737854004
18	113.8494200706482	pulse	1	t		16.0	2.5	/experiments/AOT/AOT_stimuli/rescaled_final/1859_fw.mp4	0.0	135.5534291267395	
18	114.76615595817566	fix_post	2		12	16.0	2.5	/experiments/AOT/AOT_stimuli/rescaled_final/1859_fw.mp4	0.0	136.47016501426697	0.10033893585205078
19	114.86649489402771	fix_pre	0		120	17.0	2.5	/experiments/AOT/AOT_stimuli/rescaled_final/1407_fw.mp4	0.0	136.57050395011902	0.9994029998779297
19	115.4496819972992	pulse	0	t		17.0	2.5	/experiments/AOT/AOT_stimuli/rescaled_final/1407_fw.mp4	0.0	137.1536910533905	
19	115.86589789390564	movie	1		243	17.0	2.5	/experiments/AOT/AOT_stimuli/rescaled_final/1407_fw.mp4	0.0	137.56990694999695	2.4996681213378906
19	117.04956793785095	pulse	1	t		17.0	2.5	/experiments/AOT/AOT_stimuli/rescaled_final/1407_fw.mp4	0.0	138.75357699394226	
19	118.36556601524353	fix_post	2		12	17.0	2.5	/experiments/AOT/AOT_stimuli/rescaled_final/1407_fw.mp4	0.0	140.06957507133484	0.10042691230773926
20	118.46599292755127	fix_pre	0		120	18.0	2.5	/experiments/AOT/AOT_stimuli/rescaled_final/1151_rv.mp4	0.0	140.17000198364258	0.9995090961456299
20	118.64945912361145	pulse	0	t		18.0	2.5	/experiments/AOT/AOT_stimuli/rescaled_final/1151_rv.mp4	0.0	140.35346817970276	
20	119.4655020236969	movie	1		244	18.0	2.5	/experiments/AOT/AOT_stimuli/rescaled_final/1151_rv.mp4	0.0	141.1695110797882	2.500433921813965
20	120.24952101707458	pulse	1	t		18.0	2.5	/experiments/AOT/AOT_stimuli/rescaled_final/1151_rv.mp4	0.0	141.9535300731659	
20	121.84832191467285	pulse	1	t		18.0	2.5	/experiments/AOT/AOT_stimuli/rescaled_final/1151_rv.mp4	0.0	143.55233097076416	
20	121.96593594551086	fix_post	2		12	18.0	2.5	/experiments/AOT/AOT_stimuli/rescaled_final/1151_rv.mp4	0.0	143.66994500160217	0.09995508193969727
21	122.06589102745056	fix_pre	0		120	19.0	2.5	/experiments/AOT/AOT_stimuli/rescaled_final/1808_fw.mp4	0.0	143.76990008354187	0.9999740123748779
21	123.06586503982544	movie	1		243	19.0	2.5	/experiments/AOT/AOT_stimuli/rescaled_final/1808_fw.mp4	0.0	144.76987409591675	2.4999589920043945
21	123.44910407066345	pulse	1	t		19.0	2.5	/experiments/AOT/AOT_stimuli/rescaled_final/1808_fw.mp4	0.0	145.15311312675476	
21	125.04935693740845	pulse	1	t		19.0	2.5	/experiments/AOT/AOT_stimuli/rescaled_final/1808_fw.mp4	0.0	146.75336599349976	
21	125.56582403182983	fix_post	2		12	19.0	2.5	/experiments/AOT/AOT_stimuli/rescaled_final/1808_fw.mp4	0.0	147.26983308792114	0.1000359058380127
22	125.66585993766785	fix_pre	0		119	20.0	2.5	blank	1.0	147.36986899375916	0.9917070865631104
22	126.6493489742279	pulse	0	t		20.0	2.5	blank	1.0	148.3533580303192	
22	126.65756702423096	movie	1		301	20.0	2.5	blank	1.0	148.36157608032227	2.507965087890625
22	128.24941301345825	pulse	1	t		20.0	2.5	blank	1.0	149.95342206954956	
22	129.16553211212158	fix_post	2		12	20.0	2.5	blank	1.0	150.8695411682129	0.10032486915588379
23	129.26585698127747	fix_pre	0		120	21.0	2.5	/experiments/AOT/AOT_stimuli/rescaled_final/1778_rv.mp4	0.0	150.96986603736877	1.0000379085540771
23	129.8493299484253	pulse	0	t		21.0	2.5	/experiments/AOT/AOT_stimuli/rescaled_final/1778_rv.mp4	0.0	151.5533390045166	
23	130.26589488983154	movie	1		246	21.0	2.5	/experiments/AOT/AOT_stimuli/rescaled_final/1778_rv.mp4	0.0	151.96990394592285	2.499577045440674
23	131.44943690299988	pulse	1	t		21.0	2.5	/experiments/AOT/AOT_stimuli/rescaled_final/1778_rv.mp4	0.0	153.1534459590912	
23	132.76547193527222	fix_post	2		12	21.0	2.5	/experiments/AOT/AOT_stimuli/rescaled_final/1778_rv.mp4	0.0	154.46948099136353	0.10011005401611328
24	132.86558198928833	fix_pre	0		120	22.0	2.5	/experiments/AOT/AOT_stimuli/rescaled_final/1797_fw.mp4	0.0	154.56959104537964	1.000291109085083
24	133.0493869781494	pulse	0	t		22.0	2.5	/experiments/AOT/AOT_stimuli/rescaled_final/1797_fw.mp4	0.0	154.75339603424072	
24	133.8658730983734	movie	1		247	22.0	2.5	/experiments/AOT/AOT_stimuli/rescaled_final/1797_fw.mp4	0.0	155.56988215446472	2.4999868869781494
24	134.6494529247284	pulse	1	t		22.0	2.5	/experiments/AOT/AOT_stimuli/rescaled_final/1797_fw.mp4	0.0	156.3534619808197	
24	136.24934697151184	pulse	1	t		22.0	2.5	/experiments/AOT/AOT_stimuli/rescaled_final/1797_fw.mp4	0.0	157.95335602760315	
24	136.36585998535156	fix_post	2		12	22.0	2.5	/experiments/AOT/AOT_stimuli/rescaled_final/1797_fw.mp4	0.0	158.06986904144287	0.09997105598449707
25	136.46583104133606	fix_pre	0		120	23.0	2.5	/experiments/AOT/AOT_stimuli/rescaled_final/1808_rv.mp4	0.0	158.16984009742737	1.0000050067901611
25	137.46583604812622	movie	1		244	23.0	2.5	/experiments/AOT/AOT_stimuli/rescaled_final/1808_rv.mp4	0.0	159.16984510421753	2.499971866607666
25	137.84922790527344	pulse	1	t		23.0	2.5	/experiments/AOT/AOT_stimuli/rescaled_final/1808_rv.mp4	0.0	159.55323696136475	
25	139.4493019580841	pulse	1	t		23.0	2.5	/experiments/AOT/AOT_stimuli/rescaled_final/1808_rv.mp4	0.0	161.15331101417542	
25	139.9658079147339	fix_post	2		12	23.0	2.5	/experiments/AOT/AOT_stimuli/rescaled_final/1808_rv.mp4	0.0	161.6698169708252	0.1000821590423584
26	140.06589007377625	fix_pre	0		119	24.0	2.5	/experiments/AOT/AOT_stimuli/rescaled_final/1858_fw.mp4	0.0	161.76989912986755	0.9915709495544434
26	141.04933404922485	pulse	0	t		24.0	2.5	/experiments/AOT/AOT_stimuli/rescaled_final/1858_fw.mp4	0.0	162.75334310531616	
26	141.0574610233307	movie	1		244	24.0	2.5	/experiments/AOT/AOT_stimuli/rescaled_final/1858_fw.mp4	0.0	162.761470079422	2.50803804397583
26	142.64914298057556	pulse	1	t		24.0	2.5	/experiments/AOT/AOT_stimuli/rescaled_final/1858_fw.mp4	0.0	164.35315203666687	
26	143.56549906730652	fix_post	2		12	24.0	2.5	/experiments/AOT/AOT_stimuli/rescaled_final/1858_fw.mp4	0.0	165.26950812339783	0.10027599334716797
27	143.6657750606537	fix_pre	0		120	25.0	2.5	/experiments/AOT/AOT_stimuli/rescaled_final/0409_fw.mp4	0.0	165.369784116745	0.9999918937683105
27	144.24925088882446	pulse	0	t		25.0	2.5	/experiments/AOT/AOT_stimuli/rescaled_final/0409_fw.mp4	0.0	165.95325994491577	
27	144.665766954422	movie	1		244	25.0	2.5	/experiments/AOT/AOT_stimuli/rescaled_final/0409_fw.mp4	0.0	166.3697760105133	2.4996321201324463
27	145.84941411018372	pulse	1	t		25.0	2.5	/experiments/AOT/AOT_stimuli/rescaled_final/0409_fw.mp4	0.0	167.55342316627502	
27	147.16539907455444	fix_post	2		12	25.0	2.5	/experiments/AOT/AOT_stimuli/rescaled_final/0409_fw.mp4	0.0	168.86940813064575	0.10031795501708984
28	147.26571702957153	fix_pre	0		120	26.0	2.5	blank	1.0	168.96972608566284	1.0000810623168945
28	147.44932508468628	pulse	0	t		26.0	2.5	blank	1.0	169.1533341407776	
28	148.26579809188843	movie	1		300	26.0	2.5	blank	1.0	169.96980714797974	2.5000438690185547
28	149.04930710792542	pulse	1	t		26.0	2.5	blank	1.0	170.75331616401672	
28	150.6492669582367	pulse	1	t		26.0	2.5	blank	1.0	172.353276014328	
28	150.76584196090698	fix_post	2		12	26.0	2.5	blank	1.0	172.4698510169983	0.09989213943481445
29	150.8657341003418	fix_pre	0		120	27.0	2.5	/experiments/AOT/AOT_stimuli/rescaled_final/0552_rv.mp4	0.0	172.5697431564331	1.000053882598877
29	151.86578798294067	movie	1		247	27.0	2.5	/experiments/AOT/AOT_stimuli/rescaled_final/0552_rv.mp4	0.0	173.56979703903198	2.4999849796295166
29	152.24887704849243	pulse	1	t		27.0	2.5	/experiments/AOT/AOT_stimuli/rescaled_final/0552_rv.mp4	0.0	173.95288610458374	
29	153.84923005104065	pulse	1	t		27.0	2.5	/experiments/AOT/AOT_stimuli/rescaled_final/0552_rv.mp4	0.0	175.55323910713196	
29	154.3657729625702	fix_post	2		12	27.0	2.5	/experiments/AOT/AOT_stimuli/rescaled_final/0552_rv.mp4	0.0	176.0697820186615	0.10009098052978516
30	154.46586394309998	fix_pre	0		119	28.0	2.5	/experiments/AOT/AOT_stimuli/rescaled_final/1286_rv.mp4	0.0	176.16987299919128	0.99161696434021
30	155.44929790496826	pulse	0	t		28.0	2.5	/experiments/AOT/AOT_stimuli/rescaled_final/1286_rv.mp4	0.0	177.15330696105957	
30	155.45748090744019	movie	1		247	28.0	2.5	/experiments/AOT/AOT_stimuli/rescaled_final/1286_rv.mp4	0.0	177.1614899635315	2.5079081058502197
30	157.04942297935486	pulse	1	t		28.0	2.5	/experiments/AOT/AOT_stimuli/rescaled_final/1286_rv.mp4	0.0	178.75343203544617	
30	157.9653890132904	fix_post	2		12	28.0	2.5	/experiments/AOT/AOT_stimuli/rescaled_final/1286_rv.mp4	0.0	179.6693980693817	0.10038399696350098
31	158.0657730102539	fix_pre	0		120	29.0	2.5	/experiments/AOT/AOT_stimuli/rescaled_final/0840_rv.mp4	0.0	179.76978206634521	0.9999170303344727
31	158.64924097061157	pulse	0	t		29.0	2.5	/experiments/AOT/AOT_stimuli/rescaled_final/0840_rv.mp4	0.0	180.35325002670288	
31	159.06569004058838	movie	1		245	29.0	2.5	/experiments/AOT/AOT_stimuli/rescaled_final/0840_rv.mp4	0.0	180.7696990966797	2.499603033065796
31	160.24935793876648	pulse	1	t		29.0	2.5	/experiments/AOT/AOT_stimuli/rescaled_final/0840_rv.mp4	0.0	181.9533669948578	
31	161.56529307365417	fix_post	2		12	29.0	2.5	/experiments/AOT/AOT_stimuli/rescaled_final/0840_rv.mp4	0.0	183.26930212974548	0.10039091110229492
32	161.66568398475647	fix_pre	0		120	30.0	2.5	/experiments/AOT/AOT_stimuli/rescaled_final/0385_fw.mp4	0.0	183.36969304084778	1.0000810623168945
32	161.8492500782013	pulse	0	t		30.0	2.5	/experiments/AOT/AOT_stimuli/rescaled_final/0385_fw.mp4	0.0	183.5532591342926	
32	162.66576504707336	movie	1		244	30.0	2.5	/experiments/AOT/AOT_stimuli/rescaled_final/0385_fw.mp4	0.0	184.36977410316467	2.499985933303833
32	163.44919395446777	pulse	1	t		30.0	2.5	/experiments/AOT/AOT_stimuli/rescaled_final/0385_fw.mp4	0.0	185.15320301055908	
32	165.04922103881836	pulse	1	t		30.0	2.5	/experiments/AOT/AOT_stimuli/rescaled_final/0385_fw.mp4	0.0	186.75323009490967	
32	165.1657509803772	fix_post	2		12	30.0	2.5	/experiments/AOT/AOT_stimuli/rescaled_final/0385_fw.mp4	0.0	186.8697600364685	0.0999760627746582
33	165.26572704315186	fix_pre	0		120	31.0	2.5	/experiments/AOT/AOT_stimuli/rescaled_final/1461_fw.mp4	0.0	186.96973609924316	0.9999659061431885
33	166.26569294929504	movie	1		245	31.0	2.5	/experiments/AOT/AOT_stimuli/rescaled_final/1461_fw.mp4	0.0	187.96970200538635	2.500077962875366
33	166.64872789382935	pulse	1	t		31.0	2.5	/experiments/AOT/AOT_stimuli/rescaled_final/1461_fw.mp4	0.0	188.35273694992065	
33	168.24922609329224	pulse	1	t		31.0	2.5	/experiments/AOT/AOT_stimuli/rescaled_final/1461_fw.mp4	0.0	189.95323514938354	
33	168.7657709121704	fix_post	2		12	31.0	2.5	/experiments/AOT/AOT_stimuli/rescaled_final/1461_fw.mp4	0.0	190.46977996826172	0.09955716133117676
34	168.8653280735016	fix_pre	0		119	32.0	2.5	/experiments/AOT/AOT_stimuli/rescaled_final/0485_rv.mp4	0.0	190.5693371295929	0.9916949272155762
34	169.84882497787476	pulse	0	t		32.0	2.5	/experiments/AOT/AOT_stimuli/rescaled_final/0485_rv.mp4	0.0	191.55283403396606	
34	169.85702300071716	movie	1		244	32.0	2.5	/experiments/AOT/AOT_stimuli/rescaled_final/0485_rv.mp4	0.0	191.56103205680847	2.5087220668792725
34	171.4491729736328	pulse	1	t		32.0	2.5	/experiments/AOT/AOT_stimuli/rescaled_final/0485_rv.mp4	0.0	193.15318202972412	
34	172.36574506759644	fix_post	2		12	32.0	2.5	/experiments/AOT/AOT_stimuli/rescaled_final/0485_rv.mp4	0.0	194.06975412368774	0.0999748706817627
35	172.4657199382782	fix_pre	0		120	33.0	2.5	blank	1.0	194.1697289943695	0.9999749660491943
35	173.04917812347412	pulse	0	t		33.0	2.5	blank	1.0	194.75318717956543	
35	173.4656949043274	movie	1		300	33.0	2.5	blank	1.0	195.1697039604187	2.499993085861206
35	174.64910793304443	pulse	1	t		33.0	2.5	blank	1.0	196.35311698913574	
35	175.9656879901886	fix_post	2		12	33.0	2.5	blank	1.0	197.6696970462799	0.09992694854736328
36	176.06561493873596	fix_pre	0		120	34.0	2.5	/experiments/AOT/AOT_stimuli/rescaled_final/1151_rv.mp4	0.0	197.76962399482727	1.0001351833343506
36	176.24906706809998	pulse	0	t		34.0	2.5	/experiments/AOT/AOT_stimuli/rescaled_final/1151_rv.mp4	0.0	197.95307612419128	
36	177.0657501220703	movie	1		244	34.0	2.5	/experiments/AOT/AOT_stimuli/rescaled_final/1151_rv.mp4	0.0	198.76975917816162	2.4998769760131836
36	177.84913301467896	pulse	1	t		34.0	2.5	/experiments/AOT/AOT_stimuli/rescaled_final/1151_rv.mp4	0.0	199.55314207077026	
36	179.44770908355713	pulse	1	t		34.0	2.5	/experiments/AOT/AOT_stimuli/rescaled_final/1151_rv.mp4	0.0	201.15171813964844	
36	179.5656270980835	fix_post	2		12	34.0	2.5	/experiments/AOT/AOT_stimuli/rescaled_final/1151_rv.mp4	0.0	201.2696361541748	0.10002589225769043
37	179.6656529903412	fix_pre	0		120	35.0	2.5	/experiments/AOT/AOT_stimuli/rescaled_final/0017_fw.mp4	0.0	201.3696620464325	1.0000240802764893
37	180.66567707061768	movie	1		245	35.0	2.5	/experiments/AOT/AOT_stimuli/rescaled_final/0017_fw.mp4	0.0	202.36968612670898	2.4998488426208496
37	181.04867506027222	pulse	1	t		35.0	2.5	/experiments/AOT/AOT_stimuli/rescaled_final/0017_fw.mp4	0.0	202.75268411636353	
37	182.6490979194641	pulse	1	t		35.0	2.5	/experiments/AOT/AOT_stimuli/rescaled_final/0017_fw.mp4	0.0	204.35310697555542	
37	183.16552591323853	fix_post	2		12	35.0	2.5	/experiments/AOT/AOT_stimuli/rescaled_final/0017_fw.mp4	0.0	204.86953496932983	0.10005497932434082
38	183.26558089256287	fix_pre	0		119	36.0	2.5	/experiments/AOT/AOT_stimuli/rescaled_final/0986_fw.mp4	0.0	204.96958994865417	0.9917092323303223
38	184.24907398223877	pulse	0	t		36.0	2.5	/experiments/AOT/AOT_stimuli/rescaled_final/0986_fw.mp4	0.0	205.95308303833008	
38	184.2572901248932	movie	1		245	36.0	2.5	/experiments/AOT/AOT_stimuli/rescaled_final/0986_fw.mp4	0.0	205.9612991809845	2.5083348751068115
38	185.84869003295898	pulse	1	t		36.0	2.5	/experiments/AOT/AOT_stimuli/rescaled_final/0986_fw.mp4	0.0	207.5526990890503	
38	186.765625	fix_post	2		12	36.0	2.5	/experiments/AOT/AOT_stimuli/rescaled_final/0986_fw.mp4	0.0	208.4696340560913	0.09953904151916504
39	186.86516404151917	fix_pre	0		120	37.0	2.5	/experiments/AOT/AOT_stimuli/rescaled_final/1433_fw.mp4	0.0	208.56917309761047	1.0004949569702148
39	187.44913411140442	pulse	0	t		37.0	2.5	/experiments/AOT/AOT_stimuli/rescaled_final/1433_fw.mp4	0.0	209.15314316749573	
39	187.86565899848938	movie	1		243	37.0	2.5	/experiments/AOT/AOT_stimuli/rescaled_final/1433_fw.mp4	0.0	209.5696680545807	2.499821901321411
39	189.04916501045227	pulse	1	t		37.0	2.5	/experiments/AOT/AOT_stimuli/rescaled_final/1433_fw.mp4	0.0	210.75317406654358	
39	190.3654808998108	fix_post	2		12	37.0	2.5	/experiments/AOT/AOT_stimuli/rescaled_final/1433_fw.mp4	0.0	212.0694899559021	0.10009312629699707
40	190.4655740261078	fix_pre	0		120	38.0	2.5	/experiments/AOT/AOT_stimuli/rescaled_final/1779_rv.mp4	0.0	212.1695830821991	0.9999399185180664
40	190.64902806282043	pulse	0	t		38.0	2.5	/experiments/AOT/AOT_stimuli/rescaled_final/1779_rv.mp4	0.0	212.35303711891174	
40	191.46551394462585	movie	1		243	38.0	2.5	/experiments/AOT/AOT_stimuli/rescaled_final/1779_rv.mp4	0.0	213.16952300071716	2.499605178833008
40	192.2490999698639	pulse	1	t		38.0	2.5	/experiments/AOT/AOT_stimuli/rescaled_final/1779_rv.mp4	0.0	213.9531090259552	
40	193.8475890159607	pulse	1	t		38.0	2.5	/experiments/AOT/AOT_stimuli/rescaled_final/1779_rv.mp4	0.0	215.551598072052	
40	193.96511912345886	fix_post	2		12	38.0	2.5	/experiments/AOT/AOT_stimuli/rescaled_final/1779_rv.mp4	0.0	215.66912817955017	0.10036778450012207
41	194.06548690795898	fix_pre	0		120	39.0	2.5	/experiments/AOT/AOT_stimuli/rescaled_final/1728_fw.mp4	0.0	215.7694959640503	0.9996922016143799
41	195.06517910957336	movie	1		246	39.0	2.5	/experiments/AOT/AOT_stimuli/rescaled_final/1728_fw.mp4	0.0	216.76918816566467	2.499905824661255
41	195.44871497154236	pulse	1	t		39.0	2.5	/experiments/AOT/AOT_stimuli/rescaled_final/1728_fw.mp4	0.0	217.15272402763367	
41	197.0491030216217	pulse	1	t		39.0	2.5	/experiments/AOT/AOT_stimuli/rescaled_final/1728_fw.mp4	0.0	218.753112077713	
41	197.56508493423462	fix_post	2		12	39.0	2.5	/experiments/AOT/AOT_stimuli/rescaled_final/1728_fw.mp4	0.0	219.26909399032593	0.10049200057983398
42	197.66557693481445	fix_pre	0		119	40.0	2.5	/experiments/AOT/AOT_stimuli/rescaled_final/0430_fw.mp4	0.0	219.36958599090576	0.9915931224822998
42	198.6490249633789	pulse	0	t		40.0	2.5	/experiments/AOT/AOT_stimuli/rescaled_final/0430_fw.mp4	0.0	220.35303401947021	
42	198.65717005729675	movie	1		249	40.0	2.5	/experiments/AOT/AOT_stimuli/rescaled_final/0430_fw.mp4	0.0	220.36117911338806	2.508357048034668
42	200.24845099449158	pulse	1	t		40.0	2.5	/experiments/AOT/AOT_stimuli/rescaled_final/0430_fw.mp4	0.0	221.95246005058289	
42	201.16552710533142	fix_post	2		12	40.0	2.5	/experiments/AOT/AOT_stimuli/rescaled_final/0430_fw.mp4	0.0	222.86953616142273	0.09998083114624023
43	201.26550793647766	fix_pre	0		120	41.0	2.5	/experiments/AOT/AOT_stimuli/rescaled_final/2139_rv.mp4	0.0	222.96951699256897	0.9999699592590332
43	201.8504409790039	pulse	0	t		41.0	2.5	/experiments/AOT/AOT_stimuli/rescaled_final/2139_rv.mp4	0.0	223.55445003509521	
43	202.2654778957367	movie	1		247	41.0	2.5	/experiments/AOT/AOT_stimuli/rescaled_final/2139_rv.mp4	0.0	223.969486951828	2.4996230602264404
43	203.44911789894104	pulse	1	t		41.0	2.5	/experiments/AOT/AOT_stimuli/rescaled_final/2139_rv.mp4	0.0	225.15312695503235	
43	204.76510095596313	fix_post	2		12	41.0	2.5	/experiments/AOT/AOT_stimuli/rescaled_final/2139_rv.mp4	0.0	226.46911001205444	0.1000220775604248
44	204.86512303352356	fix_pre	0		120	42.0	2.5	blank	1.0	226.56913208961487	1.000458002090454
44	205.0490369796753	pulse	0	t		42.0	2.5	blank	1.0	226.7530460357666	
44	205.865581035614	movie	1		300	42.0	2.5	blank	1.0	227.56959009170532	2.499875068664551
44	206.64904499053955	pulse	1	t		42.0	2.5	blank	1.0	228.35305404663086	
44	208.24921298027039	pulse	1	t		42.0	2.5	blank	1.0	229.9532220363617	
44	208.36545610427856	fix_post	2		12	42.0	2.5	blank	1.0	230.06946516036987	0.1000218391418457
45	208.4654779434204	fix_pre	0		120	43.0	2.5	/experiments/AOT/AOT_stimuli/rescaled_final/0498_rv.mp4	0.0	230.16948699951172	1.0000419616699219
45	209.46551990509033	movie	1		244	43.0	2.5	/experiments/AOT/AOT_stimuli/rescaled_final/0498_rv.mp4	0.0	231.16952896118164	2.4995319843292236
45	209.8490800857544	pulse	1	t		43.0	2.5	/experiments/AOT/AOT_stimuli/rescaled_final/0498_rv.mp4	0.0	231.5530891418457	
45	211.448970079422	pulse	1	t		43.0	2.5	/experiments/AOT/AOT_stimuli/rescaled_final/0498_rv.mp4	0.0	233.1529791355133	
45	211.96505188941956	fix_post	2		12	43.0	2.5	/experiments/AOT/AOT_stimuli/rescaled_final/0498_rv.mp4	0.0	233.66906094551086	0.1003880500793457
46	212.0654399394989	fix_pre	0		119	44.0	2.5	/experiments/AOT/AOT_stimuli/rescaled_final/2158_rv.mp4	0.0	233.7694489955902	0.9917361736297607
46	213.04903292655945	pulse	0	t		44.0	2.5	/experiments/AOT/AOT_stimuli/rescaled_final/2158_rv.mp4	0.0	234.75304198265076	
46	213.05717611312866	movie	1		245	44.0	2.5	/experiments/AOT/AOT_stimuli/rescaled_final/2158_rv.mp4	0.0	234.76118516921997	2.5083048343658447
46	214.64892101287842	pulse	1	t		44.0	2.5	/experiments/AOT/AOT_stimuli/rescaled_final/2158_rv.mp4	0.0	236.35293006896973	
46	215.5654809474945	fix_post	2		12	44.0	2.5	/experiments/AOT/AOT_stimuli/rescaled_final/2158_rv.mp4	0.0	237.26949000358582	0.09994816780090332
47	215.6654291152954	fix_pre	0		120	45.0	2.5	/experiments/AOT/AOT_stimuli/rescaled_final/0408_fw.mp4	0.0	237.36943817138672	0.9996190071105957
47	216.24895095825195	pulse	0	t		45.0	2.5	/experiments/AOT/AOT_stimuli/rescaled_final/0408_fw.mp4	0.0	237.95296001434326	
47	216.665048122406	movie	1		246	45.0	2.5	/experiments/AOT/AOT_stimuli/rescaled_final/0408_fw.mp4	0.0	238.36905717849731	2.5000908374786377
47	217.84901809692383	pulse	1	t		45.0	2.5	/experiments/AOT/AOT_stimuli/rescaled_final/0408_fw.mp4	0.0	239.55302715301514	
47	219.16513895988464	fix_post	2		12	45.0	2.5	/experiments/AOT/AOT_stimuli/rescaled_final/0408_fw.mp4	0.0	240.86914801597595	0.10032916069030762
48	219.26546812057495	fix_pre	0		120	46.0	2.5	/experiments/AOT/AOT_stimuli/rescaled_final/1386_fw.mp4	0.0	240.96947717666626	0.9999737739562988
48	219.44888710975647	pulse	0	t		46.0	2.5	/experiments/AOT/AOT_stimuli/rescaled_final/1386_fw.mp4	0.0	241.15289616584778	
48	220.26544189453125	movie	1		244	46.0	2.5	/experiments/AOT/AOT_stimuli/rescaled_final/1386_fw.mp4	0.0	241.96945095062256	2.4999730587005615
48	221.04895401000977	pulse	1	t		46.0	2.5	/experiments/AOT/AOT_stimuli/rescaled_final/1386_fw.mp4	0.0	242.75296306610107	
48	222.64758491516113	pulse	1	t		46.0	2.5	/experiments/AOT/AOT_stimuli/rescaled_final/1386_fw.mp4	0.0	244.35159397125244	
48	222.7654149532318	fix_post	2		12	46.0	2.5	/experiments/AOT/AOT_stimuli/rescaled_final/1386_fw.mp4	0.0	244.46942400932312	0.10002493858337402
49	222.86543989181519	fix_pre	0		120	47.0	2.5	/experiments/AOT/AOT_stimuli/rescaled_final/0922_rv.mp4	0.0	244.5694489479065	0.9999790191650391
49	223.86541891098022	movie	1		246	47.0	2.5	/experiments/AOT/AOT_stimuli/rescaled_final/0922_rv.mp4	0.0	245.56942796707153	2.49967098236084
49	224.2487189769745	pulse	1	t		47.0	2.5	/experiments/AOT/AOT_stimuli/rescaled_final/0922_rv.mp4	0.0	245.9527280330658	
49	225.84854197502136	pulse	1	t		47.0	2.5	/experiments/AOT/AOT_stimuli/rescaled_final/0922_rv.mp4	0.0	247.55255103111267	
49	226.36508989334106	fix_post	2		12	47.0	2.5	/experiments/AOT/AOT_stimuli/rescaled_final/0922_rv.mp4	0.0	248.06909894943237	0.10015702247619629
50	226.46524691581726	fix_pre	0		119	48.0	2.5	blank	1.0	248.16925597190857	0.9921231269836426
50	227.44916009902954	pulse	0	t		48.0	2.5	blank	1.0	249.15316915512085	
50	227.4573700428009	movie	1		301	48.0	2.5	blank	1.0	249.1613790988922	2.508013963699341
50	229.04891109466553	pulse	1	t		48.0	2.5	blank	1.0	250.75292015075684	
50	229.96538400650024	fix_post	2		12	48.0	2.5	blank	1.0	251.66939306259155	0.10002994537353516
51	230.06541395187378	fix_pre	0		120	49.0	2.5	/experiments/AOT/AOT_stimuli/rescaled_final/1923_rv.mp4	0.0	251.7694230079651	0.9999721050262451
51	230.64885210990906	pulse	0	t		49.0	2.5	/experiments/AOT/AOT_stimuli/rescaled_final/1923_rv.mp4	0.0	252.35286116600037	
51	231.06538605690002	movie	1		247	49.0	2.5	/experiments/AOT/AOT_stimuli/rescaled_final/1923_rv.mp4	0.0	252.76939511299133	2.499527931213379
51	232.24889492988586	pulse	1	t		49.0	2.5	/experiments/AOT/AOT_stimuli/rescaled_final/1923_rv.mp4	0.0	253.95290398597717	
51	233.5649139881134	fix_post	2		12	49.0	2.5	/experiments/AOT/AOT_stimuli/rescaled_final/1923_rv.mp4	0.0	255.2689230442047	0.10044193267822266
52	233.66535592079163	fix_pre	0		120	50.0	2.5	/experiments/AOT/AOT_stimuli/rescaled_final/0582_fw.mp4	0.0	255.36936497688293	1.0001599788665771
52	233.84879302978516	pulse	0	t		50.0	2.5	/experiments/AOT/AOT_stimuli/rescaled_final/0582_fw.mp4	0.0	255.55280208587646	
52	234.6655158996582	movie	1		244	50.0	2.5	/experiments/AOT/AOT_stimuli/rescaled_final/0582_fw.mp4	0.0	256.3695249557495	2.499861001968384
52	235.44877290725708	pulse	1	t		50.0	2.5	/experiments/AOT/AOT_stimuli/rescaled_final/0582_fw.mp4	0.0	257.1527819633484	
52	237.0473439693451	pulse	1	t		50.0	2.5	/experiments/AOT/AOT_stimuli/rescaled_final/0582_fw.mp4	0.0	258.7513530254364	
52	237.1653769016266	fix_post	2		12	50.0	2.5	/experiments/AOT/AOT_stimuli/rescaled_final/0582_fw.mp4	0.0	258.8693859577179	0.0999760627746582
53	237.26535296440125	fix_pre	0		120	51.0	2.5	/experiments/AOT/AOT_stimuli/rescaled_final/2070_rv.mp4	0.0	258.96936202049255	0.9999980926513672
53	238.2653510570526	movie	1		248	51.0	2.5	/experiments/AOT/AOT_stimuli/rescaled_final/2070_rv.mp4	0.0	259.9693601131439	2.4999308586120605
53	238.648579120636	pulse	1	t		51.0	2.5	/experiments/AOT/AOT_stimuli/rescaled_final/2070_rv.mp4	0.0	260.3525881767273	
53	240.24877405166626	pulse	1	t		51.0	2.5	/experiments/AOT/AOT_stimuli/rescaled_final/2070_rv.mp4	0.0	261.95278310775757	
53	240.76528191566467	fix_post	2		12	51.0	2.5	/experiments/AOT/AOT_stimuli/rescaled_final/2070_rv.mp4	0.0	262.469290971756	0.09999418258666992
54	240.86527609825134	fix_pre	0		119	52.0	2.5	/experiments/AOT/AOT_stimuli/rescaled_final/1461_fw.mp4	0.0	262.56928515434265	0.9917259216308594
54	241.84878206253052	pulse	0	t		52.0	2.5	/experiments/AOT/AOT_stimuli/rescaled_final/1461_fw.mp4	0.0	263.5527911186218	
54	241.8570020198822	movie	1		247	52.0	2.5	/experiments/AOT/AOT_stimuli/rescaled_final/1461_fw.mp4	0.0	263.5610110759735	2.50827693939209
54	243.4484360218048	pulse	1	t		52.0	2.5	/experiments/AOT/AOT_stimuli/rescaled_final/1461_fw.mp4	0.0	265.1524450778961	
54	244.3652789592743	fix_post	2		12	52.0	2.5	/experiments/AOT/AOT_stimuli/rescaled_final/1461_fw.mp4	0.0	266.0692880153656	0.1000511646270752
55	244.46533012390137	fix_pre	0		120	53.0	2.5	/experiments/AOT/AOT_stimuli/rescaled_final/0019_rv.mp4	0.0	266.1693391799927	0.9999527931213379
55	245.04888701438904	pulse	0	t		53.0	2.5	/experiments/AOT/AOT_stimuli/rescaled_final/0019_rv.mp4	0.0	266.75289607048035	
55	245.4652829170227	movie	1		246	53.0	2.5	/experiments/AOT/AOT_stimuli/rescaled_final/0019_rv.mp4	0.0	267.169291973114	2.5000569820404053
55	246.6490659713745	pulse	1	t		53.0	2.5	/experiments/AOT/AOT_stimuli/rescaled_final/0019_rv.mp4	0.0	268.3530750274658	
55	247.9653398990631	fix_post	2		12	53.0	2.5	/experiments/AOT/AOT_stimuli/rescaled_final/0019_rv.mp4	0.0	269.6693489551544	0.09990310668945312
56	248.06524300575256	fix_pre	0		120	54.0	2.5	blank	1.0	269.7692520618439	1.000108003616333
56	248.24879002571106	pulse	0	t		54.0	2.5	blank	1.0	269.95279908180237	
56	249.0653510093689	movie	1		300	54.0	2.5	blank	1.0	270.7693600654602	2.4994800090789795
56	249.84881711006165	pulse	1	t		54.0	2.5	blank	1.0	271.55282616615295	
56	251.44879007339478	pulse	1	t		54.0	2.5	blank	1.0	273.1527991294861	
56	251.56483101844788	fix_post	2		12	54.0	2.5	blank	1.0	273.2688400745392	0.10052895545959473
57	251.66535997390747	fix_pre	0		120	55.0	2.5	/experiments/AOT/AOT_stimuli/rescaled_final/0986_rv.mp4	0.0	273.3693690299988	0.9998319149017334
57	252.6651918888092	movie	1		245	55.0	2.5	/experiments/AOT/AOT_stimuli/rescaled_final/0986_rv.mp4	0.0	274.3692009449005	2.5000290870666504
57	253.0490300655365	pulse	1	t		55.0	2.5	/experiments/AOT/AOT_stimuli/rescaled_final/0986_rv.mp4	0.0	274.7530391216278	
57	254.64872002601624	pulse	1	t		55.0	2.5	/experiments/AOT/AOT_stimuli/rescaled_final/0986_rv.mp4	0.0	276.35272908210754	
57	255.16522097587585	fix_post	2		12	55.0	2.5	/experiments/AOT/AOT_stimuli/rescaled_final/0986_rv.mp4	0.0	276.86923003196716	0.1000051498413086
58	255.26522612571716	fix_pre	0		119	56.0	2.5	/experiments/AOT/AOT_stimuli/rescaled_final/1810_fw.mp4	0.0	276.9692351818085	0.9916608333587646
58	256.2487189769745	pulse	0	t		56.0	2.5	/experiments/AOT/AOT_stimuli/rescaled_final/1810_fw.mp4	0.0	277.9527280330658	
58	256.2568869590759	movie	1		245	56.0	2.5	/experiments/AOT/AOT_stimuli/rescaled_final/1810_fw.mp4	0.0	277.96089601516724	2.5080230236053467
58	257.8499069213867	pulse	1	t		56.0	2.5	/experiments/AOT/AOT_stimuli/rescaled_final/1810_fw.mp4	0.0	279.553915977478	
58	258.7649099826813	fix_post	2		12	56.0	2.5	/experiments/AOT/AOT_stimuli/rescaled_final/1810_fw.mp4	0.0	280.4689190387726	0.10039091110229492
59	258.86530089378357	fix_pre	0		120	57.0	2.5	/experiments/AOT/AOT_stimuli/rescaled_final/1426_fw.mp4	0.0	280.5693099498749	0.9999470710754395
59	259.44871711730957	pulse	0	t		57.0	2.5	/experiments/AOT/AOT_stimuli/rescaled_final/1426_fw.mp4	0.0	281.1527261734009	
59	259.865247964859	movie	1		247	57.0	2.5	/experiments/AOT/AOT_stimuli/rescaled_final/1426_fw.mp4	0.0	281.5692570209503	2.5000650882720947
59	261.0487759113312	pulse	1	t		57.0	2.5	/experiments/AOT/AOT_stimuli/rescaled_final/1426_fw.mp4	0.0	282.7527849674225	
59	262.3653130531311	fix_post	2		12	57.0	2.5	/experiments/AOT/AOT_stimuli/rescaled_final/1426_fw.mp4	0.0	284.0693221092224	0.09995603561401367
60	262.4652690887451	fix_pre	0		120	58.0	2.5	/experiments/AOT/AOT_stimuli/rescaled_final/0409_fw.mp4	0.0	284.1692781448364	0.9999659061431885
60	262.6487030982971	pulse	0	t		58.0	2.5	/experiments/AOT/AOT_stimuli/rescaled_final/0409_fw.mp4	0.0	284.3527121543884	
60	263.4652349948883	movie	1		246	58.0	2.5	/experiments/AOT/AOT_stimuli/rescaled_final/0409_fw.mp4	0.0	285.1692440509796	2.4999990463256836
60	264.24869990348816	pulse	1	t		58.0	2.5	/experiments/AOT/AOT_stimuli/rescaled_final/0409_fw.mp4	0.0	285.95270895957947	
60	265.8476641178131	pulse	1	t		58.0	2.5	/experiments/AOT/AOT_stimuli/rescaled_final/0409_fw.mp4	0.0	287.5516731739044	
60	265.965234041214	fix_post	2		12	58.0	2.5	/experiments/AOT/AOT_stimuli/rescaled_final/0409_fw.mp4	0.0	287.6692430973053	0.10001206398010254
61	266.0652461051941	fix_pre	0		120	59.0	2.5	/experiments/AOT/AOT_stimuli/rescaled_final/1951_rv.mp4	0.0	287.7692551612854	1.0000479221343994
61	267.0652940273285	movie	1		245	59.0	2.5	/experiments/AOT/AOT_stimuli/rescaled_final/1951_rv.mp4	0.0	288.7693030834198	2.4998779296875
61	267.44833111763	pulse	1	t		59.0	2.5	/experiments/AOT/AOT_stimuli/rescaled_final/1951_rv.mp4	0.0	289.1523401737213	
61	269.04865312576294	pulse	1	t		59.0	2.5	/experiments/AOT/AOT_stimuli/rescaled_final/1951_rv.mp4	0.0	290.75266218185425	
61	269.565171957016	fix_post	2		12	59.0	2.5	/experiments/AOT/AOT_stimuli/rescaled_final/1951_rv.mp4	0.0	291.2691810131073	0.10007214546203613
62	269.665244102478	fix_pre	0		119	60.0	2.5	/experiments/AOT/AOT_stimuli/rescaled_final/1797_rv.mp4	0.0	291.36925315856934	0.9915668964385986
62	270.6486659049988	pulse	0	t		60.0	2.5	/experiments/AOT/AOT_stimuli/rescaled_final/1797_rv.mp4	0.0	292.3526749610901	
62	270.6568109989166	movie	1		247	60.0	2.5	/experiments/AOT/AOT_stimuli/rescaled_final/1797_rv.mp4	0.0	292.36082005500793	2.508366107940674
62	272.2481269836426	pulse	1	t		60.0	2.5	/experiments/AOT/AOT_stimuli/rescaled_final/1797_rv.mp4	0.0	293.9521360397339	
62	273.1651771068573	fix_post	2		12	60.0	2.5	/experiments/AOT/AOT_stimuli/rescaled_final/1797_rv.mp4	0.0	294.8691861629486	0.09994983673095703
63	273.26512694358826	fix_pre	0		120	61.0	2.5	/experiments/AOT/AOT_stimuli/rescaled_final/0740_rv.mp4	0.0	294.96913599967957	1.0001261234283447
63	273.84868812561035	pulse	0	t		61.0	2.5	/experiments/AOT/AOT_stimuli/rescaled_final/0740_rv.mp4	0.0	295.55269718170166	
63	274.2652530670166	movie	1		247	61.0	2.5	/experiments/AOT/AOT_stimuli/rescaled_final/0740_rv.mp4	0.0	295.9692621231079	2.4994900226593018
63	275.44877409935	pulse	1	t		61.0	2.5	/experiments/AOT/AOT_stimuli/rescaled_final/0740_rv.mp4	0.0	297.1527831554413	
63	276.7647430896759	fix_post	2		12	61.0	2.5	/experiments/AOT/AOT_stimuli/rescaled_final/0740_rv.mp4	0.0	298.4687521457672	0.10043692588806152
64	276.86518001556396	fix_pre	0		120	62.0	2.5	/experiments/AOT/AOT_stimuli/rescaled_final/1756_rv.mp4	0.0	298.5691890716553	0.9995510578155518
64	277.048681974411	pulse	0	t		62.0	2.5	/experiments/AOT/AOT_stimuli/rescaled_final/1756_rv.mp4	0.0	298.7526910305023	
64	277.8647310733795	movie	1		243	62.0	2.5	/experiments/AOT/AOT_stimuli/rescaled_final/1756_rv.mp4	0.0	299.5687401294708	2.5004689693450928
64	278.6486930847168	pulse	1	t		62.0	2.5	/experiments/AOT/AOT_stimuli/rescaled_final/1756_rv.mp4	0.0	300.3527021408081	
64	280.24711894989014	pulse	1	t		62.0	2.5	/experiments/AOT/AOT_stimuli/rescaled_final/1756_rv.mp4	0.0	301.95112800598145	
64	280.3652000427246	fix_post	2		12	62.0	2.5	/experiments/AOT/AOT_stimuli/rescaled_final/1756_rv.mp4	0.0	302.0692090988159	0.09995388984680176
65	280.4651539325714	fix_pre	0		120	63.0	2.5	blank	1.0	302.1691629886627	0.999636173248291
65	281.4647901058197	movie	1		300	63.0	2.5	blank	1.0	303.168799161911	2.5003209114074707
65	281.8483099937439	pulse	1	t		63.0	2.5	blank	1.0	303.5523190498352	
65	283.44848108291626	pulse	1	t		63.0	2.5	blank	1.0	305.15249013900757	
65	283.9651110172272	fix_post	2		12	63.0	2.5	blank	1.0	305.6691200733185	0.09998488426208496
66	284.06509590148926	fix_pre	0		119	64.0	2.5	/experiments/AOT/AOT_stimuli/rescaled_final/0263_rv.mp4	0.0	305.76910495758057	0.9917221069335938
66	285.0486319065094	pulse	0	t		64.0	2.5	/experiments/AOT/AOT_stimuli/rescaled_final/0263_rv.mp4	0.0	306.7526409626007	
66	285.05681800842285	movie	1		248	64.0	2.5	/experiments/AOT/AOT_stimuli/rescaled_final/0263_rv.mp4	0.0	306.76082706451416	2.5083889961242676
66	286.64854192733765	pulse	1	t		64.0	2.5	/experiments/AOT/AOT_stimuli/rescaled_final/0263_rv.mp4	0.0	308.35255098342896	
66	287.5652070045471	fix_post	2		12	64.0	2.5	/experiments/AOT/AOT_stimuli/rescaled_final/0263_rv.mp4	0.0	309.2692160606384	0.0998690128326416
67	287.66507601737976	fix_pre	0		120	65.0	2.5	/experiments/AOT/AOT_stimuli/rescaled_final/0059_fw.mp4	0.0	309.36908507347107	1.0000529289245605
67	288.24855303764343	pulse	0	t		65.0	2.5	/experiments/AOT/AOT_stimuli/rescaled_final/0059_fw.mp4	0.0	309.95256209373474	
67	288.6651289463043	movie	1		246	65.0	2.5	/experiments/AOT/AOT_stimuli/rescaled_final/0059_fw.mp4	0.0	310.36913800239563	2.499946117401123
67	289.8486349582672	pulse	1	t		65.0	2.5	/experiments/AOT/AOT_stimuli/rescaled_final/0059_fw.mp4	0.0	311.5526440143585	
67	291.16507506370544	fix_post	2		12	65.0	2.5	/experiments/AOT/AOT_stimuli/rescaled_final/0059_fw.mp4	0.0	312.86908411979675	0.0996849536895752
68	291.264760017395	fix_pre	0		120	66.0	2.5	/experiments/AOT/AOT_stimuli/rescaled_final/1386_rv.mp4	0.0	312.9687690734863	1.0003368854522705
68	291.4485719203949	pulse	0	t		66.0	2.5	/experiments/AOT/AOT_stimuli/rescaled_final/1386_rv.mp4	0.0	313.1525809764862	
68	292.2650969028473	movie	1		244	66.0	2.5	/experiments/AOT/AOT_stimuli/rescaled_final/1386_rv.mp4	0.0	313.9691059589386	2.499580144882202
68	293.04855489730835	pulse	1	t		66.0	2.5	/experiments/AOT/AOT_stimuli/rescaled_final/1386_rv.mp4	0.0	314.75256395339966	
68	294.64695501327515	pulse	1	t		66.0	2.5	/experiments/AOT/AOT_stimuli/rescaled_final/1386_rv.mp4	0.0	316.35096406936646	
68	294.7646770477295	fix_post	2		12	66.0	2.5	/experiments/AOT/AOT_stimuli/rescaled_final/1386_rv.mp4	0.0	316.4686861038208	0.1003868579864502
69	294.86506390571594	fix_pre	0		120	67.0	2.5	/experiments/AOT/AOT_stimuli/rescaled_final/1407_rv.mp4	0.0	316.56907296180725	0.9996330738067627
69	295.8646969795227	movie	1		244	67.0	2.5	/experiments/AOT/AOT_stimuli/rescaled_final/1407_rv.mp4	0.0	317.568706035614	2.5003559589385986
69	296.2485830783844	pulse	1	t		67.0	2.5	/experiments/AOT/AOT_stimuli/rescaled_final/1407_rv.mp4	0.0	317.9525921344757	
69	297.84854006767273	pulse	1	t		67.0	2.5	/experiments/AOT/AOT_stimuli/rescaled_final/1407_rv.mp4	0.0	319.55254912376404	
69	298.3650529384613	fix_post	2		12	67.0	2.5	/experiments/AOT/AOT_stimuli/rescaled_final/1407_rv.mp4	0.0	320.0690619945526	0.10003304481506348
70	298.46508598327637	fix_pre	0		119	68.0	2.5	/experiments/AOT/AOT_stimuli/rescaled_final/1193_rv.mp4	0.0	320.1690950393677	0.991631031036377
70	299.4485800266266	pulse	0	t		68.0	2.5	/experiments/AOT/AOT_stimuli/rescaled_final/1193_rv.mp4	0.0	321.1525890827179	
70	299.45671701431274	movie	1		245	68.0	2.5	/experiments/AOT/AOT_stimuli/rescaled_final/1193_rv.mp4	0.0	321.16072607040405	2.5082969665527344
70	301.04846596717834	pulse	1	t		68.0	2.5	/experiments/AOT/AOT_stimuli/rescaled_final/1193_rv.mp4	0.0	322.75247502326965	
70	301.9650139808655	fix_post	2		12	68.0	2.5	/experiments/AOT/AOT_stimuli/rescaled_final/1193_rv.mp4	0.0	323.6690230369568	0.09993195533752441
71	302.064945936203	fix_pre	0		120	69.0	2.5	blank	1.0	323.7689549922943	0.9997680187225342
71	302.6484739780426	pulse	0	t		69.0	2.5	blank	1.0	324.3524830341339	
71	303.06471395492554	movie	1		300	69.0	2.5	blank	1.0	324.76872301101685	2.49991512298584
71	304.2485580444336	pulse	1	t		69.0	2.5	blank	1.0	325.9525671005249	
71	305.5646290779114	fix_post	2		12	69.0	2.5	blank	1.0	327.2686381340027	0.10034584999084473
72	305.6649749279022	fix_pre	0		120	70.0	2.5	/experiments/AOT/AOT_stimuli/rescaled_final/1236_fw.mp4	0.0	327.36898398399353	1.000046968460083
72	305.8485369682312	pulse	0	t		70.0	2.5	/experiments/AOT/AOT_stimuli/rescaled_final/1236_fw.mp4	0.0	327.5525460243225	
72	306.6650218963623	movie	1		243	70.0	2.5	/experiments/AOT/AOT_stimuli/rescaled_final/1236_fw.mp4	0.0	328.3690309524536	2.499934196472168
72	307.4486141204834	pulse	1	t		70.0	2.5	/experiments/AOT/AOT_stimuli/rescaled_final/1236_fw.mp4	0.0	329.1526231765747	
72	309.04712104797363	pulse	1	t		70.0	2.5	/experiments/AOT/AOT_stimuli/rescaled_final/1236_fw.mp4	0.0	330.75113010406494	
72	309.1649560928345	fix_post	2		12	70.0	2.5	/experiments/AOT/AOT_stimuli/rescaled_final/1236_fw.mp4	0.0	330.8689651489258	0.09997797012329102
73	309.26493406295776	fix_pre	0		120	71.0	2.5	/experiments/AOT/AOT_stimuli/rescaled_final/1052_fw.mp4	0.0	330.9689431190491	1.0001230239868164
73	310.2650570869446	movie	1		245	71.0	2.5	/experiments/AOT/AOT_stimuli/rescaled_final/1052_fw.mp4	0.0	331.9690661430359	2.4999728202819824
73	310.6484808921814	pulse	1	t		71.0	2.5	/experiments/AOT/AOT_stimuli/rescaled_final/1052_fw.mp4	0.0	332.3524899482727	
73	312.2485730648041	pulse	1	t		71.0	2.5	/experiments/AOT/AOT_stimuli/rescaled_final/1052_fw.mp4	0.0	333.9525821208954	
73	312.76502990722656	fix_post	2		12	71.0	2.5	/experiments/AOT/AOT_stimuli/rescaled_final/1052_fw.mp4	0.0	334.46903896331787	0.09994101524353027
74	312.8649709224701	fix_pre	0		119	72.0	2.5	/experiments/AOT/AOT_stimuli/rescaled_final/1801_fw.mp4	0.0	334.5689799785614	0.9917299747467041
74	313.84848403930664	pulse	0	t		72.0	2.5	/experiments/AOT/AOT_stimuli/rescaled_final/1801_fw.mp4	0.0	335.55249309539795	
74	313.8567008972168	movie	1		246	72.0	2.5	/experiments/AOT/AOT_stimuli/rescaled_final/1801_fw.mp4	0.0	335.5607099533081	2.507888078689575
74	315.4487318992615	pulse	1	t		72.0	2.5	/experiments/AOT/AOT_stimuli/rescaled_final/1801_fw.mp4	0.0	337.1527409553528	
74	316.3645889759064	fix_post	2		12	72.0	2.5	/experiments/AOT/AOT_stimuli/rescaled_final/1801_fw.mp4	0.0	338.0685980319977	0.10037708282470703
75	316.4649660587311	fix_pre	0		120	73.0	2.5	/experiments/AOT/AOT_stimuli/rescaled_final/0238_fw.mp4	0.0	338.1689751148224	1.0000090599060059
75	317.0484969615936	pulse	0	t		73.0	2.5	/experiments/AOT/AOT_stimuli/rescaled_final/0238_fw.mp4	0.0	338.75250601768494	
75	317.4649751186371	movie	1		245	73.0	2.5	/experiments/AOT/AOT_stimuli/rescaled_final/0238_fw.mp4	0.0	339.1689841747284	2.4996938705444336
75	318.648619890213	pulse	1	t		73.0	2.5	/experiments/AOT/AOT_stimuli/rescaled_final/0238_fw.mp4	0.0	340.3526289463043	
75	319.9646689891815	fix_post	2		12	73.0	2.5	/experiments/AOT/AOT_stimuli/rescaled_final/0238_fw.mp4	0.0	341.6686780452728	0.10033798217773438
76	320.06500697135925	fix_pre	0		120	74.0	2.5	/experiments/AOT/AOT_stimuli/rescaled_final/1458_fw.mp4	0.0	341.76901602745056	1.0000331401824951
76	320.248477935791	pulse	0	t		74.0	2.5	/experiments/AOT/AOT_stimuli/rescaled_final/1458_fw.mp4	0.0	341.9524869918823	
76	321.06504011154175	movie	1		245	74.0	2.5	/experiments/AOT/AOT_stimuli/rescaled_final/1458_fw.mp4	0.0	342.76904916763306	2.4995028972625732
76	321.84847593307495	pulse	1	t		74.0	2.5	/experiments/AOT/AOT_stimuli/rescaled_final/1458_fw.mp4	0.0	343.55248498916626	
76	323.448499917984	pulse	1	t		74.0	2.5	/experiments/AOT/AOT_stimuli/rescaled_final/1458_fw.mp4	0.0	345.1525089740753	
76	323.5645430088043	fix_post	2		12	74.0	2.5	/experiments/AOT/AOT_stimuli/rescaled_final/1458_fw.mp4	0.0	345.26855206489563	0.10044693946838379
77	323.6649899482727	fix_pre	0		120	75.0	2.5	blank	1.0	345.368999004364	0.9995579719543457
77	324.66454792022705	movie	1		300	75.0	2.5	blank	1.0	346.36855697631836	2.499981164932251
77	325.04852390289307	pulse	1	t		75.0	2.5	blank	1.0	346.7525329589844	
77	326.64844703674316	pulse	1	t		75.0	2.5	blank	1.0	348.3524560928345	
77	327.1645290851593	fix_post	2		12	75.0	2.5	blank	1.0	348.8685381412506	0.10034990310668945
78	327.264878988266	fix_pre	0		119	76.0	2.5	/experiments/AOT/AOT_stimuli/rescaled_final/0800_rv.mp4	0.0	348.9688880443573	0.9916520118713379
78	328.2483639717102	pulse	0	t		76.0	2.5	/experiments/AOT/AOT_stimuli/rescaled_final/0800_rv.mp4	0.0	349.9523730278015	
78	328.25653100013733	movie	1		246	76.0	2.5	/experiments/AOT/AOT_stimuli/rescaled_final/0800_rv.mp4	0.0	349.96054005622864	2.5083870887756348
78	329.8484570980072	pulse	1	t		76.0	2.5	/experiments/AOT/AOT_stimuli/rescaled_final/0800_rv.mp4	0.0	351.5524661540985	
78	330.76491808891296	fix_post	2		12	76.0	2.5	/experiments/AOT/AOT_stimuli/rescaled_final/0800_rv.mp4	0.0	352.4689271450043	0.10012602806091309
79	330.8650441169739	fix_pre	0		120	77.0	2.5	/experiments/AOT/AOT_stimuli/rescaled_final/0766_rv.mp4	0.0	352.5690531730652	0.9998669624328613
79	331.44843792915344	pulse	0	t		77.0	2.5	/experiments/AOT/AOT_stimuli/rescaled_final/0766_rv.mp4	0.0	353.15244698524475	
79	331.86491107940674	movie	1		245	77.0	2.5	/experiments/AOT/AOT_stimuli/rescaled_final/0766_rv.mp4	0.0	353.56892013549805	2.4999890327453613
79	333.0484480857849	pulse	1	t		77.0	2.5	/experiments/AOT/AOT_stimuli/rescaled_final/0766_rv.mp4	0.0	354.7524571418762	
79	334.3649001121521	fix_post	2		12	77.0	2.5	/experiments/AOT/AOT_stimuli/rescaled_final/0766_rv.mp4	0.0	356.0689091682434	0.1000068187713623
80	334.46490693092346	fix_pre	0		120	78.0	2.5	/experiments/AOT/AOT_stimuli/rescaled_final/1193_fw.mp4	0.0	356.16891598701477	0.9996249675750732
80	334.6483681201935	pulse	0	t		78.0	2.5	/experiments/AOT/AOT_stimuli/rescaled_final/1193_fw.mp4	0.0	356.3523771762848	
80	335.46453189849854	movie	1		246	78.0	2.5	/experiments/AOT/AOT_stimuli/rescaled_final/1193_fw.mp4	0.0	357.16854095458984	2.5004751682281494
80	336.24792408943176	pulse	1	t		78.0	2.5	/experiments/AOT/AOT_stimuli/rescaled_final/1193_fw.mp4	0.0	357.95193314552307	
80	337.84644293785095	pulse	1	t		78.0	2.5	/experiments/AOT/AOT_stimuli/rescaled_final/1193_fw.mp4	0.0	359.55045199394226	
80	337.9650070667267	fix_post	2		12	78.0	2.5	/experiments/AOT/AOT_stimuli/rescaled_final/1193_fw.mp4	0.0	359.669016122818	0.09999895095825195
81	338.06500601768494	fix_pre	0		120	79.0	2.5	/experiments/AOT/AOT_stimuli/rescaled_final/1081_rv.mp4	0.0	359.76901507377625	0.9997360706329346
81	339.06474208831787	movie	1		244	79.0	2.5	/experiments/AOT/AOT_stimuli/rescaled_final/1081_rv.mp4	0.0	360.7687511444092	2.499763011932373
81	339.4493930339813	pulse	1	t		79.0	2.5	/experiments/AOT/AOT_stimuli/rescaled_final/1081_rv.mp4	0.0	361.15340209007263	
81	341.0482769012451	pulse	1	t		79.0	2.5	/experiments/AOT/AOT_stimuli/rescaled_final/1081_rv.mp4	0.0	362.7522859573364	
81	341.56450510025024	fix_post	2		12	79.0	2.5	/experiments/AOT/AOT_stimuli/rescaled_final/1081_rv.mp4	0.0	363.26851415634155	0.10038900375366211
82	341.6648941040039	fix_pre	0		119	80.0	2.5	/experiments/AOT/AOT_stimuli/rescaled_final/0775_fw.mp4	0.0	363.3689031600952	0.9916667938232422
82	342.64839792251587	pulse	0	t		80.0	2.5	/experiments/AOT/AOT_stimuli/rescaled_final/0775_fw.mp4	0.0	364.3524069786072	
82	342.65656089782715	movie	1		248	80.0	2.5	/experiments/AOT/AOT_stimuli/rescaled_final/0775_fw.mp4	0.0	364.36056995391846	2.5082480907440186
82	344.2485189437866	pulse	1	t		80.0	2.5	/experiments/AOT/AOT_stimuli/rescaled_final/0775_fw.mp4	0.0	365.95252799987793	
82	345.16480898857117	fix_post	2		12	80.0	2.5	/experiments/AOT/AOT_stimuli/rescaled_final/0775_fw.mp4	0.0	366.8688180446625	0.10008096694946289
83	345.26488995552063	fix_pre	0		120	81.0	2.5	/experiments/AOT/AOT_stimuli/rescaled_final/0611_rv.mp4	0.0	366.96889901161194	0.9999411106109619
83	345.84832096099854	pulse	0	t		81.0	2.5	/experiments/AOT/AOT_stimuli/rescaled_final/0611_rv.mp4	0.0	367.55233001708984	
83	346.2648310661316	movie	1		244	81.0	2.5	/experiments/AOT/AOT_stimuli/rescaled_final/0611_rv.mp4	0.0	367.9688401222229	2.5000288486480713
83	347.448410987854	pulse	1	t		81.0	2.5	/experiments/AOT/AOT_stimuli/rescaled_final/0611_rv.mp4	0.0	369.1524200439453	
83	348.76485991477966	fix_post	2		12	81.0	2.5	/experiments/AOT/AOT_stimuli/rescaled_final/0611_rv.mp4	0.0	370.468868970871	0.09993720054626465
84	348.8647971153259	fix_pre	0		120	82.0	2.5	blank	1.0	370.56880617141724	1.0000097751617432
84	349.048259973526	pulse	0	t		82.0	2.5	blank	1.0	370.7522690296173	
84	349.86480689048767	movie	1		300	82.0	2.5	blank	1.0	371.568815946579	2.500033140182495
84	350.6482660770416	pulse	1	t		82.0	2.5	blank	1.0	372.35227513313293	
84	352.2483150959015	pulse	1	t		82.0	2.5	blank	1.0	373.9523241519928	
84	352.36484003067017	fix_post	2		12	82.0	2.5	blank	1.0	374.0688490867615	0.09970688819885254
85	352.464546918869	fix_pre	0		120	83.0	2.5	/experiments/AOT/AOT_stimuli/rescaled_final/0349_rv.mp4	0.0	374.1685559749603	1.0002470016479492
85	353.46479392051697	movie	1		247	83.0	2.5	/experiments/AOT/AOT_stimuli/rescaled_final/0349_rv.mp4	0.0	375.1688029766083	2.5000100135803223
85	353.84834599494934	pulse	1	t		83.0	2.5	/experiments/AOT/AOT_stimuli/rescaled_final/0349_rv.mp4	0.0	375.55235505104065	
85	355.4483001232147	pulse	1	t		83.0	2.5	/experiments/AOT/AOT_stimuli/rescaled_final/0349_rv.mp4	0.0	377.15230917930603	
85	355.9648039340973	fix_post	2		12	83.0	2.5	/experiments/AOT/AOT_stimuli/rescaled_final/0349_rv.mp4	0.0	377.6688129901886	0.0999751091003418
87	356.06477904319763	stim	0		1716					377.76878809928894	14.299957990646362
87	357.0483169555664	pulse	0	t						378.7523260116577	
87	358.64815497398376	pulse	0	t						380.3521640300751	
87	360.24817299842834	pulse	0	t						381.95218205451965	
87	361.8482129573822	pulse	0	t						383.5522220134735	
87	363.44819808006287	pulse	0	t						385.1522071361542	
87	365.0482211112976	pulse	0	t						386.7522301673889	
87	366.6481740474701	pulse	0	t						388.3521831035614	
87	368.2481760978699	pulse	0	t						389.9521851539612	
87	369.84811902046204	pulse	0	t						391.55212807655334	
