trial_nr	onset	event_type	phase	response	nr_frames	movie_index	movie_duration	movie_file	blank	onset_abs	duration
0	0.21655797958374023	stim	0		19					10.822608947753906	0.15832901000976562
0	0.359637975692749	response	0	space						10.965688943862915	
1	0.37488698959350586	stim	0		4688					10.980937957763672	39.082035064697266
1	39.44718408584595	pulse	0	t						50.05323505401611	
1	39.45692205429077	stim	1		1716					50.06297302246094	14.300956964492798
1	41.03963804244995	pulse	1	t						51.64568901062012	
1	42.63983201980591	pulse	1	t						53.245882987976074	
1	44.239978075027466	pulse	1	t						54.84602904319763	
1	45.84018516540527	pulse	1	t						56.44623613357544	
1	47.4405951499939	pulse	1	t						58.04664611816406	
1	49.04076099395752	pulse	1	t						59.646811962127686	
1	50.64081311225891	pulse	1	t						61.24686408042908	
1	52.2411150932312	pulse	1	t						62.84716606140137	
2	53.75787901878357	fix_pre	0		11	0.0	2.5	/experiments/knapen_AOT/AOT_stimuli/rescaled_final/1851_fw.mp4	0.0	64.36392998695374	0.15862011909484863
2	53.84147810935974	pulse	0	t		0.0	2.5	/experiments/knapen_AOT/AOT_stimuli/rescaled_final/1851_fw.mp4	0.0	64.44752907752991	
2	53.91649913787842	movie	1		232	0.0	2.5	/experiments/knapen_AOT/AOT_stimuli/rescaled_final/1851_fw.mp4	0.0	64.52255010604858	2.441746950149536
2	55.4403920173645	pulse	1	t		0.0	2.5	/experiments/knapen_AOT/AOT_stimuli/rescaled_final/1851_fw.mp4	0.0	66.04644298553467	
2	56.358246088027954	fix_post	2		12	0.0	2.5	/experiments/knapen_AOT/AOT_stimuli/rescaled_final/1851_fw.mp4	0.0	66.96429705619812	0.1000070571899414
3	56.458253145217896	fix_pre	0		120	1.0	2.5	/experiments/knapen_AOT/AOT_stimuli/rescaled_final/0375_rv.mp4	0.0	67.06430411338806	1.091958999633789
3	57.04191517829895	pulse	0	t		1.0	2.5	/experiments/knapen_AOT/AOT_stimuli/rescaled_final/0375_rv.mp4	0.0	67.64796614646912	
3	57.550212144851685	movie	1		226	1.0	2.5	/experiments/knapen_AOT/AOT_stimuli/rescaled_final/0375_rv.mp4	0.0	68.15626311302185	2.4085679054260254
3	58.64071202278137	pulse	1	t		1.0	2.5	/experiments/knapen_AOT/AOT_stimuli/rescaled_final/0375_rv.mp4	0.0	69.24676299095154	
3	59.95878005027771	fix_post	2		12	1.0	2.5	/experiments/knapen_AOT/AOT_stimuli/rescaled_final/0375_rv.mp4	0.0	70.56483101844788	0.10002303123474121
4	60.05880308151245	fix_pre	0		120	2.0	2.5	/experiments/knapen_AOT/AOT_stimuli/rescaled_final/1155_fw.mp4	0.0	70.66485404968262	1.0758230686187744
4	60.24232816696167	pulse	0	t		2.0	2.5	/experiments/knapen_AOT/AOT_stimuli/rescaled_final/1155_fw.mp4	0.0	70.84837913513184	
4	61.134626150131226	movie	1		234	2.0	2.5	/experiments/knapen_AOT/AOT_stimuli/rescaled_final/1155_fw.mp4	0.0	71.74067711830139	2.4246888160705566
4	61.84235596656799	pulse	1	t		2.0	2.5	/experiments/knapen_AOT/AOT_stimuli/rescaled_final/1155_fw.mp4	0.0	72.44840693473816	
4	63.441349029541016	pulse	1	t		2.0	2.5	/experiments/knapen_AOT/AOT_stimuli/rescaled_final/1155_fw.mp4	0.0	74.04739999771118	
4	63.55931496620178	fix_post	2		12	2.0	2.5	/experiments/knapen_AOT/AOT_stimuli/rescaled_final/1155_fw.mp4	0.0	74.16536593437195	0.10001015663146973
5	63.65932512283325	fix_pre	0		120	3.0	2.5	/experiments/knapen_AOT/AOT_stimuli/rescaled_final/2075_fw.mp4	0.0	74.26537609100342	1.0753679275512695
5	64.73469305038452	movie	1		230	3.0	2.5	/experiments/knapen_AOT/AOT_stimuli/rescaled_final/2075_fw.mp4	0.0	75.34074401855469	2.4168150424957275
5	65.0415050983429	pulse	1	t		3.0	2.5	/experiments/knapen_AOT/AOT_stimuli/rescaled_final/2075_fw.mp4	0.0	75.64755606651306	
5	66.64304113388062	pulse	1	t		3.0	2.5	/experiments/knapen_AOT/AOT_stimuli/rescaled_final/2075_fw.mp4	0.0	77.24909210205078	
5	67.15150809288025	fix_post	2		12	3.0	2.5	/experiments/knapen_AOT/AOT_stimuli/rescaled_final/2075_fw.mp4	0.0	77.75755906105042	0.10001802444458008
6	67.25152611732483	fix_pre	0		120	4.0	2.5	/experiments/knapen_AOT/AOT_stimuli/rescaled_final/0841_rv.mp4	0.0	77.857577085495	1.0752038955688477
6	68.24362206459045	pulse	0	t		4.0	2.5	/experiments/knapen_AOT/AOT_stimuli/rescaled_final/0841_rv.mp4	0.0	78.84967303276062	
6	68.32673001289368	movie	1		229	4.0	2.5	/experiments/knapen_AOT/AOT_stimuli/rescaled_final/0841_rv.mp4	0.0	78.93278098106384	2.4336750507354736
6	69.83774304389954	pulse	1	t		4.0	2.5	/experiments/knapen_AOT/AOT_stimuli/rescaled_final/0841_rv.mp4	0.0	80.4437940120697	
6	70.76040506362915	fix_post	2		12	4.0	2.5	/experiments/knapen_AOT/AOT_stimuli/rescaled_final/0841_rv.mp4	0.0	81.36645603179932	0.10004591941833496
7	70.86045098304749	fix_pre	0		120	5.0	2.5	/experiments/knapen_AOT/AOT_stimuli/rescaled_final/1823_rv.mp4	0.0	81.46650195121765	1.0501160621643066
7	71.43642711639404	pulse	0	t		5.0	2.5	/experiments/knapen_AOT/AOT_stimuli/rescaled_final/1823_rv.mp4	0.0	82.04247808456421	
7	71.91056704521179	movie	1		239	5.0	2.5	/experiments/knapen_AOT/AOT_stimuli/rescaled_final/1823_rv.mp4	0.0	82.51661801338196	2.4503679275512695
7	73.04430413246155	pulse	1	t		5.0	2.5	/experiments/knapen_AOT/AOT_stimuli/rescaled_final/1823_rv.mp4	0.0	83.65035510063171	
7	74.36093497276306	fix_post	2		12	5.0	2.5	/experiments/knapen_AOT/AOT_stimuli/rescaled_final/1823_rv.mp4	0.0	84.96698594093323	0.10002708435058594
8	74.46096205711365	fix_pre	0		120	6.0	2.5	blank	1.0	85.06701302528381	1.0001530647277832
8	74.63609600067139	pulse	0	t		6.0	2.5	blank	1.0	85.24214696884155	
8	75.46111512184143	movie	1		300	6.0	2.5	blank	1.0	86.0671660900116	2.5003888607025146
8	76.23642897605896	pulse	1	t		6.0	2.5	blank	1.0	86.84247994422913	
8	77.83671808242798	pulse	1	t		6.0	2.5	blank	1.0	88.44276905059814	
8	77.96150398254395	fix_post	2		12	6.0	2.5	blank	1.0	88.56755495071411	0.10000300407409668
9	78.06150698661804	fix_pre	0		120	7.0	2.5	/experiments/knapen_AOT/AOT_stimuli/rescaled_final/0688_rv.mp4	0.0	88.66755795478821	1.083700180053711
9	79.14520716667175	movie	1		236	7.0	2.5	/experiments/knapen_AOT/AOT_stimuli/rescaled_final/0688_rv.mp4	0.0	89.75125813484192	2.4084830284118652
9	79.43698811531067	pulse	1	t		7.0	2.5	/experiments/knapen_AOT/AOT_stimuli/rescaled_final/0688_rv.mp4	0.0	90.04303908348083	
9	81.03709101676941	pulse	1	t		7.0	2.5	/experiments/knapen_AOT/AOT_stimuli/rescaled_final/0688_rv.mp4	0.0	91.64314198493958	
9	81.55369019508362	fix_post	2		12	7.0	2.5	/experiments/knapen_AOT/AOT_stimuli/rescaled_final/0688_rv.mp4	0.0	92.15974116325378	0.1000368595123291
10	81.65372705459595	fix_pre	0		119	8.0	2.5	/experiments/knapen_AOT/AOT_stimuli/rescaled_final/0389_fw.mp4	0.0	92.25977802276611	1.0751409530639648
10	82.63732600212097	pulse	0	t		8.0	2.5	/experiments/knapen_AOT/AOT_stimuli/rescaled_final/0389_fw.mp4	0.0	93.24337697029114	
10	82.72886800765991	movie	1		214	8.0	2.5	/experiments/knapen_AOT/AOT_stimuli/rescaled_final/0389_fw.mp4	0.0	93.33491897583008	2.433681011199951
10	84.23767614364624	pulse	1	t		8.0	2.5	/experiments/knapen_AOT/AOT_stimuli/rescaled_final/0389_fw.mp4	0.0	94.8437271118164	
10	85.16254901885986	fix_post	2		8	8.0	2.5	/experiments/knapen_AOT/AOT_stimuli/rescaled_final/0389_fw.mp4	0.0	95.76859998703003	0.08350801467895508
11	85.24605703353882	fix_pre	0		121	9.0	2.5	/experiments/knapen_AOT/AOT_stimuli/rescaled_final/1284_rv.mp4	0.0	95.85210800170898	1.07554292678833
11	85.83778119087219	pulse	0	t		9.0	2.5	/experiments/knapen_AOT/AOT_stimuli/rescaled_final/1284_rv.mp4	0.0	96.44383215904236	
11	86.32159996032715	movie	1		229	9.0	2.5	/experiments/knapen_AOT/AOT_stimuli/rescaled_final/1284_rv.mp4	0.0	96.92765092849731	2.4331350326538086
11	87.43693113327026	pulse	1	t		9.0	2.5	/experiments/knapen_AOT/AOT_stimuli/rescaled_final/1284_rv.mp4	0.0	98.04298210144043	
11	88.75473499298096	fix_post	2		12	9.0	2.5	/experiments/knapen_AOT/AOT_stimuli/rescaled_final/1284_rv.mp4	0.0	99.36078596115112	0.10001397132873535
12	88.85474896430969	fix_pre	0		120	10.0	2.5	/experiments/knapen_AOT/AOT_stimuli/rescaled_final/0389_rv.mp4	0.0	99.46079993247986	1.0670111179351807
12	89.03844499588013	pulse	0	t		10.0	2.5	/experiments/knapen_AOT/AOT_stimuli/rescaled_final/0389_rv.mp4	0.0	99.6444959640503	
12	89.92176008224487	movie	1		216	10.0	2.5	/experiments/knapen_AOT/AOT_stimuli/rescaled_final/0389_rv.mp4	0.0	100.52781105041504	2.43353009223938
12	90.63859915733337	pulse	1	t		10.0	2.5	/experiments/knapen_AOT/AOT_stimuli/rescaled_final/0389_rv.mp4	0.0	101.24465012550354	
12	92.23717212677002	pulse	1	t		10.0	2.5	/experiments/knapen_AOT/AOT_stimuli/rescaled_final/0389_rv.mp4	0.0	102.84322309494019	
12	92.35529017448425	fix_post	2		12	10.0	2.5	/experiments/knapen_AOT/AOT_stimuli/rescaled_final/0389_rv.mp4	0.0	102.96134114265442	0.10007596015930176
13	92.45536613464355	fix_pre	0		120	11.0	2.5	/experiments/knapen_AOT/AOT_stimuli/rescaled_final/1243_rv.mp4	0.0	103.06141710281372	1.0502018928527832
13	93.50556802749634	movie	1		226	11.0	2.5	/experiments/knapen_AOT/AOT_stimuli/rescaled_final/1243_rv.mp4	0.0	104.1116189956665	2.441918134689331
13	93.83907508850098	pulse	1	t		11.0	2.5	/experiments/knapen_AOT/AOT_stimuli/rescaled_final/1243_rv.mp4	0.0	104.44512605667114	
13	95.43784809112549	pulse	1	t		11.0	2.5	/experiments/knapen_AOT/AOT_stimuli/rescaled_final/1243_rv.mp4	0.0	106.04389905929565	
13	95.94748616218567	fix_post	2		12	11.0	2.5	/experiments/knapen_AOT/AOT_stimuli/rescaled_final/1243_rv.mp4	0.0	106.55353713035583	0.09998202323913574
14	96.0474681854248	fix_pre	0		120	12.0	2.5	/experiments/knapen_AOT/AOT_stimuli/rescaled_final/1124_rv.mp4	0.0	106.65351915359497	1.0502359867095947
14	97.03950905799866	pulse	0	t		12.0	2.5	/experiments/knapen_AOT/AOT_stimuli/rescaled_final/1124_rv.mp4	0.0	107.64556002616882	
14	97.0977041721344	movie	1		224	12.0	2.5	/experiments/knapen_AOT/AOT_stimuli/rescaled_final/1124_rv.mp4	0.0	107.70375514030457	2.458716869354248
14	98.64393305778503	pulse	1	t		12.0	2.5	/experiments/knapen_AOT/AOT_stimuli/rescaled_final/1124_rv.mp4	0.0	109.2499840259552	
14	99.55642104148865	fix_post	2		12	12.0	2.5	/experiments/knapen_AOT/AOT_stimuli/rescaled_final/1124_rv.mp4	0.0	110.16247200965881	0.10001802444458008
15	99.65643906593323	fix_pre	0		120	13.0	2.5	blank	1.0	110.2624900341034	1.0001330375671387
15	100.24006795883179	pulse	0	t		13.0	2.5	blank	1.0	110.84611892700195	
15	100.65657210350037	movie	1		300	13.0	2.5	blank	1.0	111.26262307167053	2.500339984893799
15	101.84030508995056	pulse	1	t		13.0	2.5	blank	1.0	112.44635605812073	
15	103.15691208839417	fix_post	2		12	13.0	2.5	blank	1.0	113.76296305656433	0.10014510154724121
16	103.2570571899414	fix_pre	0		120	14.0	2.5	/experiments/knapen_AOT/AOT_stimuli/rescaled_final/0896_fw.mp4	0.0	113.86310815811157	1.0667259693145752
16	103.44060206413269	pulse	0	t		14.0	2.5	/experiments/knapen_AOT/AOT_stimuli/rescaled_final/0896_fw.mp4	0.0	114.04665303230286	
16	104.32378315925598	movie	1		216	14.0	2.5	/experiments/knapen_AOT/AOT_stimuli/rescaled_final/0896_fw.mp4	0.0	114.92983412742615	2.4336609840393066
16	105.04071617126465	pulse	1	t		14.0	2.5	/experiments/knapen_AOT/AOT_stimuli/rescaled_final/0896_fw.mp4	0.0	115.64676713943481	
16	106.6394350528717	pulse	1	t		14.0	2.5	/experiments/knapen_AOT/AOT_stimuli/rescaled_final/0896_fw.mp4	0.0	117.24548602104187	
16	106.75744414329529	fix_post	2		12	14.0	2.5	/experiments/knapen_AOT/AOT_stimuli/rescaled_final/0896_fw.mp4	0.0	117.36349511146545	0.10009598731994629
17	106.85754013061523	fix_pre	0		120	15.0	2.5	/experiments/knapen_AOT/AOT_stimuli/rescaled_final/0989_fw.mp4	0.0	117.4635910987854	1.0584399700164795
17	107.91598010063171	movie	1		218	15.0	2.5	/experiments/knapen_AOT/AOT_stimuli/rescaled_final/0989_fw.mp4	0.0	118.52203106880188	2.433652877807617
17	108.24192309379578	pulse	1	t		15.0	2.5	/experiments/knapen_AOT/AOT_stimuli/rescaled_final/0989_fw.mp4	0.0	118.84797406196594	
17	109.84149312973022	pulse	1	t		15.0	2.5	/experiments/knapen_AOT/AOT_stimuli/rescaled_final/0989_fw.mp4	0.0	120.44754409790039	
17	110.34963297843933	fix_post	2		12	15.0	2.5	/experiments/knapen_AOT/AOT_stimuli/rescaled_final/0989_fw.mp4	0.0	120.9556839466095	0.10001611709594727
18	110.44964909553528	fix_pre	0		120	16.0	2.5	/experiments/knapen_AOT/AOT_stimuli/rescaled_final/1491_fw.mp4	0.0	121.05570006370544	1.066878080368042
18	111.44161605834961	pulse	0	t		16.0	2.5	/experiments/knapen_AOT/AOT_stimuli/rescaled_final/1491_fw.mp4	0.0	122.04766702651978	
18	111.51652717590332	movie	1		234	16.0	2.5	/experiments/knapen_AOT/AOT_stimuli/rescaled_final/1491_fw.mp4	0.0	122.12257814407349	2.441978931427002
18	113.04078698158264	pulse	1	t		16.0	2.5	/experiments/knapen_AOT/AOT_stimuli/rescaled_final/1491_fw.mp4	0.0	123.64683794975281	
18	113.95850610733032	fix_post	2		12	16.0	2.5	/experiments/knapen_AOT/AOT_stimuli/rescaled_final/1491_fw.mp4	0.0	124.56455707550049	0.10002493858337402
19	114.0585310459137	fix_pre	0		120	17.0	2.5	/experiments/knapen_AOT/AOT_stimuli/rescaled_final/1700_fw.mp4	0.0	124.66458201408386	1.0834951400756836
19	114.64207196235657	pulse	0	t		17.0	2.5	/experiments/knapen_AOT/AOT_stimuli/rescaled_final/1700_fw.mp4	0.0	125.24812293052673	
19	115.14202618598938	movie	1		232	17.0	2.5	/experiments/knapen_AOT/AOT_stimuli/rescaled_final/1700_fw.mp4	0.0	125.74807715415955	2.41701078414917
19	116.2406849861145	pulse	1	t		17.0	2.5	/experiments/knapen_AOT/AOT_stimuli/rescaled_final/1700_fw.mp4	0.0	126.84673595428467	
19	117.55903697013855	fix_post	2		12	17.0	2.5	/experiments/knapen_AOT/AOT_stimuli/rescaled_final/1700_fw.mp4	0.0	128.16508793830872	0.10000419616699219
20	117.65904116630554	fix_pre	0		120	18.0	2.5	/experiments/knapen_AOT/AOT_stimuli/rescaled_final/0736_rv.mp4	0.0	128.2650921344757	1.0752508640289307
20	117.84261918067932	pulse	0	t		18.0	2.5	/experiments/knapen_AOT/AOT_stimuli/rescaled_final/0736_rv.mp4	0.0	128.4486701488495	
20	118.73429203033447	movie	1		223	18.0	2.5	/experiments/knapen_AOT/AOT_stimuli/rescaled_final/0736_rv.mp4	0.0	129.34034299850464	2.433619976043701
20	119.44295716285706	pulse	1	t		18.0	2.5	/experiments/knapen_AOT/AOT_stimuli/rescaled_final/0736_rv.mp4	0.0	130.04900813102722	
20	121.04162907600403	pulse	1	t		18.0	2.5	/experiments/knapen_AOT/AOT_stimuli/rescaled_final/0736_rv.mp4	0.0	131.6476800441742	
20	121.16791200637817	fix_post	2		11	18.0	2.5	/experiments/knapen_AOT/AOT_stimuli/rescaled_final/0736_rv.mp4	0.0	131.77396297454834	0.09169602394104004
21	121.25960803031921	fix_pre	0		120	19.0	2.5	blank	1.0	131.86565899848938	1.0001330375671387
21	122.25974106788635	movie	1		299	19.0	2.5	blank	1.0	132.86579203605652	2.492060899734497
21	122.64338207244873	pulse	1	t		19.0	2.5	blank	1.0	133.2494330406189	
21	124.24361801147461	pulse	1	t		19.0	2.5	blank	1.0	134.84966897964478	
21	124.75180196762085	fix_post	2		12	19.0	2.5	blank	1.0	135.35785293579102	0.09998917579650879
22	124.85179114341736	fix_pre	0		120	20.0	2.5	/experiments/knapen_AOT/AOT_stimuli/rescaled_final/0263_fw.mp4	0.0	135.45784211158752	1.0668919086456299
22	125.8364520072937	pulse	0	t		20.0	2.5	/experiments/knapen_AOT/AOT_stimuli/rescaled_final/0263_fw.mp4	0.0	136.44250297546387	
22	125.91868305206299	movie	1		218	20.0	2.5	/experiments/knapen_AOT/AOT_stimuli/rescaled_final/0263_fw.mp4	0.0	136.52473402023315	2.441981077194214
22	127.44246411323547	pulse	1	t		20.0	2.5	/experiments/knapen_AOT/AOT_stimuli/rescaled_final/0263_fw.mp4	0.0	138.04851508140564	
22	128.3606641292572	fix_post	2		12	20.0	2.5	/experiments/knapen_AOT/AOT_stimuli/rescaled_final/0263_fw.mp4	0.0	138.96671509742737	0.10007596015930176
23	128.4607400894165	fix_pre	0		120	21.0	2.5	/experiments/knapen_AOT/AOT_stimuli/rescaled_final/0723_rv.mp4	0.0	139.06679105758667	1.0501089096069336
23	129.0367751121521	pulse	0	t		21.0	2.5	/experiments/knapen_AOT/AOT_stimuli/rescaled_final/0723_rv.mp4	0.0	139.64282608032227	
23	129.51084899902344	movie	1		242	21.0	2.5	/experiments/knapen_AOT/AOT_stimuli/rescaled_final/0723_rv.mp4	0.0	140.1168999671936	2.4503540992736816
23	130.64471817016602	pulse	1	t		21.0	2.5	/experiments/knapen_AOT/AOT_stimuli/rescaled_final/0723_rv.mp4	0.0	141.25076913833618	
23	131.96120309829712	fix_post	2		12	21.0	2.5	/experiments/knapen_AOT/AOT_stimuli/rescaled_final/0723_rv.mp4	0.0	142.56725406646729	0.10003495216369629
24	132.06123805046082	fix_pre	0		120	22.0	2.5	/experiments/knapen_AOT/AOT_stimuli/rescaled_final/0750_rv.mp4	0.0	142.66728901863098	1.0584890842437744
24	132.23642802238464	pulse	0	t		22.0	2.5	/experiments/knapen_AOT/AOT_stimuli/rescaled_final/0750_rv.mp4	0.0	142.8424789905548	
24	133.1197271347046	movie	1		247	22.0	2.5	/experiments/knapen_AOT/AOT_stimuli/rescaled_final/0750_rv.mp4	0.0	143.72577810287476	2.44199800491333
24	133.8366780281067	pulse	1	t		22.0	2.5	/experiments/knapen_AOT/AOT_stimuli/rescaled_final/0750_rv.mp4	0.0	144.44272899627686	
24	135.4368281364441	pulse	1	t		22.0	2.5	/experiments/knapen_AOT/AOT_stimuli/rescaled_final/0750_rv.mp4	0.0	146.04287910461426	
24	135.56172513961792	fix_post	2		12	22.0	2.5	/experiments/knapen_AOT/AOT_stimuli/rescaled_final/0750_rv.mp4	0.0	146.1677761077881	0.10002899169921875
25	135.66175413131714	fix_pre	0		119	23.0	2.5	/experiments/knapen_AOT/AOT_stimuli/rescaled_final/1050_fw.mp4	0.0	146.2678050994873	1.0751750469207764
25	136.73692917823792	movie	1		218	23.0	2.5	/experiments/knapen_AOT/AOT_stimuli/rescaled_final/1050_fw.mp4	0.0	147.34298014640808	2.4170069694519043
25	137.03720903396606	pulse	1	t		23.0	2.5	/experiments/knapen_AOT/AOT_stimuli/rescaled_final/1050_fw.mp4	0.0	147.64326000213623	
25	138.63747715950012	pulse	1	t		23.0	2.5	/experiments/knapen_AOT/AOT_stimuli/rescaled_final/1050_fw.mp4	0.0	149.2435281276703	
25	139.15393614768982	fix_post	2		12	23.0	2.5	/experiments/knapen_AOT/AOT_stimuli/rescaled_final/1050_fw.mp4	0.0	149.75998711585999	0.09999585151672363
26	139.25393199920654	fix_pre	0		119	24.0	2.5	/experiments/knapen_AOT/AOT_stimuli/rescaled_final/0632_rv.mp4	0.0	149.8599829673767	1.075206995010376
26	140.23768496513367	pulse	0	t		24.0	2.5	/experiments/knapen_AOT/AOT_stimuli/rescaled_final/0632_rv.mp4	0.0	150.84373593330383	
26	140.32913899421692	movie	1		231	24.0	2.5	/experiments/knapen_AOT/AOT_stimuli/rescaled_final/0632_rv.mp4	0.0	150.93518996238708	2.42533802986145
26	141.8367040157318	pulse	1	t		24.0	2.5	/experiments/knapen_AOT/AOT_stimuli/rescaled_final/0632_rv.mp4	0.0	152.44275498390198	
26	142.75447702407837	fix_post	2		12	24.0	2.5	/experiments/knapen_AOT/AOT_stimuli/rescaled_final/0632_rv.mp4	0.0	153.36052799224854	0.09998893737792969
27	142.8544659614563	fix_pre	0		120	25.0	2.5	/experiments/knapen_AOT/AOT_stimuli/rescaled_final/2102_fw.mp4	0.0	153.46051692962646	1.0668621063232422
27	143.43804907798767	pulse	0	t		25.0	2.5	/experiments/knapen_AOT/AOT_stimuli/rescaled_final/2102_fw.mp4	0.0	154.04410004615784	
27	143.92132806777954	movie	1		235	25.0	2.5	/experiments/knapen_AOT/AOT_stimuli/rescaled_final/2102_fw.mp4	0.0	154.5273790359497	2.433669090270996
27	145.03698110580444	pulse	1	t		25.0	2.5	/experiments/knapen_AOT/AOT_stimuli/rescaled_final/2102_fw.mp4	0.0	155.6430320739746	
27	146.35499715805054	fix_post	2		12	25.0	2.5	/experiments/knapen_AOT/AOT_stimuli/rescaled_final/2102_fw.mp4	0.0	156.9610481262207	0.10004901885986328
28	146.4550461769104	fix_pre	0		120	26.0	2.5	/experiments/knapen_AOT/AOT_stimuli/rescaled_final/0298_fw.mp4	0.0	157.06109714508057	1.0587170124053955
28	146.63853096961975	pulse	0	t		26.0	2.5	/experiments/knapen_AOT/AOT_stimuli/rescaled_final/0298_fw.mp4	0.0	157.24458193778992	
28	147.5137631893158	movie	1		229	26.0	2.5	/experiments/knapen_AOT/AOT_stimuli/rescaled_final/0298_fw.mp4	0.0	158.11981415748596	2.4418118000030518
28	148.23737215995789	pulse	1	t		26.0	2.5	/experiments/knapen_AOT/AOT_stimuli/rescaled_final/0298_fw.mp4	0.0	158.84342312812805	
28	149.83725714683533	pulse	1	t		26.0	2.5	/experiments/knapen_AOT/AOT_stimuli/rescaled_final/0298_fw.mp4	0.0	160.4433081150055	
28	149.95557498931885	fix_post	2		12	26.0	2.5	/experiments/knapen_AOT/AOT_stimuli/rescaled_final/0298_fw.mp4	0.0	160.561625957489	0.09998607635498047
29	150.05556106567383	fix_pre	0		120	27.0	2.5	/experiments/knapen_AOT/AOT_stimuli/rescaled_final/1025_rv.mp4	0.0	160.661612033844	1.0508449077606201
29	151.10640597343445	movie	1		241	27.0	2.5	/experiments/knapen_AOT/AOT_stimuli/rescaled_final/1025_rv.mp4	0.0	161.71245694160461	2.44134521484375
29	151.43745517730713	pulse	1	t		27.0	2.5	/experiments/knapen_AOT/AOT_stimuli/rescaled_final/1025_rv.mp4	0.0	162.0435061454773	
29	153.03821897506714	pulse	1	t		27.0	2.5	/experiments/knapen_AOT/AOT_stimuli/rescaled_final/1025_rv.mp4	0.0	163.6442699432373	
29	153.5477511882782	fix_post	2		12	27.0	2.5	/experiments/knapen_AOT/AOT_stimuli/rescaled_final/1025_rv.mp4	0.0	164.15380215644836	0.09999680519104004
30	153.64774799346924	fix_pre	0		120	28.0	2.5	blank	1.0	164.2537989616394	1.000143051147461
30	154.6398651599884	pulse	0	t		28.0	2.5	blank	1.0	165.24591612815857	
30	154.6478910446167	movie	1		301	28.0	2.5	blank	1.0	165.25394201278687	2.508747100830078
30	156.23996710777283	pulse	1	t		28.0	2.5	blank	1.0	166.846018075943	
30	157.15663814544678	fix_post	2		12	28.0	2.5	blank	1.0	167.76268911361694	0.0999898910522461
31	157.25662803649902	fix_pre	0		120	29.0	2.5	/experiments/knapen_AOT/AOT_stimuli/rescaled_final/1649_fw.mp4	0.0	167.8626790046692	1.050234079360962
31	157.840322971344	pulse	0	t		29.0	2.5	/experiments/knapen_AOT/AOT_stimuli/rescaled_final/1649_fw.mp4	0.0	168.44637393951416	
31	158.30686211585999	movie	1		254	29.0	2.5	/experiments/knapen_AOT/AOT_stimuli/rescaled_final/1649_fw.mp4	0.0	168.91291308403015	2.450307846069336
31	159.44066905975342	pulse	1	t		29.0	2.5	/experiments/knapen_AOT/AOT_stimuli/rescaled_final/1649_fw.mp4	0.0	170.04672002792358	
31	160.75716996192932	fix_post	2		12	29.0	2.5	/experiments/knapen_AOT/AOT_stimuli/rescaled_final/1649_fw.mp4	0.0	171.3632209300995	0.09997200965881348
32	160.85714197158813	fix_pre	0		120	30.0	2.5	/experiments/knapen_AOT/AOT_stimuli/rescaled_final/0673_fw.mp4	0.0	171.4631929397583	1.0836241245269775
32	161.04082918167114	pulse	0	t		30.0	2.5	/experiments/knapen_AOT/AOT_stimuli/rescaled_final/0673_fw.mp4	0.0	171.6468801498413	
32	161.9407660961151	movie	1		262	30.0	2.5	/experiments/knapen_AOT/AOT_stimuli/rescaled_final/0673_fw.mp4	0.0	172.54681706428528	2.416929006576538
32	162.63995218276978	pulse	1	t		30.0	2.5	/experiments/knapen_AOT/AOT_stimuli/rescaled_final/0673_fw.mp4	0.0	173.24600315093994	
32	164.24004316329956	pulse	1	t		30.0	2.5	/experiments/knapen_AOT/AOT_stimuli/rescaled_final/0673_fw.mp4	0.0	174.84609413146973	
32	164.35769510269165	fix_post	2		12	30.0	2.5	/experiments/knapen_AOT/AOT_stimuli/rescaled_final/0673_fw.mp4	0.0	174.96374607086182	0.10000395774841309
33	164.45769906044006	fix_pre	0		120	31.0	2.5	/experiments/knapen_AOT/AOT_stimuli/rescaled_final/0622_fw.mp4	0.0	175.06375002861023	1.0585730075836182
33	165.51627206802368	movie	1		242	31.0	2.5	/experiments/knapen_AOT/AOT_stimuli/rescaled_final/0622_fw.mp4	0.0	176.12232303619385	2.433619976043701
33	165.840341091156	pulse	1	t		31.0	2.5	/experiments/knapen_AOT/AOT_stimuli/rescaled_final/0622_fw.mp4	0.0	176.44639205932617	
33	167.44186902046204	pulse	1	t		31.0	2.5	/experiments/knapen_AOT/AOT_stimuli/rescaled_final/0622_fw.mp4	0.0	178.0479199886322	
33	167.94989204406738	fix_post	2		12	31.0	2.5	/experiments/knapen_AOT/AOT_stimuli/rescaled_final/0622_fw.mp4	0.0	178.55594301223755	0.09999704360961914
34	168.049889087677	fix_pre	0		120	32.0	2.5	/experiments/knapen_AOT/AOT_stimuli/rescaled_final/0810_rv.mp4	0.0	178.65594005584717	1.0669090747833252
34	169.04195499420166	pulse	0	t		32.0	2.5	/experiments/knapen_AOT/AOT_stimuli/rescaled_final/0810_rv.mp4	0.0	179.64800596237183	
34	169.11679816246033	movie	1		222	32.0	2.5	/experiments/knapen_AOT/AOT_stimuli/rescaled_final/0810_rv.mp4	0.0	179.7228491306305	2.4419779777526855
34	170.64049005508423	pulse	1	t		32.0	2.5	/experiments/knapen_AOT/AOT_stimuli/rescaled_final/0810_rv.mp4	0.0	181.2465410232544	
34	171.558776140213	fix_post	2		12	32.0	2.5	/experiments/knapen_AOT/AOT_stimuli/rescaled_final/0810_rv.mp4	0.0	182.16482710838318	0.09997391700744629
35	171.65875005722046	fix_pre	0		120	33.0	2.5	/experiments/knapen_AOT/AOT_stimuli/rescaled_final/1765_fw.mp4	0.0	182.26480102539062	1.0835909843444824
35	172.2424349784851	pulse	0	t		33.0	2.5	/experiments/knapen_AOT/AOT_stimuli/rescaled_final/1765_fw.mp4	0.0	182.84848594665527	
35	172.74234104156494	movie	1		225	33.0	2.5	/experiments/knapen_AOT/AOT_stimuli/rescaled_final/1765_fw.mp4	0.0	183.3483920097351	2.416985034942627
35	173.84134602546692	pulse	1	t		33.0	2.5	/experiments/knapen_AOT/AOT_stimuli/rescaled_final/1765_fw.mp4	0.0	184.44739699363708	
35	175.15932607650757	fix_post	2		12	33.0	2.5	/experiments/knapen_AOT/AOT_stimuli/rescaled_final/1765_fw.mp4	0.0	185.76537704467773	0.09997105598449707
36	175.25929713249207	fix_pre	0		120	34.0	2.5	blank	1.0	185.86534810066223	1.0001709461212158
36	175.44286918640137	pulse	0	t		34.0	2.5	blank	1.0	186.04892015457153	
36	176.25946807861328	movie	1		300	34.0	2.5	blank	1.0	186.86551904678345	2.5003719329833984
36	177.0430610179901	pulse	1	t		34.0	2.5	blank	1.0	187.64911198616028	
36	178.63576698303223	pulse	1	t		34.0	2.5	blank	1.0	189.2418179512024	
36	178.75984001159668	fix_post	2		12	34.0	2.5	blank	1.0	189.36589097976685	0.0999901294708252
37	178.8598301410675	fix_pre	0		120	35.0	2.5	/experiments/knapen_AOT/AOT_stimuli/rescaled_final/1433_fw.mp4	0.0	189.46588110923767	1.0669069290161133
37	179.92673707008362	movie	1		217	35.0	2.5	/experiments/knapen_AOT/AOT_stimuli/rescaled_final/1433_fw.mp4	0.0	190.53278803825378	2.4252920150756836
37	180.24226307868958	pulse	1	t		35.0	2.5	/experiments/knapen_AOT/AOT_stimuli/rescaled_final/1433_fw.mp4	0.0	190.84831404685974	
37	181.8435230255127	pulse	1	t		35.0	2.5	/experiments/knapen_AOT/AOT_stimuli/rescaled_final/1433_fw.mp4	0.0	192.44957399368286	
37	182.3520290851593	fix_post	2		12	35.0	2.5	/experiments/knapen_AOT/AOT_stimuli/rescaled_final/1433_fw.mp4	0.0	192.95808005332947	0.10003304481506348
38	182.45206212997437	fix_pre	0		120	36.0	2.5	/experiments/knapen_AOT/AOT_stimuli/rescaled_final/0780_fw.mp4	0.0	193.05811309814453	1.0668659210205078
38	183.43650913238525	pulse	0	t		36.0	2.5	/experiments/knapen_AOT/AOT_stimuli/rescaled_final/0780_fw.mp4	0.0	194.04256010055542	
38	183.51892805099487	movie	1		222	36.0	2.5	/experiments/knapen_AOT/AOT_stimuli/rescaled_final/0780_fw.mp4	0.0	194.12497901916504	2.4419901371002197
38	185.03615617752075	pulse	1	t		36.0	2.5	/experiments/knapen_AOT/AOT_stimuli/rescaled_final/0780_fw.mp4	0.0	195.64220714569092	
38	185.9609181880951	fix_post	2		12	36.0	2.5	/experiments/knapen_AOT/AOT_stimuli/rescaled_final/0780_fw.mp4	0.0	196.56696915626526	0.09999799728393555
39	186.06091618537903	fix_pre	0		120	37.0	2.5	/experiments/knapen_AOT/AOT_stimuli/rescaled_final/0089_fw.mp4	0.0	196.6669671535492	1.0668728351593018
39	186.63622212409973	pulse	0	t		37.0	2.5	/experiments/knapen_AOT/AOT_stimuli/rescaled_final/0089_fw.mp4	0.0	197.2422730922699	
39	187.12778902053833	movie	1		229	37.0	2.5	/experiments/knapen_AOT/AOT_stimuli/rescaled_final/0089_fw.mp4	0.0	197.7338399887085	2.43365216255188
39	188.23637318611145	pulse	1	t		37.0	2.5	/experiments/knapen_AOT/AOT_stimuli/rescaled_final/0089_fw.mp4	0.0	198.84242415428162	
39	189.5614411830902	fix_post	2		12	37.0	2.5	/experiments/knapen_AOT/AOT_stimuli/rescaled_final/0089_fw.mp4	0.0	200.16749215126038	0.10003280639648438
40	189.6614739894867	fix_pre	0		120	38.0	2.5	/experiments/knapen_AOT/AOT_stimuli/rescaled_final/0560_fw.mp4	0.0	200.26752495765686	1.0835461616516113
40	189.83669805526733	pulse	0	t		38.0	2.5	/experiments/knapen_AOT/AOT_stimuli/rescaled_final/0560_fw.mp4	0.0	200.4427490234375	
40	190.7450201511383	movie	1		236	38.0	2.5	/experiments/knapen_AOT/AOT_stimuli/rescaled_final/0560_fw.mp4	0.0	201.35107111930847	2.4169700145721436
40	191.43686699867249	pulse	1	t		38.0	2.5	/experiments/knapen_AOT/AOT_stimuli/rescaled_final/0560_fw.mp4	0.0	202.04291796684265	
40	193.0370490550995	pulse	1	t		38.0	2.5	/experiments/knapen_AOT/AOT_stimuli/rescaled_final/0560_fw.mp4	0.0	203.64310002326965	
40	193.16199016571045	fix_post	2		12	38.0	2.5	/experiments/knapen_AOT/AOT_stimuli/rescaled_final/0560_fw.mp4	0.0	203.76804113388062	0.09993600845336914
41	193.26192617416382	fix_pre	0		119	39.0	2.5	/experiments/knapen_AOT/AOT_stimuli/rescaled_final/1700_fw.mp4	0.0	203.86797714233398	1.075232982635498
41	194.33715915679932	movie	1		233	39.0	2.5	/experiments/knapen_AOT/AOT_stimuli/rescaled_final/1700_fw.mp4	0.0	204.94321012496948	2.4170358180999756
41	194.63735008239746	pulse	1	t		39.0	2.5	/experiments/knapen_AOT/AOT_stimuli/rescaled_final/1700_fw.mp4	0.0	205.24340105056763	
41	196.2361671924591	pulse	1	t		39.0	2.5	/experiments/knapen_AOT/AOT_stimuli/rescaled_final/1700_fw.mp4	0.0	206.84221816062927	
41	196.7541949748993	fix_post	2		12	39.0	2.5	/experiments/knapen_AOT/AOT_stimuli/rescaled_final/1700_fw.mp4	0.0	207.36024594306946	0.10002899169921875
42	196.8542239665985	fix_pre	0		119	40.0	2.5	/experiments/knapen_AOT/AOT_stimuli/rescaled_final/1450_rv.mp4	0.0	207.46027493476868	1.0752780437469482
42	197.83780908584595	pulse	0	t		40.0	2.5	/experiments/knapen_AOT/AOT_stimuli/rescaled_final/1450_rv.mp4	0.0	208.4438600540161	
42	197.92950201034546	movie	1		223	40.0	2.5	/experiments/knapen_AOT/AOT_stimuli/rescaled_final/1450_rv.mp4	0.0	208.53555297851562	2.433573007583618
42	199.43787598609924	pulse	1	t		40.0	2.5	/experiments/knapen_AOT/AOT_stimuli/rescaled_final/1450_rv.mp4	0.0	210.0439269542694	
42	200.36307501792908	fix_post	2		11	40.0	2.5	/experiments/knapen_AOT/AOT_stimuli/rescaled_final/1450_rv.mp4	0.0	210.96912598609924	0.09164905548095703
43	200.45472407341003	fix_pre	0		120	41.0	2.5	blank	1.0	211.0607750415802	1.0001649856567383
43	201.03842306137085	pulse	0	t		41.0	2.5	blank	1.0	211.64447402954102	
43	201.45488905906677	movie	1		300	41.0	2.5	blank	1.0	212.06094002723694	2.5003750324249268
43	202.63862013816833	pulse	1	t		41.0	2.5	blank	1.0	213.2446711063385	
43	203.9552640914917	fix_post	2		12	41.0	2.5	blank	1.0	214.56131505966187	0.09999299049377441
44	204.05525708198547	fix_pre	0		120	42.0	2.5	/experiments/knapen_AOT/AOT_stimuli/rescaled_final/1202_fw.mp4	0.0	214.66130805015564	1.058532953262329
44	204.23877906799316	pulse	0	t		42.0	2.5	/experiments/knapen_AOT/AOT_stimuli/rescaled_final/1202_fw.mp4	0.0	214.84483003616333	
44	205.1137900352478	movie	1		233	42.0	2.5	/experiments/knapen_AOT/AOT_stimuli/rescaled_final/1202_fw.mp4	0.0	215.71984100341797	2.442007064819336
44	205.83772206306458	pulse	1	t		42.0	2.5	/experiments/knapen_AOT/AOT_stimuli/rescaled_final/1202_fw.mp4	0.0	216.44377303123474	
44	207.43791508674622	pulse	1	t		42.0	2.5	/experiments/knapen_AOT/AOT_stimuli/rescaled_final/1202_fw.mp4	0.0	218.04396605491638	
44	207.55579710006714	fix_post	2		12	42.0	2.5	/experiments/knapen_AOT/AOT_stimuli/rescaled_final/1202_fw.mp4	0.0	218.1618480682373	0.1000208854675293
45	207.65581798553467	fix_pre	0		120	43.0	2.5	/experiments/knapen_AOT/AOT_stimuli/rescaled_final/0876_rv.mp4	0.0	218.26186895370483	1.0505061149597168
45	208.70632410049438	movie	1		234	43.0	2.5	/experiments/knapen_AOT/AOT_stimuli/rescaled_final/0876_rv.mp4	0.0	219.31237506866455	2.441673994064331
45	209.039213180542	pulse	1	t		43.0	2.5	/experiments/knapen_AOT/AOT_stimuli/rescaled_final/0876_rv.mp4	0.0	219.64526414871216	
45	210.6383671760559	pulse	1	t		43.0	2.5	/experiments/knapen_AOT/AOT_stimuli/rescaled_final/0876_rv.mp4	0.0	221.24441814422607	
45	211.14799809455872	fix_post	2		12	43.0	2.5	/experiments/knapen_AOT/AOT_stimuli/rescaled_final/0876_rv.mp4	0.0	221.75404906272888	0.1000359058380127
46	211.24803400039673	fix_pre	0		120	44.0	2.5	/experiments/knapen_AOT/AOT_stimuli/rescaled_final/1823_rv.mp4	0.0	221.8540849685669	1.091839075088501
46	212.23997902870178	pulse	0	t		44.0	2.5	/experiments/knapen_AOT/AOT_stimuli/rescaled_final/1823_rv.mp4	0.0	222.84602999687195	
46	212.33987307548523	movie	1		241	44.0	2.5	/experiments/knapen_AOT/AOT_stimuli/rescaled_final/1823_rv.mp4	0.0	222.9459240436554	2.417004108428955
46	213.84009909629822	pulse	1	t		44.0	2.5	/experiments/knapen_AOT/AOT_stimuli/rescaled_final/1823_rv.mp4	0.0	224.44615006446838	
46	214.75687718391418	fix_post	2		12	44.0	2.5	/experiments/knapen_AOT/AOT_stimuli/rescaled_final/1823_rv.mp4	0.0	225.36292815208435	0.10001587867736816
47	214.85689306259155	fix_pre	0		120	45.0	2.5	/experiments/knapen_AOT/AOT_stimuli/rescaled_final/1507_fw.mp4	0.0	225.46294403076172	1.0751779079437256
47	215.4405620098114	pulse	0	t		45.0	2.5	/experiments/knapen_AOT/AOT_stimuli/rescaled_final/1507_fw.mp4	0.0	226.04661297798157	
47	215.93207097053528	movie	1		237	45.0	2.5	/experiments/knapen_AOT/AOT_stimuli/rescaled_final/1507_fw.mp4	0.0	226.53812193870544	2.4253220558166504
47	217.0391411781311	pulse	1	t		45.0	2.5	/experiments/knapen_AOT/AOT_stimuli/rescaled_final/1507_fw.mp4	0.0	227.64519214630127	
47	218.35739302635193	fix_post	2		12	45.0	2.5	/experiments/knapen_AOT/AOT_stimuli/rescaled_final/1507_fw.mp4	0.0	228.9634439945221	0.10002613067626953
48	218.4574191570282	fix_pre	0		120	46.0	2.5	/experiments/knapen_AOT/AOT_stimuli/rescaled_final/1817_rv.mp4	0.0	229.06347012519836	1.0669238567352295
48	218.64094018936157	pulse	0	t		46.0	2.5	/experiments/knapen_AOT/AOT_stimuli/rescaled_final/1817_rv.mp4	0.0	229.24699115753174	
48	219.52434301376343	movie	1		246	46.0	2.5	/experiments/knapen_AOT/AOT_stimuli/rescaled_final/1817_rv.mp4	0.0	230.1303939819336	2.4252569675445557
48	220.2408151626587	pulse	1	t		46.0	2.5	/experiments/knapen_AOT/AOT_stimuli/rescaled_final/1817_rv.mp4	0.0	230.84686613082886	
48	221.839781999588	pulse	1	t		46.0	2.5	/experiments/knapen_AOT/AOT_stimuli/rescaled_final/1817_rv.mp4	0.0	232.44583296775818	
48	221.94959998130798	fix_post	2		13	46.0	2.5	/experiments/knapen_AOT/AOT_stimuli/rescaled_final/1817_rv.mp4	0.0	232.55565094947815	0.1083531379699707
49	222.05795311927795	fix_pre	0		120	47.0	2.5	/experiments/knapen_AOT/AOT_stimuli/rescaled_final/0035_rv.mp4	0.0	232.66400408744812	1.0752758979797363
49	223.1332290172577	movie	1		245	47.0	2.5	/experiments/knapen_AOT/AOT_stimuli/rescaled_final/0035_rv.mp4	0.0	233.73927998542786	2.4168970584869385
49	223.44185709953308	pulse	1	t		47.0	2.5	/experiments/knapen_AOT/AOT_stimuli/rescaled_final/0035_rv.mp4	0.0	234.04790806770325	
49	225.0409550666809	pulse	1	t		47.0	2.5	/experiments/knapen_AOT/AOT_stimuli/rescaled_final/0035_rv.mp4	0.0	235.64700603485107	
49	225.55012607574463	fix_post	2		12	47.0	2.5	/experiments/knapen_AOT/AOT_stimuli/rescaled_final/0035_rv.mp4	0.0	236.1561770439148	0.100006103515625
50	225.65013217926025	fix_pre	0		120	48.0	2.5	/experiments/knapen_AOT/AOT_stimuli/rescaled_final/0094_fw.mp4	0.0	236.25618314743042	1.0591788291931152
50	226.6422140598297	pulse	0	t		48.0	2.5	/experiments/knapen_AOT/AOT_stimuli/rescaled_final/0094_fw.mp4	0.0	237.24826502799988	
50	226.70931100845337	movie	1		240	48.0	2.5	/experiments/knapen_AOT/AOT_stimuli/rescaled_final/0094_fw.mp4	0.0	237.31536197662354	2.449723958969116
50	228.24354314804077	pulse	1	t		48.0	2.5	/experiments/knapen_AOT/AOT_stimuli/rescaled_final/0094_fw.mp4	0.0	238.84959411621094	
50	229.15903496742249	fix_post	2		12	48.0	2.5	/experiments/knapen_AOT/AOT_stimuli/rescaled_final/0094_fw.mp4	0.0	239.76508593559265	0.1000211238861084
51	229.2590560913086	fix_pre	0		120	49.0	2.5	blank	1.0	239.86510705947876	1.0001189708709717
51	229.84275603294373	pulse	0	t		49.0	2.5	blank	1.0	240.4488070011139	
51	230.25917506217957	movie	1		300	49.0	2.5	blank	1.0	240.86522603034973	2.5004069805145264
51	231.44281697273254	pulse	1	t		49.0	2.5	blank	1.0	242.0488679409027	
51	232.7595820426941	fix_post	2		12	49.0	2.5	blank	1.0	243.36563301086426	0.0999751091003418
52	232.85955715179443	fix_pre	0		120	50.0	2.5	/experiments/knapen_AOT/AOT_stimuli/rescaled_final/1289_fw.mp4	0.0	243.4656081199646	1.0752229690551758
52	233.04312705993652	pulse	0	t		50.0	2.5	/experiments/knapen_AOT/AOT_stimuli/rescaled_final/1289_fw.mp4	0.0	243.6491780281067	
52	233.9347801208496	movie	1		234	50.0	2.5	/experiments/knapen_AOT/AOT_stimuli/rescaled_final/1289_fw.mp4	0.0	244.54083108901978	2.416956901550293
52	234.64314317703247	pulse	1	t		50.0	2.5	/experiments/knapen_AOT/AOT_stimuli/rescaled_final/1289_fw.mp4	0.0	245.24919414520264	
52	236.24201703071594	pulse	1	t		50.0	2.5	/experiments/knapen_AOT/AOT_stimuli/rescaled_final/1289_fw.mp4	0.0	246.8480679988861	
52	236.3517370223999	fix_post	2		13	50.0	2.5	/experiments/knapen_AOT/AOT_stimuli/rescaled_final/1289_fw.mp4	0.0	246.95778799057007	0.1083669662475586
53	236.46010398864746	fix_pre	0		120	51.0	2.5	/experiments/knapen_AOT/AOT_stimuli/rescaled_final/1025_rv.mp4	0.0	247.06615495681763	1.066910982131958
53	237.52701497077942	movie	1		226	51.0	2.5	/experiments/knapen_AOT/AOT_stimuli/rescaled_final/1025_rv.mp4	0.0	248.13306593894958	2.4253041744232178
53	237.84220218658447	pulse	1	t		51.0	2.5	/experiments/knapen_AOT/AOT_stimuli/rescaled_final/1025_rv.mp4	0.0	248.44825315475464	
53	239.44417905807495	pulse	1	t		51.0	2.5	/experiments/knapen_AOT/AOT_stimuli/rescaled_final/1025_rv.mp4	0.0	250.05023002624512	
53	239.95231914520264	fix_post	2		12	51.0	2.5	/experiments/knapen_AOT/AOT_stimuli/rescaled_final/1025_rv.mp4	0.0	250.5583701133728	0.10001182556152344
54	240.05233097076416	fix_pre	0		120	52.0	2.5	/experiments/knapen_AOT/AOT_stimuli/rescaled_final/0602_rv.mp4	0.0	250.65838193893433	1.0669090747833252
54	241.03674411773682	pulse	0	t		52.0	2.5	/experiments/knapen_AOT/AOT_stimuli/rescaled_final/0602_rv.mp4	0.0	251.64279508590698	
54	241.11924004554749	movie	1		241	52.0	2.5	/experiments/knapen_AOT/AOT_stimuli/rescaled_final/0602_rv.mp4	0.0	251.72529101371765	2.4419281482696533
54	242.6430699825287	pulse	1	t		52.0	2.5	/experiments/knapen_AOT/AOT_stimuli/rescaled_final/0602_rv.mp4	0.0	253.24912095069885	
54	243.56116819381714	fix_post	2		12	52.0	2.5	/experiments/knapen_AOT/AOT_stimuli/rescaled_final/0602_rv.mp4	0.0	254.1672191619873	0.10002994537353516
55	243.66119813919067	fix_pre	0		120	53.0	2.5	/experiments/knapen_AOT/AOT_stimuli/rescaled_final/1663_rv.mp4	0.0	254.26724910736084	1.05023193359375
55	244.2374050617218	pulse	0	t		53.0	2.5	/experiments/knapen_AOT/AOT_stimuli/rescaled_final/1663_rv.mp4	0.0	254.84345602989197	
55	244.71143007278442	movie	1		254	53.0	2.5	/experiments/knapen_AOT/AOT_stimuli/rescaled_final/1663_rv.mp4	0.0	255.3174810409546	2.450269937515259
55	245.83724212646484	pulse	1	t		53.0	2.5	/experiments/knapen_AOT/AOT_stimuli/rescaled_final/1663_rv.mp4	0.0	256.443293094635	
55	247.16170001029968	fix_post	2		12	53.0	2.5	/experiments/knapen_AOT/AOT_stimuli/rescaled_final/1663_rv.mp4	0.0	257.76775097846985	0.1000361442565918
56	247.26173615455627	fix_pre	0		120	54.0	2.5	/experiments/knapen_AOT/AOT_stimuli/rescaled_final/0548_rv.mp4	0.0	257.86778712272644	1.083611011505127
56	247.43689703941345	pulse	0	t		54.0	2.5	/experiments/knapen_AOT/AOT_stimuli/rescaled_final/0548_rv.mp4	0.0	258.0429480075836	
56	248.3453471660614	movie	1		247	54.0	2.5	/experiments/knapen_AOT/AOT_stimuli/rescaled_final/0548_rv.mp4	0.0	258.95139813423157	2.4168708324432373
56	249.0370581150055	pulse	1	t		54.0	2.5	/experiments/knapen_AOT/AOT_stimuli/rescaled_final/0548_rv.mp4	0.0	259.64310908317566	
56	250.6367950439453	pulse	1	t		54.0	2.5	/experiments/knapen_AOT/AOT_stimuli/rescaled_final/0548_rv.mp4	0.0	261.2428460121155	
56	250.76221799850464	fix_post	2		12	54.0	2.5	/experiments/knapen_AOT/AOT_stimuli/rescaled_final/0548_rv.mp4	0.0	261.3682689666748	0.1001441478729248
57	250.86236214637756	fix_pre	0		120	55.0	2.5	/experiments/knapen_AOT/AOT_stimuli/rescaled_final/0246_fw.mp4	0.0	261.46841311454773	1.0918200016021729
57	251.95418214797974	movie	1		225	55.0	2.5	/experiments/knapen_AOT/AOT_stimuli/rescaled_final/0246_fw.mp4	0.0	262.5602331161499	2.4002628326416016
57	252.23714399337769	pulse	1	t		55.0	2.5	/experiments/knapen_AOT/AOT_stimuli/rescaled_final/0246_fw.mp4	0.0	262.84319496154785	
57	253.83795404434204	pulse	1	t		55.0	2.5	/experiments/knapen_AOT/AOT_stimuli/rescaled_final/0246_fw.mp4	0.0	264.4440050125122	
57	254.35444498062134	fix_post	2		12	55.0	2.5	/experiments/knapen_AOT/AOT_stimuli/rescaled_final/0246_fw.mp4	0.0	264.9604959487915	0.10005617141723633
58	254.45450115203857	fix_pre	0		119	56.0	2.5	blank	1.0	265.06055212020874	0.9918129444122314
58	255.43805599212646	pulse	0	t		56.0	2.5	blank	1.0	266.04410696029663	
58	255.4463140964508	movie	1		301	56.0	2.5	blank	1.0	266.052365064621	2.5086779594421387
58	257.0383360385895	pulse	1	t		56.0	2.5	blank	1.0	267.64438700675964	
58	257.95499205589294	fix_post	2		12	56.0	2.5	blank	1.0	268.5610430240631	0.09999895095825195
59	258.0549910068512	fix_pre	0		120	57.0	2.5	/experiments/knapen_AOT/AOT_stimuli/rescaled_final/2162_rv.mp4	0.0	268.66104197502136	1.0835790634155273
59	258.6387059688568	pulse	0	t		57.0	2.5	/experiments/knapen_AOT/AOT_stimuli/rescaled_final/2162_rv.mp4	0.0	269.244756937027	
59	259.1385700702667	movie	1		219	57.0	2.5	/experiments/knapen_AOT/AOT_stimuli/rescaled_final/2162_rv.mp4	0.0	269.7446210384369	2.4169371128082275
59	260.2388491630554	pulse	1	t		57.0	2.5	/experiments/knapen_AOT/AOT_stimuli/rescaled_final/2162_rv.mp4	0.0	270.8449001312256	
59	261.55550718307495	fix_post	2		12	57.0	2.5	/experiments/knapen_AOT/AOT_stimuli/rescaled_final/2162_rv.mp4	0.0	272.1615581512451	0.10003185272216797
60	261.6555390357971	fix_pre	0		120	58.0	2.5	/experiments/knapen_AOT/AOT_stimuli/rescaled_final/1663_fw.mp4	0.0	272.2615900039673	1.058596134185791
60	261.8390471935272	pulse	0	t		58.0	2.5	/experiments/knapen_AOT/AOT_stimuli/rescaled_final/1663_fw.mp4	0.0	272.4450981616974	
60	262.7141351699829	movie	1		221	58.0	2.5	/experiments/knapen_AOT/AOT_stimuli/rescaled_final/1663_fw.mp4	0.0	273.3201861381531	2.441983938217163
60	263.4380531311035	pulse	1	t		58.0	2.5	/experiments/knapen_AOT/AOT_stimuli/rescaled_final/1663_fw.mp4	0.0	274.0441040992737	
60	265.0379991531372	pulse	1	t		58.0	2.5	/experiments/knapen_AOT/AOT_stimuli/rescaled_final/1663_fw.mp4	0.0	275.6440501213074	
60	265.1561191082001	fix_post	2		12	58.0	2.5	/experiments/knapen_AOT/AOT_stimuli/rescaled_final/1663_fw.mp4	0.0	275.76217007637024	0.09999704360961914
61	265.2561161518097	fix_pre	0		119	59.0	2.5	/experiments/knapen_AOT/AOT_stimuli/rescaled_final/1025_fw.mp4	0.0	275.86216711997986	1.0585458278656006
61	266.3146619796753	movie	1		247	59.0	2.5	/experiments/knapen_AOT/AOT_stimuli/rescaled_final/1025_fw.mp4	0.0	276.92071294784546	2.433598041534424
61	266.6382131576538	pulse	1	t		59.0	2.5	/experiments/knapen_AOT/AOT_stimuli/rescaled_final/1025_fw.mp4	0.0	277.244264125824	
61	268.23847007751465	pulse	1	t		59.0	2.5	/experiments/knapen_AOT/AOT_stimuli/rescaled_final/1025_fw.mp4	0.0	278.8445210456848	
61	268.7482600212097	fix_post	2		12	59.0	2.5	/experiments/knapen_AOT/AOT_stimuli/rescaled_final/1025_fw.mp4	0.0	279.3543109893799	0.1000220775604248
62	268.84828209877014	fix_pre	0		120	60.0	2.5	/experiments/knapen_AOT/AOT_stimuli/rescaled_final/1649_rv.mp4	0.0	279.4543330669403	1.0584979057312012
62	269.8402969837189	pulse	0	t		60.0	2.5	/experiments/knapen_AOT/AOT_stimuli/rescaled_final/1649_rv.mp4	0.0	280.44634795188904	
62	269.90678000450134	movie	1		233	60.0	2.5	/experiments/knapen_AOT/AOT_stimuli/rescaled_final/1649_rv.mp4	0.0	280.5128309726715	2.450352191925049
62	271.43994903564453	pulse	1	t		60.0	2.5	/experiments/knapen_AOT/AOT_stimuli/rescaled_final/1649_rv.mp4	0.0	282.0460000038147	
62	272.3571321964264	fix_post	2		12	60.0	2.5	/experiments/knapen_AOT/AOT_stimuli/rescaled_final/1649_rv.mp4	0.0	282.96318316459656	0.10007691383361816
63	272.45720911026	fix_pre	0		120	61.0	2.5	blank	1.0	283.0632600784302	1.000093936920166
63	273.0407700538635	pulse	0	t		61.0	2.5	blank	1.0	283.6468210220337	
63	273.4573030471802	movie	1		300	61.0	2.5	blank	1.0	284.06335401535034	2.500356912612915
63	274.6409740447998	pulse	1	t		61.0	2.5	blank	1.0	285.24702501296997	
63	275.9576599597931	fix_post	2		12	61.0	2.5	blank	1.0	286.56371092796326	0.10001921653747559
64	276.05767917633057	fix_pre	0		120	62.0	2.5	/experiments/knapen_AOT/AOT_stimuli/rescaled_final/1073_fw.mp4	0.0	286.66373014450073	1.0668659210205078
64	276.24130606651306	pulse	0	t		62.0	2.5	/experiments/knapen_AOT/AOT_stimuli/rescaled_final/1073_fw.mp4	0.0	286.8473570346832	
64	277.1245450973511	movie	1		233	62.0	2.5	/experiments/knapen_AOT/AOT_stimuli/rescaled_final/1073_fw.mp4	0.0	287.73059606552124	2.425318956375122
64	277.8415620326996	pulse	1	t		62.0	2.5	/experiments/knapen_AOT/AOT_stimuli/rescaled_final/1073_fw.mp4	0.0	288.44761300086975	
64	279.44012808799744	pulse	1	t		62.0	2.5	/experiments/knapen_AOT/AOT_stimuli/rescaled_final/1073_fw.mp4	0.0	290.0461790561676	
64	279.5498640537262	fix_post	2		13	62.0	2.5	/experiments/knapen_AOT/AOT_stimuli/rescaled_final/1073_fw.mp4	0.0	290.15591502189636	0.10848212242126465
65	279.65834617614746	fix_pre	0		120	63.0	2.5	/experiments/knapen_AOT/AOT_stimuli/rescaled_final/0876_fw.mp4	0.0	290.2643971443176	1.0584239959716797
65	280.71677017211914	movie	1		231	63.0	2.5	/experiments/knapen_AOT/AOT_stimuli/rescaled_final/0876_fw.mp4	0.0	291.3228211402893	2.4336369037628174
65	281.04223108291626	pulse	1	t		63.0	2.5	/experiments/knapen_AOT/AOT_stimuli/rescaled_final/0876_fw.mp4	0.0	291.6482820510864	
65	282.63724517822266	pulse	1	t		63.0	2.5	/experiments/knapen_AOT/AOT_stimuli/rescaled_final/0876_fw.mp4	0.0	293.2432961463928	
65	283.15040707588196	fix_post	2		12	63.0	2.5	/experiments/knapen_AOT/AOT_stimuli/rescaled_final/0876_fw.mp4	0.0	293.7564580440521	0.10000491142272949
66	283.2504119873047	fix_pre	0		120	64.0	2.5	/experiments/knapen_AOT/AOT_stimuli/rescaled_final/0562_rv.mp4	0.0	293.85646295547485	1.0668580532073975
66	284.24243998527527	pulse	0	t		64.0	2.5	/experiments/knapen_AOT/AOT_stimuli/rescaled_final/0562_rv.mp4	0.0	294.84849095344543	
66	284.3172700405121	movie	1		236	64.0	2.5	/experiments/knapen_AOT/AOT_stimuli/rescaled_final/0562_rv.mp4	0.0	294.92332100868225	2.4420599937438965
66	285.8411371707916	pulse	1	t		64.0	2.5	/experiments/knapen_AOT/AOT_stimuli/rescaled_final/0562_rv.mp4	0.0	296.4471881389618	
66	286.759330034256	fix_post	2		12	64.0	2.5	/experiments/knapen_AOT/AOT_stimuli/rescaled_final/0562_rv.mp4	0.0	297.36538100242615	0.09992694854736328
67	286.85925698280334	fix_pre	0		120	65.0	2.5	/experiments/knapen_AOT/AOT_stimuli/rescaled_final/0940_rv.mp4	0.0	297.4653079509735	1.0920519828796387
67	287.44285702705383	pulse	0	t		65.0	2.5	/experiments/knapen_AOT/AOT_stimuli/rescaled_final/0940_rv.mp4	0.0	298.048907995224	
67	287.951308965683	movie	1		220	65.0	2.5	/experiments/knapen_AOT/AOT_stimuli/rescaled_final/0940_rv.mp4	0.0	298.55735993385315	2.40848708152771
67	289.0418930053711	pulse	1	t		65.0	2.5	/experiments/knapen_AOT/AOT_stimuli/rescaled_final/0940_rv.mp4	0.0	299.64794397354126	
67	290.3597960472107	fix_post	2		12	65.0	2.5	/experiments/knapen_AOT/AOT_stimuli/rescaled_final/0940_rv.mp4	0.0	300.96584701538086	0.10001897811889648
68	290.4598150253296	fix_pre	0		120	66.0	2.5	/experiments/knapen_AOT/AOT_stimuli/rescaled_final/1740_fw.mp4	0.0	301.06586599349976	1.0836451053619385
68	290.6434941291809	pulse	0	t		66.0	2.5	/experiments/knapen_AOT/AOT_stimuli/rescaled_final/1740_fw.mp4	0.0	301.2495450973511	
68	291.5434601306915	movie	1		221	66.0	2.5	/experiments/knapen_AOT/AOT_stimuli/rescaled_final/1740_fw.mp4	0.0	302.1495110988617	2.4169180393218994
68	292.2437961101532	pulse	1	t		66.0	2.5	/experiments/knapen_AOT/AOT_stimuli/rescaled_final/1740_fw.mp4	0.0	302.84984707832336	
68	293.84254813194275	pulse	1	t		66.0	2.5	/experiments/knapen_AOT/AOT_stimuli/rescaled_final/1740_fw.mp4	0.0	304.4485991001129	
68	293.9603781700134	fix_post	2		12	66.0	2.5	/experiments/knapen_AOT/AOT_stimuli/rescaled_final/1740_fw.mp4	0.0	304.5664291381836	0.1000518798828125
69	294.06043004989624	fix_pre	0		120	67.0	2.5	/experiments/knapen_AOT/AOT_stimuli/rescaled_final/2023_rv.mp4	0.0	304.6664810180664	1.075192928314209
69	295.13562297821045	movie	1		239	67.0	2.5	/experiments/knapen_AOT/AOT_stimuli/rescaled_final/2023_rv.mp4	0.0	305.7416739463806	2.4169352054595947
69	295.44231605529785	pulse	1	t		67.0	2.5	/experiments/knapen_AOT/AOT_stimuli/rescaled_final/2023_rv.mp4	0.0	306.048367023468	
69	297.043240070343	pulse	1	t		67.0	2.5	/experiments/knapen_AOT/AOT_stimuli/rescaled_final/2023_rv.mp4	0.0	307.6492910385132	
69	297.55255818367004	fix_post	2		12	67.0	2.5	/experiments/knapen_AOT/AOT_stimuli/rescaled_final/2023_rv.mp4	0.0	308.1586091518402	0.10000491142272949
70	297.6525630950928	fix_pre	0		120	68.0	2.5	blank	1.0	308.25861406326294	1.0001258850097656
70	298.637099981308	pulse	0	t		68.0	2.5	blank	1.0	309.24315094947815	
70	298.65268898010254	movie	1		301	68.0	2.5	blank	1.0	309.2587399482727	2.508756160736084
70	300.23651599884033	pulse	1	t		68.0	2.5	blank	1.0	310.8425669670105	
70	301.1614451408386	fix_post	2		12	68.0	2.5	blank	1.0	311.7674961090088	0.10004281997680664
71	301.26148796081543	fix_pre	0		120	69.0	2.5	/experiments/knapen_AOT/AOT_stimuli/rescaled_final/0606_fw.mp4	0.0	311.8675389289856	1.067270040512085
71	301.8366529941559	pulse	0	t		69.0	2.5	/experiments/knapen_AOT/AOT_stimuli/rescaled_final/0606_fw.mp4	0.0	312.44270396232605	
71	302.3287580013275	movie	1		264	69.0	2.5	/experiments/knapen_AOT/AOT_stimuli/rescaled_final/0606_fw.mp4	0.0	312.9348089694977	2.4332001209259033
71	303.437203168869	pulse	1	t		69.0	2.5	/experiments/knapen_AOT/AOT_stimuli/rescaled_final/0606_fw.mp4	0.0	314.0432541370392	
71	304.7619581222534	fix_post	2		12	69.0	2.5	/experiments/knapen_AOT/AOT_stimuli/rescaled_final/0606_fw.mp4	0.0	315.3680090904236	0.10004496574401855
72	304.86200308799744	fix_pre	0		120	70.0	2.5	/experiments/knapen_AOT/AOT_stimuli/rescaled_final/0246_rv.mp4	0.0	315.4680540561676	1.0502750873565674
72	305.0371551513672	pulse	0	t		70.0	2.5	/experiments/knapen_AOT/AOT_stimuli/rescaled_final/0246_rv.mp4	0.0	315.64320611953735	
72	305.912278175354	movie	1		255	70.0	2.5	/experiments/knapen_AOT/AOT_stimuli/rescaled_final/0246_rv.mp4	0.0	316.51832914352417	2.450241804122925
72	306.63739013671875	pulse	1	t		70.0	2.5	/experiments/knapen_AOT/AOT_stimuli/rescaled_final/0246_rv.mp4	0.0	317.2434411048889	
72	308.23762917518616	pulse	1	t		70.0	2.5	/experiments/knapen_AOT/AOT_stimuli/rescaled_final/0246_rv.mp4	0.0	318.8436801433563	
72	308.36251997947693	fix_post	2		12	70.0	2.5	/experiments/knapen_AOT/AOT_stimuli/rescaled_final/0246_rv.mp4	0.0	318.9685709476471	0.09998202323913574
73	308.46250200271606	fix_pre	0		120	71.0	2.5	/experiments/knapen_AOT/AOT_stimuli/rescaled_final/1202_rv.mp4	0.0	319.06855297088623	1.0836951732635498
73	309.5461971759796	movie	1		228	71.0	2.5	/experiments/knapen_AOT/AOT_stimuli/rescaled_final/1202_rv.mp4	0.0	320.1522481441498	2.4084928035736084
73	309.837779045105	pulse	1	t		71.0	2.5	/experiments/knapen_AOT/AOT_stimuli/rescaled_final/1202_rv.mp4	0.0	320.44383001327515	
73	311.4367001056671	pulse	1	t		71.0	2.5	/experiments/knapen_AOT/AOT_stimuli/rescaled_final/1202_rv.mp4	0.0	322.0427510738373	
73	311.9546899795532	fix_post	2		12	71.0	2.5	/experiments/knapen_AOT/AOT_stimuli/rescaled_final/1202_rv.mp4	0.0	322.5607409477234	0.10001206398010254
74	312.0547020435333	fix_pre	0		119	72.0	2.5	/experiments/knapen_AOT/AOT_stimuli/rescaled_final/0888_fw.mp4	0.0	322.6607530117035	1.083611011505127
74	313.0382821559906	pulse	0	t		72.0	2.5	/experiments/knapen_AOT/AOT_stimuli/rescaled_final/0888_fw.mp4	0.0	323.64433312416077	
74	313.13831305503845	movie	1		223	72.0	2.5	/experiments/knapen_AOT/AOT_stimuli/rescaled_final/0888_fw.mp4	0.0	323.7443640232086	2.4169139862060547
74	314.6386740207672	pulse	1	t		72.0	2.5	/experiments/knapen_AOT/AOT_stimuli/rescaled_final/0888_fw.mp4	0.0	325.2447249889374	
74	315.5552270412445	fix_post	2		12	72.0	2.5	/experiments/knapen_AOT/AOT_stimuli/rescaled_final/0888_fw.mp4	0.0	326.1612780094147	0.09995794296264648
75	315.65518498420715	fix_pre	0		120	73.0	2.5	/experiments/knapen_AOT/AOT_stimuli/rescaled_final/1677_rv.mp4	0.0	326.2612359523773	1.0753400325775146
75	316.2389521598816	pulse	0	t		73.0	2.5	/experiments/knapen_AOT/AOT_stimuli/rescaled_final/1677_rv.mp4	0.0	326.84500312805176	
75	316.73052501678467	movie	1		223	73.0	2.5	/experiments/knapen_AOT/AOT_stimuli/rescaled_final/1677_rv.mp4	0.0	327.33657598495483	2.4252519607543945
75	317.83750104904175	pulse	1	t		73.0	2.5	/experiments/knapen_AOT/AOT_stimuli/rescaled_final/1677_rv.mp4	0.0	328.4435520172119	
75	319.15577697753906	fix_post	2		12	73.0	2.5	/experiments/knapen_AOT/AOT_stimuli/rescaled_final/1677_rv.mp4	0.0	329.76182794570923	0.10001420974731445
76	319.2557911872864	fix_pre	0		120	74.0	2.5	/experiments/knapen_AOT/AOT_stimuli/rescaled_final/0163_rv.mp4	0.0	329.86184215545654	1.0668699741363525
76	319.4394030570984	pulse	0	t		74.0	2.5	/experiments/knapen_AOT/AOT_stimuli/rescaled_final/0163_rv.mp4	0.0	330.04545402526855	
76	320.32266116142273	movie	1		244	74.0	2.5	/experiments/knapen_AOT/AOT_stimuli/rescaled_final/0163_rv.mp4	0.0	330.9287121295929	2.425302028656006
76	321.0397400856018	pulse	1	t		74.0	2.5	/experiments/knapen_AOT/AOT_stimuli/rescaled_final/0163_rv.mp4	0.0	331.645791053772	
76	322.6381480693817	pulse	1	t		74.0	2.5	/experiments/knapen_AOT/AOT_stimuli/rescaled_final/0163_rv.mp4	0.0	333.2441990375519	
76	322.74796319007874	fix_post	2		13	74.0	2.5	/experiments/knapen_AOT/AOT_stimuli/rescaled_final/0163_rv.mp4	0.0	333.3540141582489	0.10841679573059082
77	322.8563799858093	fix_pre	0		120	75.0	2.5	/experiments/knapen_AOT/AOT_stimuli/rescaled_final/0125_rv.mp4	0.0	333.4624309539795	1.0585250854492188
77	323.91490507125854	movie	1		253	75.0	2.5	/experiments/knapen_AOT/AOT_stimuli/rescaled_final/0125_rv.mp4	0.0	334.5209560394287	2.433645009994507
77	324.2390570640564	pulse	1	t		75.0	2.5	/experiments/knapen_AOT/AOT_stimuli/rescaled_final/0125_rv.mp4	0.0	334.84510803222656	
77	325.8392791748047	pulse	1	t		75.0	2.5	/experiments/knapen_AOT/AOT_stimuli/rescaled_final/0125_rv.mp4	0.0	336.44533014297485	
77	326.34855008125305	fix_post	2		12	75.0	2.5	/experiments/knapen_AOT/AOT_stimuli/rescaled_final/0125_rv.mp4	0.0	336.9546010494232	0.10000109672546387
78	326.4485511779785	fix_pre	0		120	76.0	2.5	blank	1.0	337.0546021461487	1.000166893005371
78	327.44062900543213	pulse	0	t		76.0	2.5	blank	1.0	338.0466799736023	
78	327.4487180709839	movie	1		301	76.0	2.5	blank	1.0	338.05476903915405	2.508657932281494
78	329.04082918167114	pulse	1	t		76.0	2.5	blank	1.0	339.6468801498413	
78	329.9573760032654	fix_post	2		12	76.0	2.5	blank	1.0	340.56342697143555	0.10002398490905762
79	330.05739998817444	fix_pre	0		120	77.0	2.5	/experiments/knapen_AOT/AOT_stimuli/rescaled_final/0060_rv.mp4	0.0	340.6634509563446	1.0835461616516113
79	330.6409821510315	pulse	0	t		77.0	2.5	/experiments/knapen_AOT/AOT_stimuli/rescaled_final/0060_rv.mp4	0.0	341.24703311920166	
79	331.14094614982605	movie	1		252	77.0	2.5	/experiments/knapen_AOT/AOT_stimuli/rescaled_final/0060_rv.mp4	0.0	341.7469971179962	2.416973829269409
79	332.2395181655884	pulse	1	t		77.0	2.5	/experiments/knapen_AOT/AOT_stimuli/rescaled_final/0060_rv.mp4	0.0	342.84556913375854	
79	333.55791997909546	fix_post	2		12	77.0	2.5	/experiments/knapen_AOT/AOT_stimuli/rescaled_final/0060_rv.mp4	0.0	344.1639709472656	0.09997916221618652
80	333.65789914131165	fix_pre	0		120	78.0	2.5	/experiments/knapen_AOT/AOT_stimuli/rescaled_final/0383_rv.mp4	0.0	344.2639501094818	1.083587884902954
80	333.84145402908325	pulse	0	t		78.0	2.5	/experiments/knapen_AOT/AOT_stimuli/rescaled_final/0383_rv.mp4	0.0	344.4475049972534	
80	334.7414870262146	movie	1		269	78.0	2.5	/experiments/knapen_AOT/AOT_stimuli/rescaled_final/0383_rv.mp4	0.0	345.34753799438477	2.4169819355010986
80	335.44118905067444	pulse	1	t		78.0	2.5	/experiments/knapen_AOT/AOT_stimuli/rescaled_final/0383_rv.mp4	0.0	346.0472400188446	
80	337.04018902778625	pulse	1	t		78.0	2.5	/experiments/knapen_AOT/AOT_stimuli/rescaled_final/0383_rv.mp4	0.0	347.6462399959564	
80	337.1584689617157	fix_post	2		12	78.0	2.5	/experiments/knapen_AOT/AOT_stimuli/rescaled_final/0383_rv.mp4	0.0	347.76451992988586	0.10002613067626953
81	337.25849509239197	fix_pre	0		120	79.0	2.5	/experiments/knapen_AOT/AOT_stimuli/rescaled_final/0375_fw.mp4	0.0	347.86454606056213	1.075232982635498
81	338.33372807502747	movie	1		254	79.0	2.5	/experiments/knapen_AOT/AOT_stimuli/rescaled_final/0375_fw.mp4	0.0	348.93977904319763	2.416943073272705
81	338.6410939693451	pulse	1	t		79.0	2.5	/experiments/knapen_AOT/AOT_stimuli/rescaled_final/0375_fw.mp4	0.0	349.24714493751526	
81	340.2413079738617	pulse	1	t		79.0	2.5	/experiments/knapen_AOT/AOT_stimuli/rescaled_final/0375_fw.mp4	0.0	350.84735894203186	
81	340.75067114830017	fix_post	2		12	79.0	2.5	/experiments/knapen_AOT/AOT_stimuli/rescaled_final/0375_fw.mp4	0.0	351.35672211647034	0.10001397132873535
82	340.8506851196289	fix_pre	0		120	80.0	2.5	/experiments/knapen_AOT/AOT_stimuli/rescaled_final/0473_fw.mp4	0.0	351.4567360877991	1.0752499103546143
82	341.8427360057831	pulse	0	t		80.0	2.5	/experiments/knapen_AOT/AOT_stimuli/rescaled_final/0473_fw.mp4	0.0	352.44878697395325	
82	341.9259350299835	movie	1		223	80.0	2.5	/experiments/knapen_AOT/AOT_stimuli/rescaled_final/0473_fw.mp4	0.0	352.5319859981537	2.433655023574829
82	343.4413549900055	pulse	1	t		80.0	2.5	/experiments/knapen_AOT/AOT_stimuli/rescaled_final/0473_fw.mp4	0.0	354.04740595817566	
82	344.35959005355835	fix_post	2		12	80.0	2.5	/experiments/knapen_AOT/AOT_stimuli/rescaled_final/0473_fw.mp4	0.0	354.9656410217285	0.09995412826538086
83	344.45954418182373	fix_pre	0		120	81.0	2.5	/experiments/knapen_AOT/AOT_stimuli/rescaled_final/0560_rv.mp4	0.0	355.0655951499939	1.0585968494415283
83	345.04305696487427	pulse	0	t		81.0	2.5	/experiments/knapen_AOT/AOT_stimuli/rescaled_final/0560_rv.mp4	0.0	355.64910793304443	
83	345.51814103126526	movie	1		268	81.0	2.5	/experiments/knapen_AOT/AOT_stimuli/rescaled_final/0560_rv.mp4	0.0	356.1241919994354	2.44195294380188
83	346.6427490711212	pulse	1	t		81.0	2.5	/experiments/knapen_AOT/AOT_stimuli/rescaled_final/0560_rv.mp4	0.0	357.2488000392914	
83	347.96009397506714	fix_post	2		12	81.0	2.5	/experiments/knapen_AOT/AOT_stimuli/rescaled_final/0560_rv.mp4	0.0	358.5661449432373	0.09999704360961914
84	348.06009101867676	fix_pre	0		120	82.0	2.5	/experiments/knapen_AOT/AOT_stimuli/rescaled_final/0673_rv.mp4	0.0	358.6661419868469	1.0835790634155273
84	348.24372911453247	pulse	0	t		82.0	2.5	/experiments/knapen_AOT/AOT_stimuli/rescaled_final/0673_rv.mp4	0.0	358.84978008270264	
84	349.1436700820923	movie	1		250	82.0	2.5	/experiments/knapen_AOT/AOT_stimuli/rescaled_final/0673_rv.mp4	0.0	359.74972105026245	2.4169540405273438
84	349.84346318244934	pulse	1	t		82.0	2.5	/experiments/knapen_AOT/AOT_stimuli/rescaled_final/0673_rv.mp4	0.0	360.4495141506195	
84	351.44235014915466	pulse	1	t		82.0	2.5	/experiments/knapen_AOT/AOT_stimuli/rescaled_final/0673_rv.mp4	0.0	362.04840111732483	
84	351.56062412261963	fix_post	2		12	82.0	2.5	/experiments/knapen_AOT/AOT_stimuli/rescaled_final/0673_rv.mp4	0.0	362.1666750907898	0.10004186630249023
85	351.6606659889221	fix_pre	0		120	83.0	2.5	blank	1.0	362.2667169570923	1.0000929832458496
85	352.66075897216797	movie	1		299	83.0	2.5	blank	1.0	363.26680994033813	2.4920480251312256
85	353.0442500114441	pulse	1	t		83.0	2.5	blank	1.0	363.65030097961426	
85	354.6361141204834	pulse	1	t		83.0	2.5	blank	1.0	365.24216508865356	
85	355.1528069972992	fix_post	2		12	83.0	2.5	blank	1.0	365.75885796546936	0.09999704360961914
87	355.2528040409088	stim	0		1716					365.858855009079	14.302258968353271
87	356.23641204833984	pulse	0	t						366.84246301651	
87	357.8367700576782	pulse	0	t						368.4428210258484	
87	359.4368941783905	pulse	0	t						370.04294514656067	
87	361.0371789932251	pulse	0	t						371.64322996139526	
87	362.63735914230347	pulse	0	t						373.24341011047363	
87	364.2375910282135	pulse	0	t						374.84364199638367	
87	365.8378701210022	pulse	0	t						376.44392108917236	
87	367.43803119659424	pulse	0	t						378.0440821647644	
87	369.03843116760254	pulse	0	t						379.6444821357727	
