trial_nr	onset	event_type	phase	response	nr_frames	movie_index	movie_duration	movie_file	blank	onset_abs	duration
0	0.15807366371154785	stim	0		80					17.32841968536377	0.6666409969329834
0	0.8167128562927246	response	0	space						17.987058877944946	
1	0.8247146606445312	stim	0		4608					17.995060682296753	38.419188499450684
1	39.228670597076416	pulse	0	t						56.39901661872864	
1	39.243903160095215	stim	1		1714					56.41424918174744	14.297215223312378
1	40.822691679000854	pulse	1	t						57.993037700653076	
1	42.4229257106781	pulse	1	t						59.59327173233032	
1	44.02317261695862	pulse	1	t						61.19351863861084	
1	45.62338709831238	pulse	1	t						62.7937331199646	
1	47.22358536720276	pulse	1	t						64.39393138885498	
1	48.82383370399475	pulse	1	t						65.99417972564697	
1	50.42408537864685	pulse	1	t						67.59443140029907	
1	52.02431893348694	pulse	1	t						69.19466495513916	
2	53.54111838340759	fix_pre	0		11	0.0	2.5	/experiments/Knapen_AOT/AOT_stimuli/rescaled_final/0360_fw.mp4	0.0	70.71146440505981	0.10830116271972656
2	53.62455415725708	pulse	0	t		0.0	2.5	/experiments/Knapen_AOT/AOT_stimuli/rescaled_final/0360_fw.mp4	0.0	70.7949001789093	
2	53.64941954612732	movie	1		281	0.0	2.5	/experiments/Knapen_AOT/AOT_stimuli/rescaled_final/0360_fw.mp4	0.0	70.81976556777954	2.4919614791870117
2	55.223328590393066	pulse	1	t		0.0	2.5	/experiments/Knapen_AOT/AOT_stimuli/rescaled_final/0360_fw.mp4	0.0	72.39367461204529	
2	56.14138102531433	fix_post	2		12	0.0	2.5	/experiments/Knapen_AOT/AOT_stimuli/rescaled_final/0360_fw.mp4	0.0	73.31172704696655	0.10003495216369629
3	56.24141597747803	fix_pre	0		120	1.0	2.5	/experiments/Knapen_AOT/AOT_stimuli/rescaled_final/0527_fw.mp4	0.0	73.41176199913025	1.0084989070892334
3	56.825037717819214	pulse	0	t		1.0	2.5	/experiments/Knapen_AOT/AOT_stimuli/rescaled_final/0527_fw.mp4	0.0	73.99538373947144	
3	57.24991488456726	movie	1		290	1.0	2.5	/experiments/Knapen_AOT/AOT_stimuli/rescaled_final/0527_fw.mp4	0.0	74.42026090621948	2.4920079708099365
3	58.423656940460205	pulse	1	t		1.0	2.5	/experiments/Knapen_AOT/AOT_stimuli/rescaled_final/0527_fw.mp4	0.0	75.59400296211243	
3	59.7419228553772	fix_post	2		12	1.0	2.5	/experiments/Knapen_AOT/AOT_stimuli/rescaled_final/0527_fw.mp4	0.0	76.91226887702942	0.1000208854675293
4	59.84194374084473	fix_pre	0		120	2.0	2.5	/experiments/Knapen_AOT/AOT_stimuli/rescaled_final/1496_fw.mp4	0.0	77.01228976249695	1.0085389614105225
4	60.02564764022827	pulse	0	t		2.0	2.5	/experiments/Knapen_AOT/AOT_stimuli/rescaled_final/1496_fw.mp4	0.0	77.1959936618805	
4	60.85048270225525	movie	1		279	2.0	2.5	/experiments/Knapen_AOT/AOT_stimuli/rescaled_final/1496_fw.mp4	0.0	78.02082872390747	2.492004156112671
4	61.623762369155884	pulse	1	t		2.0	2.5	/experiments/Knapen_AOT/AOT_stimuli/rescaled_final/1496_fw.mp4	0.0	78.7941083908081	
4	63.224045276641846	pulse	1	t		2.0	2.5	/experiments/Knapen_AOT/AOT_stimuli/rescaled_final/1496_fw.mp4	0.0	80.39439129829407	
4	63.34248685836792	fix_post	2		12	2.0	2.5	/experiments/Knapen_AOT/AOT_stimuli/rescaled_final/1496_fw.mp4	0.0	80.51283288002014	0.10001325607299805
5	63.44250011444092	fix_pre	0		120	3.0	2.5	/experiments/Knapen_AOT/AOT_stimuli/rescaled_final/2025_fw.mp4	0.0	80.61284613609314	1.0084927082061768
5	64.4509928226471	movie	1		285	3.0	2.5	/experiments/Knapen_AOT/AOT_stimuli/rescaled_final/2025_fw.mp4	0.0	81.62133884429932	2.4920425415039062
5	64.82457184791565	pulse	1	t		3.0	2.5	/experiments/Knapen_AOT/AOT_stimuli/rescaled_final/2025_fw.mp4	0.0	81.99491786956787	
5	66.41843891143799	pulse	1	t		3.0	2.5	/experiments/Knapen_AOT/AOT_stimuli/rescaled_final/2025_fw.mp4	0.0	83.58878493309021	
5	66.943035364151	fix_post	2		12	3.0	2.5	/experiments/Knapen_AOT/AOT_stimuli/rescaled_final/2025_fw.mp4	0.0	84.11338138580322	0.09999513626098633
6	67.04303050041199	fix_pre	0		118	4.0	2.5	/experiments/Knapen_AOT/AOT_stimuli/rescaled_final/1043_fw.mp4	0.0	84.21337652206421	0.9919717311859131
6	68.01851868629456	pulse	0	t		4.0	2.5	/experiments/Knapen_AOT/AOT_stimuli/rescaled_final/1043_fw.mp4	0.0	85.18886470794678	
6	68.0350022315979	movie	1		287	4.0	2.5	/experiments/Knapen_AOT/AOT_stimuli/rescaled_final/1043_fw.mp4	0.0	85.20534825325012	2.500234842300415
6	69.61876821517944	pulse	1	t		4.0	2.5	/experiments/Knapen_AOT/AOT_stimuli/rescaled_final/1043_fw.mp4	0.0	86.78911423683167	
6	70.53523707389832	fix_post	2		12	4.0	2.5	/experiments/Knapen_AOT/AOT_stimuli/rescaled_final/1043_fw.mp4	0.0	87.70558309555054	0.10003829002380371
7	70.63527536392212	fix_pre	0		120	5.0	2.5	/experiments/Knapen_AOT/AOT_stimuli/rescaled_final/0131_rv.mp4	0.0	87.80562138557434	1.0085108280181885
7	71.21927642822266	pulse	0	t		5.0	2.5	/experiments/Knapen_AOT/AOT_stimuli/rescaled_final/0131_rv.mp4	0.0	88.38962244987488	
7	71.64378619194031	movie	1		291	5.0	2.5	/experiments/Knapen_AOT/AOT_stimuli/rescaled_final/0131_rv.mp4	0.0	88.81413221359253	2.4919800758361816
7	72.8192811012268	pulse	1	t		5.0	2.5	/experiments/Knapen_AOT/AOT_stimuli/rescaled_final/0131_rv.mp4	0.0	89.98962712287903	
7	74.13576626777649	fix_post	2		12	5.0	2.5	/experiments/Knapen_AOT/AOT_stimuli/rescaled_final/0131_rv.mp4	0.0	91.30611228942871	0.1000063419342041
8	74.2357726097107	fix_pre	0		120	6.0	2.5	/experiments/Knapen_AOT/AOT_stimuli/rescaled_final/0967_rv.mp4	0.0	91.40611863136292	1.0085697174072266
8	74.41931414604187	pulse	0	t		6.0	2.5	/experiments/Knapen_AOT/AOT_stimuli/rescaled_final/0967_rv.mp4	0.0	91.58966016769409	
8	75.24434232711792	movie	1		286	6.0	2.5	/experiments/Knapen_AOT/AOT_stimuli/rescaled_final/0967_rv.mp4	0.0	92.41468834877014	2.491990327835083
8	76.01986479759216	pulse	1	t		6.0	2.5	/experiments/Knapen_AOT/AOT_stimuli/rescaled_final/0967_rv.mp4	0.0	93.19021081924438	
8	77.61977410316467	pulse	1	t		6.0	2.5	/experiments/Knapen_AOT/AOT_stimuli/rescaled_final/0967_rv.mp4	0.0	94.7901201248169	
8	77.736332654953	fix_post	2		12	6.0	2.5	/experiments/Knapen_AOT/AOT_stimuli/rescaled_final/0967_rv.mp4	0.0	94.90667867660522	0.10001921653747559
9	77.83635187149048	fix_pre	0		120	7.0	2.5	blank	1.0	95.0066978931427	1.000136375427246
9	78.83648824691772	movie	1		300	7.0	2.5	blank	1.0	96.00683426856995	2.5003437995910645
9	79.22016429901123	pulse	1	t		7.0	2.5	blank	1.0	96.39051032066345	
9	80.82033014297485	pulse	1	t		7.0	2.5	blank	1.0	97.99067616462708	
9	81.33683204650879	fix_post	2		12	7.0	2.5	blank	1.0	98.50717806816101	0.10003185272216797
10	81.43686389923096	fix_pre	0		119	8.0	2.5	/experiments/Knapen_AOT/AOT_stimuli/rescaled_final/1404_fw.mp4	0.0	98.60720992088318	1.0001475811004639
10	82.42060089111328	pulse	0	t		8.0	2.5	/experiments/Knapen_AOT/AOT_stimuli/rescaled_final/1404_fw.mp4	0.0	99.5909469127655	
10	82.43701148033142	movie	1		285	8.0	2.5	/experiments/Knapen_AOT/AOT_stimuli/rescaled_final/1404_fw.mp4	0.0	99.60735750198364	2.5004260540008545
10	84.019850730896	pulse	1	t		8.0	2.5	/experiments/Knapen_AOT/AOT_stimuli/rescaled_final/1404_fw.mp4	0.0	101.19019675254822	
10	84.93743753433228	fix_post	2		12	8.0	2.5	/experiments/Knapen_AOT/AOT_stimuli/rescaled_final/1404_fw.mp4	0.0	102.1077835559845	0.10014605522155762
11	85.03758358955383	fix_pre	0		120	9.0	2.5	/experiments/Knapen_AOT/AOT_stimuli/rescaled_final/1428_fw.mp4	0.0	102.20792961120605	1.0083129405975342
11	85.62107682228088	pulse	0	t		9.0	2.5	/experiments/Knapen_AOT/AOT_stimuli/rescaled_final/1428_fw.mp4	0.0	102.7914228439331	
11	86.04589653015137	movie	1		281	9.0	2.5	/experiments/Knapen_AOT/AOT_stimuli/rescaled_final/1428_fw.mp4	0.0	103.21624255180359	2.492063522338867
11	87.22071623802185	pulse	1	t		9.0	2.5	/experiments/Knapen_AOT/AOT_stimuli/rescaled_final/1428_fw.mp4	0.0	104.39106225967407	
11	88.53796005249023	fix_post	2		12	9.0	2.5	/experiments/Knapen_AOT/AOT_stimuli/rescaled_final/1428_fw.mp4	0.0	105.70830607414246	0.09997797012329102
12	88.63793802261353	fix_pre	0		120	10.0	2.5	/experiments/Knapen_AOT/AOT_stimuli/rescaled_final/1302_rv.mp4	0.0	105.80828404426575	1.0085992813110352
12	88.82160234451294	pulse	0	t		10.0	2.5	/experiments/Knapen_AOT/AOT_stimuli/rescaled_final/1302_rv.mp4	0.0	105.99194836616516	
12	89.64653730392456	movie	1		282	10.0	2.5	/experiments/Knapen_AOT/AOT_stimuli/rescaled_final/1302_rv.mp4	0.0	106.81688332557678	2.4919257164001465
12	90.41983222961426	pulse	1	t		10.0	2.5	/experiments/Knapen_AOT/AOT_stimuli/rescaled_final/1302_rv.mp4	0.0	107.59017825126648	
12	92.02056407928467	pulse	1	t		10.0	2.5	/experiments/Knapen_AOT/AOT_stimuli/rescaled_final/1302_rv.mp4	0.0	109.19091010093689	
12	92.1384630203247	fix_post	2		12	10.0	2.5	/experiments/Knapen_AOT/AOT_stimuli/rescaled_final/1302_rv.mp4	0.0	109.30880904197693	0.10005998611450195
13	92.23852300643921	fix_pre	0		120	11.0	2.5	/experiments/Knapen_AOT/AOT_stimuli/rescaled_final/0587_rv.mp4	0.0	109.40886902809143	1.0084452629089355
13	93.24696826934814	movie	1		284	11.0	2.5	/experiments/Knapen_AOT/AOT_stimuli/rescaled_final/0587_rv.mp4	0.0	110.41731429100037	2.492053270339966
13	93.6215832233429	pulse	1	t		11.0	2.5	/experiments/Knapen_AOT/AOT_stimuli/rescaled_final/0587_rv.mp4	0.0	110.79192924499512	
13	95.22021913528442	pulse	1	t		11.0	2.5	/experiments/Knapen_AOT/AOT_stimuli/rescaled_final/0587_rv.mp4	0.0	112.39056515693665	
13	95.73902153968811	fix_post	2		12	11.0	2.5	/experiments/Knapen_AOT/AOT_stimuli/rescaled_final/0587_rv.mp4	0.0	112.90936756134033	0.10000371932983398
14	95.83902525901794	fix_pre	0		119	12.0	2.5	/experiments/Knapen_AOT/AOT_stimuli/rescaled_final/0124_fw.mp4	0.0	113.00937128067017	1.0001623630523682
14	96.82270693778992	pulse	0	t		12.0	2.5	/experiments/Knapen_AOT/AOT_stimuli/rescaled_final/0124_fw.mp4	0.0	113.99305295944214	
14	96.83918762207031	movie	1		276	12.0	2.5	/experiments/Knapen_AOT/AOT_stimuli/rescaled_final/0124_fw.mp4	0.0	114.00953364372253	2.5003716945648193
14	98.4220016002655	pulse	1	t		12.0	2.5	/experiments/Knapen_AOT/AOT_stimuli/rescaled_final/0124_fw.mp4	0.0	115.59234762191772	
14	99.33955931663513	fix_post	2		12	12.0	2.5	/experiments/Knapen_AOT/AOT_stimuli/rescaled_final/0124_fw.mp4	0.0	116.50990533828735	0.10006284713745117
15	99.43962216377258	fix_pre	0		120	13.0	2.5	/experiments/Knapen_AOT/AOT_stimuli/rescaled_final/0754_fw.mp4	0.0	116.6099681854248	1.0084314346313477
15	100.02323484420776	pulse	0	t		13.0	2.5	/experiments/Knapen_AOT/AOT_stimuli/rescaled_final/0754_fw.mp4	0.0	117.19358086585999	
15	100.44805359840393	movie	1		292	13.0	2.5	/experiments/Knapen_AOT/AOT_stimuli/rescaled_final/0754_fw.mp4	0.0	117.61839962005615	2.492037534713745
15	101.6218490600586	pulse	1	t		13.0	2.5	/experiments/Knapen_AOT/AOT_stimuli/rescaled_final/0754_fw.mp4	0.0	118.79219508171082	
15	102.94009113311768	fix_post	2		12	13.0	2.5	/experiments/Knapen_AOT/AOT_stimuli/rescaled_final/0754_fw.mp4	0.0	120.1104371547699	0.10001850128173828
16	103.04010963439941	fix_pre	0		120	14.0	2.5	blank	1.0	120.21045565605164	1.000166893005371
16	103.22372674942017	pulse	0	t		14.0	2.5	blank	1.0	120.39407277107239	
16	104.04027652740479	movie	1		300	14.0	2.5	blank	1.0	121.210622549057	2.500358819961548
16	104.82392144203186	pulse	1	t		14.0	2.5	blank	1.0	121.99426746368408	
16	106.42425870895386	pulse	1	t		14.0	2.5	blank	1.0	123.59460473060608	
16	106.54063534736633	fix_post	2		12	14.0	2.5	blank	1.0	123.71098136901855	0.10004305839538574
17	106.64067840576172	fix_pre	0		120	15.0	2.5	/experiments/Knapen_AOT/AOT_stimuli/rescaled_final/1810_fw.mp4	0.0	123.81102442741394	1.0084679126739502
17	107.64914631843567	movie	1		285	15.0	2.5	/experiments/Knapen_AOT/AOT_stimuli/rescaled_final/1810_fw.mp4	0.0	124.81949234008789	2.4920294284820557
17	108.0231454372406	pulse	1	t		15.0	2.5	/experiments/Knapen_AOT/AOT_stimuli/rescaled_final/1810_fw.mp4	0.0	125.19349145889282	
17	109.62260866165161	pulse	1	t		15.0	2.5	/experiments/Knapen_AOT/AOT_stimuli/rescaled_final/1810_fw.mp4	0.0	126.79295468330383	
17	110.14117574691772	fix_post	2		12	15.0	2.5	/experiments/Knapen_AOT/AOT_stimuli/rescaled_final/1810_fw.mp4	0.0	127.31152176856995	0.10000443458557129
18	110.2411801815033	fix_pre	0		119	16.0	2.5	/experiments/Knapen_AOT/AOT_stimuli/rescaled_final/0325_rv.mp4	0.0	127.41152620315552	1.0001678466796875
18	111.224933385849	pulse	0	t		16.0	2.5	/experiments/Knapen_AOT/AOT_stimuli/rescaled_final/0325_rv.mp4	0.0	128.39527940750122	
18	111.24134802818298	movie	1		282	16.0	2.5	/experiments/Knapen_AOT/AOT_stimuli/rescaled_final/0325_rv.mp4	0.0	128.4116940498352	2.5004007816314697
18	112.82557511329651	pulse	1	t		16.0	2.5	/experiments/Knapen_AOT/AOT_stimuli/rescaled_final/0325_rv.mp4	0.0	129.99592113494873	
18	113.74174880981445	fix_post	2		12	16.0	2.5	/experiments/Knapen_AOT/AOT_stimuli/rescaled_final/0325_rv.mp4	0.0	130.91209483146667	0.10003972053527832
19	113.84178853034973	fix_pre	0		120	17.0	2.5	/experiments/Knapen_AOT/AOT_stimuli/rescaled_final/0524_rv.mp4	0.0	131.01213455200195	1.0084729194641113
19	114.42538785934448	pulse	0	t		17.0	2.5	/experiments/Knapen_AOT/AOT_stimuli/rescaled_final/0524_rv.mp4	0.0	131.5957338809967	
19	114.85026144981384	movie	1		282	17.0	2.5	/experiments/Knapen_AOT/AOT_stimuli/rescaled_final/0524_rv.mp4	0.0	132.02060747146606	2.491997003555298
19	116.02388215065002	pulse	1	t		17.0	2.5	/experiments/Knapen_AOT/AOT_stimuli/rescaled_final/0524_rv.mp4	0.0	133.19422817230225	
19	117.34225845336914	fix_post	2		12	17.0	2.5	/experiments/Knapen_AOT/AOT_stimuli/rescaled_final/0524_rv.mp4	0.0	134.51260447502136	0.10002255439758301
20	117.44228100776672	fix_pre	0		120	18.0	2.5	/experiments/Knapen_AOT/AOT_stimuli/rescaled_final/1513_rv.mp4	0.0	134.61262702941895	1.0084953308105469
20	117.62588596343994	pulse	0	t		18.0	2.5	/experiments/Knapen_AOT/AOT_stimuli/rescaled_final/1513_rv.mp4	0.0	134.79623198509216	
20	118.45077633857727	movie	1		270	18.0	2.5	/experiments/Knapen_AOT/AOT_stimuli/rescaled_final/1513_rv.mp4	0.0	135.6211223602295	2.4920268058776855
20	119.22393226623535	pulse	1	t		18.0	2.5	/experiments/Knapen_AOT/AOT_stimuli/rescaled_final/1513_rv.mp4	0.0	136.39427828788757	
20	120.82436800003052	pulse	1	t		18.0	2.5	/experiments/Knapen_AOT/AOT_stimuli/rescaled_final/1513_rv.mp4	0.0	137.99471402168274	
20	120.94280314445496	fix_post	2		12	18.0	2.5	/experiments/Knapen_AOT/AOT_stimuli/rescaled_final/1513_rv.mp4	0.0	138.11314916610718	0.10003829002380371
21	121.04284143447876	fix_pre	0		120	19.0	2.5	blank	1.0	138.21318745613098	1.0001282691955566
21	122.04296970367432	movie	1		300	19.0	2.5	blank	1.0	139.21331572532654	2.5005557537078857
21	122.41880798339844	pulse	1	t		19.0	2.5	blank	1.0	139.58915400505066	
21	124.01881504058838	pulse	1	t		19.0	2.5	blank	1.0	141.1891610622406	
21	124.5435254573822	fix_post	2		12	19.0	2.5	blank	1.0	141.71387147903442	0.09984612464904785
22	124.64337158203125	fix_pre	0		118	20.0	2.5	/experiments/Knapen_AOT/AOT_stimuli/rescaled_final/1830_rv.mp4	0.0	141.81371760368347	1.0002903938293457
22	125.61918640136719	pulse	0	t		20.0	2.5	/experiments/Knapen_AOT/AOT_stimuli/rescaled_final/1830_rv.mp4	0.0	142.7895324230194	
22	125.6436619758606	movie	1		281	20.0	2.5	/experiments/Knapen_AOT/AOT_stimuli/rescaled_final/1830_rv.mp4	0.0	142.81400799751282	2.49187970161438
22	127.21907138824463	pulse	1	t		20.0	2.5	/experiments/Knapen_AOT/AOT_stimuli/rescaled_final/1830_rv.mp4	0.0	144.38941740989685	
22	128.13554167747498	fix_post	2		12	20.0	2.5	/experiments/Knapen_AOT/AOT_stimuli/rescaled_final/1830_rv.mp4	0.0	145.3058876991272	0.10001420974731445
23	128.2355558872223	fix_pre	0		120	21.0	2.5	/experiments/Knapen_AOT/AOT_stimuli/rescaled_final/1474_fw.mp4	0.0	145.4059019088745	1.0085170269012451
23	128.81922245025635	pulse	0	t		21.0	2.5	/experiments/Knapen_AOT/AOT_stimuli/rescaled_final/1474_fw.mp4	0.0	145.98956847190857	
23	129.24407291412354	movie	1		292	21.0	2.5	/experiments/Knapen_AOT/AOT_stimuli/rescaled_final/1474_fw.mp4	0.0	146.41441893577576	2.4920356273651123
23	130.41976284980774	pulse	1	t		21.0	2.5	/experiments/Knapen_AOT/AOT_stimuli/rescaled_final/1474_fw.mp4	0.0	147.59010887145996	
23	131.73610854148865	fix_post	2		12	21.0	2.5	/experiments/Knapen_AOT/AOT_stimuli/rescaled_final/1474_fw.mp4	0.0	148.90645456314087	0.09999775886535645
24	131.836106300354	fix_pre	0		120	22.0	2.5	/experiments/Knapen_AOT/AOT_stimuli/rescaled_final/1544_fw.mp4	0.0	149.00645232200623	1.008495569229126
24	132.01986479759216	pulse	0	t		22.0	2.5	/experiments/Knapen_AOT/AOT_stimuli/rescaled_final/1544_fw.mp4	0.0	149.19021081924438	
24	132.84460186958313	movie	1		284	22.0	2.5	/experiments/Knapen_AOT/AOT_stimuli/rescaled_final/1544_fw.mp4	0.0	150.01494789123535	2.49206280708313
24	133.62005639076233	pulse	1	t		22.0	2.5	/experiments/Knapen_AOT/AOT_stimuli/rescaled_final/1544_fw.mp4	0.0	150.79040241241455	
24	135.22027492523193	pulse	1	t		22.0	2.5	/experiments/Knapen_AOT/AOT_stimuli/rescaled_final/1544_fw.mp4	0.0	152.39062094688416	
24	135.33666467666626	fix_post	2		12	22.0	2.5	/experiments/Knapen_AOT/AOT_stimuli/rescaled_final/1544_fw.mp4	0.0	152.50701069831848	0.0999906063079834
25	135.43665528297424	fix_pre	0		120	23.0	2.5	/experiments/Knapen_AOT/AOT_stimuli/rescaled_final/1401_rv.mp4	0.0	152.60700130462646	1.0085170269012451
25	136.4451723098755	movie	1		283	23.0	2.5	/experiments/Knapen_AOT/AOT_stimuli/rescaled_final/1401_rv.mp4	0.0	153.6155183315277	2.4920101165771484
25	136.8207995891571	pulse	1	t		23.0	2.5	/experiments/Knapen_AOT/AOT_stimuli/rescaled_final/1401_rv.mp4	0.0	153.99114561080933	
25	138.42065405845642	pulse	1	t		23.0	2.5	/experiments/Knapen_AOT/AOT_stimuli/rescaled_final/1401_rv.mp4	0.0	155.59100008010864	
25	138.93718242645264	fix_post	2		12	23.0	2.5	/experiments/Knapen_AOT/AOT_stimuli/rescaled_final/1401_rv.mp4	0.0	156.10752844810486	0.1000218391418457
26	139.03720426559448	fix_pre	0		119	24.0	2.5	/experiments/Knapen_AOT/AOT_stimuli/rescaled_final/0933_rv.mp4	0.0	156.2075502872467	1.0001413822174072
26	140.02119278907776	pulse	0	t		24.0	2.5	/experiments/Knapen_AOT/AOT_stimuli/rescaled_final/0933_rv.mp4	0.0	157.19153881072998	
26	140.0373456478119	movie	1		277	24.0	2.5	/experiments/Knapen_AOT/AOT_stimuli/rescaled_final/0933_rv.mp4	0.0	157.2076916694641	2.5003767013549805
26	141.61946058273315	pulse	1	t		24.0	2.5	/experiments/Knapen_AOT/AOT_stimuli/rescaled_final/0933_rv.mp4	0.0	158.78980660438538	
26	142.53772234916687	fix_post	2		12	24.0	2.5	/experiments/Knapen_AOT/AOT_stimuli/rescaled_final/0933_rv.mp4	0.0	159.7080683708191	0.10000848770141602
27	142.6377308368683	fix_pre	0		120	25.0	2.5	/experiments/Knapen_AOT/AOT_stimuli/rescaled_final/0649_fw.mp4	0.0	159.8080768585205	1.0085206031799316
27	143.22142386436462	pulse	0	t		25.0	2.5	/experiments/Knapen_AOT/AOT_stimuli/rescaled_final/0649_fw.mp4	0.0	160.39176988601685	
27	143.64625144004822	movie	1		289	25.0	2.5	/experiments/Knapen_AOT/AOT_stimuli/rescaled_final/0649_fw.mp4	0.0	160.81659746170044	2.4920053482055664
27	144.82058334350586	pulse	1	t		25.0	2.5	/experiments/Knapen_AOT/AOT_stimuli/rescaled_final/0649_fw.mp4	0.0	161.99092936515808	
27	146.13825678825378	fix_post	2		12	25.0	2.5	/experiments/Knapen_AOT/AOT_stimuli/rescaled_final/0649_fw.mp4	0.0	163.308602809906	0.1000218391418457
28	146.23827862739563	fix_pre	0		120	26.0	2.5	/experiments/Knapen_AOT/AOT_stimuli/rescaled_final/0542_fw.mp4	0.0	163.40862464904785	1.0084881782531738
28	146.42215633392334	pulse	0	t		26.0	2.5	/experiments/Knapen_AOT/AOT_stimuli/rescaled_final/0542_fw.mp4	0.0	163.59250235557556	
28	147.2467668056488	movie	1		284	26.0	2.5	/experiments/Knapen_AOT/AOT_stimuli/rescaled_final/0542_fw.mp4	0.0	164.41711282730103	2.492060899734497
28	148.02001690864563	pulse	1	t		26.0	2.5	/experiments/Knapen_AOT/AOT_stimuli/rescaled_final/0542_fw.mp4	0.0	165.19036293029785	
28	149.62048244476318	pulse	1	t		26.0	2.5	/experiments/Knapen_AOT/AOT_stimuli/rescaled_final/0542_fw.mp4	0.0	166.7908284664154	
28	149.7388277053833	fix_post	2		12	26.0	2.5	/experiments/Knapen_AOT/AOT_stimuli/rescaled_final/0542_fw.mp4	0.0	166.90917372703552	0.10003304481506348
29	149.83886075019836	fix_pre	0		120	27.0	2.5	/experiments/Knapen_AOT/AOT_stimuli/rescaled_final/0629_fw.mp4	0.0	167.0092067718506	1.0086064338684082
29	150.84746718406677	movie	1		285	27.0	2.5	/experiments/Knapen_AOT/AOT_stimuli/rescaled_final/0629_fw.mp4	0.0	168.017813205719	2.4918715953826904
29	151.2220447063446	pulse	1	t		27.0	2.5	/experiments/Knapen_AOT/AOT_stimuli/rescaled_final/0629_fw.mp4	0.0	168.39239072799683	
29	152.82075572013855	pulse	1	t		27.0	2.5	/experiments/Knapen_AOT/AOT_stimuli/rescaled_final/0629_fw.mp4	0.0	169.99110174179077	
29	153.33933877944946	fix_post	2		12	27.0	2.5	/experiments/Knapen_AOT/AOT_stimuli/rescaled_final/0629_fw.mp4	0.0	170.50968480110168	0.1000211238861084
30	153.43935990333557	fix_pre	0		119	28.0	2.5	blank	1.0	170.6097059249878	0.9918131828308105
30	154.42312860488892	pulse	0	t		28.0	2.5	blank	1.0	171.59347462654114	
30	154.43117308616638	movie	1		301	28.0	2.5	blank	1.0	171.6015191078186	2.508707284927368
30	156.0235607624054	pulse	1	t		28.0	2.5	blank	1.0	173.19390678405762	
30	156.93988037109375	fix_post	2		12	28.0	2.5	blank	1.0	174.11022639274597	0.10002493858337402
31	157.03990530967712	fix_pre	0		120	29.0	2.5	/experiments/Knapen_AOT/AOT_stimuli/rescaled_final/0995_fw.mp4	0.0	174.21025133132935	1.008507490158081
31	157.62361335754395	pulse	0	t		29.0	2.5	/experiments/Knapen_AOT/AOT_stimuli/rescaled_final/0995_fw.mp4	0.0	174.79395937919617	
31	158.0484127998352	movie	1		284	29.0	2.5	/experiments/Knapen_AOT/AOT_stimuli/rescaled_final/0995_fw.mp4	0.0	175.21875882148743	2.4921886920928955
31	159.22234201431274	pulse	1	t		29.0	2.5	/experiments/Knapen_AOT/AOT_stimuli/rescaled_final/0995_fw.mp4	0.0	176.39268803596497	
31	160.5406014919281	fix_post	2		12	29.0	2.5	/experiments/Knapen_AOT/AOT_stimuli/rescaled_final/0995_fw.mp4	0.0	177.71094751358032	0.09987044334411621
32	160.64047193527222	fix_pre	0		120	30.0	2.5	/experiments/Knapen_AOT/AOT_stimuli/rescaled_final/0616_fw.mp4	0.0	177.81081795692444	1.0084764957427979
32	160.82399678230286	pulse	0	t		30.0	2.5	/experiments/Knapen_AOT/AOT_stimuli/rescaled_final/0616_fw.mp4	0.0	177.99434280395508	
32	161.64894843101501	movie	1		286	30.0	2.5	/experiments/Knapen_AOT/AOT_stimuli/rescaled_final/0616_fw.mp4	0.0	178.81929445266724	2.4920051097869873
32	162.4222571849823	pulse	1	t		30.0	2.5	/experiments/Knapen_AOT/AOT_stimuli/rescaled_final/0616_fw.mp4	0.0	179.59260320663452	
32	164.02291560173035	pulse	1	t		30.0	2.5	/experiments/Knapen_AOT/AOT_stimuli/rescaled_final/0616_fw.mp4	0.0	181.19326162338257	
32	164.140953540802	fix_post	2		12	30.0	2.5	/experiments/Knapen_AOT/AOT_stimuli/rescaled_final/0616_fw.mp4	0.0	181.31129956245422	0.1000680923461914
33	164.2410216331482	fix_pre	0		120	31.0	2.5	/experiments/Knapen_AOT/AOT_stimuli/rescaled_final/1062_fw.mp4	0.0	181.41136765480042	1.0084726810455322
33	165.24949431419373	movie	1		285	31.0	2.5	/experiments/Knapen_AOT/AOT_stimuli/rescaled_final/1062_fw.mp4	0.0	182.41984033584595	2.4920389652252197
33	165.62327122688293	pulse	1	t		31.0	2.5	/experiments/Knapen_AOT/AOT_stimuli/rescaled_final/1062_fw.mp4	0.0	182.79361724853516	
33	167.22299098968506	pulse	1	t		31.0	2.5	/experiments/Knapen_AOT/AOT_stimuli/rescaled_final/1062_fw.mp4	0.0	184.39333701133728	
33	167.74153327941895	fix_post	2		12	31.0	2.5	/experiments/Knapen_AOT/AOT_stimuli/rescaled_final/1062_fw.mp4	0.0	184.91187930107117	0.10003542900085449
34	167.8415687084198	fix_pre	0		119	32.0	2.5	/experiments/Knapen_AOT/AOT_stimuli/rescaled_final/0212_rv.mp4	0.0	185.01191473007202	1.000291347503662
34	168.82533836364746	pulse	0	t		32.0	2.5	/experiments/Knapen_AOT/AOT_stimuli/rescaled_final/0212_rv.mp4	0.0	185.99568438529968	
34	168.84186005592346	movie	1		296	32.0	2.5	/experiments/Knapen_AOT/AOT_stimuli/rescaled_final/0212_rv.mp4	0.0	186.01220607757568	2.500166893005371
34	170.4216058254242	pulse	1	t		32.0	2.5	/experiments/Knapen_AOT/AOT_stimuli/rescaled_final/0212_rv.mp4	0.0	187.59195184707642	
34	171.34202694892883	fix_post	2		12	32.0	2.5	/experiments/Knapen_AOT/AOT_stimuli/rescaled_final/0212_rv.mp4	0.0	188.51237297058105	0.10003399848937988
35	171.4420609474182	fix_pre	0		120	33.0	2.5	blank	1.0	188.61240696907043	1.0001401901245117
35	172.02564144134521	pulse	0	t		33.0	2.5	blank	1.0	189.19598746299744	
35	172.44220113754272	movie	1		300	33.0	2.5	blank	1.0	189.61254715919495	2.5004091262817383
35	173.62589049339294	pulse	1	t		33.0	2.5	blank	1.0	190.79623651504517	
35	174.94261026382446	fix_post	2		12	33.0	2.5	blank	1.0	192.11295628547668	0.0999748706817627
36	175.04258513450623	fix_pre	0		120	34.0	2.5	/experiments/Knapen_AOT/AOT_stimuli/rescaled_final/1787_rv.mp4	0.0	192.21293115615845	1.0085501670837402
36	175.22607827186584	pulse	0	t		34.0	2.5	/experiments/Knapen_AOT/AOT_stimuli/rescaled_final/1787_rv.mp4	0.0	192.39642429351807	
36	176.05113530158997	movie	1		273	34.0	2.5	/experiments/Knapen_AOT/AOT_stimuli/rescaled_final/1787_rv.mp4	0.0	193.2214813232422	2.4920055866241455
36	176.82506442070007	pulse	1	t		34.0	2.5	/experiments/Knapen_AOT/AOT_stimuli/rescaled_final/1787_rv.mp4	0.0	193.9954104423523	
36	178.42478203773499	pulse	1	t		34.0	2.5	/experiments/Knapen_AOT/AOT_stimuli/rescaled_final/1787_rv.mp4	0.0	195.5951280593872	
36	178.5431408882141	fix_post	2		12	34.0	2.5	/experiments/Knapen_AOT/AOT_stimuli/rescaled_final/1787_rv.mp4	0.0	195.71348690986633	0.10000443458557129
37	178.64314532279968	fix_pre	0		120	35.0	2.5	/experiments/Knapen_AOT/AOT_stimuli/rescaled_final/1728_fw.mp4	0.0	195.8134913444519	1.0086286067962646
37	179.65177392959595	movie	1		266	35.0	2.5	/experiments/Knapen_AOT/AOT_stimuli/rescaled_final/1728_fw.mp4	0.0	196.82211995124817	2.491905689239502
37	180.0253939628601	pulse	1	t		35.0	2.5	/experiments/Knapen_AOT/AOT_stimuli/rescaled_final/1728_fw.mp4	0.0	197.19573998451233	
37	181.62504124641418	pulse	1	t		35.0	2.5	/experiments/Knapen_AOT/AOT_stimuli/rescaled_final/1728_fw.mp4	0.0	198.7953872680664	
37	182.14367961883545	fix_post	2		12	35.0	2.5	/experiments/Knapen_AOT/AOT_stimuli/rescaled_final/1728_fw.mp4	0.0	199.31402564048767	0.10003137588500977
38	182.24371099472046	fix_pre	0		118	36.0	2.5	/experiments/Knapen_AOT/AOT_stimuli/rescaled_final/1459_rv.mp4	0.0	199.41405701637268	0.991809606552124
38	183.21925687789917	pulse	0	t		36.0	2.5	/experiments/Knapen_AOT/AOT_stimuli/rescaled_final/1459_rv.mp4	0.0	200.3896028995514	
38	183.23552060127258	movie	1		283	36.0	2.5	/experiments/Knapen_AOT/AOT_stimuli/rescaled_final/1459_rv.mp4	0.0	200.4058666229248	2.5003714561462402
38	184.82782077789307	pulse	1	t		36.0	2.5	/experiments/Knapen_AOT/AOT_stimuli/rescaled_final/1459_rv.mp4	0.0	201.9981667995453	
38	185.73589205741882	fix_post	2		12	36.0	2.5	/experiments/Knapen_AOT/AOT_stimuli/rescaled_final/1459_rv.mp4	0.0	202.90623807907104	0.10000824928283691
39	185.83590030670166	fix_pre	0		120	37.0	2.5	/experiments/Knapen_AOT/AOT_stimuli/rescaled_final/1295_fw.mp4	0.0	203.00624632835388	1.008514165878296
39	186.4195511341095	pulse	0	t		37.0	2.5	/experiments/Knapen_AOT/AOT_stimuli/rescaled_final/1295_fw.mp4	0.0	203.58989715576172	
39	186.84441447257996	movie	1		280	37.0	2.5	/experiments/Knapen_AOT/AOT_stimuli/rescaled_final/1295_fw.mp4	0.0	204.01476049423218	2.492009162902832
39	188.0198199748993	pulse	1	t		37.0	2.5	/experiments/Knapen_AOT/AOT_stimuli/rescaled_final/1295_fw.mp4	0.0	205.1901659965515	
39	189.3364236354828	fix_post	2		12	37.0	2.5	/experiments/Knapen_AOT/AOT_stimuli/rescaled_final/1295_fw.mp4	0.0	206.506769657135	0.1000521183013916
40	189.43647575378418	fix_pre	0		120	38.0	2.5	/experiments/Knapen_AOT/AOT_stimuli/rescaled_final/0073_fw.mp4	0.0	206.6068217754364	1.0084598064422607
40	189.62002658843994	pulse	0	t		38.0	2.5	/experiments/Knapen_AOT/AOT_stimuli/rescaled_final/0073_fw.mp4	0.0	206.79037261009216	
40	190.44493556022644	movie	1		278	38.0	2.5	/experiments/Knapen_AOT/AOT_stimuli/rescaled_final/0073_fw.mp4	0.0	207.61528158187866	2.492014169692993
40	191.22037649154663	pulse	1	t		38.0	2.5	/experiments/Knapen_AOT/AOT_stimuli/rescaled_final/0073_fw.mp4	0.0	208.39072251319885	
40	192.82052087783813	pulse	1	t		38.0	2.5	/experiments/Knapen_AOT/AOT_stimuli/rescaled_final/0073_fw.mp4	0.0	209.99086689949036	
40	192.93694972991943	fix_post	2		12	38.0	2.5	/experiments/Knapen_AOT/AOT_stimuli/rescaled_final/0073_fw.mp4	0.0	210.10729575157166	0.10004401206970215
41	193.03699374198914	fix_pre	0		120	39.0	2.5	/experiments/Knapen_AOT/AOT_stimuli/rescaled_final/1303_rv.mp4	0.0	210.20733976364136	1.008453607559204
41	194.04544734954834	movie	1		269	39.0	2.5	/experiments/Knapen_AOT/AOT_stimuli/rescaled_final/1303_rv.mp4	0.0	211.21579337120056	2.4922053813934326
41	194.42072439193726	pulse	1	t		39.0	2.5	/experiments/Knapen_AOT/AOT_stimuli/rescaled_final/1303_rv.mp4	0.0	211.59107041358948	
41	196.01931071281433	pulse	1	t		39.0	2.5	/experiments/Knapen_AOT/AOT_stimuli/rescaled_final/1303_rv.mp4	0.0	213.18965673446655	
41	196.53765273094177	fix_post	2		12	39.0	2.5	/experiments/Knapen_AOT/AOT_stimuli/rescaled_final/1303_rv.mp4	0.0	213.707998752594	0.09988021850585938
42	196.63753294944763	fix_pre	0		119	40.0	2.5	/experiments/Knapen_AOT/AOT_stimuli/rescaled_final/1494_fw.mp4	0.0	213.80787897109985	1.0001494884490967
42	197.62130904197693	pulse	0	t		40.0	2.5	/experiments/Knapen_AOT/AOT_stimuli/rescaled_final/1494_fw.mp4	0.0	214.79165506362915	
42	197.63768243789673	movie	1		290	40.0	2.5	/experiments/Knapen_AOT/AOT_stimuli/rescaled_final/1494_fw.mp4	0.0	214.80802845954895	2.5003795623779297
42	199.22010016441345	pulse	1	t		40.0	2.5	/experiments/Knapen_AOT/AOT_stimuli/rescaled_final/1494_fw.mp4	0.0	216.39044618606567	
42	200.13806200027466	fix_post	2		12	40.0	2.5	/experiments/Knapen_AOT/AOT_stimuli/rescaled_final/1494_fw.mp4	0.0	217.30840802192688	0.09999227523803711
43	200.2380542755127	fix_pre	0		120	41.0	2.5	/experiments/Knapen_AOT/AOT_stimuli/rescaled_final/1529_fw.mp4	0.0	217.40840029716492	1.0085630416870117
43	200.8217694759369	pulse	0	t		41.0	2.5	/experiments/Knapen_AOT/AOT_stimuli/rescaled_final/1529_fw.mp4	0.0	217.9921154975891	
43	201.2466173171997	movie	1		266	41.0	2.5	/experiments/Knapen_AOT/AOT_stimuli/rescaled_final/1529_fw.mp4	0.0	218.41696333885193	2.491971969604492
43	202.42031908035278	pulse	1	t		41.0	2.5	/experiments/Knapen_AOT/AOT_stimuli/rescaled_final/1529_fw.mp4	0.0	219.590665102005	
43	203.7385892868042	fix_post	2		12	41.0	2.5	/experiments/Knapen_AOT/AOT_stimuli/rescaled_final/1529_fw.mp4	0.0	220.90893530845642	0.1000213623046875
44	203.8386106491089	fix_pre	0		120	42.0	2.5	blank	1.0	221.0089566707611	1.0001921653747559
44	204.02221083641052	pulse	0	t		42.0	2.5	blank	1.0	221.19255685806274	
44	204.83880281448364	movie	1		300	42.0	2.5	blank	1.0	222.00914883613586	2.5003738403320312
44	205.6225037574768	pulse	1	t		42.0	2.5	blank	1.0	222.79284977912903	
44	207.22271013259888	pulse	1	t		42.0	2.5	blank	1.0	224.3930561542511	
44	207.33917665481567	fix_post	2		12	42.0	2.5	blank	1.0	224.5095226764679	0.09996724128723145
45	207.4391438961029	fix_pre	0		120	43.0	2.5	/experiments/Knapen_AOT/AOT_stimuli/rescaled_final/1884_rv.mp4	0.0	224.60948991775513	1.0085399150848389
45	208.44768381118774	movie	1		282	43.0	2.5	/experiments/Knapen_AOT/AOT_stimuli/rescaled_final/1884_rv.mp4	0.0	225.61802983283997	2.491990804672241
45	208.8215274810791	pulse	1	t		43.0	2.5	/experiments/Knapen_AOT/AOT_stimuli/rescaled_final/1884_rv.mp4	0.0	225.99187350273132	
45	210.42129707336426	pulse	1	t		43.0	2.5	/experiments/Knapen_AOT/AOT_stimuli/rescaled_final/1884_rv.mp4	0.0	227.59164309501648	
45	210.93967461585999	fix_post	2		12	43.0	2.5	/experiments/Knapen_AOT/AOT_stimuli/rescaled_final/1884_rv.mp4	0.0	228.1100206375122	0.1000058650970459
46	211.03968048095703	fix_pre	0		119	44.0	2.5	/experiments/Knapen_AOT/AOT_stimuli/rescaled_final/0218_fw.mp4	0.0	228.21002650260925	1.0004503726959229
46	212.02357244491577	pulse	0	t		44.0	2.5	/experiments/Knapen_AOT/AOT_stimuli/rescaled_final/0218_fw.mp4	0.0	229.193918466568	
46	212.04013085365295	movie	1		287	44.0	2.5	/experiments/Knapen_AOT/AOT_stimuli/rescaled_final/0218_fw.mp4	0.0	229.21047687530518	2.500110626220703
46	213.62230491638184	pulse	1	t		44.0	2.5	/experiments/Knapen_AOT/AOT_stimuli/rescaled_final/0218_fw.mp4	0.0	230.79265093803406	
46	214.54024147987366	fix_post	2		12	44.0	2.5	/experiments/Knapen_AOT/AOT_stimuli/rescaled_final/0218_fw.mp4	0.0	231.71058750152588	0.09998750686645508
47	214.6402289867401	fix_pre	0		120	45.0	2.5	/experiments/Knapen_AOT/AOT_stimuli/rescaled_final/0016_fw.mp4	0.0	231.81057500839233	1.0084972381591797
47	215.22384238243103	pulse	0	t		45.0	2.5	/experiments/Knapen_AOT/AOT_stimuli/rescaled_final/0016_fw.mp4	0.0	232.39418840408325	
47	215.6487262248993	movie	1		269	45.0	2.5	/experiments/Knapen_AOT/AOT_stimuli/rescaled_final/0016_fw.mp4	0.0	232.8190722465515	2.483774423599243
47	216.82245779037476	pulse	1	t		45.0	2.5	/experiments/Knapen_AOT/AOT_stimuli/rescaled_final/0016_fw.mp4	0.0	233.99280381202698	
47	218.13250064849854	fix_post	2		13	45.0	2.5	/experiments/Knapen_AOT/AOT_stimuli/rescaled_final/0016_fw.mp4	0.0	235.30284667015076	0.10827398300170898
48	218.24077463150024	fix_pre	0		120	46.0	2.5	/experiments/Knapen_AOT/AOT_stimuli/rescaled_final/1904_fw.mp4	0.0	235.41112065315247	1.008481740951538
48	218.42437410354614	pulse	0	t		46.0	2.5	/experiments/Knapen_AOT/AOT_stimuli/rescaled_final/1904_fw.mp4	0.0	235.59472012519836	
48	219.24925637245178	movie	1		286	46.0	2.5	/experiments/Knapen_AOT/AOT_stimuli/rescaled_final/1904_fw.mp4	0.0	236.419602394104	2.4920644760131836
48	220.0226628780365	pulse	1	t		46.0	2.5	/experiments/Knapen_AOT/AOT_stimuli/rescaled_final/1904_fw.mp4	0.0	237.19300889968872	
48	221.62289547920227	pulse	1	t		46.0	2.5	/experiments/Knapen_AOT/AOT_stimuli/rescaled_final/1904_fw.mp4	0.0	238.7932415008545	
48	221.74132084846497	fix_post	2		12	46.0	2.5	/experiments/Knapen_AOT/AOT_stimuli/rescaled_final/1904_fw.mp4	0.0	238.9116668701172	0.0999755859375
49	221.84129643440247	fix_pre	0		120	47.0	2.5	blank	1.0	239.0116424560547	1.0002799034118652
49	222.84157633781433	movie	1		300	47.0	2.5	blank	1.0	240.01192235946655	2.5002570152282715
49	223.22505617141724	pulse	1	t		47.0	2.5	blank	1.0	240.39540219306946	
49	224.8252832889557	pulse	1	t		47.0	2.5	blank	1.0	241.9956293106079	
49	225.3418333530426	fix_post	2		12	47.0	2.5	blank	1.0	242.51217937469482	0.10003352165222168
50	225.44186687469482	fix_pre	0		119	48.0	2.5	/experiments/Knapen_AOT/AOT_stimuli/rescaled_final/0131_fw.mp4	0.0	242.61221289634705	1.0086324214935303
50	226.42562890052795	pulse	0	t		48.0	2.5	/experiments/Knapen_AOT/AOT_stimuli/rescaled_final/0131_fw.mp4	0.0	243.59597492218018	
50	226.45049929618835	movie	1		284	48.0	2.5	/experiments/Knapen_AOT/AOT_stimuli/rescaled_final/0131_fw.mp4	0.0	243.62084531784058	2.491931676864624
50	228.0244743824005	pulse	1	t		48.0	2.5	/experiments/Knapen_AOT/AOT_stimuli/rescaled_final/0131_fw.mp4	0.0	245.19482040405273	
50	228.94243097305298	fix_post	2		12	48.0	2.5	/experiments/Knapen_AOT/AOT_stimuli/rescaled_final/0131_fw.mp4	0.0	246.1127769947052	0.10000967979431152
51	229.0424406528473	fix_pre	0		120	49.0	2.5	/experiments/Knapen_AOT/AOT_stimuli/rescaled_final/0587_rv.mp4	0.0	246.2127866744995	1.0084638595581055
51	229.62604475021362	pulse	0	t		49.0	2.5	/experiments/Knapen_AOT/AOT_stimuli/rescaled_final/0587_rv.mp4	0.0	246.79639077186584	
51	230.0509045124054	movie	1		280	49.0	2.5	/experiments/Knapen_AOT/AOT_stimuli/rescaled_final/0587_rv.mp4	0.0	247.22125053405762	2.492018461227417
51	231.22441220283508	pulse	1	t		49.0	2.5	/experiments/Knapen_AOT/AOT_stimuli/rescaled_final/0587_rv.mp4	0.0	248.3947582244873	
51	232.5429229736328	fix_post	2		12	49.0	2.5	/experiments/Knapen_AOT/AOT_stimuli/rescaled_final/0587_rv.mp4	0.0	249.71326899528503	0.09996604919433594
52	232.64288902282715	fix_pre	0		120	50.0	2.5	/experiments/Knapen_AOT/AOT_stimuli/rescaled_final/0272_rv.mp4	0.0	249.81323504447937	1.008568525314331
52	232.8208510875702	pulse	0	t		50.0	2.5	/experiments/Knapen_AOT/AOT_stimuli/rescaled_final/0272_rv.mp4	0.0	249.9911971092224	
52	233.65145754814148	movie	1		283	50.0	2.5	/experiments/Knapen_AOT/AOT_stimuli/rescaled_final/0272_rv.mp4	0.0	250.8218035697937	2.492034435272217
52	234.41868829727173	pulse	1	t		50.0	2.5	/experiments/Knapen_AOT/AOT_stimuli/rescaled_final/0272_rv.mp4	0.0	251.58903431892395	
52	236.01888489723206	pulse	1	t		50.0	2.5	/experiments/Knapen_AOT/AOT_stimuli/rescaled_final/0272_rv.mp4	0.0	253.18923091888428	
52	236.1434919834137	fix_post	2		12	50.0	2.5	/experiments/Knapen_AOT/AOT_stimuli/rescaled_final/0272_rv.mp4	0.0	253.31383800506592	0.09998846054077148
53	236.24348044395447	fix_pre	0		120	51.0	2.5	/experiments/Knapen_AOT/AOT_stimuli/rescaled_final/0520_fw.mp4	0.0	253.4138264656067	1.0084967613220215
53	237.2519772052765	movie	1		281	51.0	2.5	/experiments/Knapen_AOT/AOT_stimuli/rescaled_final/0520_fw.mp4	0.0	254.4223232269287	2.49202561378479
53	237.61893486976624	pulse	1	t		51.0	2.5	/experiments/Knapen_AOT/AOT_stimuli/rescaled_final/0520_fw.mp4	0.0	254.78928089141846	
53	239.2191445827484	pulse	1	t		51.0	2.5	/experiments/Knapen_AOT/AOT_stimuli/rescaled_final/0520_fw.mp4	0.0	256.38949060440063	
53	239.74400281906128	fix_post	2		12	51.0	2.5	/experiments/Knapen_AOT/AOT_stimuli/rescaled_final/0520_fw.mp4	0.0	256.9143488407135	0.10000920295715332
54	239.84401202201843	fix_pre	0		118	52.0	2.5	/experiments/Knapen_AOT/AOT_stimuli/rescaled_final/2044_fw.mp4	0.0	257.01435804367065	0.9918632507324219
54	240.8194146156311	pulse	0	t		52.0	2.5	/experiments/Knapen_AOT/AOT_stimuli/rescaled_final/2044_fw.mp4	0.0	257.9897606372833	
54	240.83587527275085	movie	1		276	52.0	2.5	/experiments/Knapen_AOT/AOT_stimuli/rescaled_final/2044_fw.mp4	0.0	258.0062212944031	2.500325918197632
54	242.41968321800232	pulse	1	t		52.0	2.5	/experiments/Knapen_AOT/AOT_stimuli/rescaled_final/2044_fw.mp4	0.0	259.59002923965454	
54	243.3362011909485	fix_post	2		12	52.0	2.5	/experiments/Knapen_AOT/AOT_stimuli/rescaled_final/2044_fw.mp4	0.0	260.5065472126007	0.10003018379211426
55	243.4362313747406	fix_pre	0		120	53.0	2.5	/experiments/Knapen_AOT/AOT_stimuli/rescaled_final/0722_rv.mp4	0.0	260.6065773963928	1.0084948539733887
55	244.02004742622375	pulse	0	t		53.0	2.5	/experiments/Knapen_AOT/AOT_stimuli/rescaled_final/0722_rv.mp4	0.0	261.190393447876	
55	244.444726228714	movie	1		282	53.0	2.5	/experiments/Knapen_AOT/AOT_stimuli/rescaled_final/0722_rv.mp4	0.0	261.6150722503662	2.492079973220825
55	245.6200876235962	pulse	1	t		53.0	2.5	/experiments/Knapen_AOT/AOT_stimuli/rescaled_final/0722_rv.mp4	0.0	262.7904336452484	
55	246.93680620193481	fix_post	2		12	53.0	2.5	/experiments/Knapen_AOT/AOT_stimuli/rescaled_final/0722_rv.mp4	0.0	264.10715222358704	0.10009050369262695
56	247.03689670562744	fix_pre	0		120	54.0	2.5	/experiments/Knapen_AOT/AOT_stimuli/rescaled_final/0570_fw.mp4	0.0	264.20724272727966	1.0083720684051514
56	247.22042894363403	pulse	0	t		54.0	2.5	/experiments/Knapen_AOT/AOT_stimuli/rescaled_final/0570_fw.mp4	0.0	264.39077496528625	
56	248.0452687740326	movie	1		286	54.0	2.5	/experiments/Knapen_AOT/AOT_stimuli/rescaled_final/0570_fw.mp4	0.0	265.2156147956848	2.4920363426208496
56	248.81864476203918	pulse	1	t		54.0	2.5	/experiments/Knapen_AOT/AOT_stimuli/rescaled_final/0570_fw.mp4	0.0	265.9889907836914	
56	250.41896414756775	pulse	1	t		54.0	2.5	/experiments/Knapen_AOT/AOT_stimuli/rescaled_final/0570_fw.mp4	0.0	267.58931016921997	
56	250.53730511665344	fix_post	2		12	54.0	2.5	/experiments/Knapen_AOT/AOT_stimuli/rescaled_final/0570_fw.mp4	0.0	267.70765113830566	0.09999799728393555
57	250.63730311393738	fix_pre	0		120	55.0	2.5	/experiments/Knapen_AOT/AOT_stimuli/rescaled_final/0371_fw.mp4	0.0	267.8076491355896	1.0085749626159668
57	251.64587807655334	movie	1		279	55.0	2.5	/experiments/Knapen_AOT/AOT_stimuli/rescaled_final/0371_fw.mp4	0.0	268.81622409820557	2.4919636249542236
57	252.01960062980652	pulse	1	t		55.0	2.5	/experiments/Knapen_AOT/AOT_stimuli/rescaled_final/0371_fw.mp4	0.0	269.18994665145874	
57	253.61948466300964	pulse	1	t		55.0	2.5	/experiments/Knapen_AOT/AOT_stimuli/rescaled_final/0371_fw.mp4	0.0	270.78983068466187	
57	254.13784170150757	fix_post	2		12	55.0	2.5	/experiments/Knapen_AOT/AOT_stimuli/rescaled_final/0371_fw.mp4	0.0	271.3081877231598	0.09999942779541016
58	254.23784112930298	fix_pre	0		119	56.0	2.5	blank	1.0	271.4081871509552	0.9918098449707031
58	255.22171354293823	pulse	0	t		56.0	2.5	blank	1.0	272.39205956459045	
58	255.22965097427368	movie	1		301	56.0	2.5	blank	1.0	272.3999969959259	2.5087201595306396
58	256.8217570781708	pulse	1	t		56.0	2.5	blank	1.0	273.992103099823	
58	257.7383711338043	fix_post	2		12	56.0	2.5	blank	1.0	274.90871715545654	0.10001802444458008
59	257.8383891582489	fix_pre	0		120	57.0	2.5	/experiments/Knapen_AOT/AOT_stimuli/rescaled_final/0966_rv.mp4	0.0	275.0087351799011	1.0084686279296875
59	258.4220232963562	pulse	0	t		57.0	2.5	/experiments/Knapen_AOT/AOT_stimuli/rescaled_final/0966_rv.mp4	0.0	275.5923693180084	
59	258.8468577861786	movie	1		278	57.0	2.5	/experiments/Knapen_AOT/AOT_stimuli/rescaled_final/0966_rv.mp4	0.0	276.0172038078308	2.492063522338867
59	260.0207779407501	pulse	1	t		57.0	2.5	/experiments/Knapen_AOT/AOT_stimuli/rescaled_final/0966_rv.mp4	0.0	277.19112396240234	
59	261.33892130851746	fix_post	2		12	57.0	2.5	/experiments/Knapen_AOT/AOT_stimuli/rescaled_final/0966_rv.mp4	0.0	278.5092673301697	0.1000213623046875
60	261.43894267082214	fix_pre	0		120	58.0	2.5	/experiments/Knapen_AOT/AOT_stimuli/rescaled_final/2120_fw.mp4	0.0	278.60928869247437	1.008509874343872
60	261.62253642082214	pulse	0	t		58.0	2.5	/experiments/Knapen_AOT/AOT_stimuli/rescaled_final/2120_fw.mp4	0.0	278.79288244247437	
60	262.447452545166	movie	1		283	58.0	2.5	/experiments/Knapen_AOT/AOT_stimuli/rescaled_final/2120_fw.mp4	0.0	279.61779856681824	2.492011070251465
60	263.22196531295776	pulse	1	t		58.0	2.5	/experiments/Knapen_AOT/AOT_stimuli/rescaled_final/2120_fw.mp4	0.0	280.39231133461	
60	264.82115840911865	pulse	1	t		58.0	2.5	/experiments/Knapen_AOT/AOT_stimuli/rescaled_final/2120_fw.mp4	0.0	281.9915044307709	
60	264.9394636154175	fix_post	2		12	58.0	2.5	/experiments/Knapen_AOT/AOT_stimuli/rescaled_final/2120_fw.mp4	0.0	282.1098096370697	0.1000218391418457
61	265.0394854545593	fix_pre	0		120	59.0	2.5	/experiments/Knapen_AOT/AOT_stimuli/rescaled_final/1525_fw.mp4	0.0	282.20983147621155	1.0084662437438965
61	266.0479516983032	movie	1		278	59.0	2.5	/experiments/Knapen_AOT/AOT_stimuli/rescaled_final/1525_fw.mp4	0.0	283.21829771995544	2.492095470428467
61	266.42121052742004	pulse	1	t		59.0	2.5	/experiments/Knapen_AOT/AOT_stimuli/rescaled_final/1525_fw.mp4	0.0	283.59155654907227	
61	268.0218369960785	pulse	1	t		59.0	2.5	/experiments/Knapen_AOT/AOT_stimuli/rescaled_final/1525_fw.mp4	0.0	285.1921830177307	
61	268.5400471687317	fix_post	2		12	59.0	2.5	/experiments/Knapen_AOT/AOT_stimuli/rescaled_final/1525_fw.mp4	0.0	285.7103931903839	0.09995603561401367
62	268.6400032043457	fix_pre	0		119	60.0	2.5	/experiments/Knapen_AOT/AOT_stimuli/rescaled_final/1185_rv.mp4	0.0	285.8103492259979	1.0002188682556152
62	269.6237246990204	pulse	0	t		60.0	2.5	/experiments/Knapen_AOT/AOT_stimuli/rescaled_final/1185_rv.mp4	0.0	286.7940707206726	
62	269.6402220726013	movie	1		277	60.0	2.5	/experiments/Knapen_AOT/AOT_stimuli/rescaled_final/1185_rv.mp4	0.0	286.81056809425354	2.500338554382324
62	271.2222845554352	pulse	1	t		60.0	2.5	/experiments/Knapen_AOT/AOT_stimuli/rescaled_final/1185_rv.mp4	0.0	288.3926305770874	
62	272.14056062698364	fix_post	2		12	60.0	2.5	/experiments/Knapen_AOT/AOT_stimuli/rescaled_final/1185_rv.mp4	0.0	289.31090664863586	0.09998631477355957
63	272.2405469417572	fix_pre	0		120	61.0	2.5	blank	1.0	289.4108929634094	1.0002117156982422
63	272.8241789340973	pulse	0	t		61.0	2.5	blank	1.0	289.9945249557495	
63	273.24075865745544	movie	1		300	61.0	2.5	blank	1.0	290.41110467910767	2.500325918197632
63	274.4244737625122	pulse	1	t		61.0	2.5	blank	1.0	291.59481978416443	
63	275.7410845756531	fix_post	2		12	61.0	2.5	blank	1.0	292.9114305973053	0.10008597373962402
64	275.8411705493927	fix_pre	0		120	62.0	2.5	/experiments/Knapen_AOT/AOT_stimuli/rescaled_final/2063_fw.mp4	0.0	293.0115165710449	1.0084054470062256
64	276.0246493816376	pulse	0	t		62.0	2.5	/experiments/Knapen_AOT/AOT_stimuli/rescaled_final/2063_fw.mp4	0.0	293.1949954032898	
64	276.8495759963989	movie	1		287	62.0	2.5	/experiments/Knapen_AOT/AOT_stimuli/rescaled_final/2063_fw.mp4	0.0	294.01992201805115	2.4920473098754883
64	277.62290477752686	pulse	1	t		62.0	2.5	/experiments/Knapen_AOT/AOT_stimuli/rescaled_final/2063_fw.mp4	0.0	294.7932507991791	
64	279.22330617904663	pulse	1	t		62.0	2.5	/experiments/Knapen_AOT/AOT_stimuli/rescaled_final/2063_fw.mp4	0.0	296.39365220069885	
64	279.3416233062744	fix_post	2		12	62.0	2.5	/experiments/Knapen_AOT/AOT_stimuli/rescaled_final/2063_fw.mp4	0.0	296.51196932792664	0.10000967979431152
65	279.4416329860687	fix_pre	0		120	63.0	2.5	/experiments/Knapen_AOT/AOT_stimuli/rescaled_final/2147_fw.mp4	0.0	296.61197900772095	1.0085361003875732
65	280.4501690864563	movie	1		282	63.0	2.5	/experiments/Knapen_AOT/AOT_stimuli/rescaled_final/2147_fw.mp4	0.0	297.6205151081085	2.492029905319214
65	280.8253448009491	pulse	1	t		63.0	2.5	/experiments/Knapen_AOT/AOT_stimuli/rescaled_final/2147_fw.mp4	0.0	297.9956908226013	
65	282.4237973690033	pulse	1	t		63.0	2.5	/experiments/Knapen_AOT/AOT_stimuli/rescaled_final/2147_fw.mp4	0.0	299.5941433906555	
65	282.9421989917755	fix_post	2		12	63.0	2.5	/experiments/Knapen_AOT/AOT_stimuli/rescaled_final/2147_fw.mp4	0.0	300.11254501342773	0.10009360313415527
66	283.04229259490967	fix_pre	0		119	64.0	2.5	/experiments/Knapen_AOT/AOT_stimuli/rescaled_final/1954_fw.mp4	0.0	300.2126386165619	1.0000474452972412
66	284.0259599685669	pulse	0	t		64.0	2.5	/experiments/Knapen_AOT/AOT_stimuli/rescaled_final/1954_fw.mp4	0.0	301.1963059902191	
66	284.0423400402069	movie	1		289	64.0	2.5	/experiments/Knapen_AOT/AOT_stimuli/rescaled_final/1954_fw.mp4	0.0	301.21268606185913	2.5003650188446045
66	285.6247022151947	pulse	1	t		64.0	2.5	/experiments/Knapen_AOT/AOT_stimuli/rescaled_final/1954_fw.mp4	0.0	302.7950482368469	
66	286.5427050590515	fix_post	2		12	64.0	2.5	/experiments/Knapen_AOT/AOT_stimuli/rescaled_final/1954_fw.mp4	0.0	303.71305108070374	0.10001397132873535
67	286.64271903038025	fix_pre	0		120	65.0	2.5	/experiments/Knapen_AOT/AOT_stimuli/rescaled_final/2048_fw.mp4	0.0	303.81306505203247	1.008547306060791
67	287.22653913497925	pulse	0	t		65.0	2.5	/experiments/Knapen_AOT/AOT_stimuli/rescaled_final/2048_fw.mp4	0.0	304.39688515663147	
67	287.65126633644104	movie	1		277	65.0	2.5	/experiments/Knapen_AOT/AOT_stimuli/rescaled_final/2048_fw.mp4	0.0	304.82161235809326	2.4919793605804443
67	288.8247854709625	pulse	1	t		65.0	2.5	/experiments/Knapen_AOT/AOT_stimuli/rescaled_final/2048_fw.mp4	0.0	305.99513149261475	
67	290.1432456970215	fix_post	2		12	65.0	2.5	/experiments/Knapen_AOT/AOT_stimuli/rescaled_final/2048_fw.mp4	0.0	307.3135917186737	0.09998440742492676
68	290.2432301044464	fix_pre	0		120	66.0	2.5	/experiments/Knapen_AOT/AOT_stimuli/rescaled_final/1136_rv.mp4	0.0	307.41357612609863	1.0085437297821045
68	290.4193286895752	pulse	0	t		66.0	2.5	/experiments/Knapen_AOT/AOT_stimuli/rescaled_final/1136_rv.mp4	0.0	307.5896747112274	
68	291.2517738342285	movie	1		276	66.0	2.5	/experiments/Knapen_AOT/AOT_stimuli/rescaled_final/1136_rv.mp4	0.0	308.42211985588074	2.4921715259552
68	292.0191376209259	pulse	1	t		66.0	2.5	/experiments/Knapen_AOT/AOT_stimuli/rescaled_final/1136_rv.mp4	0.0	309.1894836425781	
68	293.6192319393158	pulse	1	t		66.0	2.5	/experiments/Knapen_AOT/AOT_stimuli/rescaled_final/1136_rv.mp4	0.0	310.789577960968	
68	293.7439453601837	fix_post	2		12	66.0	2.5	/experiments/Knapen_AOT/AOT_stimuli/rescaled_final/1136_rv.mp4	0.0	310.91429138183594	0.09985089302062988
69	293.84379625320435	fix_pre	0		120	67.0	2.5	/experiments/Knapen_AOT/AOT_stimuli/rescaled_final/0524_rv.mp4	0.0	311.01414227485657	1.008516550064087
69	294.85231280326843	movie	1		273	67.0	2.5	/experiments/Knapen_AOT/AOT_stimuli/rescaled_final/0524_rv.mp4	0.0	312.02265882492065	2.4920308589935303
69	295.2278804779053	pulse	1	t		67.0	2.5	/experiments/Knapen_AOT/AOT_stimuli/rescaled_final/0524_rv.mp4	0.0	312.3982264995575	
69	296.81955313682556	pulse	1	t		67.0	2.5	/experiments/Knapen_AOT/AOT_stimuli/rescaled_final/0524_rv.mp4	0.0	313.9898991584778	
69	297.34434366226196	fix_post	2		12	67.0	2.5	/experiments/Knapen_AOT/AOT_stimuli/rescaled_final/0524_rv.mp4	0.0	314.5146896839142	0.10000777244567871
70	297.44435143470764	fix_pre	0		118	68.0	2.5	/experiments/Knapen_AOT/AOT_stimuli/rescaled_final/0965_fw.mp4	0.0	314.61469745635986	0.9917891025543213
70	298.4197585582733	pulse	0	t		68.0	2.5	/experiments/Knapen_AOT/AOT_stimuli/rescaled_final/0965_fw.mp4	0.0	315.59010457992554	
70	298.43614053726196	movie	1		273	68.0	2.5	/experiments/Knapen_AOT/AOT_stimuli/rescaled_final/0965_fw.mp4	0.0	315.6064865589142	2.50040864944458
70	300.0192275047302	pulse	1	t		68.0	2.5	/experiments/Knapen_AOT/AOT_stimuli/rescaled_final/0965_fw.mp4	0.0	317.18957352638245	
70	300.93654918670654	fix_post	2		12	68.0	2.5	/experiments/Knapen_AOT/AOT_stimuli/rescaled_final/0965_fw.mp4	0.0	318.10689520835876	0.10000252723693848
71	301.0365517139435	fix_pre	0		120	69.0	2.5	/experiments/Knapen_AOT/AOT_stimuli/rescaled_final/1301_rv.mp4	0.0	318.2068977355957	1.008592128753662
71	301.6203489303589	pulse	0	t		69.0	2.5	/experiments/Knapen_AOT/AOT_stimuli/rescaled_final/1301_rv.mp4	0.0	318.7906949520111	
71	302.04514384269714	movie	1		277	69.0	2.5	/experiments/Knapen_AOT/AOT_stimuli/rescaled_final/1301_rv.mp4	0.0	319.21548986434937	2.4920780658721924
71	303.2208378314972	pulse	1	t		69.0	2.5	/experiments/Knapen_AOT/AOT_stimuli/rescaled_final/1301_rv.mp4	0.0	320.3911838531494	
71	304.53722190856934	fix_post	2		12	69.0	2.5	/experiments/Knapen_AOT/AOT_stimuli/rescaled_final/1301_rv.mp4	0.0	321.70756793022156	0.09987592697143555
72	304.63709783554077	fix_pre	0		120	70.0	2.5	blank	1.0	321.807443857193	1.000213384628296
72	304.82083439826965	pulse	0	t		70.0	2.5	blank	1.0	321.9911804199219	
72	305.63731122016907	movie	1		300	70.0	2.5	blank	1.0	322.8076572418213	2.5004003047943115
72	306.4210743904114	pulse	1	t		70.0	2.5	blank	1.0	323.5914204120636	
72	308.0212035179138	pulse	1	t		70.0	2.5	blank	1.0	325.19154953956604	
72	308.1377115249634	fix_post	2		12	70.0	2.5	blank	1.0	325.3080575466156	0.09992671012878418
73	308.23763823509216	fix_pre	0		120	71.0	2.5	/experiments/Knapen_AOT/AOT_stimuli/rescaled_final/1171_fw.mp4	0.0	325.4079842567444	1.0085294246673584
73	309.2461676597595	movie	1		281	71.0	2.5	/experiments/Knapen_AOT/AOT_stimuli/rescaled_final/1171_fw.mp4	0.0	326.41651368141174	2.4920198917388916
73	309.62020206451416	pulse	1	t		71.0	2.5	/experiments/Knapen_AOT/AOT_stimuli/rescaled_final/1171_fw.mp4	0.0	326.7905480861664	
73	311.2197299003601	pulse	1	t		71.0	2.5	/experiments/Knapen_AOT/AOT_stimuli/rescaled_final/1171_fw.mp4	0.0	328.39007592201233	
73	311.7381875514984	fix_post	2		12	71.0	2.5	/experiments/Knapen_AOT/AOT_stimuli/rescaled_final/1171_fw.mp4	0.0	328.90853357315063	0.10001516342163086
74	311.83820271492004	fix_pre	0		119	72.0	2.5	/experiments/Knapen_AOT/AOT_stimuli/rescaled_final/1261_rv.mp4	0.0	329.00854873657227	1.0001370906829834
74	312.82203006744385	pulse	0	t		72.0	2.5	/experiments/Knapen_AOT/AOT_stimuli/rescaled_final/1261_rv.mp4	0.0	329.99237608909607	
74	312.838339805603	movie	1		286	72.0	2.5	/experiments/Knapen_AOT/AOT_stimuli/rescaled_final/1261_rv.mp4	0.0	330.00868582725525	2.5003812313079834
74	314.4209921360016	pulse	1	t		72.0	2.5	/experiments/Knapen_AOT/AOT_stimuli/rescaled_final/1261_rv.mp4	0.0	331.5913381576538	
74	315.338721036911	fix_post	2		12	72.0	2.5	/experiments/Knapen_AOT/AOT_stimuli/rescaled_final/1261_rv.mp4	0.0	332.50906705856323	0.10001158714294434
75	315.43873262405396	fix_pre	0		120	73.0	2.5	/experiments/Knapen_AOT/AOT_stimuli/rescaled_final/0197_fw.mp4	0.0	332.6090786457062	1.0084564685821533
75	316.02235555648804	pulse	0	t		73.0	2.5	/experiments/Knapen_AOT/AOT_stimuli/rescaled_final/0197_fw.mp4	0.0	333.19270157814026	
75	316.4471890926361	movie	1		280	73.0	2.5	/experiments/Knapen_AOT/AOT_stimuli/rescaled_final/0197_fw.mp4	0.0	333.61753511428833	2.492058515548706
75	317.6204514503479	pulse	1	t		73.0	2.5	/experiments/Knapen_AOT/AOT_stimuli/rescaled_final/0197_fw.mp4	0.0	334.7907974720001	
75	318.9392476081848	fix_post	2		12	73.0	2.5	/experiments/Knapen_AOT/AOT_stimuli/rescaled_final/0197_fw.mp4	0.0	336.10959362983704	0.10002279281616211
76	319.039270401001	fix_pre	0		120	74.0	2.5	/experiments/Knapen_AOT/AOT_stimuli/rescaled_final/0634_rv.mp4	0.0	336.2096164226532	1.0084927082061768
76	319.2227613925934	pulse	0	t		74.0	2.5	/experiments/Knapen_AOT/AOT_stimuli/rescaled_final/0634_rv.mp4	0.0	336.3931074142456	
76	320.04776310920715	movie	1		286	74.0	2.5	/experiments/Knapen_AOT/AOT_stimuli/rescaled_final/0634_rv.mp4	0.0	337.2181091308594	2.4920506477355957
76	320.82404685020447	pulse	1	t		74.0	2.5	/experiments/Knapen_AOT/AOT_stimuli/rescaled_final/0634_rv.mp4	0.0	337.9943928718567	
76	322.42136001586914	pulse	1	t		74.0	2.5	/experiments/Knapen_AOT/AOT_stimuli/rescaled_final/0634_rv.mp4	0.0	339.59170603752136	
76	322.53981375694275	fix_post	2		12	74.0	2.5	/experiments/Knapen_AOT/AOT_stimuli/rescaled_final/0634_rv.mp4	0.0	339.71015977859497	0.10002589225769043
77	322.63983964920044	fix_pre	0		120	75.0	2.5	/experiments/Knapen_AOT/AOT_stimuli/rescaled_final/0131_fw.mp4	0.0	339.81018567085266	1.0085148811340332
77	323.6483545303345	movie	1		272	75.0	2.5	/experiments/Knapen_AOT/AOT_stimuli/rescaled_final/0131_fw.mp4	0.0	340.8187005519867	2.4920108318328857
77	324.0245614051819	pulse	1	t		75.0	2.5	/experiments/Knapen_AOT/AOT_stimuli/rescaled_final/0131_fw.mp4	0.0	341.1949074268341	
77	325.62214255332947	pulse	1	t		75.0	2.5	/experiments/Knapen_AOT/AOT_stimuli/rescaled_final/0131_fw.mp4	0.0	342.7924885749817	
77	326.14036536216736	fix_post	2		12	75.0	2.5	/experiments/Knapen_AOT/AOT_stimuli/rescaled_final/0131_fw.mp4	0.0	343.3107113838196	0.10002017021179199
78	326.24038553237915	fix_pre	0		119	76.0	2.5	/experiments/Knapen_AOT/AOT_stimuli/rescaled_final/1900_rv.mp4	0.0	343.4107315540314	1.0002079010009766
78	327.2240355014801	pulse	0	t		76.0	2.5	/experiments/Knapen_AOT/AOT_stimuli/rescaled_final/1900_rv.mp4	0.0	344.3943815231323	
78	327.2405934333801	movie	1		291	76.0	2.5	/experiments/Knapen_AOT/AOT_stimuli/rescaled_final/1900_rv.mp4	0.0	344.41093945503235	2.5002903938293457
78	328.8241641521454	pulse	1	t		76.0	2.5	/experiments/Knapen_AOT/AOT_stimuli/rescaled_final/1900_rv.mp4	0.0	345.9945101737976	
78	329.7408838272095	fix_post	2		12	76.0	2.5	/experiments/Knapen_AOT/AOT_stimuli/rescaled_final/1900_rv.mp4	0.0	346.9112298488617	0.1000063419342041
79	329.8408901691437	fix_pre	0		120	77.0	2.5	blank	1.0	347.0112361907959	1.0001561641693115
79	330.424556016922	pulse	0	t		77.0	2.5	blank	1.0	347.5949020385742	
79	330.841046333313	movie	1		300	77.0	2.5	blank	1.0	348.0113923549652	2.5003879070281982
79	332.02492117881775	pulse	1	t		77.0	2.5	blank	1.0	349.19526720046997	
79	333.3414342403412	fix_post	2		12	77.0	2.5	blank	1.0	350.5117802619934	0.10003137588500977
80	333.4414656162262	fix_pre	0		120	78.0	2.5	/experiments/Knapen_AOT/AOT_stimuli/rescaled_final/0722_fw.mp4	0.0	350.6118116378784	1.008443832397461
80	333.6249575614929	pulse	0	t		78.0	2.5	/experiments/Knapen_AOT/AOT_stimuli/rescaled_final/0722_fw.mp4	0.0	350.79530358314514	
80	334.44990944862366	movie	1		273	78.0	2.5	/experiments/Knapen_AOT/AOT_stimuli/rescaled_final/0722_fw.mp4	0.0	351.6202554702759	2.492082357406616
80	335.22385001182556	pulse	1	t		78.0	2.5	/experiments/Knapen_AOT/AOT_stimuli/rescaled_final/0722_fw.mp4	0.0	352.3941960334778	
80	336.823762178421	pulse	1	t		78.0	2.5	/experiments/Knapen_AOT/AOT_stimuli/rescaled_final/0722_fw.mp4	0.0	353.99410820007324	
80	336.9419918060303	fix_post	2		12	78.0	2.5	/experiments/Knapen_AOT/AOT_stimuli/rescaled_final/0722_fw.mp4	0.0	354.1123378276825	0.09997987747192383
81	337.0419716835022	fix_pre	0		120	79.0	2.5	/experiments/Knapen_AOT/AOT_stimuli/rescaled_final/2147_rv.mp4	0.0	354.2123177051544	1.008512258529663
81	338.05048394203186	movie	1		262	79.0	2.5	/experiments/Knapen_AOT/AOT_stimuli/rescaled_final/2147_rv.mp4	0.0	355.2208299636841	2.492034673690796
81	338.4242789745331	pulse	1	t		79.0	2.5	/experiments/Knapen_AOT/AOT_stimuli/rescaled_final/2147_rv.mp4	0.0	355.5946249961853	
81	340.02678203582764	pulse	1	t		79.0	2.5	/experiments/Knapen_AOT/AOT_stimuli/rescaled_final/2147_rv.mp4	0.0	357.19712805747986	
81	340.54251861572266	fix_post	2		12	79.0	2.5	/experiments/Knapen_AOT/AOT_stimuli/rescaled_final/2147_rv.mp4	0.0	357.7128646373749	0.10002565383911133
82	340.64254426956177	fix_pre	0		119	80.0	2.5	/experiments/Knapen_AOT/AOT_stimuli/rescaled_final/0958_rv.mp4	0.0	357.812890291214	1.0085265636444092
82	341.62625312805176	pulse	0	t		80.0	2.5	/experiments/Knapen_AOT/AOT_stimuli/rescaled_final/0958_rv.mp4	0.0	358.796599149704	
82	341.6510708332062	movie	1		274	80.0	2.5	/experiments/Knapen_AOT/AOT_stimuli/rescaled_final/0958_rv.mp4	0.0	358.8214168548584	2.49196720123291
82	343.22601985931396	pulse	1	t		80.0	2.5	/experiments/Knapen_AOT/AOT_stimuli/rescaled_final/0958_rv.mp4	0.0	360.3963658809662	
82	344.1430380344391	fix_post	2		12	80.0	2.5	/experiments/Knapen_AOT/AOT_stimuli/rescaled_final/0958_rv.mp4	0.0	361.3133840560913	0.10002279281616211
83	344.24306082725525	fix_pre	0		120	81.0	2.5	/experiments/Knapen_AOT/AOT_stimuli/rescaled_final/0967_rv.mp4	0.0	361.41340684890747	1.0085036754608154
83	344.8270490169525	pulse	0	t		81.0	2.5	/experiments/Knapen_AOT/AOT_stimuli/rescaled_final/0967_rv.mp4	0.0	361.99739503860474	
83	345.25156450271606	movie	1		271	81.0	2.5	/experiments/Knapen_AOT/AOT_stimuli/rescaled_final/0967_rv.mp4	0.0	362.4219105243683	2.4920151233673096
83	346.4255633354187	pulse	1	t		81.0	2.5	/experiments/Knapen_AOT/AOT_stimuli/rescaled_final/0967_rv.mp4	0.0	363.5959093570709	
83	347.7435796260834	fix_post	2		12	81.0	2.5	/experiments/Knapen_AOT/AOT_stimuli/rescaled_final/0967_rv.mp4	0.0	364.9139256477356	0.10003852844238281
84	347.84361815452576	fix_pre	0		120	82.0	2.5	blank	1.0	365.013964176178	1.0001440048217773
84	348.0203266143799	pulse	0	t		82.0	2.5	blank	1.0	365.1906726360321	
84	348.84376215934753	movie	1		300	82.0	2.5	blank	1.0	366.01410818099976	2.5004465579986572
84	349.6193845272064	pulse	1	t		82.0	2.5	blank	1.0	366.78973054885864	
84	351.21937084198	pulse	1	t		82.0	2.5	blank	1.0	368.3897168636322	
84	351.3442087173462	fix_post	2		12	82.0	2.5	blank	1.0	368.5145547389984	0.09993600845336914
85	351.44414472579956	fix_pre	0		120	83.0	2.5	/experiments/Knapen_AOT/AOT_stimuli/rescaled_final/0558_rv.mp4	0.0	368.6144907474518	1.0084550380706787
85	352.45259976387024	movie	1		267	83.0	2.5	/experiments/Knapen_AOT/AOT_stimuli/rescaled_final/0558_rv.mp4	0.0	369.62294578552246	2.4920599460601807
85	352.8197355270386	pulse	1	t		83.0	2.5	/experiments/Knapen_AOT/AOT_stimuli/rescaled_final/0558_rv.mp4	0.0	369.9900815486908	
85	354.4199495315552	pulse	1	t		83.0	2.5	/experiments/Knapen_AOT/AOT_stimuli/rescaled_final/0558_rv.mp4	0.0	371.5902955532074	
85	354.9446597099304	fix_post	2		12	83.0	2.5	/experiments/Knapen_AOT/AOT_stimuli/rescaled_final/0558_rv.mp4	0.0	372.11500573158264	0.09998178482055664
87	355.044641494751	stim	0		1715					372.2149875164032	14.293902158737183
87	356.02000761032104	pulse	0	t						373.19035363197327	
87	357.62052631378174	pulse	0	t						374.79087233543396	
87	359.2208080291748	pulse	0	t						376.391154050827	
87	360.8210198879242	pulse	0	t						377.9913659095764	
87	362.42126989364624	pulse	0	t						379.59161591529846	
87	364.02173376083374	pulse	0	t						381.19207978248596	
87	365.62167143821716	pulse	0	t						382.7920174598694	
87	367.22194051742554	pulse	0	t						384.39228653907776	
87	368.82217478752136	pulse	0	t						385.9925208091736	
