trial_nr	onset	event_type	phase	response	nr_frames	movie_index	movie_duration	movie_file	blank	onset_abs	duration
0	0.2032930850982666	stim	0		1577					20.55740523338318	13.19360899925232
0	13.386941909790039	response	0	space						33.74105405807495	
1	13.396902084350586	stim	0		4677					33.7510142326355	39.00054383277893
1	52.3707480430603	pulse	0	t						72.72486019134521	
1	52.39744591712952	stim	1		1715					72.75155806541443	14.299072027206421
1	53.97058391571045	pulse	1	t						74.32469606399536	
1	55.570863008499146	pulse	1	t						75.92497515678406	
1	57.17106294631958	pulse	1	t						77.52517509460449	
1	58.77061104774475	pulse	1	t						79.12472319602966	
1	60.37071204185486	pulse	1	t						80.72482419013977	
1	61.97094392776489	pulse	1	t						82.3250560760498	
1	63.57116508483887	pulse	1	t						83.92527723312378	
1	65.17142009735107	pulse	1	t						85.52553224563599	
2	66.69651794433594	fix_pre	0		7	0.0	2.5	/experiments/knapen_AOT/AOT_stimuli/rescaled_final/0030_rv.mp4	0.0	87.05063009262085	0.10845112800598145
2	66.77166891098022	pulse	0	t		0.0	2.5	/experiments/knapen_AOT/AOT_stimuli/rescaled_final/0030_rv.mp4	0.0	87.12578105926514	
2	66.80496907234192	movie	1		188	0.0	2.5	/experiments/knapen_AOT/AOT_stimuli/rescaled_final/0030_rv.mp4	0.0	87.15908122062683	2.4838340282440186
2	68.3759560585022	pulse	1	t		0.0	2.5	/experiments/knapen_AOT/AOT_stimuli/rescaled_final/0030_rv.mp4	0.0	88.73006820678711	
2	69.28880310058594	fix_post	2		12	0.0	2.5	/experiments/knapen_AOT/AOT_stimuli/rescaled_final/0030_rv.mp4	0.0	89.64291524887085	0.09983181953430176
3	69.38863492012024	fix_pre	0		120	1.0	2.5	/experiments/knapen_AOT/AOT_stimuli/rescaled_final/0271_fw.mp4	0.0	89.74274706840515	1.0000970363616943
3	69.97215795516968	pulse	0	t		1.0	2.5	/experiments/knapen_AOT/AOT_stimuli/rescaled_final/0271_fw.mp4	0.0	90.32627010345459	
3	70.38873195648193	movie	1		219	1.0	2.5	/experiments/knapen_AOT/AOT_stimuli/rescaled_final/0271_fw.mp4	0.0	90.74284410476685	2.500369071960449
3	71.57251691818237	pulse	1	t		1.0	2.5	/experiments/knapen_AOT/AOT_stimuli/rescaled_final/0271_fw.mp4	0.0	91.92662906646729	
3	72.88910102844238	fix_post	2		12	1.0	2.5	/experiments/knapen_AOT/AOT_stimuli/rescaled_final/0271_fw.mp4	0.0	93.2432131767273	0.10001492500305176
4	72.98911595344543	fix_pre	0		120	2.0	2.5	/experiments/knapen_AOT/AOT_stimuli/rescaled_final/1454_fw.mp4	0.0	93.34322810173035	1.000162124633789
4	73.17281103134155	pulse	0	t		2.0	2.5	/experiments/knapen_AOT/AOT_stimuli/rescaled_final/1454_fw.mp4	0.0	93.52692317962646	
4	73.98927807807922	movie	1		225	2.0	2.5	/experiments/knapen_AOT/AOT_stimuli/rescaled_final/1454_fw.mp4	0.0	94.34339022636414	2.5005600452423096
4	74.773020029068	pulse	1	t		2.0	2.5	/experiments/knapen_AOT/AOT_stimuli/rescaled_final/1454_fw.mp4	0.0	95.1271321773529	
4	76.37314510345459	pulse	1	t		2.0	2.5	/experiments/knapen_AOT/AOT_stimuli/rescaled_final/1454_fw.mp4	0.0	96.7272572517395	
4	76.48983812332153	fix_post	2		12	2.0	2.5	/experiments/knapen_AOT/AOT_stimuli/rescaled_final/1454_fw.mp4	0.0	96.84395027160645	0.09979796409606934
5	76.5896360874176	fix_pre	0		120	3.0	2.5	/experiments/knapen_AOT/AOT_stimuli/rescaled_final/2067_fw.mp4	0.0	96.94374823570251	1.0002720355987549
5	77.58990812301636	movie	1		225	3.0	2.5	/experiments/knapen_AOT/AOT_stimuli/rescaled_final/2067_fw.mp4	0.0	97.94402027130127	2.5004749298095703
5	77.97463893890381	pulse	1	t		3.0	2.5	/experiments/knapen_AOT/AOT_stimuli/rescaled_final/2067_fw.mp4	0.0	98.32875108718872	
5	79.57379102706909	pulse	1	t		3.0	2.5	/experiments/knapen_AOT/AOT_stimuli/rescaled_final/2067_fw.mp4	0.0	99.927903175354	
5	80.09038305282593	fix_post	2		12	3.0	2.5	/experiments/knapen_AOT/AOT_stimuli/rescaled_final/2067_fw.mp4	0.0	100.44449520111084	0.0998380184173584
6	80.19022107124329	fix_pre	0		119	4.0	2.5	/experiments/knapen_AOT/AOT_stimuli/rescaled_final/0879_rv.mp4	0.0	100.5443332195282	0.9918010234832764
6	81.17397499084473	pulse	0	t		4.0	2.5	/experiments/knapen_AOT/AOT_stimuli/rescaled_final/0879_rv.mp4	0.0	101.52808713912964	
6	81.18202209472656	movie	1		218	4.0	2.5	/experiments/knapen_AOT/AOT_stimuli/rescaled_final/0879_rv.mp4	0.0	101.53613424301147	2.508699893951416
6	82.77546095848083	pulse	1	t		4.0	2.5	/experiments/knapen_AOT/AOT_stimuli/rescaled_final/0879_rv.mp4	0.0	103.12957310676575	
6	83.69072198867798	fix_post	2		12	4.0	2.5	/experiments/knapen_AOT/AOT_stimuli/rescaled_final/0879_rv.mp4	0.0	104.04483413696289	0.10010099411010742
7	83.79082298278809	fix_pre	0		120	5.0	2.5	blank	1.0	104.144935131073	1.000072956085205
7	84.37433695793152	pulse	0	t		5.0	2.5	blank	1.0	104.72844910621643	
7	84.79089593887329	movie	1		300	5.0	2.5	blank	1.0	105.1450080871582	2.5003890991210938
7	85.97472095489502	pulse	1	t		5.0	2.5	blank	1.0	106.32883310317993	
7	87.29128503799438	fix_post	2		12	5.0	2.5	blank	1.0	107.6453971862793	0.10002398490905762
8	87.39130902290344	fix_pre	0		120	6.0	2.5	/experiments/knapen_AOT/AOT_stimuli/rescaled_final/1942_rv.mp4	0.0	107.74542117118835	1.0001270771026611
8	87.5749580860138	pulse	0	t		6.0	2.5	/experiments/knapen_AOT/AOT_stimuli/rescaled_final/1942_rv.mp4	0.0	107.9290702342987	
8	88.3914361000061	movie	1		223	6.0	2.5	/experiments/knapen_AOT/AOT_stimuli/rescaled_final/1942_rv.mp4	0.0	108.74554824829102	2.5087859630584717
8	89.17508792877197	pulse	1	t		6.0	2.5	/experiments/knapen_AOT/AOT_stimuli/rescaled_final/1942_rv.mp4	0.0	109.52920007705688	
8	90.77521204948425	pulse	1	t		6.0	2.5	/experiments/knapen_AOT/AOT_stimuli/rescaled_final/1942_rv.mp4	0.0	111.12932419776917	
8	90.90022206306458	fix_post	2		11	6.0	2.5	/experiments/knapen_AOT/AOT_stimuli/rescaled_final/1942_rv.mp4	0.0	111.25433421134949	0.0916450023651123
9	90.99186706542969	fix_pre	0		120	7.0	2.5	/experiments/knapen_AOT/AOT_stimuli/rescaled_final/2164_rv.mp4	0.0	111.3459792137146	1.0001189708709717
9	91.99198603630066	movie	1		216	7.0	2.5	/experiments/knapen_AOT/AOT_stimuli/rescaled_final/2164_rv.mp4	0.0	112.34609818458557	2.508915901184082
9	92.376944065094	pulse	1	t		7.0	2.5	/experiments/knapen_AOT/AOT_stimuli/rescaled_final/2164_rv.mp4	0.0	112.7310562133789	
9	93.9758460521698	pulse	1	t		7.0	2.5	/experiments/knapen_AOT/AOT_stimuli/rescaled_final/2164_rv.mp4	0.0	114.32995820045471	
9	94.50090193748474	fix_post	2		10	7.0	2.5	/experiments/knapen_AOT/AOT_stimuli/rescaled_final/2164_rv.mp4	0.0	114.85501408576965	0.08309817314147949
10	94.58400011062622	fix_pre	0		120	8.0	2.5	/experiments/knapen_AOT/AOT_stimuli/rescaled_final/0245_fw.mp4	0.0	114.93811225891113	1.0001869201660156
10	95.57602190971375	pulse	0	t		8.0	2.5	/experiments/knapen_AOT/AOT_stimuli/rescaled_final/0245_fw.mp4	0.0	115.93013405799866	
10	95.58418703079224	movie	1		226	8.0	2.5	/experiments/knapen_AOT/AOT_stimuli/rescaled_final/0245_fw.mp4	0.0	115.93829917907715	2.508744955062866
10	97.17680096626282	pulse	1	t		8.0	2.5	/experiments/knapen_AOT/AOT_stimuli/rescaled_final/0245_fw.mp4	0.0	117.53091311454773	
10	98.0929319858551	fix_post	2		12	8.0	2.5	/experiments/knapen_AOT/AOT_stimuli/rescaled_final/0245_fw.mp4	0.0	118.44704413414001	0.09995913505554199
11	98.19289112091064	fix_pre	0		120	9.0	2.5	/experiments/knapen_AOT/AOT_stimuli/rescaled_final/1680_rv.mp4	0.0	118.54700326919556	1.000147819519043
11	98.77655506134033	pulse	0	t		9.0	2.5	/experiments/knapen_AOT/AOT_stimuli/rescaled_final/1680_rv.mp4	0.0	119.13066720962524	
11	99.19303894042969	movie	1		217	9.0	2.5	/experiments/knapen_AOT/AOT_stimuli/rescaled_final/1680_rv.mp4	0.0	119.5471510887146	2.5088369846343994
11	100.3768150806427	pulse	1	t		9.0	2.5	/experiments/knapen_AOT/AOT_stimuli/rescaled_final/1680_rv.mp4	0.0	120.73092722892761	
11	101.70187592506409	fix_post	2		11	9.0	2.5	/experiments/knapen_AOT/AOT_stimuli/rescaled_final/1680_rv.mp4	0.0	122.055988073349	0.09160017967224121
12	101.79347610473633	fix_pre	0		120	10.0	2.5	/experiments/knapen_AOT/AOT_stimuli/rescaled_final/0550_fw.mp4	0.0	122.14758825302124	1.0001258850097656
12	101.97738695144653	pulse	0	t		10.0	2.5	/experiments/knapen_AOT/AOT_stimuli/rescaled_final/0550_fw.mp4	0.0	122.33149909973145	
12	102.7936019897461	movie	1		215	10.0	2.5	/experiments/knapen_AOT/AOT_stimuli/rescaled_final/0550_fw.mp4	0.0	123.147714138031	2.500343084335327
12	103.56992506980896	pulse	1	t		10.0	2.5	/experiments/knapen_AOT/AOT_stimuli/rescaled_final/0550_fw.mp4	0.0	123.92403721809387	
12	105.17767405509949	pulse	1	t		10.0	2.5	/experiments/knapen_AOT/AOT_stimuli/rescaled_final/0550_fw.mp4	0.0	125.5317862033844	
12	105.29394507408142	fix_post	2		12	10.0	2.5	/experiments/knapen_AOT/AOT_stimuli/rescaled_final/0550_fw.mp4	0.0	125.64805722236633	0.10002994537353516
13	105.39397501945496	fix_pre	0		119	11.0	2.5	/experiments/knapen_AOT/AOT_stimuli/rescaled_final/1350_rv.mp4	0.0	125.74808716773987	0.9918489456176758
13	106.38582396507263	movie	1		218	11.0	2.5	/experiments/knapen_AOT/AOT_stimuli/rescaled_final/1350_rv.mp4	0.0	126.73993611335754	2.500447988510132
13	106.77080392837524	pulse	1	t		11.0	2.5	/experiments/knapen_AOT/AOT_stimuli/rescaled_final/1350_rv.mp4	0.0	127.12491607666016	
13	108.37059903144836	pulse	1	t		11.0	2.5	/experiments/knapen_AOT/AOT_stimuli/rescaled_final/1350_rv.mp4	0.0	128.72471117973328	
13	108.88627195358276	fix_post	2		12	11.0	2.5	/experiments/knapen_AOT/AOT_stimuli/rescaled_final/1350_rv.mp4	0.0	129.24038410186768	0.09988117218017578
14	108.98615312576294	fix_pre	0		120	12.0	2.5	/experiments/knapen_AOT/AOT_stimuli/rescaled_final/1909_rv.mp4	0.0	129.34026527404785	1.0001909732818604
14	109.97069191932678	pulse	0	t		12.0	2.5	/experiments/knapen_AOT/AOT_stimuli/rescaled_final/1909_rv.mp4	0.0	130.3248040676117	
14	109.9863440990448	movie	1		220	12.0	2.5	/experiments/knapen_AOT/AOT_stimuli/rescaled_final/1909_rv.mp4	0.0	130.3404562473297	2.508687973022461
14	111.57881712913513	pulse	1	t		12.0	2.5	/experiments/knapen_AOT/AOT_stimuli/rescaled_final/1909_rv.mp4	0.0	131.93292927742004	
14	112.49503207206726	fix_post	2		12	12.0	2.5	/experiments/knapen_AOT/AOT_stimuli/rescaled_final/1909_rv.mp4	0.0	132.84914422035217	0.09999990463256836
15	112.59503197669983	fix_pre	0		120	13.0	2.5	blank	1.0	132.94914412498474	1.0001599788665771
15	113.17392992973328	pulse	0	t		13.0	2.5	blank	1.0	133.5280420780182	
15	113.5951919555664	movie	1		300	13.0	2.5	blank	1.0	133.94930410385132	2.500375986099243
15	114.77052402496338	pulse	1	t		13.0	2.5	blank	1.0	135.1246361732483	
15	116.09556794166565	fix_post	2		12	13.0	2.5	blank	1.0	136.44968008995056	0.10007214546203613
16	116.19564008712769	fix_pre	0		120	14.0	2.5	/experiments/knapen_AOT/AOT_stimuli/rescaled_final/0239_rv.mp4	0.0	136.5497522354126	1.0001349449157715
16	116.37094306945801	pulse	0	t		14.0	2.5	/experiments/knapen_AOT/AOT_stimuli/rescaled_final/0239_rv.mp4	0.0	136.72505521774292	
16	117.19577503204346	movie	1		218	14.0	2.5	/experiments/knapen_AOT/AOT_stimuli/rescaled_final/0239_rv.mp4	0.0	137.54988718032837	2.492202043533325
16	117.97109293937683	pulse	1	t		14.0	2.5	/experiments/knapen_AOT/AOT_stimuli/rescaled_final/0239_rv.mp4	0.0	138.32520508766174	
16	119.57123804092407	pulse	1	t		14.0	2.5	/experiments/knapen_AOT/AOT_stimuli/rescaled_final/0239_rv.mp4	0.0	139.92535018920898	
16	119.68797707557678	fix_post	2		12	14.0	2.5	/experiments/knapen_AOT/AOT_stimuli/rescaled_final/0239_rv.mp4	0.0	140.0420892238617	0.0997929573059082
17	119.78777003288269	fix_pre	0		120	15.0	2.5	/experiments/knapen_AOT/AOT_stimuli/rescaled_final/0127_fw.mp4	0.0	140.1418821811676	1.0001521110534668
17	120.78792214393616	movie	1		214	15.0	2.5	/experiments/knapen_AOT/AOT_stimuli/rescaled_final/0127_fw.mp4	0.0	141.14203429222107	2.517197847366333
17	121.19224905967712	pulse	1	t		15.0	2.5	/experiments/knapen_AOT/AOT_stimuli/rescaled_final/0127_fw.mp4	0.0	141.54636120796204	
17	122.77179193496704	pulse	1	t		15.0	2.5	/experiments/knapen_AOT/AOT_stimuli/rescaled_final/0127_fw.mp4	0.0	143.12590408325195	
17	123.30511999130249	fix_post	2		10	15.0	2.5	/experiments/knapen_AOT/AOT_stimuli/rescaled_final/0127_fw.mp4	0.0	143.6592321395874	0.08318901062011719
18	123.38830900192261	fix_pre	0		119	16.0	2.5	/experiments/knapen_AOT/AOT_stimuli/rescaled_final/1168_fw.mp4	0.0	143.74242115020752	0.9919230937957764
18	124.37205100059509	pulse	0	t		16.0	2.5	/experiments/knapen_AOT/AOT_stimuli/rescaled_final/1168_fw.mp4	0.0	144.72616314888	
18	124.38023209571838	movie	1		219	16.0	2.5	/experiments/knapen_AOT/AOT_stimuli/rescaled_final/1168_fw.mp4	0.0	144.7343442440033	2.508636951446533
18	125.9767689704895	pulse	1	t		16.0	2.5	/experiments/knapen_AOT/AOT_stimuli/rescaled_final/1168_fw.mp4	0.0	146.3308811187744	
18	126.88886904716492	fix_post	2		12	16.0	2.5	/experiments/knapen_AOT/AOT_stimuli/rescaled_final/1168_fw.mp4	0.0	147.24298119544983	0.09999799728393555
19	126.98886704444885	fix_pre	0		120	17.0	2.5	/experiments/knapen_AOT/AOT_stimuli/rescaled_final/1524_rv.mp4	0.0	147.34297919273376	1.0001819133758545
19	127.57253313064575	pulse	0	t		17.0	2.5	/experiments/knapen_AOT/AOT_stimuli/rescaled_final/1524_rv.mp4	0.0	147.92664527893066	
19	127.9890489578247	movie	1		215	17.0	2.5	/experiments/knapen_AOT/AOT_stimuli/rescaled_final/1524_rv.mp4	0.0	148.34316110610962	2.5087239742279053
19	129.172837972641	pulse	1	t		17.0	2.5	/experiments/knapen_AOT/AOT_stimuli/rescaled_final/1524_rv.mp4	0.0	149.5269501209259	
19	130.4977729320526	fix_post	2		11	17.0	2.5	/experiments/knapen_AOT/AOT_stimuli/rescaled_final/1524_rv.mp4	0.0	150.85188508033752	0.09163618087768555
20	130.5894091129303	fix_pre	0		120	18.0	2.5	/experiments/knapen_AOT/AOT_stimuli/rescaled_final/1912_rv.mp4	0.0	150.9435212612152	1.000166893005371
20	130.77295112609863	pulse	0	t		18.0	2.5	/experiments/knapen_AOT/AOT_stimuli/rescaled_final/1912_rv.mp4	0.0	151.12706327438354	
20	131.58957600593567	movie	1		236	18.0	2.5	/experiments/knapen_AOT/AOT_stimuli/rescaled_final/1912_rv.mp4	0.0	151.94368815422058	2.5003340244293213
20	132.37320804595947	pulse	1	t		18.0	2.5	/experiments/knapen_AOT/AOT_stimuli/rescaled_final/1912_rv.mp4	0.0	152.72732019424438	
20	133.9736659526825	pulse	1	t		18.0	2.5	/experiments/knapen_AOT/AOT_stimuli/rescaled_final/1912_rv.mp4	0.0	154.3277781009674	
20	134.089910030365	fix_post	2		12	18.0	2.5	/experiments/knapen_AOT/AOT_stimuli/rescaled_final/1912_rv.mp4	0.0	154.4440221786499	0.10003089904785156
21	134.18994092941284	fix_pre	0		120	19.0	2.5	/experiments/knapen_AOT/AOT_stimuli/rescaled_final/1356_fw.mp4	0.0	154.54405307769775	1.0001420974731445
21	135.190083026886	movie	1		242	19.0	2.5	/experiments/knapen_AOT/AOT_stimuli/rescaled_final/1356_fw.mp4	0.0	155.5441951751709	2.4920310974121094
21	135.5742039680481	pulse	1	t		19.0	2.5	/experiments/knapen_AOT/AOT_stimuli/rescaled_final/1356_fw.mp4	0.0	155.928316116333	
21	137.17401814460754	pulse	1	t		19.0	2.5	/experiments/knapen_AOT/AOT_stimuli/rescaled_final/1356_fw.mp4	0.0	157.52813029289246	
21	137.6821141242981	fix_post	2		12	19.0	2.5	/experiments/knapen_AOT/AOT_stimuli/rescaled_final/1356_fw.mp4	0.0	158.036226272583	0.10003781318664551
22	137.78215193748474	fix_pre	0		120	20.0	2.5	/experiments/knapen_AOT/AOT_stimuli/rescaled_final/1896_fw.mp4	0.0	158.13626408576965	1.0002260208129883
22	138.77411007881165	pulse	0	t		20.0	2.5	/experiments/knapen_AOT/AOT_stimuli/rescaled_final/1896_fw.mp4	0.0	159.12822222709656	
22	138.78237795829773	movie	1		245	20.0	2.5	/experiments/knapen_AOT/AOT_stimuli/rescaled_final/1896_fw.mp4	0.0	159.13649010658264	2.5085861682891846
22	140.37526106834412	pulse	1	t		20.0	2.5	/experiments/knapen_AOT/AOT_stimuli/rescaled_final/1896_fw.mp4	0.0	160.72937321662903	
22	141.2909641265869	fix_post	2		12	20.0	2.5	/experiments/knapen_AOT/AOT_stimuli/rescaled_final/1896_fw.mp4	0.0	161.64507627487183	0.10003399848937988
23	141.3909981250763	fix_pre	0		120	21.0	2.5	blank	1.0	161.7451102733612	1.000257968902588
23	141.9746859073639	pulse	0	t		21.0	2.5	blank	1.0	162.3287980556488	
23	142.39125609397888	movie	1		300	21.0	2.5	blank	1.0	162.7453682422638	2.5002779960632324
23	143.57488012313843	pulse	1	t		21.0	2.5	blank	1.0	163.92899227142334	
23	144.89153409004211	fix_post	2		12	21.0	2.5	blank	1.0	165.24564623832703	0.10002398490905762
24	144.99155807495117	fix_pre	0		120	22.0	2.5	/experiments/knapen_AOT/AOT_stimuli/rescaled_final/1343_fw.mp4	0.0	165.34567022323608	1.0002360343933105
24	145.1751310825348	pulse	0	t		22.0	2.5	/experiments/knapen_AOT/AOT_stimuli/rescaled_final/1343_fw.mp4	0.0	165.5292432308197	
24	145.99179410934448	movie	1		243	22.0	2.5	/experiments/knapen_AOT/AOT_stimuli/rescaled_final/1343_fw.mp4	0.0	166.3459062576294	2.5002620220184326
24	146.77541303634644	pulse	1	t		22.0	2.5	/experiments/knapen_AOT/AOT_stimuli/rescaled_final/1343_fw.mp4	0.0	167.12952518463135	
24	148.37545204162598	pulse	1	t		22.0	2.5	/experiments/knapen_AOT/AOT_stimuli/rescaled_final/1343_fw.mp4	0.0	168.7295641899109	
24	148.49205613136292	fix_post	2		12	22.0	2.5	/experiments/knapen_AOT/AOT_stimuli/rescaled_final/1343_fw.mp4	0.0	168.84616827964783	0.10001897811889648
25	148.5920751094818	fix_pre	0		120	23.0	2.5	/experiments/knapen_AOT/AOT_stimuli/rescaled_final/0550_rv.mp4	0.0	168.94618725776672	1.000168800354004
25	149.59224390983582	movie	1		245	23.0	2.5	/experiments/knapen_AOT/AOT_stimuli/rescaled_final/0550_rv.mp4	0.0	169.94635605812073	2.492018222808838
25	149.97663593292236	pulse	1	t		23.0	2.5	/experiments/knapen_AOT/AOT_stimuli/rescaled_final/0550_rv.mp4	0.0	170.33074808120728	
25	151.57617807388306	pulse	1	t		23.0	2.5	/experiments/knapen_AOT/AOT_stimuli/rescaled_final/0550_rv.mp4	0.0	171.93029022216797	
25	152.08426213264465	fix_post	2		12	23.0	2.5	/experiments/knapen_AOT/AOT_stimuli/rescaled_final/0550_rv.mp4	0.0	172.43837428092957	0.10003399848937988
26	152.18429613113403	fix_pre	0		120	24.0	2.5	/experiments/knapen_AOT/AOT_stimuli/rescaled_final/0889_rv.mp4	0.0	172.53840827941895	1.0001699924468994
26	153.17626905441284	pulse	0	t		24.0	2.5	/experiments/knapen_AOT/AOT_stimuli/rescaled_final/0889_rv.mp4	0.0	173.53038120269775	
26	153.18446612358093	movie	1		243	24.0	2.5	/experiments/knapen_AOT/AOT_stimuli/rescaled_final/0889_rv.mp4	0.0	173.53857827186584	2.50875186920166
26	154.77693796157837	pulse	1	t		24.0	2.5	/experiments/knapen_AOT/AOT_stimuli/rescaled_final/0889_rv.mp4	0.0	175.13105010986328	
26	155.6932179927826	fix_post	2		12	24.0	2.5	/experiments/knapen_AOT/AOT_stimuli/rescaled_final/0889_rv.mp4	0.0	176.0473301410675	0.09996795654296875
27	155.79318594932556	fix_pre	0		120	25.0	2.5	/experiments/knapen_AOT/AOT_stimuli/rescaled_final/0918_rv.mp4	0.0	176.14729809761047	1.0001380443572998
27	156.37684106826782	pulse	0	t		25.0	2.5	/experiments/knapen_AOT/AOT_stimuli/rescaled_final/0918_rv.mp4	0.0	176.73095321655273	
27	156.79332399368286	movie	1		243	25.0	2.5	/experiments/knapen_AOT/AOT_stimuli/rescaled_final/0918_rv.mp4	0.0	177.14743614196777	2.500347137451172
27	157.9771010875702	pulse	1	t		25.0	2.5	/experiments/knapen_AOT/AOT_stimuli/rescaled_final/0918_rv.mp4	0.0	178.3312132358551	
27	159.29367113113403	fix_post	2		12	25.0	2.5	/experiments/knapen_AOT/AOT_stimuli/rescaled_final/0918_rv.mp4	0.0	179.64778327941895	0.10001087188720703
28	159.39368200302124	fix_pre	0		120	26.0	2.5	/experiments/knapen_AOT/AOT_stimuli/rescaled_final/1368_fw.mp4	0.0	179.74779415130615	1.0001840591430664
28	159.57718801498413	pulse	0	t		26.0	2.5	/experiments/knapen_AOT/AOT_stimuli/rescaled_final/1368_fw.mp4	0.0	179.93130016326904	
28	160.3938660621643	movie	1		242	26.0	2.5	/experiments/knapen_AOT/AOT_stimuli/rescaled_final/1368_fw.mp4	0.0	180.74797821044922	2.5005550384521484
28	161.17752599716187	pulse	1	t		26.0	2.5	/experiments/knapen_AOT/AOT_stimuli/rescaled_final/1368_fw.mp4	0.0	181.53163814544678	
28	162.77832412719727	pulse	1	t		26.0	2.5	/experiments/knapen_AOT/AOT_stimuli/rescaled_final/1368_fw.mp4	0.0	183.13243627548218	
28	162.89442110061646	fix_post	2		12	26.0	2.5	/experiments/knapen_AOT/AOT_stimuli/rescaled_final/1368_fw.mp4	0.0	183.24853324890137	0.09977197647094727
29	162.9941930770874	fix_pre	0		120	27.0	2.5	blank	1.0	183.34830522537231	1.0001959800720215
29	163.99438905715942	movie	1		299	27.0	2.5	blank	1.0	184.34850120544434	2.492058038711548
29	164.3779890537262	pulse	1	t		27.0	2.5	blank	1.0	184.7321012020111	
29	165.96988010406494	pulse	1	t		27.0	2.5	blank	1.0	186.32399225234985	
29	166.48644709587097	fix_post	2		12	27.0	2.5	blank	1.0	186.84055924415588	0.10000896453857422
30	166.58645606040955	fix_pre	0		119	28.0	2.5	/experiments/knapen_AOT/AOT_stimuli/rescaled_final/2031_rv.mp4	0.0	186.94056820869446	0.9918489456176758
30	167.57001209259033	pulse	0	t		28.0	2.5	/experiments/knapen_AOT/AOT_stimuli/rescaled_final/2031_rv.mp4	0.0	187.92412424087524	
30	167.57830500602722	movie	1		244	28.0	2.5	/experiments/knapen_AOT/AOT_stimuli/rescaled_final/2031_rv.mp4	0.0	187.93241715431213	2.508647918701172
30	169.17094898223877	pulse	1	t		28.0	2.5	/experiments/knapen_AOT/AOT_stimuli/rescaled_final/2031_rv.mp4	0.0	189.52506113052368	
30	170.0869529247284	fix_post	2		12	28.0	2.5	/experiments/knapen_AOT/AOT_stimuli/rescaled_final/2031_rv.mp4	0.0	190.4410650730133	0.10005807876586914
31	170.18701100349426	fix_pre	0		120	29.0	2.5	/experiments/knapen_AOT/AOT_stimuli/rescaled_final/0817_rv.mp4	0.0	190.54112315177917	1.000108003616333
31	170.77068209648132	pulse	0	t		29.0	2.5	/experiments/knapen_AOT/AOT_stimuli/rescaled_final/0817_rv.mp4	0.0	191.12479424476624	
31	171.1871190071106	movie	1		242	29.0	2.5	/experiments/knapen_AOT/AOT_stimuli/rescaled_final/0817_rv.mp4	0.0	191.5412311553955	2.5006089210510254
31	172.3709659576416	pulse	1	t		29.0	2.5	/experiments/knapen_AOT/AOT_stimuli/rescaled_final/0817_rv.mp4	0.0	192.7250781059265	
31	173.68772792816162	fix_post	2		12	29.0	2.5	/experiments/knapen_AOT/AOT_stimuli/rescaled_final/0817_rv.mp4	0.0	194.04184007644653	0.09980607032775879
32	173.78753399848938	fix_pre	0		120	30.0	2.5	/experiments/knapen_AOT/AOT_stimuli/rescaled_final/1284_rv.mp4	0.0	194.1416461467743	1.0001699924468994
32	173.97105503082275	pulse	0	t		30.0	2.5	/experiments/knapen_AOT/AOT_stimuli/rescaled_final/1284_rv.mp4	0.0	194.32516717910767	
32	174.78770399093628	movie	1		244	30.0	2.5	/experiments/knapen_AOT/AOT_stimuli/rescaled_final/1284_rv.mp4	0.0	195.1418161392212	2.500343084335327
32	175.571298122406	pulse	1	t		30.0	2.5	/experiments/knapen_AOT/AOT_stimuli/rescaled_final/1284_rv.mp4	0.0	195.92541027069092	
32	177.1714301109314	pulse	1	t		30.0	2.5	/experiments/knapen_AOT/AOT_stimuli/rescaled_final/1284_rv.mp4	0.0	197.5255422592163	
32	177.2880470752716	fix_post	2		12	30.0	2.5	/experiments/knapen_AOT/AOT_stimuli/rescaled_final/1284_rv.mp4	0.0	197.64215922355652	0.1000218391418457
33	177.38806891441345	fix_pre	0		119	31.0	2.5	/experiments/knapen_AOT/AOT_stimuli/rescaled_final/0873_rv.mp4	0.0	197.74218106269836	0.9917960166931152
33	178.37986493110657	movie	1		243	31.0	2.5	/experiments/knapen_AOT/AOT_stimuli/rescaled_final/0873_rv.mp4	0.0	198.73397707939148	2.500370979309082
33	178.77192902565002	pulse	1	t		31.0	2.5	/experiments/knapen_AOT/AOT_stimuli/rescaled_final/0873_rv.mp4	0.0	199.12604117393494	
33	180.3720419406891	pulse	1	t		31.0	2.5	/experiments/knapen_AOT/AOT_stimuli/rescaled_final/0873_rv.mp4	0.0	200.726154088974	
33	180.88023591041565	fix_post	2		12	31.0	2.5	/experiments/knapen_AOT/AOT_stimuli/rescaled_final/0873_rv.mp4	0.0	201.23434805870056	0.10000419616699219
34	180.98024010658264	fix_pre	0		120	32.0	2.5	/experiments/knapen_AOT/AOT_stimuli/rescaled_final/1168_rv.mp4	0.0	201.33435225486755	1.0002458095550537
34	181.97216892242432	pulse	0	t		32.0	2.5	/experiments/knapen_AOT/AOT_stimuli/rescaled_final/1168_rv.mp4	0.0	202.32628107070923	
34	181.9804859161377	movie	1		244	32.0	2.5	/experiments/knapen_AOT/AOT_stimuli/rescaled_final/1168_rv.mp4	0.0	202.3345980644226	2.508671998977661
34	183.5731041431427	pulse	1	t		32.0	2.5	/experiments/knapen_AOT/AOT_stimuli/rescaled_final/1168_rv.mp4	0.0	203.9272162914276	
34	184.48915791511536	fix_post	2		12	32.0	2.5	/experiments/knapen_AOT/AOT_stimuli/rescaled_final/1168_rv.mp4	0.0	204.84327006340027	0.09999799728393555
35	184.5891559123993	fix_pre	0		120	33.0	2.5	blank	1.0	204.9432680606842	1.0001552104949951
35	185.17281198501587	pulse	0	t		33.0	2.5	blank	1.0	205.52692413330078	
35	185.5893111228943	movie	1		300	33.0	2.5	blank	1.0	205.9434232711792	2.5003650188446045
35	186.7730700969696	pulse	1	t		33.0	2.5	blank	1.0	207.12718224525452	
35	188.0896761417389	fix_post	2		12	33.0	2.5	blank	1.0	208.4437882900238	0.10000777244567871
36	188.18968391418457	fix_pre	0		118	34.0	2.5	/experiments/knapen_AOT/AOT_stimuli/rescaled_final/0271_rv.mp4	0.0	208.54379606246948	1.0002751350402832
36	188.37312006950378	pulse	0	t		34.0	2.5	/experiments/knapen_AOT/AOT_stimuli/rescaled_final/0271_rv.mp4	0.0	208.7272322177887	
36	189.18995904922485	movie	1		242	34.0	2.5	/experiments/knapen_AOT/AOT_stimuli/rescaled_final/0271_rv.mp4	0.0	209.54407119750977	2.4920830726623535
36	189.97343802452087	pulse	1	t		34.0	2.5	/experiments/knapen_AOT/AOT_stimuli/rescaled_final/0271_rv.mp4	0.0	210.3275501728058	
36	191.57347893714905	pulse	1	t		34.0	2.5	/experiments/knapen_AOT/AOT_stimuli/rescaled_final/0271_rv.mp4	0.0	211.92759108543396	
36	191.6820421218872	fix_post	2		12	34.0	2.5	/experiments/knapen_AOT/AOT_stimuli/rescaled_final/0271_rv.mp4	0.0	212.03615427017212	0.099822998046875
37	191.78186511993408	fix_pre	0		120	35.0	2.5	/experiments/knapen_AOT/AOT_stimuli/rescaled_final/1785_rv.mp4	0.0	212.135977268219	1.0001919269561768
37	192.78205704689026	movie	1		243	35.0	2.5	/experiments/knapen_AOT/AOT_stimuli/rescaled_final/1785_rv.mp4	0.0	213.13616919517517	2.5005300045013428
37	193.17399406433105	pulse	1	t		35.0	2.5	/experiments/knapen_AOT/AOT_stimuli/rescaled_final/1785_rv.mp4	0.0	213.52810621261597	
37	194.77415704727173	pulse	1	t		35.0	2.5	/experiments/knapen_AOT/AOT_stimuli/rescaled_final/1785_rv.mp4	0.0	215.12826919555664	
37	195.2825870513916	fix_post	2		12	35.0	2.5	/experiments/knapen_AOT/AOT_stimuli/rescaled_final/1785_rv.mp4	0.0	215.6366991996765	0.09980607032775879
38	195.38239312171936	fix_pre	0		120	36.0	2.5	/experiments/knapen_AOT/AOT_stimuli/rescaled_final/0210_rv.mp4	0.0	215.73650527000427	1.0002808570861816
38	196.37450313568115	pulse	0	t		36.0	2.5	/experiments/knapen_AOT/AOT_stimuli/rescaled_final/0210_rv.mp4	0.0	216.72861528396606	
38	196.38267397880554	movie	1		244	36.0	2.5	/experiments/knapen_AOT/AOT_stimuli/rescaled_final/0210_rv.mp4	0.0	216.73678612709045	2.508620023727417
38	197.97501707077026	pulse	1	t		36.0	2.5	/experiments/knapen_AOT/AOT_stimuli/rescaled_final/0210_rv.mp4	0.0	218.32912921905518	
38	198.89129400253296	fix_post	2		12	36.0	2.5	/experiments/knapen_AOT/AOT_stimuli/rescaled_final/0210_rv.mp4	0.0	219.24540615081787	0.10009098052978516
39	198.99138498306274	fix_pre	0		120	37.0	2.5	/experiments/knapen_AOT/AOT_stimuli/rescaled_final/0674_fw.mp4	0.0	219.34549713134766	1.0000500679016113
39	199.57497191429138	pulse	0	t		37.0	2.5	/experiments/knapen_AOT/AOT_stimuli/rescaled_final/0674_fw.mp4	0.0	219.9290840625763	
39	199.99143505096436	movie	1		243	37.0	2.5	/experiments/knapen_AOT/AOT_stimuli/rescaled_final/0674_fw.mp4	0.0	220.34554719924927	2.500640869140625
39	201.17524194717407	pulse	1	t		37.0	2.5	/experiments/knapen_AOT/AOT_stimuli/rescaled_final/0674_fw.mp4	0.0	221.52935409545898	
39	202.49207592010498	fix_post	2		12	37.0	2.5	/experiments/knapen_AOT/AOT_stimuli/rescaled_final/0674_fw.mp4	0.0	222.8461880683899	0.09973406791687012
40	202.59180998802185	fix_pre	0		120	38.0	2.5	/experiments/knapen_AOT/AOT_stimuli/rescaled_final/0835_fw.mp4	0.0	222.94592213630676	1.0001521110534668
40	202.7752809524536	pulse	0	t		38.0	2.5	/experiments/knapen_AOT/AOT_stimuli/rescaled_final/0835_fw.mp4	0.0	223.12939310073853	
40	203.59196209907532	movie	1		244	38.0	2.5	/experiments/knapen_AOT/AOT_stimuli/rescaled_final/0835_fw.mp4	0.0	223.94607424736023	2.500389814376831
40	204.3756079673767	pulse	1	t		38.0	2.5	/experiments/knapen_AOT/AOT_stimuli/rescaled_final/0835_fw.mp4	0.0	224.72972011566162	
40	205.9758620262146	pulse	1	t		38.0	2.5	/experiments/knapen_AOT/AOT_stimuli/rescaled_final/0835_fw.mp4	0.0	226.3299741744995	
40	206.09235191345215	fix_post	2		12	38.0	2.5	/experiments/knapen_AOT/AOT_stimuli/rescaled_final/0835_fw.mp4	0.0	226.44646406173706	0.09998917579650879
41	206.19234108924866	fix_pre	0		120	39.0	2.5	/experiments/knapen_AOT/AOT_stimuli/rescaled_final/0208_rv.mp4	0.0	226.54645323753357	1.0002110004425049
41	207.19255208969116	movie	1		243	39.0	2.5	/experiments/knapen_AOT/AOT_stimuli/rescaled_final/0208_rv.mp4	0.0	227.54666423797607	2.4919629096984863
41	207.57657599449158	pulse	1	t		39.0	2.5	/experiments/knapen_AOT/AOT_stimuli/rescaled_final/0208_rv.mp4	0.0	227.9306881427765	
41	209.1762809753418	pulse	1	t		39.0	2.5	/experiments/knapen_AOT/AOT_stimuli/rescaled_final/0208_rv.mp4	0.0	229.5303931236267	
41	209.68451499938965	fix_post	2		12	39.0	2.5	/experiments/knapen_AOT/AOT_stimuli/rescaled_final/0208_rv.mp4	0.0	230.03862714767456	0.10002493858337402
42	209.78453993797302	fix_pre	0		120	40.0	2.5	/experiments/knapen_AOT/AOT_stimuli/rescaled_final/1579_rv.mp4	0.0	230.13865208625793	1.0002050399780273
42	210.77651405334473	pulse	0	t		40.0	2.5	/experiments/knapen_AOT/AOT_stimuli/rescaled_final/1579_rv.mp4	0.0	231.13062620162964	
42	210.78474497795105	movie	1		244	40.0	2.5	/experiments/knapen_AOT/AOT_stimuli/rescaled_final/1579_rv.mp4	0.0	231.13885712623596	2.5087039470672607
42	212.37764596939087	pulse	1	t		40.0	2.5	/experiments/knapen_AOT/AOT_stimuli/rescaled_final/1579_rv.mp4	0.0	232.73175811767578	
42	213.2934489250183	fix_post	2		12	40.0	2.5	/experiments/knapen_AOT/AOT_stimuli/rescaled_final/1579_rv.mp4	0.0	233.64756107330322	0.1000211238861084
43	213.39347004890442	fix_pre	0		120	41.0	2.5	blank	1.0	233.74758219718933	1.000108003616333
43	213.977126121521	pulse	0	t		41.0	2.5	blank	1.0	234.3312382698059	
43	214.39357805252075	movie	1		300	41.0	2.5	blank	1.0	234.74769020080566	2.5003950595855713
43	215.5772271156311	pulse	1	t		41.0	2.5	blank	1.0	235.93133926391602	
43	216.89397311210632	fix_post	2		12	41.0	2.5	blank	1.0	237.24808526039124	0.0999917984008789
44	216.9939649105072	fix_pre	0		120	42.0	2.5	/experiments/knapen_AOT/AOT_stimuli/rescaled_final/0442_fw.mp4	0.0	237.34807705879211	1.0001440048217773
44	217.17752504348755	pulse	0	t		42.0	2.5	/experiments/knapen_AOT/AOT_stimuli/rescaled_final/0442_fw.mp4	0.0	237.53163719177246	
44	217.99410891532898	movie	1		244	42.0	2.5	/experiments/knapen_AOT/AOT_stimuli/rescaled_final/0442_fw.mp4	0.0	238.3482210636139	2.500349998474121
44	218.77028799057007	pulse	1	t		42.0	2.5	/experiments/knapen_AOT/AOT_stimuli/rescaled_final/0442_fw.mp4	0.0	239.12440013885498	
44	220.37800312042236	pulse	1	t		42.0	2.5	/experiments/knapen_AOT/AOT_stimuli/rescaled_final/0442_fw.mp4	0.0	240.73211526870728	
44	220.4944589138031	fix_post	2		12	42.0	2.5	/experiments/knapen_AOT/AOT_stimuli/rescaled_final/0442_fw.mp4	0.0	240.848571062088	0.10003399848937988
45	220.59449291229248	fix_pre	0		119	43.0	2.5	/experiments/knapen_AOT/AOT_stimuli/rescaled_final/0581_fw.mp4	0.0	240.9486050605774	0.9918630123138428
45	221.58635592460632	movie	1		243	43.0	2.5	/experiments/knapen_AOT/AOT_stimuli/rescaled_final/0581_fw.mp4	0.0	241.94046807289124	2.5005061626434326
45	221.97444891929626	pulse	1	t		43.0	2.5	/experiments/knapen_AOT/AOT_stimuli/rescaled_final/0581_fw.mp4	0.0	242.32856106758118	
45	223.57100296020508	pulse	1	t		43.0	2.5	/experiments/knapen_AOT/AOT_stimuli/rescaled_final/0581_fw.mp4	0.0	243.92511510849	
45	224.08686208724976	fix_post	2		12	43.0	2.5	/experiments/knapen_AOT/AOT_stimuli/rescaled_final/0581_fw.mp4	0.0	244.44097423553467	0.09985995292663574
46	224.1867220401764	fix_pre	0		119	44.0	2.5	/experiments/knapen_AOT/AOT_stimuli/rescaled_final/0015_fw.mp4	0.0	244.5408341884613	0.9918010234832764
46	225.17046999931335	pulse	0	t		44.0	2.5	/experiments/knapen_AOT/AOT_stimuli/rescaled_final/0015_fw.mp4	0.0	245.52458214759827	
46	225.17852306365967	movie	1		244	44.0	2.5	/experiments/knapen_AOT/AOT_stimuli/rescaled_final/0015_fw.mp4	0.0	245.53263521194458	2.508754014968872
46	226.7712869644165	pulse	1	t		44.0	2.5	/experiments/knapen_AOT/AOT_stimuli/rescaled_final/0015_fw.mp4	0.0	247.12539911270142	
46	227.68727707862854	fix_post	2		12	44.0	2.5	/experiments/knapen_AOT/AOT_stimuli/rescaled_final/0015_fw.mp4	0.0	248.04138922691345	0.09999895095825195
47	227.7872760295868	fix_pre	0		120	45.0	2.5	/experiments/knapen_AOT/AOT_stimuli/rescaled_final/0063_fw.mp4	0.0	248.1413881778717	1.0001959800720215
47	228.37073802947998	pulse	0	t		45.0	2.5	/experiments/knapen_AOT/AOT_stimuli/rescaled_final/0063_fw.mp4	0.0	248.7248501777649	
47	228.7874720096588	movie	1		243	45.0	2.5	/experiments/knapen_AOT/AOT_stimuli/rescaled_final/0063_fw.mp4	0.0	249.14158415794373	2.500469923019409
47	229.97112894058228	pulse	1	t		45.0	2.5	/experiments/knapen_AOT/AOT_stimuli/rescaled_final/0063_fw.mp4	0.0	250.3252410888672	
47	231.28794193267822	fix_post	2		12	45.0	2.5	/experiments/knapen_AOT/AOT_stimuli/rescaled_final/0063_fw.mp4	0.0	251.64205408096313	0.09986615180969238
48	231.38780808448792	fix_pre	0		120	46.0	2.5	/experiments/knapen_AOT/AOT_stimuli/rescaled_final/2067_rv.mp4	0.0	251.74192023277283	1.000190019607544
48	231.57131600379944	pulse	0	t		46.0	2.5	/experiments/knapen_AOT/AOT_stimuli/rescaled_final/2067_rv.mp4	0.0	251.92542815208435	
48	232.38799810409546	movie	1		244	46.0	2.5	/experiments/knapen_AOT/AOT_stimuli/rescaled_final/2067_rv.mp4	0.0	252.74211025238037	2.5004069805145264
48	233.1715281009674	pulse	1	t		46.0	2.5	/experiments/knapen_AOT/AOT_stimuli/rescaled_final/2067_rv.mp4	0.0	253.52564024925232	
48	234.77201890945435	pulse	1	t		46.0	2.5	/experiments/knapen_AOT/AOT_stimuli/rescaled_final/2067_rv.mp4	0.0	255.12613105773926	
48	234.88840508460999	fix_post	2		12	46.0	2.5	/experiments/knapen_AOT/AOT_stimuli/rescaled_final/2067_rv.mp4	0.0	255.2425172328949	0.09997105598449707
49	234.98837614059448	fix_pre	0		120	47.0	2.5	blank	1.0	255.3424882888794	1.000175952911377
49	235.98855209350586	movie	1		299	47.0	2.5	blank	1.0	256.34266424179077	2.491957902908325
49	236.37198901176453	pulse	1	t		47.0	2.5	blank	1.0	256.72610116004944	
49	237.97219896316528	pulse	1	t		47.0	2.5	blank	1.0	258.3263111114502	
49	238.48050999641418	fix_post	2		12	47.0	2.5	blank	1.0	258.8346221446991	0.10009598731994629
50	238.58060598373413	fix_pre	0		120	48.0	2.5	/experiments/knapen_AOT/AOT_stimuli/rescaled_final/1798_fw.mp4	0.0	258.93471813201904	1.0000481605529785
50	239.5725860595703	pulse	0	t		48.0	2.5	/experiments/knapen_AOT/AOT_stimuli/rescaled_final/1798_fw.mp4	0.0	259.9266982078552	
50	239.5806541442871	movie	1		244	48.0	2.5	/experiments/knapen_AOT/AOT_stimuli/rescaled_final/1798_fw.mp4	0.0	259.934766292572	2.5088448524475098
50	241.17328095436096	pulse	1	t		48.0	2.5	/experiments/knapen_AOT/AOT_stimuli/rescaled_final/1798_fw.mp4	0.0	261.5273931026459	
50	242.08949899673462	fix_post	2		12	48.0	2.5	/experiments/knapen_AOT/AOT_stimuli/rescaled_final/1798_fw.mp4	0.0	262.44361114501953	0.09991693496704102
51	242.18941593170166	fix_pre	0		120	49.0	2.5	/experiments/knapen_AOT/AOT_stimuli/rescaled_final/1912_fw.mp4	0.0	262.5435280799866	1.0001840591430664
51	242.7729630470276	pulse	0	t		49.0	2.5	/experiments/knapen_AOT/AOT_stimuli/rescaled_final/1912_fw.mp4	0.0	263.1270751953125	
51	243.18959999084473	movie	1		245	49.0	2.5	/experiments/knapen_AOT/AOT_stimuli/rescaled_final/1912_fw.mp4	0.0	263.54371213912964	2.500288963317871
51	244.37326502799988	pulse	1	t		49.0	2.5	/experiments/knapen_AOT/AOT_stimuli/rescaled_final/1912_fw.mp4	0.0	264.7273771762848	
51	245.6898889541626	fix_post	2		12	49.0	2.5	/experiments/knapen_AOT/AOT_stimuli/rescaled_final/1912_fw.mp4	0.0	266.0440011024475	0.10003209114074707
52	245.78992104530334	fix_pre	0		120	50.0	2.5	/experiments/knapen_AOT/AOT_stimuli/rescaled_final/0476_rv.mp4	0.0	266.14403319358826	1.0001540184020996
52	245.97350692749023	pulse	0	t		50.0	2.5	/experiments/knapen_AOT/AOT_stimuli/rescaled_final/0476_rv.mp4	0.0	266.32761907577515	
52	246.79007506370544	movie	1		244	50.0	2.5	/experiments/knapen_AOT/AOT_stimuli/rescaled_final/0476_rv.mp4	0.0	267.14418721199036	2.5003609657287598
52	247.57381391525269	pulse	1	t		50.0	2.5	/experiments/knapen_AOT/AOT_stimuli/rescaled_final/0476_rv.mp4	0.0	267.9279260635376	
52	249.17389106750488	pulse	1	t		50.0	2.5	/experiments/knapen_AOT/AOT_stimuli/rescaled_final/0476_rv.mp4	0.0	269.5280032157898	
52	249.2904360294342	fix_post	2		12	50.0	2.5	/experiments/knapen_AOT/AOT_stimuli/rescaled_final/0476_rv.mp4	0.0	269.6445481777191	0.1000669002532959
53	249.3905029296875	fix_pre	0		120	51.0	2.5	/experiments/knapen_AOT/AOT_stimuli/rescaled_final/2107_fw.mp4	0.0	269.7446150779724	1.0001060962677002
53	250.3906090259552	movie	1		244	51.0	2.5	/experiments/knapen_AOT/AOT_stimuli/rescaled_final/2107_fw.mp4	0.0	270.7447211742401	2.4921000003814697
53	250.77471709251404	pulse	1	t		51.0	2.5	/experiments/knapen_AOT/AOT_stimuli/rescaled_final/2107_fw.mp4	0.0	271.12882924079895	
53	252.3745310306549	pulse	1	t		51.0	2.5	/experiments/knapen_AOT/AOT_stimuli/rescaled_final/2107_fw.mp4	0.0	272.7286431789398	
53	252.88270902633667	fix_post	2		12	51.0	2.5	/experiments/knapen_AOT/AOT_stimuli/rescaled_final/2107_fw.mp4	0.0	273.2368211746216	0.10010194778442383
54	252.9828109741211	fix_pre	0		120	52.0	2.5	/experiments/knapen_AOT/AOT_stimuli/rescaled_final/0918_fw.mp4	0.0	273.336923122406	1.0000090599060059
54	253.9747190475464	pulse	0	t		52.0	2.5	/experiments/knapen_AOT/AOT_stimuli/rescaled_final/0918_fw.mp4	0.0	274.3288311958313	
54	253.9828200340271	movie	1		244	52.0	2.5	/experiments/knapen_AOT/AOT_stimuli/rescaled_final/0918_fw.mp4	0.0	274.336932182312	2.5087010860443115
54	255.57533192634583	pulse	1	t		52.0	2.5	/experiments/knapen_AOT/AOT_stimuli/rescaled_final/0918_fw.mp4	0.0	275.92944407463074	
54	256.4915211200714	fix_post	2		12	52.0	2.5	/experiments/knapen_AOT/AOT_stimuli/rescaled_final/0918_fw.mp4	0.0	276.8456332683563	0.10005593299865723
55	256.59157705307007	fix_pre	0		120	53.0	2.5	/experiments/knapen_AOT/AOT_stimuli/rescaled_final/1849_rv.mp4	0.0	276.945689201355	1.0002069473266602
55	257.1751070022583	pulse	0	t		53.0	2.5	/experiments/knapen_AOT/AOT_stimuli/rescaled_final/1849_rv.mp4	0.0	277.5292191505432	
55	257.59178400039673	movie	1		243	53.0	2.5	/experiments/knapen_AOT/AOT_stimuli/rescaled_final/1849_rv.mp4	0.0	277.94589614868164	2.5002899169921875
55	258.7755410671234	pulse	1	t		53.0	2.5	/experiments/knapen_AOT/AOT_stimuli/rescaled_final/1849_rv.mp4	0.0	279.1296532154083	
55	260.0920739173889	fix_post	2		12	53.0	2.5	/experiments/knapen_AOT/AOT_stimuli/rescaled_final/1849_rv.mp4	0.0	280.4461860656738	0.09999513626098633
56	260.1920690536499	fix_pre	0		120	54.0	2.5	/experiments/knapen_AOT/AOT_stimuli/rescaled_final/1186_fw.mp4	0.0	280.5461812019348	1.000227928161621
56	260.3756980895996	pulse	0	t		54.0	2.5	/experiments/knapen_AOT/AOT_stimuli/rescaled_final/1186_fw.mp4	0.0	280.7298102378845	
56	261.1922969818115	movie	1		243	54.0	2.5	/experiments/knapen_AOT/AOT_stimuli/rescaled_final/1186_fw.mp4	0.0	281.54640913009644	2.50032901763916
56	261.9759159088135	pulse	1	t		54.0	2.5	/experiments/knapen_AOT/AOT_stimuli/rescaled_final/1186_fw.mp4	0.0	282.3300280570984	
56	263.57594299316406	pulse	1	t		54.0	2.5	/experiments/knapen_AOT/AOT_stimuli/rescaled_final/1186_fw.mp4	0.0	283.930055141449	
56	263.6926259994507	fix_post	2		12	54.0	2.5	/experiments/knapen_AOT/AOT_stimuli/rescaled_final/1186_fw.mp4	0.0	284.0467381477356	0.10001707077026367
57	263.79264307022095	fix_pre	0		120	55.0	2.5	blank	1.0	284.14675521850586	1.0001139640808105
57	264.79275703430176	movie	1		299	55.0	2.5	blank	1.0	285.14686918258667	2.4922029972076416
57	265.1763849258423	pulse	1	t		55.0	2.5	blank	1.0	285.5304970741272	
57	266.776654958725	pulse	1	t		55.0	2.5	blank	1.0	287.1307671070099	
57	267.2849600315094	fix_post	2		12	55.0	2.5	blank	1.0	287.6390721797943	0.0999150276184082
58	267.3848750591278	fix_pre	0		120	56.0	2.5	/experiments/knapen_AOT/AOT_stimuli/rescaled_final/1920_rv.mp4	0.0	287.7389872074127	1.0000929832458496
58	268.3769299983978	pulse	0	t		56.0	2.5	/experiments/knapen_AOT/AOT_stimuli/rescaled_final/1920_rv.mp4	0.0	288.73104214668274	
58	268.38496804237366	movie	1		244	56.0	2.5	/experiments/knapen_AOT/AOT_stimuli/rescaled_final/1920_rv.mp4	0.0	288.73908019065857	2.5088000297546387
58	269.977774143219	pulse	1	t		56.0	2.5	/experiments/knapen_AOT/AOT_stimuli/rescaled_final/1920_rv.mp4	0.0	290.3318862915039	
58	270.8937680721283	fix_post	2		12	56.0	2.5	/experiments/knapen_AOT/AOT_stimuli/rescaled_final/1920_rv.mp4	0.0	291.2478802204132	0.09992289543151855
59	270.9936909675598	fix_pre	0		120	57.0	2.5	/experiments/knapen_AOT/AOT_stimuli/rescaled_final/1703_rv.mp4	0.0	291.3478031158447	1.0001561641693115
59	271.5772590637207	pulse	0	t		57.0	2.5	/experiments/knapen_AOT/AOT_stimuli/rescaled_final/1703_rv.mp4	0.0	291.9313712120056	
59	271.9938471317291	movie	1		243	57.0	2.5	/experiments/knapen_AOT/AOT_stimuli/rescaled_final/1703_rv.mp4	0.0	292.34795928001404	2.5003559589385986
59	273.17766308784485	pulse	1	t		57.0	2.5	/experiments/knapen_AOT/AOT_stimuli/rescaled_final/1703_rv.mp4	0.0	293.53177523612976	
59	274.4942030906677	fix_post	2		12	57.0	2.5	/experiments/knapen_AOT/AOT_stimuli/rescaled_final/1703_rv.mp4	0.0	294.84831523895264	0.10001683235168457
60	274.5942199230194	fix_pre	0		120	58.0	2.5	/experiments/knapen_AOT/AOT_stimuli/rescaled_final/0239_rv.mp4	0.0	294.9483320713043	1.0001680850982666
60	274.77024006843567	pulse	0	t		58.0	2.5	/experiments/knapen_AOT/AOT_stimuli/rescaled_final/0239_rv.mp4	0.0	295.1243522167206	
60	275.5943880081177	movie	1		244	58.0	2.5	/experiments/knapen_AOT/AOT_stimuli/rescaled_final/0239_rv.mp4	0.0	295.9485001564026	2.500368118286133
60	276.37059593200684	pulse	1	t		58.0	2.5	/experiments/knapen_AOT/AOT_stimuli/rescaled_final/0239_rv.mp4	0.0	296.72470808029175	
60	277.9783329963684	pulse	1	t		58.0	2.5	/experiments/knapen_AOT/AOT_stimuli/rescaled_final/0239_rv.mp4	0.0	298.3324451446533	
60	278.0947561264038	fix_post	2		12	58.0	2.5	/experiments/knapen_AOT/AOT_stimuli/rescaled_final/0239_rv.mp4	0.0	298.4488682746887	0.09999990463256836
61	278.1947560310364	fix_pre	0		120	59.0	2.5	/experiments/knapen_AOT/AOT_stimuli/rescaled_final/0320_rv.mp4	0.0	298.5488681793213	1.0001850128173828
61	279.19494104385376	movie	1		243	59.0	2.5	/experiments/knapen_AOT/AOT_stimuli/rescaled_final/0320_rv.mp4	0.0	299.5490531921387	2.4919939041137695
61	279.57028007507324	pulse	1	t		59.0	2.5	/experiments/knapen_AOT/AOT_stimuli/rescaled_final/0320_rv.mp4	0.0	299.92439222335815	
61	281.1703670024872	pulse	1	t		59.0	2.5	/experiments/knapen_AOT/AOT_stimuli/rescaled_final/0320_rv.mp4	0.0	301.5244791507721	
61	281.68693494796753	fix_post	2		12	59.0	2.5	/experiments/knapen_AOT/AOT_stimuli/rescaled_final/0320_rv.mp4	0.0	302.04104709625244	0.09999203681945801
62	281.786926984787	fix_pre	0		119	60.0	2.5	/experiments/knapen_AOT/AOT_stimuli/rescaled_final/0558_rv.mp4	0.0	302.1410391330719	0.9918360710144043
62	282.7706079483032	pulse	0	t		60.0	2.5	/experiments/knapen_AOT/AOT_stimuli/rescaled_final/0558_rv.mp4	0.0	303.12472009658813	
62	282.7787630558014	movie	1		244	60.0	2.5	/experiments/knapen_AOT/AOT_stimuli/rescaled_final/0558_rv.mp4	0.0	303.1328752040863	2.5086889266967773
62	284.37160301208496	pulse	1	t		60.0	2.5	/experiments/knapen_AOT/AOT_stimuli/rescaled_final/0558_rv.mp4	0.0	304.7257151603699	
62	285.28745198249817	fix_post	2		12	60.0	2.5	/experiments/knapen_AOT/AOT_stimuli/rescaled_final/0558_rv.mp4	0.0	305.6415641307831	0.10003495216369629
63	285.38748693466187	fix_pre	0		120	61.0	2.5	/experiments/knapen_AOT/AOT_stimuli/rescaled_final/1658_rv.mp4	0.0	305.7415990829468	1.0001890659332275
63	285.9711720943451	pulse	0	t		61.0	2.5	/experiments/knapen_AOT/AOT_stimuli/rescaled_final/1658_rv.mp4	0.0	306.32528424263	
63	286.3876760005951	movie	1		244	61.0	2.5	/experiments/knapen_AOT/AOT_stimuli/rescaled_final/1658_rv.mp4	0.0	306.74178814888	2.5003480911254883
63	287.5713999271393	pulse	1	t		61.0	2.5	/experiments/knapen_AOT/AOT_stimuli/rescaled_final/1658_rv.mp4	0.0	307.9255120754242	
63	288.8880240917206	fix_post	2		12	61.0	2.5	/experiments/knapen_AOT/AOT_stimuli/rescaled_final/1658_rv.mp4	0.0	309.2421362400055	0.10001683235168457
64	288.98804092407227	fix_pre	0		120	62.0	2.5	blank	1.0	309.3421530723572	1.0001871585845947
64	289.17153310775757	pulse	0	t		62.0	2.5	blank	1.0	309.5256452560425	
64	289.98822808265686	movie	1		300	62.0	2.5	blank	1.0	310.3423402309418	2.5003340244293213
64	290.7717909812927	pulse	1	t		62.0	2.5	blank	1.0	311.12590312957764	
64	292.37207293510437	pulse	1	t		62.0	2.5	blank	1.0	312.7261850833893	
64	292.4885621070862	fix_post	2		12	62.0	2.5	blank	1.0	312.8426742553711	0.10005402565002441
65	292.5886161327362	fix_pre	0		120	63.0	2.5	/experiments/knapen_AOT/AOT_stimuli/rescaled_final/0768_fw.mp4	0.0	312.9427282810211	1.000108003616333
65	293.58872413635254	movie	1		244	63.0	2.5	/experiments/knapen_AOT/AOT_stimuli/rescaled_final/0768_fw.mp4	0.0	313.94283628463745	2.5003459453582764
65	293.97293400764465	pulse	1	t		63.0	2.5	/experiments/knapen_AOT/AOT_stimuli/rescaled_final/0768_fw.mp4	0.0	314.32704615592957	
65	295.5725750923157	pulse	1	t		63.0	2.5	/experiments/knapen_AOT/AOT_stimuli/rescaled_final/0768_fw.mp4	0.0	315.9266872406006	
65	296.0890700817108	fix_post	2		11	63.0	2.5	/experiments/knapen_AOT/AOT_stimuli/rescaled_final/0768_fw.mp4	0.0	316.4431822299957	0.09170103073120117
66	296.180771112442	fix_pre	0		120	64.0	2.5	/experiments/knapen_AOT/AOT_stimuli/rescaled_final/1680_rv.mp4	0.0	316.53488326072693	1.000168800354004
66	297.1727659702301	pulse	0	t		64.0	2.5	/experiments/knapen_AOT/AOT_stimuli/rescaled_final/1680_rv.mp4	0.0	317.526878118515	
66	297.180939912796	movie	1		243	64.0	2.5	/experiments/knapen_AOT/AOT_stimuli/rescaled_final/1680_rv.mp4	0.0	317.53505206108093	2.5086991786956787
66	298.77343797683716	pulse	1	t		64.0	2.5	/experiments/knapen_AOT/AOT_stimuli/rescaled_final/1680_rv.mp4	0.0	319.12755012512207	
66	299.6896390914917	fix_post	2		12	64.0	2.5	/experiments/knapen_AOT/AOT_stimuli/rescaled_final/1680_rv.mp4	0.0	320.0437512397766	0.10001182556152344
67	299.7896509170532	fix_pre	0		120	65.0	2.5	/experiments/knapen_AOT/AOT_stimuli/rescaled_final/1593_fw.mp4	0.0	320.14376306533813	1.0001780986785889
67	300.37322211265564	pulse	0	t		65.0	2.5	/experiments/knapen_AOT/AOT_stimuli/rescaled_final/1593_fw.mp4	0.0	320.72733426094055	
67	300.7898290157318	movie	1		243	65.0	2.5	/experiments/knapen_AOT/AOT_stimuli/rescaled_final/1593_fw.mp4	0.0	321.1439411640167	2.5003058910369873
67	301.97355699539185	pulse	1	t		65.0	2.5	/experiments/knapen_AOT/AOT_stimuli/rescaled_final/1593_fw.mp4	0.0	322.32766914367676	
67	303.2901349067688	fix_post	2		12	65.0	2.5	/experiments/knapen_AOT/AOT_stimuli/rescaled_final/1593_fw.mp4	0.0	323.6442470550537	0.10004305839538574
68	303.3901779651642	fix_pre	0		120	66.0	2.5	/experiments/knapen_AOT/AOT_stimuli/rescaled_final/0063_rv.mp4	0.0	323.7442901134491	1.0001380443572998
68	303.5737500190735	pulse	0	t		66.0	2.5	/experiments/knapen_AOT/AOT_stimuli/rescaled_final/0063_rv.mp4	0.0	323.9278621673584	
68	304.3903160095215	movie	1		243	66.0	2.5	/experiments/knapen_AOT/AOT_stimuli/rescaled_final/0063_rv.mp4	0.0	324.7444281578064	2.5004310607910156
68	305.17407393455505	pulse	1	t		66.0	2.5	/experiments/knapen_AOT/AOT_stimuli/rescaled_final/0063_rv.mp4	0.0	325.52818608283997	
68	306.77442693710327	pulse	1	t		66.0	2.5	/experiments/knapen_AOT/AOT_stimuli/rescaled_final/0063_rv.mp4	0.0	327.1285390853882	
68	306.8907470703125	fix_post	2		12	66.0	2.5	/experiments/knapen_AOT/AOT_stimuli/rescaled_final/0063_rv.mp4	0.0	327.2448592185974	0.09997391700744629
69	306.99072098731995	fix_pre	0		119	67.0	2.5	/experiments/knapen_AOT/AOT_stimuli/rescaled_final/1708_rv.mp4	0.0	327.34483313560486	0.9918251037597656
69	307.9825460910797	movie	1		246	67.0	2.5	/experiments/knapen_AOT/AOT_stimuli/rescaled_final/1708_rv.mp4	0.0	328.3366582393646	2.5003879070281982
69	308.3745629787445	pulse	1	t		67.0	2.5	/experiments/knapen_AOT/AOT_stimuli/rescaled_final/1708_rv.mp4	0.0	328.7286751270294	
69	309.9746730327606	pulse	1	t		67.0	2.5	/experiments/knapen_AOT/AOT_stimuli/rescaled_final/1708_rv.mp4	0.0	330.32878518104553	
69	310.4829339981079	fix_post	2		12	67.0	2.5	/experiments/knapen_AOT/AOT_stimuli/rescaled_final/1708_rv.mp4	0.0	330.8370461463928	0.10000395774841309
70	310.5829379558563	fix_pre	0		120	68.0	2.5	/experiments/knapen_AOT/AOT_stimuli/rescaled_final/1284_rv.mp4	0.0	330.93705010414124	1.000223159790039
70	311.57499408721924	pulse	0	t		68.0	2.5	/experiments/knapen_AOT/AOT_stimuli/rescaled_final/1284_rv.mp4	0.0	331.92910623550415	
70	311.58316111564636	movie	1		245	68.0	2.5	/experiments/knapen_AOT/AOT_stimuli/rescaled_final/1284_rv.mp4	0.0	331.9372732639313	2.5086348056793213
70	313.1757290363312	pulse	1	t		68.0	2.5	/experiments/knapen_AOT/AOT_stimuli/rescaled_final/1284_rv.mp4	0.0	333.5298411846161	
70	314.0917959213257	fix_post	2		12	68.0	2.5	/experiments/knapen_AOT/AOT_stimuli/rescaled_final/1284_rv.mp4	0.0	334.4459080696106	0.09999608993530273
71	314.191792011261	fix_pre	0		120	69.0	2.5	blank	1.0	334.5459041595459	1.0006320476531982
71	314.7755069732666	pulse	0	t		69.0	2.5	blank	1.0	335.1296191215515	
71	315.1924240589142	movie	1		297	69.0	2.5	blank	1.0	335.5465362071991	2.4999279975891113
71	316.37569093704224	pulse	1	t		69.0	2.5	blank	1.0	336.72980308532715	
71	317.6923520565033	fix_post	2		12	69.0	2.5	blank	1.0	338.0464642047882	0.10002994537353516
72	317.79238200187683	fix_pre	0		120	70.0	2.5	/experiments/knapen_AOT/AOT_stimuli/rescaled_final/0369_fw.mp4	0.0	338.14649415016174	1.0000951290130615
72	317.9759111404419	pulse	0	t		70.0	2.5	/experiments/knapen_AOT/AOT_stimuli/rescaled_final/0369_fw.mp4	0.0	338.3300232887268	
72	318.7924771308899	movie	1		244	70.0	2.5	/experiments/knapen_AOT/AOT_stimuli/rescaled_final/0369_fw.mp4	0.0	339.1465892791748	2.5003738403320312
72	319.5761671066284	pulse	1	t		70.0	2.5	/experiments/knapen_AOT/AOT_stimuli/rescaled_final/0369_fw.mp4	0.0	339.93027925491333	
72	321.1802010536194	pulse	1	t		70.0	2.5	/experiments/knapen_AOT/AOT_stimuli/rescaled_final/0369_fw.mp4	0.0	341.5343132019043	
72	321.2928509712219	fix_post	2		12	70.0	2.5	/experiments/knapen_AOT/AOT_stimuli/rescaled_final/0369_fw.mp4	0.0	341.64696311950684	0.10004305839538574
73	321.3928940296173	fix_pre	0		120	71.0	2.5	/experiments/knapen_AOT/AOT_stimuli/rescaled_final/1849_fw.mp4	0.0	341.7470061779022	1.0001630783081055
73	322.3930571079254	movie	1		242	71.0	2.5	/experiments/knapen_AOT/AOT_stimuli/rescaled_final/1849_fw.mp4	0.0	342.7471692562103	2.4920098781585693
73	322.77710008621216	pulse	1	t		71.0	2.5	/experiments/knapen_AOT/AOT_stimuli/rescaled_final/1849_fw.mp4	0.0	343.13121223449707	
73	324.376827955246	pulse	1	t		71.0	2.5	/experiments/knapen_AOT/AOT_stimuli/rescaled_final/1849_fw.mp4	0.0	344.7309401035309	
73	324.885066986084	fix_post	2		12	71.0	2.5	/experiments/knapen_AOT/AOT_stimuli/rescaled_final/1849_fw.mp4	0.0	345.2391791343689	0.10001707077026367
74	324.98508405685425	fix_pre	0		120	72.0	2.5	/experiments/knapen_AOT/AOT_stimuli/rescaled_final/2109_fw.mp4	0.0	345.33919620513916	1.0002329349517822
74	325.9771730899811	pulse	0	t		72.0	2.5	/experiments/knapen_AOT/AOT_stimuli/rescaled_final/2109_fw.mp4	0.0	346.331285238266	
74	325.98531699180603	movie	1		244	72.0	2.5	/experiments/knapen_AOT/AOT_stimuli/rescaled_final/2109_fw.mp4	0.0	346.33942914009094	2.508620023727417
74	327.5780200958252	pulse	1	t		72.0	2.5	/experiments/knapen_AOT/AOT_stimuli/rescaled_final/2109_fw.mp4	0.0	347.9321322441101	
74	328.49393701553345	fix_post	2		12	72.0	2.5	/experiments/knapen_AOT/AOT_stimuli/rescaled_final/2109_fw.mp4	0.0	348.84804916381836	0.100006103515625
75	328.5939431190491	fix_pre	0		120	73.0	2.5	/experiments/knapen_AOT/AOT_stimuli/rescaled_final/1279_fw.mp4	0.0	348.948055267334	1.000199794769287
75	329.17763805389404	pulse	0	t		73.0	2.5	/experiments/knapen_AOT/AOT_stimuli/rescaled_final/1279_fw.mp4	0.0	349.53175020217896	
75	329.59414291381836	movie	1		244	73.0	2.5	/experiments/knapen_AOT/AOT_stimuli/rescaled_final/1279_fw.mp4	0.0	349.94825506210327	2.500373125076294
75	330.77090096473694	pulse	1	t		73.0	2.5	/experiments/knapen_AOT/AOT_stimuli/rescaled_final/1279_fw.mp4	0.0	351.12501311302185	
75	332.09451603889465	fix_post	2		12	73.0	2.5	/experiments/knapen_AOT/AOT_stimuli/rescaled_final/1279_fw.mp4	0.0	352.44862818717957	0.09999895095825195
76	332.1945149898529	fix_pre	0		120	74.0	2.5	/experiments/knapen_AOT/AOT_stimuli/rescaled_final/1896_rv.mp4	0.0	352.5486271381378	1.0002400875091553
76	332.3780109882355	pulse	0	t		74.0	2.5	/experiments/knapen_AOT/AOT_stimuli/rescaled_final/1896_rv.mp4	0.0	352.7321231365204	
76	333.19475507736206	movie	1		244	74.0	2.5	/experiments/knapen_AOT/AOT_stimuli/rescaled_final/1896_rv.mp4	0.0	353.548867225647	2.50022292137146
76	333.97079610824585	pulse	1	t		74.0	2.5	/experiments/knapen_AOT/AOT_stimuli/rescaled_final/1896_rv.mp4	0.0	354.32490825653076	
76	335.5783939361572	pulse	1	t		74.0	2.5	/experiments/knapen_AOT/AOT_stimuli/rescaled_final/1896_rv.mp4	0.0	355.93250608444214	
76	335.6949779987335	fix_post	2		12	74.0	2.5	/experiments/knapen_AOT/AOT_stimuli/rescaled_final/1896_rv.mp4	0.0	356.04909014701843	0.10005712509155273
77	335.7950351238251	fix_pre	0		120	75.0	2.5	blank	1.0	356.14914727211	1.000147819519043
77	336.7951829433441	movie	1		299	75.0	2.5	blank	1.0	357.149295091629	2.4920380115509033
77	337.1712820529938	pulse	1	t		75.0	2.5	blank	1.0	357.5253942012787	
77	338.7714331150055	pulse	1	t		75.0	2.5	blank	1.0	359.1255452632904	
77	339.287220954895	fix_post	2		12	75.0	2.5	blank	1.0	359.64133310317993	0.09999704360961914
78	339.38721799850464	fix_pre	0		119	76.0	2.5	/experiments/knapen_AOT/AOT_stimuli/rescaled_final/0465_fw.mp4	0.0	359.74133014678955	0.9918179512023926
78	340.3709681034088	pulse	0	t		76.0	2.5	/experiments/knapen_AOT/AOT_stimuli/rescaled_final/0465_fw.mp4	0.0	360.7250802516937	
78	340.37903594970703	movie	1		244	76.0	2.5	/experiments/knapen_AOT/AOT_stimuli/rescaled_final/0465_fw.mp4	0.0	360.73314809799194	2.5087790489196777
78	341.9758460521698	pulse	1	t		76.0	2.5	/experiments/knapen_AOT/AOT_stimuli/rescaled_final/0465_fw.mp4	0.0	362.3299582004547	
78	342.8878149986267	fix_post	2		12	76.0	2.5	/experiments/knapen_AOT/AOT_stimuli/rescaled_final/0465_fw.mp4	0.0	363.2419271469116	0.0999760627746582
79	342.98779106140137	fix_pre	0		120	77.0	2.5	/experiments/knapen_AOT/AOT_stimuli/rescaled_final/2082_rv.mp4	0.0	363.3419032096863	1.0001270771026611
79	343.5713119506836	pulse	0	t		77.0	2.5	/experiments/knapen_AOT/AOT_stimuli/rescaled_final/2082_rv.mp4	0.0	363.9254240989685	
79	343.987918138504	movie	1		244	77.0	2.5	/experiments/knapen_AOT/AOT_stimuli/rescaled_final/2082_rv.mp4	0.0	364.34203028678894	2.500370979309082
79	345.1717441082001	pulse	1	t		77.0	2.5	/experiments/knapen_AOT/AOT_stimuli/rescaled_final/2082_rv.mp4	0.0	365.525856256485	
79	346.4882891178131	fix_post	2		12	77.0	2.5	/experiments/knapen_AOT/AOT_stimuli/rescaled_final/2082_rv.mp4	0.0	366.842401266098	0.10001397132873535
80	346.58830308914185	fix_pre	0		120	78.0	2.5	/experiments/knapen_AOT/AOT_stimuli/rescaled_final/0731_fw.mp4	0.0	366.94241523742676	1.0001440048217773
80	346.77193093299866	pulse	0	t		78.0	2.5	/experiments/knapen_AOT/AOT_stimuli/rescaled_final/0731_fw.mp4	0.0	367.12604308128357	
80	347.5884470939636	movie	1		246	78.0	2.5	/experiments/knapen_AOT/AOT_stimuli/rescaled_final/0731_fw.mp4	0.0	367.94255924224854	2.5005300045013428
80	348.3720841407776	pulse	1	t		78.0	2.5	/experiments/knapen_AOT/AOT_stimuli/rescaled_final/0731_fw.mp4	0.0	368.7261962890625	
80	349.9723291397095	pulse	1	t		78.0	2.5	/experiments/knapen_AOT/AOT_stimuli/rescaled_final/0731_fw.mp4	0.0	370.3264412879944	
80	350.08897709846497	fix_post	2		12	78.0	2.5	/experiments/knapen_AOT/AOT_stimuli/rescaled_final/0731_fw.mp4	0.0	370.4430892467499	0.09986186027526855
81	350.18883895874023	fix_pre	0		120	79.0	2.5	/experiments/knapen_AOT/AOT_stimuli/rescaled_final/0110_fw.mp4	0.0	370.54295110702515	1.0001320838928223
81	351.18897104263306	movie	1		242	79.0	2.5	/experiments/knapen_AOT/AOT_stimuli/rescaled_final/0110_fw.mp4	0.0	371.54308319091797	2.4920599460601807
81	351.57315707206726	pulse	1	t		79.0	2.5	/experiments/knapen_AOT/AOT_stimuli/rescaled_final/0110_fw.mp4	0.0	371.9272692203522	
81	353.17290210723877	pulse	1	t		79.0	2.5	/experiments/knapen_AOT/AOT_stimuli/rescaled_final/0110_fw.mp4	0.0	373.5270142555237	
81	353.68103098869324	fix_post	2		12	79.0	2.5	/experiments/knapen_AOT/AOT_stimuli/rescaled_final/0110_fw.mp4	0.0	374.03514313697815	0.10002398490905762
82	353.7810549736023	fix_pre	0		120	80.0	2.5	/experiments/knapen_AOT/AOT_stimuli/rescaled_final/0873_rv.mp4	0.0	374.1351671218872	1.000154972076416
82	354.77305603027344	pulse	0	t		80.0	2.5	/experiments/knapen_AOT/AOT_stimuli/rescaled_final/0873_rv.mp4	0.0	375.12716817855835	
82	354.7812099456787	movie	1		244	80.0	2.5	/experiments/knapen_AOT/AOT_stimuli/rescaled_final/0873_rv.mp4	0.0	375.1353220939636	2.5086910724639893
82	356.37406611442566	pulse	1	t		80.0	2.5	/experiments/knapen_AOT/AOT_stimuli/rescaled_final/0873_rv.mp4	0.0	376.72817826271057	
82	357.2899010181427	fix_post	2		12	80.0	2.5	/experiments/knapen_AOT/AOT_stimuli/rescaled_final/0873_rv.mp4	0.0	377.6440131664276	0.10001301765441895
83	357.3899140357971	fix_pre	0		120	81.0	2.5	/experiments/knapen_AOT/AOT_stimuli/rescaled_final/0172_rv.mp4	0.0	377.74402618408203	1.0001568794250488
83	357.9736671447754	pulse	0	t		81.0	2.5	/experiments/knapen_AOT/AOT_stimuli/rescaled_final/0172_rv.mp4	0.0	378.3277792930603	
83	358.39007091522217	movie	1		244	81.0	2.5	/experiments/knapen_AOT/AOT_stimuli/rescaled_final/0172_rv.mp4	0.0	378.7441830635071	2.5004260540008545
83	359.57390213012695	pulse	1	t		81.0	2.5	/experiments/knapen_AOT/AOT_stimuli/rescaled_final/0172_rv.mp4	0.0	379.92801427841187	
83	360.890496969223	fix_post	2		12	81.0	2.5	/experiments/knapen_AOT/AOT_stimuli/rescaled_final/0172_rv.mp4	0.0	381.24460911750793	0.09994697570800781
84	360.99044394493103	fix_pre	0		120	82.0	2.5	blank	1.0	381.34455609321594	1.0001721382141113
84	361.1740529537201	pulse	0	t		82.0	2.5	blank	1.0	381.528165102005	
84	361.99061608314514	movie	1		300	82.0	2.5	blank	1.0	382.34472823143005	2.5003979206085205
84	362.77418398857117	pulse	1	t		82.0	2.5	blank	1.0	383.1282961368561	
84	364.37454199790955	pulse	1	t		82.0	2.5	blank	1.0	384.72865414619446	
84	364.49101400375366	fix_post	2		12	82.0	2.5	blank	1.0	384.8451261520386	0.099945068359375
85	364.59095907211304	fix_pre	0		120	83.0	2.5	/experiments/knapen_AOT/AOT_stimuli/rescaled_final/0889_rv.mp4	0.0	384.94507122039795	1.000182867050171
85	365.5911419391632	movie	1		242	83.0	2.5	/experiments/knapen_AOT/AOT_stimuli/rescaled_final/0889_rv.mp4	0.0	385.9452540874481	2.492035150527954
85	365.9756610393524	pulse	1	t		83.0	2.5	/experiments/knapen_AOT/AOT_stimuli/rescaled_final/0889_rv.mp4	0.0	386.32977318763733	
85	367.57501697540283	pulse	1	t		83.0	2.5	/experiments/knapen_AOT/AOT_stimuli/rescaled_final/0889_rv.mp4	0.0	387.92912912368774	
85	368.08317708969116	fix_post	2		12	83.0	2.5	/experiments/knapen_AOT/AOT_stimuli/rescaled_final/0889_rv.mp4	0.0	388.4372892379761	0.10002398490905762
87	368.1832010746002	stim	0		1716					388.53731322288513	14.302181959152222
87	369.17516112327576	pulse	0	t						389.52927327156067	
87	370.77539110183716	pulse	0	t						391.12950325012207	
87	372.3756959438324	pulse	0	t						392.7298080921173	
87	373.9759349822998	pulse	0	t						394.3300471305847	
87	375.57607793807983	pulse	0	t						395.93019008636475	
87	377.17629408836365	pulse	0	t						397.53040623664856	
87	378.7765939235687	pulse	0	t						399.13070607185364	
87	380.3768949508667	pulse	0	t						400.7310070991516	
87	381.97708201408386	pulse	0	t						402.3311941623688	
