trial_nr	onset	event_type	phase	response	nr_frames	movie_index	movie_duration	movie_file	blank	onset_abs	duration
0	0.20821809768676758	stim	0		86					24.9099440574646	0.7167599201202393
0	0.9169671535491943	response	0	space						25.618693113327026	
1	0.9249780178070068	stim	0		4682					25.62670397758484	39.03504705429077
1	39.94552206993103	pulse	0	t						64.64724802970886	
1	39.96002507209778	stim	1		1715					64.66175103187561	14.29789400100708
1	41.539616107940674	pulse	1	t						66.2413420677185	
1	43.139837980270386	pulse	1	t						67.84156394004822	
1	44.740025997161865	pulse	1	t						69.4417519569397	
1	46.34031105041504	pulse	1	t						71.04203701019287	
1	47.94053101539612	pulse	1	t						72.64225697517395	
1	49.5407280921936	pulse	1	t						74.24245405197144	
1	51.14098906517029	pulse	1	t						75.84271502494812	
1	52.74115514755249	pulse	1	t						77.44288110733032	
2	54.25791907310486	fix_pre	0		11	0.0	2.5	/experiments/knapen_AOT/AOT_stimuli/rescaled_final/0810_rv.mp4	0.0	78.95964503288269	0.09163689613342285
2	54.3415310382843	pulse	0	t		0.0	2.5	/experiments/knapen_AOT/AOT_stimuli/rescaled_final/0810_rv.mp4	0.0	79.04325699806213	
2	54.34955596923828	movie	1		244	0.0	2.5	/experiments/knapen_AOT/AOT_stimuli/rescaled_final/0810_rv.mp4	0.0	79.05128192901611	2.508716106414795
2	55.94297814369202	pulse	1	t		0.0	2.5	/experiments/knapen_AOT/AOT_stimuli/rescaled_final/0810_rv.mp4	0.0	80.64470410346985	
2	56.858272075653076	fix_post	2		12	0.0	2.5	/experiments/knapen_AOT/AOT_stimuli/rescaled_final/0810_rv.mp4	0.0	81.55999803543091	0.10003805160522461
3	56.9583101272583	fix_pre	0		120	1.0	2.5	/experiments/knapen_AOT/AOT_stimuli/rescaled_final/0088_fw.mp4	0.0	81.66003608703613	1.0001559257507324
3	57.534523010253906	pulse	0	t		1.0	2.5	/experiments/knapen_AOT/AOT_stimuli/rescaled_final/0088_fw.mp4	0.0	82.23624897003174	
3	57.95846605300903	movie	1		245	1.0	2.5	/experiments/knapen_AOT/AOT_stimuli/rescaled_final/0088_fw.mp4	0.0	82.66019201278687	2.5003650188446045
3	59.142261028289795	pulse	1	t		1.0	2.5	/experiments/knapen_AOT/AOT_stimuli/rescaled_final/0088_fw.mp4	0.0	83.84398698806763	
3	60.45883107185364	fix_post	2		12	1.0	2.5	/experiments/knapen_AOT/AOT_stimuli/rescaled_final/0088_fw.mp4	0.0	85.16055703163147	0.10001087188720703
4	60.558841943740845	fix_pre	0		120	2.0	2.5	/experiments/knapen_AOT/AOT_stimuli/rescaled_final/1353_fw.mp4	0.0	85.26056790351868	1.0001680850982666
4	60.73494601249695	pulse	0	t		2.0	2.5	/experiments/knapen_AOT/AOT_stimuli/rescaled_final/1353_fw.mp4	0.0	85.43667197227478	
4	61.55901002883911	movie	1		244	2.0	2.5	/experiments/knapen_AOT/AOT_stimuli/rescaled_final/1353_fw.mp4	0.0	86.26073598861694	2.500386953353882
4	62.335262060165405	pulse	1	t		2.0	2.5	/experiments/knapen_AOT/AOT_stimuli/rescaled_final/1353_fw.mp4	0.0	87.03698801994324	
4	63.94289803504944	pulse	1	t		2.0	2.5	/experiments/knapen_AOT/AOT_stimuli/rescaled_final/1353_fw.mp4	0.0	88.64462399482727	
4	64.059396982193	fix_post	2		12	2.0	2.5	/experiments/knapen_AOT/AOT_stimuli/rescaled_final/1353_fw.mp4	0.0	88.76112294197083	0.09998512268066406
5	64.15938210487366	fix_pre	0		120	3.0	2.5	/experiments/knapen_AOT/AOT_stimuli/rescaled_final/1087_fw.mp4	0.0	88.86110806465149	1.000236988067627
5	65.15961909294128	movie	1		244	3.0	2.5	/experiments/knapen_AOT/AOT_stimuli/rescaled_final/1087_fw.mp4	0.0	89.86134505271912	2.491989850997925
5	65.5348789691925	pulse	1	t		3.0	2.5	/experiments/knapen_AOT/AOT_stimuli/rescaled_final/1087_fw.mp4	0.0	90.23660492897034	
5	67.13505506515503	pulse	1	t		3.0	2.5	/experiments/knapen_AOT/AOT_stimuli/rescaled_final/1087_fw.mp4	0.0	91.83678102493286	
5	67.65160894393921	fix_post	2		12	3.0	2.5	/experiments/knapen_AOT/AOT_stimuli/rescaled_final/1087_fw.mp4	0.0	92.35333490371704	0.09995222091674805
6	67.75156116485596	fix_pre	0		119	4.0	2.5	/experiments/knapen_AOT/AOT_stimuli/rescaled_final/1787_rv.mp4	0.0	92.45328712463379	0.9918529987335205
6	68.73526501655579	pulse	0	t		4.0	2.5	/experiments/knapen_AOT/AOT_stimuli/rescaled_final/1787_rv.mp4	0.0	93.43699097633362	
6	68.74341416358948	movie	1		245	4.0	2.5	/experiments/knapen_AOT/AOT_stimuli/rescaled_final/1787_rv.mp4	0.0	93.44514012336731	2.508765935897827
6	70.33698296546936	pulse	1	t		4.0	2.5	/experiments/knapen_AOT/AOT_stimuli/rescaled_final/1787_rv.mp4	0.0	95.03870892524719	
6	71.2521800994873	fix_post	2		12	4.0	2.5	/experiments/knapen_AOT/AOT_stimuli/rescaled_final/1787_rv.mp4	0.0	95.95390605926514	0.0999598503112793
7	71.35213994979858	fix_pre	0		120	5.0	2.5	/experiments/knapen_AOT/AOT_stimuli/rescaled_final/0373_rv.mp4	0.0	96.05386590957642	1.0001220703125
7	71.93583512306213	pulse	0	t		5.0	2.5	/experiments/knapen_AOT/AOT_stimuli/rescaled_final/0373_rv.mp4	0.0	96.63756108283997	
7	72.35226202011108	movie	1		245	5.0	2.5	/experiments/knapen_AOT/AOT_stimuli/rescaled_final/0373_rv.mp4	0.0	97.05398797988892	2.5004239082336426
7	73.53616905212402	pulse	1	t		5.0	2.5	/experiments/knapen_AOT/AOT_stimuli/rescaled_final/0373_rv.mp4	0.0	98.23789501190186	
7	74.85268592834473	fix_post	2		12	5.0	2.5	/experiments/knapen_AOT/AOT_stimuli/rescaled_final/0373_rv.mp4	0.0	99.55441188812256	0.09995317459106445
8	74.95263910293579	fix_pre	0		117	6.0	2.5	blank	1.0	99.65436506271362	1.0002129077911377
8	75.13623309135437	pulse	0	t		6.0	2.5	blank	1.0	99.8379590511322	
8	75.95285201072693	movie	1		300	6.0	2.5	blank	1.0	100.65457797050476	2.500401020050049
8	76.73653101921082	pulse	1	t		6.0	2.5	blank	1.0	101.43825697898865	
8	78.3366870880127	pulse	1	t		6.0	2.5	blank	1.0	103.03841304779053	
8	78.45325303077698	fix_post	2		12	6.0	2.5	blank	1.0	103.15497899055481	0.09995603561401367
9	78.55320906639099	fix_pre	0		120	7.0	2.5	/experiments/knapen_AOT/AOT_stimuli/rescaled_final/1101_fw.mp4	0.0	103.25493502616882	1.0001940727233887
9	79.55340313911438	movie	1		242	7.0	2.5	/experiments/knapen_AOT/AOT_stimuli/rescaled_final/1101_fw.mp4	0.0	104.25512909889221	2.4920079708099365
9	79.93832802772522	pulse	1	t		7.0	2.5	/experiments/knapen_AOT/AOT_stimuli/rescaled_final/1101_fw.mp4	0.0	104.64005398750305	
9	81.53715801239014	pulse	1	t		7.0	2.5	/experiments/knapen_AOT/AOT_stimuli/rescaled_final/1101_fw.mp4	0.0	106.23888397216797	
9	82.04541110992432	fix_post	2		12	7.0	2.5	/experiments/knapen_AOT/AOT_stimuli/rescaled_final/1101_fw.mp4	0.0	106.74713706970215	0.10001397132873535
10	82.14542508125305	fix_pre	0		120	8.0	2.5	/experiments/knapen_AOT/AOT_stimuli/rescaled_final/1491_rv.mp4	0.0	106.84715104103088	1.000143051147461
10	83.13748407363892	pulse	0	t		8.0	2.5	/experiments/knapen_AOT/AOT_stimuli/rescaled_final/1491_rv.mp4	0.0	107.83921003341675	
10	83.14556813240051	movie	1		246	8.0	2.5	/experiments/knapen_AOT/AOT_stimuli/rescaled_final/1491_rv.mp4	0.0	107.84729409217834	2.5086848735809326
10	84.73882293701172	pulse	1	t		8.0	2.5	/experiments/knapen_AOT/AOT_stimuli/rescaled_final/1491_rv.mp4	0.0	109.44054889678955	
10	85.65425300598145	fix_post	2		12	8.0	2.5	/experiments/knapen_AOT/AOT_stimuli/rescaled_final/1491_rv.mp4	0.0	110.35597896575928	0.10001802444458008
11	85.75427103042603	fix_pre	0		120	9.0	2.5	/experiments/knapen_AOT/AOT_stimuli/rescaled_final/0863_rv.mp4	0.0	110.45599699020386	1.0001599788665771
11	86.3379819393158	pulse	0	t		9.0	2.5	/experiments/knapen_AOT/AOT_stimuli/rescaled_final/0863_rv.mp4	0.0	111.03970789909363	
11	86.7544310092926	movie	1		244	9.0	2.5	/experiments/knapen_AOT/AOT_stimuli/rescaled_final/0863_rv.mp4	0.0	111.45615696907043	2.500383138656616
11	87.93831896781921	pulse	1	t		9.0	2.5	/experiments/knapen_AOT/AOT_stimuli/rescaled_final/0863_rv.mp4	0.0	112.64004492759705	
11	89.25481414794922	fix_post	2		12	9.0	2.5	/experiments/knapen_AOT/AOT_stimuli/rescaled_final/0863_rv.mp4	0.0	113.95654010772705	0.09996986389160156
12	89.35478401184082	fix_pre	0		120	10.0	2.5	/experiments/knapen_AOT/AOT_stimuli/rescaled_final/0010_rv.mp4	0.0	114.05650997161865	1.000195026397705
12	89.53839206695557	pulse	0	t		10.0	2.5	/experiments/knapen_AOT/AOT_stimuli/rescaled_final/0010_rv.mp4	0.0	114.2401180267334	
12	90.35497903823853	movie	1		245	10.0	2.5	/experiments/knapen_AOT/AOT_stimuli/rescaled_final/0010_rv.mp4	0.0	115.05670499801636	2.500432014465332
12	91.13867998123169	pulse	1	t		10.0	2.5	/experiments/knapen_AOT/AOT_stimuli/rescaled_final/0010_rv.mp4	0.0	115.84040594100952	
12	92.73651194572449	pulse	1	t		10.0	2.5	/experiments/knapen_AOT/AOT_stimuli/rescaled_final/0010_rv.mp4	0.0	117.43823790550232	
12	92.85541105270386	fix_post	2		12	10.0	2.5	/experiments/knapen_AOT/AOT_stimuli/rescaled_final/0010_rv.mp4	0.0	117.55713701248169	0.09993505477905273
13	92.95534610748291	fix_pre	0		120	11.0	2.5	/experiments/knapen_AOT/AOT_stimuli/rescaled_final/0721_fw.mp4	0.0	117.65707206726074	1.0001189708709717
13	93.95546507835388	movie	1		244	11.0	2.5	/experiments/knapen_AOT/AOT_stimuli/rescaled_final/0721_fw.mp4	0.0	118.65719103813171	2.4920709133148193
13	94.33961296081543	pulse	1	t		11.0	2.5	/experiments/knapen_AOT/AOT_stimuli/rescaled_final/0721_fw.mp4	0.0	119.04133892059326	
13	95.93930792808533	pulse	1	t		11.0	2.5	/experiments/knapen_AOT/AOT_stimuli/rescaled_final/0721_fw.mp4	0.0	120.64103388786316	
13	96.4475359916687	fix_post	2		12	11.0	2.5	/experiments/knapen_AOT/AOT_stimuli/rescaled_final/0721_fw.mp4	0.0	121.14926195144653	0.09998798370361328
14	96.54752397537231	fix_pre	0		120	12.0	2.5	/experiments/knapen_AOT/AOT_stimuli/rescaled_final/0700_rv.mp4	0.0	121.24924993515015	1.0001940727233887
14	97.53962802886963	pulse	0	t		12.0	2.5	/experiments/knapen_AOT/AOT_stimuli/rescaled_final/0700_rv.mp4	0.0	122.24135398864746	
14	97.5477180480957	movie	1		246	12.0	2.5	/experiments/knapen_AOT/AOT_stimuli/rescaled_final/0700_rv.mp4	0.0	122.24944400787354	2.5087459087371826
14	99.14034104347229	pulse	1	t		12.0	2.5	/experiments/knapen_AOT/AOT_stimuli/rescaled_final/0700_rv.mp4	0.0	123.84206700325012	
14	100.05646395683289	fix_post	2		12	12.0	2.5	/experiments/knapen_AOT/AOT_stimuli/rescaled_final/0700_rv.mp4	0.0	124.75818991661072	0.09995603561401367
15	100.1564199924469	fix_pre	0		120	13.0	2.5	/experiments/knapen_AOT/AOT_stimuli/rescaled_final/2144_fw.mp4	0.0	124.85814595222473	1.0001471042633057
15	100.74007415771484	pulse	0	t		13.0	2.5	/experiments/knapen_AOT/AOT_stimuli/rescaled_final/2144_fw.mp4	0.0	125.44180011749268	
15	101.1565670967102	movie	1		245	13.0	2.5	/experiments/knapen_AOT/AOT_stimuli/rescaled_final/2144_fw.mp4	0.0	125.85829305648804	2.5003929138183594
15	102.34037899971008	pulse	1	t		13.0	2.5	/experiments/knapen_AOT/AOT_stimuli/rescaled_final/2144_fw.mp4	0.0	127.04210495948792	
15	103.65696001052856	fix_post	2		12	13.0	2.5	/experiments/knapen_AOT/AOT_stimuli/rescaled_final/2144_fw.mp4	0.0	128.3586859703064	0.09998202323913574
16	103.7569420337677	fix_pre	0		120	14.0	2.5	blank	1.0	128.45866799354553	1.0001671314239502
16	103.94056415557861	pulse	0	t		14.0	2.5	blank	1.0	128.64229011535645	
16	104.75710916519165	movie	1		300	14.0	2.5	blank	1.0	129.45883512496948	2.5003418922424316
16	105.54085803031921	pulse	1	t		14.0	2.5	blank	1.0	130.24258399009705	
16	107.14105701446533	pulse	1	t		14.0	2.5	blank	1.0	131.84278297424316	
16	107.25745105743408	fix_post	2		12	14.0	2.5	blank	1.0	131.9591770172119	0.10004997253417969
17	107.35750102996826	fix_pre	0		120	15.0	2.5	/experiments/knapen_AOT/AOT_stimuli/rescaled_final/0631_fw.mp4	0.0	132.0592269897461	1.0001039505004883
17	108.35760498046875	movie	1		243	15.0	2.5	/experiments/knapen_AOT/AOT_stimuli/rescaled_final/0631_fw.mp4	0.0	133.05933094024658	2.4921631813049316
17	108.74182105064392	pulse	1	t		15.0	2.5	/experiments/knapen_AOT/AOT_stimuli/rescaled_final/0631_fw.mp4	0.0	133.44354701042175	
17	110.34148406982422	pulse	1	t		15.0	2.5	/experiments/knapen_AOT/AOT_stimuli/rescaled_final/0631_fw.mp4	0.0	135.04321002960205	
17	110.84976816177368	fix_post	2		12	15.0	2.5	/experiments/knapen_AOT/AOT_stimuli/rescaled_final/0631_fw.mp4	0.0	135.5514941215515	0.09994697570800781
18	110.94971513748169	fix_pre	0		120	16.0	2.5	/experiments/knapen_AOT/AOT_stimuli/rescaled_final/0816_fw.mp4	0.0	135.65144109725952	1.0001559257507324
18	111.93425297737122	pulse	0	t		16.0	2.5	/experiments/knapen_AOT/AOT_stimuli/rescaled_final/0816_fw.mp4	0.0	136.63597893714905	
18	111.94987106323242	movie	1		244	16.0	2.5	/experiments/knapen_AOT/AOT_stimuli/rescaled_final/0816_fw.mp4	0.0	136.65159702301025	2.508660078048706
18	113.54263305664062	pulse	1	t		16.0	2.5	/experiments/knapen_AOT/AOT_stimuli/rescaled_final/0816_fw.mp4	0.0	138.24435901641846	
18	114.45853114128113	fix_post	2		12	16.0	2.5	/experiments/knapen_AOT/AOT_stimuli/rescaled_final/0816_fw.mp4	0.0	139.16025710105896	0.10003995895385742
19	114.55857110023499	fix_pre	0		120	17.0	2.5	/experiments/knapen_AOT/AOT_stimuli/rescaled_final/1910_fw.mp4	0.0	139.26029706001282	1.0001850128173828
19	115.13472604751587	pulse	0	t		17.0	2.5	/experiments/knapen_AOT/AOT_stimuli/rescaled_final/1910_fw.mp4	0.0	139.8364520072937	
19	115.55875611305237	movie	1		245	17.0	2.5	/experiments/knapen_AOT/AOT_stimuli/rescaled_final/1910_fw.mp4	0.0	140.2604820728302	2.5003249645233154
19	116.73464298248291	pulse	1	t		17.0	2.5	/experiments/knapen_AOT/AOT_stimuli/rescaled_final/1910_fw.mp4	0.0	141.43636894226074	
19	118.05908107757568	fix_post	2		12	17.0	2.5	/experiments/knapen_AOT/AOT_stimuli/rescaled_final/1910_fw.mp4	0.0	142.76080703735352	0.10004091262817383
20	118.15912199020386	fix_pre	0		120	18.0	2.5	/experiments/knapen_AOT/AOT_stimuli/rescaled_final/1972_fw.mp4	0.0	142.8608479499817	1.0001130104064941
20	118.33439207077026	pulse	0	t		18.0	2.5	/experiments/knapen_AOT/AOT_stimuli/rescaled_final/1972_fw.mp4	0.0	143.0361180305481	
20	119.15923500061035	movie	1		246	18.0	2.5	/experiments/knapen_AOT/AOT_stimuli/rescaled_final/1972_fw.mp4	0.0	143.86096096038818	2.500420093536377
20	119.93450093269348	pulse	1	t		18.0	2.5	/experiments/knapen_AOT/AOT_stimuli/rescaled_final/1972_fw.mp4	0.0	144.6362268924713	
20	121.53498411178589	pulse	1	t		18.0	2.5	/experiments/knapen_AOT/AOT_stimuli/rescaled_final/1972_fw.mp4	0.0	146.23671007156372	
20	121.65965509414673	fix_post	2		12	18.0	2.5	/experiments/knapen_AOT/AOT_stimuli/rescaled_final/1972_fw.mp4	0.0	146.36138105392456	0.09998202323913574
21	121.75963711738586	fix_pre	0		120	19.0	2.5	/experiments/knapen_AOT/AOT_stimuli/rescaled_final/2044_fw.mp4	0.0	146.4613630771637	1.0001380443572998
21	122.75977516174316	movie	1		243	19.0	2.5	/experiments/knapen_AOT/AOT_stimuli/rescaled_final/2044_fw.mp4	0.0	147.461501121521	2.492088794708252
21	123.13502812385559	pulse	1	t		19.0	2.5	/experiments/knapen_AOT/AOT_stimuli/rescaled_final/2044_fw.mp4	0.0	147.83675408363342	
21	124.73535108566284	pulse	1	t		19.0	2.5	/experiments/knapen_AOT/AOT_stimuli/rescaled_final/2044_fw.mp4	0.0	149.43707704544067	
21	125.25186395645142	fix_post	2		12	19.0	2.5	/experiments/knapen_AOT/AOT_stimuli/rescaled_final/2044_fw.mp4	0.0	149.95358991622925	0.10000109672546387
22	125.35186505317688	fix_pre	0		119	20.0	2.5	/experiments/knapen_AOT/AOT_stimuli/rescaled_final/1438_rv.mp4	0.0	150.0535910129547	0.9918398857116699
22	126.3355770111084	pulse	0	t		20.0	2.5	/experiments/knapen_AOT/AOT_stimuli/rescaled_final/1438_rv.mp4	0.0	151.03730297088623	
22	126.34370493888855	movie	1		246	20.0	2.5	/experiments/knapen_AOT/AOT_stimuli/rescaled_final/1438_rv.mp4	0.0	151.04543089866638	2.5086731910705566
22	127.9369740486145	pulse	1	t		20.0	2.5	/experiments/knapen_AOT/AOT_stimuli/rescaled_final/1438_rv.mp4	0.0	152.63870000839233	
22	128.8523781299591	fix_post	2		12	20.0	2.5	/experiments/knapen_AOT/AOT_stimuli/rescaled_final/1438_rv.mp4	0.0	153.55410408973694	0.10001587867736816
23	128.95239400863647	fix_pre	0		120	21.0	2.5	blank	1.0	153.6541199684143	1.0001730918884277
23	129.53606414794922	pulse	0	t		21.0	2.5	blank	1.0	154.23779010772705	
23	129.9525671005249	movie	1		300	21.0	2.5	blank	1.0	154.65429306030273	2.5014469623565674
23	131.13619899749756	pulse	1	t		21.0	2.5	blank	1.0	155.8379249572754	
23	132.45401406288147	fix_post	2		9	21.0	2.5	blank	1.0	157.1557400226593	0.0989069938659668
24	132.55292105674744	fix_pre	0		120	22.0	2.5	/experiments/knapen_AOT/AOT_stimuli/rescaled_final/0144_rv.mp4	0.0	157.25464701652527	1.0001499652862549
24	132.73650193214417	pulse	0	t		22.0	2.5	/experiments/knapen_AOT/AOT_stimuli/rescaled_final/0144_rv.mp4	0.0	157.438227891922	
24	133.5530710220337	movie	1		244	22.0	2.5	/experiments/knapen_AOT/AOT_stimuli/rescaled_final/0144_rv.mp4	0.0	158.25479698181152	2.5003840923309326
24	134.33681511878967	pulse	1	t		22.0	2.5	/experiments/knapen_AOT/AOT_stimuli/rescaled_final/0144_rv.mp4	0.0	159.0385410785675	
24	135.93698000907898	pulse	1	t		22.0	2.5	/experiments/knapen_AOT/AOT_stimuli/rescaled_final/0144_rv.mp4	0.0	160.6387059688568	
24	136.05345511436462	fix_post	2		12	22.0	2.5	/experiments/knapen_AOT/AOT_stimuli/rescaled_final/0144_rv.mp4	0.0	160.75518107414246	0.09999489784240723
25	136.15345001220703	fix_pre	0		120	23.0	2.5	/experiments/knapen_AOT/AOT_stimuli/rescaled_final/1462_fw.mp4	0.0	160.85517597198486	1.0002000331878662
25	137.1536500453949	movie	1		248	23.0	2.5	/experiments/knapen_AOT/AOT_stimuli/rescaled_final/1462_fw.mp4	0.0	161.85537600517273	2.492042064666748
25	137.53854393959045	pulse	1	t		23.0	2.5	/experiments/knapen_AOT/AOT_stimuli/rescaled_final/1462_fw.mp4	0.0	162.2402698993683	
25	139.1375379562378	pulse	1	t		23.0	2.5	/experiments/knapen_AOT/AOT_stimuli/rescaled_final/1462_fw.mp4	0.0	163.83926391601562	
25	139.64569211006165	fix_post	2		12	23.0	2.5	/experiments/knapen_AOT/AOT_stimuli/rescaled_final/1462_fw.mp4	0.0	164.34741806983948	0.0999598503112793
26	139.74565196037292	fix_pre	0		120	24.0	2.5	/experiments/knapen_AOT/AOT_stimuli/rescaled_final/1803_rv.mp4	0.0	164.44737792015076	1.0001721382141113
26	140.73776006698608	pulse	0	t		24.0	2.5	/experiments/knapen_AOT/AOT_stimuli/rescaled_final/1803_rv.mp4	0.0	165.43948602676392	
26	140.74582409858704	movie	1		245	24.0	2.5	/experiments/knapen_AOT/AOT_stimuli/rescaled_final/1803_rv.mp4	0.0	165.44755005836487	2.5087058544158936
26	142.33831000328064	pulse	1	t		24.0	2.5	/experiments/knapen_AOT/AOT_stimuli/rescaled_final/1803_rv.mp4	0.0	167.04003596305847	
26	143.25452995300293	fix_post	2		12	24.0	2.5	/experiments/knapen_AOT/AOT_stimuli/rescaled_final/1803_rv.mp4	0.0	167.95625591278076	0.10006999969482422
27	143.35459995269775	fix_pre	0		120	25.0	2.5	/experiments/knapen_AOT/AOT_stimuli/rescaled_final/1527_fw.mp4	0.0	168.0563259124756	1.0001351833343506
27	143.9381160736084	pulse	0	t		25.0	2.5	/experiments/knapen_AOT/AOT_stimuli/rescaled_final/1527_fw.mp4	0.0	168.63984203338623	
27	144.3547351360321	movie	1		249	25.0	2.5	/experiments/knapen_AOT/AOT_stimuli/rescaled_final/1527_fw.mp4	0.0	169.05646109580994	2.5003409385681152
27	145.53854703903198	pulse	1	t		25.0	2.5	/experiments/knapen_AOT/AOT_stimuli/rescaled_final/1527_fw.mp4	0.0	170.24027299880981	
27	146.85507607460022	fix_post	2		12	25.0	2.5	/experiments/knapen_AOT/AOT_stimuli/rescaled_final/1527_fw.mp4	0.0	171.55680203437805	0.09999489784240723
28	146.95507097244263	fix_pre	0		120	26.0	2.5	/experiments/knapen_AOT/AOT_stimuli/rescaled_final/1909_rv.mp4	0.0	171.65679693222046	1.0001580715179443
28	147.13869404792786	pulse	0	t		26.0	2.5	/experiments/knapen_AOT/AOT_stimuli/rescaled_final/1909_rv.mp4	0.0	171.8404200077057	
28	147.95522904396057	movie	1		244	26.0	2.5	/experiments/knapen_AOT/AOT_stimuli/rescaled_final/1909_rv.mp4	0.0	172.6569550037384	2.500377893447876
28	148.73901295661926	pulse	1	t		26.0	2.5	/experiments/knapen_AOT/AOT_stimuli/rescaled_final/1909_rv.mp4	0.0	173.4407389163971	
28	150.33678007125854	pulse	1	t		26.0	2.5	/experiments/knapen_AOT/AOT_stimuli/rescaled_final/1909_rv.mp4	0.0	175.03850603103638	
28	150.45560693740845	fix_post	2		12	26.0	2.5	/experiments/knapen_AOT/AOT_stimuli/rescaled_final/1909_rv.mp4	0.0	175.15733289718628	0.09997701644897461
29	150.55558395385742	fix_pre	0		120	27.0	2.5	/experiments/knapen_AOT/AOT_stimuli/rescaled_final/1466_rv.mp4	0.0	175.25730991363525	1.0002171993255615
29	151.55580115318298	movie	1		243	27.0	2.5	/experiments/knapen_AOT/AOT_stimuli/rescaled_final/1466_rv.mp4	0.0	176.25752711296082	2.491989850997925
29	151.93982696533203	pulse	1	t		27.0	2.5	/experiments/knapen_AOT/AOT_stimuli/rescaled_final/1466_rv.mp4	0.0	176.64155292510986	
29	153.53964710235596	pulse	1	t		27.0	2.5	/experiments/knapen_AOT/AOT_stimuli/rescaled_final/1466_rv.mp4	0.0	178.2413730621338	
29	154.0477910041809	fix_post	2		12	27.0	2.5	/experiments/knapen_AOT/AOT_stimuli/rescaled_final/1466_rv.mp4	0.0	178.74951696395874	0.10000896453857422
30	154.14779996871948	fix_pre	0		120	28.0	2.5	blank	1.0	178.84952592849731	1.0001661777496338
30	155.1399209499359	pulse	0	t		28.0	2.5	blank	1.0	179.84164690971375	
30	155.14796614646912	movie	1		301	28.0	2.5	blank	1.0	179.84969210624695	2.5087227821350098
30	156.74010014533997	pulse	1	t		28.0	2.5	blank	1.0	181.4418261051178	
30	157.65668892860413	fix_post	2		12	28.0	2.5	blank	1.0	182.35841488838196	0.09997320175170898
31	157.75666213035583	fix_pre	0		120	29.0	2.5	/experiments/knapen_AOT/AOT_stimuli/rescaled_final/0370_fw.mp4	0.0	182.45838809013367	1.0001509189605713
31	158.34038496017456	pulse	0	t		29.0	2.5	/experiments/knapen_AOT/AOT_stimuli/rescaled_final/0370_fw.mp4	0.0	183.0421109199524	
31	158.7568130493164	movie	1		245	29.0	2.5	/experiments/knapen_AOT/AOT_stimuli/rescaled_final/0370_fw.mp4	0.0	183.45853900909424	2.500394105911255
31	159.93679904937744	pulse	1	t		29.0	2.5	/experiments/knapen_AOT/AOT_stimuli/rescaled_final/0370_fw.mp4	0.0	184.63852500915527	
31	161.25720715522766	fix_post	2		12	29.0	2.5	/experiments/knapen_AOT/AOT_stimuli/rescaled_final/0370_fw.mp4	0.0	185.9589331150055	0.10004186630249023
32	161.35724902153015	fix_pre	0		120	30.0	2.5	/experiments/knapen_AOT/AOT_stimuli/rescaled_final/1598_fw.mp4	0.0	186.05897498130798	1.0001230239868164
32	161.54087805747986	pulse	0	t		30.0	2.5	/experiments/knapen_AOT/AOT_stimuli/rescaled_final/1598_fw.mp4	0.0	186.2426040172577	
32	162.35737204551697	movie	1		244	30.0	2.5	/experiments/knapen_AOT/AOT_stimuli/rescaled_final/1598_fw.mp4	0.0	187.0590980052948	2.5004079341888428
32	163.14109992980957	pulse	1	t		30.0	2.5	/experiments/knapen_AOT/AOT_stimuli/rescaled_final/1598_fw.mp4	0.0	187.8428258895874	
32	164.74296593666077	pulse	1	t		30.0	2.5	/experiments/knapen_AOT/AOT_stimuli/rescaled_final/1598_fw.mp4	0.0	189.4446918964386	
32	164.8577799797058	fix_post	2		12	30.0	2.5	/experiments/knapen_AOT/AOT_stimuli/rescaled_final/1598_fw.mp4	0.0	189.55950593948364	0.09998202323913574
33	164.95776200294495	fix_pre	0		120	31.0	2.5	/experiments/knapen_AOT/AOT_stimuli/rescaled_final/2144_rv.mp4	0.0	189.65948796272278	1.0001540184020996
33	165.95791602134705	movie	1		244	31.0	2.5	/experiments/knapen_AOT/AOT_stimuli/rescaled_final/2144_rv.mp4	0.0	190.65964198112488	2.4920010566711426
33	166.34253907203674	pulse	1	t		31.0	2.5	/experiments/knapen_AOT/AOT_stimuli/rescaled_final/2144_rv.mp4	0.0	191.04426503181458	
33	167.9417290687561	pulse	1	t		31.0	2.5	/experiments/knapen_AOT/AOT_stimuli/rescaled_final/2144_rv.mp4	0.0	192.64345502853394	
33	168.4499170780182	fix_post	2		12	31.0	2.5	/experiments/knapen_AOT/AOT_stimuli/rescaled_final/2144_rv.mp4	0.0	193.15164303779602	0.10001301765441895
34	168.5499300956726	fix_pre	0		120	32.0	2.5	/experiments/knapen_AOT/AOT_stimuli/rescaled_final/1840_rv.mp4	0.0	193.25165605545044	1.0001869201660156
34	169.54203009605408	pulse	0	t		32.0	2.5	/experiments/knapen_AOT/AOT_stimuli/rescaled_final/1840_rv.mp4	0.0	194.2437560558319	
34	169.55011701583862	movie	1		245	32.0	2.5	/experiments/knapen_AOT/AOT_stimuli/rescaled_final/1840_rv.mp4	0.0	194.25184297561646	2.5087339878082275
34	171.14269709587097	pulse	1	t		32.0	2.5	/experiments/knapen_AOT/AOT_stimuli/rescaled_final/1840_rv.mp4	0.0	195.8444230556488	
34	172.05885100364685	fix_post	2		12	32.0	2.5	/experiments/knapen_AOT/AOT_stimuli/rescaled_final/1840_rv.mp4	0.0	196.76057696342468	0.09998798370361328
35	172.15883898735046	fix_pre	0		120	33.0	2.5	/experiments/knapen_AOT/AOT_stimuli/rescaled_final/1500_fw.mp4	0.0	196.8605649471283	1.0001511573791504
35	172.73493313789368	pulse	0	t		33.0	2.5	/experiments/knapen_AOT/AOT_stimuli/rescaled_final/1500_fw.mp4	0.0	197.4366590976715	
35	173.15899014472961	movie	1		245	33.0	2.5	/experiments/knapen_AOT/AOT_stimuli/rescaled_final/1500_fw.mp4	0.0	197.86071610450745	2.5004258155822754
35	174.34281611442566	pulse	1	t		33.0	2.5	/experiments/knapen_AOT/AOT_stimuli/rescaled_final/1500_fw.mp4	0.0	199.0445420742035	
35	175.6594159603119	fix_post	2		12	33.0	2.5	/experiments/knapen_AOT/AOT_stimuli/rescaled_final/1500_fw.mp4	0.0	200.36114192008972	0.0999600887298584
36	175.75937604904175	fix_pre	0		120	34.0	2.5	blank	1.0	200.46110200881958	1.0001471042633057
36	175.9353950023651	pulse	0	t		34.0	2.5	blank	1.0	200.63712096214294	
36	176.75952315330505	movie	1		298	34.0	2.5	blank	1.0	201.46124911308289	2.500419855117798
36	177.5356421470642	pulse	1	t		34.0	2.5	blank	1.0	202.23736810684204	
36	179.1351079940796	pulse	1	t		34.0	2.5	blank	1.0	203.83683395385742	
36	179.25994300842285	fix_post	2		12	34.0	2.5	blank	1.0	203.96166896820068	0.0999441146850586
37	179.3598871231079	fix_pre	0		120	35.0	2.5	/experiments/knapen_AOT/AOT_stimuli/rescaled_final/0985_fw.mp4	0.0	204.06161308288574	1.000175952911377
37	180.3600630760193	movie	1		244	35.0	2.5	/experiments/knapen_AOT/AOT_stimuli/rescaled_final/0985_fw.mp4	0.0	205.06178903579712	2.4920389652252197
37	180.73527812957764	pulse	1	t		35.0	2.5	/experiments/knapen_AOT/AOT_stimuli/rescaled_final/0985_fw.mp4	0.0	205.43700408935547	
37	182.3356249332428	pulse	1	t		35.0	2.5	/experiments/knapen_AOT/AOT_stimuli/rescaled_final/0985_fw.mp4	0.0	207.03735089302063	
37	182.8521020412445	fix_post	2		12	35.0	2.5	/experiments/knapen_AOT/AOT_stimuli/rescaled_final/0985_fw.mp4	0.0	207.55382800102234	0.10004997253417969
38	182.9521520137787	fix_pre	0		119	36.0	2.5	/experiments/knapen_AOT/AOT_stimuli/rescaled_final/1970_rv.mp4	0.0	207.65387797355652	0.991786003112793
38	183.93579196929932	pulse	0	t		36.0	2.5	/experiments/knapen_AOT/AOT_stimuli/rescaled_final/1970_rv.mp4	0.0	208.63751792907715	
38	183.94393801689148	movie	1		246	36.0	2.5	/experiments/knapen_AOT/AOT_stimuli/rescaled_final/1970_rv.mp4	0.0	208.6456639766693	2.5086851119995117
38	185.5367910861969	pulse	1	t		36.0	2.5	/experiments/knapen_AOT/AOT_stimuli/rescaled_final/1970_rv.mp4	0.0	210.23851704597473	
38	186.452623128891	fix_post	2		12	36.0	2.5	/experiments/knapen_AOT/AOT_stimuli/rescaled_final/1970_rv.mp4	0.0	211.15434908866882	0.1000359058380127
39	186.552659034729	fix_pre	0		120	37.0	2.5	/experiments/knapen_AOT/AOT_stimuli/rescaled_final/1348_rv.mp4	0.0	211.25438499450684	1.000119924545288
39	187.13632106781006	pulse	0	t		37.0	2.5	/experiments/knapen_AOT/AOT_stimuli/rescaled_final/1348_rv.mp4	0.0	211.8380470275879	
39	187.5527789592743	movie	1		243	37.0	2.5	/experiments/knapen_AOT/AOT_stimuli/rescaled_final/1348_rv.mp4	0.0	212.25450491905212	2.500415086746216
39	188.73660707473755	pulse	1	t		37.0	2.5	/experiments/knapen_AOT/AOT_stimuli/rescaled_final/1348_rv.mp4	0.0	213.43833303451538	
39	190.0531940460205	fix_post	2		12	37.0	2.5	/experiments/knapen_AOT/AOT_stimuli/rescaled_final/1348_rv.mp4	0.0	214.75492000579834	0.09995603561401367
40	190.15315008163452	fix_pre	0		120	38.0	2.5	/experiments/knapen_AOT/AOT_stimuli/rescaled_final/1752_rv.mp4	0.0	214.85487604141235	1.000196933746338
40	190.336688041687	pulse	0	t		38.0	2.5	/experiments/knapen_AOT/AOT_stimuli/rescaled_final/1752_rv.mp4	0.0	215.03841400146484	
40	191.15334701538086	movie	1		242	38.0	2.5	/experiments/knapen_AOT/AOT_stimuli/rescaled_final/1752_rv.mp4	0.0	215.8550729751587	2.5003530979156494
40	191.9369809627533	pulse	1	t		38.0	2.5	/experiments/knapen_AOT/AOT_stimuli/rescaled_final/1752_rv.mp4	0.0	216.63870692253113	
40	193.53714394569397	pulse	1	t		38.0	2.5	/experiments/knapen_AOT/AOT_stimuli/rescaled_final/1752_rv.mp4	0.0	218.2388699054718	
40	193.6537001132965	fix_post	2		12	38.0	2.5	/experiments/knapen_AOT/AOT_stimuli/rescaled_final/1752_rv.mp4	0.0	218.35542607307434	0.10001802444458008
41	193.7537181377411	fix_pre	0		119	39.0	2.5	/experiments/knapen_AOT/AOT_stimuli/rescaled_final/1493_rv.mp4	0.0	218.45544409751892	0.9918320178985596
41	194.74555015563965	movie	1		244	39.0	2.5	/experiments/knapen_AOT/AOT_stimuli/rescaled_final/1493_rv.mp4	0.0	219.44727611541748	2.5004007816314697
41	195.13760209083557	pulse	1	t		39.0	2.5	/experiments/knapen_AOT/AOT_stimuli/rescaled_final/1493_rv.mp4	0.0	219.8393280506134	
41	196.73777508735657	pulse	1	t		39.0	2.5	/experiments/knapen_AOT/AOT_stimuli/rescaled_final/1493_rv.mp4	0.0	221.4395010471344	
41	197.24595093727112	fix_post	2		12	39.0	2.5	/experiments/knapen_AOT/AOT_stimuli/rescaled_final/1493_rv.mp4	0.0	221.94767689704895	0.10001516342163086
42	197.34596610069275	fix_pre	0		120	40.0	2.5	/experiments/knapen_AOT/AOT_stimuli/rescaled_final/0176_fw.mp4	0.0	222.04769206047058	1.0001089572906494
42	198.33795809745789	pulse	0	t		40.0	2.5	/experiments/knapen_AOT/AOT_stimuli/rescaled_final/0176_fw.mp4	0.0	223.03968405723572	
42	198.3460750579834	movie	1		245	40.0	2.5	/experiments/knapen_AOT/AOT_stimuli/rescaled_final/0176_fw.mp4	0.0	223.04780101776123	2.5087080001831055
42	199.93871808052063	pulse	1	t		40.0	2.5	/experiments/knapen_AOT/AOT_stimuli/rescaled_final/0176_fw.mp4	0.0	224.64044404029846	
42	200.8547830581665	fix_post	2		12	40.0	2.5	/experiments/knapen_AOT/AOT_stimuli/rescaled_final/0176_fw.mp4	0.0	225.55650901794434	0.09998488426208496
43	200.9547679424286	fix_pre	0		120	41.0	2.5	blank	1.0	225.65649390220642	1.0001921653747559
43	201.53847694396973	pulse	0	t		41.0	2.5	blank	1.0	226.24020290374756	
43	201.95496010780334	movie	1		300	41.0	2.5	blank	1.0	226.65668606758118	2.5004289150238037
43	203.1387071609497	pulse	1	t		41.0	2.5	blank	1.0	227.84043312072754	
43	204.45538902282715	fix_post	2		12	41.0	2.5	blank	1.0	229.15711498260498	0.09995698928833008
44	204.55534601211548	fix_pre	0		120	42.0	2.5	/experiments/knapen_AOT/AOT_stimuli/rescaled_final/0904_rv.mp4	0.0	229.2570719718933	1.0002460479736328
44	204.73892402648926	pulse	0	t		42.0	2.5	/experiments/knapen_AOT/AOT_stimuli/rescaled_final/0904_rv.mp4	0.0	229.4406499862671	
44	205.5555920600891	movie	1		245	42.0	2.5	/experiments/knapen_AOT/AOT_stimuli/rescaled_final/0904_rv.mp4	0.0	230.25731801986694	2.500257968902588
44	206.3391420841217	pulse	1	t		42.0	2.5	/experiments/knapen_AOT/AOT_stimuli/rescaled_final/0904_rv.mp4	0.0	231.04086804389954	
44	207.93948101997375	pulse	1	t		42.0	2.5	/experiments/knapen_AOT/AOT_stimuli/rescaled_final/0904_rv.mp4	0.0	232.6412069797516	
44	208.0558500289917	fix_post	2		12	42.0	2.5	/experiments/knapen_AOT/AOT_stimuli/rescaled_final/0904_rv.mp4	0.0	232.75757598876953	0.10002803802490234
45	208.1558780670166	fix_pre	0		120	43.0	2.5	/experiments/knapen_AOT/AOT_stimuli/rescaled_final/0287_fw.mp4	0.0	232.85760402679443	1.0001060962677002
45	209.1559841632843	movie	1		243	43.0	2.5	/experiments/knapen_AOT/AOT_stimuli/rescaled_final/0287_fw.mp4	0.0	233.85771012306213	2.4920778274536133
45	209.53992795944214	pulse	1	t		43.0	2.5	/experiments/knapen_AOT/AOT_stimuli/rescaled_final/0287_fw.mp4	0.0	234.24165391921997	
45	211.1399371623993	pulse	1	t		43.0	2.5	/experiments/knapen_AOT/AOT_stimuli/rescaled_final/0287_fw.mp4	0.0	235.84166312217712	
45	211.64806199073792	fix_post	2		12	43.0	2.5	/experiments/knapen_AOT/AOT_stimuli/rescaled_final/0287_fw.mp4	0.0	236.34978795051575	0.1000220775604248
46	211.74808406829834	fix_pre	0		120	44.0	2.5	/experiments/knapen_AOT/AOT_stimuli/rescaled_final/1800_fw.mp4	0.0	236.44981002807617	1.0001769065856934
46	212.74012994766235	pulse	0	t		44.0	2.5	/experiments/knapen_AOT/AOT_stimuli/rescaled_final/1800_fw.mp4	0.0	237.44185590744019	
46	212.74826097488403	movie	1		245	44.0	2.5	/experiments/knapen_AOT/AOT_stimuli/rescaled_final/1800_fw.mp4	0.0	237.44998693466187	2.508664131164551
46	214.34099411964417	pulse	1	t		44.0	2.5	/experiments/knapen_AOT/AOT_stimuli/rescaled_final/1800_fw.mp4	0.0	239.042720079422	
46	215.25692510604858	fix_post	2		12	44.0	2.5	/experiments/knapen_AOT/AOT_stimuli/rescaled_final/1800_fw.mp4	0.0	239.95865106582642	0.10003805160522461
47	215.3569631576538	fix_pre	0		120	45.0	2.5	/experiments/knapen_AOT/AOT_stimuli/rescaled_final/0346_fw.mp4	0.0	240.05868911743164	1.0002038478851318
47	215.94057202339172	pulse	0	t		45.0	2.5	/experiments/knapen_AOT/AOT_stimuli/rescaled_final/0346_fw.mp4	0.0	240.64229798316956	
47	216.35716700553894	movie	1		245	45.0	2.5	/experiments/knapen_AOT/AOT_stimuli/rescaled_final/0346_fw.mp4	0.0	241.05889296531677	2.50034499168396
47	217.5409619808197	pulse	1	t		45.0	2.5	/experiments/knapen_AOT/AOT_stimuli/rescaled_final/0346_fw.mp4	0.0	242.24268794059753	
47	218.8575119972229	fix_post	2		12	45.0	2.5	/experiments/knapen_AOT/AOT_stimuli/rescaled_final/0346_fw.mp4	0.0	243.55923795700073	0.09995603561401367
48	218.9574680328369	fix_pre	0		120	46.0	2.5	/experiments/knapen_AOT/AOT_stimuli/rescaled_final/2170_fw.mp4	0.0	243.65919399261475	1.0001459121704102
48	219.1410870552063	pulse	0	t		46.0	2.5	/experiments/knapen_AOT/AOT_stimuli/rescaled_final/2170_fw.mp4	0.0	243.84281301498413	
48	219.95761394500732	movie	1		245	46.0	2.5	/experiments/knapen_AOT/AOT_stimuli/rescaled_final/2170_fw.mp4	0.0	244.65933990478516	2.5004141330718994
48	220.7413821220398	pulse	1	t		46.0	2.5	/experiments/knapen_AOT/AOT_stimuli/rescaled_final/2170_fw.mp4	0.0	245.44310808181763	
48	222.3391239643097	pulse	1	t		46.0	2.5	/experiments/knapen_AOT/AOT_stimuli/rescaled_final/2170_fw.mp4	0.0	247.04084992408752	
48	222.45802807807922	fix_post	2		12	46.0	2.5	/experiments/knapen_AOT/AOT_stimuli/rescaled_final/2170_fw.mp4	0.0	247.15975403785706	0.09995889663696289
49	222.5579869747162	fix_pre	0		119	47.0	2.5	/experiments/knapen_AOT/AOT_stimuli/rescaled_final/1970_fw.mp4	0.0	247.25971293449402	0.9918551445007324
49	223.54984211921692	movie	1		245	47.0	2.5	/experiments/knapen_AOT/AOT_stimuli/rescaled_final/1970_fw.mp4	0.0	248.25156807899475	2.500363826751709
49	223.94193696975708	pulse	1	t		47.0	2.5	/experiments/knapen_AOT/AOT_stimuli/rescaled_final/1970_fw.mp4	0.0	248.6436629295349	
49	225.5347399711609	pulse	1	t		47.0	2.5	/experiments/knapen_AOT/AOT_stimuli/rescaled_final/1970_fw.mp4	0.0	250.23646593093872	
49	226.05020594596863	fix_post	2		12	47.0	2.5	/experiments/knapen_AOT/AOT_stimuli/rescaled_final/1970_fw.mp4	0.0	250.75193190574646	0.10002899169921875
50	226.15023493766785	fix_pre	0		120	48.0	2.5	/experiments/knapen_AOT/AOT_stimuli/rescaled_final/1462_fw.mp4	0.0	250.85196089744568	1.000143051147461
50	227.13479709625244	pulse	0	t		48.0	2.5	/experiments/knapen_AOT/AOT_stimuli/rescaled_final/1462_fw.mp4	0.0	251.83652305603027	
50	227.1503779888153	movie	1		249	48.0	2.5	/experiments/knapen_AOT/AOT_stimuli/rescaled_final/1462_fw.mp4	0.0	251.85210394859314	2.5087361335754395
50	228.74306297302246	pulse	1	t		48.0	2.5	/experiments/knapen_AOT/AOT_stimuli/rescaled_final/1462_fw.mp4	0.0	253.4447889328003	
50	229.65911412239075	fix_post	2		12	48.0	2.5	/experiments/knapen_AOT/AOT_stimuli/rescaled_final/1462_fw.mp4	0.0	254.36084008216858	0.09997797012329102
51	229.75909209251404	fix_pre	0		120	49.0	2.5	blank	1.0	254.46081805229187	1.0001609325408936
51	230.33515810966492	pulse	0	t		49.0	2.5	blank	1.0	255.03688406944275	
51	230.75925302505493	movie	1		300	49.0	2.5	blank	1.0	255.46097898483276	2.5004160404205322
51	231.93545293807983	pulse	1	t		49.0	2.5	blank	1.0	256.63717889785767	
51	233.25966906547546	fix_post	2		12	49.0	2.5	blank	1.0	257.9613950252533	0.09995508193969727
52	233.35962414741516	fix_pre	0		120	50.0	2.5	/experiments/knapen_AOT/AOT_stimuli/rescaled_final/1990_rv.mp4	0.0	258.061350107193	1.00016188621521
52	233.53489208221436	pulse	0	t		50.0	2.5	/experiments/knapen_AOT/AOT_stimuli/rescaled_final/1990_rv.mp4	0.0	258.2366180419922	
52	234.35978603363037	movie	1		245	50.0	2.5	/experiments/knapen_AOT/AOT_stimuli/rescaled_final/1990_rv.mp4	0.0	259.0615119934082	2.5003468990325928
52	235.13505816459656	pulse	1	t		50.0	2.5	/experiments/knapen_AOT/AOT_stimuli/rescaled_final/1990_rv.mp4	0.0	259.8367841243744	
52	236.73528599739075	pulse	1	t		50.0	2.5	/experiments/knapen_AOT/AOT_stimuli/rescaled_final/1990_rv.mp4	0.0	261.4370119571686	
52	236.86013293266296	fix_post	2		12	50.0	2.5	/experiments/knapen_AOT/AOT_stimuli/rescaled_final/1990_rv.mp4	0.0	261.5618588924408	0.10003519058227539
53	236.96016812324524	fix_pre	0		119	51.0	2.5	/experiments/knapen_AOT/AOT_stimuli/rescaled_final/0486_fw.mp4	0.0	261.66189408302307	0.9917960166931152
53	237.95196413993835	movie	1		246	51.0	2.5	/experiments/knapen_AOT/AOT_stimuli/rescaled_final/0486_fw.mp4	0.0	262.6536900997162	2.500393867492676
53	238.3401620388031	pulse	1	t		51.0	2.5	/experiments/knapen_AOT/AOT_stimuli/rescaled_final/0486_fw.mp4	0.0	263.04188799858093	
53	239.935889005661	pulse	1	t		51.0	2.5	/experiments/knapen_AOT/AOT_stimuli/rescaled_final/0486_fw.mp4	0.0	264.63761496543884	
53	240.45235800743103	fix_post	2		12	51.0	2.5	/experiments/knapen_AOT/AOT_stimuli/rescaled_final/0486_fw.mp4	0.0	265.15408396720886	0.1000509262084961
54	240.55240893363953	fix_pre	0		119	52.0	2.5	/experiments/knapen_AOT/AOT_stimuli/rescaled_final/1070_fw.mp4	0.0	265.25413489341736	0.9917910099029541
54	241.5361030101776	pulse	0	t		52.0	2.5	/experiments/knapen_AOT/AOT_stimuli/rescaled_final/1070_fw.mp4	0.0	266.23782896995544	
54	241.54419994354248	movie	1		245	52.0	2.5	/experiments/knapen_AOT/AOT_stimuli/rescaled_final/1070_fw.mp4	0.0	266.2459259033203	2.50872802734375
54	243.13698601722717	pulse	1	t		52.0	2.5	/experiments/knapen_AOT/AOT_stimuli/rescaled_final/1070_fw.mp4	0.0	267.838711977005	
54	244.05292797088623	fix_post	2		12	52.0	2.5	/experiments/knapen_AOT/AOT_stimuli/rescaled_final/1070_fw.mp4	0.0	268.75465393066406	0.10000300407409668
55	244.15293097496033	fix_pre	0		120	53.0	2.5	/experiments/knapen_AOT/AOT_stimuli/rescaled_final/0652_rv.mp4	0.0	268.85465693473816	1.0001440048217773
55	244.73656797409058	pulse	0	t		53.0	2.5	/experiments/knapen_AOT/AOT_stimuli/rescaled_final/0652_rv.mp4	0.0	269.4382939338684	
55	245.1530749797821	movie	1		244	53.0	2.5	/experiments/knapen_AOT/AOT_stimuli/rescaled_final/0652_rv.mp4	0.0	269.85480093955994	2.5003550052642822
55	246.33685994148254	pulse	1	t		53.0	2.5	/experiments/knapen_AOT/AOT_stimuli/rescaled_final/0652_rv.mp4	0.0	271.0385859012604	
55	247.6534299850464	fix_post	2		12	53.0	2.5	/experiments/knapen_AOT/AOT_stimuli/rescaled_final/0652_rv.mp4	0.0	272.3551559448242	0.1000211238861084
56	247.7534511089325	fix_pre	0		120	54.0	2.5	/experiments/knapen_AOT/AOT_stimuli/rescaled_final/0863_fw.mp4	0.0	272.4551770687103	1.0001418590545654
56	247.93709015846252	pulse	0	t		54.0	2.5	/experiments/knapen_AOT/AOT_stimuli/rescaled_final/0863_fw.mp4	0.0	272.63881611824036	
56	248.75359296798706	movie	1		244	54.0	2.5	/experiments/knapen_AOT/AOT_stimuli/rescaled_final/0863_fw.mp4	0.0	273.4553189277649	2.5003960132598877
56	249.53726315498352	pulse	1	t		54.0	2.5	/experiments/knapen_AOT/AOT_stimuli/rescaled_final/0863_fw.mp4	0.0	274.23898911476135	
56	251.13745093345642	pulse	1	t		54.0	2.5	/experiments/knapen_AOT/AOT_stimuli/rescaled_final/0863_fw.mp4	0.0	275.83917689323425	
56	251.25398898124695	fix_post	2		12	54.0	2.5	/experiments/knapen_AOT/AOT_stimuli/rescaled_final/0863_fw.mp4	0.0	275.9557149410248	0.100006103515625
57	251.35399508476257	fix_pre	0		120	55.0	2.5	/experiments/knapen_AOT/AOT_stimuli/rescaled_final/1059_fw.mp4	0.0	276.0557210445404	1.000335931777954
57	252.35433101654053	movie	1		241	55.0	2.5	/experiments/knapen_AOT/AOT_stimuli/rescaled_final/1059_fw.mp4	0.0	277.05605697631836	2.491848945617676
57	252.73825812339783	pulse	1	t		55.0	2.5	/experiments/knapen_AOT/AOT_stimuli/rescaled_final/1059_fw.mp4	0.0	277.43998408317566	
57	254.33802199363708	pulse	1	t		55.0	2.5	/experiments/knapen_AOT/AOT_stimuli/rescaled_final/1059_fw.mp4	0.0	279.0397479534149	
57	254.8461799621582	fix_post	2		12	55.0	2.5	/experiments/knapen_AOT/AOT_stimuli/rescaled_final/1059_fw.mp4	0.0	279.54790592193604	0.09997701644897461
58	254.94615697860718	fix_pre	0		120	56.0	2.5	blank	1.0	279.647882938385	1.0001800060272217
58	255.93821811676025	pulse	0	t		56.0	2.5	blank	1.0	280.6399440765381	
58	255.9463369846344	movie	1		301	56.0	2.5	blank	1.0	280.64806294441223	2.508711099624634
58	257.53846406936646	pulse	1	t		56.0	2.5	blank	1.0	282.2401900291443	
58	258.45504808425903	fix_post	2		12	56.0	2.5	blank	1.0	283.15677404403687	0.10000085830688477
59	258.5550489425659	fix_pre	0		120	57.0	2.5	/experiments/knapen_AOT/AOT_stimuli/rescaled_final/0789_rv.mp4	0.0	283.25677490234375	1.0001380443572998
59	259.13870215415955	pulse	0	t		57.0	2.5	/experiments/knapen_AOT/AOT_stimuli/rescaled_final/0789_rv.mp4	0.0	283.8404281139374	
59	259.5551869869232	movie	1		245	57.0	2.5	/experiments/knapen_AOT/AOT_stimuli/rescaled_final/0789_rv.mp4	0.0	284.25691294670105	2.5004570484161377
59	260.7390789985657	pulse	1	t		57.0	2.5	/experiments/knapen_AOT/AOT_stimuli/rescaled_final/0789_rv.mp4	0.0	285.4408049583435	
59	262.05564403533936	fix_post	2		12	57.0	2.5	/experiments/knapen_AOT/AOT_stimuli/rescaled_final/0789_rv.mp4	0.0	286.7573699951172	0.09995293617248535
60	262.15559697151184	fix_pre	0		120	58.0	2.5	/experiments/knapen_AOT/AOT_stimuli/rescaled_final/0859_rv.mp4	0.0	286.8573229312897	1.0001301765441895
60	262.3391320705414	pulse	0	t		58.0	2.5	/experiments/knapen_AOT/AOT_stimuli/rescaled_final/0859_rv.mp4	0.0	287.0408580303192	
60	263.15572714805603	movie	1		244	58.0	2.5	/experiments/knapen_AOT/AOT_stimuli/rescaled_final/0859_rv.mp4	0.0	287.85745310783386	2.5003719329833984
60	263.93944215774536	pulse	1	t		58.0	2.5	/experiments/knapen_AOT/AOT_stimuli/rescaled_final/0859_rv.mp4	0.0	288.6411681175232	
60	265.5398850440979	pulse	1	t		58.0	2.5	/experiments/knapen_AOT/AOT_stimuli/rescaled_final/0859_rv.mp4	0.0	290.24161100387573	
60	265.65609908103943	fix_post	2		12	58.0	2.5	/experiments/knapen_AOT/AOT_stimuli/rescaled_final/0859_rv.mp4	0.0	290.35782504081726	0.10003399848937988
61	265.7561330795288	fix_pre	0		120	59.0	2.5	/experiments/knapen_AOT/AOT_stimuli/rescaled_final/1498_rv.mp4	0.0	290.45785903930664	1.0001680850982666
61	266.7563011646271	movie	1		243	59.0	2.5	/experiments/knapen_AOT/AOT_stimuli/rescaled_final/1498_rv.mp4	0.0	291.4580271244049	2.49206280708313
61	267.1411621570587	pulse	1	t		59.0	2.5	/experiments/knapen_AOT/AOT_stimuli/rescaled_final/1498_rv.mp4	0.0	291.84288811683655	
61	268.74014616012573	pulse	1	t		59.0	2.5	/experiments/knapen_AOT/AOT_stimuli/rescaled_final/1498_rv.mp4	0.0	293.44187211990356	
61	269.2483639717102	fix_post	2		12	59.0	2.5	/experiments/knapen_AOT/AOT_stimuli/rescaled_final/1498_rv.mp4	0.0	293.95008993148804	0.09996604919433594
62	269.34833002090454	fix_pre	0		120	60.0	2.5	/experiments/knapen_AOT/AOT_stimuli/rescaled_final/0985_fw.mp4	0.0	294.0500559806824	1.0001659393310547
62	270.3403551578522	pulse	0	t		60.0	2.5	/experiments/knapen_AOT/AOT_stimuli/rescaled_final/0985_fw.mp4	0.0	295.04208111763	
62	270.3484959602356	movie	1		246	60.0	2.5	/experiments/knapen_AOT/AOT_stimuli/rescaled_final/0985_fw.mp4	0.0	295.0502219200134	2.508709192276001
62	271.941162109375	pulse	1	t		60.0	2.5	/experiments/knapen_AOT/AOT_stimuli/rescaled_final/0985_fw.mp4	0.0	296.64288806915283	
62	272.8572051525116	fix_post	2		12	60.0	2.5	/experiments/knapen_AOT/AOT_stimuli/rescaled_final/0985_fw.mp4	0.0	297.55893111228943	0.10004091262817383
63	272.95724606513977	fix_pre	0		120	61.0	2.5	/experiments/knapen_AOT/AOT_stimuli/rescaled_final/0562_rv.mp4	0.0	297.6589720249176	1.0001120567321777
63	273.54086112976074	pulse	0	t		61.0	2.5	/experiments/knapen_AOT/AOT_stimuli/rescaled_final/0562_rv.mp4	0.0	298.2425870895386	
63	273.95735812187195	movie	1		247	61.0	2.5	/experiments/knapen_AOT/AOT_stimuli/rescaled_final/0562_rv.mp4	0.0	298.6590840816498	2.5004398822784424
63	275.14131903648376	pulse	1	t		61.0	2.5	/experiments/knapen_AOT/AOT_stimuli/rescaled_final/0562_rv.mp4	0.0	299.8430449962616	
63	276.4577980041504	fix_post	2		12	61.0	2.5	/experiments/knapen_AOT/AOT_stimuli/rescaled_final/0562_rv.mp4	0.0	301.1595239639282	0.09995913505554199
64	276.55775713920593	fix_pre	0		120	62.0	2.5	blank	1.0	301.25948309898376	1.0001208782196045
64	276.74139308929443	pulse	0	t		62.0	2.5	blank	1.0	301.44311904907227	
64	277.55787801742554	movie	1		300	62.0	2.5	blank	1.0	302.25960397720337	2.5003950595855713
64	278.3415939807892	pulse	1	t		62.0	2.5	blank	1.0	303.043319940567	
64	279.9343650341034	pulse	1	t		62.0	2.5	blank	1.0	304.6360909938812	
64	280.0582730770111	fix_post	2		12	62.0	2.5	blank	1.0	304.75999903678894	0.1000819206237793
65	280.1583549976349	fix_pre	0		120	63.0	2.5	/experiments/knapen_AOT/AOT_stimuli/rescaled_final/0242_fw.mp4	0.0	304.8600809574127	1.0000920295715332
65	281.1584470272064	movie	1		245	63.0	2.5	/experiments/knapen_AOT/AOT_stimuli/rescaled_final/0242_fw.mp4	0.0	305.86017298698425	2.492013931274414
65	281.5427360534668	pulse	1	t		63.0	2.5	/experiments/knapen_AOT/AOT_stimuli/rescaled_final/0242_fw.mp4	0.0	306.24446201324463	
65	283.1351330280304	pulse	1	t		63.0	2.5	/experiments/knapen_AOT/AOT_stimuli/rescaled_final/0242_fw.mp4	0.0	307.8368589878082	
65	283.65046095848083	fix_post	2		12	63.0	2.5	/experiments/knapen_AOT/AOT_stimuli/rescaled_final/0242_fw.mp4	0.0	308.35218691825867	0.10001707077026367
66	283.7504780292511	fix_pre	0		120	64.0	2.5	/experiments/knapen_AOT/AOT_stimuli/rescaled_final/1813_fw.mp4	0.0	308.45220398902893	1.0001640319824219
66	284.73494815826416	pulse	0	t		64.0	2.5	/experiments/knapen_AOT/AOT_stimuli/rescaled_final/1813_fw.mp4	0.0	309.436674118042	
66	284.7506420612335	movie	1		246	64.0	2.5	/experiments/knapen_AOT/AOT_stimuli/rescaled_final/1813_fw.mp4	0.0	309.45236802101135	2.5087509155273438
66	286.3343620300293	pulse	1	t		64.0	2.5	/experiments/knapen_AOT/AOT_stimuli/rescaled_final/1813_fw.mp4	0.0	311.03608798980713	
66	287.25939297676086	fix_post	2		12	64.0	2.5	/experiments/knapen_AOT/AOT_stimuli/rescaled_final/1813_fw.mp4	0.0	311.9611189365387	0.09995698928833008
67	287.3593499660492	fix_pre	0		120	65.0	2.5	/experiments/knapen_AOT/AOT_stimuli/rescaled_final/1353_fw.mp4	0.0	312.061075925827	1.0001521110534668
67	287.934592962265	pulse	0	t		65.0	2.5	/experiments/knapen_AOT/AOT_stimuli/rescaled_final/1353_fw.mp4	0.0	312.63631892204285	
67	288.35950207710266	movie	1		244	65.0	2.5	/experiments/knapen_AOT/AOT_stimuli/rescaled_final/1353_fw.mp4	0.0	313.0612280368805	2.500403881072998
67	289.5356810092926	pulse	1	t		65.0	2.5	/experiments/knapen_AOT/AOT_stimuli/rescaled_final/1353_fw.mp4	0.0	314.23740696907043	
67	290.85990595817566	fix_post	2		12	65.0	2.5	/experiments/knapen_AOT/AOT_stimuli/rescaled_final/1353_fw.mp4	0.0	315.5616319179535	0.0999610424041748
68	290.95986700057983	fix_pre	0		120	66.0	2.5	/experiments/knapen_AOT/AOT_stimuli/rescaled_final/0851_fw.mp4	0.0	315.66159296035767	1.0001699924468994
68	291.1351659297943	pulse	0	t		66.0	2.5	/experiments/knapen_AOT/AOT_stimuli/rescaled_final/0851_fw.mp4	0.0	315.83689188957214	
68	291.96003699302673	movie	1		244	66.0	2.5	/experiments/knapen_AOT/AOT_stimuli/rescaled_final/0851_fw.mp4	0.0	316.66176295280457	2.5003809928894043
68	292.73540806770325	pulse	1	t		66.0	2.5	/experiments/knapen_AOT/AOT_stimuli/rescaled_final/0851_fw.mp4	0.0	317.4371340274811	
68	294.33570313453674	pulse	1	t		66.0	2.5	/experiments/knapen_AOT/AOT_stimuli/rescaled_final/0851_fw.mp4	0.0	319.0374290943146	
68	294.46041798591614	fix_post	2		12	66.0	2.5	/experiments/knapen_AOT/AOT_stimuli/rescaled_final/0851_fw.mp4	0.0	319.16214394569397	0.10014605522155762
69	294.5605640411377	fix_pre	0		120	67.0	2.5	/experiments/knapen_AOT/AOT_stimuli/rescaled_final/1418_fw.mp4	0.0	319.2622900009155	1.0000629425048828
69	295.5606269836426	movie	1		244	67.0	2.5	/experiments/knapen_AOT/AOT_stimuli/rescaled_final/1418_fw.mp4	0.0	320.2623529434204	2.492033004760742
69	295.9358539581299	pulse	1	t		67.0	2.5	/experiments/knapen_AOT/AOT_stimuli/rescaled_final/1418_fw.mp4	0.0	320.6375799179077	
69	297.53614711761475	pulse	1	t		67.0	2.5	/experiments/knapen_AOT/AOT_stimuli/rescaled_final/1418_fw.mp4	0.0	322.2378730773926	
69	298.0526599884033	fix_post	2		12	67.0	2.5	/experiments/knapen_AOT/AOT_stimuli/rescaled_final/1418_fw.mp4	0.0	322.75438594818115	0.09998607635498047
70	298.1526460647583	fix_pre	0		119	68.0	2.5	/experiments/knapen_AOT/AOT_stimuli/rescaled_final/0335_rv.mp4	0.0	322.85437202453613	0.9918320178985596
70	299.13628101348877	pulse	0	t		68.0	2.5	/experiments/knapen_AOT/AOT_stimuli/rescaled_final/0335_rv.mp4	0.0	323.8380069732666	
70	299.14447808265686	movie	1		245	68.0	2.5	/experiments/knapen_AOT/AOT_stimuli/rescaled_final/0335_rv.mp4	0.0	323.8462040424347	2.5086889266967773
70	300.73699712753296	pulse	1	t		68.0	2.5	/experiments/knapen_AOT/AOT_stimuli/rescaled_final/0335_rv.mp4	0.0	325.4387230873108	
70	301.65316700935364	fix_post	2		12	68.0	2.5	/experiments/knapen_AOT/AOT_stimuli/rescaled_final/0335_rv.mp4	0.0	326.35489296913147	0.09998297691345215
71	301.7531499862671	fix_pre	0		120	69.0	2.5	blank	1.0	326.4548759460449	1.0001630783081055
71	302.3369059562683	pulse	0	t		69.0	2.5	blank	1.0	327.03863191604614	
71	302.7533130645752	movie	1		300	69.0	2.5	blank	1.0	327.455039024353	2.5004489421844482
71	303.93704104423523	pulse	1	t		69.0	2.5	blank	1.0	328.63876700401306	
71	305.25376200675964	fix_post	2		12	69.0	2.5	blank	1.0	329.9554879665375	0.0999760627746582
72	305.3537380695343	fix_pre	0		120	70.0	2.5	/experiments/knapen_AOT/AOT_stimuli/rescaled_final/0322_rv.mp4	0.0	330.05546402931213	1.000148057937622
72	305.53740310668945	pulse	0	t		70.0	2.5	/experiments/knapen_AOT/AOT_stimuli/rescaled_final/0322_rv.mp4	0.0	330.2391290664673	
72	306.3538861274719	movie	1		245	70.0	2.5	/experiments/knapen_AOT/AOT_stimuli/rescaled_final/0322_rv.mp4	0.0	331.05561208724976	2.5003879070281982
72	307.13760209083557	pulse	1	t		70.0	2.5	/experiments/knapen_AOT/AOT_stimuli/rescaled_final/0322_rv.mp4	0.0	331.8393280506134	
72	308.73540711402893	pulse	1	t		70.0	2.5	/experiments/knapen_AOT/AOT_stimuli/rescaled_final/0322_rv.mp4	0.0	333.43713307380676	
72	308.8542740345001	fix_post	2		12	70.0	2.5	/experiments/knapen_AOT/AOT_stimuli/rescaled_final/0322_rv.mp4	0.0	333.55599999427795	0.09994292259216309
73	308.9542169570923	fix_pre	0		119	71.0	2.5	/experiments/knapen_AOT/AOT_stimuli/rescaled_final/1733_fw.mp4	0.0	333.6559429168701	0.9918651580810547
73	309.94608211517334	movie	1		246	71.0	2.5	/experiments/knapen_AOT/AOT_stimuli/rescaled_final/1733_fw.mp4	0.0	334.6478080749512	2.5003838539123535
73	310.33807396888733	pulse	1	t		71.0	2.5	/experiments/knapen_AOT/AOT_stimuli/rescaled_final/1733_fw.mp4	0.0	335.03979992866516	
73	311.93828296661377	pulse	1	t		71.0	2.5	/experiments/knapen_AOT/AOT_stimuli/rescaled_final/1733_fw.mp4	0.0	336.6400089263916	
73	312.4464659690857	fix_post	2		12	71.0	2.5	/experiments/knapen_AOT/AOT_stimuli/rescaled_final/1733_fw.mp4	0.0	337.1481919288635	0.09997415542602539
74	312.5464401245117	fix_pre	0		120	72.0	2.5	/experiments/knapen_AOT/AOT_stimuli/rescaled_final/0852_rv.mp4	0.0	337.24816608428955	1.0001628398895264
74	313.5385320186615	pulse	0	t		72.0	2.5	/experiments/knapen_AOT/AOT_stimuli/rescaled_final/0852_rv.mp4	0.0	338.24025797843933	
74	313.54660296440125	movie	1		242	72.0	2.5	/experiments/knapen_AOT/AOT_stimuli/rescaled_final/0852_rv.mp4	0.0	338.2483289241791	2.508697986602783
74	315.13974714279175	pulse	1	t		72.0	2.5	/experiments/knapen_AOT/AOT_stimuli/rescaled_final/0852_rv.mp4	0.0	339.8414731025696	
74	316.055300951004	fix_post	2		12	72.0	2.5	/experiments/knapen_AOT/AOT_stimuli/rescaled_final/0852_rv.mp4	0.0	340.75702691078186	0.09999918937683105
75	316.15530014038086	fix_pre	0		120	73.0	2.5	/experiments/knapen_AOT/AOT_stimuli/rescaled_final/0176_fw.mp4	0.0	340.8570261001587	1.000196933746338
75	316.73899698257446	pulse	0	t		73.0	2.5	/experiments/knapen_AOT/AOT_stimuli/rescaled_final/0176_fw.mp4	0.0	341.4407229423523	
75	317.1554970741272	movie	1		244	73.0	2.5	/experiments/knapen_AOT/AOT_stimuli/rescaled_final/0176_fw.mp4	0.0	341.85722303390503	2.5003650188446045
75	318.3392951488495	pulse	1	t		73.0	2.5	/experiments/knapen_AOT/AOT_stimuli/rescaled_final/0176_fw.mp4	0.0	343.0410211086273	
75	319.6558620929718	fix_post	2		12	73.0	2.5	/experiments/knapen_AOT/AOT_stimuli/rescaled_final/0176_fw.mp4	0.0	344.35758805274963	0.0999898910522461
76	319.75585198402405	fix_pre	0		120	74.0	2.5	/experiments/knapen_AOT/AOT_stimuli/rescaled_final/0187_fw.mp4	0.0	344.4575779438019	1.0001499652862549
76	319.9395251274109	pulse	0	t		74.0	2.5	/experiments/knapen_AOT/AOT_stimuli/rescaled_final/0187_fw.mp4	0.0	344.6412510871887	
76	320.7560019493103	movie	1		246	74.0	2.5	/experiments/knapen_AOT/AOT_stimuli/rescaled_final/0187_fw.mp4	0.0	345.45772790908813	2.5004231929779053
76	321.5397551059723	pulse	1	t		74.0	2.5	/experiments/knapen_AOT/AOT_stimuli/rescaled_final/0187_fw.mp4	0.0	346.2414810657501	
76	323.1401960849762	pulse	1	t		74.0	2.5	/experiments/knapen_AOT/AOT_stimuli/rescaled_final/0187_fw.mp4	0.0	347.841922044754	
76	323.2564251422882	fix_post	2		12	74.0	2.5	/experiments/knapen_AOT/AOT_stimuli/rescaled_final/0187_fw.mp4	0.0	347.95815110206604	0.10001492500305176
77	323.35644006729126	fix_pre	0		120	75.0	2.5	/experiments/knapen_AOT/AOT_stimuli/rescaled_final/0623_rv.mp4	0.0	348.0581660270691	1.000180959701538
77	324.3566210269928	movie	1		243	75.0	2.5	/experiments/knapen_AOT/AOT_stimuli/rescaled_final/0623_rv.mp4	0.0	349.05834698677063	2.491956949234009
77	324.74061393737793	pulse	1	t		75.0	2.5	/experiments/knapen_AOT/AOT_stimuli/rescaled_final/0623_rv.mp4	0.0	349.44233989715576	
77	326.34047508239746	pulse	1	t		75.0	2.5	/experiments/knapen_AOT/AOT_stimuli/rescaled_final/0623_rv.mp4	0.0	351.0422010421753	
77	326.8485779762268	fix_post	2		12	75.0	2.5	/experiments/knapen_AOT/AOT_stimuli/rescaled_final/0623_rv.mp4	0.0	351.55030393600464	0.10004496574401855
78	326.9486229419708	fix_pre	0		120	76.0	2.5	/experiments/knapen_AOT/AOT_stimuli/rescaled_final/0514_rv.mp4	0.0	351.65034890174866	1.0001590251922607
78	327.9406671524048	pulse	0	t		76.0	2.5	/experiments/knapen_AOT/AOT_stimuli/rescaled_final/0514_rv.mp4	0.0	352.6423931121826	
78	327.9487819671631	movie	1		246	76.0	2.5	/experiments/knapen_AOT/AOT_stimuli/rescaled_final/0514_rv.mp4	0.0	352.6505079269409	2.5086560249328613
78	329.541344165802	pulse	1	t		76.0	2.5	/experiments/knapen_AOT/AOT_stimuli/rescaled_final/0514_rv.mp4	0.0	354.24307012557983	
78	330.45743799209595	fix_post	2		12	76.0	2.5	/experiments/knapen_AOT/AOT_stimuli/rescaled_final/0514_rv.mp4	0.0	355.1591639518738	0.10002493858337402
79	330.5574629306793	fix_pre	0		120	77.0	2.5	blank	1.0	355.25918889045715	1.0001640319824219
79	331.141135931015	pulse	0	t		77.0	2.5	blank	1.0	355.84286189079285	
79	331.55762696266174	movie	1		300	77.0	2.5	blank	1.0	356.2593529224396	2.5003581047058105
79	332.741317987442	pulse	1	t		77.0	2.5	blank	1.0	357.44304394721985	
79	334.05798506736755	fix_post	2		12	77.0	2.5	blank	1.0	358.7597110271454	0.1000208854675293
80	334.1580059528351	fix_pre	0		120	78.0	2.5	/experiments/knapen_AOT/AOT_stimuli/rescaled_final/1134_fw.mp4	0.0	358.8597319126129	1.0001389980316162
80	334.3416700363159	pulse	0	t		78.0	2.5	/experiments/knapen_AOT/AOT_stimuli/rescaled_final/1134_fw.mp4	0.0	359.04339599609375	
80	335.1581449508667	movie	1		245	78.0	2.5	/experiments/knapen_AOT/AOT_stimuli/rescaled_final/1134_fw.mp4	0.0	359.85987091064453	2.5003840923309326
80	335.94182109832764	pulse	1	t		78.0	2.5	/experiments/knapen_AOT/AOT_stimuli/rescaled_final/1134_fw.mp4	0.0	360.64354705810547	
80	337.5396361351013	pulse	1	t		78.0	2.5	/experiments/knapen_AOT/AOT_stimuli/rescaled_final/1134_fw.mp4	0.0	362.24136209487915	
80	337.65852904319763	fix_post	2		12	78.0	2.5	/experiments/knapen_AOT/AOT_stimuli/rescaled_final/1134_fw.mp4	0.0	362.36025500297546	0.10000395774841309
81	337.75853300094604	fix_pre	0		120	79.0	2.5	/experiments/knapen_AOT/AOT_stimuli/rescaled_final/1803_rv.mp4	0.0	362.4602589607239	1.0001389980316162
81	338.75867199897766	movie	1		243	79.0	2.5	/experiments/knapen_AOT/AOT_stimuli/rescaled_final/1803_rv.mp4	0.0	363.4603979587555	2.492063045501709
81	339.14301013946533	pulse	1	t		79.0	2.5	/experiments/knapen_AOT/AOT_stimuli/rescaled_final/1803_rv.mp4	0.0	363.84473609924316	
81	340.73523807525635	pulse	1	t		79.0	2.5	/experiments/knapen_AOT/AOT_stimuli/rescaled_final/1803_rv.mp4	0.0	365.4369640350342	
81	341.25073504447937	fix_post	2		12	79.0	2.5	/experiments/knapen_AOT/AOT_stimuli/rescaled_final/1803_rv.mp4	0.0	365.9524610042572	0.1000208854675293
82	341.3507559299469	fix_pre	0		120	80.0	2.5	/experiments/knapen_AOT/AOT_stimuli/rescaled_final/0456_rv.mp4	0.0	366.05248188972473	1.0001771450042725
82	342.3352270126343	pulse	0	t		80.0	2.5	/experiments/knapen_AOT/AOT_stimuli/rescaled_final/0456_rv.mp4	0.0	367.0369529724121	
82	342.3509330749512	movie	1		246	80.0	2.5	/experiments/knapen_AOT/AOT_stimuli/rescaled_final/0456_rv.mp4	0.0	367.052659034729	2.5087239742279053
82	343.94350600242615	pulse	1	t		80.0	2.5	/experiments/knapen_AOT/AOT_stimuli/rescaled_final/0456_rv.mp4	0.0	368.645231962204	
82	344.8596570491791	fix_post	2		12	80.0	2.5	/experiments/knapen_AOT/AOT_stimuli/rescaled_final/0456_rv.mp4	0.0	369.5613830089569	0.09993100166320801
83	344.9595880508423	fix_pre	0		120	81.0	2.5	/experiments/knapen_AOT/AOT_stimuli/rescaled_final/0796_rv.mp4	0.0	369.6613140106201	1.000204086303711
83	345.5358250141144	pulse	0	t		81.0	2.5	/experiments/knapen_AOT/AOT_stimuli/rescaled_final/0796_rv.mp4	0.0	370.2375509738922	
83	345.959792137146	movie	1		245	81.0	2.5	/experiments/knapen_AOT/AOT_stimuli/rescaled_final/0796_rv.mp4	0.0	370.6615180969238	2.5004019737243652
83	347.1358630657196	pulse	1	t		81.0	2.5	/experiments/knapen_AOT/AOT_stimuli/rescaled_final/0796_rv.mp4	0.0	371.83758902549744	
83	348.46019411087036	fix_post	2		12	81.0	2.5	/experiments/knapen_AOT/AOT_stimuli/rescaled_final/0796_rv.mp4	0.0	373.1619200706482	0.10000085830688477
84	348.56019496917725	fix_pre	0		120	82.0	2.5	/experiments/knapen_AOT/AOT_stimuli/rescaled_final/1262_fw.mp4	0.0	373.2619209289551	1.0001029968261719
84	348.7353811264038	pulse	0	t		82.0	2.5	/experiments/knapen_AOT/AOT_stimuli/rescaled_final/1262_fw.mp4	0.0	373.43710708618164	
84	349.5602979660034	movie	1		246	82.0	2.5	/experiments/knapen_AOT/AOT_stimuli/rescaled_final/1262_fw.mp4	0.0	374.26202392578125	2.5003550052642822
84	350.33559012413025	pulse	1	t		82.0	2.5	/experiments/knapen_AOT/AOT_stimuli/rescaled_final/1262_fw.mp4	0.0	375.0373160839081	
84	351.93606305122375	pulse	1	t		82.0	2.5	/experiments/knapen_AOT/AOT_stimuli/rescaled_final/1262_fw.mp4	0.0	376.6377890110016	
84	352.0606529712677	fix_post	2		12	82.0	2.5	/experiments/knapen_AOT/AOT_stimuli/rescaled_final/1262_fw.mp4	0.0	376.76237893104553	0.10003209114074707
85	352.16068506240845	fix_pre	0		119	83.0	2.5	blank	1.0	376.8624110221863	0.9918019771575928
85	353.15248703956604	movie	1		300	83.0	2.5	blank	1.0	377.8542129993439	2.5004050731658936
85	353.53608894348145	pulse	1	t		83.0	2.5	blank	1.0	378.2378149032593	
85	355.1362681388855	pulse	1	t		83.0	2.5	blank	1.0	379.83799409866333	
85	355.65289211273193	fix_post	2		12	83.0	2.5	blank	1.0	380.35461807250977	0.10000395774841309
87	355.75289607048035	stim	0		1716					380.4546220302582	14.302227020263672
87	356.73655009269714	pulse	0	t						381.438276052475	
87	358.33690905570984	pulse	0	t						383.03863501548767	
87	359.9370710849762	pulse	0	t						384.638797044754	
87	361.53732109069824	pulse	0	t						386.2390470504761	
87	363.1375470161438	pulse	0	t						387.83927297592163	
87	364.7376980781555	pulse	0	t						389.43942403793335	
87	366.3380410671234	pulse	0	t						391.03976702690125	
87	367.93817114830017	pulse	0	t						392.639897108078	
87	369.53852796554565	pulse	0	t						394.2402539253235	
