trial_nr	onset	event_type	phase	response	nr_frames	movie_index	movie_duration	movie_file	blank	onset_abs	duration
0	0.15816640853881836	stim	0		60					54.74201846122742	0.49988412857055664
0	0.6501266956329346	response	0	space						55.23397874832153	
1	0.658050537109375	stim	0		4632					55.241902589797974	38.616947174072266
1	39.2650420665741	pulse	0	t						93.8488941192627	
1	39.27499771118164	stim	1		1714					93.85884976387024	14.299342632293701
1	40.85598921775818	pulse	1	t						95.43984127044678	
1	42.456223487854004	pulse	1	t						97.0400755405426	
1	44.05649948120117	pulse	1	t						98.64035153388977	
1	45.65665054321289	pulse	1	t						100.24050259590149	
1	47.257049798965454	pulse	1	t						101.84090185165405	
1	48.85715317726135	pulse	1	t						103.44100522994995	
1	50.45743250846863	pulse	1	t						105.04128456115723	
1	52.05761671066284	pulse	1	t						106.64146876335144	
2	53.57434034347534	fix_pre	0		11	0.0	2.5	/experiments/Knapen_AOT/AOT_stimuli/rescaled_final/2060_fw.mp4	0.0	108.15819239616394	0.10839056968688965
2	53.6580126285553	pulse	0	t		0.0	2.5	/experiments/Knapen_AOT/AOT_stimuli/rescaled_final/2060_fw.mp4	0.0	108.2418646812439	
2	53.68273091316223	movie	1		273	0.0	2.5	/experiments/Knapen_AOT/AOT_stimuli/rescaled_final/2060_fw.mp4	0.0	108.26658296585083	2.49196195602417
2	55.25783038139343	pulse	1	t		0.0	2.5	/experiments/Knapen_AOT/AOT_stimuli/rescaled_final/2060_fw.mp4	0.0	109.84168243408203	
2	56.1746928691864	fix_post	2		12	0.0	2.5	/experiments/Knapen_AOT/AOT_stimuli/rescaled_final/2060_fw.mp4	0.0	110.758544921875	0.1000373363494873
3	56.27473020553589	fix_pre	0		120	1.0	2.5	/experiments/Knapen_AOT/AOT_stimuli/rescaled_final/0022_fw.mp4	0.0	110.85858225822449	1.0085413455963135
3	56.858466386795044	pulse	0	t		1.0	2.5	/experiments/Knapen_AOT/AOT_stimuli/rescaled_final/0022_fw.mp4	0.0	111.44231843948364	
3	57.2832715511322	movie	1		281	1.0	2.5	/experiments/Knapen_AOT/AOT_stimuli/rescaled_final/0022_fw.mp4	0.0	111.8671236038208	2.4919965267181396
3	58.45691227912903	pulse	1	t		1.0	2.5	/experiments/Knapen_AOT/AOT_stimuli/rescaled_final/0022_fw.mp4	0.0	113.04076433181763	
3	59.77526807785034	fix_post	2		12	1.0	2.5	/experiments/Knapen_AOT/AOT_stimuli/rescaled_final/0022_fw.mp4	0.0	114.35912013053894	0.10000920295715332
4	59.875277280807495	fix_pre	0		120	2.0	2.5	/experiments/Knapen_AOT/AOT_stimuli/rescaled_final/1639_rv.mp4	0.0	114.4591293334961	1.0085599422454834
4	60.05888533592224	pulse	0	t		2.0	2.5	/experiments/Knapen_AOT/AOT_stimuli/rescaled_final/1639_rv.mp4	0.0	114.64273738861084	
4	60.88383722305298	movie	1		275	2.0	2.5	/experiments/Knapen_AOT/AOT_stimuli/rescaled_final/1639_rv.mp4	0.0	115.46768927574158	2.4920270442962646
4	61.6572060585022	pulse	1	t		2.0	2.5	/experiments/Knapen_AOT/AOT_stimuli/rescaled_final/1639_rv.mp4	0.0	116.2410581111908	
4	63.2573778629303	pulse	1	t		2.0	2.5	/experiments/Knapen_AOT/AOT_stimuli/rescaled_final/1639_rv.mp4	0.0	117.8412299156189	
4	63.37586426734924	fix_post	2		12	2.0	2.5	/experiments/Knapen_AOT/AOT_stimuli/rescaled_final/1639_rv.mp4	0.0	117.95971632003784	0.09997820854187012
5	63.47584247589111	fix_pre	0		120	3.0	2.5	/experiments/Knapen_AOT/AOT_stimuli/rescaled_final/1447_fw.mp4	0.0	118.05969452857971	1.0085155963897705
5	64.48435807228088	movie	1		289	3.0	2.5	/experiments/Knapen_AOT/AOT_stimuli/rescaled_final/1447_fw.mp4	0.0	119.06821012496948	2.492021322250366
5	64.85790038108826	pulse	1	t		3.0	2.5	/experiments/Knapen_AOT/AOT_stimuli/rescaled_final/1447_fw.mp4	0.0	119.44175243377686	
5	66.45782351493835	pulse	1	t		3.0	2.5	/experiments/Knapen_AOT/AOT_stimuli/rescaled_final/1447_fw.mp4	0.0	121.04167556762695	
5	66.97637939453125	fix_post	2		12	3.0	2.5	/experiments/Knapen_AOT/AOT_stimuli/rescaled_final/1447_fw.mp4	0.0	121.56023144721985	0.10000061988830566
6	67.07638001441956	fix_pre	0		119	4.0	2.5	/experiments/Knapen_AOT/AOT_stimuli/rescaled_final/0425_rv.mp4	0.0	121.66023206710815	1.0002410411834717
6	68.06005597114563	pulse	0	t		4.0	2.5	/experiments/Knapen_AOT/AOT_stimuli/rescaled_final/0425_rv.mp4	0.0	122.64390802383423	
6	68.07662105560303	movie	1		272	4.0	2.5	/experiments/Knapen_AOT/AOT_stimuli/rescaled_final/0425_rv.mp4	0.0	122.66047310829163	2.5002686977386475
6	69.66142272949219	pulse	1	t		4.0	2.5	/experiments/Knapen_AOT/AOT_stimuli/rescaled_final/0425_rv.mp4	0.0	124.24527478218079	
6	70.57688975334167	fix_post	2		12	4.0	2.5	/experiments/Knapen_AOT/AOT_stimuli/rescaled_final/0425_rv.mp4	0.0	125.16074180603027	0.10001397132873535
7	70.67690372467041	fix_pre	0		120	5.0	2.5	/experiments/Knapen_AOT/AOT_stimuli/rescaled_final/0231_rv.mp4	0.0	125.26075577735901	1.008507490158081
7	71.2535309791565	pulse	0	t		5.0	2.5	/experiments/Knapen_AOT/AOT_stimuli/rescaled_final/0231_rv.mp4	0.0	125.83738303184509	
7	71.68541121482849	movie	1		286	5.0	2.5	/experiments/Knapen_AOT/AOT_stimuli/rescaled_final/0231_rv.mp4	0.0	126.26926326751709	2.4920542240142822
7	72.85951161384583	pulse	1	t		5.0	2.5	/experiments/Knapen_AOT/AOT_stimuli/rescaled_final/0231_rv.mp4	0.0	127.44336366653442	
7	74.17746543884277	fix_post	2		12	5.0	2.5	/experiments/Knapen_AOT/AOT_stimuli/rescaled_final/0231_rv.mp4	0.0	128.76131749153137	0.09998250007629395
8	74.27744793891907	fix_pre	0		120	6.0	2.5	/experiments/Knapen_AOT/AOT_stimuli/rescaled_final/1960_rv.mp4	0.0	128.86129999160767	1.0086591243743896
8	74.46115827560425	pulse	0	t		6.0	2.5	/experiments/Knapen_AOT/AOT_stimuli/rescaled_final/1960_rv.mp4	0.0	129.04501032829285	
8	75.28610706329346	movie	1		295	6.0	2.5	/experiments/Knapen_AOT/AOT_stimuli/rescaled_final/1960_rv.mp4	0.0	129.86995911598206	2.4918367862701416
8	76.05966687202454	pulse	1	t		6.0	2.5	/experiments/Knapen_AOT/AOT_stimuli/rescaled_final/1960_rv.mp4	0.0	130.64351892471313	
8	77.65357899665833	pulse	1	t		6.0	2.5	/experiments/Knapen_AOT/AOT_stimuli/rescaled_final/1960_rv.mp4	0.0	132.23743104934692	
8	77.7779438495636	fix_post	2		12	6.0	2.5	/experiments/Knapen_AOT/AOT_stimuli/rescaled_final/1960_rv.mp4	0.0	132.3617959022522	0.10001277923583984
9	77.87795662879944	fix_pre	0		120	7.0	2.5	blank	1.0	132.46180868148804	1.000272512435913
9	78.87822914123535	movie	1		300	7.0	2.5	blank	1.0	133.46208119392395	2.5002784729003906
9	79.25354266166687	pulse	1	t		7.0	2.5	blank	1.0	133.83739471435547	
9	80.8536524772644	pulse	1	t		7.0	2.5	blank	1.0	135.437504529953	
9	81.37850761413574	fix_post	2		12	7.0	2.5	blank	1.0	135.96235966682434	0.10003256797790527
10	81.47854018211365	fix_pre	0		118	8.0	2.5	/experiments/Knapen_AOT/AOT_stimuli/rescaled_final/0181_fw.mp4	0.0	136.06239223480225	0.992210865020752
10	82.45389986038208	pulse	0	t		8.0	2.5	/experiments/Knapen_AOT/AOT_stimuli/rescaled_final/0181_fw.mp4	0.0	137.03775191307068	
10	82.4707510471344	movie	1		293	8.0	2.5	/experiments/Knapen_AOT/AOT_stimuli/rescaled_final/0181_fw.mp4	0.0	137.054603099823	2.4999687671661377
10	84.05414032936096	pulse	1	t		8.0	2.5	/experiments/Knapen_AOT/AOT_stimuli/rescaled_final/0181_fw.mp4	0.0	138.63799238204956	
10	84.97071981430054	fix_post	2		12	8.0	2.5	/experiments/Knapen_AOT/AOT_stimuli/rescaled_final/0181_fw.mp4	0.0	139.55457186698914	0.10005521774291992
11	85.07077503204346	fix_pre	0		120	9.0	2.5	/experiments/Knapen_AOT/AOT_stimuli/rescaled_final/0611_fw.mp4	0.0	139.65462708473206	1.0084989070892334
11	85.65448951721191	pulse	0	t		9.0	2.5	/experiments/Knapen_AOT/AOT_stimuli/rescaled_final/0611_fw.mp4	0.0	140.2383415699005	
11	86.07927393913269	movie	1		288	9.0	2.5	/experiments/Knapen_AOT/AOT_stimuli/rescaled_final/0611_fw.mp4	0.0	140.6631259918213	2.4920151233673096
11	87.25461387634277	pulse	1	t		9.0	2.5	/experiments/Knapen_AOT/AOT_stimuli/rescaled_final/0611_fw.mp4	0.0	141.83846592903137	
11	88.5712890625	fix_post	2		12	9.0	2.5	/experiments/Knapen_AOT/AOT_stimuli/rescaled_final/0611_fw.mp4	0.0	143.1551411151886	0.0999910831451416
12	88.67128014564514	fix_pre	0		120	10.0	2.5	/experiments/Knapen_AOT/AOT_stimuli/rescaled_final/0797_fw.mp4	0.0	143.25513219833374	1.0084996223449707
12	88.85485649108887	pulse	0	t		10.0	2.5	/experiments/Knapen_AOT/AOT_stimuli/rescaled_final/0797_fw.mp4	0.0	143.43870854377747	
12	89.67977976799011	movie	1		272	10.0	2.5	/experiments/Knapen_AOT/AOT_stimuli/rescaled_final/0797_fw.mp4	0.0	144.2636318206787	2.4921512603759766
12	90.45509552955627	pulse	1	t		10.0	2.5	/experiments/Knapen_AOT/AOT_stimuli/rescaled_final/0797_fw.mp4	0.0	145.03894758224487	
12	92.05543828010559	pulse	1	t		10.0	2.5	/experiments/Knapen_AOT/AOT_stimuli/rescaled_final/0797_fw.mp4	0.0	146.6392903327942	
12	92.17193102836609	fix_post	2		12	10.0	2.5	/experiments/Knapen_AOT/AOT_stimuli/rescaled_final/0797_fw.mp4	0.0	146.7557830810547	0.09992790222167969
13	92.27185893058777	fix_pre	0		120	11.0	2.5	/experiments/Knapen_AOT/AOT_stimuli/rescaled_final/1642_fw.mp4	0.0	146.85571098327637	1.0084657669067383
13	93.2803246974945	movie	1		285	11.0	2.5	/experiments/Knapen_AOT/AOT_stimuli/rescaled_final/1642_fw.mp4	0.0	147.8641767501831	2.4920737743377686
13	93.65419411659241	pulse	1	t		11.0	2.5	/experiments/Knapen_AOT/AOT_stimuli/rescaled_final/1642_fw.mp4	0.0	148.238046169281	
13	95.25381779670715	pulse	1	t		11.0	2.5	/experiments/Knapen_AOT/AOT_stimuli/rescaled_final/1642_fw.mp4	0.0	149.83766984939575	
13	95.77239847183228	fix_post	2		12	11.0	2.5	/experiments/Knapen_AOT/AOT_stimuli/rescaled_final/1642_fw.mp4	0.0	150.35625052452087	0.10005426406860352
14	95.87245273590088	fix_pre	0		119	12.0	2.5	/experiments/Knapen_AOT/AOT_stimuli/rescaled_final/0190_rv.mp4	0.0	150.45630478858948	1.0001022815704346
14	96.8560836315155	pulse	0	t		12.0	2.5	/experiments/Knapen_AOT/AOT_stimuli/rescaled_final/0190_rv.mp4	0.0	151.4399356842041	
14	96.87255501747131	movie	1		281	12.0	2.5	/experiments/Knapen_AOT/AOT_stimuli/rescaled_final/0190_rv.mp4	0.0	151.4564070701599	2.5003104209899902
14	98.45488095283508	pulse	1	t		12.0	2.5	/experiments/Knapen_AOT/AOT_stimuli/rescaled_final/0190_rv.mp4	0.0	153.03873300552368	
14	99.3728654384613	fix_post	2		12	12.0	2.5	/experiments/Knapen_AOT/AOT_stimuli/rescaled_final/0190_rv.mp4	0.0	153.9567174911499	0.10004019737243652
15	99.47290563583374	fix_pre	0		120	13.0	2.5	/experiments/Knapen_AOT/AOT_stimuli/rescaled_final/0603_rv.mp4	0.0	154.05675768852234	1.0084879398345947
15	100.0566041469574	pulse	0	t		13.0	2.5	/experiments/Knapen_AOT/AOT_stimuli/rescaled_final/0603_rv.mp4	0.0	154.640456199646	
15	100.48139357566833	movie	1		286	13.0	2.5	/experiments/Knapen_AOT/AOT_stimuli/rescaled_final/0603_rv.mp4	0.0	155.06524562835693	2.492018461227417
15	101.6549723148346	pulse	1	t		13.0	2.5	/experiments/Knapen_AOT/AOT_stimuli/rescaled_final/0603_rv.mp4	0.0	156.2388243675232	
15	102.97341203689575	fix_post	2		12	13.0	2.5	/experiments/Knapen_AOT/AOT_stimuli/rescaled_final/0603_rv.mp4	0.0	157.55726408958435	0.10010051727294922
16	103.0735125541687	fix_pre	0		120	14.0	2.5	blank	1.0	157.6573646068573	1.0000898838043213
16	103.25733280181885	pulse	0	t		14.0	2.5	blank	1.0	157.84118485450745	
16	104.07360243797302	movie	1		300	14.0	2.5	blank	1.0	158.65745449066162	2.500347852706909
16	104.85736465454102	pulse	1	t		14.0	2.5	blank	1.0	159.44121670722961	
16	106.45752096176147	pulse	1	t		14.0	2.5	blank	1.0	161.04137301445007	
16	106.57395029067993	fix_post	2		12	14.0	2.5	blank	1.0	161.15780234336853	0.10002589225769043
17	106.67397618293762	fix_pre	0		120	15.0	2.5	/experiments/Knapen_AOT/AOT_stimuli/rescaled_final/1883_rv.mp4	0.0	161.25782823562622	1.0085046291351318
17	107.68248081207275	movie	1		289	15.0	2.5	/experiments/Knapen_AOT/AOT_stimuli/rescaled_final/1883_rv.mp4	0.0	162.26633286476135	2.492025375366211
17	108.05668091773987	pulse	1	t		15.0	2.5	/experiments/Knapen_AOT/AOT_stimuli/rescaled_final/1883_rv.mp4	0.0	162.64053297042847	
17	109.65591979026794	pulse	1	t		15.0	2.5	/experiments/Knapen_AOT/AOT_stimuli/rescaled_final/1883_rv.mp4	0.0	164.23977184295654	
17	110.17450618743896	fix_post	2		12	15.0	2.5	/experiments/Knapen_AOT/AOT_stimuli/rescaled_final/1883_rv.mp4	0.0	164.75835824012756	0.10002899169921875
18	110.27453517913818	fix_pre	0		119	16.0	2.5	/experiments/Knapen_AOT/AOT_stimuli/rescaled_final/0425_fw.mp4	0.0	164.85838723182678	1.0001976490020752
18	111.258229970932	pulse	0	t		16.0	2.5	/experiments/Knapen_AOT/AOT_stimuli/rescaled_final/0425_fw.mp4	0.0	165.8420820236206	
18	111.27473282814026	movie	1		275	16.0	2.5	/experiments/Knapen_AOT/AOT_stimuli/rescaled_final/0425_fw.mp4	0.0	165.85858488082886	2.500345468521118
18	112.85724520683289	pulse	1	t		16.0	2.5	/experiments/Knapen_AOT/AOT_stimuli/rescaled_final/0425_fw.mp4	0.0	167.44109725952148	
18	113.77507829666138	fix_post	2		12	16.0	2.5	/experiments/Knapen_AOT/AOT_stimuli/rescaled_final/0425_fw.mp4	0.0	168.35893034934998	0.09999918937683105
19	113.87507748603821	fix_pre	0		120	17.0	2.5	/experiments/Knapen_AOT/AOT_stimuli/rescaled_final/1274_fw.mp4	0.0	168.4589295387268	1.008495807647705
19	114.45869636535645	pulse	0	t		17.0	2.5	/experiments/Knapen_AOT/AOT_stimuli/rescaled_final/1274_fw.mp4	0.0	169.04254841804504	
19	114.88357329368591	movie	1		274	17.0	2.5	/experiments/Knapen_AOT/AOT_stimuli/rescaled_final/1274_fw.mp4	0.0	169.4674253463745	2.492035388946533
19	116.05731320381165	pulse	1	t		17.0	2.5	/experiments/Knapen_AOT/AOT_stimuli/rescaled_final/1274_fw.mp4	0.0	170.64116525650024	
19	117.37560868263245	fix_post	2		12	17.0	2.5	/experiments/Knapen_AOT/AOT_stimuli/rescaled_final/1274_fw.mp4	0.0	171.95946073532104	0.0999913215637207
20	117.47560000419617	fix_pre	0		120	18.0	2.5	/experiments/Knapen_AOT/AOT_stimuli/rescaled_final/0241_rv.mp4	0.0	172.05945205688477	1.008507490158081
20	117.65918135643005	pulse	0	t		18.0	2.5	/experiments/Knapen_AOT/AOT_stimuli/rescaled_final/0241_rv.mp4	0.0	172.24303340911865	
20	118.48410749435425	movie	1		281	18.0	2.5	/experiments/Knapen_AOT/AOT_stimuli/rescaled_final/0241_rv.mp4	0.0	173.06795954704285	2.4920530319213867
20	119.25718545913696	pulse	1	t		18.0	2.5	/experiments/Knapen_AOT/AOT_stimuli/rescaled_final/0241_rv.mp4	0.0	173.84103751182556	
20	120.85753726959229	pulse	1	t		18.0	2.5	/experiments/Knapen_AOT/AOT_stimuli/rescaled_final/0241_rv.mp4	0.0	175.44138932228088	
20	120.97616052627563	fix_post	2		12	18.0	2.5	/experiments/Knapen_AOT/AOT_stimuli/rescaled_final/0241_rv.mp4	0.0	175.56001257896423	0.10004758834838867
21	121.07620811462402	fix_pre	0		120	19.0	2.5	/experiments/Knapen_AOT/AOT_stimuli/rescaled_final/0797_fw.mp4	0.0	175.66006016731262	1.0085229873657227
21	122.08473110198975	movie	1		283	19.0	2.5	/experiments/Knapen_AOT/AOT_stimuli/rescaled_final/0797_fw.mp4	0.0	176.66858315467834	2.4919424057006836
21	122.45861268043518	pulse	1	t		19.0	2.5	/experiments/Knapen_AOT/AOT_stimuli/rescaled_final/0797_fw.mp4	0.0	177.04246473312378	
21	124.05809783935547	pulse	1	t		19.0	2.5	/experiments/Knapen_AOT/AOT_stimuli/rescaled_final/0797_fw.mp4	0.0	178.64194989204407	
21	124.57667350769043	fix_post	2		12	19.0	2.5	/experiments/Knapen_AOT/AOT_stimuli/rescaled_final/0797_fw.mp4	0.0	179.16052556037903	0.10003066062927246
22	124.6767041683197	fix_pre	0		119	20.0	2.5	/experiments/Knapen_AOT/AOT_stimuli/rescaled_final/0933_rv.mp4	0.0	179.2605562210083	1.0001895427703857
22	125.66048574447632	pulse	0	t		20.0	2.5	/experiments/Knapen_AOT/AOT_stimuli/rescaled_final/0933_rv.mp4	0.0	180.24433779716492	
22	125.67689371109009	movie	1		279	20.0	2.5	/experiments/Knapen_AOT/AOT_stimuli/rescaled_final/0933_rv.mp4	0.0	180.2607457637787	2.500351667404175
22	127.25896573066711	pulse	1	t		20.0	2.5	/experiments/Knapen_AOT/AOT_stimuli/rescaled_final/0933_rv.mp4	0.0	181.8428177833557	
22	128.17724537849426	fix_post	2		12	20.0	2.5	/experiments/Knapen_AOT/AOT_stimuli/rescaled_final/0933_rv.mp4	0.0	182.76109743118286	0.09998917579650879
23	128.27723455429077	fix_pre	0		120	21.0	2.5	blank	1.0	182.86108660697937	1.0001487731933594
23	128.86092925071716	pulse	0	t		21.0	2.5	blank	1.0	183.44478130340576	
23	129.27738332748413	movie	1		300	21.0	2.5	blank	1.0	183.86123538017273	2.500359296798706
23	130.46107029914856	pulse	1	t		21.0	2.5	blank	1.0	185.04492235183716	
23	131.77774262428284	fix_post	2		12	21.0	2.5	blank	1.0	186.36159467697144	0.1000220775604248
24	131.87776470184326	fix_pre	0		120	22.0	2.5	/experiments/Knapen_AOT/AOT_stimuli/rescaled_final/1122_fw.mp4	0.0	186.46161675453186	1.0086090564727783
24	132.05392408370972	pulse	0	t		22.0	2.5	/experiments/Knapen_AOT/AOT_stimuli/rescaled_final/1122_fw.mp4	0.0	186.63777613639832	
24	132.88637375831604	movie	1		271	22.0	2.5	/experiments/Knapen_AOT/AOT_stimuli/rescaled_final/1122_fw.mp4	0.0	187.47022581100464	2.4919307231903076
24	133.6600112915039	pulse	1	t		22.0	2.5	/experiments/Knapen_AOT/AOT_stimuli/rescaled_final/1122_fw.mp4	0.0	188.2438633441925	
24	135.26024532318115	pulse	1	t		22.0	2.5	/experiments/Knapen_AOT/AOT_stimuli/rescaled_final/1122_fw.mp4	0.0	189.84409737586975	
24	135.37830448150635	fix_post	2		12	22.0	2.5	/experiments/Knapen_AOT/AOT_stimuli/rescaled_final/1122_fw.mp4	0.0	189.96215653419495	0.10000920295715332
25	135.4783136844635	fix_pre	0		120	23.0	2.5	/experiments/Knapen_AOT/AOT_stimuli/rescaled_final/0425_rv.mp4	0.0	190.0621657371521	1.0085132122039795
25	136.48682689666748	movie	1		281	23.0	2.5	/experiments/Knapen_AOT/AOT_stimuli/rescaled_final/0425_rv.mp4	0.0	191.07067894935608	2.492098093032837
25	136.85392570495605	pulse	1	t		23.0	2.5	/experiments/Knapen_AOT/AOT_stimuli/rescaled_final/0425_rv.mp4	0.0	191.43777775764465	
25	138.45407152175903	pulse	1	t		23.0	2.5	/experiments/Knapen_AOT/AOT_stimuli/rescaled_final/0425_rv.mp4	0.0	193.03792357444763	
25	138.97892498970032	fix_post	2		12	23.0	2.5	/experiments/Knapen_AOT/AOT_stimuli/rescaled_final/0425_rv.mp4	0.0	193.56277704238892	0.0999605655670166
26	139.07888555526733	fix_pre	0		118	24.0	2.5	/experiments/Knapen_AOT/AOT_stimuli/rescaled_final/1142_rv.mp4	0.0	193.66273760795593	0.9918389320373535
26	140.05425381660461	pulse	0	t		24.0	2.5	/experiments/Knapen_AOT/AOT_stimuli/rescaled_final/1142_rv.mp4	0.0	194.6381058692932	
26	140.0707244873047	movie	1		271	24.0	2.5	/experiments/Knapen_AOT/AOT_stimuli/rescaled_final/1142_rv.mp4	0.0	194.6545765399933	2.500342845916748
26	141.65463709831238	pulse	1	t		24.0	2.5	/experiments/Knapen_AOT/AOT_stimuli/rescaled_final/1142_rv.mp4	0.0	196.23848915100098	
26	142.57106733322144	fix_post	2		12	24.0	2.5	/experiments/Knapen_AOT/AOT_stimuli/rescaled_final/1142_rv.mp4	0.0	197.15491938591003	0.10005998611450195
27	142.67112731933594	fix_pre	0		120	25.0	2.5	/experiments/Knapen_AOT/AOT_stimuli/rescaled_final/1622_fw.mp4	0.0	197.25497937202454	1.0084829330444336
27	143.25479340553284	pulse	0	t		25.0	2.5	/experiments/Knapen_AOT/AOT_stimuli/rescaled_final/1622_fw.mp4	0.0	197.83864545822144	
27	143.67961025238037	movie	1		284	25.0	2.5	/experiments/Knapen_AOT/AOT_stimuli/rescaled_final/1622_fw.mp4	0.0	198.26346230506897	2.4921271800994873
27	144.85471773147583	pulse	1	t		25.0	2.5	/experiments/Knapen_AOT/AOT_stimuli/rescaled_final/1622_fw.mp4	0.0	199.43856978416443	
27	146.17173743247986	fix_post	2		12	25.0	2.5	/experiments/Knapen_AOT/AOT_stimuli/rescaled_final/1622_fw.mp4	0.0	200.75558948516846	0.0999147891998291
28	146.2716522216797	fix_pre	0		120	26.0	2.5	/experiments/Knapen_AOT/AOT_stimuli/rescaled_final/0412_fw.mp4	0.0	200.8555042743683	1.0084824562072754
28	146.45521092414856	pulse	0	t		26.0	2.5	/experiments/Knapen_AOT/AOT_stimuli/rescaled_final/0412_fw.mp4	0.0	201.03906297683716	
28	147.28013467788696	movie	1		288	26.0	2.5	/experiments/Knapen_AOT/AOT_stimuli/rescaled_final/0412_fw.mp4	0.0	201.86398673057556	2.4920942783355713
28	148.05544137954712	pulse	1	t		26.0	2.5	/experiments/Knapen_AOT/AOT_stimuli/rescaled_final/0412_fw.mp4	0.0	202.63929343223572	
28	149.65395855903625	pulse	1	t		26.0	2.5	/experiments/Knapen_AOT/AOT_stimuli/rescaled_final/0412_fw.mp4	0.0	204.23781061172485	
28	149.77222895622253	fix_post	2		12	26.0	2.5	/experiments/Knapen_AOT/AOT_stimuli/rescaled_final/0412_fw.mp4	0.0	204.35608100891113	0.09993982315063477
29	149.87216877937317	fix_pre	0		120	27.0	2.5	blank	1.0	204.45602083206177	1.0001282691955566
29	150.87229704856873	movie	1		300	27.0	2.5	blank	1.0	205.45614910125732	2.500378370285034
29	151.25598430633545	pulse	1	t		27.0	2.5	blank	1.0	205.83983635902405	
29	152.85619235038757	pulse	1	t		27.0	2.5	blank	1.0	207.44004440307617	
29	153.37267541885376	fix_post	2		12	27.0	2.5	blank	1.0	207.95652747154236	0.10001349449157715
30	153.47268891334534	fix_pre	0		119	28.0	2.5	/experiments/Knapen_AOT/AOT_stimuli/rescaled_final/0603_fw.mp4	0.0	208.05654096603394	1.0001404285430908
30	154.4563853740692	pulse	0	t		28.0	2.5	/experiments/Knapen_AOT/AOT_stimuli/rescaled_final/0603_fw.mp4	0.0	209.0402374267578	
30	154.47282934188843	movie	1		274	28.0	2.5	/experiments/Knapen_AOT/AOT_stimuli/rescaled_final/0603_fw.mp4	0.0	209.05668139457703	2.5003609657287598
30	156.0558910369873	pulse	1	t		28.0	2.5	/experiments/Knapen_AOT/AOT_stimuli/rescaled_final/0603_fw.mp4	0.0	210.6397430896759	
30	156.9731903076172	fix_post	2		12	28.0	2.5	/experiments/Knapen_AOT/AOT_stimuli/rescaled_final/0603_fw.mp4	0.0	211.5570423603058	0.10005521774291992
31	157.0732455253601	fix_pre	0		120	29.0	2.5	/experiments/Knapen_AOT/AOT_stimuli/rescaled_final/1299_fw.mp4	0.0	211.6570975780487	1.0085396766662598
31	157.65687680244446	pulse	0	t		29.0	2.5	/experiments/Knapen_AOT/AOT_stimuli/rescaled_final/1299_fw.mp4	0.0	212.24072885513306	
31	158.08178520202637	movie	1		282	29.0	2.5	/experiments/Knapen_AOT/AOT_stimuli/rescaled_final/1299_fw.mp4	0.0	212.66563725471497	2.491966962814331
31	159.25487422943115	pulse	1	t		29.0	2.5	/experiments/Knapen_AOT/AOT_stimuli/rescaled_final/1299_fw.mp4	0.0	213.83872628211975	
31	160.5737521648407	fix_post	2		12	29.0	2.5	/experiments/Knapen_AOT/AOT_stimuli/rescaled_final/1299_fw.mp4	0.0	215.1576042175293	0.10002636909484863
32	160.67377853393555	fix_pre	0		120	30.0	2.5	/experiments/Knapen_AOT/AOT_stimuli/rescaled_final/0241_fw.mp4	0.0	215.25763058662415	1.0084891319274902
32	160.8576683998108	pulse	0	t		30.0	2.5	/experiments/Knapen_AOT/AOT_stimuli/rescaled_final/0241_fw.mp4	0.0	215.4415204524994	
32	161.68226766586304	movie	1		278	30.0	2.5	/experiments/Knapen_AOT/AOT_stimuli/rescaled_final/0241_fw.mp4	0.0	216.26611971855164	2.492027997970581
32	162.4556064605713	pulse	1	t		30.0	2.5	/experiments/Knapen_AOT/AOT_stimuli/rescaled_final/0241_fw.mp4	0.0	217.0394585132599	
32	164.05581831932068	pulse	1	t		30.0	2.5	/experiments/Knapen_AOT/AOT_stimuli/rescaled_final/0241_fw.mp4	0.0	218.63967037200928	
32	164.17429566383362	fix_post	2		12	30.0	2.5	/experiments/Knapen_AOT/AOT_stimuli/rescaled_final/0241_fw.mp4	0.0	218.75814771652222	0.1000664234161377
33	164.27436208724976	fix_pre	0		120	31.0	2.5	/experiments/Knapen_AOT/AOT_stimuli/rescaled_final/0226_fw.mp4	0.0	218.85821413993835	1.0084738731384277
33	165.28283596038818	movie	1		283	31.0	2.5	/experiments/Knapen_AOT/AOT_stimuli/rescaled_final/0226_fw.mp4	0.0	219.86668801307678	2.4920084476470947
33	165.65670108795166	pulse	1	t		31.0	2.5	/experiments/Knapen_AOT/AOT_stimuli/rescaled_final/0226_fw.mp4	0.0	220.24055314064026	
33	167.25637316703796	pulse	1	t		31.0	2.5	/experiments/Knapen_AOT/AOT_stimuli/rescaled_final/0226_fw.mp4	0.0	221.84022521972656	
33	167.77484440803528	fix_post	2		12	31.0	2.5	/experiments/Knapen_AOT/AOT_stimuli/rescaled_final/0226_fw.mp4	0.0	222.35869646072388	0.10001277923583984
34	167.87485718727112	fix_pre	0		119	32.0	2.5	/experiments/Knapen_AOT/AOT_stimuli/rescaled_final/1859_fw.mp4	0.0	222.45870923995972	1.0002915859222412
34	168.8586630821228	pulse	0	t		32.0	2.5	/experiments/Knapen_AOT/AOT_stimuli/rescaled_final/1859_fw.mp4	0.0	223.4425151348114	
34	168.87514877319336	movie	1		283	32.0	2.5	/experiments/Knapen_AOT/AOT_stimuli/rescaled_final/1859_fw.mp4	0.0	223.45900082588196	2.500412940979004
34	170.45707154273987	pulse	1	t		32.0	2.5	/experiments/Knapen_AOT/AOT_stimuli/rescaled_final/1859_fw.mp4	0.0	225.04092359542847	
34	171.37556171417236	fix_post	2		12	32.0	2.5	/experiments/Knapen_AOT/AOT_stimuli/rescaled_final/1859_fw.mp4	0.0	225.95941376686096	0.09995460510253906
35	171.4755163192749	fix_pre	0		120	33.0	2.5	/experiments/Knapen_AOT/AOT_stimuli/rescaled_final/0139_fw.mp4	0.0	226.0593683719635	1.008392095565796
35	172.05903100967407	pulse	0	t		33.0	2.5	/experiments/Knapen_AOT/AOT_stimuli/rescaled_final/0139_fw.mp4	0.0	226.64288306236267	
35	172.4839084148407	movie	1		279	33.0	2.5	/experiments/Knapen_AOT/AOT_stimuli/rescaled_final/0139_fw.mp4	0.0	227.0677604675293	2.4919965267181396
35	173.65742564201355	pulse	1	t		33.0	2.5	/experiments/Knapen_AOT/AOT_stimuli/rescaled_final/0139_fw.mp4	0.0	228.24127769470215	
35	174.97590494155884	fix_post	2		12	33.0	2.5	/experiments/Knapen_AOT/AOT_stimuli/rescaled_final/0139_fw.mp4	0.0	229.55975699424744	0.10002708435058594
36	175.07593202590942	fix_pre	0		120	34.0	2.5	blank	1.0	229.65978407859802	1.0001649856567383
36	175.25963139533997	pulse	0	t		34.0	2.5	blank	1.0	229.84348344802856	
36	176.07609701156616	movie	1		300	34.0	2.5	blank	1.0	230.65994906425476	2.50034499168396
36	176.85974788665771	pulse	1	t		34.0	2.5	blank	1.0	231.4435999393463	
36	178.45997977256775	pulse	1	t		34.0	2.5	blank	1.0	233.04383182525635	
36	178.57644200325012	fix_post	2		12	34.0	2.5	blank	1.0	233.16029405593872	0.10003399848937988
37	178.6764760017395	fix_pre	0		120	35.0	2.5	/experiments/Knapen_AOT/AOT_stimuli/rescaled_final/1980_fw.mp4	0.0	233.2603280544281	1.0085229873657227
37	179.68499898910522	movie	1		278	35.0	2.5	/experiments/Knapen_AOT/AOT_stimuli/rescaled_final/1980_fw.mp4	0.0	234.26885104179382	2.4920225143432617
37	180.0597574710846	pulse	1	t		35.0	2.5	/experiments/Knapen_AOT/AOT_stimuli/rescaled_final/1980_fw.mp4	0.0	234.6436095237732	
37	181.65853905677795	pulse	1	t		35.0	2.5	/experiments/Knapen_AOT/AOT_stimuli/rescaled_final/1980_fw.mp4	0.0	236.24239110946655	
37	182.1770215034485	fix_post	2		12	35.0	2.5	/experiments/Knapen_AOT/AOT_stimuli/rescaled_final/1980_fw.mp4	0.0	236.76087355613708	0.10006451606750488
38	182.277086019516	fix_pre	0		119	36.0	2.5	/experiments/Knapen_AOT/AOT_stimuli/rescaled_final/1408_rv.mp4	0.0	236.8609380722046	1.0001118183135986
38	183.26076984405518	pulse	0	t		36.0	2.5	/experiments/Knapen_AOT/AOT_stimuli/rescaled_final/1408_rv.mp4	0.0	237.84462189674377	
38	183.2771978378296	movie	1		288	36.0	2.5	/experiments/Knapen_AOT/AOT_stimuli/rescaled_final/1408_rv.mp4	0.0	237.8610498905182	2.500349998474121
38	184.8592803478241	pulse	1	t		36.0	2.5	/experiments/Knapen_AOT/AOT_stimuli/rescaled_final/1408_rv.mp4	0.0	239.4431324005127	
38	185.7775478363037	fix_post	2		12	36.0	2.5	/experiments/Knapen_AOT/AOT_stimuli/rescaled_final/1408_rv.mp4	0.0	240.3613998889923	0.10001683235168457
39	185.8775646686554	fix_pre	0		120	37.0	2.5	/experiments/Knapen_AOT/AOT_stimuli/rescaled_final/0554_fw.mp4	0.0	240.461416721344	1.008519172668457
39	186.46123433113098	pulse	0	t		37.0	2.5	/experiments/Knapen_AOT/AOT_stimuli/rescaled_final/0554_fw.mp4	0.0	241.04508638381958	
39	186.88608384132385	movie	1		279	37.0	2.5	/experiments/Knapen_AOT/AOT_stimuli/rescaled_final/0554_fw.mp4	0.0	241.46993589401245	2.4920363426208496
39	188.061270236969	pulse	1	t		37.0	2.5	/experiments/Knapen_AOT/AOT_stimuli/rescaled_final/0554_fw.mp4	0.0	242.6451222896576	
39	189.3781201839447	fix_post	2		12	37.0	2.5	/experiments/Knapen_AOT/AOT_stimuli/rescaled_final/0554_fw.mp4	0.0	243.9619722366333	0.10000443458557129
40	189.47812461853027	fix_pre	0		120	38.0	2.5	/experiments/Knapen_AOT/AOT_stimuli/rescaled_final/0071_rv.mp4	0.0	244.06197667121887	1.0084855556488037
40	189.65452337265015	pulse	0	t		38.0	2.5	/experiments/Knapen_AOT/AOT_stimuli/rescaled_final/0071_rv.mp4	0.0	244.23837542533875	
40	190.48661017417908	movie	1		291	38.0	2.5	/experiments/Knapen_AOT/AOT_stimuli/rescaled_final/0071_rv.mp4	0.0	245.07046222686768	2.4920082092285156
40	191.2617335319519	pulse	1	t		38.0	2.5	/experiments/Knapen_AOT/AOT_stimuli/rescaled_final/0071_rv.mp4	0.0	245.8455855846405	
40	192.8601701259613	pulse	1	t		38.0	2.5	/experiments/Knapen_AOT/AOT_stimuli/rescaled_final/0071_rv.mp4	0.0	247.4440221786499	
40	192.9786183834076	fix_post	2		12	38.0	2.5	/experiments/Knapen_AOT/AOT_stimuli/rescaled_final/0071_rv.mp4	0.0	247.5624704360962	0.1002194881439209
41	193.0788378715515	fix_pre	0		120	39.0	2.5	/experiments/Knapen_AOT/AOT_stimuli/rescaled_final/0203_fw.mp4	0.0	247.6626899242401	1.0084071159362793
41	194.0872449874878	movie	1		283	39.0	2.5	/experiments/Knapen_AOT/AOT_stimuli/rescaled_final/0203_fw.mp4	0.0	248.6710970401764	2.491925001144409
41	194.4543755054474	pulse	1	t		39.0	2.5	/experiments/Knapen_AOT/AOT_stimuli/rescaled_final/0203_fw.mp4	0.0	249.038227558136	
41	196.05436539649963	pulse	1	t		39.0	2.5	/experiments/Knapen_AOT/AOT_stimuli/rescaled_final/0203_fw.mp4	0.0	250.63821744918823	
41	196.5791699886322	fix_post	2		12	39.0	2.5	/experiments/Knapen_AOT/AOT_stimuli/rescaled_final/0203_fw.mp4	0.0	251.1630220413208	0.10004568099975586
42	196.67921566963196	fix_pre	0		118	40.0	2.5	/experiments/Knapen_AOT/AOT_stimuli/rescaled_final/0659_rv.mp4	0.0	251.26306772232056	0.9917912483215332
42	197.65449237823486	pulse	0	t		40.0	2.5	/experiments/Knapen_AOT/AOT_stimuli/rescaled_final/0659_rv.mp4	0.0	252.23834443092346	
42	197.6710069179535	movie	1		281	40.0	2.5	/experiments/Knapen_AOT/AOT_stimuli/rescaled_final/0659_rv.mp4	0.0	252.2548589706421	2.5004196166992188
42	199.2548370361328	pulse	1	t		40.0	2.5	/experiments/Knapen_AOT/AOT_stimuli/rescaled_final/0659_rv.mp4	0.0	253.8386890888214	
42	200.1714265346527	fix_post	2		12	40.0	2.5	/experiments/Knapen_AOT/AOT_stimuli/rescaled_final/0659_rv.mp4	0.0	254.7552785873413	0.1000664234161377
43	200.27149295806885	fix_pre	0		120	41.0	2.5	/experiments/Knapen_AOT/AOT_stimuli/rescaled_final/0138_fw.mp4	0.0	254.85534501075745	1.0084643363952637
43	200.85506343841553	pulse	0	t		41.0	2.5	/experiments/Knapen_AOT/AOT_stimuli/rescaled_final/0138_fw.mp4	0.0	255.43891549110413	
43	201.2799572944641	movie	1		272	41.0	2.5	/experiments/Knapen_AOT/AOT_stimuli/rescaled_final/0138_fw.mp4	0.0	255.8638093471527	2.4920060634613037
43	202.4553737640381	pulse	1	t		41.0	2.5	/experiments/Knapen_AOT/AOT_stimuli/rescaled_final/0138_fw.mp4	0.0	257.0392258167267	
43	203.77196335792542	fix_post	2		12	41.0	2.5	/experiments/Knapen_AOT/AOT_stimuli/rescaled_final/0138_fw.mp4	0.0	258.355815410614	0.09998178482055664
44	203.87194514274597	fix_pre	0		120	42.0	2.5	blank	1.0	258.45579719543457	1.0003373622894287
44	204.05566024780273	pulse	0	t		42.0	2.5	blank	1.0	258.63951230049133	
44	204.8722825050354	movie	1		300	42.0	2.5	blank	1.0	259.456134557724	2.5002238750457764
44	205.6557629108429	pulse	1	t		42.0	2.5	blank	1.0	260.2396149635315	
44	207.256103515625	pulse	1	t		42.0	2.5	blank	1.0	261.8399555683136	
44	207.37250638008118	fix_post	2		12	42.0	2.5	blank	1.0	261.9563584327698	0.10008001327514648
45	207.47258639335632	fix_pre	0		120	43.0	2.5	/experiments/Knapen_AOT/AOT_stimuli/rescaled_final/0659_fw.mp4	0.0	262.0564384460449	1.008368968963623
45	208.48095536231995	movie	1		282	43.0	2.5	/experiments/Knapen_AOT/AOT_stimuli/rescaled_final/0659_fw.mp4	0.0	263.06480741500854	2.492046356201172
45	208.85587191581726	pulse	1	t		43.0	2.5	/experiments/Knapen_AOT/AOT_stimuli/rescaled_final/0659_fw.mp4	0.0	263.43972396850586	
45	210.45477437973022	pulse	1	t		43.0	2.5	/experiments/Knapen_AOT/AOT_stimuli/rescaled_final/0659_fw.mp4	0.0	265.0386264324188	
45	210.97300171852112	fix_post	2		12	43.0	2.5	/experiments/Knapen_AOT/AOT_stimuli/rescaled_final/0659_fw.mp4	0.0	265.5568537712097	0.10001969337463379
46	211.07302141189575	fix_pre	0		119	44.0	2.5	/experiments/Knapen_AOT/AOT_stimuli/rescaled_final/1947_fw.mp4	0.0	265.65687346458435	1.000192403793335
46	212.05682134628296	pulse	0	t		44.0	2.5	/experiments/Knapen_AOT/AOT_stimuli/rescaled_final/1947_fw.mp4	0.0	266.64067339897156	
46	212.0732138156891	movie	1		279	44.0	2.5	/experiments/Knapen_AOT/AOT_stimuli/rescaled_final/1947_fw.mp4	0.0	266.6570658683777	2.5004076957702637
46	213.6559352874756	pulse	1	t		44.0	2.5	/experiments/Knapen_AOT/AOT_stimuli/rescaled_final/1947_fw.mp4	0.0	268.2397873401642	
46	214.57362151145935	fix_post	2		11	44.0	2.5	/experiments/Knapen_AOT/AOT_stimuli/rescaled_final/1947_fw.mp4	0.0	269.15747356414795	0.09999442100524902
47	214.6736159324646	fix_pre	0		120	45.0	2.5	/experiments/Knapen_AOT/AOT_stimuli/rescaled_final/1194_fw.mp4	0.0	269.2574679851532	1.0084335803985596
47	215.25722861289978	pulse	0	t		45.0	2.5	/experiments/Knapen_AOT/AOT_stimuli/rescaled_final/1194_fw.mp4	0.0	269.8410806655884	
47	215.68204951286316	movie	1		286	45.0	2.5	/experiments/Knapen_AOT/AOT_stimuli/rescaled_final/1194_fw.mp4	0.0	270.26590156555176	2.4920294284820557
47	216.85576057434082	pulse	1	t		45.0	2.5	/experiments/Knapen_AOT/AOT_stimuli/rescaled_final/1194_fw.mp4	0.0	271.4396126270294	
47	218.17407894134521	fix_post	2		12	45.0	2.5	/experiments/Knapen_AOT/AOT_stimuli/rescaled_final/1194_fw.mp4	0.0	272.7579309940338	0.10004091262817383
48	218.2741198539734	fix_pre	0		104	46.0	2.5	/experiments/Knapen_AOT/AOT_stimuli/rescaled_final/0818_rv.mp4	0.0	272.857971906662	1.0085010528564453
48	218.59498810768127	pulse	0	t		46.0	2.5	/experiments/Knapen_AOT/AOT_stimuli/rescaled_final/0818_rv.mp4	0.0	273.1788401603699	
48	219.28262090682983	movie	1		275	46.0	2.5	/experiments/Knapen_AOT/AOT_stimuli/rescaled_final/0818_rv.mp4	0.0	273.86647295951843	2.492037057876587
48	220.05668830871582	pulse	1	t		46.0	2.5	/experiments/Knapen_AOT/AOT_stimuli/rescaled_final/0818_rv.mp4	0.0	274.6405403614044	
48	221.6563503742218	pulse	1	t		46.0	2.5	/experiments/Knapen_AOT/AOT_stimuli/rescaled_final/0818_rv.mp4	0.0	276.2402024269104	
48	221.77465796470642	fix_post	2		12	46.0	2.5	/experiments/Knapen_AOT/AOT_stimuli/rescaled_final/0818_rv.mp4	0.0	276.358510017395	0.1000206470489502
49	221.87467861175537	fix_pre	0		120	47.0	2.5	/experiments/Knapen_AOT/AOT_stimuli/rescaled_final/2052_rv.mp4	0.0	276.45853066444397	1.0084829330444336
49	222.8831615447998	movie	1		278	47.0	2.5	/experiments/Knapen_AOT/AOT_stimuli/rescaled_final/2052_rv.mp4	0.0	277.4670135974884	2.492086172103882
49	223.2567002773285	pulse	1	t		47.0	2.5	/experiments/Knapen_AOT/AOT_stimuli/rescaled_final/2052_rv.mp4	0.0	277.8405523300171	
49	224.85872387886047	pulse	1	t		47.0	2.5	/experiments/Knapen_AOT/AOT_stimuli/rescaled_final/2052_rv.mp4	0.0	279.4425759315491	
49	225.3752477169037	fix_post	2		12	47.0	2.5	/experiments/Knapen_AOT/AOT_stimuli/rescaled_final/2052_rv.mp4	0.0	279.9590997695923	0.09994816780090332
50	225.4751958847046	fix_pre	0		119	48.0	2.5	/experiments/Knapen_AOT/AOT_stimuli/rescaled_final/0620_fw.mp4	0.0	280.0590479373932	1.0001468658447266
50	226.45894050598145	pulse	0	t		48.0	2.5	/experiments/Knapen_AOT/AOT_stimuli/rescaled_final/0620_fw.mp4	0.0	281.04279255867004	
50	226.47534275054932	movie	1		277	48.0	2.5	/experiments/Knapen_AOT/AOT_stimuli/rescaled_final/0620_fw.mp4	0.0	281.0591948032379	2.500364065170288
50	228.0574939250946	pulse	1	t		48.0	2.5	/experiments/Knapen_AOT/AOT_stimuli/rescaled_final/0620_fw.mp4	0.0	282.6413459777832	
50	228.9757068157196	fix_post	2		12	48.0	2.5	/experiments/Knapen_AOT/AOT_stimuli/rescaled_final/0620_fw.mp4	0.0	283.5595588684082	0.09999823570251465
51	229.07570505142212	fix_pre	0		120	49.0	2.5	blank	1.0	283.6595571041107	1.00016188621521
51	229.65967106819153	pulse	0	t		49.0	2.5	blank	1.0	284.2435231208801	
51	230.07586693763733	movie	1		300	49.0	2.5	blank	1.0	284.6597189903259	2.500377655029297
51	231.2597451210022	pulse	1	t		49.0	2.5	blank	1.0	285.8435971736908	
51	232.57624459266663	fix_post	2		12	49.0	2.5	blank	1.0	287.1600966453552	0.09999704360961914
52	232.67624163627625	fix_pre	0		120	50.0	2.5	/experiments/Knapen_AOT/AOT_stimuli/rescaled_final/1159_fw.mp4	0.0	287.26009368896484	1.0085117816925049
52	232.8599750995636	pulse	0	t		50.0	2.5	/experiments/Knapen_AOT/AOT_stimuli/rescaled_final/1159_fw.mp4	0.0	287.4438271522522	
52	233.68475341796875	movie	1		284	50.0	2.5	/experiments/Knapen_AOT/AOT_stimuli/rescaled_final/1159_fw.mp4	0.0	288.26860547065735	2.492051124572754
52	234.45805883407593	pulse	1	t		50.0	2.5	/experiments/Knapen_AOT/AOT_stimuli/rescaled_final/1159_fw.mp4	0.0	289.0419108867645	
52	236.05861449241638	pulse	1	t		50.0	2.5	/experiments/Knapen_AOT/AOT_stimuli/rescaled_final/1159_fw.mp4	0.0	290.642466545105	
52	236.1768045425415	fix_post	2		12	50.0	2.5	/experiments/Knapen_AOT/AOT_stimuli/rescaled_final/1159_fw.mp4	0.0	290.7606565952301	0.10000252723693848
53	236.27680706977844	fix_pre	0		120	51.0	2.5	/experiments/Knapen_AOT/AOT_stimuli/rescaled_final/0109_rv.mp4	0.0	290.86065912246704	1.0085277557373047
53	237.28533482551575	movie	1		267	51.0	2.5	/experiments/Knapen_AOT/AOT_stimuli/rescaled_final/0109_rv.mp4	0.0	291.86918687820435	2.4919934272766113
53	237.66040802001953	pulse	1	t		51.0	2.5	/experiments/Knapen_AOT/AOT_stimuli/rescaled_final/0109_rv.mp4	0.0	292.24426007270813	
53	239.2590308189392	pulse	1	t		51.0	2.5	/experiments/Knapen_AOT/AOT_stimuli/rescaled_final/0109_rv.mp4	0.0	293.8428828716278	
53	239.77732825279236	fix_post	2		12	51.0	2.5	/experiments/Knapen_AOT/AOT_stimuli/rescaled_final/0109_rv.mp4	0.0	294.36118030548096	0.10015130043029785
54	239.87747955322266	fix_pre	0		119	52.0	2.5	/experiments/Knapen_AOT/AOT_stimuli/rescaled_final/0581_fw.mp4	0.0	294.46133160591125	1.0001466274261475
54	240.86119389533997	pulse	0	t		52.0	2.5	/experiments/Knapen_AOT/AOT_stimuli/rescaled_final/0581_fw.mp4	0.0	295.44504594802856	
54	240.8776261806488	movie	1		282	52.0	2.5	/experiments/Knapen_AOT/AOT_stimuli/rescaled_final/0581_fw.mp4	0.0	295.4614782333374	2.5002479553222656
54	242.4611439704895	pulse	1	t		52.0	2.5	/experiments/Knapen_AOT/AOT_stimuli/rescaled_final/0581_fw.mp4	0.0	297.0449960231781	
54	243.37787413597107	fix_post	2		12	52.0	2.5	/experiments/Knapen_AOT/AOT_stimuli/rescaled_final/0581_fw.mp4	0.0	297.96172618865967	0.10004043579101562
55	243.47791457176208	fix_pre	0		120	53.0	2.5	/experiments/Knapen_AOT/AOT_stimuli/rescaled_final/1295_fw.mp4	0.0	298.0617666244507	1.0085458755493164
55	244.06164741516113	pulse	0	t		53.0	2.5	/experiments/Knapen_AOT/AOT_stimuli/rescaled_final/1295_fw.mp4	0.0	298.64549946784973	
55	244.4864604473114	movie	1		271	53.0	2.5	/experiments/Knapen_AOT/AOT_stimuli/rescaled_final/1295_fw.mp4	0.0	299.0703125	2.4919753074645996
55	245.6539008617401	pulse	1	t		53.0	2.5	/experiments/Knapen_AOT/AOT_stimuli/rescaled_final/1295_fw.mp4	0.0	300.2377529144287	
55	246.978435754776	fix_post	2		12	53.0	2.5	/experiments/Knapen_AOT/AOT_stimuli/rescaled_final/1295_fw.mp4	0.0	301.5622878074646	0.10002589225769043
56	247.0784616470337	fix_pre	0		120	54.0	2.5	blank	1.0	301.6623136997223	1.0001471042633057
56	247.25378346443176	pulse	0	t		54.0	2.5	blank	1.0	301.83763551712036	
56	248.078608751297	movie	1		300	54.0	2.5	blank	1.0	302.6624608039856	2.5003740787506104
56	248.8539605140686	pulse	1	t		54.0	2.5	blank	1.0	303.4378125667572	
56	250.45419096946716	pulse	1	t		54.0	2.5	blank	1.0	305.03804302215576	
56	250.5789828300476	fix_post	2		12	54.0	2.5	blank	1.0	305.1628348827362	0.1000816822052002
57	250.6790645122528	fix_pre	0		120	55.0	2.5	/experiments/Knapen_AOT/AOT_stimuli/rescaled_final/1549_fw.mp4	0.0	305.2629165649414	1.0083856582641602
57	251.68745017051697	movie	1		284	55.0	2.5	/experiments/Knapen_AOT/AOT_stimuli/rescaled_final/1549_fw.mp4	0.0	306.27130222320557	2.492053985595703
57	252.05489659309387	pulse	1	t		55.0	2.5	/experiments/Knapen_AOT/AOT_stimuli/rescaled_final/1549_fw.mp4	0.0	306.63874864578247	
57	253.65468907356262	pulse	1	t		55.0	2.5	/experiments/Knapen_AOT/AOT_stimuli/rescaled_final/1549_fw.mp4	0.0	308.2385411262512	
57	254.17950415611267	fix_post	2		12	55.0	2.5	/experiments/Knapen_AOT/AOT_stimuli/rescaled_final/1549_fw.mp4	0.0	308.76335620880127	0.10009026527404785
58	254.27959442138672	fix_pre	0		118	56.0	2.5	/experiments/Knapen_AOT/AOT_stimuli/rescaled_final/0074_fw.mp4	0.0	308.8634464740753	0.9918196201324463
58	255.25493836402893	pulse	0	t		56.0	2.5	/experiments/Knapen_AOT/AOT_stimuli/rescaled_final/0074_fw.mp4	0.0	309.83879041671753	
58	255.27141404151917	movie	1		280	56.0	2.5	/experiments/Knapen_AOT/AOT_stimuli/rescaled_final/0074_fw.mp4	0.0	309.85526609420776	2.5003020763397217
58	256.8537919521332	pulse	1	t		56.0	2.5	/experiments/Knapen_AOT/AOT_stimuli/rescaled_final/0074_fw.mp4	0.0	311.4376440048218	
58	257.7717161178589	fix_post	2		12	56.0	2.5	/experiments/Knapen_AOT/AOT_stimuli/rescaled_final/0074_fw.mp4	0.0	312.3555681705475	0.10003018379211426
59	257.871746301651	fix_pre	0		120	57.0	2.5	/experiments/Knapen_AOT/AOT_stimuli/rescaled_final/1142_rv.mp4	0.0	312.4555983543396	1.008476734161377
59	258.45537543296814	pulse	0	t		57.0	2.5	/experiments/Knapen_AOT/AOT_stimuli/rescaled_final/1142_rv.mp4	0.0	313.03922748565674	
59	258.8802230358124	movie	1		274	57.0	2.5	/experiments/Knapen_AOT/AOT_stimuli/rescaled_final/1142_rv.mp4	0.0	313.464075088501	2.4920263290405273
59	260.05386662483215	pulse	1	t		57.0	2.5	/experiments/Knapen_AOT/AOT_stimuli/rescaled_final/1142_rv.mp4	0.0	314.63771867752075	
59	261.3722493648529	fix_post	2		12	57.0	2.5	/experiments/Knapen_AOT/AOT_stimuli/rescaled_final/1142_rv.mp4	0.0	315.9561014175415	0.10004258155822754
60	261.47229194641113	fix_pre	0		120	58.0	2.5	/experiments/Knapen_AOT/AOT_stimuli/rescaled_final/0074_fw.mp4	0.0	316.05614399909973	1.0084819793701172
60	261.65584349632263	pulse	0	t		58.0	2.5	/experiments/Knapen_AOT/AOT_stimuli/rescaled_final/0074_fw.mp4	0.0	316.23969554901123	
60	262.48077392578125	movie	1		289	58.0	2.5	/experiments/Knapen_AOT/AOT_stimuli/rescaled_final/0074_fw.mp4	0.0	317.06462597846985	2.4920175075531006
60	263.2543091773987	pulse	1	t		58.0	2.5	/experiments/Knapen_AOT/AOT_stimuli/rescaled_final/0074_fw.mp4	0.0	317.8381612300873	
60	264.854510307312	pulse	1	t		58.0	2.5	/experiments/Knapen_AOT/AOT_stimuli/rescaled_final/0074_fw.mp4	0.0	319.4383623600006	
60	264.97279143333435	fix_post	2		12	58.0	2.5	/experiments/Knapen_AOT/AOT_stimuli/rescaled_final/0074_fw.mp4	0.0	319.55664348602295	0.10004472732543945
61	265.0728361606598	fix_pre	0		120	59.0	2.5	/experiments/Knapen_AOT/AOT_stimuli/rescaled_final/1253_rv.mp4	0.0	319.6566882133484	1.0085029602050781
61	266.08133912086487	movie	1		273	59.0	2.5	/experiments/Knapen_AOT/AOT_stimuli/rescaled_final/1253_rv.mp4	0.0	320.66519117355347	2.4920506477355957
61	266.45587253570557	pulse	1	t		59.0	2.5	/experiments/Knapen_AOT/AOT_stimuli/rescaled_final/1253_rv.mp4	0.0	321.03972458839417	
61	268.05506205558777	pulse	1	t		59.0	2.5	/experiments/Knapen_AOT/AOT_stimuli/rescaled_final/1253_rv.mp4	0.0	322.63891410827637	
61	268.57338976860046	fix_post	2		12	59.0	2.5	/experiments/Knapen_AOT/AOT_stimuli/rescaled_final/1253_rv.mp4	0.0	323.15724182128906	0.09999871253967285
62	268.67338848114014	fix_pre	0		119	60.0	2.5	/experiments/Knapen_AOT/AOT_stimuli/rescaled_final/1168_fw.mp4	0.0	323.25724053382874	1.000121831893921
62	269.65710377693176	pulse	0	t		60.0	2.5	/experiments/Knapen_AOT/AOT_stimuli/rescaled_final/1168_fw.mp4	0.0	324.24095582962036	
62	269.67351031303406	movie	1		273	60.0	2.5	/experiments/Knapen_AOT/AOT_stimuli/rescaled_final/1168_fw.mp4	0.0	324.25736236572266	2.5003650188446045
62	271.25720047950745	pulse	1	t		60.0	2.5	/experiments/Knapen_AOT/AOT_stimuli/rescaled_final/1168_fw.mp4	0.0	325.84105253219604	
62	272.17387533187866	fix_post	2		12	60.0	2.5	/experiments/Knapen_AOT/AOT_stimuli/rescaled_final/1168_fw.mp4	0.0	326.75772738456726	0.10007476806640625
63	272.27395009994507	fix_pre	0		120	61.0	2.5	blank	1.0	326.85780215263367	1.0001156330108643
63	272.8575611114502	pulse	0	t		61.0	2.5	blank	1.0	327.4414131641388	
63	273.27406573295593	movie	1		300	61.0	2.5	blank	1.0	327.85791778564453	2.5003321170806885
63	274.457768201828	pulse	1	t		61.0	2.5	blank	1.0	329.0416202545166	
63	275.7743978500366	fix_post	2		12	61.0	2.5	blank	1.0	330.3582499027252	0.10001826286315918
64	275.8744161128998	fix_pre	0		120	62.0	2.5	/experiments/Knapen_AOT/AOT_stimuli/rescaled_final/1493_fw.mp4	0.0	330.4582681655884	1.008509635925293
64	276.05800437927246	pulse	0	t		62.0	2.5	/experiments/Knapen_AOT/AOT_stimuli/rescaled_final/1493_fw.mp4	0.0	330.64185643196106	
64	276.8829257488251	movie	1		280	62.0	2.5	/experiments/Knapen_AOT/AOT_stimuli/rescaled_final/1493_fw.mp4	0.0	331.4667778015137	2.4920177459716797
64	277.6567416191101	pulse	1	t		62.0	2.5	/experiments/Knapen_AOT/AOT_stimuli/rescaled_final/1493_fw.mp4	0.0	332.2405936717987	
64	279.25652623176575	pulse	1	t		62.0	2.5	/experiments/Knapen_AOT/AOT_stimuli/rescaled_final/1493_fw.mp4	0.0	333.84037828445435	
64	279.37494349479675	fix_post	2		12	62.0	2.5	/experiments/Knapen_AOT/AOT_stimuli/rescaled_final/1493_fw.mp4	0.0	333.95879554748535	0.10001397132873535
65	279.4749574661255	fix_pre	0		120	63.0	2.5	/experiments/Knapen_AOT/AOT_stimuli/rescaled_final/1650_rv.mp4	0.0	334.0588095188141	1.008507490158081
65	280.48346495628357	movie	1		291	63.0	2.5	/experiments/Knapen_AOT/AOT_stimuli/rescaled_final/1650_rv.mp4	0.0	335.06731700897217	2.4920153617858887
65	280.856942653656	pulse	1	t		63.0	2.5	/experiments/Knapen_AOT/AOT_stimuli/rescaled_final/1650_rv.mp4	0.0	335.4407947063446	
65	282.45742988586426	pulse	1	t		63.0	2.5	/experiments/Knapen_AOT/AOT_stimuli/rescaled_final/1650_rv.mp4	0.0	337.04128193855286	
65	282.97548031806946	fix_post	2		12	63.0	2.5	/experiments/Knapen_AOT/AOT_stimuli/rescaled_final/1650_rv.mp4	0.0	337.55933237075806	0.10016751289367676
66	283.07564783096313	fix_pre	0		119	64.0	2.5	/experiments/Knapen_AOT/AOT_stimuli/rescaled_final/2160_fw.mp4	0.0	337.65949988365173	1.0002861022949219
66	284.05929923057556	pulse	0	t		64.0	2.5	/experiments/Knapen_AOT/AOT_stimuli/rescaled_final/2160_fw.mp4	0.0	338.64315128326416	
66	284.07593393325806	movie	1		280	64.0	2.5	/experiments/Knapen_AOT/AOT_stimuli/rescaled_final/2160_fw.mp4	0.0	338.65978598594666	2.5000977516174316
66	285.65791273117065	pulse	1	t		64.0	2.5	/experiments/Knapen_AOT/AOT_stimuli/rescaled_final/2160_fw.mp4	0.0	340.24176478385925	
66	286.5760316848755	fix_post	2		12	64.0	2.5	/experiments/Knapen_AOT/AOT_stimuli/rescaled_final/2160_fw.mp4	0.0	341.1598837375641	0.10007882118225098
67	286.67611050605774	fix_pre	0		120	65.0	2.5	/experiments/Knapen_AOT/AOT_stimuli/rescaled_final/1061_fw.mp4	0.0	341.25996255874634	1.0084521770477295
67	287.2601330280304	pulse	0	t		65.0	2.5	/experiments/Knapen_AOT/AOT_stimuli/rescaled_final/1061_fw.mp4	0.0	341.843985080719	
67	287.68456268310547	movie	1		280	65.0	2.5	/experiments/Knapen_AOT/AOT_stimuli/rescaled_final/1061_fw.mp4	0.0	342.26841473579407	2.492001533508301
67	288.8586423397064	pulse	1	t		65.0	2.5	/experiments/Knapen_AOT/AOT_stimuli/rescaled_final/1061_fw.mp4	0.0	343.442494392395	
67	290.17656421661377	fix_post	2		12	65.0	2.5	/experiments/Knapen_AOT/AOT_stimuli/rescaled_final/1061_fw.mp4	0.0	344.76041626930237	0.10002970695495605
68	290.2765939235687	fix_pre	0		120	66.0	2.5	/experiments/Knapen_AOT/AOT_stimuli/rescaled_final/2172_fw.mp4	0.0	344.8604459762573	1.00852632522583
68	290.4601707458496	pulse	0	t		66.0	2.5	/experiments/Knapen_AOT/AOT_stimuli/rescaled_final/2172_fw.mp4	0.0	345.0440227985382	
68	291.28512024879456	movie	1		276	66.0	2.5	/experiments/Knapen_AOT/AOT_stimuli/rescaled_final/2172_fw.mp4	0.0	345.86897230148315	2.492018699645996
68	292.0581886768341	pulse	1	t		66.0	2.5	/experiments/Knapen_AOT/AOT_stimuli/rescaled_final/2172_fw.mp4	0.0	346.6420407295227	
68	293.6587760448456	pulse	1	t		66.0	2.5	/experiments/Knapen_AOT/AOT_stimuli/rescaled_final/2172_fw.mp4	0.0	348.2426280975342	
68	293.77713894844055	fix_post	2		12	66.0	2.5	/experiments/Knapen_AOT/AOT_stimuli/rescaled_final/2172_fw.mp4	0.0	348.36099100112915	0.1000223159790039
69	293.87716126441956	fix_pre	0		120	67.0	2.5	/experiments/Knapen_AOT/AOT_stimuli/rescaled_final/1142_fw.mp4	0.0	348.46101331710815	1.008481740951538
69	294.8856430053711	movie	1		268	67.0	2.5	/experiments/Knapen_AOT/AOT_stimuli/rescaled_final/1142_fw.mp4	0.0	349.4694950580597	2.492048978805542
69	295.2591474056244	pulse	1	t		67.0	2.5	/experiments/Knapen_AOT/AOT_stimuli/rescaled_final/1142_fw.mp4	0.0	349.842999458313	
69	296.85932302474976	pulse	1	t		67.0	2.5	/experiments/Knapen_AOT/AOT_stimuli/rescaled_final/1142_fw.mp4	0.0	351.44317507743835	
69	297.37769198417664	fix_post	2		12	67.0	2.5	/experiments/Knapen_AOT/AOT_stimuli/rescaled_final/1142_fw.mp4	0.0	351.96154403686523	0.09998464584350586
70	297.47767663002014	fix_pre	0		119	68.0	2.5	/experiments/Knapen_AOT/AOT_stimuli/rescaled_final/1263_rv.mp4	0.0	352.06152868270874	1.000150442123413
70	298.4614930152893	pulse	0	t		68.0	2.5	/experiments/Knapen_AOT/AOT_stimuli/rescaled_final/1263_rv.mp4	0.0	353.0453450679779	
70	298.47782707214355	movie	1		286	68.0	2.5	/experiments/Knapen_AOT/AOT_stimuli/rescaled_final/1263_rv.mp4	0.0	353.06167912483215	2.5003907680511475
70	300.0601923465729	pulse	1	t		68.0	2.5	/experiments/Knapen_AOT/AOT_stimuli/rescaled_final/1263_rv.mp4	0.0	354.6440443992615	
70	300.9782178401947	fix_post	2		12	68.0	2.5	/experiments/Knapen_AOT/AOT_stimuli/rescaled_final/1263_rv.mp4	0.0	355.5620698928833	0.0999908447265625
71	301.07820868492126	fix_pre	0		120	69.0	2.5	/experiments/Knapen_AOT/AOT_stimuli/rescaled_final/1606_fw.mp4	0.0	355.66206073760986	1.008533000946045
71	301.6540868282318	pulse	0	t		69.0	2.5	/experiments/Knapen_AOT/AOT_stimuli/rescaled_final/1606_fw.mp4	0.0	356.2379388809204	
71	302.0867416858673	movie	1		271	69.0	2.5	/experiments/Knapen_AOT/AOT_stimuli/rescaled_final/1606_fw.mp4	0.0	356.6705937385559	2.500370979309082
71	303.2603714466095	pulse	1	t		69.0	2.5	/experiments/Knapen_AOT/AOT_stimuli/rescaled_final/1606_fw.mp4	0.0	357.8442234992981	
71	304.5871126651764	fix_post	2		11	69.0	2.5	/experiments/Knapen_AOT/AOT_stimuli/rescaled_final/1606_fw.mp4	0.0	359.170964717865	0.09162092208862305
72	304.678733587265	fix_pre	0		120	70.0	2.5	blank	1.0	359.2625856399536	1.0002806186676025
72	304.8545491695404	pulse	0	t		70.0	2.5	blank	1.0	359.438401222229	
72	305.6790142059326	movie	1		299	70.0	2.5	blank	1.0	360.2628662586212	2.5002667903900146
72	306.4543209075928	pulse	1	t		70.0	2.5	blank	1.0	361.0381729602814	
72	308.054568529129	pulse	1	t		70.0	2.5	blank	1.0	362.6384205818176	
72	308.17928099632263	fix_post	2		12	70.0	2.5	blank	1.0	362.76313304901123	0.10012626647949219
73	308.2794072628021	fix_pre	0		120	71.0	2.5	/experiments/Knapen_AOT/AOT_stimuli/rescaled_final/1378_rv.mp4	0.0	362.8632593154907	1.0085148811340332
73	309.28792214393616	movie	1		267	71.0	2.5	/experiments/Knapen_AOT/AOT_stimuli/rescaled_final/1378_rv.mp4	0.0	363.87177419662476	2.491910219192505
73	309.6552813053131	pulse	1	t		71.0	2.5	/experiments/Knapen_AOT/AOT_stimuli/rescaled_final/1378_rv.mp4	0.0	364.2391333580017	
73	311.25492787361145	pulse	1	t		71.0	2.5	/experiments/Knapen_AOT/AOT_stimuli/rescaled_final/1378_rv.mp4	0.0	365.83877992630005	
73	311.77983236312866	fix_post	2		12	71.0	2.5	/experiments/Knapen_AOT/AOT_stimuli/rescaled_final/1378_rv.mp4	0.0	366.36368441581726	0.10000801086425781
74	311.8798403739929	fix_pre	0		118	72.0	2.5	/experiments/Knapen_AOT/AOT_stimuli/rescaled_final/0221_fw.mp4	0.0	366.4636924266815	1.0002479553222656
74	312.85525465011597	pulse	0	t		72.0	2.5	/experiments/Knapen_AOT/AOT_stimuli/rescaled_final/0221_fw.mp4	0.0	367.43910670280457	
74	312.8800883293152	movie	1		280	72.0	2.5	/experiments/Knapen_AOT/AOT_stimuli/rescaled_final/0221_fw.mp4	0.0	367.4639403820038	2.4919703006744385
74	314.45551681518555	pulse	1	t		72.0	2.5	/experiments/Knapen_AOT/AOT_stimuli/rescaled_final/0221_fw.mp4	0.0	369.03936886787415	
74	315.3720586299896	fix_post	2		12	72.0	2.5	/experiments/Knapen_AOT/AOT_stimuli/rescaled_final/0221_fw.mp4	0.0	369.9559106826782	0.10010290145874023
75	315.47216153144836	fix_pre	0		120	73.0	2.5	/experiments/Knapen_AOT/AOT_stimuli/rescaled_final/0656_fw.mp4	0.0	370.05601358413696	1.0084288120269775
75	316.05578875541687	pulse	0	t		73.0	2.5	/experiments/Knapen_AOT/AOT_stimuli/rescaled_final/0656_fw.mp4	0.0	370.63964080810547	
75	316.48059034347534	movie	1		290	73.0	2.5	/experiments/Knapen_AOT/AOT_stimuli/rescaled_final/0656_fw.mp4	0.0	371.06444239616394	2.492017984390259
75	317.6559193134308	pulse	1	t		73.0	2.5	/experiments/Knapen_AOT/AOT_stimuli/rescaled_final/0656_fw.mp4	0.0	372.2397713661194	
75	318.9726083278656	fix_post	2		12	73.0	2.5	/experiments/Knapen_AOT/AOT_stimuli/rescaled_final/0656_fw.mp4	0.0	373.5564603805542	0.10003662109375
76	319.07264494895935	fix_pre	0		120	74.0	2.5	/experiments/Knapen_AOT/AOT_stimuli/rescaled_final/0425_fw.mp4	0.0	373.65649700164795	1.0084645748138428
76	319.2562141418457	pulse	0	t		74.0	2.5	/experiments/Knapen_AOT/AOT_stimuli/rescaled_final/0425_fw.mp4	0.0	373.8400661945343	
76	320.0811095237732	movie	1		278	74.0	2.5	/experiments/Knapen_AOT/AOT_stimuli/rescaled_final/0425_fw.mp4	0.0	374.6649615764618	2.492013454437256
76	320.85445857048035	pulse	1	t		74.0	2.5	/experiments/Knapen_AOT/AOT_stimuli/rescaled_final/0425_fw.mp4	0.0	375.43831062316895	
76	322.4544894695282	pulse	1	t		74.0	2.5	/experiments/Knapen_AOT/AOT_stimuli/rescaled_final/0425_fw.mp4	0.0	377.0383415222168	
76	322.57312297821045	fix_post	2		12	74.0	2.5	/experiments/Knapen_AOT/AOT_stimuli/rescaled_final/0425_fw.mp4	0.0	377.15697503089905	0.1000833511352539
77	322.6732063293457	fix_pre	0		120	75.0	2.5	/experiments/Knapen_AOT/AOT_stimuli/rescaled_final/1613_rv.mp4	0.0	377.2570583820343	1.008427619934082
77	323.6816339492798	movie	1		277	75.0	2.5	/experiments/Knapen_AOT/AOT_stimuli/rescaled_final/1613_rv.mp4	0.0	378.2654860019684	2.4920315742492676
77	324.0554006099701	pulse	1	t		75.0	2.5	/experiments/Knapen_AOT/AOT_stimuli/rescaled_final/1613_rv.mp4	0.0	378.6392526626587	
77	325.6555931568146	pulse	1	t		75.0	2.5	/experiments/Knapen_AOT/AOT_stimuli/rescaled_final/1613_rv.mp4	0.0	380.2394452095032	
77	326.17366552352905	fix_post	2		12	75.0	2.5	/experiments/Knapen_AOT/AOT_stimuli/rescaled_final/1613_rv.mp4	0.0	380.75751757621765	0.10005068778991699
78	326.27371621131897	fix_pre	0		119	76.0	2.5	blank	1.0	380.85756826400757	0.9917392730712891
78	327.2575829029083	pulse	0	t		76.0	2.5	blank	1.0	381.8414349555969	
78	327.26545548439026	movie	1		301	76.0	2.5	blank	1.0	381.84930753707886	2.50874662399292
78	328.8576338291168	pulse	1	t		76.0	2.5	blank	1.0	383.4414858818054	
78	329.7742021083832	fix_post	2		12	76.0	2.5	blank	1.0	384.3580541610718	0.1000208854675293
79	329.8742229938507	fix_pre	0		120	77.0	2.5	/experiments/Knapen_AOT/AOT_stimuli/rescaled_final/1627_fw.mp4	0.0	384.4580750465393	1.008537769317627
79	330.45790100097656	pulse	0	t		77.0	2.5	/experiments/Knapen_AOT/AOT_stimuli/rescaled_final/1627_fw.mp4	0.0	385.04175305366516	
79	330.88276076316833	movie	1		277	77.0	2.5	/experiments/Knapen_AOT/AOT_stimuli/rescaled_final/1627_fw.mp4	0.0	385.46661281585693	2.4919936656951904
79	332.0582320690155	pulse	1	t		77.0	2.5	/experiments/Knapen_AOT/AOT_stimuli/rescaled_final/1627_fw.mp4	0.0	386.6420841217041	
79	333.3747544288635	fix_post	2		12	77.0	2.5	/experiments/Knapen_AOT/AOT_stimuli/rescaled_final/1627_fw.mp4	0.0	387.9586064815521	0.10000896453857422
80	333.4747633934021	fix_pre	0		120	78.0	2.5	/experiments/Knapen_AOT/AOT_stimuli/rescaled_final/0355_rv.mp4	0.0	388.0586154460907	1.008514642715454
80	333.65843319892883	pulse	0	t		78.0	2.5	/experiments/Knapen_AOT/AOT_stimuli/rescaled_final/0355_rv.mp4	0.0	388.24228525161743	
80	334.48327803611755	movie	1		280	78.0	2.5	/experiments/Knapen_AOT/AOT_stimuli/rescaled_final/0355_rv.mp4	0.0	389.06713008880615	2.4920637607574463
80	335.2585115432739	pulse	1	t		78.0	2.5	/experiments/Knapen_AOT/AOT_stimuli/rescaled_final/0355_rv.mp4	0.0	389.8423635959625	
80	336.8568801879883	pulse	1	t		78.0	2.5	/experiments/Knapen_AOT/AOT_stimuli/rescaled_final/0355_rv.mp4	0.0	391.4407322406769	
80	336.975341796875	fix_post	2		11	78.0	2.5	/experiments/Knapen_AOT/AOT_stimuli/rescaled_final/0355_rv.mp4	0.0	391.5591938495636	0.09997034072875977
81	337.07531213760376	fix_pre	0		120	79.0	2.5	/experiments/Knapen_AOT/AOT_stimuli/rescaled_final/1642_rv.mp4	0.0	391.65916419029236	1.0085856914520264
81	338.0838978290558	movie	1		270	79.0	2.5	/experiments/Knapen_AOT/AOT_stimuli/rescaled_final/1642_rv.mp4	0.0	392.6677498817444	2.491945266723633
81	338.45832419395447	pulse	1	t		79.0	2.5	/experiments/Knapen_AOT/AOT_stimuli/rescaled_final/1642_rv.mp4	0.0	393.04217624664307	
81	340.0589032173157	pulse	1	t		79.0	2.5	/experiments/Knapen_AOT/AOT_stimuli/rescaled_final/1642_rv.mp4	0.0	394.6427552700043	
81	340.5758430957794	fix_post	2		12	79.0	2.5	/experiments/Knapen_AOT/AOT_stimuli/rescaled_final/1642_rv.mp4	0.0	395.159695148468	0.10002303123474121
82	340.67586612701416	fix_pre	0		119	80.0	2.5	/experiments/Knapen_AOT/AOT_stimuli/rescaled_final/0958_fw.mp4	0.0	395.25971817970276	1.000119924545288
82	341.6596622467041	pulse	0	t		80.0	2.5	/experiments/Knapen_AOT/AOT_stimuli/rescaled_final/0958_fw.mp4	0.0	396.2435142993927	
82	341.67598605155945	movie	1		280	80.0	2.5	/experiments/Knapen_AOT/AOT_stimuli/rescaled_final/0958_fw.mp4	0.0	396.25983810424805	2.5004382133483887
82	343.2583556175232	pulse	1	t		80.0	2.5	/experiments/Knapen_AOT/AOT_stimuli/rescaled_final/0958_fw.mp4	0.0	397.8422076702118	
82	344.17642426490784	fix_post	2		12	80.0	2.5	/experiments/Knapen_AOT/AOT_stimuli/rescaled_final/0958_fw.mp4	0.0	398.76027631759644	0.09999990463256836
83	344.2764241695404	fix_pre	0		120	81.0	2.5	/experiments/Knapen_AOT/AOT_stimuli/rescaled_final/0953_fw.mp4	0.0	398.860276222229	1.008486032485962
83	344.8600435256958	pulse	0	t		81.0	2.5	/experiments/Knapen_AOT/AOT_stimuli/rescaled_final/0953_fw.mp4	0.0	399.4438955783844	
83	345.28491020202637	movie	1		260	81.0	2.5	/experiments/Knapen_AOT/AOT_stimuli/rescaled_final/0953_fw.mp4	0.0	399.86876225471497	2.4919800758361816
83	346.46036100387573	pulse	1	t		81.0	2.5	/experiments/Knapen_AOT/AOT_stimuli/rescaled_final/0953_fw.mp4	0.0	401.04421305656433	
83	347.77689027786255	fix_post	2		12	81.0	2.5	/experiments/Knapen_AOT/AOT_stimuli/rescaled_final/0953_fw.mp4	0.0	402.36074233055115	0.1000223159790039
84	347.87691259384155	fix_pre	0		120	82.0	2.5	/experiments/Knapen_AOT/AOT_stimuli/rescaled_final/1980_fw.mp4	0.0	402.46076464653015	1.0085158348083496
84	348.0606083869934	pulse	0	t		82.0	2.5	/experiments/Knapen_AOT/AOT_stimuli/rescaled_final/1980_fw.mp4	0.0	402.644460439682	
84	348.8854284286499	movie	1		275	82.0	2.5	/experiments/Knapen_AOT/AOT_stimuli/rescaled_final/1980_fw.mp4	0.0	403.4692804813385	2.4919967651367188
84	349.6595125198364	pulse	1	t		82.0	2.5	/experiments/Knapen_AOT/AOT_stimuli/rescaled_final/1980_fw.mp4	0.0	404.243364572525	
84	351.2595934867859	pulse	1	t		82.0	2.5	/experiments/Knapen_AOT/AOT_stimuli/rescaled_final/1980_fw.mp4	0.0	405.8434455394745	
84	351.3774251937866	fix_post	2		12	82.0	2.5	/experiments/Knapen_AOT/AOT_stimuli/rescaled_final/1980_fw.mp4	0.0	405.9612772464752	0.1000821590423584
85	351.477507352829	fix_pre	0		120	83.0	2.5	blank	1.0	406.0613594055176	1.0000967979431152
85	352.4776041507721	movie	1		300	83.0	2.5	blank	1.0	407.0614562034607	2.500375270843506
85	352.8612267971039	pulse	1	t		83.0	2.5	blank	1.0	407.4450788497925	
85	354.4616494178772	pulse	1	t		83.0	2.5	blank	1.0	409.0455014705658	
85	354.9779794216156	fix_post	2		12	83.0	2.5	blank	1.0	409.5618314743042	0.10840058326721191
87	355.0863800048828	stim	0		1714					409.6702320575714	14.285455226898193
87	356.06252813339233	pulse	0	t						410.64638018608093	
87	357.6622281074524	pulse	0	t						412.246080160141	
87	359.2625153064728	pulse	0	t						413.8463673591614	
87	360.8556475639343	pulse	0	t						415.4394996166229	
87	362.4545216560364	pulse	0	t						417.038373708725	
87	364.0549256801605	pulse	0	t						418.6387777328491	
87	365.6550781726837	pulse	0	t						420.2389302253723	
87	367.2558355331421	pulse	0	t						421.8396875858307	
87	368.85581493377686	pulse	0	t						423.43966698646545	
