trial_nr	onset	event_type	phase	response	nr_frames	movie_index	movie_duration	movie_file	blank	onset_abs	duration
0	0.1664290428161621	stim	0		1					46.75372099876404	0.008248329162597656
0	0.11975550651550293	response	0	space						46.70704746246338	
1	0.17467737197875977	stim	0		4684					46.761969327926636	39.0515398979187
1	39.21111035346985	pulse	0	t						85.79840230941772	
1	39.22621726989746	stim	1		1714					85.81350922584534	14.298110246658325
1	40.80645513534546	pulse	1	t						87.39374709129333	
1	42.40645503997803	pulse	1	t						88.9937469959259	
1	44.006422996520996	pulse	1	t						90.59371495246887	
1	45.6067430973053	pulse	1	t						92.19403505325317	
1	47.20699715614319	pulse	1	t						93.79428911209106	
1	48.807278871536255	pulse	1	t						95.39457082748413	
1	50.40736675262451	pulse	1	t						96.99465870857239	
1	52.00766158103943	pulse	1	t						98.5949535369873	
2	53.524327516555786	fix_pre	0		11	0.0	2.5	/experiments/knapen_AOT/AOT_stimuli/rescaled_final/0986_rv.mp4	0.0	100.11161947250366	0.10837221145629883
2	53.60795187950134	pulse	0	t		0.0	2.5	/experiments/knapen_AOT/AOT_stimuli/rescaled_final/0986_rv.mp4	0.0	100.19524383544922	
2	53.632699728012085	movie	1		266	0.0	2.5	/experiments/knapen_AOT/AOT_stimuli/rescaled_final/0986_rv.mp4	0.0	100.21999168395996	2.4921786785125732
2	55.206409215927124	pulse	1	t		0.0	2.5	/experiments/knapen_AOT/AOT_stimuli/rescaled_final/0986_rv.mp4	0.0	101.793701171875	
2	56.12487840652466	fix_post	2		12	0.0	2.5	/experiments/knapen_AOT/AOT_stimuli/rescaled_final/0986_rv.mp4	0.0	102.71217036247253	0.09987568855285645
3	56.224754095077515	fix_pre	0		120	1.0	2.5	/experiments/knapen_AOT/AOT_stimuli/rescaled_final/1555_fw.mp4	0.0	102.81204605102539	1.0084774494171143
3	56.80852198600769	pulse	0	t		1.0	2.5	/experiments/knapen_AOT/AOT_stimuli/rescaled_final/1555_fw.mp4	0.0	103.39581394195557	
3	57.23323154449463	movie	1		260	1.0	2.5	/experiments/knapen_AOT/AOT_stimuli/rescaled_final/1555_fw.mp4	0.0	103.8205235004425	2.4920268058776855
3	58.40676999092102	pulse	1	t		1.0	2.5	/experiments/knapen_AOT/AOT_stimuli/rescaled_final/1555_fw.mp4	0.0	104.9940619468689	
3	59.725258350372314	fix_post	2		12	1.0	2.5	/experiments/knapen_AOT/AOT_stimuli/rescaled_final/1555_fw.mp4	0.0	106.31255030632019	0.1000058650970459
4	59.82526421546936	fix_pre	0		120	2.0	2.5	/experiments/knapen_AOT/AOT_stimuli/rescaled_final/2017_rv.mp4	0.0	106.41255617141724	1.0084984302520752
4	60.00885248184204	pulse	0	t		2.0	2.5	/experiments/knapen_AOT/AOT_stimuli/rescaled_final/2017_rv.mp4	0.0	106.59614443778992	
4	60.833762645721436	movie	1		283	2.0	2.5	/experiments/knapen_AOT/AOT_stimuli/rescaled_final/2017_rv.mp4	0.0	107.42105460166931	2.492041826248169
4	61.607311725616455	pulse	1	t		2.0	2.5	/experiments/knapen_AOT/AOT_stimuli/rescaled_final/2017_rv.mp4	0.0	108.19460368156433	
4	63.2097487449646	pulse	1	t		2.0	2.5	/experiments/knapen_AOT/AOT_stimuli/rescaled_final/2017_rv.mp4	0.0	109.79704070091248	
4	63.325804471969604	fix_post	2		12	2.0	2.5	/experiments/knapen_AOT/AOT_stimuli/rescaled_final/2017_rv.mp4	0.0	109.91309642791748	0.10002350807189941
5	63.425827980041504	fix_pre	0		120	3.0	2.5	/experiments/knapen_AOT/AOT_stimuli/rescaled_final/1533_fw.mp4	0.0	110.01311993598938	1.0086188316345215
5	64.43444681167603	movie	1		276	3.0	2.5	/experiments/knapen_AOT/AOT_stimuli/rescaled_final/1533_fw.mp4	0.0	111.0217387676239	2.49188494682312
5	64.80931425094604	pulse	1	t		3.0	2.5	/experiments/knapen_AOT/AOT_stimuli/rescaled_final/1533_fw.mp4	0.0	111.39660620689392	
5	66.40788722038269	pulse	1	t		3.0	2.5	/experiments/knapen_AOT/AOT_stimuli/rescaled_final/1533_fw.mp4	0.0	112.99517917633057	
5	66.92633175849915	fix_post	2		12	3.0	2.5	/experiments/knapen_AOT/AOT_stimuli/rescaled_final/1533_fw.mp4	0.0	113.51362371444702	0.10001277923583984
6	67.02634453773499	fix_pre	0		119	4.0	2.5	/experiments/knapen_AOT/AOT_stimuli/rescaled_final/1569_rv.mp4	0.0	113.61363649368286	1.0002849102020264
6	68.01006722450256	pulse	0	t		4.0	2.5	/experiments/knapen_AOT/AOT_stimuli/rescaled_final/1569_rv.mp4	0.0	114.59735918045044	
6	68.02662944793701	movie	1		275	4.0	2.5	/experiments/knapen_AOT/AOT_stimuli/rescaled_final/1569_rv.mp4	0.0	114.61392140388489	2.500246524810791
6	69.60838723182678	pulse	1	t		4.0	2.5	/experiments/knapen_AOT/AOT_stimuli/rescaled_final/1569_rv.mp4	0.0	116.19567918777466	
6	70.5268759727478	fix_post	2		12	4.0	2.5	/experiments/knapen_AOT/AOT_stimuli/rescaled_final/1569_rv.mp4	0.0	117.11416792869568	0.10003328323364258
7	70.62690925598145	fix_pre	0		120	5.0	2.5	/experiments/knapen_AOT/AOT_stimuli/rescaled_final/0293_rv.mp4	0.0	117.21420121192932	1.0086464881896973
7	71.21082210540771	pulse	0	t		5.0	2.5	/experiments/knapen_AOT/AOT_stimuli/rescaled_final/0293_rv.mp4	0.0	117.79811406135559	
7	71.63555574417114	movie	1		273	5.0	2.5	/experiments/knapen_AOT/AOT_stimuli/rescaled_final/0293_rv.mp4	0.0	118.22284770011902	2.4918742179870605
7	72.81083703041077	pulse	1	t		5.0	2.5	/experiments/knapen_AOT/AOT_stimuli/rescaled_final/0293_rv.mp4	0.0	119.39812898635864	
7	74.1274299621582	fix_post	2		12	5.0	2.5	/experiments/knapen_AOT/AOT_stimuli/rescaled_final/0293_rv.mp4	0.0	120.71472191810608	0.10001611709594727
8	74.22744607925415	fix_pre	0		120	6.0	2.5	/experiments/knapen_AOT/AOT_stimuli/rescaled_final/2074_rv.mp4	0.0	120.81473803520203	1.0084693431854248
8	74.41098690032959	pulse	0	t		6.0	2.5	/experiments/knapen_AOT/AOT_stimuli/rescaled_final/2074_rv.mp4	0.0	120.99827885627747	
8	75.23591542243958	movie	1		277	6.0	2.5	/experiments/knapen_AOT/AOT_stimuli/rescaled_final/2074_rv.mp4	0.0	121.82320737838745	2.4920804500579834
8	76.00982809066772	pulse	1	t		6.0	2.5	/experiments/knapen_AOT/AOT_stimuli/rescaled_final/2074_rv.mp4	0.0	122.5971200466156	
8	77.60975813865662	pulse	1	t		6.0	2.5	/experiments/knapen_AOT/AOT_stimuli/rescaled_final/2074_rv.mp4	0.0	124.19705009460449	
8	77.72799587249756	fix_post	2		12	6.0	2.5	/experiments/knapen_AOT/AOT_stimuli/rescaled_final/2074_rv.mp4	0.0	124.31528782844543	0.09998559951782227
9	77.82798147201538	fix_pre	0		120	7.0	2.5	blank	1.0	124.41527342796326	1.000166893005371
9	78.82814836502075	movie	1		300	7.0	2.5	blank	1.0	125.41544032096863	2.5003483295440674
9	79.21171188354492	pulse	1	t		7.0	2.5	blank	1.0	125.7990038394928	
9	80.81193685531616	pulse	1	t		7.0	2.5	blank	1.0	127.39922881126404	
9	81.32849669456482	fix_post	2		12	7.0	2.5	blank	1.0	127.9157886505127	0.10002303123474121
10	81.42851972579956	fix_pre	0		119	8.0	2.5	/experiments/knapen_AOT/AOT_stimuli/rescaled_final/2074_fw.mp4	0.0	128.01581168174744	1.0002150535583496
10	82.41232967376709	pulse	0	t		8.0	2.5	/experiments/knapen_AOT/AOT_stimuli/rescaled_final/2074_fw.mp4	0.0	128.99962162971497	
10	82.42873477935791	movie	1		273	8.0	2.5	/experiments/knapen_AOT/AOT_stimuli/rescaled_final/2074_fw.mp4	0.0	129.0160267353058	2.5003347396850586
10	84.01126909255981	pulse	1	t		8.0	2.5	/experiments/knapen_AOT/AOT_stimuli/rescaled_final/2074_fw.mp4	0.0	130.5985610485077	
10	84.92906951904297	fix_post	2		12	8.0	2.5	/experiments/knapen_AOT/AOT_stimuli/rescaled_final/2074_fw.mp4	0.0	131.51636147499084	0.09999704360961914
11	85.02906656265259	fix_pre	0		120	9.0	2.5	/experiments/knapen_AOT/AOT_stimuli/rescaled_final/0730_fw.mp4	0.0	131.61635851860046	1.0086188316345215
11	85.61281490325928	pulse	0	t		9.0	2.5	/experiments/knapen_AOT/AOT_stimuli/rescaled_final/0730_fw.mp4	0.0	132.20010685920715	
11	86.03768539428711	movie	1		277	9.0	2.5	/experiments/knapen_AOT/AOT_stimuli/rescaled_final/0730_fw.mp4	0.0	132.62497735023499	2.4919302463531494
11	87.2111029624939	pulse	1	t		9.0	2.5	/experiments/knapen_AOT/AOT_stimuli/rescaled_final/0730_fw.mp4	0.0	133.79839491844177	
11	88.52961564064026	fix_post	2		12	9.0	2.5	/experiments/knapen_AOT/AOT_stimuli/rescaled_final/0730_fw.mp4	0.0	135.11690759658813	0.10010862350463867
12	88.6297242641449	fix_pre	0		120	10.0	2.5	/experiments/knapen_AOT/AOT_stimuli/rescaled_final/1547_rv.mp4	0.0	135.21701622009277	1.008390188217163
12	88.80560326576233	pulse	0	t		10.0	2.5	/experiments/knapen_AOT/AOT_stimuli/rescaled_final/1547_rv.mp4	0.0	135.3928952217102	
12	89.63811445236206	movie	1		273	10.0	2.5	/experiments/knapen_AOT/AOT_stimuli/rescaled_final/1547_rv.mp4	0.0	136.22540640830994	2.4920740127563477
12	90.40531158447266	pulse	1	t		10.0	2.5	/experiments/knapen_AOT/AOT_stimuli/rescaled_final/1547_rv.mp4	0.0	136.99260354042053	
12	92.00548028945923	pulse	1	t		10.0	2.5	/experiments/knapen_AOT/AOT_stimuli/rescaled_final/1547_rv.mp4	0.0	138.5927722454071	
12	92.13018846511841	fix_post	2		12	10.0	2.5	/experiments/knapen_AOT/AOT_stimuli/rescaled_final/1547_rv.mp4	0.0	138.71748042106628	0.10003089904785156
13	92.23021936416626	fix_pre	0		120	11.0	2.5	/experiments/knapen_AOT/AOT_stimuli/rescaled_final/1860_rv.mp4	0.0	138.81751132011414	1.008474349975586
13	93.23869371414185	movie	1		277	11.0	2.5	/experiments/knapen_AOT/AOT_stimuli/rescaled_final/1860_rv.mp4	0.0	139.82598567008972	2.4919650554656982
13	93.60554838180542	pulse	1	t		11.0	2.5	/experiments/knapen_AOT/AOT_stimuli/rescaled_final/1860_rv.mp4	0.0	140.1928403377533	
13	95.20579791069031	pulse	1	t		11.0	2.5	/experiments/knapen_AOT/AOT_stimuli/rescaled_final/1860_rv.mp4	0.0	141.79308986663818	
13	95.73065876960754	fix_post	2		12	11.0	2.5	/experiments/knapen_AOT/AOT_stimuli/rescaled_final/1860_rv.mp4	0.0	142.31795072555542	0.10007572174072266
14	95.83073449134827	fix_pre	0		118	12.0	2.5	blank	1.0	142.41802644729614	0.9833827018737793
14	96.8060450553894	pulse	0	t		12.0	2.5	blank	1.0	143.39333701133728	
14	96.81411719322205	movie	1		301	12.0	2.5	blank	1.0	143.40140914916992	2.5087459087371826
14	98.40628290176392	pulse	1	t		12.0	2.5	blank	1.0	144.9935748577118	
14	99.32286310195923	fix_post	2		12	12.0	2.5	blank	1.0	145.9101550579071	0.10004591941833496
15	99.42290902137756	fix_pre	0		120	13.0	2.5	/experiments/knapen_AOT/AOT_stimuli/rescaled_final/0164_rv.mp4	0.0	146.01020097732544	1.0084662437438965
15	100.00653195381165	pulse	0	t		13.0	2.5	/experiments/knapen_AOT/AOT_stimuli/rescaled_final/0164_rv.mp4	0.0	146.59382390975952	
15	100.43137526512146	movie	1		263	13.0	2.5	/experiments/knapen_AOT/AOT_stimuli/rescaled_final/0164_rv.mp4	0.0	147.01866722106934	2.492109537124634
15	101.60680556297302	pulse	1	t		13.0	2.5	/experiments/knapen_AOT/AOT_stimuli/rescaled_final/0164_rv.mp4	0.0	148.1940975189209	
15	102.9234848022461	fix_post	2		12	13.0	2.5	/experiments/knapen_AOT/AOT_stimuli/rescaled_final/0164_rv.mp4	0.0	149.51077675819397	0.10004329681396484
16	103.02352809906006	fix_pre	0		120	14.0	2.5	/experiments/knapen_AOT/AOT_stimuli/rescaled_final/2091_fw.mp4	0.0	149.61082005500793	1.0083959102630615
16	103.20701813697815	pulse	0	t		14.0	2.5	/experiments/knapen_AOT/AOT_stimuli/rescaled_final/2091_fw.mp4	0.0	149.79431009292603	
16	104.03192400932312	movie	1		283	14.0	2.5	/experiments/knapen_AOT/AOT_stimuli/rescaled_final/2091_fw.mp4	0.0	150.619215965271	2.4920263290405273
16	104.80724310874939	pulse	1	t		14.0	2.5	/experiments/knapen_AOT/AOT_stimuli/rescaled_final/2091_fw.mp4	0.0	151.39453506469727	
16	106.40758013725281	pulse	1	t		14.0	2.5	/experiments/knapen_AOT/AOT_stimuli/rescaled_final/2091_fw.mp4	0.0	152.99487209320068	
16	106.52395033836365	fix_post	2		12	14.0	2.5	/experiments/knapen_AOT/AOT_stimuli/rescaled_final/2091_fw.mp4	0.0	153.11124229431152	0.10003113746643066
17	106.62398147583008	fix_pre	0		120	15.0	2.5	/experiments/knapen_AOT/AOT_stimuli/rescaled_final/0180_fw.mp4	0.0	153.21127343177795	1.0084903240203857
17	107.63247179985046	movie	1		274	15.0	2.5	/experiments/knapen_AOT/AOT_stimuli/rescaled_final/0180_fw.mp4	0.0	154.21976375579834	2.492070436477661
17	108.00750374794006	pulse	1	t		15.0	2.5	/experiments/knapen_AOT/AOT_stimuli/rescaled_final/0180_fw.mp4	0.0	154.59479570388794	
17	109.60585570335388	pulse	1	t		15.0	2.5	/experiments/knapen_AOT/AOT_stimuli/rescaled_final/0180_fw.mp4	0.0	156.19314765930176	
17	110.12454223632812	fix_post	2		12	15.0	2.5	/experiments/knapen_AOT/AOT_stimuli/rescaled_final/0180_fw.mp4	0.0	156.711834192276	0.10001516342163086
18	110.22455739974976	fix_pre	0		119	16.0	2.5	/experiments/knapen_AOT/AOT_stimuli/rescaled_final/1582_fw.mp4	0.0	156.81184935569763	1.0002622604370117
18	111.20817756652832	pulse	0	t		16.0	2.5	/experiments/knapen_AOT/AOT_stimuli/rescaled_final/1582_fw.mp4	0.0	157.7954695224762	
18	111.22481966018677	movie	1		288	16.0	2.5	/experiments/knapen_AOT/AOT_stimuli/rescaled_final/1582_fw.mp4	0.0	157.81211161613464	2.5002214908599854
18	112.80663847923279	pulse	1	t		16.0	2.5	/experiments/knapen_AOT/AOT_stimuli/rescaled_final/1582_fw.mp4	0.0	159.39393043518066	
18	113.72504115104675	fix_post	2		12	16.0	2.5	/experiments/knapen_AOT/AOT_stimuli/rescaled_final/1582_fw.mp4	0.0	160.31233310699463	0.10001063346862793
19	113.82505178451538	fix_pre	0		120	17.0	2.5	/experiments/knapen_AOT/AOT_stimuli/rescaled_final/0233_rv.mp4	0.0	160.41234374046326	1.0084853172302246
19	114.40870523452759	pulse	0	t		17.0	2.5	/experiments/knapen_AOT/AOT_stimuli/rescaled_final/0233_rv.mp4	0.0	160.99599719047546	
19	114.8335371017456	movie	1		289	17.0	2.5	/experiments/knapen_AOT/AOT_stimuli/rescaled_final/0233_rv.mp4	0.0	161.42082905769348	2.492095470428467
19	116.00677967071533	pulse	1	t		17.0	2.5	/experiments/knapen_AOT/AOT_stimuli/rescaled_final/0233_rv.mp4	0.0	162.5940716266632	
19	117.32563257217407	fix_post	2		12	17.0	2.5	/experiments/knapen_AOT/AOT_stimuli/rescaled_final/0233_rv.mp4	0.0	163.91292452812195	0.09999275207519531
20	117.42562532424927	fix_pre	0		120	18.0	2.5	/experiments/knapen_AOT/AOT_stimuli/rescaled_final/0901_rv.mp4	0.0	164.01291728019714	1.0084812641143799
20	117.60917401313782	pulse	0	t		18.0	2.5	/experiments/knapen_AOT/AOT_stimuli/rescaled_final/0901_rv.mp4	0.0	164.1964659690857	
20	118.43410658836365	movie	1		283	18.0	2.5	/experiments/knapen_AOT/AOT_stimuli/rescaled_final/0901_rv.mp4	0.0	165.02139854431152	2.492002248764038
20	119.2072217464447	pulse	1	t		18.0	2.5	/experiments/knapen_AOT/AOT_stimuli/rescaled_final/0901_rv.mp4	0.0	165.79451370239258	
20	120.80736255645752	pulse	1	t		18.0	2.5	/experiments/knapen_AOT/AOT_stimuli/rescaled_final/0901_rv.mp4	0.0	167.3946545124054	
20	120.92610883712769	fix_post	2		12	18.0	2.5	/experiments/knapen_AOT/AOT_stimuli/rescaled_final/0901_rv.mp4	0.0	167.51340079307556	0.10003471374511719
21	121.0261435508728	fix_pre	0		120	19.0	2.5	/experiments/knapen_AOT/AOT_stimuli/rescaled_final/0895_rv.mp4	0.0	167.61343550682068	1.0085487365722656
21	122.03469228744507	movie	1		280	19.0	2.5	/experiments/knapen_AOT/AOT_stimuli/rescaled_final/0895_rv.mp4	0.0	168.62198424339294	2.492142677307129
21	122.4078722000122	pulse	1	t		19.0	2.5	/experiments/knapen_AOT/AOT_stimuli/rescaled_final/0895_rv.mp4	0.0	168.99516415596008	
21	124.00799441337585	pulse	1	t		19.0	2.5	/experiments/knapen_AOT/AOT_stimuli/rescaled_final/0895_rv.mp4	0.0	170.59528636932373	
21	124.5268349647522	fix_post	2		12	19.0	2.5	/experiments/knapen_AOT/AOT_stimuli/rescaled_final/0895_rv.mp4	0.0	171.11412692070007	0.09986758232116699
22	124.62670254707336	fix_pre	0		119	20.0	2.5	/experiments/knapen_AOT/AOT_stimuli/rescaled_final/1895_fw.mp4	0.0	171.21399450302124	1.0002548694610596
22	125.61077785491943	pulse	0	t		20.0	2.5	/experiments/knapen_AOT/AOT_stimuli/rescaled_final/1895_fw.mp4	0.0	172.1980698108673	
22	125.62695741653442	movie	1		278	20.0	2.5	/experiments/knapen_AOT/AOT_stimuli/rescaled_final/1895_fw.mp4	0.0	172.2142493724823	2.5002598762512207
22	127.20981907844543	pulse	1	t		20.0	2.5	/experiments/knapen_AOT/AOT_stimuli/rescaled_final/1895_fw.mp4	0.0	173.7971110343933	
22	128.12721729278564	fix_post	2		12	20.0	2.5	/experiments/knapen_AOT/AOT_stimuli/rescaled_final/1895_fw.mp4	0.0	174.71450924873352	0.10003852844238281
23	128.22725582122803	fix_pre	0		120	21.0	2.5	blank	1.0	174.8145477771759	1.0001952648162842
23	128.8107681274414	pulse	0	t		21.0	2.5	blank	1.0	175.39806008338928	
23	129.2274510860443	movie	1		300	21.0	2.5	blank	1.0	175.8147430419922	2.5004255771636963
23	130.41110587120056	pulse	1	t		21.0	2.5	blank	1.0	176.99839782714844	
23	131.727876663208	fix_post	2		12	21.0	2.5	blank	1.0	178.31516861915588	0.09992647171020508
24	131.8278031349182	fix_pre	0		120	22.0	2.5	/experiments/knapen_AOT/AOT_stimuli/rescaled_final/1315_rv.mp4	0.0	178.4150950908661	1.0085062980651855
24	132.01132345199585	pulse	0	t		22.0	2.5	/experiments/knapen_AOT/AOT_stimuli/rescaled_final/1315_rv.mp4	0.0	178.59861540794373	
24	132.8363094329834	movie	1		281	22.0	2.5	/experiments/knapen_AOT/AOT_stimuli/rescaled_final/1315_rv.mp4	0.0	179.42360138893127	2.491962432861328
24	133.60943698883057	pulse	1	t		22.0	2.5	/experiments/knapen_AOT/AOT_stimuli/rescaled_final/1315_rv.mp4	0.0	180.19672894477844	
24	135.21167922019958	pulse	1	t		22.0	2.5	/experiments/knapen_AOT/AOT_stimuli/rescaled_final/1315_rv.mp4	0.0	181.79897117614746	
24	135.32827186584473	fix_post	2		12	22.0	2.5	/experiments/knapen_AOT/AOT_stimuli/rescaled_final/1315_rv.mp4	0.0	181.9155638217926	0.10002517700195312
25	135.42829704284668	fix_pre	0		120	23.0	2.5	/experiments/knapen_AOT/AOT_stimuli/rescaled_final/0286_fw.mp4	0.0	182.01558899879456	1.0085644721984863
25	136.43686151504517	movie	1		270	23.0	2.5	/experiments/knapen_AOT/AOT_stimuli/rescaled_final/0286_fw.mp4	0.0	183.02415347099304	2.492003917694092
25	136.81124472618103	pulse	1	t		23.0	2.5	/experiments/knapen_AOT/AOT_stimuli/rescaled_final/0286_fw.mp4	0.0	183.3985366821289	
25	138.41170167922974	pulse	1	t		23.0	2.5	/experiments/knapen_AOT/AOT_stimuli/rescaled_final/0286_fw.mp4	0.0	184.9989936351776	
25	138.92886543273926	fix_post	2		12	23.0	2.5	/experiments/knapen_AOT/AOT_stimuli/rescaled_final/0286_fw.mp4	0.0	185.51615738868713	0.10001111030578613
26	139.02887654304504	fix_pre	0		119	24.0	2.5	/experiments/knapen_AOT/AOT_stimuli/rescaled_final/2017_rv.mp4	0.0	185.61616849899292	1.0001368522644043
26	140.01256489753723	pulse	0	t		24.0	2.5	/experiments/knapen_AOT/AOT_stimuli/rescaled_final/2017_rv.mp4	0.0	186.5998568534851	
26	140.02901339530945	movie	1		288	24.0	2.5	/experiments/knapen_AOT/AOT_stimuli/rescaled_final/2017_rv.mp4	0.0	186.61630535125732	2.500363349914551
26	141.61130094528198	pulse	1	t		24.0	2.5	/experiments/knapen_AOT/AOT_stimuli/rescaled_final/2017_rv.mp4	0.0	188.19859290122986	
26	142.529376745224	fix_post	2		12	24.0	2.5	/experiments/knapen_AOT/AOT_stimuli/rescaled_final/2017_rv.mp4	0.0	189.11666870117188	0.10000276565551758
27	142.62937951087952	fix_pre	0		120	25.0	2.5	/experiments/knapen_AOT/AOT_stimuli/rescaled_final/1002_rv.mp4	0.0	189.2166714668274	1.0085015296936035
27	143.2130241394043	pulse	0	t		25.0	2.5	/experiments/knapen_AOT/AOT_stimuli/rescaled_final/1002_rv.mp4	0.0	189.80031609535217	
27	143.63788104057312	movie	1		272	25.0	2.5	/experiments/knapen_AOT/AOT_stimuli/rescaled_final/1002_rv.mp4	0.0	190.225172996521	2.4920666217803955
27	144.8111469745636	pulse	1	t		25.0	2.5	/experiments/knapen_AOT/AOT_stimuli/rescaled_final/1002_rv.mp4	0.0	191.39843893051147	
27	146.12994766235352	fix_post	2		12	25.0	2.5	/experiments/knapen_AOT/AOT_stimuli/rescaled_final/1002_rv.mp4	0.0	192.7172396183014	0.10010170936584473
28	146.23004937171936	fix_pre	0		120	26.0	2.5	/experiments/knapen_AOT/AOT_stimuli/rescaled_final/1887_rv.mp4	0.0	192.81734132766724	1.008420705795288
28	146.40560507774353	pulse	0	t		26.0	2.5	/experiments/knapen_AOT/AOT_stimuli/rescaled_final/1887_rv.mp4	0.0	192.9928970336914	
28	147.23847007751465	movie	1		274	26.0	2.5	/experiments/knapen_AOT/AOT_stimuli/rescaled_final/1887_rv.mp4	0.0	193.82576203346252	2.4919822216033936
28	148.00559377670288	pulse	1	t		26.0	2.5	/experiments/knapen_AOT/AOT_stimuli/rescaled_final/1887_rv.mp4	0.0	194.59288573265076	
28	149.60567831993103	pulse	1	t		26.0	2.5	/experiments/knapen_AOT/AOT_stimuli/rescaled_final/1887_rv.mp4	0.0	196.1929702758789	
28	149.73045229911804	fix_post	2		12	26.0	2.5	/experiments/knapen_AOT/AOT_stimuli/rescaled_final/1887_rv.mp4	0.0	196.31774425506592	0.1000216007232666
29	149.8304738998413	fix_pre	0		120	27.0	2.5	blank	1.0	196.41776585578918	1.0001296997070312
29	150.83060359954834	movie	1		300	27.0	2.5	blank	1.0	197.41789555549622	2.5004239082336426
29	151.20591139793396	pulse	1	t		27.0	2.5	blank	1.0	197.79320335388184	
29	152.80610966682434	pulse	1	t		27.0	2.5	blank	1.0	199.39340162277222	
29	153.33102750778198	fix_post	2		12	27.0	2.5	blank	1.0	199.91831946372986	0.10001111030578613
30	153.43103861808777	fix_pre	0		118	28.0	2.5	/experiments/knapen_AOT/AOT_stimuli/rescaled_final/1186_fw.mp4	0.0	200.01833057403564	0.9918859004974365
30	154.40639805793762	pulse	0	t		28.0	2.5	/experiments/knapen_AOT/AOT_stimuli/rescaled_final/1186_fw.mp4	0.0	200.9936900138855	
30	154.4229245185852	movie	1		270	28.0	2.5	/experiments/knapen_AOT/AOT_stimuli/rescaled_final/1186_fw.mp4	0.0	201.01021647453308	2.50026798248291
30	156.00670337677002	pulse	1	t		28.0	2.5	/experiments/knapen_AOT/AOT_stimuli/rescaled_final/1186_fw.mp4	0.0	202.5939953327179	
30	156.92319250106812	fix_post	2		12	28.0	2.5	/experiments/knapen_AOT/AOT_stimuli/rescaled_final/1186_fw.mp4	0.0	203.510484457016	0.10002017021179199
31	157.0232126712799	fix_pre	0		120	29.0	2.5	/experiments/knapen_AOT/AOT_stimuli/rescaled_final/0233_fw.mp4	0.0	203.61050462722778	1.0084726810455322
31	157.6068730354309	pulse	0	t		29.0	2.5	/experiments/knapen_AOT/AOT_stimuli/rescaled_final/0233_fw.mp4	0.0	204.19416499137878	
31	158.03168535232544	movie	1		278	29.0	2.5	/experiments/knapen_AOT/AOT_stimuli/rescaled_final/0233_fw.mp4	0.0	204.61897730827332	2.492048978805542
31	159.20708346366882	pulse	1	t		29.0	2.5	/experiments/knapen_AOT/AOT_stimuli/rescaled_final/0233_fw.mp4	0.0	205.7943754196167	
31	160.52373433113098	fix_post	2		12	29.0	2.5	/experiments/knapen_AOT/AOT_stimuli/rescaled_final/0233_fw.mp4	0.0	207.11102628707886	0.10002470016479492
32	160.62375903129578	fix_pre	0		120	30.0	2.5	/experiments/knapen_AOT/AOT_stimuli/rescaled_final/2057_rv.mp4	0.0	207.21105098724365	1.008549690246582
32	160.80753898620605	pulse	0	t		30.0	2.5	/experiments/knapen_AOT/AOT_stimuli/rescaled_final/2057_rv.mp4	0.0	207.39483094215393	
32	161.63230872154236	movie	1		287	30.0	2.5	/experiments/knapen_AOT/AOT_stimuli/rescaled_final/2057_rv.mp4	0.0	208.21960067749023	2.4919939041137695
32	162.40596461296082	pulse	1	t		30.0	2.5	/experiments/knapen_AOT/AOT_stimuli/rescaled_final/2057_rv.mp4	0.0	208.9932565689087	
32	164.00595140457153	pulse	1	t		30.0	2.5	/experiments/knapen_AOT/AOT_stimuli/rescaled_final/2057_rv.mp4	0.0	210.5932433605194	
32	164.12430262565613	fix_post	2		12	30.0	2.5	/experiments/knapen_AOT/AOT_stimuli/rescaled_final/2057_rv.mp4	0.0	210.711594581604	0.1000368595123291
33	164.22433948516846	fix_pre	0		120	31.0	2.5	/experiments/knapen_AOT/AOT_stimuli/rescaled_final/0867_rv.mp4	0.0	210.81163144111633	1.008467435836792
33	165.23280692100525	movie	1		283	31.0	2.5	/experiments/knapen_AOT/AOT_stimuli/rescaled_final/0867_rv.mp4	0.0	211.82009887695312	2.492112159729004
33	165.60679817199707	pulse	1	t		31.0	2.5	/experiments/knapen_AOT/AOT_stimuli/rescaled_final/0867_rv.mp4	0.0	212.19409012794495	
33	167.2059063911438	pulse	1	t		31.0	2.5	/experiments/knapen_AOT/AOT_stimuli/rescaled_final/0867_rv.mp4	0.0	213.79319834709167	
33	167.72491908073425	fix_post	2		12	31.0	2.5	/experiments/knapen_AOT/AOT_stimuli/rescaled_final/0867_rv.mp4	0.0	214.31221103668213	0.09991645812988281
34	167.82483553886414	fix_pre	0		119	32.0	2.5	/experiments/knapen_AOT/AOT_stimuli/rescaled_final/1714_rv.mp4	0.0	214.412127494812	1.000279426574707
34	168.80857634544373	pulse	0	t		32.0	2.5	/experiments/knapen_AOT/AOT_stimuli/rescaled_final/1714_rv.mp4	0.0	215.3958683013916	
34	168.82511496543884	movie	1		288	32.0	2.5	/experiments/knapen_AOT/AOT_stimuli/rescaled_final/1714_rv.mp4	0.0	215.41240692138672	2.5004231929779053
34	170.4073359966278	pulse	1	t		32.0	2.5	/experiments/knapen_AOT/AOT_stimuli/rescaled_final/1714_rv.mp4	0.0	216.99462795257568	
34	171.32553815841675	fix_post	2		12	32.0	2.5	/experiments/knapen_AOT/AOT_stimuli/rescaled_final/1714_rv.mp4	0.0	217.91283011436462	0.0998530387878418
35	171.4253911972046	fix_pre	0		120	33.0	2.5	blank	1.0	218.01268315315247	1.0001296997070312
35	172.0089888572693	pulse	0	t		33.0	2.5	blank	1.0	218.59628081321716	
35	172.42552089691162	movie	1		300	33.0	2.5	blank	1.0	219.0128128528595	2.5003654956817627
35	173.6092565059662	pulse	1	t		33.0	2.5	blank	1.0	220.19654846191406	
35	174.92588639259338	fix_post	2		12	33.0	2.5	blank	1.0	221.51317834854126	0.10005927085876465
36	175.02594566345215	fix_pre	0		120	34.0	2.5	/experiments/knapen_AOT/AOT_stimuli/rescaled_final/1990_rv.mp4	0.0	221.61323761940002	1.0084779262542725
36	175.2095296382904	pulse	0	t		34.0	2.5	/experiments/knapen_AOT/AOT_stimuli/rescaled_final/1990_rv.mp4	0.0	221.79682159423828	
36	176.03442358970642	movie	1		280	34.0	2.5	/experiments/knapen_AOT/AOT_stimuli/rescaled_final/1990_rv.mp4	0.0	222.6217155456543	2.492039442062378
36	176.80904006958008	pulse	1	t		34.0	2.5	/experiments/knapen_AOT/AOT_stimuli/rescaled_final/1990_rv.mp4	0.0	223.39633202552795	
36	178.41052293777466	pulse	1	t		34.0	2.5	/experiments/knapen_AOT/AOT_stimuli/rescaled_final/1990_rv.mp4	0.0	224.99781489372253	
36	178.5264630317688	fix_post	2		12	34.0	2.5	/experiments/knapen_AOT/AOT_stimuli/rescaled_final/1990_rv.mp4	0.0	225.11375498771667	0.10005307197570801
37	178.6265161037445	fix_pre	0		120	35.0	2.5	/experiments/knapen_AOT/AOT_stimuli/rescaled_final/1870_rv.mp4	0.0	225.21380805969238	1.0084517002105713
37	179.63496780395508	movie	1		275	35.0	2.5	/experiments/knapen_AOT/AOT_stimuli/rescaled_final/1870_rv.mp4	0.0	226.22225975990295	2.4920220375061035
37	180.00919938087463	pulse	1	t		35.0	2.5	/experiments/knapen_AOT/AOT_stimuli/rescaled_final/1870_rv.mp4	0.0	226.5964913368225	
37	181.60903882980347	pulse	1	t		35.0	2.5	/experiments/knapen_AOT/AOT_stimuli/rescaled_final/1870_rv.mp4	0.0	228.19633078575134	
37	182.12698984146118	fix_post	2		12	35.0	2.5	/experiments/knapen_AOT/AOT_stimuli/rescaled_final/1870_rv.mp4	0.0	228.71428179740906	0.10001373291015625
38	182.22700357437134	fix_pre	0		119	36.0	2.5	/experiments/knapen_AOT/AOT_stimuli/rescaled_final/1696_fw.mp4	0.0	228.8142955303192	1.0001749992370605
38	183.2109694480896	pulse	0	t		36.0	2.5	/experiments/knapen_AOT/AOT_stimuli/rescaled_final/1696_fw.mp4	0.0	229.79826140403748	
38	183.2271785736084	movie	1		280	36.0	2.5	/experiments/knapen_AOT/AOT_stimuli/rescaled_final/1696_fw.mp4	0.0	229.81447052955627	2.5006699562072754
38	184.80944347381592	pulse	1	t		36.0	2.5	/experiments/knapen_AOT/AOT_stimuli/rescaled_final/1696_fw.mp4	0.0	231.3967354297638	
38	185.72784852981567	fix_post	2		12	36.0	2.5	/experiments/knapen_AOT/AOT_stimuli/rescaled_final/1696_fw.mp4	0.0	232.31514048576355	0.09972453117370605
39	185.82757306098938	fix_pre	0		120	37.0	2.5	/experiments/knapen_AOT/AOT_stimuli/rescaled_final/1275_fw.mp4	0.0	232.41486501693726	1.0084500312805176
39	186.41115140914917	pulse	0	t		37.0	2.5	/experiments/knapen_AOT/AOT_stimuli/rescaled_final/1275_fw.mp4	0.0	232.99844336509705	
39	186.8360230922699	movie	1		275	37.0	2.5	/experiments/knapen_AOT/AOT_stimuli/rescaled_final/1275_fw.mp4	0.0	233.42331504821777	2.4920363426208496
39	188.01090097427368	pulse	1	t		37.0	2.5	/experiments/knapen_AOT/AOT_stimuli/rescaled_final/1275_fw.mp4	0.0	234.59819293022156	
39	189.32805943489075	fix_post	2		12	37.0	2.5	/experiments/knapen_AOT/AOT_stimuli/rescaled_final/1275_fw.mp4	0.0	235.91535139083862	0.10001754760742188
40	189.42807698249817	fix_pre	0		120	38.0	2.5	/experiments/knapen_AOT/AOT_stimuli/rescaled_final/2161_fw.mp4	0.0	236.01536893844604	1.0085351467132568
40	189.6117033958435	pulse	0	t		38.0	2.5	/experiments/knapen_AOT/AOT_stimuli/rescaled_final/2161_fw.mp4	0.0	236.19899535179138	
40	190.43661212921143	movie	1		282	38.0	2.5	/experiments/knapen_AOT/AOT_stimuli/rescaled_final/2161_fw.mp4	0.0	237.0239040851593	2.4919896125793457
40	191.21062183380127	pulse	1	t		38.0	2.5	/experiments/knapen_AOT/AOT_stimuli/rescaled_final/2161_fw.mp4	0.0	237.79791378974915	
40	192.81000900268555	pulse	1	t		38.0	2.5	/experiments/knapen_AOT/AOT_stimuli/rescaled_final/2161_fw.mp4	0.0	239.39730095863342	
40	192.92860174179077	fix_post	2		12	38.0	2.5	/experiments/knapen_AOT/AOT_stimuli/rescaled_final/2161_fw.mp4	0.0	239.51589369773865	0.10004162788391113
41	193.02864336967468	fix_pre	0		120	39.0	2.5	/experiments/knapen_AOT/AOT_stimuli/rescaled_final/0020_fw.mp4	0.0	239.61593532562256	1.0084562301635742
41	194.03709959983826	movie	1		288	39.0	2.5	/experiments/knapen_AOT/AOT_stimuli/rescaled_final/0020_fw.mp4	0.0	240.62439155578613	2.492048978805542
41	194.41059613227844	pulse	1	t		39.0	2.5	/experiments/knapen_AOT/AOT_stimuli/rescaled_final/0020_fw.mp4	0.0	240.99788808822632	
41	196.01029109954834	pulse	1	t		39.0	2.5	/experiments/knapen_AOT/AOT_stimuli/rescaled_final/0020_fw.mp4	0.0	242.59758305549622	
41	196.5291485786438	fix_post	2		12	39.0	2.5	/experiments/knapen_AOT/AOT_stimuli/rescaled_final/0020_fw.mp4	0.0	243.11644053459167	0.1000053882598877
42	196.6291539669037	fix_pre	0		119	40.0	2.5	blank	1.0	243.21644592285156	0.9918315410614014
42	197.61316323280334	pulse	0	t		40.0	2.5	blank	1.0	244.20045518875122	
42	197.6209855079651	movie	1		301	40.0	2.5	blank	1.0	244.20827746391296	2.5086991786956787
42	199.21317958831787	pulse	1	t		40.0	2.5	blank	1.0	245.80047154426575	
42	200.12968468666077	fix_post	2		12	40.0	2.5	blank	1.0	246.71697664260864	0.10002708435058594
43	200.22971177101135	fix_pre	0		120	41.0	2.5	/experiments/knapen_AOT/AOT_stimuli/rescaled_final/0237_fw.mp4	0.0	246.81700372695923	1.0085055828094482
43	200.81333422660828	pulse	0	t		41.0	2.5	/experiments/knapen_AOT/AOT_stimuli/rescaled_final/0237_fw.mp4	0.0	247.40062618255615	
43	201.2382173538208	movie	1		287	41.0	2.5	/experiments/knapen_AOT/AOT_stimuli/rescaled_final/0237_fw.mp4	0.0	247.82550930976868	2.4919943809509277
43	202.41175985336304	pulse	1	t		41.0	2.5	/experiments/knapen_AOT/AOT_stimuli/rescaled_final/0237_fw.mp4	0.0	248.9990518093109	
43	203.73021173477173	fix_post	2		12	41.0	2.5	/experiments/knapen_AOT/AOT_stimuli/rescaled_final/0237_fw.mp4	0.0	250.3175036907196	0.10005927085876465
44	203.8302710056305	fix_pre	0		120	42.0	2.5	/experiments/knapen_AOT/AOT_stimuli/rescaled_final/1936_fw.mp4	0.0	250.41756296157837	1.0084636211395264
44	204.0059552192688	pulse	0	t		42.0	2.5	/experiments/knapen_AOT/AOT_stimuli/rescaled_final/1936_fw.mp4	0.0	250.59324717521667	
44	204.83873462677002	movie	1		272	42.0	2.5	/experiments/knapen_AOT/AOT_stimuli/rescaled_final/1936_fw.mp4	0.0	251.4260265827179	2.4920332431793213
44	205.6062626838684	pulse	1	t		42.0	2.5	/experiments/knapen_AOT/AOT_stimuli/rescaled_final/1936_fw.mp4	0.0	252.19355463981628	
44	207.2060091495514	pulse	1	t		42.0	2.5	/experiments/knapen_AOT/AOT_stimuli/rescaled_final/1936_fw.mp4	0.0	253.79330110549927	
44	207.33076786994934	fix_post	2		12	42.0	2.5	/experiments/knapen_AOT/AOT_stimuli/rescaled_final/1936_fw.mp4	0.0	253.91805982589722	0.10001492500305176
45	207.4307827949524	fix_pre	0		120	43.0	2.5	/experiments/knapen_AOT/AOT_stimuli/rescaled_final/1310_fw.mp4	0.0	254.01807475090027	1.0085108280181885
45	208.43929362297058	movie	1		281	43.0	2.5	/experiments/knapen_AOT/AOT_stimuli/rescaled_final/1310_fw.mp4	0.0	255.02658557891846	2.492020606994629
45	208.80622673034668	pulse	1	t		43.0	2.5	/experiments/knapen_AOT/AOT_stimuli/rescaled_final/1310_fw.mp4	0.0	255.39351868629456	
45	210.40647339820862	pulse	1	t		43.0	2.5	/experiments/knapen_AOT/AOT_stimuli/rescaled_final/1310_fw.mp4	0.0	256.9937653541565	
45	210.9313142299652	fix_post	2		12	43.0	2.5	/experiments/knapen_AOT/AOT_stimuli/rescaled_final/1310_fw.mp4	0.0	257.5186061859131	0.10001206398010254
46	211.0313262939453	fix_pre	0		118	44.0	2.5	/experiments/knapen_AOT/AOT_stimuli/rescaled_final/1615_rv.mp4	0.0	257.6186182498932	0.9918437004089355
46	212.00675702095032	pulse	0	t		44.0	2.5	/experiments/knapen_AOT/AOT_stimuli/rescaled_final/1615_rv.mp4	0.0	258.5940489768982	
46	212.02316999435425	movie	1		270	44.0	2.5	/experiments/knapen_AOT/AOT_stimuli/rescaled_final/1615_rv.mp4	0.0	258.6104619503021	2.5003502368927
46	213.60682249069214	pulse	1	t		44.0	2.5	/experiments/knapen_AOT/AOT_stimuli/rescaled_final/1615_rv.mp4	0.0	260.19411444664	
46	214.52352023124695	fix_post	2		12	44.0	2.5	/experiments/knapen_AOT/AOT_stimuli/rescaled_final/1615_rv.mp4	0.0	261.1108121871948	0.1000511646270752
47	214.62357139587402	fix_pre	0		120	45.0	2.5	/experiments/knapen_AOT/AOT_stimuli/rescaled_final/0891_fw.mp4	0.0	261.2108633518219	1.0084569454193115
47	215.20715641975403	pulse	0	t		45.0	2.5	/experiments/knapen_AOT/AOT_stimuli/rescaled_final/0891_fw.mp4	0.0	261.7944483757019	
47	215.63202834129333	movie	1		279	45.0	2.5	/experiments/knapen_AOT/AOT_stimuli/rescaled_final/0891_fw.mp4	0.0	262.2193202972412	2.4920520782470703
47	216.80624842643738	pulse	1	t		45.0	2.5	/experiments/knapen_AOT/AOT_stimuli/rescaled_final/0891_fw.mp4	0.0	263.39354038238525	
47	218.1240804195404	fix_post	2		12	45.0	2.5	/experiments/knapen_AOT/AOT_stimuli/rescaled_final/0891_fw.mp4	0.0	264.7113723754883	0.09999847412109375
48	218.2240788936615	fix_pre	0		120	46.0	2.5	/experiments/knapen_AOT/AOT_stimuli/rescaled_final/1537_fw.mp4	0.0	264.8113708496094	1.008481740951538
48	218.4077398777008	pulse	0	t		46.0	2.5	/experiments/knapen_AOT/AOT_stimuli/rescaled_final/1537_fw.mp4	0.0	264.9950318336487	
48	219.23256063461304	movie	1		261	46.0	2.5	/experiments/knapen_AOT/AOT_stimuli/rescaled_final/1537_fw.mp4	0.0	265.8198525905609	2.4920434951782227
48	220.00804018974304	pulse	1	t		46.0	2.5	/experiments/knapen_AOT/AOT_stimuli/rescaled_final/1537_fw.mp4	0.0	266.5953321456909	
48	221.60662698745728	pulse	1	t		46.0	2.5	/experiments/knapen_AOT/AOT_stimuli/rescaled_final/1537_fw.mp4	0.0	268.19391894340515	
48	221.72460412979126	fix_post	2		12	46.0	2.5	/experiments/knapen_AOT/AOT_stimuli/rescaled_final/1537_fw.mp4	0.0	268.31189608573914	0.10015654563903809
49	221.8247606754303	fix_pre	0		120	47.0	2.5	blank	1.0	268.4120526313782	0.9999992847442627
49	222.82475996017456	movie	1		300	47.0	2.5	blank	1.0	269.41205191612244	2.500370740890503
49	223.20839047431946	pulse	1	t		47.0	2.5	blank	1.0	269.79568243026733	
49	224.8086805343628	pulse	1	t		47.0	2.5	blank	1.0	271.39597249031067	
49	225.32513070106506	fix_post	2		12	47.0	2.5	blank	1.0	271.91242265701294	0.10002493858337402
50	225.42515563964844	fix_pre	0		119	48.0	2.5	/experiments/knapen_AOT/AOT_stimuli/rescaled_final/0233_fw.mp4	0.0	272.0124475955963	1.000223159790039
50	226.40886664390564	pulse	0	t		48.0	2.5	/experiments/knapen_AOT/AOT_stimuli/rescaled_final/0233_fw.mp4	0.0	272.9961585998535	
50	226.42537879943848	movie	1		284	48.0	2.5	/experiments/knapen_AOT/AOT_stimuli/rescaled_final/0233_fw.mp4	0.0	273.01267075538635	2.5003323554992676
50	228.00778818130493	pulse	1	t		48.0	2.5	/experiments/knapen_AOT/AOT_stimuli/rescaled_final/0233_fw.mp4	0.0	274.5950801372528	
50	228.92571115493774	fix_post	2		12	48.0	2.5	/experiments/knapen_AOT/AOT_stimuli/rescaled_final/0233_fw.mp4	0.0	275.5130031108856	0.09997916221618652
51	229.02569031715393	fix_pre	0		120	49.0	2.5	/experiments/knapen_AOT/AOT_stimuli/rescaled_final/0741_rv.mp4	0.0	275.6129822731018	1.0085084438323975
51	229.6093590259552	pulse	0	t		49.0	2.5	/experiments/knapen_AOT/AOT_stimuli/rescaled_final/0741_rv.mp4	0.0	276.1966509819031	
51	230.03419876098633	movie	1		285	49.0	2.5	/experiments/knapen_AOT/AOT_stimuli/rescaled_final/0741_rv.mp4	0.0	276.6214907169342	2.492053985595703
51	231.20858645439148	pulse	1	t		49.0	2.5	/experiments/knapen_AOT/AOT_stimuli/rescaled_final/0741_rv.mp4	0.0	277.79587841033936	
51	232.52625274658203	fix_post	2		12	49.0	2.5	/experiments/knapen_AOT/AOT_stimuli/rescaled_final/0741_rv.mp4	0.0	279.1135447025299	0.09998488426208496
52	232.62623763084412	fix_pre	0		120	50.0	2.5	/experiments/knapen_AOT/AOT_stimuli/rescaled_final/0491_rv.mp4	0.0	279.213529586792	1.0085129737854004
52	232.80980110168457	pulse	0	t		50.0	2.5	/experiments/knapen_AOT/AOT_stimuli/rescaled_final/0491_rv.mp4	0.0	279.39709305763245	
52	233.63475060462952	movie	1		289	50.0	2.5	/experiments/knapen_AOT/AOT_stimuli/rescaled_final/0491_rv.mp4	0.0	280.2220425605774	2.4920125007629395
52	234.40824389457703	pulse	1	t		50.0	2.5	/experiments/knapen_AOT/AOT_stimuli/rescaled_final/0491_rv.mp4	0.0	280.9955358505249	
52	236.00829648971558	pulse	1	t		50.0	2.5	/experiments/knapen_AOT/AOT_stimuli/rescaled_final/0491_rv.mp4	0.0	282.59558844566345	
52	236.12676310539246	fix_post	2		12	50.0	2.5	/experiments/knapen_AOT/AOT_stimuli/rescaled_final/0491_rv.mp4	0.0	282.71405506134033	0.10001087188720703
53	236.22677397727966	fix_pre	0		120	51.0	2.5	/experiments/knapen_AOT/AOT_stimuli/rescaled_final/0304_rv.mp4	0.0	282.81406593322754	1.0085067749023438
53	237.235280752182	movie	1		284	51.0	2.5	/experiments/knapen_AOT/AOT_stimuli/rescaled_final/0304_rv.mp4	0.0	283.8225727081299	2.4920294284820557
53	237.60993838310242	pulse	1	t		51.0	2.5	/experiments/knapen_AOT/AOT_stimuli/rescaled_final/0304_rv.mp4	0.0	284.1972303390503	
53	239.20856881141663	pulse	1	t		51.0	2.5	/experiments/knapen_AOT/AOT_stimuli/rescaled_final/0304_rv.mp4	0.0	285.7958607673645	
53	239.72731018066406	fix_post	2		12	51.0	2.5	/experiments/knapen_AOT/AOT_stimuli/rescaled_final/0304_rv.mp4	0.0	286.31460213661194	0.10003495216369629
54	239.82734513282776	fix_pre	0		119	52.0	2.5	/experiments/knapen_AOT/AOT_stimuli/rescaled_final/0504_rv.mp4	0.0	286.41463708877563	1.000145435333252
54	240.81108808517456	pulse	0	t		52.0	2.5	/experiments/knapen_AOT/AOT_stimuli/rescaled_final/0504_rv.mp4	0.0	287.39838004112244	
54	240.827490568161	movie	1		284	52.0	2.5	/experiments/knapen_AOT/AOT_stimuli/rescaled_final/0504_rv.mp4	0.0	287.4147825241089	2.500363826751709
54	242.40964365005493	pulse	1	t		52.0	2.5	/experiments/knapen_AOT/AOT_stimuli/rescaled_final/0504_rv.mp4	0.0	288.9969356060028	
54	243.32785439491272	fix_post	2		12	52.0	2.5	/experiments/knapen_AOT/AOT_stimuli/rescaled_final/0504_rv.mp4	0.0	289.9151463508606	0.10000944137573242
55	243.42786383628845	fix_pre	0		120	53.0	2.5	/experiments/knapen_AOT/AOT_stimuli/rescaled_final/0305_rv.mp4	0.0	290.0151557922363	1.008523941040039
55	244.01155543327332	pulse	0	t		53.0	2.5	/experiments/knapen_AOT/AOT_stimuli/rescaled_final/0305_rv.mp4	0.0	290.5988473892212	
55	244.4363877773285	movie	1		283	53.0	2.5	/experiments/knapen_AOT/AOT_stimuli/rescaled_final/0305_rv.mp4	0.0	291.02367973327637	2.4920358657836914
55	245.6107141971588	pulse	1	t		53.0	2.5	/experiments/knapen_AOT/AOT_stimuli/rescaled_final/0305_rv.mp4	0.0	292.1980061531067	
55	246.92842364311218	fix_post	2		12	53.0	2.5	/experiments/knapen_AOT/AOT_stimuli/rescaled_final/0305_rv.mp4	0.0	293.51571559906006	0.1001121997833252
56	247.0285358428955	fix_pre	0		120	54.0	2.5	blank	1.0	293.6158277988434	1.0000083446502686
56	247.2120237350464	pulse	0	t		54.0	2.5	blank	1.0	293.79931569099426	
56	248.02854418754578	movie	1		300	54.0	2.5	blank	1.0	294.61583614349365	2.500364303588867
56	248.81257319450378	pulse	1	t		54.0	2.5	blank	1.0	295.39986515045166	
56	250.41248536109924	pulse	1	t		54.0	2.5	blank	1.0	296.9997773170471	
56	250.52890849113464	fix_post	2		12	54.0	2.5	blank	1.0	297.1162004470825	0.10008573532104492
57	250.6289942264557	fix_pre	0		120	55.0	2.5	/experiments/knapen_AOT/AOT_stimuli/rescaled_final/1975_rv.mp4	0.0	297.21628618240356	1.0085220336914062
57	251.6375162601471	movie	1		279	55.0	2.5	/experiments/knapen_AOT/AOT_stimuli/rescaled_final/1975_rv.mp4	0.0	298.22480821609497	2.491988182067871
57	252.01102709770203	pulse	1	t		55.0	2.5	/experiments/knapen_AOT/AOT_stimuli/rescaled_final/1975_rv.mp4	0.0	298.5983190536499	
57	253.61174249649048	pulse	1	t		55.0	2.5	/experiments/knapen_AOT/AOT_stimuli/rescaled_final/1975_rv.mp4	0.0	300.19903445243835	
57	254.12950444221497	fix_post	2		12	55.0	2.5	/experiments/knapen_AOT/AOT_stimuli/rescaled_final/1975_rv.mp4	0.0	300.71679639816284	0.10008621215820312
58	254.22959065437317	fix_pre	0		119	56.0	2.5	/experiments/knapen_AOT/AOT_stimuli/rescaled_final/1244_rv.mp4	0.0	300.81688261032104	1.0000700950622559
58	255.20542764663696	pulse	0	t		56.0	2.5	/experiments/knapen_AOT/AOT_stimuli/rescaled_final/1244_rv.mp4	0.0	301.79271960258484	
58	255.22966074943542	movie	1		290	56.0	2.5	/experiments/knapen_AOT/AOT_stimuli/rescaled_final/1244_rv.mp4	0.0	301.8169527053833	2.5003535747528076
58	256.8119909763336	pulse	1	t		56.0	2.5	/experiments/knapen_AOT/AOT_stimuli/rescaled_final/1244_rv.mp4	0.0	303.3992829322815	
58	257.73001432418823	fix_post	2		12	56.0	2.5	/experiments/knapen_AOT/AOT_stimuli/rescaled_final/1244_rv.mp4	0.0	304.3173062801361	0.10001206398010254
59	257.83002638816833	fix_pre	0		120	57.0	2.5	/experiments/knapen_AOT/AOT_stimuli/rescaled_final/1361_fw.mp4	0.0	304.4173183441162	1.0085585117340088
59	258.40540194511414	pulse	0	t		57.0	2.5	/experiments/knapen_AOT/AOT_stimuli/rescaled_final/1361_fw.mp4	0.0	304.992693901062	
59	258.83858489990234	movie	1		279	57.0	2.5	/experiments/knapen_AOT/AOT_stimuli/rescaled_final/1361_fw.mp4	0.0	305.4258768558502	2.491995334625244
59	260.01186537742615	pulse	1	t		57.0	2.5	/experiments/knapen_AOT/AOT_stimuli/rescaled_final/1361_fw.mp4	0.0	306.599157333374	
59	261.3305802345276	fix_post	2		12	57.0	2.5	/experiments/knapen_AOT/AOT_stimuli/rescaled_final/1361_fw.mp4	0.0	307.91787219047546	0.0999910831451416
60	261.43057131767273	fix_pre	0		120	58.0	2.5	/experiments/knapen_AOT/AOT_stimuli/rescaled_final/0993_rv.mp4	0.0	308.0178632736206	1.0085949897766113
60	261.60582852363586	pulse	0	t		58.0	2.5	/experiments/knapen_AOT/AOT_stimuli/rescaled_final/0993_rv.mp4	0.0	308.19312047958374	
60	262.43916630744934	movie	1		274	58.0	2.5	/experiments/knapen_AOT/AOT_stimuli/rescaled_final/0993_rv.mp4	0.0	309.0264582633972	2.4919354915618896
60	263.20530700683594	pulse	1	t		58.0	2.5	/experiments/knapen_AOT/AOT_stimuli/rescaled_final/0993_rv.mp4	0.0	309.7925989627838	
60	264.8062734603882	pulse	1	t		58.0	2.5	/experiments/knapen_AOT/AOT_stimuli/rescaled_final/0993_rv.mp4	0.0	311.39356541633606	
60	264.93110179901123	fix_post	2		12	58.0	2.5	/experiments/knapen_AOT/AOT_stimuli/rescaled_final/0993_rv.mp4	0.0	311.5183937549591	0.10001277923583984
61	265.03111457824707	fix_pre	0		120	59.0	2.5	/experiments/knapen_AOT/AOT_stimuli/rescaled_final/1405_rv.mp4	0.0	311.61840653419495	1.0084595680236816
61	266.03957414627075	movie	1		288	59.0	2.5	/experiments/knapen_AOT/AOT_stimuli/rescaled_final/1405_rv.mp4	0.0	312.6268661022186	2.4920618534088135
61	266.4065487384796	pulse	1	t		59.0	2.5	/experiments/knapen_AOT/AOT_stimuli/rescaled_final/1405_rv.mp4	0.0	312.9938406944275	
61	268.0067813396454	pulse	1	t		59.0	2.5	/experiments/knapen_AOT/AOT_stimuli/rescaled_final/1405_rv.mp4	0.0	314.59407329559326	
61	268.53163599967957	fix_post	2		12	59.0	2.5	/experiments/knapen_AOT/AOT_stimuli/rescaled_final/1405_rv.mp4	0.0	315.11892795562744	0.10001730918884277
62	268.6316533088684	fix_pre	0		118	60.0	2.5	/experiments/knapen_AOT/AOT_stimuli/rescaled_final/1656_rv.mp4	0.0	315.2189452648163	0.9918673038482666
62	269.6071527004242	pulse	0	t		60.0	2.5	/experiments/knapen_AOT/AOT_stimuli/rescaled_final/1656_rv.mp4	0.0	316.19444465637207	
62	269.6235206127167	movie	1		266	60.0	2.5	/experiments/knapen_AOT/AOT_stimuli/rescaled_final/1656_rv.mp4	0.0	316.21081256866455	2.5003442764282227
62	271.2060503959656	pulse	1	t		60.0	2.5	/experiments/knapen_AOT/AOT_stimuli/rescaled_final/1656_rv.mp4	0.0	317.79334235191345	
62	272.1238648891449	fix_post	2		11	60.0	2.5	/experiments/knapen_AOT/AOT_stimuli/rescaled_final/1656_rv.mp4	0.0	318.7111568450928	0.10000348091125488
63	272.22386837005615	fix_pre	0		120	61.0	2.5	/experiments/knapen_AOT/AOT_stimuli/rescaled_final/1984_fw.mp4	0.0	318.811160326004	1.008519172668457
63	272.8075439929962	pulse	0	t		61.0	2.5	/experiments/knapen_AOT/AOT_stimuli/rescaled_final/1984_fw.mp4	0.0	319.3948359489441	
63	273.2323875427246	movie	1		280	61.0	2.5	/experiments/knapen_AOT/AOT_stimuli/rescaled_final/1984_fw.mp4	0.0	319.8196794986725	2.49200439453125
63	274.40605878829956	pulse	1	t		61.0	2.5	/experiments/knapen_AOT/AOT_stimuli/rescaled_final/1984_fw.mp4	0.0	320.99335074424744	
63	275.72439193725586	fix_post	2		12	61.0	2.5	/experiments/knapen_AOT/AOT_stimuli/rescaled_final/1984_fw.mp4	0.0	322.31168389320374	0.10003089904785156
64	275.8244228363037	fix_pre	0		120	62.0	2.5	/experiments/knapen_AOT/AOT_stimuli/rescaled_final/1275_rv.mp4	0.0	322.4117147922516	1.0084784030914307
64	276.007874250412	pulse	0	t		62.0	2.5	/experiments/knapen_AOT/AOT_stimuli/rescaled_final/1275_rv.mp4	0.0	322.59516620635986	
64	276.83290123939514	movie	1		290	62.0	2.5	/experiments/knapen_AOT/AOT_stimuli/rescaled_final/1275_rv.mp4	0.0	323.420193195343	2.492046356201172
64	277.60598492622375	pulse	1	t		62.0	2.5	/experiments/knapen_AOT/AOT_stimuli/rescaled_final/1275_rv.mp4	0.0	324.19327688217163	
64	279.20644092559814	pulse	1	t		62.0	2.5	/experiments/knapen_AOT/AOT_stimuli/rescaled_final/1275_rv.mp4	0.0	325.793732881546	
64	279.3249475955963	fix_post	2		12	62.0	2.5	/experiments/knapen_AOT/AOT_stimuli/rescaled_final/1275_rv.mp4	0.0	325.9122395515442	0.10001754760742188
65	279.42496514320374	fix_pre	0		120	63.0	2.5	blank	1.0	326.0122570991516	1.0001826286315918
65	280.4251477718353	movie	1		300	63.0	2.5	blank	1.0	327.0124397277832	2.5003180503845215
65	280.8087408542633	pulse	1	t		63.0	2.5	blank	1.0	327.3960328102112	
65	282.40889739990234	pulse	1	t		63.0	2.5	blank	1.0	328.9961893558502	
65	282.92546582221985	fix_post	2		12	63.0	2.5	blank	1.0	329.5127577781677	0.10002875328063965
66	283.0254945755005	fix_pre	0		119	64.0	2.5	/experiments/knapen_AOT/AOT_stimuli/rescaled_final/0799_fw.mp4	0.0	329.61278653144836	1.008530616760254
66	284.0093991756439	pulse	0	t		64.0	2.5	/experiments/knapen_AOT/AOT_stimuli/rescaled_final/0799_fw.mp4	0.0	330.5966911315918	
66	284.03402519226074	movie	1		279	64.0	2.5	/experiments/knapen_AOT/AOT_stimuli/rescaled_final/0799_fw.mp4	0.0	330.6213171482086	2.4920003414154053
66	285.6076514720917	pulse	1	t		64.0	2.5	/experiments/knapen_AOT/AOT_stimuli/rescaled_final/0799_fw.mp4	0.0	332.19494342803955	
66	286.52602553367615	fix_post	2		12	64.0	2.5	/experiments/knapen_AOT/AOT_stimuli/rescaled_final/0799_fw.mp4	0.0	333.113317489624	0.10000061988830566
67	286.62602615356445	fix_pre	0		120	65.0	2.5	/experiments/knapen_AOT/AOT_stimuli/rescaled_final/1093_fw.mp4	0.0	333.21331810951233	1.0085110664367676
67	287.20974707603455	pulse	0	t		65.0	2.5	/experiments/knapen_AOT/AOT_stimuli/rescaled_final/1093_fw.mp4	0.0	333.7970390319824	
67	287.6345372200012	movie	1		267	65.0	2.5	/experiments/knapen_AOT/AOT_stimuli/rescaled_final/1093_fw.mp4	0.0	334.2218291759491	2.492018222808838
67	288.80969619750977	pulse	1	t		65.0	2.5	/experiments/knapen_AOT/AOT_stimuli/rescaled_final/1093_fw.mp4	0.0	335.39698815345764	
67	290.12655544281006	fix_post	2		12	65.0	2.5	/experiments/knapen_AOT/AOT_stimuli/rescaled_final/1093_fw.mp4	0.0	336.71384739875793	0.1000211238861084
68	290.22657656669617	fix_pre	0		120	66.0	2.5	/experiments/knapen_AOT/AOT_stimuli/rescaled_final/0861_fw.mp4	0.0	336.81386852264404	1.0084831714630127
68	290.41011476516724	pulse	0	t		66.0	2.5	/experiments/knapen_AOT/AOT_stimuli/rescaled_final/0861_fw.mp4	0.0	336.9974067211151	
68	291.2350597381592	movie	1		279	66.0	2.5	/experiments/knapen_AOT/AOT_stimuli/rescaled_final/0861_fw.mp4	0.0	337.82235169410706	2.4922077655792236
68	292.0084090232849	pulse	1	t		66.0	2.5	/experiments/knapen_AOT/AOT_stimuli/rescaled_final/0861_fw.mp4	0.0	338.5957009792328	
68	293.61075258255005	pulse	1	t		66.0	2.5	/experiments/knapen_AOT/AOT_stimuli/rescaled_final/0861_fw.mp4	0.0	340.1980445384979	
68	293.7272675037384	fix_post	2		12	66.0	2.5	/experiments/knapen_AOT/AOT_stimuli/rescaled_final/0861_fw.mp4	0.0	340.3145594596863	0.09983992576599121
69	293.8271074295044	fix_pre	0		120	67.0	2.5	/experiments/knapen_AOT/AOT_stimuli/rescaled_final/1984_fw.mp4	0.0	340.41439938545227	1.0085783004760742
69	294.83568572998047	movie	1		280	67.0	2.5	/experiments/knapen_AOT/AOT_stimuli/rescaled_final/1984_fw.mp4	0.0	341.42297768592834	2.49194598197937
69	295.21107602119446	pulse	1	t		67.0	2.5	/experiments/knapen_AOT/AOT_stimuli/rescaled_final/1984_fw.mp4	0.0	341.79836797714233	
69	296.80887246131897	pulse	1	t		67.0	2.5	/experiments/knapen_AOT/AOT_stimuli/rescaled_final/1984_fw.mp4	0.0	343.39616441726685	
69	297.32763171195984	fix_post	2		11	67.0	2.5	/experiments/knapen_AOT/AOT_stimuli/rescaled_final/1984_fw.mp4	0.0	343.9149236679077	0.10001945495605469
70	297.4276511669159	fix_pre	0		119	68.0	2.5	blank	1.0	344.01494312286377	0.9917707443237305
70	298.4114294052124	pulse	0	t		68.0	2.5	blank	1.0	344.9987213611603	
70	298.4194219112396	movie	1		301	68.0	2.5	blank	1.0	345.0067138671875	2.5087363719940186
70	300.01157307624817	pulse	1	t		68.0	2.5	blank	1.0	346.59886503219604	
70	300.92815828323364	fix_post	2		12	68.0	2.5	blank	1.0	347.5154502391815	0.10003423690795898
71	301.0281925201416	fix_pre	0		120	69.0	2.5	/experiments/knapen_AOT/AOT_stimuli/rescaled_final/1781_fw.mp4	0.0	347.6154844760895	1.0084877014160156
71	301.6118655204773	pulse	0	t		69.0	2.5	/experiments/knapen_AOT/AOT_stimuli/rescaled_final/1781_fw.mp4	0.0	348.19915747642517	
71	302.0366802215576	movie	1		279	69.0	2.5	/experiments/knapen_AOT/AOT_stimuli/rescaled_final/1781_fw.mp4	0.0	348.6239721775055	2.4923317432403564
71	303.2104389667511	pulse	1	t		69.0	2.5	/experiments/knapen_AOT/AOT_stimuli/rescaled_final/1781_fw.mp4	0.0	349.797730922699	
71	304.529011964798	fix_post	2		12	69.0	2.5	/experiments/knapen_AOT/AOT_stimuli/rescaled_final/1781_fw.mp4	0.0	351.11630392074585	0.09971761703491211
72	304.6287295818329	fix_pre	0		120	70.0	2.5	/experiments/knapen_AOT/AOT_stimuli/rescaled_final/0315_rv.mp4	0.0	351.21602153778076	1.0085127353668213
72	304.8125810623169	pulse	0	t		70.0	2.5	/experiments/knapen_AOT/AOT_stimuli/rescaled_final/0315_rv.mp4	0.0	351.39987301826477	
72	305.6372423171997	movie	1		289	70.0	2.5	/experiments/knapen_AOT/AOT_stimuli/rescaled_final/0315_rv.mp4	0.0	352.2245342731476	2.4921231269836426
72	306.41034269332886	pulse	1	t		70.0	2.5	/experiments/knapen_AOT/AOT_stimuli/rescaled_final/0315_rv.mp4	0.0	352.99763464927673	
72	308.0109808444977	pulse	1	t		70.0	2.5	/experiments/knapen_AOT/AOT_stimuli/rescaled_final/0315_rv.mp4	0.0	354.59827280044556	
72	308.12936544418335	fix_post	2		12	70.0	2.5	/experiments/knapen_AOT/AOT_stimuli/rescaled_final/0315_rv.mp4	0.0	354.7166574001312	0.09990954399108887
73	308.22927498817444	fix_pre	0		120	71.0	2.5	/experiments/knapen_AOT/AOT_stimuli/rescaled_final/0789_fw.mp4	0.0	354.8165669441223	1.0085606575012207
73	309.23783564567566	movie	1		285	71.0	2.5	/experiments/knapen_AOT/AOT_stimuli/rescaled_final/0789_fw.mp4	0.0	355.82512760162354	2.491997003555298
73	309.612530708313	pulse	1	t		71.0	2.5	/experiments/knapen_AOT/AOT_stimuli/rescaled_final/0789_fw.mp4	0.0	356.19982266426086	
73	311.2111916542053	pulse	1	t		71.0	2.5	/experiments/knapen_AOT/AOT_stimuli/rescaled_final/0789_fw.mp4	0.0	357.7984836101532	
73	311.72983264923096	fix_post	2		12	71.0	2.5	/experiments/knapen_AOT/AOT_stimuli/rescaled_final/0789_fw.mp4	0.0	358.31712460517883	0.09997963905334473
74	311.8298122882843	fix_pre	0		119	72.0	2.5	/experiments/knapen_AOT/AOT_stimuli/rescaled_final/0305_fw.mp4	0.0	358.4171042442322	1.0001838207244873
74	312.8057415485382	pulse	0	t		72.0	2.5	/experiments/knapen_AOT/AOT_stimuli/rescaled_final/0305_fw.mp4	0.0	359.3930335044861	
74	312.8299961090088	movie	1		281	72.0	2.5	/experiments/knapen_AOT/AOT_stimuli/rescaled_final/0305_fw.mp4	0.0	359.41728806495667	2.500328302383423
74	314.4057402610779	pulse	1	t		72.0	2.5	/experiments/knapen_AOT/AOT_stimuli/rescaled_final/0305_fw.mp4	0.0	360.99303221702576	
74	315.3303244113922	fix_post	2		12	72.0	2.5	/experiments/knapen_AOT/AOT_stimuli/rescaled_final/0305_fw.mp4	0.0	361.9176163673401	0.10008621215820312
75	315.4304106235504	fix_pre	0		120	73.0	2.5	/experiments/knapen_AOT/AOT_stimuli/rescaled_final/0468_rv.mp4	0.0	362.0177025794983	1.008392333984375
75	316.0057020187378	pulse	0	t		73.0	2.5	/experiments/knapen_AOT/AOT_stimuli/rescaled_final/0468_rv.mp4	0.0	362.59299397468567	
75	316.4388029575348	movie	1		281	73.0	2.5	/experiments/knapen_AOT/AOT_stimuli/rescaled_final/0468_rv.mp4	0.0	363.02609491348267	2.4921326637268066
75	317.6059331893921	pulse	1	t		73.0	2.5	/experiments/knapen_AOT/AOT_stimuli/rescaled_final/0468_rv.mp4	0.0	364.19322514533997	
75	318.9309356212616	fix_post	2		12	73.0	2.5	/experiments/knapen_AOT/AOT_stimuli/rescaled_final/0468_rv.mp4	0.0	365.5182275772095	0.09996509552001953
76	319.0309007167816	fix_pre	0		120	74.0	2.5	/experiments/knapen_AOT/AOT_stimuli/rescaled_final/0427_rv.mp4	0.0	365.6181926727295	1.0086069107055664
76	319.2063195705414	pulse	0	t		74.0	2.5	/experiments/knapen_AOT/AOT_stimuli/rescaled_final/0427_rv.mp4	0.0	365.79361152648926	
76	320.0395076274872	movie	1		271	74.0	2.5	/experiments/knapen_AOT/AOT_stimuli/rescaled_final/0427_rv.mp4	0.0	366.62679958343506	2.4920897483825684
76	320.80640172958374	pulse	1	t		74.0	2.5	/experiments/knapen_AOT/AOT_stimuli/rescaled_final/0427_rv.mp4	0.0	367.3936936855316	
76	322.40586972236633	pulse	1	t		74.0	2.5	/experiments/knapen_AOT/AOT_stimuli/rescaled_final/0427_rv.mp4	0.0	368.9931616783142	
76	322.53159737586975	fix_post	2		12	74.0	2.5	/experiments/knapen_AOT/AOT_stimuli/rescaled_final/0427_rv.mp4	0.0	369.1188893318176	0.09986186027526855
77	322.631459236145	fix_pre	0		120	75.0	2.5	/experiments/knapen_AOT/AOT_stimuli/rescaled_final/1566_fw.mp4	0.0	369.2187511920929	1.0084598064422607
77	323.6399190425873	movie	1		286	75.0	2.5	/experiments/knapen_AOT/AOT_stimuli/rescaled_final/1566_fw.mp4	0.0	370.22721099853516	2.492034673690796
77	324.0069992542267	pulse	1	t		75.0	2.5	/experiments/knapen_AOT/AOT_stimuli/rescaled_final/1566_fw.mp4	0.0	370.59429121017456	
77	325.60715532302856	pulse	1	t		75.0	2.5	/experiments/knapen_AOT/AOT_stimuli/rescaled_final/1566_fw.mp4	0.0	372.19444727897644	
77	326.1319537162781	fix_post	2		12	75.0	2.5	/experiments/knapen_AOT/AOT_stimuli/rescaled_final/1566_fw.mp4	0.0	372.71924567222595	0.10001945495605469
78	326.23197317123413	fix_pre	0		117	76.0	2.5	/experiments/knapen_AOT/AOT_stimuli/rescaled_final/0295_rv.mp4	0.0	372.819265127182	0.991818904876709
78	327.20739912986755	pulse	0	t		76.0	2.5	/experiments/knapen_AOT/AOT_stimuli/rescaled_final/0295_rv.mp4	0.0	373.79469108581543	
78	327.22379207611084	movie	1		284	76.0	2.5	/experiments/knapen_AOT/AOT_stimuli/rescaled_final/0295_rv.mp4	0.0	373.8110840320587	2.5003671646118164
78	328.80620551109314	pulse	1	t		76.0	2.5	/experiments/knapen_AOT/AOT_stimuli/rescaled_final/0295_rv.mp4	0.0	375.393497467041	
78	329.72415924072266	fix_post	2		12	76.0	2.5	/experiments/knapen_AOT/AOT_stimuli/rescaled_final/0295_rv.mp4	0.0	376.31145119667053	0.10001873970031738
79	329.824177980423	fix_pre	0		120	77.0	2.5	blank	1.0	376.41146993637085	1.0001533031463623
79	330.40784907341003	pulse	0	t		77.0	2.5	blank	1.0	376.9951410293579	
79	330.82433128356934	movie	1		300	77.0	2.5	blank	1.0	377.4116232395172	2.500375986099243
79	332.00810408592224	pulse	1	t		77.0	2.5	blank	1.0	378.5953960418701	
79	333.3247072696686	fix_post	2		12	77.0	2.5	blank	1.0	379.91199922561646	0.10001969337463379
80	333.4247269630432	fix_pre	0		120	78.0	2.5	/experiments/knapen_AOT/AOT_stimuli/rescaled_final/1834_fw.mp4	0.0	380.0120189189911	1.0084748268127441
80	333.60830068588257	pulse	0	t		78.0	2.5	/experiments/knapen_AOT/AOT_stimuli/rescaled_final/1834_fw.mp4	0.0	380.19559264183044	
80	334.43320178985596	movie	1		281	78.0	2.5	/experiments/knapen_AOT/AOT_stimuli/rescaled_final/1834_fw.mp4	0.0	381.02049374580383	2.4920389652252197
80	335.2066807746887	pulse	1	t		78.0	2.5	/experiments/knapen_AOT/AOT_stimuli/rescaled_final/1834_fw.mp4	0.0	381.7939727306366	
80	336.8068251609802	pulse	1	t		78.0	2.5	/experiments/knapen_AOT/AOT_stimuli/rescaled_final/1834_fw.mp4	0.0	383.3941171169281	
80	336.9252407550812	fix_post	2		12	78.0	2.5	/experiments/knapen_AOT/AOT_stimuli/rescaled_final/1834_fw.mp4	0.0	383.51253271102905	0.09998703002929688
81	337.0252277851105	fix_pre	0		120	79.0	2.5	/experiments/knapen_AOT/AOT_stimuli/rescaled_final/1177_rv.mp4	0.0	383.61251974105835	1.0085420608520508
81	338.0337698459625	movie	1		286	79.0	2.5	/experiments/knapen_AOT/AOT_stimuli/rescaled_final/1177_rv.mp4	0.0	384.6210618019104	2.492018461227417
81	338.4085795879364	pulse	1	t		79.0	2.5	/experiments/knapen_AOT/AOT_stimuli/rescaled_final/1177_rv.mp4	0.0	384.9958715438843	
81	340.0068542957306	pulse	1	t		79.0	2.5	/experiments/knapen_AOT/AOT_stimuli/rescaled_final/1177_rv.mp4	0.0	386.59414625167847	
81	340.52578830718994	fix_post	2		12	79.0	2.5	/experiments/knapen_AOT/AOT_stimuli/rescaled_final/1177_rv.mp4	0.0	387.1130802631378	0.10001087188720703
82	340.62579917907715	fix_pre	0		119	80.0	2.5	/experiments/knapen_AOT/AOT_stimuli/rescaled_final/0625_fw.mp4	0.0	387.213091135025	1.000246286392212
82	341.60965156555176	pulse	0	t		80.0	2.5	/experiments/knapen_AOT/AOT_stimuli/rescaled_final/0625_fw.mp4	0.0	388.19694352149963	
82	341.62604546546936	movie	1		272	80.0	2.5	/experiments/knapen_AOT/AOT_stimuli/rescaled_final/0625_fw.mp4	0.0	388.21333742141724	2.500284194946289
82	343.20834708213806	pulse	1	t		80.0	2.5	/experiments/knapen_AOT/AOT_stimuli/rescaled_final/0625_fw.mp4	0.0	389.79563903808594	
82	344.12632966041565	fix_post	2		12	80.0	2.5	/experiments/knapen_AOT/AOT_stimuli/rescaled_final/0625_fw.mp4	0.0	390.7136216163635	0.10000848770141602
83	344.22633814811707	fix_pre	0		120	81.0	2.5	/experiments/knapen_AOT/AOT_stimuli/rescaled_final/0861_rv.mp4	0.0	390.81363010406494	1.008519172668457
83	344.80997586250305	pulse	0	t		81.0	2.5	/experiments/knapen_AOT/AOT_stimuli/rescaled_final/0861_rv.mp4	0.0	391.3972678184509	
83	345.2348573207855	movie	1		291	81.0	2.5	/experiments/knapen_AOT/AOT_stimuli/rescaled_final/0861_rv.mp4	0.0	391.8221492767334	2.492206335067749
83	346.4085748195648	pulse	1	t		81.0	2.5	/experiments/knapen_AOT/AOT_stimuli/rescaled_final/0861_rv.mp4	0.0	392.9958667755127	
83	347.72706365585327	fix_post	2		12	81.0	2.5	/experiments/knapen_AOT/AOT_stimuli/rescaled_final/0861_rv.mp4	0.0	394.31435561180115	0.09982538223266602
84	347.82688903808594	fix_pre	0		120	82.0	2.5	/experiments/knapen_AOT/AOT_stimuli/rescaled_final/0856_rv.mp4	0.0	394.4141809940338	1.0085046291351318
84	348.0104410648346	pulse	0	t		82.0	2.5	/experiments/knapen_AOT/AOT_stimuli/rescaled_final/0856_rv.mp4	0.0	394.59773302078247	
84	348.83539366722107	movie	1		275	82.0	2.5	/experiments/knapen_AOT/AOT_stimuli/rescaled_final/0856_rv.mp4	0.0	395.42268562316895	2.49202561378479
84	349.6104483604431	pulse	1	t		82.0	2.5	/experiments/knapen_AOT/AOT_stimuli/rescaled_final/0856_rv.mp4	0.0	396.197740316391	
84	351.20906257629395	pulse	1	t		82.0	2.5	/experiments/knapen_AOT/AOT_stimuli/rescaled_final/0856_rv.mp4	0.0	397.7963545322418	
84	351.32741928100586	fix_post	2		12	82.0	2.5	/experiments/knapen_AOT/AOT_stimuli/rescaled_final/0856_rv.mp4	0.0	397.91471123695374	0.10002923011779785
85	351.42744851112366	fix_pre	0		120	83.0	2.5	blank	1.0	398.01474046707153	1.000119924545288
85	352.42756843566895	movie	1		300	83.0	2.5	blank	1.0	399.0148603916168	2.5004067420959473
85	352.8113296031952	pulse	1	t		83.0	2.5	blank	1.0	399.39862155914307	
85	354.41142225265503	pulse	1	t		83.0	2.5	blank	1.0	400.9987142086029	
85	354.9279751777649	fix_post	2		12	83.0	2.5	blank	1.0	401.51526713371277	0.0999605655670166
87	355.0279357433319	stim	0		1716					401.6152276992798	14.302173614501953
87	356.0117268562317	pulse	0	t						402.59901881217957	
87	357.6118950843811	pulse	0	t						404.199187040329	
87	359.21236419677734	pulse	0	t						405.7996561527252	
87	360.81236743927	pulse	0	t						407.3996593952179	
87	362.41265082359314	pulse	0	t						408.999942779541	
87	364.00611424446106	pulse	0	t						410.59340620040894	
87	365.613228559494	pulse	0	t						412.2005205154419	
87	367.21332693099976	pulse	0	t						413.80061888694763	
87	368.8138015270233	pulse	0	t						415.4010934829712	
