trial_nr	onset	event_type	phase	response	nr_frames	movie_index	movie_duration	movie_file	blank	onset_abs	duration
0	0.1583080291748047	stim	0		10					23.235558032989502	0.08331894874572754
0	0.2336280345916748	response	0	space						23.310878038406372	
1	0.24162697792053223	stim	0		2422					23.31887698173523	20.183187007904053
1	20.419317960739136	pulse	0	t						43.49656796455383	
1	20.424813985824585	stim	1		1717					43.50206398963928	14.308295965194702
1	22.01666784286499	pulse	1	t						45.09391784667969	
1	23.61666202545166	pulse	1	t						46.69391202926636	
1	25.216625928878784	pulse	1	t						48.29387593269348	
1	26.816597938537598	pulse	1	t						49.893847942352295	
1	28.416656017303467	pulse	1	t						51.493906021118164	
1	30.016562938690186	pulse	1	t						53.09381294250488	
1	31.61661386489868	pulse	1	t						54.69386386871338	
1	33.21665596961975	pulse	1	t						56.29390597343445	
2	34.73310995101929	fix_pre	0		11	0.0	2.5	/experiments/AOT/AOT_stimuli/rescaled_final/1334_rv.mp4	0.0	57.810359954833984	0.09167909622192383
2	34.8166229724884	pulse	0	t		0.0	2.5	/experiments/AOT/AOT_stimuli/rescaled_final/1334_rv.mp4	0.0	57.8938729763031	
2	34.82478904724121	movie	1		244	0.0	2.5	/experiments/AOT/AOT_stimuli/rescaled_final/1334_rv.mp4	0.0	57.90203905105591	2.507901906967163
2	36.41636395454407	pulse	1	t		0.0	2.5	/experiments/AOT/AOT_stimuli/rescaled_final/1334_rv.mp4	0.0	59.493613958358765	
2	37.332690954208374	fix_post	2		12	0.0	2.5	/experiments/AOT/AOT_stimuli/rescaled_final/1334_rv.mp4	0.0	60.40994095802307	0.10038304328918457
3	37.43307399749756	fix_pre	0		120	1.0	2.5	/experiments/AOT/AOT_stimuli/rescaled_final/1365_rv.mp4	0.0	60.510324001312256	0.9996118545532227
3	38.01661992073059	pulse	0	t		1.0	2.5	/experiments/AOT/AOT_stimuli/rescaled_final/1365_rv.mp4	0.0	61.09386992454529	
3	38.43268585205078	movie	1		245	1.0	2.5	/experiments/AOT/AOT_stimuli/rescaled_final/1365_rv.mp4	0.0	61.50993585586548	2.5002431869506836
3	39.61624884605408	pulse	1	t		1.0	2.5	/experiments/AOT/AOT_stimuli/rescaled_final/1365_rv.mp4	0.0	62.693498849868774	
3	40.932929039001465	fix_post	2		12	1.0	2.5	/experiments/AOT/AOT_stimuli/rescaled_final/1365_rv.mp4	0.0	64.01017904281616	0.10039377212524414
4	41.03332281112671	fix_pre	0		120	2.0	2.5	/experiments/AOT/AOT_stimuli/rescaled_final/1702_rv.mp4	0.0	64.1105728149414	0.9997842311859131
4	41.21652698516846	pulse	0	t		2.0	2.5	/experiments/AOT/AOT_stimuli/rescaled_final/1702_rv.mp4	0.0	64.29377698898315	
4	42.03310704231262	movie	1		246	2.0	2.5	/experiments/AOT/AOT_stimuli/rescaled_final/1702_rv.mp4	0.0	65.11035704612732	2.499915838241577
4	42.81654381752014	pulse	1	t		2.0	2.5	/experiments/AOT/AOT_stimuli/rescaled_final/1702_rv.mp4	0.0	65.89379382133484	
4	44.41513395309448	pulse	1	t		2.0	2.5	/experiments/AOT/AOT_stimuli/rescaled_final/1702_rv.mp4	0.0	67.49238395690918	
4	44.5330228805542	fix_post	2		12	2.0	2.5	/experiments/AOT/AOT_stimuli/rescaled_final/1702_rv.mp4	0.0	67.6102728843689	0.10009503364562988
5	44.63311791419983	fix_pre	0		120	3.0	2.5	/experiments/AOT/AOT_stimuli/rescaled_final/1972_fw.mp4	0.0	67.71036791801453	0.9999349117279053
5	45.633052825927734	movie	1		245	3.0	2.5	/experiments/AOT/AOT_stimuli/rescaled_final/1972_fw.mp4	0.0	68.71030282974243	2.5000979900360107
5	46.016026973724365	pulse	1	t		3.0	2.5	/experiments/AOT/AOT_stimuli/rescaled_final/1972_fw.mp4	0.0	69.09327697753906	
5	47.616405963897705	pulse	1	t		3.0	2.5	/experiments/AOT/AOT_stimuli/rescaled_final/1972_fw.mp4	0.0	70.6936559677124	
5	48.133150815963745	fix_post	2		12	3.0	2.5	/experiments/AOT/AOT_stimuli/rescaled_final/1972_fw.mp4	0.0	71.21040081977844	0.09986019134521484
6	48.23301100730896	fix_pre	0		119	4.0	2.5	/experiments/AOT/AOT_stimuli/rescaled_final/0611_fw.mp4	0.0	71.31026101112366	0.9916729927062988
6	49.21650004386902	pulse	0	t		4.0	2.5	/experiments/AOT/AOT_stimuli/rescaled_final/0611_fw.mp4	0.0	72.29375004768372	
6	49.22468400001526	movie	1		245	4.0	2.5	/experiments/AOT/AOT_stimuli/rescaled_final/0611_fw.mp4	0.0	72.30193400382996	2.508270025253296
6	50.81611084938049	pulse	1	t		4.0	2.5	/experiments/AOT/AOT_stimuli/rescaled_final/0611_fw.mp4	0.0	73.89336085319519	
6	51.732954025268555	fix_post	2		12	4.0	2.5	/experiments/AOT/AOT_stimuli/rescaled_final/0611_fw.mp4	0.0	74.81020402908325	0.09996986389160156
7	51.832923889160156	fix_pre	0		120	5.0	2.5	/experiments/AOT/AOT_stimuli/rescaled_final/1235_rv.mp4	0.0	74.91017389297485	1.0000879764556885
7	52.41651797294617	pulse	0	t		5.0	2.5	/experiments/AOT/AOT_stimuli/rescaled_final/1235_rv.mp4	0.0	75.49376797676086	
7	52.833011865615845	movie	1		244	5.0	2.5	/experiments/AOT/AOT_stimuli/rescaled_final/1235_rv.mp4	0.0	75.91026186943054	2.49992299079895
7	54.01647591590881	pulse	1	t		5.0	2.5	/experiments/AOT/AOT_stimuli/rescaled_final/1235_rv.mp4	0.0	77.09372591972351	
7	55.332934856414795	fix_post	2		12	5.0	2.5	/experiments/AOT/AOT_stimuli/rescaled_final/1235_rv.mp4	0.0	78.41018486022949	0.10002017021179199
8	55.43295502662659	fix_pre	0		120	6.0	2.5	blank	1.0	78.51020503044128	1.0000078678131104
8	55.616534948349	pulse	0	t		6.0	2.5	blank	1.0	78.6937849521637	
8	56.4329628944397	movie	1		300	6.0	2.5	blank	1.0	79.5102128982544	2.4999840259552
8	57.216471910476685	pulse	1	t		6.0	2.5	blank	1.0	80.29372191429138	
8	58.816460847854614	pulse	1	t		6.0	2.5	blank	1.0	81.89371085166931	
8	58.9329469203949	fix_post	2		12	6.0	2.5	blank	1.0	82.0101969242096	0.09999990463256836
9	59.032946825027466	fix_pre	0		120	7.0	2.5	/experiments/AOT/AOT_stimuli/rescaled_final/1862_fw.mp4	0.0	82.11019682884216	1.000035047531128
9	60.032981872558594	movie	1		244	7.0	2.5	/experiments/AOT/AOT_stimuli/rescaled_final/1862_fw.mp4	0.0	83.11023187637329	2.499528169631958
9	60.41664791107178	pulse	1	t		7.0	2.5	/experiments/AOT/AOT_stimuli/rescaled_final/1862_fw.mp4	0.0	83.49389791488647	
9	62.0165069103241	pulse	1	t		7.0	2.5	/experiments/AOT/AOT_stimuli/rescaled_final/1862_fw.mp4	0.0	85.0937569141388	
9	62.53251004219055	fix_post	2		12	7.0	2.5	/experiments/AOT/AOT_stimuli/rescaled_final/1862_fw.mp4	0.0	85.60976004600525	0.09999799728393555
10	62.63250803947449	fix_pre	0		119	8.0	2.5	/experiments/AOT/AOT_stimuli/rescaled_final/2085_fw.mp4	0.0	85.70975804328918	0.9920778274536133
10	63.61637496948242	pulse	0	t		8.0	2.5	/experiments/AOT/AOT_stimuli/rescaled_final/2085_fw.mp4	0.0	86.69362497329712	
10	63.6245858669281	movie	1		245	8.0	2.5	/experiments/AOT/AOT_stimuli/rescaled_final/2085_fw.mp4	0.0	86.7018358707428	2.508455991744995
10	65.21652603149414	pulse	1	t		8.0	2.5	/experiments/AOT/AOT_stimuli/rescaled_final/2085_fw.mp4	0.0	88.29377603530884	
10	66.1330418586731	fix_post	2		12	8.0	2.5	/experiments/AOT/AOT_stimuli/rescaled_final/2085_fw.mp4	0.0	89.2102918624878	0.09998607635498047
11	66.23302793502808	fix_pre	0		120	9.0	2.5	/experiments/AOT/AOT_stimuli/rescaled_final/0537_rv.mp4	0.0	89.31027793884277	0.9998641014099121
11	66.8164918422699	pulse	0	t		9.0	2.5	/experiments/AOT/AOT_stimuli/rescaled_final/0537_rv.mp4	0.0	89.8937418460846	
11	67.23289203643799	movie	1		245	9.0	2.5	/experiments/AOT/AOT_stimuli/rescaled_final/0537_rv.mp4	0.0	90.31014204025269	2.499579906463623
11	68.41651582717896	pulse	1	t		9.0	2.5	/experiments/AOT/AOT_stimuli/rescaled_final/0537_rv.mp4	0.0	91.49376583099365	
11	69.73247194290161	fix_post	2		12	9.0	2.5	/experiments/AOT/AOT_stimuli/rescaled_final/0537_rv.mp4	0.0	92.80972194671631	0.09999990463256836
12	69.83247184753418	fix_pre	0		120	10.0	2.5	/experiments/AOT/AOT_stimuli/rescaled_final/1650_fw.mp4	0.0	92.90972185134888	1.00040602684021
12	70.01644492149353	pulse	0	t		10.0	2.5	/experiments/AOT/AOT_stimuli/rescaled_final/1650_fw.mp4	0.0	93.09369492530823	
12	70.83287787437439	movie	1		243	10.0	2.5	/experiments/AOT/AOT_stimuli/rescaled_final/1650_fw.mp4	0.0	93.91012787818909	2.4999921321868896
12	71.61650586128235	pulse	1	t		10.0	2.5	/experiments/AOT/AOT_stimuli/rescaled_final/1650_fw.mp4	0.0	94.69375586509705	
12	73.21489191055298	pulse	1	t		10.0	2.5	/experiments/AOT/AOT_stimuli/rescaled_final/1650_fw.mp4	0.0	96.29214191436768	
12	73.33287000656128	fix_post	2		12	10.0	2.5	/experiments/AOT/AOT_stimuli/rescaled_final/1650_fw.mp4	0.0	96.41012001037598	0.10005998611450195
13	73.43292999267578	fix_pre	0		120	11.0	2.5	/experiments/AOT/AOT_stimuli/rescaled_final/0099_rv.mp4	0.0	96.51017999649048	0.9999740123748779
13	74.43290400505066	movie	1		244	11.0	2.5	/experiments/AOT/AOT_stimuli/rescaled_final/0099_rv.mp4	0.0	97.51015400886536	2.499980926513672
13	74.81647181510925	pulse	1	t		11.0	2.5	/experiments/AOT/AOT_stimuli/rescaled_final/0099_rv.mp4	0.0	97.89372181892395	
13	76.41644382476807	pulse	1	t		11.0	2.5	/experiments/AOT/AOT_stimuli/rescaled_final/0099_rv.mp4	0.0	99.49369382858276	
13	76.93288493156433	fix_post	2		12	11.0	2.5	/experiments/AOT/AOT_stimuli/rescaled_final/0099_rv.mp4	0.0	100.01013493537903	0.10004496574401855
14	77.03292989730835	fix_pre	0		119	12.0	2.5	/experiments/AOT/AOT_stimuli/rescaled_final/0407_fw.mp4	0.0	100.11017990112305	0.9916620254516602
14	78.01635503768921	pulse	0	t		12.0	2.5	/experiments/AOT/AOT_stimuli/rescaled_final/0407_fw.mp4	0.0	101.0936050415039	
14	78.02459192276001	movie	1		247	12.0	2.5	/experiments/AOT/AOT_stimuli/rescaled_final/0407_fw.mp4	0.0	101.1018419265747	2.507930040359497
14	79.61597990989685	pulse	1	t		12.0	2.5	/experiments/AOT/AOT_stimuli/rescaled_final/0407_fw.mp4	0.0	102.69322991371155	
14	80.5325219631195	fix_post	2		12	12.0	2.5	/experiments/AOT/AOT_stimuli/rescaled_final/0407_fw.mp4	0.0	103.6097719669342	0.10035395622253418
15	80.63287591934204	fix_pre	0		120	13.0	2.5	blank	1.0	103.71012592315674	1.000075101852417
15	81.21629285812378	pulse	0	t		13.0	2.5	blank	1.0	104.29354286193848	
15	81.63295102119446	movie	1		300	13.0	2.5	blank	1.0	104.71020102500916	2.4998929500579834
15	82.816330909729	pulse	1	t		13.0	2.5	blank	1.0	105.8935809135437	
15	84.13284397125244	fix_post	2		12	13.0	2.5	blank	1.0	107.21009397506714	0.10010385513305664
16	84.2329478263855	fix_pre	0		120	14.0	2.5	/experiments/AOT/AOT_stimuli/rescaled_final/0970_fw.mp4	0.0	107.3101978302002	0.999953031539917
16	84.4163908958435	pulse	0	t		14.0	2.5	/experiments/AOT/AOT_stimuli/rescaled_final/0970_fw.mp4	0.0	107.4936408996582	
16	85.23290085792542	movie	1		244	14.0	2.5	/experiments/AOT/AOT_stimuli/rescaled_final/0970_fw.mp4	0.0	108.31015086174011	2.4999420642852783
16	86.01633381843567	pulse	1	t		14.0	2.5	/experiments/AOT/AOT_stimuli/rescaled_final/0970_fw.mp4	0.0	109.09358382225037	
16	87.61511492729187	pulse	1	t		14.0	2.5	/experiments/AOT/AOT_stimuli/rescaled_final/0970_fw.mp4	0.0	110.69236493110657	
16	87.7328429222107	fix_post	2		12	14.0	2.5	/experiments/AOT/AOT_stimuli/rescaled_final/0970_fw.mp4	0.0	110.81009292602539	0.10011005401611328
17	87.8329529762268	fix_pre	0		120	15.0	2.5	/experiments/AOT/AOT_stimuli/rescaled_final/1846_fw.mp4	0.0	110.9102029800415	0.9998350143432617
17	88.83278799057007	movie	1		244	15.0	2.5	/experiments/AOT/AOT_stimuli/rescaled_final/1846_fw.mp4	0.0	111.91003799438477	2.500006914138794
17	89.21585488319397	pulse	1	t		15.0	2.5	/experiments/AOT/AOT_stimuli/rescaled_final/1846_fw.mp4	0.0	112.29310488700867	
17	90.81630682945251	pulse	1	t		15.0	2.5	/experiments/AOT/AOT_stimuli/rescaled_final/1846_fw.mp4	0.0	113.89355683326721	
17	91.33279490470886	fix_post	2		12	15.0	2.5	/experiments/AOT/AOT_stimuli/rescaled_final/1846_fw.mp4	0.0	114.41004490852356	0.10014510154724121
18	91.4329400062561	fix_pre	0		119	16.0	2.5	/experiments/AOT/AOT_stimuli/rescaled_final/0050_rv.mp4	0.0	114.5101900100708	0.9915859699249268
18	92.41628384590149	pulse	0	t		16.0	2.5	/experiments/AOT/AOT_stimuli/rescaled_final/0050_rv.mp4	0.0	115.49353384971619	
18	92.42452597618103	movie	1		246	16.0	2.5	/experiments/AOT/AOT_stimuli/rescaled_final/0050_rv.mp4	0.0	115.50177597999573	2.5083580017089844
18	94.01527500152588	pulse	1	t		16.0	2.5	/experiments/AOT/AOT_stimuli/rescaled_final/0050_rv.mp4	0.0	117.09252500534058	
18	94.93288397789001	fix_post	2		12	16.0	2.5	/experiments/AOT/AOT_stimuli/rescaled_final/0050_rv.mp4	0.0	118.01013398170471	0.09959006309509277
19	95.03247404098511	fix_pre	0		120	17.0	2.5	/experiments/AOT/AOT_stimuli/rescaled_final/1060_rv.mp4	0.0	118.1097240447998	1.00050687789917
19	95.61652183532715	pulse	0	t		17.0	2.5	/experiments/AOT/AOT_stimuli/rescaled_final/1060_rv.mp4	0.0	118.69377183914185	
19	96.03298091888428	movie	1		243	17.0	2.5	/experiments/AOT/AOT_stimuli/rescaled_final/1060_rv.mp4	0.0	119.11023092269897	2.499897003173828
19	97.2166039943695	pulse	1	t		17.0	2.5	/experiments/AOT/AOT_stimuli/rescaled_final/1060_rv.mp4	0.0	120.2938539981842	
19	98.5328779220581	fix_post	2		12	17.0	2.5	/experiments/AOT/AOT_stimuli/rescaled_final/1060_rv.mp4	0.0	121.6101279258728	0.09993100166320801
20	98.63280892372131	fix_pre	0		120	18.0	2.5	/experiments/AOT/AOT_stimuli/rescaled_final/1296_fw.mp4	0.0	121.71005892753601	0.9994831085205078
20	98.81626200675964	pulse	0	t		18.0	2.5	/experiments/AOT/AOT_stimuli/rescaled_final/1296_fw.mp4	0.0	121.89351201057434	
20	99.63229203224182	movie	1		247	18.0	2.5	/experiments/AOT/AOT_stimuli/rescaled_final/1296_fw.mp4	0.0	122.70954203605652	2.500403881072998
20	100.41626596450806	pulse	1	t		18.0	2.5	/experiments/AOT/AOT_stimuli/rescaled_final/1296_fw.mp4	0.0	123.49351596832275	
20	102.01624083518982	pulse	1	t		18.0	2.5	/experiments/AOT/AOT_stimuli/rescaled_final/1296_fw.mp4	0.0	125.09349083900452	
20	102.13269591331482	fix_post	2		12	18.0	2.5	/experiments/AOT/AOT_stimuli/rescaled_final/1296_fw.mp4	0.0	125.20994591712952	0.1000070571899414
21	102.23270297050476	fix_pre	0		120	19.0	2.5	/experiments/AOT/AOT_stimuli/rescaled_final/1365_fw.mp4	0.0	125.30995297431946	1.0000550746917725
21	103.23275804519653	movie	1		248	19.0	2.5	/experiments/AOT/AOT_stimuli/rescaled_final/1365_fw.mp4	0.0	126.31000804901123	2.499945878982544
21	103.61567997932434	pulse	1	t		19.0	2.5	/experiments/AOT/AOT_stimuli/rescaled_final/1365_fw.mp4	0.0	126.69292998313904	
21	105.21618986129761	pulse	1	t		19.0	2.5	/experiments/AOT/AOT_stimuli/rescaled_final/1365_fw.mp4	0.0	128.2934398651123	
21	105.73270392417908	fix_post	2		12	19.0	2.5	/experiments/AOT/AOT_stimuli/rescaled_final/1365_fw.mp4	0.0	128.80995392799377	0.1000521183013916
22	105.83275604248047	fix_pre	0		119	20.0	2.5	blank	1.0	128.91000604629517	0.9917848110198975
22	106.81620693206787	pulse	0	t		20.0	2.5	blank	1.0	129.89345693588257	
22	106.82454085350037	movie	1		301	20.0	2.5	blank	1.0	129.90179085731506	2.5082411766052246
22	108.41626596450806	pulse	1	t		20.0	2.5	blank	1.0	131.49351596832275	
22	109.33278203010559	fix_post	2		12	20.0	2.5	blank	1.0	132.4100320339203	0.09994292259216309
23	109.43272495269775	fix_pre	0		120	21.0	2.5	/experiments/AOT/AOT_stimuli/rescaled_final/0226_rv.mp4	0.0	132.50997495651245	0.9999959468841553
23	110.01622295379639	pulse	0	t		21.0	2.5	/experiments/AOT/AOT_stimuli/rescaled_final/0226_rv.mp4	0.0	133.09347295761108	
23	110.43272089958191	movie	1		244	21.0	2.5	/experiments/AOT/AOT_stimuli/rescaled_final/0226_rv.mp4	0.0	133.5099709033966	2.500006914138794
23	111.61628103256226	pulse	1	t		21.0	2.5	/experiments/AOT/AOT_stimuli/rescaled_final/0226_rv.mp4	0.0	134.69353103637695	
23	112.9327278137207	fix_post	2		12	21.0	2.5	/experiments/AOT/AOT_stimuli/rescaled_final/0226_rv.mp4	0.0	136.0099778175354	0.09995222091674805
24	113.03268003463745	fix_pre	0		120	22.0	2.5	/experiments/AOT/AOT_stimuli/rescaled_final/1098_fw.mp4	0.0	136.10993003845215	1.0000278949737549
24	113.2162389755249	pulse	0	t		22.0	2.5	/experiments/AOT/AOT_stimuli/rescaled_final/1098_fw.mp4	0.0	136.2934889793396	
24	114.0327079296112	movie	1		246	22.0	2.5	/experiments/AOT/AOT_stimuli/rescaled_final/1098_fw.mp4	0.0	137.1099579334259	2.4995620250701904
24	114.816241979599	pulse	1	t		22.0	2.5	/experiments/AOT/AOT_stimuli/rescaled_final/1098_fw.mp4	0.0	137.8934919834137	
24	116.41585493087769	pulse	1	t		22.0	2.5	/experiments/AOT/AOT_stimuli/rescaled_final/1098_fw.mp4	0.0	139.49310493469238	
24	116.5322699546814	fix_post	2		12	22.0	2.5	/experiments/AOT/AOT_stimuli/rescaled_final/1098_fw.mp4	0.0	139.6095199584961	0.10042190551757812
25	116.63269186019897	fix_pre	0		120	23.0	2.5	/experiments/AOT/AOT_stimuli/rescaled_final/0643_rv.mp4	0.0	139.70994186401367	0.9995300769805908
25	117.63222193717957	movie	1		244	23.0	2.5	/experiments/AOT/AOT_stimuli/rescaled_final/0643_rv.mp4	0.0	140.70947194099426	2.500070095062256
25	118.01622700691223	pulse	1	t		23.0	2.5	/experiments/AOT/AOT_stimuli/rescaled_final/0643_rv.mp4	0.0	141.09347701072693	
25	119.61622500419617	pulse	1	t		23.0	2.5	/experiments/AOT/AOT_stimuli/rescaled_final/0643_rv.mp4	0.0	142.69347500801086	
25	120.13229203224182	fix_post	2		12	23.0	2.5	/experiments/AOT/AOT_stimuli/rescaled_final/0643_rv.mp4	0.0	143.20954203605652	0.10033679008483887
26	120.23262882232666	fix_pre	0		119	24.0	2.5	/experiments/AOT/AOT_stimuli/rescaled_final/0846_rv.mp4	0.0	143.30987882614136	0.9917130470275879
26	121.216148853302	pulse	0	t		24.0	2.5	/experiments/AOT/AOT_stimuli/rescaled_final/0846_rv.mp4	0.0	144.2933988571167	
26	121.22434186935425	movie	1		248	24.0	2.5	/experiments/AOT/AOT_stimuli/rescaled_final/0846_rv.mp4	0.0	144.30159187316895	2.5083000659942627
26	122.81574988365173	pulse	1	t		24.0	2.5	/experiments/AOT/AOT_stimuli/rescaled_final/0846_rv.mp4	0.0	145.89299988746643	
26	123.73264193534851	fix_post	2		12	24.0	2.5	/experiments/AOT/AOT_stimuli/rescaled_final/0846_rv.mp4	0.0	146.8098919391632	0.10005903244018555
27	123.8327009677887	fix_pre	0		120	25.0	2.5	/experiments/AOT/AOT_stimuli/rescaled_final/2089_rv.mp4	0.0	146.9099509716034	0.9994659423828125
27	124.41624689102173	pulse	0	t		25.0	2.5	/experiments/AOT/AOT_stimuli/rescaled_final/2089_rv.mp4	0.0	147.49349689483643	
27	124.83216691017151	movie	1		245	25.0	2.5	/experiments/AOT/AOT_stimuli/rescaled_final/2089_rv.mp4	0.0	147.9094169139862	2.5000250339508057
27	126.01620602607727	pulse	1	t		25.0	2.5	/experiments/AOT/AOT_stimuli/rescaled_final/2089_rv.mp4	0.0	149.09345602989197	
27	127.33219194412231	fix_post	2		12	25.0	2.5	/experiments/AOT/AOT_stimuli/rescaled_final/2089_rv.mp4	0.0	150.409441947937	0.10053205490112305
28	127.43272399902344	fix_pre	0		120	26.0	2.5	/experiments/AOT/AOT_stimuli/rescaled_final/0257_rv.mp4	0.0	150.50997400283813	1.000006914138794
28	127.61619997024536	pulse	0	t		26.0	2.5	/experiments/AOT/AOT_stimuli/rescaled_final/0257_rv.mp4	0.0	150.69344997406006	
28	128.43273091316223	movie	1		243	26.0	2.5	/experiments/AOT/AOT_stimuli/rescaled_final/0257_rv.mp4	0.0	151.50998091697693	2.4998779296875
28	129.21609902381897	pulse	1	t		26.0	2.5	/experiments/AOT/AOT_stimuli/rescaled_final/0257_rv.mp4	0.0	152.29334902763367	
28	130.8145468235016	pulse	1	t		26.0	2.5	/experiments/AOT/AOT_stimuli/rescaled_final/0257_rv.mp4	0.0	153.89179682731628	
28	130.93260884284973	fix_post	2		12	26.0	2.5	/experiments/AOT/AOT_stimuli/rescaled_final/0257_rv.mp4	0.0	154.00985884666443	0.09997797012329102
29	131.03258681297302	fix_pre	0		120	27.0	2.5	blank	1.0	154.10983681678772	1.0000262260437012
29	132.03261303901672	movie	1		300	27.0	2.5	blank	1.0	155.10986304283142	2.4995408058166504
29	132.41612195968628	pulse	1	t		27.0	2.5	blank	1.0	155.49337196350098	
29	134.01608395576477	pulse	1	t		27.0	2.5	blank	1.0	157.09333395957947	
29	134.53215384483337	fix_post	2		12	27.0	2.5	blank	1.0	157.60940384864807	0.10039401054382324
30	134.6325478553772	fix_pre	0		119	28.0	2.5	/experiments/AOT/AOT_stimuli/rescaled_final/1005_rv.mp4	0.0	157.7097978591919	0.9917771816253662
30	135.61612200737	pulse	0	t		28.0	2.5	/experiments/AOT/AOT_stimuli/rescaled_final/1005_rv.mp4	0.0	158.6933720111847	
30	135.62432503700256	movie	1		246	28.0	2.5	/experiments/AOT/AOT_stimuli/rescaled_final/1005_rv.mp4	0.0	158.70157504081726	2.5083019733428955
30	137.21619582176208	pulse	1	t		28.0	2.5	/experiments/AOT/AOT_stimuli/rescaled_final/1005_rv.mp4	0.0	160.29344582557678	
30	138.13262701034546	fix_post	2		12	28.0	2.5	/experiments/AOT/AOT_stimuli/rescaled_final/1005_rv.mp4	0.0	161.20987701416016	0.10004591941833496
31	138.2326729297638	fix_pre	0		120	29.0	2.5	/experiments/AOT/AOT_stimuli/rescaled_final/0918_fw.mp4	0.0	161.3099229335785	0.9998860359191895
31	138.81609582901	pulse	0	t		29.0	2.5	/experiments/AOT/AOT_stimuli/rescaled_final/0918_fw.mp4	0.0	161.8933458328247	
31	139.23255896568298	movie	1		245	29.0	2.5	/experiments/AOT/AOT_stimuli/rescaled_final/0918_fw.mp4	0.0	162.30980896949768	2.499983072280884
31	140.41620683670044	pulse	1	t		29.0	2.5	/experiments/AOT/AOT_stimuli/rescaled_final/0918_fw.mp4	0.0	163.49345684051514	
31	141.73254203796387	fix_post	2		12	29.0	2.5	/experiments/AOT/AOT_stimuli/rescaled_final/0918_fw.mp4	0.0	164.80979204177856	0.10012292861938477
32	141.83266496658325	fix_pre	0		120	30.0	2.5	/experiments/AOT/AOT_stimuli/rescaled_final/0128_rv.mp4	0.0	164.90991497039795	0.9994850158691406
32	142.01611304283142	pulse	0	t		30.0	2.5	/experiments/AOT/AOT_stimuli/rescaled_final/0128_rv.mp4	0.0	165.09336304664612	
32	142.8321499824524	movie	1		244	30.0	2.5	/experiments/AOT/AOT_stimuli/rescaled_final/0128_rv.mp4	0.0	165.9093999862671	2.500018835067749
32	143.61603999137878	pulse	1	t		30.0	2.5	/experiments/AOT/AOT_stimuli/rescaled_final/0128_rv.mp4	0.0	166.69328999519348	
32	145.2147479057312	pulse	1	t		30.0	2.5	/experiments/AOT/AOT_stimuli/rescaled_final/0128_rv.mp4	0.0	168.2919979095459	
32	145.33216881752014	fix_post	2		12	30.0	2.5	/experiments/AOT/AOT_stimuli/rescaled_final/0128_rv.mp4	0.0	168.40941882133484	0.10040712356567383
33	145.43257594108582	fix_pre	0		120	31.0	2.5	/experiments/AOT/AOT_stimuli/rescaled_final/1346_fw.mp4	0.0	168.5098259449005	1.000011920928955
33	146.43258786201477	movie	1		244	31.0	2.5	/experiments/AOT/AOT_stimuli/rescaled_final/1346_fw.mp4	0.0	169.50983786582947	2.49993896484375
33	146.81556296348572	pulse	1	t		31.0	2.5	/experiments/AOT/AOT_stimuli/rescaled_final/1346_fw.mp4	0.0	169.89281296730042	
33	148.4161319732666	pulse	1	t		31.0	2.5	/experiments/AOT/AOT_stimuli/rescaled_final/1346_fw.mp4	0.0	171.4933819770813	
33	148.93252682685852	fix_post	2		12	31.0	2.5	/experiments/AOT/AOT_stimuli/rescaled_final/1346_fw.mp4	0.0	172.00977683067322	0.10004305839538574
34	149.0325698852539	fix_pre	0		119	32.0	2.5	/experiments/AOT/AOT_stimuli/rescaled_final/0526_fw.mp4	0.0	172.1098198890686	0.9916589260101318
34	150.01565885543823	pulse	0	t		32.0	2.5	/experiments/AOT/AOT_stimuli/rescaled_final/0526_fw.mp4	0.0	173.09290885925293	
34	150.02422881126404	movie	1		247	32.0	2.5	/experiments/AOT/AOT_stimuli/rescaled_final/0526_fw.mp4	0.0	173.10147881507874	2.5082461833953857
34	151.61535787582397	pulse	1	t		32.0	2.5	/experiments/AOT/AOT_stimuli/rescaled_final/0526_fw.mp4	0.0	174.69260787963867	
34	152.53247499465942	fix_post	2		12	32.0	2.5	/experiments/AOT/AOT_stimuli/rescaled_final/0526_fw.mp4	0.0	175.60972499847412	0.1003258228302002
35	152.63280081748962	fix_pre	0		120	33.0	2.5	/experiments/AOT/AOT_stimuli/rescaled_final/0809_fw.mp4	0.0	175.71005082130432	0.9997820854187012
35	153.21730995178223	pulse	0	t		33.0	2.5	/experiments/AOT/AOT_stimuli/rescaled_final/0809_fw.mp4	0.0	176.29455995559692	
35	153.63258290290833	movie	1		246	33.0	2.5	/experiments/AOT/AOT_stimuli/rescaled_final/0809_fw.mp4	0.0	176.70983290672302	2.4999301433563232
35	154.81615090370178	pulse	1	t		33.0	2.5	/experiments/AOT/AOT_stimuli/rescaled_final/0809_fw.mp4	0.0	177.89340090751648	
35	156.13251304626465	fix_post	2		12	33.0	2.5	/experiments/AOT/AOT_stimuli/rescaled_final/0809_fw.mp4	0.0	179.20976305007935	0.10004186630249023
36	156.23255491256714	fix_pre	0		120	34.0	2.5	blank	1.0	179.30980491638184	0.9996209144592285
36	156.4160578250885	pulse	0	t		34.0	2.5	blank	1.0	179.4933078289032	
36	157.23217582702637	movie	1		300	34.0	2.5	blank	1.0	180.30942583084106	2.5003252029418945
36	158.01598501205444	pulse	1	t		34.0	2.5	blank	1.0	181.09323501586914	
36	159.61594581604004	pulse	1	t		34.0	2.5	blank	1.0	182.69319581985474	
36	159.73250102996826	fix_post	2		12	34.0	2.5	blank	1.0	182.80975103378296	0.10007095336914062
37	159.8325719833374	fix_pre	0		120	35.0	2.5	/experiments/AOT/AOT_stimuli/rescaled_final/0545_rv.mp4	0.0	182.9098219871521	0.9995529651641846
37	160.8321249485016	movie	1		245	35.0	2.5	/experiments/AOT/AOT_stimuli/rescaled_final/0545_rv.mp4	0.0	183.90937495231628	2.4999680519104004
37	161.21563386917114	pulse	1	t		35.0	2.5	/experiments/AOT/AOT_stimuli/rescaled_final/0545_rv.mp4	0.0	184.29288387298584	
37	162.8158609867096	pulse	1	t		35.0	2.5	/experiments/AOT/AOT_stimuli/rescaled_final/0545_rv.mp4	0.0	185.8931109905243	
37	163.332093000412	fix_post	2		12	35.0	2.5	/experiments/AOT/AOT_stimuli/rescaled_final/0545_rv.mp4	0.0	186.40934300422668	0.10038900375366211
38	163.43248200416565	fix_pre	0		119	36.0	2.5	/experiments/AOT/AOT_stimuli/rescaled_final/0108_fw.mp4	0.0	186.50973200798035	0.9916079044342041
38	164.41598200798035	pulse	0	t		36.0	2.5	/experiments/AOT/AOT_stimuli/rescaled_final/0108_fw.mp4	0.0	187.49323201179504	
38	164.42408990859985	movie	1		252	36.0	2.5	/experiments/AOT/AOT_stimuli/rescaled_final/0108_fw.mp4	0.0	187.50133991241455	2.508352041244507
38	166.01559281349182	pulse	1	t		36.0	2.5	/experiments/AOT/AOT_stimuli/rescaled_final/0108_fw.mp4	0.0	189.09284281730652	
38	166.93244194984436	fix_post	2		12	36.0	2.5	/experiments/AOT/AOT_stimuli/rescaled_final/0108_fw.mp4	0.0	190.00969195365906	0.10000896453857422
39	167.03245091438293	fix_pre	0		120	37.0	2.5	/experiments/AOT/AOT_stimuli/rescaled_final/0164_fw.mp4	0.0	190.10970091819763	0.9999730587005615
39	167.61597990989685	pulse	0	t		37.0	2.5	/experiments/AOT/AOT_stimuli/rescaled_final/0164_fw.mp4	0.0	190.69322991371155	
39	168.0324239730835	movie	1		246	37.0	2.5	/experiments/AOT/AOT_stimuli/rescaled_final/0164_fw.mp4	0.0	191.1096739768982	2.5001180171966553
39	169.21595287322998	pulse	1	t		37.0	2.5	/experiments/AOT/AOT_stimuli/rescaled_final/0164_fw.mp4	0.0	192.29320287704468	
39	170.53254199028015	fix_post	2		12	37.0	2.5	/experiments/AOT/AOT_stimuli/rescaled_final/0164_fw.mp4	0.0	193.60979199409485	0.09988903999328613
40	170.63243103027344	fix_pre	0		120	38.0	2.5	/experiments/AOT/AOT_stimuli/rescaled_final/1514_rv.mp4	0.0	193.70968103408813	1.000072956085205
40	170.81581282615662	pulse	0	t		38.0	2.5	/experiments/AOT/AOT_stimuli/rescaled_final/1514_rv.mp4	0.0	193.8930628299713	
40	171.63250398635864	movie	1		246	38.0	2.5	/experiments/AOT/AOT_stimuli/rescaled_final/1514_rv.mp4	0.0	194.70975399017334	2.4994490146636963
40	172.41587901115417	pulse	1	t		38.0	2.5	/experiments/AOT/AOT_stimuli/rescaled_final/1514_rv.mp4	0.0	195.49312901496887	
40	174.01435089111328	pulse	1	t		38.0	2.5	/experiments/AOT/AOT_stimuli/rescaled_final/1514_rv.mp4	0.0	197.09160089492798	
40	174.13195300102234	fix_post	2		12	38.0	2.5	/experiments/AOT/AOT_stimuli/rescaled_final/1514_rv.mp4	0.0	197.20920300483704	0.1004948616027832
41	174.23244786262512	fix_pre	0		120	39.0	2.5	/experiments/AOT/AOT_stimuli/rescaled_final/0914_fw.mp4	0.0	197.30969786643982	1.0000410079956055
41	175.23248887062073	movie	1		248	39.0	2.5	/experiments/AOT/AOT_stimuli/rescaled_final/0914_fw.mp4	0.0	198.30973887443542	2.499890089035034
41	175.61555981636047	pulse	1	t		39.0	2.5	/experiments/AOT/AOT_stimuli/rescaled_final/0914_fw.mp4	0.0	198.69280982017517	
41	177.21591782569885	pulse	1	t		39.0	2.5	/experiments/AOT/AOT_stimuli/rescaled_final/0914_fw.mp4	0.0	200.29316782951355	
41	177.73237895965576	fix_post	2		12	39.0	2.5	/experiments/AOT/AOT_stimuli/rescaled_final/0914_fw.mp4	0.0	200.80962896347046	0.0999748706817627
42	177.83235383033752	fix_pre	0		119	40.0	2.5	/experiments/AOT/AOT_stimuli/rescaled_final/1954_rv.mp4	0.0	200.90960383415222	0.9916071891784668
42	178.815908908844	pulse	0	t		40.0	2.5	/experiments/AOT/AOT_stimuli/rescaled_final/1954_rv.mp4	0.0	201.8931589126587	
42	178.823961019516	movie	1		245	40.0	2.5	/experiments/AOT/AOT_stimuli/rescaled_final/1954_rv.mp4	0.0	201.9012110233307	2.508368968963623
42	180.41612100601196	pulse	1	t		40.0	2.5	/experiments/AOT/AOT_stimuli/rescaled_final/1954_rv.mp4	0.0	203.49337100982666	
42	181.33232998847961	fix_post	2		12	40.0	2.5	/experiments/AOT/AOT_stimuli/rescaled_final/1954_rv.mp4	0.0	204.4095799922943	0.10000395774841309
43	181.43233394622803	fix_pre	0		120	41.0	2.5	/experiments/AOT/AOT_stimuli/rescaled_final/0226_fw.mp4	0.0	204.50958395004272	1.0000910758972168
43	182.01591992378235	pulse	0	t		41.0	2.5	/experiments/AOT/AOT_stimuli/rescaled_final/0226_fw.mp4	0.0	205.09316992759705	
43	182.43242502212524	movie	1		244	41.0	2.5	/experiments/AOT/AOT_stimuli/rescaled_final/0226_fw.mp4	0.0	205.50967502593994	2.4995288848876953
43	183.61593890190125	pulse	1	t		41.0	2.5	/experiments/AOT/AOT_stimuli/rescaled_final/0226_fw.mp4	0.0	206.69318890571594	
43	184.93195390701294	fix_post	2		12	41.0	2.5	/experiments/AOT/AOT_stimuli/rescaled_final/0226_fw.mp4	0.0	208.00920391082764	0.10005402565002441
44	185.03200793266296	fix_pre	0		120	42.0	2.5	blank	1.0	208.10925793647766	1.000309944152832
44	185.21607494354248	pulse	0	t		42.0	2.5	blank	1.0	208.29332494735718	
44	186.0323178768158	movie	1		300	42.0	2.5	blank	1.0	209.1095678806305	2.500059127807617
44	186.8158450126648	pulse	1	t		42.0	2.5	blank	1.0	209.8930950164795	
44	188.4158058166504	pulse	1	t		42.0	2.5	blank	1.0	211.4930558204651	
44	188.5323770046234	fix_post	2		12	42.0	2.5	blank	1.0	211.6096270084381	0.09994888305664062
45	188.63232588768005	fix_pre	0		120	43.0	2.5	/experiments/AOT/AOT_stimuli/rescaled_final/0018_rv.mp4	0.0	211.70957589149475	0.9999711513519287
45	189.63229703903198	movie	1		247	43.0	2.5	/experiments/AOT/AOT_stimuli/rescaled_final/0018_rv.mp4	0.0	212.70954704284668	2.50002384185791
45	190.01531386375427	pulse	1	t		43.0	2.5	/experiments/AOT/AOT_stimuli/rescaled_final/0018_rv.mp4	0.0	213.09256386756897	
45	191.61587190628052	pulse	1	t		43.0	2.5	/experiments/AOT/AOT_stimuli/rescaled_final/0018_rv.mp4	0.0	214.69312191009521	
45	192.1323208808899	fix_post	2		12	43.0	2.5	/experiments/AOT/AOT_stimuli/rescaled_final/0018_rv.mp4	0.0	215.2095708847046	0.1000680923461914
46	192.23238897323608	fix_pre	0		119	44.0	2.5	/experiments/AOT/AOT_stimuli/rescaled_final/0673_rv.mp4	0.0	215.30963897705078	0.9916069507598877
46	193.21582698822021	pulse	0	t		44.0	2.5	/experiments/AOT/AOT_stimuli/rescaled_final/0673_rv.mp4	0.0	216.2930769920349	
46	193.22399592399597	movie	1		245	44.0	2.5	/experiments/AOT/AOT_stimuli/rescaled_final/0673_rv.mp4	0.0	216.30124592781067	2.5083320140838623
46	194.81536984443665	pulse	1	t		44.0	2.5	/experiments/AOT/AOT_stimuli/rescaled_final/0673_rv.mp4	0.0	217.89261984825134	
46	195.73232793807983	fix_post	2		12	44.0	2.5	/experiments/AOT/AOT_stimuli/rescaled_final/0673_rv.mp4	0.0	218.80957794189453	0.10001993179321289
47	195.83234786987305	fix_pre	0		120	45.0	2.5	/experiments/AOT/AOT_stimuli/rescaled_final/1871_fw.mp4	0.0	218.90959787368774	0.9999680519104004
47	196.41579604148865	pulse	0	t		45.0	2.5	/experiments/AOT/AOT_stimuli/rescaled_final/1871_fw.mp4	0.0	219.49304604530334	
47	196.83231592178345	movie	1		245	45.0	2.5	/experiments/AOT/AOT_stimuli/rescaled_final/1871_fw.mp4	0.0	219.90956592559814	2.5000030994415283
47	198.01584696769714	pulse	1	t		45.0	2.5	/experiments/AOT/AOT_stimuli/rescaled_final/1871_fw.mp4	0.0	221.09309697151184	
47	199.33231902122498	fix_post	2		12	45.0	2.5	/experiments/AOT/AOT_stimuli/rescaled_final/1871_fw.mp4	0.0	222.40956902503967	0.09998083114624023
48	199.43229985237122	fix_pre	0		120	46.0	2.5	/experiments/AOT/AOT_stimuli/rescaled_final/0581_fw.mp4	0.0	222.5095498561859	1.0000090599060059
48	199.6157078742981	pulse	0	t		46.0	2.5	/experiments/AOT/AOT_stimuli/rescaled_final/0581_fw.mp4	0.0	222.6929578781128	
48	200.43230891227722	movie	1		244	46.0	2.5	/experiments/AOT/AOT_stimuli/rescaled_final/0581_fw.mp4	0.0	223.50955891609192	2.4995079040527344
48	201.2158489227295	pulse	1	t		46.0	2.5	/experiments/AOT/AOT_stimuli/rescaled_final/0581_fw.mp4	0.0	224.2930989265442	
48	202.8158519268036	pulse	1	t		46.0	2.5	/experiments/AOT/AOT_stimuli/rescaled_final/0581_fw.mp4	0.0	225.8931019306183	
48	202.93181681632996	fix_post	2		12	46.0	2.5	/experiments/AOT/AOT_stimuli/rescaled_final/0581_fw.mp4	0.0	226.00906682014465	0.10056519508361816
49	203.03238201141357	fix_pre	0		120	47.0	2.5	/experiments/AOT/AOT_stimuli/rescaled_final/0090_fw.mp4	0.0	226.10963201522827	1.0000269412994385
49	204.032408952713	movie	1		249	47.0	2.5	/experiments/AOT/AOT_stimuli/rescaled_final/0090_fw.mp4	0.0	227.1096589565277	2.4994850158691406
49	204.4152660369873	pulse	1	t		47.0	2.5	/experiments/AOT/AOT_stimuli/rescaled_final/0090_fw.mp4	0.0	227.492516040802	
49	206.01523995399475	pulse	1	t		47.0	2.5	/experiments/AOT/AOT_stimuli/rescaled_final/0090_fw.mp4	0.0	229.09248995780945	
49	206.53189396858215	fix_post	2		12	47.0	2.5	/experiments/AOT/AOT_stimuli/rescaled_final/0090_fw.mp4	0.0	229.60914397239685	0.09995102882385254
50	206.631844997406	fix_pre	0		119	48.0	2.5	/experiments/AOT/AOT_stimuli/rescaled_final/1326_fw.mp4	0.0	229.7090950012207	0.9922080039978027
50	207.6158628463745	pulse	0	t		48.0	2.5	/experiments/AOT/AOT_stimuli/rescaled_final/1326_fw.mp4	0.0	230.6931128501892	
50	207.6240530014038	movie	1		245	48.0	2.5	/experiments/AOT/AOT_stimuli/rescaled_final/1326_fw.mp4	0.0	230.7013030052185	2.5077288150787354
50	209.2160828113556	pulse	1	t		48.0	2.5	/experiments/AOT/AOT_stimuli/rescaled_final/1326_fw.mp4	0.0	232.2933328151703	
50	210.13178181648254	fix_post	2		12	48.0	2.5	/experiments/AOT/AOT_stimuli/rescaled_final/1326_fw.mp4	0.0	233.20903182029724	0.10047316551208496
51	210.23225498199463	fix_pre	0		120	49.0	2.5	blank	1.0	233.30950498580933	0.9999840259552002
51	210.8157069683075	pulse	0	t		49.0	2.5	blank	1.0	233.8929569721222	
51	211.23223900794983	movie	1		300	49.0	2.5	blank	1.0	234.30948901176453	2.500067949295044
51	212.41573095321655	pulse	1	t		49.0	2.5	blank	1.0	235.49298095703125	
51	213.73230695724487	fix_post	2		12	49.0	2.5	blank	1.0	236.80955696105957	0.09981489181518555
52	213.83212184906006	fix_pre	0		120	50.0	2.5	/experiments/AOT/AOT_stimuli/rescaled_final/1326_rv.mp4	0.0	236.90937185287476	1.0000641345977783
52	214.0155909061432	pulse	0	t		50.0	2.5	/experiments/AOT/AOT_stimuli/rescaled_final/1326_rv.mp4	0.0	237.09284090995789	
52	214.83218598365784	movie	1		245	50.0	2.5	/experiments/AOT/AOT_stimuli/rescaled_final/1326_rv.mp4	0.0	237.90943598747253	2.4999959468841553
52	215.61565399169922	pulse	1	t		50.0	2.5	/experiments/AOT/AOT_stimuli/rescaled_final/1326_rv.mp4	0.0	238.69290399551392	
52	217.2241609096527	pulse	1	t		50.0	2.5	/experiments/AOT/AOT_stimuli/rescaled_final/1326_rv.mp4	0.0	240.3014109134674	
52	217.332181930542	fix_post	2		12	50.0	2.5	/experiments/AOT/AOT_stimuli/rescaled_final/1326_rv.mp4	0.0	240.4094319343567	0.09998607635498047
53	217.43216800689697	fix_pre	0		120	51.0	2.5	/experiments/AOT/AOT_stimuli/rescaled_final/0809_rv.mp4	0.0	240.50941801071167	1.0000228881835938
53	218.43219089508057	movie	1		246	51.0	2.5	/experiments/AOT/AOT_stimuli/rescaled_final/0809_rv.mp4	0.0	241.50944089889526	2.4995851516723633
53	218.81585884094238	pulse	1	t		51.0	2.5	/experiments/AOT/AOT_stimuli/rescaled_final/0809_rv.mp4	0.0	241.89310884475708	
53	220.41564393043518	pulse	1	t		51.0	2.5	/experiments/AOT/AOT_stimuli/rescaled_final/0809_rv.mp4	0.0	243.49289393424988	
53	220.93177604675293	fix_post	2		12	51.0	2.5	/experiments/AOT/AOT_stimuli/rescaled_final/0809_rv.mp4	0.0	244.00902605056763	0.10039687156677246
54	221.0321729183197	fix_pre	0		119	52.0	2.5	/experiments/AOT/AOT_stimuli/rescaled_final/2127_rv.mp4	0.0	244.1094229221344	0.9916999340057373
54	222.01566290855408	pulse	0	t		52.0	2.5	/experiments/AOT/AOT_stimuli/rescaled_final/2127_rv.mp4	0.0	245.09291291236877	
54	222.02387285232544	movie	1		248	52.0	2.5	/experiments/AOT/AOT_stimuli/rescaled_final/2127_rv.mp4	0.0	245.10112285614014	2.5084550380706787
54	223.6170949935913	pulse	1	t		52.0	2.5	/experiments/AOT/AOT_stimuli/rescaled_final/2127_rv.mp4	0.0	246.694344997406	
54	224.53232789039612	fix_post	2		12	52.0	2.5	/experiments/AOT/AOT_stimuli/rescaled_final/2127_rv.mp4	0.0	247.60957789421082	0.0994560718536377
55	224.63178396224976	fix_pre	0		120	53.0	2.5	/experiments/AOT/AOT_stimuli/rescaled_final/0991_fw.mp4	0.0	247.70903396606445	1.0003209114074707
55	225.21577095985413	pulse	0	t		53.0	2.5	/experiments/AOT/AOT_stimuli/rescaled_final/0991_fw.mp4	0.0	248.29302096366882	
55	225.63210487365723	movie	1		244	53.0	2.5	/experiments/AOT/AOT_stimuli/rescaled_final/0991_fw.mp4	0.0	248.70935487747192	2.5000290870666504
55	226.8158528804779	pulse	1	t		53.0	2.5	/experiments/AOT/AOT_stimuli/rescaled_final/0991_fw.mp4	0.0	249.8931028842926	
55	228.13213396072388	fix_post	2		12	53.0	2.5	/experiments/AOT/AOT_stimuli/rescaled_final/0991_fw.mp4	0.0	251.20938396453857	0.10001492500305176
56	228.23214888572693	fix_pre	0		120	54.0	2.5	/experiments/AOT/AOT_stimuli/rescaled_final/1009_fw.mp4	0.0	251.30939888954163	0.99993896484375
56	228.41574096679688	pulse	0	t		54.0	2.5	/experiments/AOT/AOT_stimuli/rescaled_final/1009_fw.mp4	0.0	251.49299097061157	
56	229.23208785057068	movie	1		245	54.0	2.5	/experiments/AOT/AOT_stimuli/rescaled_final/1009_fw.mp4	0.0	252.30933785438538	2.500033140182495
56	230.01564598083496	pulse	1	t		54.0	2.5	/experiments/AOT/AOT_stimuli/rescaled_final/1009_fw.mp4	0.0	253.09289598464966	
56	231.61562991142273	pulse	1	t		54.0	2.5	/experiments/AOT/AOT_stimuli/rescaled_final/1009_fw.mp4	0.0	254.69287991523743	
56	231.73212099075317	fix_post	2		12	54.0	2.5	/experiments/AOT/AOT_stimuli/rescaled_final/1009_fw.mp4	0.0	254.80937099456787	0.10004091262817383
57	231.83216190338135	fix_pre	0		120	55.0	2.5	/experiments/AOT/AOT_stimuli/rescaled_final/0060_fw.mp4	0.0	254.90941190719604	0.9999589920043945
57	232.83212089538574	movie	1		245	55.0	2.5	/experiments/AOT/AOT_stimuli/rescaled_final/0060_fw.mp4	0.0	255.90937089920044	2.4995980262756348
57	233.21544289588928	pulse	1	t		55.0	2.5	/experiments/AOT/AOT_stimuli/rescaled_final/0060_fw.mp4	0.0	256.292692899704	
57	234.81570291519165	pulse	1	t		55.0	2.5	/experiments/AOT/AOT_stimuli/rescaled_final/0060_fw.mp4	0.0	257.89295291900635	
57	235.33171892166138	fix_post	2		12	55.0	2.5	/experiments/AOT/AOT_stimuli/rescaled_final/0060_fw.mp4	0.0	258.4089689254761	0.10033106803894043
58	235.43204998970032	fix_pre	0		119	56.0	2.5	blank	1.0	258.509299993515	0.9917788505554199
58	236.4156608581543	pulse	0	t		56.0	2.5	blank	1.0	259.492910861969	
58	236.42382884025574	movie	1		301	56.0	2.5	blank	1.0	259.50107884407043	2.5082180500030518
58	238.01556301116943	pulse	1	t		56.0	2.5	blank	1.0	261.09281301498413	
58	238.9320468902588	fix_post	2		12	56.0	2.5	blank	1.0	262.0092968940735	0.10010313987731934
59	239.0321500301361	fix_pre	0		120	57.0	2.5	/experiments/AOT/AOT_stimuli/rescaled_final/1363_fw.mp4	0.0	262.1094000339508	0.999931812286377
59	239.61559081077576	pulse	0	t		57.0	2.5	/experiments/AOT/AOT_stimuli/rescaled_final/1363_fw.mp4	0.0	262.69284081459045	
59	240.03208184242249	movie	1		244	57.0	2.5	/experiments/AOT/AOT_stimuli/rescaled_final/1363_fw.mp4	0.0	263.1093318462372	2.500030994415283
59	241.21555304527283	pulse	1	t		57.0	2.5	/experiments/AOT/AOT_stimuli/rescaled_final/1363_fw.mp4	0.0	264.2928030490875	
59	242.53211283683777	fix_post	2		12	57.0	2.5	/experiments/AOT/AOT_stimuli/rescaled_final/1363_fw.mp4	0.0	265.60936284065247	0.10000109672546387
60	242.63211393356323	fix_pre	0		120	58.0	2.5	/experiments/AOT/AOT_stimuli/rescaled_final/1235_fw.mp4	0.0	265.70936393737793	0.9999680519104004
60	242.81564092636108	pulse	0	t		58.0	2.5	/experiments/AOT/AOT_stimuli/rescaled_final/1235_fw.mp4	0.0	265.8928909301758	
60	243.63208198547363	movie	1		245	58.0	2.5	/experiments/AOT/AOT_stimuli/rescaled_final/1235_fw.mp4	0.0	266.70933198928833	2.4999499320983887
60	244.41553497314453	pulse	1	t		58.0	2.5	/experiments/AOT/AOT_stimuli/rescaled_final/1235_fw.mp4	0.0	267.49278497695923	
60	246.01417803764343	pulse	1	t		58.0	2.5	/experiments/AOT/AOT_stimuli/rescaled_final/1235_fw.mp4	0.0	269.09142804145813	
60	246.13203191757202	fix_post	2		12	58.0	2.5	/experiments/AOT/AOT_stimuli/rescaled_final/1235_fw.mp4	0.0	269.2092819213867	0.10003495216369629
61	246.23206686973572	fix_pre	0		120	59.0	2.5	/experiments/AOT/AOT_stimuli/rescaled_final/2105_fw.mp4	0.0	269.3093168735504	1.0000181198120117
61	247.23208498954773	movie	1		244	59.0	2.5	/experiments/AOT/AOT_stimuli/rescaled_final/2105_fw.mp4	0.0	270.3093349933624	2.4995529651641846
61	247.6152858734131	pulse	1	t		59.0	2.5	/experiments/AOT/AOT_stimuli/rescaled_final/2105_fw.mp4	0.0	270.6925358772278	
61	249.2155590057373	pulse	1	t		59.0	2.5	/experiments/AOT/AOT_stimuli/rescaled_final/2105_fw.mp4	0.0	272.292809009552	
61	249.7316379547119	fix_post	2		12	59.0	2.5	/experiments/AOT/AOT_stimuli/rescaled_final/2105_fw.mp4	0.0	272.8088879585266	0.10042595863342285
62	249.83206391334534	fix_pre	0		119	60.0	2.5	/experiments/AOT/AOT_stimuli/rescaled_final/0408_fw.mp4	0.0	272.90931391716003	0.9916360378265381
62	250.81545782089233	pulse	0	t		60.0	2.5	/experiments/AOT/AOT_stimuli/rescaled_final/0408_fw.mp4	0.0	273.89270782470703	
62	250.82369995117188	movie	1		246	60.0	2.5	/experiments/AOT/AOT_stimuli/rescaled_final/0408_fw.mp4	0.0	273.9009499549866	2.5083260536193848
62	252.41528987884521	pulse	1	t		60.0	2.5	/experiments/AOT/AOT_stimuli/rescaled_final/0408_fw.mp4	0.0	275.4925398826599	
62	253.33202600479126	fix_post	2		12	60.0	2.5	/experiments/AOT/AOT_stimuli/rescaled_final/0408_fw.mp4	0.0	276.40927600860596	0.09996986389160156
63	253.43199586868286	fix_pre	0		120	61.0	2.5	blank	1.0	276.50924587249756	1.0000331401824951
63	254.01548600196838	pulse	0	t		61.0	2.5	blank	1.0	277.0927360057831	
63	254.43202900886536	movie	1		300	61.0	2.5	blank	1.0	277.50927901268005	2.5000159740448
63	255.61543798446655	pulse	1	t		61.0	2.5	blank	1.0	278.69268798828125	
63	256.93204498291016	fix_post	2		12	61.0	2.5	blank	1.0	280.00929498672485	0.09997391700744629
64	257.0320188999176	fix_pre	0		120	62.0	2.5	/experiments/AOT/AOT_stimuli/rescaled_final/0616_fw.mp4	0.0	280.1092689037323	0.9999220371246338
64	257.2154788970947	pulse	0	t		62.0	2.5	/experiments/AOT/AOT_stimuli/rescaled_final/0616_fw.mp4	0.0	280.2927289009094	
64	258.03194093704224	movie	1		244	62.0	2.5	/experiments/AOT/AOT_stimuli/rescaled_final/0616_fw.mp4	0.0	281.10919094085693	2.499635934829712
64	258.8155369758606	pulse	1	t		62.0	2.5	/experiments/AOT/AOT_stimuli/rescaled_final/0616_fw.mp4	0.0	281.8927869796753	
64	260.4239020347595	pulse	1	t		62.0	2.5	/experiments/AOT/AOT_stimuli/rescaled_final/0616_fw.mp4	0.0	283.5011520385742	
64	260.53157687187195	fix_post	2		12	62.0	2.5	/experiments/AOT/AOT_stimuli/rescaled_final/0616_fw.mp4	0.0	283.60882687568665	0.10039210319519043
65	260.63196897506714	fix_pre	0		120	63.0	2.5	/experiments/AOT/AOT_stimuli/rescaled_final/1537_fw.mp4	0.0	283.70921897888184	0.9996778964996338
65	261.6316468715668	movie	1		245	63.0	2.5	/experiments/AOT/AOT_stimuli/rescaled_final/1537_fw.mp4	0.0	284.70889687538147	2.5002760887145996
65	262.01476097106934	pulse	1	t		63.0	2.5	/experiments/AOT/AOT_stimuli/rescaled_final/1537_fw.mp4	0.0	285.09201097488403	
65	263.6152620315552	pulse	1	t		63.0	2.5	/experiments/AOT/AOT_stimuli/rescaled_final/1537_fw.mp4	0.0	286.6925120353699	
65	264.1319229602814	fix_post	2		12	63.0	2.5	/experiments/AOT/AOT_stimuli/rescaled_final/1537_fw.mp4	0.0	287.20917296409607	0.09991788864135742
66	264.23184084892273	fix_pre	0		119	64.0	2.5	/experiments/AOT/AOT_stimuli/rescaled_final/0018_fw.mp4	0.0	287.3090908527374	0.9918050765991211
66	265.2154049873352	pulse	0	t		64.0	2.5	/experiments/AOT/AOT_stimuli/rescaled_final/0018_fw.mp4	0.0	288.2926549911499	
66	265.22364592552185	movie	1		247	64.0	2.5	/experiments/AOT/AOT_stimuli/rescaled_final/0018_fw.mp4	0.0	288.30089592933655	2.508302927017212
66	266.8153738975525	pulse	1	t		64.0	2.5	/experiments/AOT/AOT_stimuli/rescaled_final/0018_fw.mp4	0.0	289.8926239013672	
66	267.73194885253906	fix_post	2		12	64.0	2.5	/experiments/AOT/AOT_stimuli/rescaled_final/0018_fw.mp4	0.0	290.80919885635376	0.09961199760437012
67	267.83156085014343	fix_pre	0		120	65.0	2.5	/experiments/AOT/AOT_stimuli/rescaled_final/0547_fw.mp4	0.0	290.90881085395813	1.0000030994415283
67	268.41547203063965	pulse	0	t		65.0	2.5	/experiments/AOT/AOT_stimuli/rescaled_final/0547_fw.mp4	0.0	291.49272203445435	
67	268.83156394958496	movie	1		245	65.0	2.5	/experiments/AOT/AOT_stimuli/rescaled_final/0547_fw.mp4	0.0	291.90881395339966	2.5004138946533203
67	270.01540184020996	pulse	1	t		65.0	2.5	/experiments/AOT/AOT_stimuli/rescaled_final/0547_fw.mp4	0.0	293.09265184402466	
67	271.3319778442383	fix_post	2		12	65.0	2.5	/experiments/AOT/AOT_stimuli/rescaled_final/0547_fw.mp4	0.0	294.409227848053	0.09996604919433594
68	271.4319438934326	fix_pre	0		120	66.0	2.5	/experiments/AOT/AOT_stimuli/rescaled_final/1588_rv.mp4	0.0	294.5091938972473	0.9999539852142334
68	271.61534094810486	pulse	0	t		66.0	2.5	/experiments/AOT/AOT_stimuli/rescaled_final/1588_rv.mp4	0.0	294.69259095191956	
68	272.43189787864685	movie	1		246	66.0	2.5	/experiments/AOT/AOT_stimuli/rescaled_final/1588_rv.mp4	0.0	295.50914788246155	2.4999890327453613
68	273.2153739929199	pulse	1	t		66.0	2.5	/experiments/AOT/AOT_stimuli/rescaled_final/1588_rv.mp4	0.0	296.2926239967346	
68	274.81539702415466	pulse	1	t		66.0	2.5	/experiments/AOT/AOT_stimuli/rescaled_final/1588_rv.mp4	0.0	297.89264702796936	
68	274.9318869113922	fix_post	2		12	66.0	2.5	/experiments/AOT/AOT_stimuli/rescaled_final/1588_rv.mp4	0.0	298.0091369152069	0.0999751091003418
69	275.03186202049255	fix_pre	0		120	67.0	2.5	/experiments/AOT/AOT_stimuli/rescaled_final/2088_fw.mp4	0.0	298.10911202430725	1.0001208782196045
69	276.03198289871216	movie	1		245	67.0	2.5	/experiments/AOT/AOT_stimuli/rescaled_final/2088_fw.mp4	0.0	299.10923290252686	2.4998879432678223
69	276.41496086120605	pulse	1	t		67.0	2.5	/experiments/AOT/AOT_stimuli/rescaled_final/2088_fw.mp4	0.0	299.49221086502075	
69	278.0153338909149	pulse	1	t		67.0	2.5	/experiments/AOT/AOT_stimuli/rescaled_final/2088_fw.mp4	0.0	301.0925838947296	
69	278.53187084198	fix_post	2		12	67.0	2.5	/experiments/AOT/AOT_stimuli/rescaled_final/2088_fw.mp4	0.0	301.6091208457947	0.1000361442565918
70	278.6319069862366	fix_pre	0		119	68.0	2.5	/experiments/AOT/AOT_stimuli/rescaled_final/0441_fw.mp4	0.0	301.70915699005127	0.9917140007019043
70	279.61539697647095	pulse	0	t		68.0	2.5	/experiments/AOT/AOT_stimuli/rescaled_final/0441_fw.mp4	0.0	302.69264698028564	
70	279.6236209869385	movie	1		247	68.0	2.5	/experiments/AOT/AOT_stimuli/rescaled_final/0441_fw.mp4	0.0	302.7008709907532	2.508302927017212
70	281.2151048183441	pulse	1	t		68.0	2.5	/experiments/AOT/AOT_stimuli/rescaled_final/0441_fw.mp4	0.0	304.2923548221588	
70	282.1319239139557	fix_post	2		12	68.0	2.5	/experiments/AOT/AOT_stimuli/rescaled_final/0441_fw.mp4	0.0	305.2091739177704	0.09964489936828613
71	282.231568813324	fix_pre	0		120	69.0	2.5	blank	1.0	305.3088188171387	1.0003931522369385
71	282.81540298461914	pulse	0	t		69.0	2.5	blank	1.0	305.89265298843384	
71	283.2319619655609	movie	1		299	69.0	2.5	blank	1.0	306.3092119693756	2.499927043914795
71	284.4152948856354	pulse	1	t		69.0	2.5	blank	1.0	307.4925448894501	
71	285.7318890094757	fix_post	2		12	69.0	2.5	blank	1.0	308.8091390132904	0.09996199607849121
72	285.8318510055542	fix_pre	0		120	70.0	2.5	/experiments/AOT/AOT_stimuli/rescaled_final/1862_rv.mp4	0.0	308.9091010093689	1.0000779628753662
72	286.01537799835205	pulse	0	t		70.0	2.5	/experiments/AOT/AOT_stimuli/rescaled_final/1862_rv.mp4	0.0	309.09262800216675	
72	286.83192896842957	movie	1		245	70.0	2.5	/experiments/AOT/AOT_stimuli/rescaled_final/1862_rv.mp4	0.0	309.90917897224426	2.499876022338867
72	287.61534881591797	pulse	1	t		70.0	2.5	/experiments/AOT/AOT_stimuli/rescaled_final/1862_rv.mp4	0.0	310.69259881973267	
72	289.2148790359497	pulse	1	t		70.0	2.5	/experiments/AOT/AOT_stimuli/rescaled_final/1862_rv.mp4	0.0	312.2921290397644	
72	289.33180499076843	fix_post	2		12	70.0	2.5	/experiments/AOT/AOT_stimuli/rescaled_final/1862_rv.mp4	0.0	312.40905499458313	0.09999990463256836
73	289.431804895401	fix_pre	0		120	71.0	2.5	/experiments/AOT/AOT_stimuli/rescaled_final/1346_rv.mp4	0.0	312.5090548992157	0.999640941619873
73	290.4314458370209	movie	1		244	71.0	2.5	/experiments/AOT/AOT_stimuli/rescaled_final/1346_rv.mp4	0.0	313.50869584083557	2.5004920959472656
73	290.8157448768616	pulse	1	t		71.0	2.5	/experiments/AOT/AOT_stimuli/rescaled_final/1346_rv.mp4	0.0	313.89299488067627	
73	292.4153518676758	pulse	1	t		71.0	2.5	/experiments/AOT/AOT_stimuli/rescaled_final/1346_rv.mp4	0.0	315.4926018714905	
73	292.93193793296814	fix_post	2		12	71.0	2.5	/experiments/AOT/AOT_stimuli/rescaled_final/1346_rv.mp4	0.0	316.00918793678284	0.09990406036376953
74	293.0318419933319	fix_pre	0		119	72.0	2.5	/experiments/AOT/AOT_stimuli/rescaled_final/1844_rv.mp4	0.0	316.1090919971466	0.991631031036377
74	294.01525688171387	pulse	0	t		72.0	2.5	/experiments/AOT/AOT_stimuli/rescaled_final/1844_rv.mp4	0.0	317.09250688552856	
74	294.0234730243683	movie	1		247	72.0	2.5	/experiments/AOT/AOT_stimuli/rescaled_final/1844_rv.mp4	0.0	317.100723028183	2.508211851119995
74	295.62377095222473	pulse	1	t		72.0	2.5	/experiments/AOT/AOT_stimuli/rescaled_final/1844_rv.mp4	0.0	318.70102095603943	
74	296.5316848754883	fix_post	2		12	72.0	2.5	/experiments/AOT/AOT_stimuli/rescaled_final/1844_rv.mp4	0.0	319.608934879303	0.10010409355163574
75	296.6317889690399	fix_pre	0		120	73.0	2.5	/experiments/AOT/AOT_stimuli/rescaled_final/0104_rv.mp4	0.0	319.7090389728546	1.0000569820404053
75	297.2153069972992	pulse	0	t		73.0	2.5	/experiments/AOT/AOT_stimuli/rescaled_final/0104_rv.mp4	0.0	320.2925570011139	
75	297.6318459510803	movie	1		244	73.0	2.5	/experiments/AOT/AOT_stimuli/rescaled_final/0104_rv.mp4	0.0	320.709095954895	2.5000929832458496
75	298.81532096862793	pulse	1	t		73.0	2.5	/experiments/AOT/AOT_stimuli/rescaled_final/0104_rv.mp4	0.0	321.8925709724426	
75	300.1319389343262	fix_post	2		12	73.0	2.5	/experiments/AOT/AOT_stimuli/rescaled_final/0104_rv.mp4	0.0	323.20918893814087	0.09989309310913086
76	300.2318320274353	fix_pre	0		120	74.0	2.5	/experiments/AOT/AOT_stimuli/rescaled_final/1009_fw.mp4	0.0	323.30908203125	1.0000519752502441
76	300.4153368473053	pulse	0	t		74.0	2.5	/experiments/AOT/AOT_stimuli/rescaled_final/1009_fw.mp4	0.0	323.49258685112	
76	301.23188400268555	movie	1		245	74.0	2.5	/experiments/AOT/AOT_stimuli/rescaled_final/1009_fw.mp4	0.0	324.30913400650024	2.499830961227417
76	302.0153429508209	pulse	1	t		74.0	2.5	/experiments/AOT/AOT_stimuli/rescaled_final/1009_fw.mp4	0.0	325.0925929546356	
76	303.61540389060974	pulse	1	t		74.0	2.5	/experiments/AOT/AOT_stimuli/rescaled_final/1009_fw.mp4	0.0	326.69265389442444	
76	303.73171496391296	fix_post	2		12	74.0	2.5	/experiments/AOT/AOT_stimuli/rescaled_final/1009_fw.mp4	0.0	326.80896496772766	0.10001587867736816
77	303.83173084259033	fix_pre	0		120	75.0	2.5	/experiments/AOT/AOT_stimuli/rescaled_final/0842_rv.mp4	0.0	326.90898084640503	0.9999661445617676
77	304.8316969871521	movie	1		247	75.0	2.5	/experiments/AOT/AOT_stimuli/rescaled_final/0842_rv.mp4	0.0	327.9089469909668	2.500951051712036
77	305.21499586105347	pulse	1	t		75.0	2.5	/experiments/AOT/AOT_stimuli/rescaled_final/0842_rv.mp4	0.0	328.29224586486816	
77	306.8152389526367	pulse	1	t		75.0	2.5	/experiments/AOT/AOT_stimuli/rescaled_final/0842_rv.mp4	0.0	329.8924889564514	
77	307.33264803886414	fix_post	2		12	75.0	2.5	/experiments/AOT/AOT_stimuli/rescaled_final/0842_rv.mp4	0.0	330.40989804267883	0.0991067886352539
78	307.4317548274994	fix_pre	0		119	76.0	2.5	blank	1.0	330.5090048313141	0.9917252063751221
78	308.415246963501	pulse	0	t		76.0	2.5	blank	1.0	331.4924969673157	
78	308.4234800338745	movie	1		301	76.0	2.5	blank	1.0	331.5007300376892	2.508239984512329
78	310.0152978897095	pulse	1	t		76.0	2.5	blank	1.0	333.09254789352417	
78	310.93172001838684	fix_post	2		12	76.0	2.5	blank	1.0	334.00897002220154	0.10003995895385742
79	311.0317599773407	fix_pre	0		120	77.0	2.5	/experiments/AOT/AOT_stimuli/rescaled_final/2054_rv.mp4	0.0	334.1090099811554	0.9995489120483398
79	311.61521100997925	pulse	0	t		77.0	2.5	/experiments/AOT/AOT_stimuli/rescaled_final/2054_rv.mp4	0.0	334.69246101379395	
79	312.03130888938904	movie	1		245	77.0	2.5	/experiments/AOT/AOT_stimuli/rescaled_final/2054_rv.mp4	0.0	335.10855889320374	2.5004560947418213
79	313.21527194976807	pulse	1	t		77.0	2.5	/experiments/AOT/AOT_stimuli/rescaled_final/2054_rv.mp4	0.0	336.29252195358276	
79	314.53176498413086	fix_post	2		12	77.0	2.5	/experiments/AOT/AOT_stimuli/rescaled_final/2054_rv.mp4	0.0	337.60901498794556	0.09996604919433594
80	314.6317310333252	fix_pre	0		120	78.0	2.5	/experiments/AOT/AOT_stimuli/rescaled_final/0457_fw.mp4	0.0	337.7089810371399	1.0000557899475098
80	314.8153898715973	pulse	0	t		78.0	2.5	/experiments/AOT/AOT_stimuli/rescaled_final/0457_fw.mp4	0.0	337.892639875412	
80	315.6317868232727	movie	1		245	78.0	2.5	/experiments/AOT/AOT_stimuli/rescaled_final/0457_fw.mp4	0.0	338.7090368270874	2.4995720386505127
80	316.41520595550537	pulse	1	t		78.0	2.5	/experiments/AOT/AOT_stimuli/rescaled_final/0457_fw.mp4	0.0	339.49245595932007	
80	318.0150740146637	pulse	1	t		78.0	2.5	/experiments/AOT/AOT_stimuli/rescaled_final/0457_fw.mp4	0.0	341.0923240184784	
80	318.1313588619232	fix_post	2		12	78.0	2.5	/experiments/AOT/AOT_stimuli/rescaled_final/0457_fw.mp4	0.0	341.2086088657379	0.0999910831451416
81	318.23134994506836	fix_pre	0		120	79.0	2.5	/experiments/AOT/AOT_stimuli/rescaled_final/1296_rv.mp4	0.0	341.30859994888306	1.0001049041748047
81	319.23145484924316	movie	1		245	79.0	2.5	/experiments/AOT/AOT_stimuli/rescaled_final/1296_rv.mp4	0.0	342.30870485305786	2.499850034713745
81	319.615042924881	pulse	1	t		79.0	2.5	/experiments/AOT/AOT_stimuli/rescaled_final/1296_rv.mp4	0.0	342.6922929286957	
81	321.21515798568726	pulse	1	t		79.0	2.5	/experiments/AOT/AOT_stimuli/rescaled_final/1296_rv.mp4	0.0	344.29240798950195	
81	321.7313048839569	fix_post	2		12	79.0	2.5	/experiments/AOT/AOT_stimuli/rescaled_final/1296_rv.mp4	0.0	344.8085548877716	0.1004800796508789
82	321.8317849636078	fix_pre	0		119	80.0	2.5	/experiments/AOT/AOT_stimuli/rescaled_final/1424_rv.mp4	0.0	344.9090349674225	0.9916188716888428
82	322.81520891189575	pulse	0	t		80.0	2.5	/experiments/AOT/AOT_stimuli/rescaled_final/1424_rv.mp4	0.0	345.89245891571045	
82	322.82340383529663	movie	1		248	80.0	2.5	/experiments/AOT/AOT_stimuli/rescaled_final/1424_rv.mp4	0.0	345.9006538391113	2.5081911087036133
82	324.4147198200226	pulse	1	t		80.0	2.5	/experiments/AOT/AOT_stimuli/rescaled_final/1424_rv.mp4	0.0	347.4919698238373	
82	325.33159494400024	fix_post	2		12	80.0	2.5	/experiments/AOT/AOT_stimuli/rescaled_final/1424_rv.mp4	0.0	348.40884494781494	0.10021305084228516
83	325.43180799484253	fix_pre	0		120	81.0	2.5	/experiments/AOT/AOT_stimuli/rescaled_final/1289_fw.mp4	0.0	348.5090579986572	0.9998660087585449
83	326.0151150226593	pulse	0	t		81.0	2.5	/experiments/AOT/AOT_stimuli/rescaled_final/1289_fw.mp4	0.0	349.092365026474	
83	326.4316740036011	movie	1		246	81.0	2.5	/experiments/AOT/AOT_stimuli/rescaled_final/1289_fw.mp4	0.0	349.50892400741577	2.499950885772705
83	327.6152458190918	pulse	1	t		81.0	2.5	/experiments/AOT/AOT_stimuli/rescaled_final/1289_fw.mp4	0.0	350.6924958229065	
83	328.9316248893738	fix_post	2		12	81.0	2.5	/experiments/AOT/AOT_stimuli/rescaled_final/1289_fw.mp4	0.0	352.0088748931885	0.09999299049377441
84	329.03161787986755	fix_pre	0		120	82.0	2.5	/experiments/AOT/AOT_stimuli/rescaled_final/0697_fw.mp4	0.0	352.10886788368225	1.0000841617584229
84	329.21510195732117	pulse	0	t		82.0	2.5	/experiments/AOT/AOT_stimuli/rescaled_final/0697_fw.mp4	0.0	352.29235196113586	
84	330.031702041626	movie	1		246	82.0	2.5	/experiments/AOT/AOT_stimuli/rescaled_final/0697_fw.mp4	0.0	353.1089520454407	2.4999208450317383
84	330.81506991386414	pulse	1	t		82.0	2.5	/experiments/AOT/AOT_stimuli/rescaled_final/0697_fw.mp4	0.0	353.89231991767883	
84	332.4234969615936	pulse	1	t		82.0	2.5	/experiments/AOT/AOT_stimuli/rescaled_final/0697_fw.mp4	0.0	355.5007469654083	
84	332.5316228866577	fix_post	2		12	82.0	2.5	/experiments/AOT/AOT_stimuli/rescaled_final/0697_fw.mp4	0.0	355.6088728904724	0.10004115104675293
85	332.63166403770447	fix_pre	0		120	83.0	2.5	blank	1.0	355.70891404151917	0.9995889663696289
85	333.6312530040741	movie	1		300	83.0	2.5	blank	1.0	356.7085030078888	2.5005438327789307
85	334.015163898468	pulse	1	t		83.0	2.5	blank	1.0	357.0924139022827	
85	335.61506485939026	pulse	1	t		83.0	2.5	blank	1.0	358.69231486320496	
85	336.131796836853	fix_post	2		12	83.0	2.5	blank	1.0	359.2090468406677	0.09985208511352539
87	336.23164892196655	stim	0		1716					359.30889892578125	14.299952030181885
87	337.2151699066162	pulse	0	t						360.2924199104309	
87	338.8151090145111	pulse	0	t						361.8923590183258	
87	340.4150848388672	pulse	0	t						363.4923348426819	
87	342.0151379108429	pulse	0	t						365.0923879146576	
87	343.6150188446045	pulse	0	t						366.6922688484192	
87	345.21509289741516	pulse	0	t						368.29234290122986	
87	346.8150589466095	pulse	0	t						369.8923089504242	
87	348.4151339530945	pulse	0	t						371.4923839569092	
87	350.0150508880615	pulse	0	t						373.0923008918762	
