trial_nr	onset	event_type	phase	response	nr_frames	movie_index	movie_duration	movie_file	blank	onset_abs	duration
0	0.13327407836914062	stim	0		37					92.12618899345398	0.3082618713378906
0	0.4336059093475342	response	0	space						92.42652082443237	
1	0.44153594970703125	stim	0		6025					92.43445086479187	50.2165470123291
1	50.64679408073425	pulse	0	t						142.6397089958191	
1	50.65808296203613	stim	1		1716					142.65099787712097	14.299968004226685
1	52.241472005844116	pulse	1	t						144.23438692092896	
1	53.841569900512695	pulse	1	t						145.83448481559753	
1	55.441601037979126	pulse	1	t						147.43451595306396	
1	57.04157900810242	pulse	1	t						149.03449392318726	
1	58.641520977020264	pulse	1	t						150.6344358921051	
1	60.241578102111816	pulse	1	t						152.23449301719666	
1	61.842395067214966	pulse	1	t						153.8353099822998	
1	63.44144797325134	pulse	1	t						155.43436288833618	
2	64.95805096626282	fix_pre	0		11	0.0	2.5	/experiments/AOT/AOT_stimuli/rescaled_final/0900_rv.mp4	0.0	156.95096588134766	0.09166502952575684
2	65.04151201248169	pulse	0	t		0.0	2.5	/experiments/AOT/AOT_stimuli/rescaled_final/0900_rv.mp4	0.0	157.03442692756653	
2	65.04971599578857	movie	1		245	0.0	2.5	/experiments/AOT/AOT_stimuli/rescaled_final/0900_rv.mp4	0.0	157.0426309108734	2.5082180500030518
2	66.64135003089905	pulse	1	t		0.0	2.5	/experiments/AOT/AOT_stimuli/rescaled_final/0900_rv.mp4	0.0	158.6342649459839	
2	67.55793404579163	fix_post	2		12	0.0	2.5	/experiments/AOT/AOT_stimuli/rescaled_final/0900_rv.mp4	0.0	159.55084896087646	0.10002398490905762
3	67.65795803070068	fix_pre	0		120	1.0	2.5	/experiments/AOT/AOT_stimuli/rescaled_final/0086_rv.mp4	0.0	159.65087294578552	0.9999940395355225
3	68.24150800704956	pulse	0	t		1.0	2.5	/experiments/AOT/AOT_stimuli/rescaled_final/0086_rv.mp4	0.0	160.2344229221344	
3	68.6579520702362	movie	1		242	1.0	2.5	/experiments/AOT/AOT_stimuli/rescaled_final/0086_rv.mp4	0.0	160.65086698532104	2.500032901763916
3	69.84151697158813	pulse	1	t		1.0	2.5	/experiments/AOT/AOT_stimuli/rescaled_final/0086_rv.mp4	0.0	161.83443188667297	
3	71.15798497200012	fix_post	2		12	1.0	2.5	/experiments/AOT/AOT_stimuli/rescaled_final/0086_rv.mp4	0.0	163.15089988708496	0.10000014305114746
4	71.25798511505127	fix_pre	0		120	2.0	2.5	/experiments/AOT/AOT_stimuli/rescaled_final/0003_rv.mp4	0.0	163.2509000301361	1.0000629425048828
4	71.44153189659119	pulse	0	t		2.0	2.5	/experiments/AOT/AOT_stimuli/rescaled_final/0003_rv.mp4	0.0	163.43444681167603	
4	72.25804805755615	movie	1		246	2.0	2.5	/experiments/AOT/AOT_stimuli/rescaled_final/0003_rv.mp4	0.0	164.250962972641	2.4996259212493896
4	73.04095911979675	pulse	1	t		2.0	2.5	/experiments/AOT/AOT_stimuli/rescaled_final/0003_rv.mp4	0.0	165.0338740348816	
4	74.64125990867615	pulse	1	t		2.0	2.5	/experiments/AOT/AOT_stimuli/rescaled_final/0003_rv.mp4	0.0	166.634174823761	
4	74.75767397880554	fix_post	2		12	2.0	2.5	/experiments/AOT/AOT_stimuli/rescaled_final/0003_rv.mp4	0.0	166.75058889389038	0.09995508193969727
5	74.85762906074524	fix_pre	0		120	3.0	2.5	/experiments/AOT/AOT_stimuli/rescaled_final/1179_rv.mp4	0.0	166.85054397583008	1.0006320476531982
5	75.85826110839844	movie	1		246	3.0	2.5	/experiments/AOT/AOT_stimuli/rescaled_final/1179_rv.mp4	0.0	167.85117602348328	2.499255895614624
5	76.2408800125122	pulse	1	t		3.0	2.5	/experiments/AOT/AOT_stimuli/rescaled_final/1179_rv.mp4	0.0	168.23379492759705	
5	77.84136009216309	pulse	1	t		3.0	2.5	/experiments/AOT/AOT_stimuli/rescaled_final/1179_rv.mp4	0.0	169.83427500724792	
5	78.35751700401306	fix_post	2		12	3.0	2.5	/experiments/AOT/AOT_stimuli/rescaled_final/1179_rv.mp4	0.0	170.3504319190979	0.10048794746398926
6	78.45800495147705	fix_pre	0		120	4.0	2.5	/experiments/AOT/AOT_stimuli/rescaled_final/1446_rv.mp4	0.0	170.4509198665619	1.0000231266021729
6	79.44224905967712	pulse	0	t		4.0	2.5	/experiments/AOT/AOT_stimuli/rescaled_final/1446_rv.mp4	0.0	171.43516397476196	
6	79.45802807807922	movie	1		245	4.0	2.5	/experiments/AOT/AOT_stimuli/rescaled_final/1446_rv.mp4	0.0	171.45094299316406	2.508201837539673
6	81.0413908958435	pulse	1	t		4.0	2.5	/experiments/AOT/AOT_stimuli/rescaled_final/1446_rv.mp4	0.0	173.03430581092834	
6	81.9662299156189	fix_post	2		12	4.0	2.5	/experiments/AOT/AOT_stimuli/rescaled_final/1446_rv.mp4	0.0	173.95914483070374	0.10001301765441895
7	82.06624293327332	fix_pre	0		120	5.0	2.5	/experiments/AOT/AOT_stimuli/rescaled_final/0066_rv.mp4	0.0	174.05915784835815	1.0000190734863281
7	82.64134311676025	pulse	0	t		5.0	2.5	/experiments/AOT/AOT_stimuli/rescaled_final/0066_rv.mp4	0.0	174.6342580318451	
7	83.06626200675964	movie	1		246	5.0	2.5	/experiments/AOT/AOT_stimuli/rescaled_final/0066_rv.mp4	0.0	175.05917692184448	2.499569892883301
7	84.2497079372406	pulse	1	t		5.0	2.5	/experiments/AOT/AOT_stimuli/rescaled_final/0066_rv.mp4	0.0	176.24262285232544	
7	85.56583189964294	fix_post	2		12	5.0	2.5	/experiments/AOT/AOT_stimuli/rescaled_final/0066_rv.mp4	0.0	177.55874681472778	0.10034918785095215
8	85.6661810874939	fix_pre	0		120	6.0	2.5	blank	1.0	177.65909600257874	1.00003981590271
8	85.84137892723083	pulse	0	t		6.0	2.5	blank	1.0	177.83429384231567	
8	86.6662209033966	movie	1		300	6.0	2.5	blank	1.0	178.65913581848145	2.4999852180480957
8	87.44131207466125	pulse	1	t		6.0	2.5	blank	1.0	179.4342269897461	
8	89.04132103919983	pulse	1	t		6.0	2.5	blank	1.0	181.03423595428467	
8	89.1662061214447	fix_post	2		12	6.0	2.5	blank	1.0	181.15912103652954	0.10003876686096191
9	89.26624488830566	fix_pre	0		120	7.0	2.5	/experiments/AOT/AOT_stimuli/rescaled_final/1443_rv.mp4	0.0	181.2591598033905	0.9996111392974854
9	90.26585602760315	movie	1		244	7.0	2.5	/experiments/AOT/AOT_stimuli/rescaled_final/1443_rv.mp4	0.0	182.258770942688	2.5003108978271484
9	90.64129996299744	pulse	1	t		7.0	2.5	/experiments/AOT/AOT_stimuli/rescaled_final/1443_rv.mp4	0.0	182.63421487808228	
9	92.24144506454468	pulse	1	t		7.0	2.5	/experiments/AOT/AOT_stimuli/rescaled_final/1443_rv.mp4	0.0	184.23435997962952	
9	92.7661669254303	fix_post	2		12	7.0	2.5	/experiments/AOT/AOT_stimuli/rescaled_final/1443_rv.mp4	0.0	184.75908184051514	0.09964108467102051
10	92.86580801010132	fix_pre	0		119	8.0	2.5	/experiments/AOT/AOT_stimuli/rescaled_final/0636_rv.mp4	0.0	184.85872292518616	0.9920699596405029
10	93.84217500686646	pulse	0	t		8.0	2.5	/experiments/AOT/AOT_stimuli/rescaled_final/0636_rv.mp4	0.0	185.8350899219513	
10	93.85787796974182	movie	1		247	8.0	2.5	/experiments/AOT/AOT_stimuli/rescaled_final/0636_rv.mp4	0.0	185.85079288482666	2.508265972137451
10	95.44915103912354	pulse	1	t		8.0	2.5	/experiments/AOT/AOT_stimuli/rescaled_final/0636_rv.mp4	0.0	187.44206595420837	
10	96.36614394187927	fix_post	2		12	8.0	2.5	/experiments/AOT/AOT_stimuli/rescaled_final/0636_rv.mp4	0.0	188.3590588569641	0.10012602806091309
11	96.46626996994019	fix_pre	0		120	9.0	2.5	/experiments/AOT/AOT_stimuli/rescaled_final/0281_fw.mp4	0.0	188.45918488502502	1.0000109672546387
11	97.04217290878296	pulse	0	t		9.0	2.5	/experiments/AOT/AOT_stimuli/rescaled_final/0281_fw.mp4	0.0	189.0350878238678	
11	97.46628093719482	movie	1		246	9.0	2.5	/experiments/AOT/AOT_stimuli/rescaled_final/0281_fw.mp4	0.0	189.45919585227966	2.4999630451202393
11	98.6424069404602	pulse	1	t		9.0	2.5	/experiments/AOT/AOT_stimuli/rescaled_final/0281_fw.mp4	0.0	190.63532185554504	
11	99.96624398231506	fix_post	2		12	9.0	2.5	/experiments/AOT/AOT_stimuli/rescaled_final/0281_fw.mp4	0.0	191.9591588973999	0.09989094734191895
12	100.06613492965698	fix_pre	0		120	10.0	2.5	/experiments/AOT/AOT_stimuli/rescaled_final/1708_fw.mp4	0.0	192.05904984474182	1.000072956085205
12	100.24141907691956	pulse	0	t		10.0	2.5	/experiments/AOT/AOT_stimuli/rescaled_final/1708_fw.mp4	0.0	192.2343339920044	
12	101.06620788574219	movie	1		246	10.0	2.5	/experiments/AOT/AOT_stimuli/rescaled_final/1708_fw.mp4	0.0	193.05912280082703	2.5000381469726562
12	101.84146904945374	pulse	1	t		10.0	2.5	/experiments/AOT/AOT_stimuli/rescaled_final/1708_fw.mp4	0.0	193.83438396453857	
12	103.4413480758667	pulse	1	t		10.0	2.5	/experiments/AOT/AOT_stimuli/rescaled_final/1708_fw.mp4	0.0	195.43426299095154	
12	103.56624603271484	fix_post	2		12	10.0	2.5	/experiments/AOT/AOT_stimuli/rescaled_final/1708_fw.mp4	0.0	195.55916094779968	0.09996485710144043
13	103.66621088981628	fix_pre	0		120	11.0	2.5	/experiments/AOT/AOT_stimuli/rescaled_final/0979_rv.mp4	0.0	195.65912580490112	0.9999890327453613
13	104.66619992256165	movie	1		245	11.0	2.5	/experiments/AOT/AOT_stimuli/rescaled_final/0979_rv.mp4	0.0	196.65911483764648	2.499927043914795
13	105.04131507873535	pulse	1	t		11.0	2.5	/experiments/AOT/AOT_stimuli/rescaled_final/0979_rv.mp4	0.0	197.0342299938202	
13	106.64137005805969	pulse	1	t		11.0	2.5	/experiments/AOT/AOT_stimuli/rescaled_final/0979_rv.mp4	0.0	198.63428497314453	
13	107.16612696647644	fix_post	2		12	11.0	2.5	/experiments/AOT/AOT_stimuli/rescaled_final/0979_rv.mp4	0.0	199.15904188156128	0.09999799728393555
14	107.26612496376038	fix_pre	0		118	12.0	2.5	blank	1.0	199.25903987884521	0.9833741188049316
14	108.2413330078125	pulse	0	t		12.0	2.5	blank	1.0	200.23424792289734	
14	108.24949908256531	movie	1		301	12.0	2.5	blank	1.0	200.24241399765015	2.5078959465026855
14	109.84208393096924	pulse	1	t		12.0	2.5	blank	1.0	201.83499884605408	
14	110.757395029068	fix_post	2		12	12.0	2.5	blank	1.0	202.75030994415283	0.10033607482910156
15	110.8577311038971	fix_pre	0		120	13.0	2.5	/experiments/AOT/AOT_stimuli/rescaled_final/2071_fw.mp4	0.0	202.85064601898193	1.0001049041748047
15	111.44214701652527	pulse	0	t		13.0	2.5	/experiments/AOT/AOT_stimuli/rescaled_final/2071_fw.mp4	0.0	203.4350619316101	
15	111.8578360080719	movie	1		244	13.0	2.5	/experiments/AOT/AOT_stimuli/rescaled_final/2071_fw.mp4	0.0	203.85075092315674	2.4999148845672607
15	113.04222297668457	pulse	1	t		13.0	2.5	/experiments/AOT/AOT_stimuli/rescaled_final/2071_fw.mp4	0.0	205.0351378917694	
15	114.35775089263916	fix_post	2		12	13.0	2.5	/experiments/AOT/AOT_stimuli/rescaled_final/2071_fw.mp4	0.0	206.350665807724	0.10011100769042969
16	114.45786190032959	fix_pre	0		120	14.0	2.5	/experiments/AOT/AOT_stimuli/rescaled_final/1732_rv.mp4	0.0	206.45077681541443	0.9998941421508789
16	114.64209699630737	pulse	0	t		14.0	2.5	/experiments/AOT/AOT_stimuli/rescaled_final/1732_rv.mp4	0.0	206.6350119113922	
16	115.45775604248047	movie	1		245	14.0	2.5	/experiments/AOT/AOT_stimuli/rescaled_final/1732_rv.mp4	0.0	207.4506709575653	2.500011920928955
16	116.2413330078125	pulse	1	t		14.0	2.5	/experiments/AOT/AOT_stimuli/rescaled_final/1732_rv.mp4	0.0	208.23424792289734	
16	117.84168791770935	pulse	1	t		14.0	2.5	/experiments/AOT/AOT_stimuli/rescaled_final/1732_rv.mp4	0.0	209.8346028327942	
16	117.95776796340942	fix_post	2		12	14.0	2.5	/experiments/AOT/AOT_stimuli/rescaled_final/1732_rv.mp4	0.0	209.95068287849426	0.10001397132873535
17	118.05778193473816	fix_pre	0		120	15.0	2.5	/experiments/AOT/AOT_stimuli/rescaled_final/0220_fw.mp4	0.0	210.050696849823	0.9995341300964355
17	119.0573160648346	movie	1		244	15.0	2.5	/experiments/AOT/AOT_stimuli/rescaled_final/0220_fw.mp4	0.0	211.05023097991943	2.500048875808716
17	119.4421980381012	pulse	1	t		15.0	2.5	/experiments/AOT/AOT_stimuli/rescaled_final/0220_fw.mp4	0.0	211.43511295318604	
17	121.04126811027527	pulse	1	t		15.0	2.5	/experiments/AOT/AOT_stimuli/rescaled_final/0220_fw.mp4	0.0	213.0341830253601	
17	121.55736494064331	fix_post	2		12	15.0	2.5	/experiments/AOT/AOT_stimuli/rescaled_final/0220_fw.mp4	0.0	213.55027985572815	0.10037803649902344
18	121.65774297714233	fix_pre	0		119	16.0	2.5	/experiments/AOT/AOT_stimuli/rescaled_final/0319_fw.mp4	0.0	213.65065789222717	0.9917240142822266
18	122.64129209518433	pulse	0	t		16.0	2.5	/experiments/AOT/AOT_stimuli/rescaled_final/0319_fw.mp4	0.0	214.63420701026917	
18	122.64946699142456	movie	1		244	16.0	2.5	/experiments/AOT/AOT_stimuli/rescaled_final/0319_fw.mp4	0.0	214.6423819065094	2.5083799362182617
18	124.24967193603516	pulse	1	t		16.0	2.5	/experiments/AOT/AOT_stimuli/rescaled_final/0319_fw.mp4	0.0	216.24258685112	
18	125.15784692764282	fix_post	2		12	16.0	2.5	/experiments/AOT/AOT_stimuli/rescaled_final/0319_fw.mp4	0.0	217.15076184272766	0.09990906715393066
19	125.25775599479675	fix_pre	0		120	17.0	2.5	/experiments/AOT/AOT_stimuli/rescaled_final/1524_rv.mp4	0.0	217.2506709098816	0.9999730587005615
19	125.84127497673035	pulse	0	t		17.0	2.5	/experiments/AOT/AOT_stimuli/rescaled_final/1524_rv.mp4	0.0	217.83418989181519	
19	126.25772905349731	movie	1		244	17.0	2.5	/experiments/AOT/AOT_stimuli/rescaled_final/1524_rv.mp4	0.0	218.25064396858215	2.5001988410949707
19	127.44287395477295	pulse	1	t		17.0	2.5	/experiments/AOT/AOT_stimuli/rescaled_final/1524_rv.mp4	0.0	219.4357888698578	
19	128.75792789459229	fix_post	2		12	17.0	2.5	/experiments/AOT/AOT_stimuli/rescaled_final/1524_rv.mp4	0.0	220.75084280967712	0.09982013702392578
20	128.8577480316162	fix_pre	0		120	18.0	2.5	/experiments/AOT/AOT_stimuli/rescaled_final/1155_fw.mp4	0.0	220.85066294670105	0.9997110366821289
20	129.04163908958435	pulse	0	t		18.0	2.5	/experiments/AOT/AOT_stimuli/rescaled_final/1155_fw.mp4	0.0	221.0345540046692	
20	129.85745906829834	movie	1		245	18.0	2.5	/experiments/AOT/AOT_stimuli/rescaled_final/1155_fw.mp4	0.0	221.85037398338318	2.5002269744873047
20	130.64172196388245	pulse	1	t		18.0	2.5	/experiments/AOT/AOT_stimuli/rescaled_final/1155_fw.mp4	0.0	222.63463687896729	
20	132.2495150566101	pulse	1	t		18.0	2.5	/experiments/AOT/AOT_stimuli/rescaled_final/1155_fw.mp4	0.0	224.24242997169495	
20	132.35768604278564	fix_post	2		12	18.0	2.5	/experiments/AOT/AOT_stimuli/rescaled_final/1155_fw.mp4	0.0	224.35060095787048	0.10001802444458008
21	132.45770406723022	fix_pre	0		120	19.0	2.5	/experiments/AOT/AOT_stimuli/rescaled_final/0483_fw.mp4	0.0	224.45061898231506	1.0000219345092773
21	133.4577260017395	movie	1		245	19.0	2.5	/experiments/AOT/AOT_stimuli/rescaled_final/0483_fw.mp4	0.0	225.45064091682434	2.5000998973846436
21	133.8495969772339	pulse	1	t		19.0	2.5	/experiments/AOT/AOT_stimuli/rescaled_final/0483_fw.mp4	0.0	225.84251189231873	
21	135.4412019252777	pulse	1	t		19.0	2.5	/experiments/AOT/AOT_stimuli/rescaled_final/0483_fw.mp4	0.0	227.43411684036255	
21	135.95782589912415	fix_post	2		12	19.0	2.5	/experiments/AOT/AOT_stimuli/rescaled_final/0483_fw.mp4	0.0	227.95074081420898	0.09989309310913086
22	136.05771899223328	fix_pre	0		119	20.0	2.5	/experiments/AOT/AOT_stimuli/rescaled_final/0227_fw.mp4	0.0	228.05063390731812	0.9915990829467773
22	137.04108810424805	pulse	0	t		20.0	2.5	/experiments/AOT/AOT_stimuli/rescaled_final/0227_fw.mp4	0.0	229.03400301933289	
22	137.04931807518005	movie	1		244	20.0	2.5	/experiments/AOT/AOT_stimuli/rescaled_final/0227_fw.mp4	0.0	229.0422329902649	2.5083370208740234
22	138.641184091568	pulse	1	t		20.0	2.5	/experiments/AOT/AOT_stimuli/rescaled_final/0227_fw.mp4	0.0	230.63409900665283	
22	139.55765509605408	fix_post	2		12	20.0	2.5	/experiments/AOT/AOT_stimuli/rescaled_final/0227_fw.mp4	0.0	231.55057001113892	0.1000208854675293
23	139.6576759815216	fix_pre	0		120	21.0	2.5	blank	1.0	231.65059089660645	1.0000030994415283
23	140.24113297462463	pulse	0	t		21.0	2.5	blank	1.0	232.23404788970947	
23	140.65767908096313	movie	1		300	21.0	2.5	blank	1.0	232.65059399604797	2.4999008178710938
23	141.8411250114441	pulse	1	t		21.0	2.5	blank	1.0	233.83403992652893	
23	143.15757989883423	fix_post	2		12	21.0	2.5	blank	1.0	235.15049481391907	0.09965705871582031
24	143.25723695755005	fix_pre	0		120	22.0	2.5	/experiments/AOT/AOT_stimuli/rescaled_final/1723_fw.mp4	0.0	235.2501518726349	1.0004050731658936
24	143.4419310092926	pulse	0	t		22.0	2.5	/experiments/AOT/AOT_stimuli/rescaled_final/1723_fw.mp4	0.0	235.43484592437744	
24	144.25764203071594	movie	1		244	22.0	2.5	/experiments/AOT/AOT_stimuli/rescaled_final/1723_fw.mp4	0.0	236.25055694580078	2.4999399185180664
24	145.04203295707703	pulse	1	t		22.0	2.5	/experiments/AOT/AOT_stimuli/rescaled_final/1723_fw.mp4	0.0	237.03494787216187	
24	146.6496090888977	pulse	1	t		22.0	2.5	/experiments/AOT/AOT_stimuli/rescaled_final/1723_fw.mp4	0.0	238.64252400398254	
24	146.757581949234	fix_post	2		12	22.0	2.5	/experiments/AOT/AOT_stimuli/rescaled_final/1723_fw.mp4	0.0	238.75049686431885	0.09999513626098633
25	146.857577085495	fix_pre	0		120	23.0	2.5	/experiments/AOT/AOT_stimuli/rescaled_final/1443_fw.mp4	0.0	238.85049200057983	1.0001158714294434
25	147.85769295692444	movie	1		245	23.0	2.5	/experiments/AOT/AOT_stimuli/rescaled_final/1443_fw.mp4	0.0	239.85060787200928	2.4999301433563232
25	148.24951195716858	pulse	1	t		23.0	2.5	/experiments/AOT/AOT_stimuli/rescaled_final/1443_fw.mp4	0.0	240.24242687225342	
25	149.84202003479004	pulse	1	t		23.0	2.5	/experiments/AOT/AOT_stimuli/rescaled_final/1443_fw.mp4	0.0	241.83493494987488	
25	150.35762310028076	fix_post	2		12	23.0	2.5	/experiments/AOT/AOT_stimuli/rescaled_final/1443_fw.mp4	0.0	242.3505380153656	0.10001897811889648
26	150.45764207839966	fix_pre	0		119	24.0	2.5	/experiments/AOT/AOT_stimuli/rescaled_final/0799_rv.mp4	0.0	242.4505569934845	0.9917399883270264
26	151.44118094444275	pulse	0	t		24.0	2.5	/experiments/AOT/AOT_stimuli/rescaled_final/0799_rv.mp4	0.0	243.4340958595276	
26	151.44938206672668	movie	1		244	24.0	2.5	/experiments/AOT/AOT_stimuli/rescaled_final/0799_rv.mp4	0.0	243.44229698181152	2.5077970027923584
26	153.0494921207428	pulse	1	t		24.0	2.5	/experiments/AOT/AOT_stimuli/rescaled_final/0799_rv.mp4	0.0	245.04240703582764	
26	153.95717906951904	fix_post	2		12	24.0	2.5	/experiments/AOT/AOT_stimuli/rescaled_final/0799_rv.mp4	0.0	245.95009398460388	0.09999489784240723
27	154.05717396736145	fix_pre	0		120	25.0	2.5	/experiments/AOT/AOT_stimuli/rescaled_final/1337_fw.mp4	0.0	246.0500888824463	1.0005221366882324
27	154.64108991622925	pulse	0	t		25.0	2.5	/experiments/AOT/AOT_stimuli/rescaled_final/1337_fw.mp4	0.0	246.6340048313141	
27	155.05769610404968	movie	1		243	25.0	2.5	/experiments/AOT/AOT_stimuli/rescaled_final/1337_fw.mp4	0.0	247.05061101913452	2.4999380111694336
27	156.24116802215576	pulse	1	t		25.0	2.5	/experiments/AOT/AOT_stimuli/rescaled_final/1337_fw.mp4	0.0	248.2340829372406	
27	157.55763411521912	fix_post	2		12	25.0	2.5	/experiments/AOT/AOT_stimuli/rescaled_final/1337_fw.mp4	0.0	249.55054903030396	0.09995889663696289
28	157.65759301185608	fix_pre	0		120	26.0	2.5	blank	1.0	249.65050792694092	0.9995520114898682
28	157.84105491638184	pulse	0	t		26.0	2.5	blank	1.0	249.83396983146667	
28	158.65714502334595	movie	1		300	26.0	2.5	blank	1.0	250.6500599384308	2.50042986869812
28	159.44193291664124	pulse	1	t		26.0	2.5	blank	1.0	251.43484783172607	
28	161.04191303253174	pulse	1	t		26.0	2.5	blank	1.0	253.03482794761658	
28	161.15757489204407	fix_post	2		12	26.0	2.5	blank	1.0	253.1504898071289	0.10004401206970215
29	161.25761890411377	fix_pre	0		120	27.0	2.5	/experiments/AOT/AOT_stimuli/rescaled_final/0103_rv.mp4	0.0	253.2505338191986	0.9995331764221191
29	162.2571520805359	movie	1		245	27.0	2.5	/experiments/AOT/AOT_stimuli/rescaled_final/0103_rv.mp4	0.0	254.25006699562073	2.5004079341888428
29	162.6495440006256	pulse	1	t		27.0	2.5	/experiments/AOT/AOT_stimuli/rescaled_final/0103_rv.mp4	0.0	254.64245891571045	
29	164.2420210838318	pulse	1	t		27.0	2.5	/experiments/AOT/AOT_stimuli/rescaled_final/0103_rv.mp4	0.0	256.2349359989166	
29	164.75756001472473	fix_post	2		12	27.0	2.5	/experiments/AOT/AOT_stimuli/rescaled_final/0103_rv.mp4	0.0	256.75047492980957	0.09963107109069824
30	164.85719108581543	fix_pre	0		120	28.0	2.5	/experiments/AOT/AOT_stimuli/rescaled_final/1822_fw.mp4	0.0	256.85010600090027	1.000485897064209
30	165.84184002876282	pulse	0	t		28.0	2.5	/experiments/AOT/AOT_stimuli/rescaled_final/1822_fw.mp4	0.0	257.83475494384766	
30	165.85767698287964	movie	1		245	28.0	2.5	/experiments/AOT/AOT_stimuli/rescaled_final/1822_fw.mp4	0.0	257.8505918979645	2.5077669620513916
30	167.44920301437378	pulse	1	t		28.0	2.5	/experiments/AOT/AOT_stimuli/rescaled_final/1822_fw.mp4	0.0	259.4421179294586	
30	168.36544394493103	fix_post	2		12	28.0	2.5	/experiments/AOT/AOT_stimuli/rescaled_final/1822_fw.mp4	0.0	260.35835886001587	0.10036396980285645
31	168.4658079147339	fix_pre	0		120	29.0	2.5	/experiments/AOT/AOT_stimuli/rescaled_final/0619_rv.mp4	0.0	260.4587228298187	0.9996721744537354
31	169.0418040752411	pulse	0	t		29.0	2.5	/experiments/AOT/AOT_stimuli/rescaled_final/0619_rv.mp4	0.0	261.0347189903259	
31	169.46548008918762	movie	1		244	29.0	2.5	/experiments/AOT/AOT_stimuli/rescaled_final/0619_rv.mp4	0.0	261.45839500427246	2.5003578662872314
31	170.64947199821472	pulse	1	t		29.0	2.5	/experiments/AOT/AOT_stimuli/rescaled_final/0619_rv.mp4	0.0	262.64238691329956	
31	171.96583795547485	fix_post	2		12	29.0	2.5	/experiments/AOT/AOT_stimuli/rescaled_final/0619_rv.mp4	0.0	263.9587528705597	0.10002613067626953
32	172.06586408615112	fix_pre	0		120	30.0	2.5	/experiments/AOT/AOT_stimuli/rescaled_final/0911_fw.mp4	0.0	264.05877900123596	1.0000169277191162
32	172.24106192588806	pulse	0	t		30.0	2.5	/experiments/AOT/AOT_stimuli/rescaled_final/0911_fw.mp4	0.0	264.2339768409729	
32	173.06588101387024	movie	1		244	30.0	2.5	/experiments/AOT/AOT_stimuli/rescaled_final/0911_fw.mp4	0.0	265.0587959289551	2.4995670318603516
32	173.8410189151764	pulse	1	t		30.0	2.5	/experiments/AOT/AOT_stimuli/rescaled_final/0911_fw.mp4	0.0	265.83393383026123	
32	175.44806003570557	pulse	1	t		30.0	2.5	/experiments/AOT/AOT_stimuli/rescaled_final/0911_fw.mp4	0.0	267.4409749507904	
32	175.5654480457306	fix_post	2		12	30.0	2.5	/experiments/AOT/AOT_stimuli/rescaled_final/0911_fw.mp4	0.0	267.55836296081543	0.10041284561157227
33	175.66586089134216	fix_pre	0		120	31.0	2.5	/experiments/AOT/AOT_stimuli/rescaled_final/0154_rv.mp4	0.0	267.658775806427	1.000002145767212
33	176.66586303710938	movie	1		245	31.0	2.5	/experiments/AOT/AOT_stimuli/rescaled_final/0154_rv.mp4	0.0	268.6587779521942	2.500025987625122
33	177.04934406280518	pulse	1	t		31.0	2.5	/experiments/AOT/AOT_stimuli/rescaled_final/0154_rv.mp4	0.0	269.04225897789	
33	178.64201402664185	pulse	1	t		31.0	2.5	/experiments/AOT/AOT_stimuli/rescaled_final/0154_rv.mp4	0.0	270.6349289417267	
33	179.1658890247345	fix_post	2		12	31.0	2.5	/experiments/AOT/AOT_stimuli/rescaled_final/0154_rv.mp4	0.0	271.15880393981934	0.09989309310913086
34	179.26578211784363	fix_pre	0		119	32.0	2.5	/experiments/AOT/AOT_stimuli/rescaled_final/1484_rv.mp4	0.0	271.25869703292847	0.9916739463806152
34	180.241770029068	pulse	0	t		32.0	2.5	/experiments/AOT/AOT_stimuli/rescaled_final/1484_rv.mp4	0.0	272.23468494415283	
34	180.25745606422424	movie	1		243	32.0	2.5	/experiments/AOT/AOT_stimuli/rescaled_final/1484_rv.mp4	0.0	272.2503709793091	2.5084099769592285
34	181.8504250049591	pulse	1	t		32.0	2.5	/experiments/AOT/AOT_stimuli/rescaled_final/1484_rv.mp4	0.0	273.84333992004395	
34	182.76586604118347	fix_post	2		12	32.0	2.5	/experiments/AOT/AOT_stimuli/rescaled_final/1484_rv.mp4	0.0	274.7587809562683	0.10006499290466309
35	182.86593103408813	fix_pre	0		120	33.0	2.5	blank	1.0	274.858845949173	1.000148057937622
35	183.44178199768066	pulse	0	t		33.0	2.5	blank	1.0	275.4346969127655	
35	183.86607909202576	movie	1		300	33.0	2.5	blank	1.0	275.8589940071106	2.49983286857605
35	185.04143810272217	pulse	1	t		33.0	2.5	blank	1.0	277.034353017807	
35	186.3659119606018	fix_post	2		12	33.0	2.5	blank	1.0	278.35882687568665	0.09957313537597656
36	186.46548509597778	fix_pre	0		120	34.0	2.5	/experiments/AOT/AOT_stimuli/rescaled_final/1723_rv.mp4	0.0	278.4584000110626	1.0005478858947754
36	186.6415069103241	pulse	0	t		34.0	2.5	/experiments/AOT/AOT_stimuli/rescaled_final/1723_rv.mp4	0.0	278.63442182540894	
36	187.46603298187256	movie	1		243	34.0	2.5	/experiments/AOT/AOT_stimuli/rescaled_final/1723_rv.mp4	0.0	279.4589478969574	2.499819040298462
36	188.24190092086792	pulse	1	t		34.0	2.5	/experiments/AOT/AOT_stimuli/rescaled_final/1723_rv.mp4	0.0	280.23481583595276	
36	189.84100008010864	pulse	1	t		34.0	2.5	/experiments/AOT/AOT_stimuli/rescaled_final/1723_rv.mp4	0.0	281.8339149951935	
36	189.96585202217102	fix_post	2		12	34.0	2.5	/experiments/AOT/AOT_stimuli/rescaled_final/1723_rv.mp4	0.0	281.95876693725586	0.09989500045776367
37	190.06574702262878	fix_pre	0		120	35.0	2.5	/experiments/AOT/AOT_stimuli/rescaled_final/1382_rv.mp4	0.0	282.0586619377136	1.0000579357147217
37	191.0658049583435	movie	1		245	35.0	2.5	/experiments/AOT/AOT_stimuli/rescaled_final/1382_rv.mp4	0.0	283.05871987342834	2.500002145767212
37	191.4487760066986	pulse	1	t		35.0	2.5	/experiments/AOT/AOT_stimuli/rescaled_final/1382_rv.mp4	0.0	283.44169092178345	
37	193.04180312156677	pulse	1	t		35.0	2.5	/experiments/AOT/AOT_stimuli/rescaled_final/1382_rv.mp4	0.0	285.0347180366516	
37	193.56580710411072	fix_post	2		12	35.0	2.5	/experiments/AOT/AOT_stimuli/rescaled_final/1382_rv.mp4	0.0	285.55872201919556	0.09957098960876465
38	193.66537809371948	fix_pre	0		119	36.0	2.5	/experiments/AOT/AOT_stimuli/rescaled_final/1572_rv.mp4	0.0	285.6582930088043	0.9920718669891357
38	194.6417899131775	pulse	0	t		36.0	2.5	/experiments/AOT/AOT_stimuli/rescaled_final/1572_rv.mp4	0.0	286.63470482826233	
38	194.65744996070862	movie	1		245	36.0	2.5	/experiments/AOT/AOT_stimuli/rescaled_final/1572_rv.mp4	0.0	286.65036487579346	2.508060932159424
38	196.25029802322388	pulse	1	t		36.0	2.5	/experiments/AOT/AOT_stimuli/rescaled_final/1572_rv.mp4	0.0	288.2432129383087	
38	197.16551089286804	fix_post	2		12	36.0	2.5	/experiments/AOT/AOT_stimuli/rescaled_final/1572_rv.mp4	0.0	289.1584258079529	0.10021114349365234
39	197.2657220363617	fix_pre	0		120	37.0	2.5	/experiments/AOT/AOT_stimuli/rescaled_final/1507_rv.mp4	0.0	289.25863695144653	1.0000720024108887
39	197.84173011779785	pulse	0	t		37.0	2.5	/experiments/AOT/AOT_stimuli/rescaled_final/1507_rv.mp4	0.0	289.8346450328827	
39	198.26579403877258	movie	1		245	37.0	2.5	/experiments/AOT/AOT_stimuli/rescaled_final/1507_rv.mp4	0.0	290.2587089538574	2.499526023864746
39	199.44197010993958	pulse	1	t		37.0	2.5	/experiments/AOT/AOT_stimuli/rescaled_final/1507_rv.mp4	0.0	291.4348850250244	
39	200.76532006263733	fix_post	2		12	37.0	2.5	/experiments/AOT/AOT_stimuli/rescaled_final/1507_rv.mp4	0.0	292.75823497772217	0.10041689872741699
40	200.86573696136475	fix_pre	0		120	38.0	2.5	/experiments/AOT/AOT_stimuli/rescaled_final/1436_fw.mp4	0.0	292.8586518764496	0.9999480247497559
40	201.04170894622803	pulse	0	t		38.0	2.5	/experiments/AOT/AOT_stimuli/rescaled_final/1436_fw.mp4	0.0	293.03462386131287	
40	201.8656849861145	movie	1		245	38.0	2.5	/experiments/AOT/AOT_stimuli/rescaled_final/1436_fw.mp4	0.0	293.85859990119934	2.4995970726013184
40	202.64193606376648	pulse	1	t		38.0	2.5	/experiments/AOT/AOT_stimuli/rescaled_final/1436_fw.mp4	0.0	294.6348509788513	
40	204.24526405334473	pulse	1	t		38.0	2.5	/experiments/AOT/AOT_stimuli/rescaled_final/1436_fw.mp4	0.0	296.23817896842957	
40	204.36528205871582	fix_post	2		12	38.0	2.5	/experiments/AOT/AOT_stimuli/rescaled_final/1436_fw.mp4	0.0	296.35819697380066	0.09998488426208496
41	204.4652669429779	fix_pre	0		120	39.0	2.5	/experiments/AOT/AOT_stimuli/rescaled_final/2131_fw.mp4	0.0	296.45818185806274	1.0000150203704834
41	205.4652819633484	movie	1		246	39.0	2.5	/experiments/AOT/AOT_stimuli/rescaled_final/2131_fw.mp4	0.0	297.4581968784332	2.4999499320983887
41	205.8408501148224	pulse	1	t		39.0	2.5	/experiments/AOT/AOT_stimuli/rescaled_final/2131_fw.mp4	0.0	297.8337650299072	
41	207.4491729736328	pulse	1	t		39.0	2.5	/experiments/AOT/AOT_stimuli/rescaled_final/2131_fw.mp4	0.0	299.44208788871765	
41	207.96523189544678	fix_post	2		12	39.0	2.5	/experiments/AOT/AOT_stimuli/rescaled_final/2131_fw.mp4	0.0	299.9581468105316	0.10044503211975098
42	208.06567692756653	fix_pre	0		119	40.0	2.5	blank	1.0	300.05859184265137	0.9916579723358154
42	209.0416669845581	pulse	0	t		40.0	2.5	blank	1.0	301.03458189964294	
42	209.05733489990234	movie	1		301	40.0	2.5	blank	1.0	301.0502498149872	2.508371114730835
42	210.6415889263153	pulse	1	t		40.0	2.5	blank	1.0	302.63450384140015	
42	211.56570601463318	fix_post	2		12	40.0	2.5	blank	1.0	303.558620929718	0.10001206398010254
43	211.66571807861328	fix_pre	0		120	41.0	2.5	/experiments/AOT/AOT_stimuli/rescaled_final/0094_rv.mp4	0.0	303.6586329936981	0.9999918937683105
43	212.24163508415222	pulse	0	t		41.0	2.5	/experiments/AOT/AOT_stimuli/rescaled_final/0094_rv.mp4	0.0	304.23454999923706	
43	212.6657099723816	movie	1		244	41.0	2.5	/experiments/AOT/AOT_stimuli/rescaled_final/0094_rv.mp4	0.0	304.65862488746643	2.50004506111145
43	213.84924006462097	pulse	1	t		41.0	2.5	/experiments/AOT/AOT_stimuli/rescaled_final/0094_rv.mp4	0.0	305.8421549797058	
43	215.16575503349304	fix_post	2		12	41.0	2.5	/experiments/AOT/AOT_stimuli/rescaled_final/0094_rv.mp4	0.0	307.1586699485779	0.09994697570800781
44	215.26570200920105	fix_pre	0		120	42.0	2.5	/experiments/AOT/AOT_stimuli/rescaled_final/1089_rv.mp4	0.0	307.2586169242859	1.0000109672546387
44	215.44156408309937	pulse	0	t		42.0	2.5	/experiments/AOT/AOT_stimuli/rescaled_final/1089_rv.mp4	0.0	307.4344789981842	
44	216.2657129764557	movie	1		245	42.0	2.5	/experiments/AOT/AOT_stimuli/rescaled_final/1089_rv.mp4	0.0	308.2586278915405	2.499851942062378
44	217.0416190624237	pulse	1	t		42.0	2.5	/experiments/AOT/AOT_stimuli/rescaled_final/1089_rv.mp4	0.0	309.03453397750854	
44	218.64513206481934	pulse	1	t		42.0	2.5	/experiments/AOT/AOT_stimuli/rescaled_final/1089_rv.mp4	0.0	310.6380469799042	
44	218.76556491851807	fix_post	2		12	42.0	2.5	/experiments/AOT/AOT_stimuli/rescaled_final/1089_rv.mp4	0.0	310.7584798336029	0.10002613067626953
45	218.86559104919434	fix_pre	0		120	43.0	2.5	/experiments/AOT/AOT_stimuli/rescaled_final/0969_rv.mp4	0.0	310.8585059642792	0.9996230602264404
45	219.86521410942078	movie	1		244	43.0	2.5	/experiments/AOT/AOT_stimuli/rescaled_final/0969_rv.mp4	0.0	311.8581290245056	2.4999477863311768
45	220.24881196022034	pulse	1	t		43.0	2.5	/experiments/AOT/AOT_stimuli/rescaled_final/0969_rv.mp4	0.0	312.2417268753052	
45	221.84086394309998	pulse	1	t		43.0	2.5	/experiments/AOT/AOT_stimuli/rescaled_final/0969_rv.mp4	0.0	313.8337788581848	
45	222.36516189575195	fix_post	2		12	43.0	2.5	/experiments/AOT/AOT_stimuli/rescaled_final/0969_rv.mp4	0.0	314.3580768108368	0.10037899017333984
46	222.4655408859253	fix_pre	0		119	44.0	2.5	/experiments/AOT/AOT_stimuli/rescaled_final/1736_fw.mp4	0.0	314.45845580101013	0.9916720390319824
46	223.44908499717712	pulse	0	t		44.0	2.5	/experiments/AOT/AOT_stimuli/rescaled_final/1736_fw.mp4	0.0	315.44199991226196	
46	223.45721292495728	movie	1		244	44.0	2.5	/experiments/AOT/AOT_stimuli/rescaled_final/1736_fw.mp4	0.0	315.4501278400421	2.508390188217163
46	225.04855608940125	pulse	1	t		44.0	2.5	/experiments/AOT/AOT_stimuli/rescaled_final/1736_fw.mp4	0.0	317.0414710044861	
46	225.96560311317444	fix_post	2		12	44.0	2.5	/experiments/AOT/AOT_stimuli/rescaled_final/1736_fw.mp4	0.0	317.9585180282593	0.10002994537353516
47	226.06563305854797	fix_pre	0		120	45.0	2.5	/experiments/AOT/AOT_stimuli/rescaled_final/1295_fw.mp4	0.0	318.0585479736328	0.9995038509368896
47	226.64910292625427	pulse	0	t		45.0	2.5	/experiments/AOT/AOT_stimuli/rescaled_final/1295_fw.mp4	0.0	318.6420178413391	
47	227.06513690948486	movie	1		246	45.0	2.5	/experiments/AOT/AOT_stimuli/rescaled_final/1295_fw.mp4	0.0	319.0580518245697	2.5004100799560547
47	228.24912309646606	pulse	1	t		45.0	2.5	/experiments/AOT/AOT_stimuli/rescaled_final/1295_fw.mp4	0.0	320.2420380115509	
47	229.56554698944092	fix_post	2		12	45.0	2.5	/experiments/AOT/AOT_stimuli/rescaled_final/1295_fw.mp4	0.0	321.55846190452576	0.09999394416809082
48	229.665540933609	fix_pre	0		120	46.0	2.5	/experiments/AOT/AOT_stimuli/rescaled_final/1925_rv.mp4	0.0	321.65845584869385	1.000028133392334
48	229.84165501594543	pulse	0	t		46.0	2.5	/experiments/AOT/AOT_stimuli/rescaled_final/1925_rv.mp4	0.0	321.8345699310303	
48	230.66556906700134	movie	1		244	46.0	2.5	/experiments/AOT/AOT_stimuli/rescaled_final/1925_rv.mp4	0.0	322.6584839820862	2.5000288486480713
48	231.4417440891266	pulse	1	t		46.0	2.5	/experiments/AOT/AOT_stimuli/rescaled_final/1925_rv.mp4	0.0	323.4346590042114	
48	233.04749393463135	pulse	1	t		46.0	2.5	/experiments/AOT/AOT_stimuli/rescaled_final/1925_rv.mp4	0.0	325.0404088497162	
48	233.1655979156494	fix_post	2		12	46.0	2.5	/experiments/AOT/AOT_stimuli/rescaled_final/1925_rv.mp4	0.0	325.15851283073425	0.09953713417053223
49	233.26513504981995	fix_pre	0		120	47.0	2.5	blank	1.0	325.2580499649048	1.0004570484161377
49	234.26559209823608	movie	1		300	47.0	2.5	blank	1.0	326.2585070133209	2.500002861022949
49	234.64161801338196	pulse	1	t		47.0	2.5	blank	1.0	326.6345329284668	
49	236.24161291122437	pulse	1	t		47.0	2.5	blank	1.0	328.2345278263092	
49	236.76559495925903	fix_post	2		12	47.0	2.5	blank	1.0	328.7585098743439	0.10003805160522461
50	236.86563301086426	fix_pre	0		119	48.0	2.5	/experiments/AOT/AOT_stimuli/rescaled_final/0635_fw.mp4	0.0	328.8585479259491	0.9916479587554932
50	237.84156489372253	pulse	0	t		48.0	2.5	/experiments/AOT/AOT_stimuli/rescaled_final/0635_fw.mp4	0.0	329.8344798088074	
50	237.85728096961975	movie	1		245	48.0	2.5	/experiments/AOT/AOT_stimuli/rescaled_final/0635_fw.mp4	0.0	329.8501958847046	2.507828950881958
50	239.44850397109985	pulse	1	t		48.0	2.5	/experiments/AOT/AOT_stimuli/rescaled_final/0635_fw.mp4	0.0	331.4414188861847	
50	240.3651099205017	fix_post	2		12	48.0	2.5	/experiments/AOT/AOT_stimuli/rescaled_final/0635_fw.mp4	0.0	332.35802483558655	0.10003399848937988
51	240.4651439189911	fix_pre	0		120	49.0	2.5	/experiments/AOT/AOT_stimuli/rescaled_final/0899_fw.mp4	0.0	332.4580588340759	1.000473976135254
51	241.0486569404602	pulse	0	t		49.0	2.5	/experiments/AOT/AOT_stimuli/rescaled_final/0899_fw.mp4	0.0	333.04157185554504	
51	241.46561789512634	movie	1		244	49.0	2.5	/experiments/AOT/AOT_stimuli/rescaled_final/0899_fw.mp4	0.0	333.4585328102112	2.499876022338867
51	242.6492040157318	pulse	1	t		49.0	2.5	/experiments/AOT/AOT_stimuli/rescaled_final/0899_fw.mp4	0.0	334.64211893081665	
51	243.9654939174652	fix_post	2		12	49.0	2.5	/experiments/AOT/AOT_stimuli/rescaled_final/0899_fw.mp4	0.0	335.95840883255005	0.10005617141723633
52	244.06555008888245	fix_pre	0		120	50.0	2.5	/experiments/AOT/AOT_stimuli/rescaled_final/1857_fw.mp4	0.0	336.0584650039673	1.000025987625122
52	244.2490999698639	pulse	0	t		50.0	2.5	/experiments/AOT/AOT_stimuli/rescaled_final/1857_fw.mp4	0.0	336.24201488494873	
52	245.06557607650757	movie	1		243	50.0	2.5	/experiments/AOT/AOT_stimuli/rescaled_final/1857_fw.mp4	0.0	337.0584909915924	2.500072956085205
52	245.84154391288757	pulse	1	t		50.0	2.5	/experiments/AOT/AOT_stimuli/rescaled_final/1857_fw.mp4	0.0	337.8344588279724	
52	247.4476089477539	pulse	1	t		50.0	2.5	/experiments/AOT/AOT_stimuli/rescaled_final/1857_fw.mp4	0.0	339.44052386283875	
52	247.56564903259277	fix_post	2		12	50.0	2.5	/experiments/AOT/AOT_stimuli/rescaled_final/1857_fw.mp4	0.0	339.5585639476776	0.099884033203125
53	247.6655330657959	fix_pre	0		120	51.0	2.5	/experiments/AOT/AOT_stimuli/rescaled_final/0231_fw.mp4	0.0	339.65844798088074	0.9998500347137451
53	248.66538310050964	movie	1		246	51.0	2.5	/experiments/AOT/AOT_stimuli/rescaled_final/0231_fw.mp4	0.0	340.6582980155945	2.499976873397827
53	249.04921197891235	pulse	1	t		51.0	2.5	/experiments/AOT/AOT_stimuli/rescaled_final/0231_fw.mp4	0.0	341.0421268939972	
53	250.64159989356995	pulse	1	t		51.0	2.5	/experiments/AOT/AOT_stimuli/rescaled_final/0231_fw.mp4	0.0	342.6345148086548	
53	251.16535997390747	fix_post	2		12	51.0	2.5	/experiments/AOT/AOT_stimuli/rescaled_final/0231_fw.mp4	0.0	343.1582748889923	0.09972405433654785
54	251.26508402824402	fix_pre	0		119	52.0	2.5	/experiments/AOT/AOT_stimuli/rescaled_final/0518_fw.mp4	0.0	343.25799894332886	0.992034912109375
54	252.2413821220398	pulse	0	t		52.0	2.5	/experiments/AOT/AOT_stimuli/rescaled_final/0518_fw.mp4	0.0	344.23429703712463	
54	252.2571189403534	movie	1		246	52.0	2.5	/experiments/AOT/AOT_stimuli/rescaled_final/0518_fw.mp4	0.0	344.25003385543823	2.5078890323638916
54	253.84861707687378	pulse	1	t		52.0	2.5	/experiments/AOT/AOT_stimuli/rescaled_final/0518_fw.mp4	0.0	345.8415319919586	
54	254.76500797271729	fix_post	2		12	52.0	2.5	/experiments/AOT/AOT_stimuli/rescaled_final/0518_fw.mp4	0.0	346.7579228878021	0.10049700736999512
55	254.86550498008728	fix_pre	0		120	53.0	2.5	/experiments/AOT/AOT_stimuli/rescaled_final/2063_fw.mp4	0.0	346.8584198951721	0.9999380111694336
55	255.44892191886902	pulse	0	t		53.0	2.5	/experiments/AOT/AOT_stimuli/rescaled_final/2063_fw.mp4	0.0	347.44183683395386	
55	255.8654429912567	movie	1		246	53.0	2.5	/experiments/AOT/AOT_stimuli/rescaled_final/2063_fw.mp4	0.0	347.85835790634155	2.4995341300964355
55	257.04899406433105	pulse	1	t		53.0	2.5	/experiments/AOT/AOT_stimuli/rescaled_final/2063_fw.mp4	0.0	349.0419089794159	
55	258.36497712135315	fix_post	2		12	53.0	2.5	/experiments/AOT/AOT_stimuli/rescaled_final/2063_fw.mp4	0.0	350.357892036438	0.10003089904785156
56	258.465008020401	fix_pre	0		120	54.0	2.5	/experiments/AOT/AOT_stimuli/rescaled_final/2156_rv.mp4	0.0	350.45792293548584	1.0004260540008545
56	258.64896297454834	pulse	0	t		54.0	2.5	/experiments/AOT/AOT_stimuli/rescaled_final/2156_rv.mp4	0.0	350.6418778896332	
56	259.46543407440186	movie	1		245	54.0	2.5	/experiments/AOT/AOT_stimuli/rescaled_final/2156_rv.mp4	0.0	351.4583489894867	2.4995269775390625
56	260.24895310401917	pulse	1	t		54.0	2.5	/experiments/AOT/AOT_stimuli/rescaled_final/2156_rv.mp4	0.0	352.241868019104	
56	261.84518694877625	pulse	1	t		54.0	2.5	/experiments/AOT/AOT_stimuli/rescaled_final/2156_rv.mp4	0.0	353.8381018638611	
56	261.9649610519409	fix_post	2		12	54.0	2.5	/experiments/AOT/AOT_stimuli/rescaled_final/2156_rv.mp4	0.0	353.95787596702576	0.1004190444946289
57	262.06538009643555	fix_pre	0		120	55.0	2.5	blank	1.0	354.0582950115204	1.0000419616699219
57	263.06542205810547	movie	1		300	55.0	2.5	blank	1.0	355.0583369731903	2.4999618530273438
57	263.4413869380951	pulse	1	t		55.0	2.5	blank	1.0	355.43430185317993	
57	265.04139709472656	pulse	1	t		55.0	2.5	blank	1.0	357.0343120098114	
57	265.5653839111328	fix_post	2		12	55.0	2.5	blank	1.0	357.55829882621765	0.09994316101074219
58	265.66532707214355	fix_pre	0		119	56.0	2.5	/experiments/AOT/AOT_stimuli/rescaled_final/0300_fw.mp4	0.0	357.6582419872284	0.9916749000549316
58	266.6412250995636	pulse	0	t		56.0	2.5	/experiments/AOT/AOT_stimuli/rescaled_final/0300_fw.mp4	0.0	358.63414001464844	
58	266.6570019721985	movie	1		246	56.0	2.5	/experiments/AOT/AOT_stimuli/rescaled_final/0300_fw.mp4	0.0	358.6499168872833	2.5084171295166016
58	268.24840688705444	pulse	1	t		56.0	2.5	/experiments/AOT/AOT_stimuli/rescaled_final/0300_fw.mp4	0.0	360.2413218021393	
58	269.1654191017151	fix_post	2		12	56.0	2.5	/experiments/AOT/AOT_stimuli/rescaled_final/0300_fw.mp4	0.0	361.1583340167999	0.09995579719543457
59	269.2653748989105	fix_pre	0		120	57.0	2.5	/experiments/AOT/AOT_stimuli/rescaled_final/1020_fw.mp4	0.0	361.25828981399536	0.9999020099639893
59	269.84132504463196	pulse	0	t		57.0	2.5	/experiments/AOT/AOT_stimuli/rescaled_final/1020_fw.mp4	0.0	361.8342399597168	
59	270.2652769088745	movie	1		246	57.0	2.5	/experiments/AOT/AOT_stimuli/rescaled_final/1020_fw.mp4	0.0	362.25819182395935	2.4997291564941406
59	271.44891691207886	pulse	1	t		57.0	2.5	/experiments/AOT/AOT_stimuli/rescaled_final/1020_fw.mp4	0.0	363.4418318271637	
59	272.76500606536865	fix_post	2		12	57.0	2.5	/experiments/AOT/AOT_stimuli/rescaled_final/1020_fw.mp4	0.0	364.7579209804535	0.09988999366760254
60	272.86489605903625	fix_pre	0		120	58.0	2.5	/experiments/AOT/AOT_stimuli/rescaled_final/1661_fw.mp4	0.0	364.8578109741211	1.0004868507385254
60	273.0488669872284	pulse	0	t		58.0	2.5	/experiments/AOT/AOT_stimuli/rescaled_final/1661_fw.mp4	0.0	365.04178190231323	
60	273.8653829097748	movie	1		243	58.0	2.5	/experiments/AOT/AOT_stimuli/rescaled_final/1661_fw.mp4	0.0	365.8582978248596	2.4995779991149902
60	274.6487739086151	pulse	1	t		58.0	2.5	/experiments/AOT/AOT_stimuli/rescaled_final/1661_fw.mp4	0.0	366.64168882369995	
60	276.24965500831604	pulse	1	t		58.0	2.5	/experiments/AOT/AOT_stimuli/rescaled_final/1661_fw.mp4	0.0	368.2425699234009	
60	276.36496090888977	fix_post	2		12	58.0	2.5	/experiments/AOT/AOT_stimuli/rescaled_final/1661_fw.mp4	0.0	368.3578758239746	0.10034704208374023
61	276.4653079509735	fix_pre	0		120	59.0	2.5	/experiments/AOT/AOT_stimuli/rescaled_final/1295_rv.mp4	0.0	368.45822286605835	0.9996180534362793
61	277.4649260044098	movie	1		246	59.0	2.5	/experiments/AOT/AOT_stimuli/rescaled_final/1295_rv.mp4	0.0	369.45784091949463	2.5004489421844482
61	277.8483109474182	pulse	1	t		59.0	2.5	/experiments/AOT/AOT_stimuli/rescaled_final/1295_rv.mp4	0.0	369.84122586250305	
61	279.44886112213135	pulse	1	t		59.0	2.5	/experiments/AOT/AOT_stimuli/rescaled_final/1295_rv.mp4	0.0	371.4417760372162	
61	279.96537494659424	fix_post	2		12	59.0	2.5	/experiments/AOT/AOT_stimuli/rescaled_final/1295_rv.mp4	0.0	371.9582898616791	0.10001015663146973
62	280.0653851032257	fix_pre	0		119	60.0	2.5	/experiments/AOT/AOT_stimuli/rescaled_final/2080_fw.mp4	0.0	372.05830001831055	0.9916059970855713
62	281.0487630367279	pulse	0	t		60.0	2.5	/experiments/AOT/AOT_stimuli/rescaled_final/2080_fw.mp4	0.0	373.04167795181274	
62	281.0569911003113	movie	1		248	60.0	2.5	/experiments/AOT/AOT_stimuli/rescaled_final/2080_fw.mp4	0.0	373.0499060153961	2.5079829692840576
62	282.6481440067291	pulse	1	t		60.0	2.5	/experiments/AOT/AOT_stimuli/rescaled_final/2080_fw.mp4	0.0	374.64105892181396	
62	283.56497406959534	fix_post	2		12	60.0	2.5	/experiments/AOT/AOT_stimuli/rescaled_final/2080_fw.mp4	0.0	375.5578889846802	0.10000300407409668
63	283.66497707366943	fix_pre	0		120	61.0	2.5	/experiments/AOT/AOT_stimuli/rescaled_final/1729_rv.mp4	0.0	375.6578919887543	0.9999840259552002
63	284.2412979602814	pulse	0	t		61.0	2.5	/experiments/AOT/AOT_stimuli/rescaled_final/1729_rv.mp4	0.0	376.2342128753662	
63	284.66496109962463	movie	1		245	61.0	2.5	/experiments/AOT/AOT_stimuli/rescaled_final/1729_rv.mp4	0.0	376.6578760147095	2.5002739429473877
63	285.84893798828125	pulse	1	t		61.0	2.5	/experiments/AOT/AOT_stimuli/rescaled_final/1729_rv.mp4	0.0	377.8418529033661	
63	287.165235042572	fix_post	2		12	61.0	2.5	/experiments/AOT/AOT_stimuli/rescaled_final/1729_rv.mp4	0.0	379.15814995765686	0.09965705871582031
64	287.26489210128784	fix_pre	0		120	62.0	2.5	blank	1.0	379.2578070163727	1.0000038146972656
64	287.4488739967346	pulse	0	t		62.0	2.5	blank	1.0	379.44178891181946	
64	288.2648959159851	movie	1		300	62.0	2.5	blank	1.0	380.25781083106995	2.500458002090454
64	289.04880690574646	pulse	1	t		62.0	2.5	blank	1.0	381.0417218208313	
64	290.64874792099	pulse	1	t		62.0	2.5	blank	1.0	382.64166283607483	
64	290.76535391807556	fix_post	2		12	62.0	2.5	blank	1.0	382.7582688331604	0.09948396682739258
65	290.86483788490295	fix_pre	0		120	63.0	2.5	/experiments/AOT/AOT_stimuli/rescaled_final/1766_fw.mp4	0.0	382.8577527999878	1.0000460147857666
65	291.8648838996887	movie	1		245	63.0	2.5	/experiments/AOT/AOT_stimuli/rescaled_final/1766_fw.mp4	0.0	383.85779881477356	2.499974012374878
65	292.2488889694214	pulse	1	t		63.0	2.5	/experiments/AOT/AOT_stimuli/rescaled_final/1766_fw.mp4	0.0	384.2418038845062	
65	293.8487460613251	pulse	1	t		63.0	2.5	/experiments/AOT/AOT_stimuli/rescaled_final/1766_fw.mp4	0.0	385.8416609764099	
65	294.3648579120636	fix_post	2		12	63.0	2.5	/experiments/AOT/AOT_stimuli/rescaled_final/1766_fw.mp4	0.0	386.35777282714844	0.10043501853942871
66	294.465292930603	fix_pre	0		119	64.0	2.5	/experiments/AOT/AOT_stimuli/rescaled_final/1581_fw.mp4	0.0	386.45820784568787	0.9916219711303711
66	295.44877910614014	pulse	0	t		64.0	2.5	/experiments/AOT/AOT_stimuli/rescaled_final/1581_fw.mp4	0.0	387.441694021225	
66	295.4569149017334	movie	1		248	64.0	2.5	/experiments/AOT/AOT_stimuli/rescaled_final/1581_fw.mp4	0.0	387.44982981681824	2.5081610679626465
66	297.0494010448456	pulse	1	t		64.0	2.5	/experiments/AOT/AOT_stimuli/rescaled_final/1581_fw.mp4	0.0	389.0423159599304	
66	297.96507596969604	fix_post	2		12	64.0	2.5	/experiments/AOT/AOT_stimuli/rescaled_final/1581_fw.mp4	0.0	389.9579908847809	0.09988713264465332
67	298.0649631023407	fix_pre	0		120	65.0	2.5	/experiments/AOT/AOT_stimuli/rescaled_final/1845_fw.mp4	0.0	390.05787801742554	1.0005199909210205
67	298.64978790283203	pulse	0	t		65.0	2.5	/experiments/AOT/AOT_stimuli/rescaled_final/1845_fw.mp4	0.0	390.64270281791687	
67	299.0654830932617	movie	1		246	65.0	2.5	/experiments/AOT/AOT_stimuli/rescaled_final/1845_fw.mp4	0.0	391.05839800834656	2.4997119903564453
67	300.24136209487915	pulse	1	t		65.0	2.5	/experiments/AOT/AOT_stimuli/rescaled_final/1845_fw.mp4	0.0	392.234277009964	
67	301.56519508361816	fix_post	2		12	65.0	2.5	/experiments/AOT/AOT_stimuli/rescaled_final/1845_fw.mp4	0.0	393.558109998703	0.1000509262084961
68	301.66524600982666	fix_pre	0		120	66.0	2.5	/experiments/AOT/AOT_stimuli/rescaled_final/1572_fw.mp4	0.0	393.6581609249115	0.9995310306549072
68	301.8412299156189	pulse	0	t		66.0	2.5	/experiments/AOT/AOT_stimuli/rescaled_final/1572_fw.mp4	0.0	393.83414483070374	
68	302.66477704048157	movie	1		246	66.0	2.5	/experiments/AOT/AOT_stimuli/rescaled_final/1572_fw.mp4	0.0	394.6576919555664	2.5000360012054443
68	303.4487121105194	pulse	1	t		66.0	2.5	/experiments/AOT/AOT_stimuli/rescaled_final/1572_fw.mp4	0.0	395.44162702560425	
68	305.0471749305725	pulse	1	t		66.0	2.5	/experiments/AOT/AOT_stimuli/rescaled_final/1572_fw.mp4	0.0	397.04008984565735	
68	305.164813041687	fix_post	2		12	66.0	2.5	/experiments/AOT/AOT_stimuli/rescaled_final/1572_fw.mp4	0.0	397.15772795677185	0.10034298896789551
69	305.2651560306549	fix_pre	0		120	67.0	2.5	/experiments/AOT/AOT_stimuli/rescaled_final/0417_fw.mp4	0.0	397.25807094573975	1.000195026397705
69	306.2653510570526	movie	1		246	67.0	2.5	/experiments/AOT/AOT_stimuli/rescaled_final/0417_fw.mp4	0.0	398.25826597213745	2.4997718334198
69	306.64971590042114	pulse	1	t		67.0	2.5	/experiments/AOT/AOT_stimuli/rescaled_final/0417_fw.mp4	0.0	398.642630815506	
69	308.24869990348816	pulse	1	t		67.0	2.5	/experiments/AOT/AOT_stimuli/rescaled_final/0417_fw.mp4	0.0	400.241614818573	
69	308.7651228904724	fix_post	2		12	67.0	2.5	/experiments/AOT/AOT_stimuli/rescaled_final/0417_fw.mp4	0.0	400.75803780555725	0.10005807876586914
70	308.8651809692383	fix_pre	0		119	68.0	2.5	/experiments/AOT/AOT_stimuli/rescaled_final/0969_fw.mp4	0.0	400.8580958843231	0.9916801452636719
70	309.84862899780273	pulse	0	t		68.0	2.5	/experiments/AOT/AOT_stimuli/rescaled_final/0969_fw.mp4	0.0	401.8415439128876	
70	309.85686111450195	movie	1		246	68.0	2.5	/experiments/AOT/AOT_stimuli/rescaled_final/0969_fw.mp4	0.0	401.8497760295868	2.50834584236145
70	311.44816493988037	pulse	1	t		68.0	2.5	/experiments/AOT/AOT_stimuli/rescaled_final/0969_fw.mp4	0.0	403.4410798549652	
70	312.3652069568634	fix_post	2		12	68.0	2.5	/experiments/AOT/AOT_stimuli/rescaled_final/0969_fw.mp4	0.0	404.35812187194824	0.09954404830932617
71	312.46475100517273	fix_pre	0		120	69.0	2.5	/experiments/AOT/AOT_stimuli/rescaled_final/1845_rv.mp4	0.0	404.45766592025757	0.9999759197235107
71	313.04864597320557	pulse	0	t		69.0	2.5	/experiments/AOT/AOT_stimuli/rescaled_final/1845_rv.mp4	0.0	405.0415608882904	
71	313.46472692489624	movie	1		243	69.0	2.5	/experiments/AOT/AOT_stimuli/rescaled_final/1845_rv.mp4	0.0	405.4576418399811	2.5004069805145264
71	314.64879393577576	pulse	1	t		69.0	2.5	/experiments/AOT/AOT_stimuli/rescaled_final/1845_rv.mp4	0.0	406.6417088508606	
71	315.96513390541077	fix_post	2		12	69.0	2.5	/experiments/AOT/AOT_stimuli/rescaled_final/1845_rv.mp4	0.0	407.9580488204956	0.10005998611450195
72	316.06519389152527	fix_pre	0		120	70.0	2.5	blank	1.0	408.0581088066101	1.0000200271606445
72	316.2411398887634	pulse	0	t		70.0	2.5	blank	1.0	408.23405480384827	
72	317.0652139186859	movie	1		300	70.0	2.5	blank	1.0	409.05812883377075	2.4999330043792725
72	317.84121108055115	pulse	1	t		70.0	2.5	blank	1.0	409.834125995636	
72	319.448646068573	pulse	1	t		70.0	2.5	blank	1.0	411.44156098365784	
72	319.5651469230652	fix_post	2		12	70.0	2.5	blank	1.0	411.55806183815	0.09998917579650879
73	319.6651360988617	fix_pre	0		120	71.0	2.5	/experiments/AOT/AOT_stimuli/rescaled_final/2063_rv.mp4	0.0	411.65805101394653	1.0000019073486328
73	320.6651380062103	movie	1		245	71.0	2.5	/experiments/AOT/AOT_stimuli/rescaled_final/2063_rv.mp4	0.0	412.65805292129517	2.4995369911193848
73	321.048278093338	pulse	1	t		71.0	2.5	/experiments/AOT/AOT_stimuli/rescaled_final/2063_rv.mp4	0.0	413.04119300842285	
73	322.64861392974854	pulse	1	t		71.0	2.5	/experiments/AOT/AOT_stimuli/rescaled_final/2063_rv.mp4	0.0	414.6415288448334	
73	323.1646749973297	fix_post	2		12	71.0	2.5	/experiments/AOT/AOT_stimuli/rescaled_final/2063_rv.mp4	0.0	415.15758991241455	0.10050296783447266
74	323.2651779651642	fix_pre	0		119	72.0	2.5	/experiments/AOT/AOT_stimuli/rescaled_final/1337_rv.mp4	0.0	415.258092880249	0.9916040897369385
74	324.2486660480499	pulse	0	t		72.0	2.5	/experiments/AOT/AOT_stimuli/rescaled_final/1337_rv.mp4	0.0	416.24158096313477	
74	324.2567820549011	movie	1		245	72.0	2.5	/experiments/AOT/AOT_stimuli/rescaled_final/1337_rv.mp4	0.0	416.24969696998596	2.5078940391540527
74	325.8487319946289	pulse	1	t		72.0	2.5	/experiments/AOT/AOT_stimuli/rescaled_final/1337_rv.mp4	0.0	417.84164690971375	
74	326.7646760940552	fix_post	2		12	72.0	2.5	/experiments/AOT/AOT_stimuli/rescaled_final/1337_rv.mp4	0.0	418.75759100914	0.10043001174926758
75	326.86510610580444	fix_pre	0		120	73.0	2.5	/experiments/AOT/AOT_stimuli/rescaled_final/1042_rv.mp4	0.0	418.8580210208893	1.0000088214874268
75	327.4487359523773	pulse	0	t		73.0	2.5	/experiments/AOT/AOT_stimuli/rescaled_final/1042_rv.mp4	0.0	419.44165086746216	
75	327.86511492729187	movie	1		245	73.0	2.5	/experiments/AOT/AOT_stimuli/rescaled_final/1042_rv.mp4	0.0	419.8580298423767	2.499933958053589
75	329.04147505760193	pulse	1	t		73.0	2.5	/experiments/AOT/AOT_stimuli/rescaled_final/1042_rv.mp4	0.0	421.03438997268677	
75	330.36504888534546	fix_post	2		12	73.0	2.5	/experiments/AOT/AOT_stimuli/rescaled_final/1042_rv.mp4	0.0	422.3579638004303	0.09960317611694336
76	330.4646520614624	fix_pre	0		120	74.0	2.5	/experiments/AOT/AOT_stimuli/rescaled_final/0032_rv.mp4	0.0	422.45756697654724	1.00034499168396
76	330.64861011505127	pulse	0	t		74.0	2.5	/experiments/AOT/AOT_stimuli/rescaled_final/0032_rv.mp4	0.0	422.6415250301361	
76	331.46499705314636	movie	1		244	74.0	2.5	/experiments/AOT/AOT_stimuli/rescaled_final/0032_rv.mp4	0.0	423.4579119682312	2.499631881713867
76	332.24874901771545	pulse	1	t		74.0	2.5	/experiments/AOT/AOT_stimuli/rescaled_final/0032_rv.mp4	0.0	424.2416639328003	
76	333.8469340801239	pulse	1	t		74.0	2.5	/experiments/AOT/AOT_stimuli/rescaled_final/0032_rv.mp4	0.0	425.83984899520874	
76	333.96462893486023	fix_post	2		12	74.0	2.5	/experiments/AOT/AOT_stimuli/rescaled_final/0032_rv.mp4	0.0	425.95754384994507	0.10005712509155273
77	334.0646860599518	fix_pre	0		120	75.0	2.5	/experiments/AOT/AOT_stimuli/rescaled_final/1486_fw.mp4	0.0	426.0576009750366	1.0003688335418701
77	335.06505489349365	movie	1		245	75.0	2.5	/experiments/AOT/AOT_stimuli/rescaled_final/1486_fw.mp4	0.0	427.0579698085785	2.50003719329834
77	335.4483139514923	pulse	1	t		75.0	2.5	/experiments/AOT/AOT_stimuli/rescaled_final/1486_fw.mp4	0.0	427.44122886657715	
77	337.04854011535645	pulse	1	t		75.0	2.5	/experiments/AOT/AOT_stimuli/rescaled_final/1486_fw.mp4	0.0	429.0414550304413	
77	337.565092086792	fix_post	2		12	75.0	2.5	/experiments/AOT/AOT_stimuli/rescaled_final/1486_fw.mp4	0.0	429.55800700187683	0.09990191459655762
78	337.66499400138855	fix_pre	0		119	76.0	2.5	/experiments/AOT/AOT_stimuli/rescaled_final/1732_rv.mp4	0.0	429.6579089164734	0.9917709827423096
78	338.6485550403595	pulse	0	t		76.0	2.5	/experiments/AOT/AOT_stimuli/rescaled_final/1732_rv.mp4	0.0	430.64146995544434	
78	338.65676498413086	movie	1		244	76.0	2.5	/experiments/AOT/AOT_stimuli/rescaled_final/1732_rv.mp4	0.0	430.6496798992157	2.508297920227051
78	340.24826407432556	pulse	1	t		76.0	2.5	/experiments/AOT/AOT_stimuli/rescaled_final/1732_rv.mp4	0.0	432.2411789894104	
78	341.1650629043579	fix_post	2		12	76.0	2.5	/experiments/AOT/AOT_stimuli/rescaled_final/1732_rv.mp4	0.0	433.15797781944275	0.09992814064025879
79	341.26499104499817	fix_pre	0		120	77.0	2.5	blank	1.0	433.257905960083	1.0001089572906494
79	341.84858107566833	pulse	0	t		77.0	2.5	blank	1.0	433.8414959907532	
79	342.2651000022888	movie	1		300	77.0	2.5	blank	1.0	434.25801491737366	2.5000081062316895
79	343.4485809803009	pulse	1	t		77.0	2.5	blank	1.0	435.44149589538574	
79	344.7651081085205	fix_post	2		12	77.0	2.5	blank	1.0	436.75802302360535	0.09998488426208496
80	344.8650929927826	fix_pre	0		120	78.0	2.5	/experiments/AOT/AOT_stimuli/rescaled_final/1587_fw.mp4	0.0	436.85800790786743	0.999946117401123
80	345.0485599040985	pulse	0	t		78.0	2.5	/experiments/AOT/AOT_stimuli/rescaled_final/1587_fw.mp4	0.0	437.04147481918335	
80	345.8650391101837	movie	1		246	78.0	2.5	/experiments/AOT/AOT_stimuli/rescaled_final/1587_fw.mp4	0.0	437.85795402526855	2.499552011489868
80	346.64854311943054	pulse	1	t		78.0	2.5	/experiments/AOT/AOT_stimuli/rescaled_final/1587_fw.mp4	0.0	438.6414580345154	
80	348.24451208114624	pulse	1	t		78.0	2.5	/experiments/AOT/AOT_stimuli/rescaled_final/1587_fw.mp4	0.0	440.2374269962311	
80	348.3645911216736	fix_post	2		12	78.0	2.5	/experiments/AOT/AOT_stimuli/rescaled_final/1587_fw.mp4	0.0	440.3575060367584	0.10044288635253906
81	348.4650340080261	fix_pre	0		120	79.0	2.5	/experiments/AOT/AOT_stimuli/rescaled_final/1125_rv.mp4	0.0	440.45794892311096	1.0000739097595215
81	349.46510791778564	movie	1		246	79.0	2.5	/experiments/AOT/AOT_stimuli/rescaled_final/1125_rv.mp4	0.0	441.4580228328705	2.499932050704956
81	349.848130941391	pulse	1	t		79.0	2.5	/experiments/AOT/AOT_stimuli/rescaled_final/1125_rv.mp4	0.0	441.84104585647583	
81	351.4484689235687	pulse	1	t		79.0	2.5	/experiments/AOT/AOT_stimuli/rescaled_final/1125_rv.mp4	0.0	443.44138383865356	
81	351.9650399684906	fix_post	2		12	79.0	2.5	/experiments/AOT/AOT_stimuli/rescaled_final/1125_rv.mp4	0.0	443.95795488357544	0.09991812705993652
82	352.06495809555054	fix_pre	0		119	80.0	2.5	/experiments/AOT/AOT_stimuli/rescaled_final/1000_rv.mp4	0.0	444.0578730106354	0.9912698268890381
82	353.0480511188507	pulse	0	t		80.0	2.5	/experiments/AOT/AOT_stimuli/rescaled_final/1000_rv.mp4	0.0	445.04096603393555	
82	353.0562279224396	movie	1		246	80.0	2.5	/experiments/AOT/AOT_stimuli/rescaled_final/1000_rv.mp4	0.0	445.0491428375244	2.5086309909820557
82	354.6479380130768	pulse	1	t		80.0	2.5	/experiments/AOT/AOT_stimuli/rescaled_final/1000_rv.mp4	0.0	446.6408529281616	
82	355.56485891342163	fix_post	2		12	80.0	2.5	/experiments/AOT/AOT_stimuli/rescaled_final/1000_rv.mp4	0.0	447.55777382850647	0.1000370979309082
83	355.66489601135254	fix_pre	0		120	81.0	2.5	/experiments/AOT/AOT_stimuli/rescaled_final/1241_rv.mp4	0.0	447.6578109264374	1.0000710487365723
83	356.2484920024872	pulse	0	t		81.0	2.5	/experiments/AOT/AOT_stimuli/rescaled_final/1241_rv.mp4	0.0	448.241406917572	
83	356.6649670600891	movie	1		245	81.0	2.5	/experiments/AOT/AOT_stimuli/rescaled_final/1241_rv.mp4	0.0	448.65788197517395	2.5000319480895996
83	357.8484981060028	pulse	1	t		81.0	2.5	/experiments/AOT/AOT_stimuli/rescaled_final/1241_rv.mp4	0.0	449.84141302108765	
83	359.1649990081787	fix_post	2		12	81.0	2.5	/experiments/AOT/AOT_stimuli/rescaled_final/1241_rv.mp4	0.0	451.15791392326355	0.10000491142272949
84	359.26500391960144	fix_pre	0		120	82.0	2.5	/experiments/AOT/AOT_stimuli/rescaled_final/1777_fw.mp4	0.0	451.2579188346863	0.9999580383300781
84	359.44845700263977	pulse	0	t		82.0	2.5	/experiments/AOT/AOT_stimuli/rescaled_final/1777_fw.mp4	0.0	451.4413719177246	
84	360.2649619579315	movie	1		244	82.0	2.5	/experiments/AOT/AOT_stimuli/rescaled_final/1777_fw.mp4	0.0	452.25787687301636	2.49959397315979
84	361.0483989715576	pulse	1	t		82.0	2.5	/experiments/AOT/AOT_stimuli/rescaled_final/1777_fw.mp4	0.0	453.04131388664246	
84	362.644406080246	pulse	1	t		82.0	2.5	/experiments/AOT/AOT_stimuli/rescaled_final/1777_fw.mp4	0.0	454.6373209953308	
84	362.7645559310913	fix_post	2		12	82.0	2.5	/experiments/AOT/AOT_stimuli/rescaled_final/1777_fw.mp4	0.0	454.75747084617615	0.10040712356567383
85	362.864963054657	fix_pre	0		120	83.0	2.5	blank	1.0	454.8578779697418	0.9999659061431885
85	363.86492896080017	movie	1		300	83.0	2.5	blank	1.0	455.857843875885	2.499988079071045
85	364.2484200000763	pulse	1	t		83.0	2.5	blank	1.0	456.24133491516113	
85	365.8483910560608	pulse	1	t		83.0	2.5	blank	1.0	457.84130597114563	
85	366.3649170398712	fix_post	2		12	83.0	2.5	blank	1.0	458.35783195495605	0.09956908226013184
87	366.46448612213135	stim	0		1716					458.4574010372162	14.300416946411133
87	367.4484009742737	pulse	0	t						459.4413158893585	
87	369.04837703704834	pulse	0	t						461.0412919521332	
87	370.648423910141	pulse	0	t						462.64133882522583	
87	372.248428106308	pulse	0	t						464.2413430213928	
87	373.8483691215515	pulse	0	t						465.84128403663635	
87	375.44835901260376	pulse	0	t						467.4412739276886	
87	377.0483319759369	pulse	0	t						469.04124689102173	
87	378.64836597442627	pulse	0	t						470.6412808895111	
87	380.2483420372009	pulse	0	t						472.24125695228577	
