trial_nr	onset	event_type	phase	response	nr_frames	movie_index	movie_duration	movie_file	blank	onset_abs	duration
0	0.13328814506530762	stim	0		80					22.96437907218933	0.6668398380279541
0	0.7921521663665771	response	0	space						23.6232430934906	
1	0.8001279830932617	stim	0		4944					23.631218910217285	41.19997715950012
1	41.99258899688721	pulse	0	t						64.82367992401123	
1	42.000105142593384	stim	1		1717					64.83119606971741	14.307960987091064
1	43.591960191726685	pulse	1	t						66.42305111885071	
1	45.191890001297	pulse	1	t						68.02298092842102	
1	46.79186010360718	pulse	1	t						69.6229510307312	
1	48.391879081726074	pulse	1	t						71.2229700088501	
1	49.9918851852417	pulse	1	t						72.82297611236572	
1	51.59185814857483	pulse	1	t						74.42294907569885	
1	53.191917181015015	pulse	1	t						76.02300810813904	
1	54.791439056396484	pulse	1	t						77.62252998352051	
2	56.30806612968445	fix_pre	0		11	0.0	2.5	/experiments/AOT/AOT_stimuli/rescaled_final/1880_fw.mp4	0.0	79.13915705680847	0.09182596206665039
2	56.391595125198364	pulse	0	t		0.0	2.5	/experiments/AOT/AOT_stimuli/rescaled_final/1880_fw.mp4	0.0	79.22268605232239	
2	56.3998920917511	movie	1		246	0.0	2.5	/experiments/AOT/AOT_stimuli/rescaled_final/1880_fw.mp4	0.0	79.23098301887512	2.5084609985351562
2	57.99146604537964	pulse	1	t		0.0	2.5	/experiments/AOT/AOT_stimuli/rescaled_final/1880_fw.mp4	0.0	80.82255697250366	
2	58.908353090286255	fix_post	2		12	0.0	2.5	/experiments/AOT/AOT_stimuli/rescaled_final/1880_fw.mp4	0.0	81.73944401741028	0.09995007514953613
3	59.00830316543579	fix_pre	0		120	1.0	2.5	/experiments/AOT/AOT_stimuli/rescaled_final/0340_rv.mp4	0.0	81.83939409255981	0.9999828338623047
3	59.59184718132019	pulse	0	t		1.0	2.5	/experiments/AOT/AOT_stimuli/rescaled_final/0340_rv.mp4	0.0	82.42293810844421	
3	60.008285999298096	movie	1		246	1.0	2.5	/experiments/AOT/AOT_stimuli/rescaled_final/0340_rv.mp4	0.0	82.83937692642212	2.4996089935302734
3	61.191840171813965	pulse	1	t		1.0	2.5	/experiments/AOT/AOT_stimuli/rescaled_final/0340_rv.mp4	0.0	84.02293109893799	
3	62.50789499282837	fix_post	2		12	1.0	2.5	/experiments/AOT/AOT_stimuli/rescaled_final/0340_rv.mp4	0.0	85.33898591995239	0.10036015510559082
4	62.60825514793396	fix_pre	0		120	2.0	2.5	/experiments/AOT/AOT_stimuli/rescaled_final/1276_rv.mp4	0.0	85.43934607505798	1.0000169277191162
4	62.79177117347717	pulse	0	t		2.0	2.5	/experiments/AOT/AOT_stimuli/rescaled_final/1276_rv.mp4	0.0	85.6228621006012	
4	63.608272075653076	movie	1		245	2.0	2.5	/experiments/AOT/AOT_stimuli/rescaled_final/1276_rv.mp4	0.0	86.4393630027771	2.5000860691070557
4	64.39177107810974	pulse	1	t		2.0	2.5	/experiments/AOT/AOT_stimuli/rescaled_final/1276_rv.mp4	0.0	87.22286200523376	
4	65.99047517776489	pulse	1	t		2.0	2.5	/experiments/AOT/AOT_stimuli/rescaled_final/1276_rv.mp4	0.0	88.82156610488892	
4	66.10835814476013	fix_post	2		12	2.0	2.5	/experiments/AOT/AOT_stimuli/rescaled_final/1276_rv.mp4	0.0	88.93944907188416	0.09990286827087402
5	66.208261013031	fix_pre	0		120	3.0	2.5	/experiments/AOT/AOT_stimuli/rescaled_final/1808_rv.mp4	0.0	89.03935194015503	0.9995620250701904
5	67.2078230381012	movie	1		242	3.0	2.5	/experiments/AOT/AOT_stimuli/rescaled_final/1808_rv.mp4	0.0	90.03891396522522	2.5005080699920654
5	67.59147906303406	pulse	1	t		3.0	2.5	/experiments/AOT/AOT_stimuli/rescaled_final/1808_rv.mp4	0.0	90.42256999015808	
5	69.19171905517578	pulse	1	t		3.0	2.5	/experiments/AOT/AOT_stimuli/rescaled_final/1808_rv.mp4	0.0	92.0228099822998	
5	69.70833110809326	fix_post	2		12	3.0	2.5	/experiments/AOT/AOT_stimuli/rescaled_final/1808_rv.mp4	0.0	92.53942203521729	0.09994101524353027
6	69.80827212333679	fix_pre	0		119	4.0	2.5	/experiments/AOT/AOT_stimuli/rescaled_final/1243_rv.mp4	0.0	92.63936305046082	0.9915878772735596
6	70.79174900054932	pulse	0	t		4.0	2.5	/experiments/AOT/AOT_stimuli/rescaled_final/1243_rv.mp4	0.0	93.62283992767334	
6	70.79986000061035	movie	1		246	4.0	2.5	/experiments/AOT/AOT_stimuli/rescaled_final/1243_rv.mp4	0.0	93.63095092773438	2.508012056350708
6	72.39149618148804	pulse	1	t		4.0	2.5	/experiments/AOT/AOT_stimuli/rescaled_final/1243_rv.mp4	0.0	95.22258710861206	
6	73.30787205696106	fix_post	2		12	4.0	2.5	/experiments/AOT/AOT_stimuli/rescaled_final/1243_rv.mp4	0.0	96.13896298408508	0.10039997100830078
7	73.40827202796936	fix_pre	0		120	5.0	2.5	/experiments/AOT/AOT_stimuli/rescaled_final/1243_fw.mp4	0.0	96.23936295509338	0.9999830722808838
7	73.9917631149292	pulse	0	t		5.0	2.5	/experiments/AOT/AOT_stimuli/rescaled_final/1243_fw.mp4	0.0	96.82285404205322	
7	74.40825510025024	movie	1		245	5.0	2.5	/experiments/AOT/AOT_stimuli/rescaled_final/1243_fw.mp4	0.0	97.23934602737427	2.4999630451202393
7	75.59176898002625	pulse	1	t		5.0	2.5	/experiments/AOT/AOT_stimuli/rescaled_final/1243_fw.mp4	0.0	98.42285990715027	
7	76.90821814537048	fix_post	2		12	5.0	2.5	/experiments/AOT/AOT_stimuli/rescaled_final/1243_fw.mp4	0.0	99.7393090724945	0.10001802444458008
8	77.00823616981506	fix_pre	0		120	6.0	2.5	blank	1.0	99.83932709693909	0.9999589920043945
8	77.1917450428009	pulse	0	t		6.0	2.5	blank	1.0	100.02283596992493	
8	78.00819516181946	movie	1		300	6.0	2.5	blank	1.0	100.83928608894348	2.499985933303833
8	78.79170298576355	pulse	1	t		6.0	2.5	blank	1.0	101.62279391288757	
8	80.3916871547699	pulse	1	t		6.0	2.5	blank	1.0	103.22277808189392	
8	80.50818109512329	fix_post	2		12	6.0	2.5	blank	1.0	103.33927202224731	0.10000205039978027
9	80.60818314552307	fix_pre	0		120	7.0	2.5	/experiments/AOT/AOT_stimuli/rescaled_final/1415_fw.mp4	0.0	103.4392740726471	1.0000369548797607
9	81.60822010040283	movie	1		243	7.0	2.5	/experiments/AOT/AOT_stimuli/rescaled_final/1415_fw.mp4	0.0	104.43931102752686	2.4995980262756348
9	81.99146604537964	pulse	1	t		7.0	2.5	/experiments/AOT/AOT_stimuli/rescaled_final/1415_fw.mp4	0.0	104.82255697250366	
9	83.59172105789185	pulse	1	t		7.0	2.5	/experiments/AOT/AOT_stimuli/rescaled_final/1415_fw.mp4	0.0	106.42281198501587	
9	84.10781812667847	fix_post	2		12	7.0	2.5	/experiments/AOT/AOT_stimuli/rescaled_final/1415_fw.mp4	0.0	106.93890905380249	0.10040807723999023
10	84.20822620391846	fix_pre	0		119	8.0	2.5	/experiments/AOT/AOT_stimuli/rescaled_final/0255_rv.mp4	0.0	107.03931713104248	0.9916257858276367
10	85.1916651725769	pulse	0	t		8.0	2.5	/experiments/AOT/AOT_stimuli/rescaled_final/0255_rv.mp4	0.0	108.02275609970093	
10	85.1998519897461	movie	1		244	8.0	2.5	/experiments/AOT/AOT_stimuli/rescaled_final/0255_rv.mp4	0.0	108.03094291687012	2.5079681873321533
10	86.79311609268188	pulse	1	t		8.0	2.5	/experiments/AOT/AOT_stimuli/rescaled_final/0255_rv.mp4	0.0	109.62420701980591	
10	87.70782017707825	fix_post	2		12	8.0	2.5	/experiments/AOT/AOT_stimuli/rescaled_final/0255_rv.mp4	0.0	110.53891110420227	0.10034680366516113
11	87.80816698074341	fix_pre	0		120	9.0	2.5	/experiments/AOT/AOT_stimuli/rescaled_final/0119_rv.mp4	0.0	110.63925790786743	1.0000641345977783
11	88.3916289806366	pulse	0	t		9.0	2.5	/experiments/AOT/AOT_stimuli/rescaled_final/0119_rv.mp4	0.0	111.22271990776062	
11	88.80823111534119	movie	1		243	9.0	2.5	/experiments/AOT/AOT_stimuli/rescaled_final/0119_rv.mp4	0.0	111.63932204246521	2.499871015548706
11	89.99167513847351	pulse	1	t		9.0	2.5	/experiments/AOT/AOT_stimuli/rescaled_final/0119_rv.mp4	0.0	112.82276606559753	
11	91.30810213088989	fix_post	2		12	9.0	2.5	/experiments/AOT/AOT_stimuli/rescaled_final/0119_rv.mp4	0.0	114.13919305801392	0.10004591941833496
12	91.40814805030823	fix_pre	0		120	10.0	2.5	/experiments/AOT/AOT_stimuli/rescaled_final/1728_rv.mp4	0.0	114.23923897743225	1.0000300407409668
12	91.59170413017273	pulse	0	t		10.0	2.5	/experiments/AOT/AOT_stimuli/rescaled_final/1728_rv.mp4	0.0	114.42279505729675	
12	92.4081780910492	movie	1		242	10.0	2.5	/experiments/AOT/AOT_stimuli/rescaled_final/1728_rv.mp4	0.0	115.23926901817322	2.4999570846557617
12	93.1916811466217	pulse	1	t		10.0	2.5	/experiments/AOT/AOT_stimuli/rescaled_final/1728_rv.mp4	0.0	116.02277207374573	
12	94.79010510444641	pulse	1	t		10.0	2.5	/experiments/AOT/AOT_stimuli/rescaled_final/1728_rv.mp4	0.0	117.62119603157043	
12	94.90813517570496	fix_post	2		12	10.0	2.5	/experiments/AOT/AOT_stimuli/rescaled_final/1728_rv.mp4	0.0	117.73922610282898	0.10002779960632324
13	95.00816297531128	fix_pre	0		120	11.0	2.5	/experiments/AOT/AOT_stimuli/rescaled_final/1198_rv.mp4	0.0	117.8392539024353	0.9995830059051514
13	96.00774598121643	movie	1		242	11.0	2.5	/experiments/AOT/AOT_stimuli/rescaled_final/1198_rv.mp4	0.0	118.83883690834045	2.5000030994415283
13	96.39168500900269	pulse	1	t		11.0	2.5	/experiments/AOT/AOT_stimuli/rescaled_final/1198_rv.mp4	0.0	119.22277593612671	
13	97.99164700508118	pulse	1	t		11.0	2.5	/experiments/AOT/AOT_stimuli/rescaled_final/1198_rv.mp4	0.0	120.8227379322052	
13	98.50774908065796	fix_post	2		12	11.0	2.5	/experiments/AOT/AOT_stimuli/rescaled_final/1198_rv.mp4	0.0	121.33884000778198	0.10043001174926758
14	98.60817909240723	fix_pre	0		119	12.0	2.5	blank	1.0	121.43927001953125	0.9916520118713379
14	99.59157013893127	pulse	0	t		12.0	2.5	blank	1.0	122.4226610660553	
14	99.59983110427856	movie	1		301	12.0	2.5	blank	1.0	122.43092203140259	2.5083649158477783
14	101.19165802001953	pulse	1	t		12.0	2.5	blank	1.0	124.02274894714355	
14	102.10819602012634	fix_post	2		12	12.0	2.5	blank	1.0	124.93928694725037	0.0999000072479248
15	102.20809602737427	fix_pre	0		120	13.0	2.5	/experiments/AOT/AOT_stimuli/rescaled_final/1306_fw.mp4	0.0	125.03918695449829	1.0000391006469727
15	102.7916669845581	pulse	0	t		13.0	2.5	/experiments/AOT/AOT_stimuli/rescaled_final/1306_fw.mp4	0.0	125.62275791168213	
15	103.20813512802124	movie	1		244	13.0	2.5	/experiments/AOT/AOT_stimuli/rescaled_final/1306_fw.mp4	0.0	126.03922605514526	2.499955892562866
15	104.39179015159607	pulse	1	t		13.0	2.5	/experiments/AOT/AOT_stimuli/rescaled_final/1306_fw.mp4	0.0	127.22288107872009	
15	105.7080910205841	fix_post	2		12	13.0	2.5	/experiments/AOT/AOT_stimuli/rescaled_final/1306_fw.mp4	0.0	128.53918194770813	0.0999140739440918
16	105.8080050945282	fix_pre	0		120	14.0	2.5	/experiments/AOT/AOT_stimuli/rescaled_final/0940_rv.mp4	0.0	128.63909602165222	1.0001509189605713
16	105.9915840625763	pulse	0	t		14.0	2.5	/experiments/AOT/AOT_stimuli/rescaled_final/0940_rv.mp4	0.0	128.82267498970032	
16	106.80815601348877	movie	1		242	14.0	2.5	/experiments/AOT/AOT_stimuli/rescaled_final/0940_rv.mp4	0.0	129.6392469406128	2.4999310970306396
16	107.59163904190063	pulse	1	t		14.0	2.5	/experiments/AOT/AOT_stimuli/rescaled_final/0940_rv.mp4	0.0	130.42272996902466	
16	109.19026207923889	pulse	1	t		14.0	2.5	/experiments/AOT/AOT_stimuli/rescaled_final/0940_rv.mp4	0.0	132.02135300636292	
16	109.30808711051941	fix_post	2		12	14.0	2.5	/experiments/AOT/AOT_stimuli/rescaled_final/0940_rv.mp4	0.0	132.13917803764343	0.10012602806091309
17	109.40821313858032	fix_pre	0		120	15.0	2.5	/experiments/AOT/AOT_stimuli/rescaled_final/2158_rv.mp4	0.0	132.23930406570435	0.9999668598175049
17	110.40817999839783	movie	1		243	15.0	2.5	/experiments/AOT/AOT_stimuli/rescaled_final/2158_rv.mp4	0.0	133.23927092552185	2.499730110168457
17	110.79107308387756	pulse	1	t		15.0	2.5	/experiments/AOT/AOT_stimuli/rescaled_final/2158_rv.mp4	0.0	133.6221640110016	
17	112.39125418663025	pulse	1	t		15.0	2.5	/experiments/AOT/AOT_stimuli/rescaled_final/2158_rv.mp4	0.0	135.22234511375427	
17	112.90791010856628	fix_post	2		12	15.0	2.5	/experiments/AOT/AOT_stimuli/rescaled_final/2158_rv.mp4	0.0	135.7390010356903	0.09997200965881348
18	113.0078821182251	fix_pre	0		119	16.0	2.5	/experiments/AOT/AOT_stimuli/rescaled_final/0582_rv.mp4	0.0	135.83897304534912	0.9918758869171143
18	113.99165320396423	pulse	0	t		16.0	2.5	/experiments/AOT/AOT_stimuli/rescaled_final/0582_rv.mp4	0.0	136.82274413108826	
18	113.99975800514221	movie	1		245	16.0	2.5	/experiments/AOT/AOT_stimuli/rescaled_final/0582_rv.mp4	0.0	136.83084893226624	2.5082449913024902
18	115.59171319007874	pulse	1	t		16.0	2.5	/experiments/AOT/AOT_stimuli/rescaled_final/0582_rv.mp4	0.0	138.42280411720276	
18	116.5080029964447	fix_post	2		12	16.0	2.5	/experiments/AOT/AOT_stimuli/rescaled_final/0582_rv.mp4	0.0	139.33909392356873	0.10001420974731445
19	116.60801720619202	fix_pre	0		120	17.0	2.5	/experiments/AOT/AOT_stimuli/rescaled_final/1900_fw.mp4	0.0	139.43910813331604	0.9999959468841553
19	117.19156908988953	pulse	0	t		17.0	2.5	/experiments/AOT/AOT_stimuli/rescaled_final/1900_fw.mp4	0.0	140.02266001701355	
19	117.60801315307617	movie	1		244	17.0	2.5	/experiments/AOT/AOT_stimuli/rescaled_final/1900_fw.mp4	0.0	140.4391040802002	2.4995779991149902
19	118.7915461063385	pulse	1	t		17.0	2.5	/experiments/AOT/AOT_stimuli/rescaled_final/1900_fw.mp4	0.0	141.62263703346252	
19	120.10759115219116	fix_post	2		12	17.0	2.5	/experiments/AOT/AOT_stimuli/rescaled_final/1900_fw.mp4	0.0	142.93868207931519	0.1004190444946289
20	120.20801019668579	fix_pre	0		120	18.0	2.5	/experiments/AOT/AOT_stimuli/rescaled_final/0455_fw.mp4	0.0	143.03910112380981	0.9999117851257324
20	120.39150714874268	pulse	0	t		18.0	2.5	/experiments/AOT/AOT_stimuli/rescaled_final/0455_fw.mp4	0.0	143.2225980758667	
20	121.20792198181152	movie	1		244	18.0	2.5	/experiments/AOT/AOT_stimuli/rescaled_final/0455_fw.mp4	0.0	144.03901290893555	2.5000500679016113
20	121.99150013923645	pulse	1	t		18.0	2.5	/experiments/AOT/AOT_stimuli/rescaled_final/0455_fw.mp4	0.0	144.82259106636047	
20	123.58763217926025	pulse	1	t		18.0	2.5	/experiments/AOT/AOT_stimuli/rescaled_final/0455_fw.mp4	0.0	146.41872310638428	
20	123.70797204971313	fix_post	2		12	18.0	2.5	/experiments/AOT/AOT_stimuli/rescaled_final/0455_fw.mp4	0.0	146.53906297683716	0.10000109672546387
21	123.8079731464386	fix_pre	0		120	19.0	2.5	blank	1.0	146.63906407356262	0.999661922454834
21	124.80763506889343	movie	1		300	19.0	2.5	blank	1.0	147.63872599601746	2.5003409385681152
21	125.19149518013	pulse	1	t		19.0	2.5	blank	1.0	148.02258610725403	
21	126.79144501686096	pulse	1	t		19.0	2.5	blank	1.0	149.62253594398499	
21	127.30797600746155	fix_post	2		12	19.0	2.5	blank	1.0	150.13906693458557	0.09999299049377441
22	127.40796899795532	fix_pre	0		119	20.0	2.5	/experiments/AOT/AOT_stimuli/rescaled_final/0409_rv.mp4	0.0	150.23905992507935	0.9916331768035889
22	128.39145708084106	pulse	0	t		20.0	2.5	/experiments/AOT/AOT_stimuli/rescaled_final/0409_rv.mp4	0.0	151.2225480079651	
22	128.3996021747589	movie	1		247	20.0	2.5	/experiments/AOT/AOT_stimuli/rescaled_final/0409_rv.mp4	0.0	151.23069310188293	2.508420944213867
22	129.99124598503113	pulse	1	t		20.0	2.5	/experiments/AOT/AOT_stimuli/rescaled_final/0409_rv.mp4	0.0	152.82233691215515	
22	130.90802311897278	fix_post	2		12	20.0	2.5	/experiments/AOT/AOT_stimuli/rescaled_final/0409_rv.mp4	0.0	153.7391140460968	0.09995293617248535
23	131.00797605514526	fix_pre	0		120	21.0	2.5	/experiments/AOT/AOT_stimuli/rescaled_final/1489_fw.mp4	0.0	153.8390669822693	0.9995450973510742
23	131.59150099754333	pulse	0	t		21.0	2.5	/experiments/AOT/AOT_stimuli/rescaled_final/1489_fw.mp4	0.0	154.42259192466736	
23	132.00752115249634	movie	1		245	21.0	2.5	/experiments/AOT/AOT_stimuli/rescaled_final/1489_fw.mp4	0.0	154.83861207962036	2.50049090385437
23	133.19152998924255	pulse	1	t		21.0	2.5	/experiments/AOT/AOT_stimuli/rescaled_final/1489_fw.mp4	0.0	156.02262091636658	
23	134.5080120563507	fix_post	2		12	21.0	2.5	/experiments/AOT/AOT_stimuli/rescaled_final/1489_fw.mp4	0.0	157.33910298347473	0.09989595413208008
24	134.6079080104828	fix_pre	0		120	22.0	2.5	/experiments/AOT/AOT_stimuli/rescaled_final/1779_fw.mp4	0.0	157.4389989376068	0.9997091293334961
24	134.79143404960632	pulse	0	t		22.0	2.5	/experiments/AOT/AOT_stimuli/rescaled_final/1779_fw.mp4	0.0	157.62252497673035	
24	135.60761713981628	movie	1		245	22.0	2.5	/experiments/AOT/AOT_stimuli/rescaled_final/1779_fw.mp4	0.0	158.4387080669403	2.5002830028533936
24	136.39143705368042	pulse	1	t		22.0	2.5	/experiments/AOT/AOT_stimuli/rescaled_final/1779_fw.mp4	0.0	159.22252798080444	
24	137.9901201725006	pulse	1	t		22.0	2.5	/experiments/AOT/AOT_stimuli/rescaled_final/1779_fw.mp4	0.0	160.82121109962463	
24	138.10790014266968	fix_post	2		12	22.0	2.5	/experiments/AOT/AOT_stimuli/rescaled_final/1779_fw.mp4	0.0	160.9389910697937	0.10002589225769043
25	138.20792603492737	fix_pre	0		120	23.0	2.5	/experiments/AOT/AOT_stimuli/rescaled_final/0987_fw.mp4	0.0	161.0390169620514	1.0000050067901611
25	139.20793104171753	movie	1		244	23.0	2.5	/experiments/AOT/AOT_stimuli/rescaled_final/0987_fw.mp4	0.0	162.03902196884155	2.4999871253967285
25	139.59091806411743	pulse	1	t		23.0	2.5	/experiments/AOT/AOT_stimuli/rescaled_final/0987_fw.mp4	0.0	162.42200899124146	
25	141.19148206710815	pulse	1	t		23.0	2.5	/experiments/AOT/AOT_stimuli/rescaled_final/0987_fw.mp4	0.0	164.02257299423218	
25	141.70791816711426	fix_post	2		12	23.0	2.5	/experiments/AOT/AOT_stimuli/rescaled_final/0987_fw.mp4	0.0	164.53900909423828	0.09996986389160156
26	141.80788803100586	fix_pre	0		119	24.0	2.5	/experiments/AOT/AOT_stimuli/rescaled_final/1478_fw.mp4	0.0	164.63897895812988	0.9917111396789551
26	142.79150104522705	pulse	0	t		24.0	2.5	/experiments/AOT/AOT_stimuli/rescaled_final/1478_fw.mp4	0.0	165.62259197235107	
26	142.79959917068481	movie	1		245	24.0	2.5	/experiments/AOT/AOT_stimuli/rescaled_final/1478_fw.mp4	0.0	165.63069009780884	2.508296012878418
26	144.39098501205444	pulse	1	t		24.0	2.5	/experiments/AOT/AOT_stimuli/rescaled_final/1478_fw.mp4	0.0	167.22207593917847	
26	145.30789518356323	fix_post	2		12	24.0	2.5	/experiments/AOT/AOT_stimuli/rescaled_final/1478_fw.mp4	0.0	168.13898611068726	0.09999680519104004
27	145.40789198875427	fix_pre	0		120	25.0	2.5	/experiments/AOT/AOT_stimuli/rescaled_final/1036_fw.mp4	0.0	168.2389829158783	0.9999120235443115
27	145.99143314361572	pulse	0	t		25.0	2.5	/experiments/AOT/AOT_stimuli/rescaled_final/1036_fw.mp4	0.0	168.82252407073975	
27	146.40780401229858	movie	1		243	25.0	2.5	/experiments/AOT/AOT_stimuli/rescaled_final/1036_fw.mp4	0.0	169.2388949394226	2.4996190071105957
27	147.59142017364502	pulse	1	t		25.0	2.5	/experiments/AOT/AOT_stimuli/rescaled_final/1036_fw.mp4	0.0	170.42251110076904	
27	148.90742301940918	fix_post	2		12	25.0	2.5	/experiments/AOT/AOT_stimuli/rescaled_final/1036_fw.mp4	0.0	171.7385139465332	0.10009503364562988
28	149.0075180530548	fix_pre	0		120	26.0	2.5	/experiments/AOT/AOT_stimuli/rescaled_final/2067_fw.mp4	0.0	171.83860898017883	1.0002999305725098
28	149.19139003753662	pulse	0	t		26.0	2.5	/experiments/AOT/AOT_stimuli/rescaled_final/2067_fw.mp4	0.0	172.02248096466064	
28	150.00781798362732	movie	1		246	26.0	2.5	/experiments/AOT/AOT_stimuli/rescaled_final/2067_fw.mp4	0.0	172.83890891075134	2.50002121925354
28	150.79134798049927	pulse	1	t		26.0	2.5	/experiments/AOT/AOT_stimuli/rescaled_final/2067_fw.mp4	0.0	173.6224389076233	
28	152.39087510108948	pulse	1	t		26.0	2.5	/experiments/AOT/AOT_stimuli/rescaled_final/2067_fw.mp4	0.0	175.2219660282135	
28	152.50783920288086	fix_post	2		12	26.0	2.5	/experiments/AOT/AOT_stimuli/rescaled_final/2067_fw.mp4	0.0	175.33893013000488	0.09998393058776855
29	152.60782313346863	fix_pre	0		120	27.0	2.5	blank	1.0	175.43891406059265	1.0000109672546387
29	153.60783410072327	movie	1		300	27.0	2.5	blank	1.0	176.4389250278473	2.4995429515838623
29	153.99135398864746	pulse	1	t		27.0	2.5	blank	1.0	176.82244491577148	
29	155.5913372039795	pulse	1	t		27.0	2.5	blank	1.0	178.42242813110352	
29	156.10737705230713	fix_post	2		12	27.0	2.5	blank	1.0	178.93846797943115	0.10042500495910645
30	156.20780205726624	fix_pre	0		119	28.0	2.5	/experiments/AOT/AOT_stimuli/rescaled_final/1023_rv.mp4	0.0	179.03889298439026	0.9917409420013428
30	157.19138598442078	pulse	0	t		28.0	2.5	/experiments/AOT/AOT_stimuli/rescaled_final/1023_rv.mp4	0.0	180.0224769115448	
30	157.19954299926758	movie	1		244	28.0	2.5	/experiments/AOT/AOT_stimuli/rescaled_final/1023_rv.mp4	0.0	180.0306339263916	2.508261203765869
30	158.79147100448608	pulse	1	t		28.0	2.5	/experiments/AOT/AOT_stimuli/rescaled_final/1023_rv.mp4	0.0	181.6225619316101	
30	159.70780420303345	fix_post	2		12	28.0	2.5	/experiments/AOT/AOT_stimuli/rescaled_final/1023_rv.mp4	0.0	182.53889513015747	0.1000978946685791
31	159.80790209770203	fix_pre	0		120	29.0	2.5	/experiments/AOT/AOT_stimuli/rescaled_final/1078_rv.mp4	0.0	182.63899302482605	0.999967098236084
31	160.39124298095703	pulse	0	t		29.0	2.5	/experiments/AOT/AOT_stimuli/rescaled_final/1078_rv.mp4	0.0	183.22233390808105	
31	160.8078691959381	movie	1		243	29.0	2.5	/experiments/AOT/AOT_stimuli/rescaled_final/1078_rv.mp4	0.0	183.63896012306213	2.499915838241577
31	161.99135613441467	pulse	1	t		29.0	2.5	/experiments/AOT/AOT_stimuli/rescaled_final/1078_rv.mp4	0.0	184.8224470615387	
31	163.3077850341797	fix_post	2		12	29.0	2.5	/experiments/AOT/AOT_stimuli/rescaled_final/1078_rv.mp4	0.0	186.1388759613037	0.1000511646270752
32	163.40783619880676	fix_pre	0		120	30.0	2.5	/experiments/AOT/AOT_stimuli/rescaled_final/2072_fw.mp4	0.0	186.2389271259308	0.9999067783355713
32	163.59139919281006	pulse	0	t		30.0	2.5	/experiments/AOT/AOT_stimuli/rescaled_final/2072_fw.mp4	0.0	186.42249011993408	
32	164.40774297714233	movie	1		244	30.0	2.5	/experiments/AOT/AOT_stimuli/rescaled_final/2072_fw.mp4	0.0	187.23883390426636	2.500136137008667
32	165.1907889842987	pulse	1	t		30.0	2.5	/experiments/AOT/AOT_stimuli/rescaled_final/2072_fw.mp4	0.0	188.02187991142273	
32	166.78971600532532	pulse	1	t		30.0	2.5	/experiments/AOT/AOT_stimuli/rescaled_final/2072_fw.mp4	0.0	189.62080693244934	
32	166.907879114151	fix_post	2		12	30.0	2.5	/experiments/AOT/AOT_stimuli/rescaled_final/2072_fw.mp4	0.0	189.73897004127502	0.09952092170715332
33	167.00740003585815	fix_pre	0		120	31.0	2.5	/experiments/AOT/AOT_stimuli/rescaled_final/1426_rv.mp4	0.0	189.83849096298218	1.0006170272827148
33	168.00801706314087	movie	1		247	31.0	2.5	/experiments/AOT/AOT_stimuli/rescaled_final/1426_rv.mp4	0.0	190.8391079902649	2.499768018722534
33	168.39062404632568	pulse	1	t		31.0	2.5	/experiments/AOT/AOT_stimuli/rescaled_final/1426_rv.mp4	0.0	191.2217149734497	
33	169.9913341999054	pulse	1	t		31.0	2.5	/experiments/AOT/AOT_stimuli/rescaled_final/1426_rv.mp4	0.0	192.82242512702942	
33	170.5077850818634	fix_post	2		12	31.0	2.5	/experiments/AOT/AOT_stimuli/rescaled_final/1426_rv.mp4	0.0	193.33887600898743	0.10005497932434082
34	170.60784006118774	fix_pre	0		119	32.0	2.5	/experiments/AOT/AOT_stimuli/rescaled_final/1557_rv.mp4	0.0	193.43893098831177	0.991584062576294
34	171.59131908416748	pulse	0	t		32.0	2.5	/experiments/AOT/AOT_stimuli/rescaled_final/1557_rv.mp4	0.0	194.4224100112915	
34	171.59942412376404	movie	1		246	32.0	2.5	/experiments/AOT/AOT_stimuli/rescaled_final/1557_rv.mp4	0.0	194.43051505088806	2.5082828998565674
34	173.1913959980011	pulse	1	t		32.0	2.5	/experiments/AOT/AOT_stimuli/rescaled_final/1557_rv.mp4	0.0	196.02248692512512	
34	174.1077070236206	fix_post	2		12	32.0	2.5	/experiments/AOT/AOT_stimuli/rescaled_final/1557_rv.mp4	0.0	196.93879795074463	0.09996795654296875
35	174.20767498016357	fix_pre	0		120	33.0	2.5	/experiments/AOT/AOT_stimuli/rescaled_final/0060_fw.mp4	0.0	197.0387659072876	1.0001800060272217
35	174.7911741733551	pulse	0	t		33.0	2.5	/experiments/AOT/AOT_stimuli/rescaled_final/0060_fw.mp4	0.0	197.62226510047913	
35	175.2078549861908	movie	1		245	33.0	2.5	/experiments/AOT/AOT_stimuli/rescaled_final/0060_fw.mp4	0.0	198.03894591331482	2.499500036239624
35	176.3913769721985	pulse	1	t		33.0	2.5	/experiments/AOT/AOT_stimuli/rescaled_final/0060_fw.mp4	0.0	199.2224678993225	
35	177.70735502243042	fix_post	2		12	33.0	2.5	/experiments/AOT/AOT_stimuli/rescaled_final/0060_fw.mp4	0.0	200.53844594955444	0.10034513473510742
36	177.80770015716553	fix_pre	0		120	34.0	2.5	blank	1.0	200.63879108428955	1.000025987625122
36	177.99124813079834	pulse	0	t		34.0	2.5	blank	1.0	200.82233905792236	
36	178.80772614479065	movie	1		300	34.0	2.5	blank	1.0	201.63881707191467	2.500062942504883
36	179.5911741256714	pulse	1	t		34.0	2.5	blank	1.0	202.4222650527954	
36	181.19123005867004	pulse	1	t		34.0	2.5	blank	1.0	204.02232098579407	
36	181.30778908729553	fix_post	2		12	34.0	2.5	blank	1.0	204.13888001441956	0.09999799728393555
37	181.40778708457947	fix_pre	0		120	35.0	2.5	/experiments/AOT/AOT_stimuli/rescaled_final/1254_rv.mp4	0.0	204.2388780117035	0.9998979568481445
37	182.4076850414276	movie	1		244	35.0	2.5	/experiments/AOT/AOT_stimuli/rescaled_final/1254_rv.mp4	0.0	205.23877596855164	2.500066041946411
37	182.7911901473999	pulse	1	t		35.0	2.5	/experiments/AOT/AOT_stimuli/rescaled_final/1254_rv.mp4	0.0	205.62228107452393	
37	184.39123916625977	pulse	1	t		35.0	2.5	/experiments/AOT/AOT_stimuli/rescaled_final/1254_rv.mp4	0.0	207.2223300933838	
37	184.90775108337402	fix_post	2		12	35.0	2.5	/experiments/AOT/AOT_stimuli/rescaled_final/1254_rv.mp4	0.0	207.73884201049805	0.09998703002929688
38	185.00773811340332	fix_pre	0		119	36.0	2.5	/experiments/AOT/AOT_stimuli/rescaled_final/1579_rv.mp4	0.0	207.83882904052734	0.9916269779205322
38	185.9912350177765	pulse	0	t		36.0	2.5	/experiments/AOT/AOT_stimuli/rescaled_final/1579_rv.mp4	0.0	208.8223259449005	
38	185.99936509132385	movie	1		245	36.0	2.5	/experiments/AOT/AOT_stimuli/rescaled_final/1579_rv.mp4	0.0	208.83045601844788	2.508347988128662
38	187.59248399734497	pulse	1	t		36.0	2.5	/experiments/AOT/AOT_stimuli/rescaled_final/1579_rv.mp4	0.0	210.423574924469	
38	188.50771307945251	fix_post	2		12	36.0	2.5	/experiments/AOT/AOT_stimuli/rescaled_final/1579_rv.mp4	0.0	211.33880400657654	0.09998703002929688
39	188.6077001094818	fix_pre	0		120	37.0	2.5	/experiments/AOT/AOT_stimuli/rescaled_final/1882_rv.mp4	0.0	211.43879103660583	1.0000379085540771
39	189.19121313095093	pulse	0	t		37.0	2.5	/experiments/AOT/AOT_stimuli/rescaled_final/1882_rv.mp4	0.0	212.02230405807495	
39	189.6077380180359	movie	1		244	37.0	2.5	/experiments/AOT/AOT_stimuli/rescaled_final/1882_rv.mp4	0.0	212.4388289451599	2.499864101409912
39	190.79120802879333	pulse	1	t		37.0	2.5	/experiments/AOT/AOT_stimuli/rescaled_final/1882_rv.mp4	0.0	213.62229895591736	
39	192.1076021194458	fix_post	2		12	37.0	2.5	/experiments/AOT/AOT_stimuli/rescaled_final/1882_rv.mp4	0.0	214.93869304656982	0.10009908676147461
40	192.20770120620728	fix_pre	0		120	38.0	2.5	/experiments/AOT/AOT_stimuli/rescaled_final/0672_fw.mp4	0.0	215.0387921333313	0.9999837875366211
40	192.3910629749298	pulse	0	t		38.0	2.5	/experiments/AOT/AOT_stimuli/rescaled_final/0672_fw.mp4	0.0	215.22215390205383	
40	193.2076849937439	movie	1		245	38.0	2.5	/experiments/AOT/AOT_stimuli/rescaled_final/0672_fw.mp4	0.0	216.03877592086792	2.499912977218628
40	193.9912211894989	pulse	1	t		38.0	2.5	/experiments/AOT/AOT_stimuli/rescaled_final/0672_fw.mp4	0.0	216.82231211662292	
40	195.5897181034088	pulse	1	t		38.0	2.5	/experiments/AOT/AOT_stimuli/rescaled_final/0672_fw.mp4	0.0	218.42080903053284	
40	195.70759797096252	fix_post	2		12	38.0	2.5	/experiments/AOT/AOT_stimuli/rescaled_final/0672_fw.mp4	0.0	218.53868889808655	0.10000920295715332
41	195.80760717391968	fix_pre	0		120	39.0	2.5	/experiments/AOT/AOT_stimuli/rescaled_final/0814_rv.mp4	0.0	218.6386981010437	0.999640941619873
41	196.80724811553955	movie	1		247	39.0	2.5	/experiments/AOT/AOT_stimuli/rescaled_final/0814_rv.mp4	0.0	219.63833904266357	2.4999449253082275
41	197.19126915931702	pulse	1	t		39.0	2.5	/experiments/AOT/AOT_stimuli/rescaled_final/0814_rv.mp4	0.0	220.02236008644104	
41	198.79122710227966	pulse	1	t		39.0	2.5	/experiments/AOT/AOT_stimuli/rescaled_final/0814_rv.mp4	0.0	221.6223180294037	
41	199.30719304084778	fix_post	2		12	39.0	2.5	/experiments/AOT/AOT_stimuli/rescaled_final/0814_rv.mp4	0.0	222.1382839679718	0.1004641056060791
42	199.40765714645386	fix_pre	0		119	40.0	2.5	blank	1.0	222.23874807357788	0.9915969371795654
42	200.39115715026855	pulse	0	t		40.0	2.5	blank	1.0	223.22224807739258	
42	200.39925408363342	movie	1		301	40.0	2.5	blank	1.0	223.23034501075745	2.508012056350708
42	201.99114298820496	pulse	1	t		40.0	2.5	blank	1.0	224.82223391532898	
42	202.90726613998413	fix_post	2		12	40.0	2.5	blank	1.0	225.73835706710815	0.10033202171325684
43	203.0075981616974	fix_pre	0		120	41.0	2.5	/experiments/AOT/AOT_stimuli/rescaled_final/1797_rv.mp4	0.0	225.8386890888214	0.9996578693389893
43	203.5911581516266	pulse	0	t		41.0	2.5	/experiments/AOT/AOT_stimuli/rescaled_final/1797_rv.mp4	0.0	226.4222490787506	
43	204.00725603103638	movie	1		245	41.0	2.5	/experiments/AOT/AOT_stimuli/rescaled_final/1797_rv.mp4	0.0	226.8383469581604	2.500041961669922
43	205.1914291381836	pulse	1	t		41.0	2.5	/experiments/AOT/AOT_stimuli/rescaled_final/1797_rv.mp4	0.0	228.02252006530762	
43	206.5072979927063	fix_post	2		12	41.0	2.5	/experiments/AOT/AOT_stimuli/rescaled_final/1797_rv.mp4	0.0	229.33838891983032	0.10030007362365723
44	206.60759806632996	fix_pre	0		120	42.0	2.5	/experiments/AOT/AOT_stimuli/rescaled_final/1759_fw.mp4	0.0	229.43868899345398	1.000067949295044
44	206.79110312461853	pulse	0	t		42.0	2.5	/experiments/AOT/AOT_stimuli/rescaled_final/1759_fw.mp4	0.0	229.62219405174255	
44	207.607666015625	movie	1		244	42.0	2.5	/experiments/AOT/AOT_stimuli/rescaled_final/1759_fw.mp4	0.0	230.43875694274902	2.4999141693115234
44	208.39111709594727	pulse	1	t		42.0	2.5	/experiments/AOT/AOT_stimuli/rescaled_final/1759_fw.mp4	0.0	231.2222080230713	
44	209.9896640777588	pulse	1	t		42.0	2.5	/experiments/AOT/AOT_stimuli/rescaled_final/1759_fw.mp4	0.0	232.8207550048828	
44	210.10758018493652	fix_post	2		12	42.0	2.5	/experiments/AOT/AOT_stimuli/rescaled_final/1759_fw.mp4	0.0	232.93867111206055	0.09999394416809082
45	210.20757412910461	fix_pre	0		120	43.0	2.5	/experiments/AOT/AOT_stimuli/rescaled_final/1055_rv.mp4	0.0	233.03866505622864	0.9999969005584717
45	211.2075710296631	movie	1		244	43.0	2.5	/experiments/AOT/AOT_stimuli/rescaled_final/1055_rv.mp4	0.0	234.0386619567871	2.499876022338867
45	211.59083008766174	pulse	1	t		43.0	2.5	/experiments/AOT/AOT_stimuli/rescaled_final/1055_rv.mp4	0.0	234.42192101478577	
45	213.19125604629517	pulse	1	t		43.0	2.5	/experiments/AOT/AOT_stimuli/rescaled_final/1055_rv.mp4	0.0	236.0223469734192	
45	213.70744705200195	fix_post	2		12	43.0	2.5	/experiments/AOT/AOT_stimuli/rescaled_final/1055_rv.mp4	0.0	236.53853797912598	0.10013914108276367
46	213.80758619308472	fix_pre	0		119	44.0	2.5	/experiments/AOT/AOT_stimuli/rescaled_final/1236_rv.mp4	0.0	236.63867712020874	0.9916818141937256
46	214.79107117652893	pulse	0	t		44.0	2.5	/experiments/AOT/AOT_stimuli/rescaled_final/1236_rv.mp4	0.0	237.62216210365295	
46	214.79926800727844	movie	1		245	44.0	2.5	/experiments/AOT/AOT_stimuli/rescaled_final/1236_rv.mp4	0.0	237.63035893440247	2.5082671642303467
46	216.3908941745758	pulse	1	t		44.0	2.5	/experiments/AOT/AOT_stimuli/rescaled_final/1236_rv.mp4	0.0	239.22198510169983	
46	217.3075351715088	fix_post	2		12	44.0	2.5	/experiments/AOT/AOT_stimuli/rescaled_final/1236_rv.mp4	0.0	240.1386260986328	0.09999799728393555
47	217.40753316879272	fix_pre	0		120	45.0	2.5	/experiments/AOT/AOT_stimuli/rescaled_final/0815_fw.mp4	0.0	240.23862409591675	1.0000779628753662
47	217.9910261631012	pulse	0	t		45.0	2.5	/experiments/AOT/AOT_stimuli/rescaled_final/0815_fw.mp4	0.0	240.82211709022522	
47	218.4076111316681	movie	1		243	45.0	2.5	/experiments/AOT/AOT_stimuli/rescaled_final/0815_fw.mp4	0.0	241.23870205879211	2.499526023864746
47	219.59103798866272	pulse	1	t		45.0	2.5	/experiments/AOT/AOT_stimuli/rescaled_final/0815_fw.mp4	0.0	242.42212891578674	
47	220.90713715553284	fix_post	2		12	45.0	2.5	/experiments/AOT/AOT_stimuli/rescaled_final/0815_fw.mp4	0.0	243.73822808265686	0.10043692588806152
48	221.0075740814209	fix_pre	0		120	46.0	2.5	/experiments/AOT/AOT_stimuli/rescaled_final/0255_fw.mp4	0.0	243.83866500854492	1.000040054321289
48	221.19101405143738	pulse	0	t		46.0	2.5	/experiments/AOT/AOT_stimuli/rescaled_final/0255_fw.mp4	0.0	244.0221049785614	
48	222.0076141357422	movie	1		245	46.0	2.5	/experiments/AOT/AOT_stimuli/rescaled_final/0255_fw.mp4	0.0	244.8387050628662	2.5001418590545654
48	222.79062819480896	pulse	1	t		46.0	2.5	/experiments/AOT/AOT_stimuli/rescaled_final/0255_fw.mp4	0.0	245.62171912193298	
48	224.38972520828247	pulse	1	t		46.0	2.5	/experiments/AOT/AOT_stimuli/rescaled_final/0255_fw.mp4	0.0	247.2208161354065	
48	224.50775599479675	fix_post	2		12	46.0	2.5	/experiments/AOT/AOT_stimuli/rescaled_final/0255_fw.mp4	0.0	247.33884692192078	0.09966111183166504
49	224.60741710662842	fix_pre	0		120	47.0	2.5	/experiments/AOT/AOT_stimuli/rescaled_final/0349_fw.mp4	0.0	247.43850803375244	1.0001108646392822
49	225.6075279712677	movie	1		245	47.0	2.5	/experiments/AOT/AOT_stimuli/rescaled_final/0349_fw.mp4	0.0	248.43861889839172	2.4999701976776123
49	225.9908721446991	pulse	1	t		47.0	2.5	/experiments/AOT/AOT_stimuli/rescaled_final/0349_fw.mp4	0.0	248.82196307182312	
49	227.59095406532288	pulse	1	t		47.0	2.5	/experiments/AOT/AOT_stimuli/rescaled_final/0349_fw.mp4	0.0	250.4220449924469	
49	228.1074981689453	fix_post	2		12	47.0	2.5	/experiments/AOT/AOT_stimuli/rescaled_final/0349_fw.mp4	0.0	250.93858909606934	0.09997200965881348
50	228.20747017860413	fix_pre	0		119	48.0	2.5	/experiments/AOT/AOT_stimuli/rescaled_final/1296_fw.mp4	0.0	251.03856110572815	0.9916818141937256
50	229.19107913970947	pulse	0	t		48.0	2.5	/experiments/AOT/AOT_stimuli/rescaled_final/1296_fw.mp4	0.0	252.0221700668335	
50	229.19915199279785	movie	1		248	48.0	2.5	/experiments/AOT/AOT_stimuli/rescaled_final/1296_fw.mp4	0.0	252.03024291992188	2.5083789825439453
50	230.7909791469574	pulse	1	t		48.0	2.5	/experiments/AOT/AOT_stimuli/rescaled_final/1296_fw.mp4	0.0	253.62207007408142	
50	231.7075309753418	fix_post	2		12	48.0	2.5	/experiments/AOT/AOT_stimuli/rescaled_final/1296_fw.mp4	0.0	254.53862190246582	0.09987616539001465
51	231.8074071407318	fix_pre	0		120	49.0	2.5	blank	1.0	254.63849806785583	0.9996428489685059
51	232.3909420967102	pulse	0	t		49.0	2.5	blank	1.0	255.22203302383423	
51	232.80704998970032	movie	1		300	49.0	2.5	blank	1.0	255.63814091682434	2.5003581047058105
51	233.9908881187439	pulse	1	t		49.0	2.5	blank	1.0	256.8219790458679	
51	235.30740809440613	fix_post	2		12	49.0	2.5	blank	1.0	258.13849902153015	0.10003399848937988
52	235.4074420928955	fix_pre	0		120	50.0	2.5	/experiments/AOT/AOT_stimuli/rescaled_final/1096_fw.mp4	0.0	258.23853302001953	0.9999880790710449
52	235.59094214439392	pulse	0	t		50.0	2.5	/experiments/AOT/AOT_stimuli/rescaled_final/1096_fw.mp4	0.0	258.42203307151794	
52	236.40743017196655	movie	1		247	50.0	2.5	/experiments/AOT/AOT_stimuli/rescaled_final/1096_fw.mp4	0.0	259.2385210990906	2.50008487701416
52	237.19091510772705	pulse	1	t		50.0	2.5	/experiments/AOT/AOT_stimuli/rescaled_final/1096_fw.mp4	0.0	260.0220060348511	
52	238.79112720489502	pulse	1	t		50.0	2.5	/experiments/AOT/AOT_stimuli/rescaled_final/1096_fw.mp4	0.0	261.62221813201904	
52	238.9075150489807	fix_post	2		12	50.0	2.5	/experiments/AOT/AOT_stimuli/rescaled_final/1096_fw.mp4	0.0	261.73860597610474	0.09951615333557129
53	239.00703120231628	fix_pre	0		120	51.0	2.5	/experiments/AOT/AOT_stimuli/rescaled_final/1634_rv.mp4	0.0	261.8381221294403	1.0000038146972656
53	240.00703501701355	movie	1		248	51.0	2.5	/experiments/AOT/AOT_stimuli/rescaled_final/1634_rv.mp4	0.0	262.8381259441376	2.500364065170288
53	240.39054918289185	pulse	1	t		51.0	2.5	/experiments/AOT/AOT_stimuli/rescaled_final/1634_rv.mp4	0.0	263.22164011001587	
53	241.99092817306519	pulse	1	t		51.0	2.5	/experiments/AOT/AOT_stimuli/rescaled_final/1634_rv.mp4	0.0	264.8220191001892	
53	242.50739908218384	fix_post	2		12	51.0	2.5	/experiments/AOT/AOT_stimuli/rescaled_final/1634_rv.mp4	0.0	265.33849000930786	0.10011410713195801
54	242.6075131893158	fix_pre	0		119	52.0	2.5	/experiments/AOT/AOT_stimuli/rescaled_final/1719_rv.mp4	0.0	265.4386041164398	0.9916038513183594
54	243.59092617034912	pulse	0	t		52.0	2.5	/experiments/AOT/AOT_stimuli/rescaled_final/1719_rv.mp4	0.0	266.42201709747314	
54	243.59911704063416	movie	1		246	52.0	2.5	/experiments/AOT/AOT_stimuli/rescaled_final/1719_rv.mp4	0.0	266.4302079677582	2.508258104324341
54	245.19045305252075	pulse	1	t		52.0	2.5	/experiments/AOT/AOT_stimuli/rescaled_final/1719_rv.mp4	0.0	268.0215439796448	
54	246.1073751449585	fix_post	2		12	52.0	2.5	/experiments/AOT/AOT_stimuli/rescaled_final/1719_rv.mp4	0.0	268.9384660720825	0.1000070571899414
55	246.20738220214844	fix_pre	0		120	53.0	2.5	/experiments/AOT/AOT_stimuli/rescaled_final/1489_fw.mp4	0.0	269.03847312927246	0.9999949932098389
55	246.79089617729187	pulse	0	t		53.0	2.5	/experiments/AOT/AOT_stimuli/rescaled_final/1489_fw.mp4	0.0	269.6219871044159	
55	247.20737719535828	movie	1		245	53.0	2.5	/experiments/AOT/AOT_stimuli/rescaled_final/1489_fw.mp4	0.0	270.0384681224823	2.499983787536621
55	248.39097619056702	pulse	1	t		53.0	2.5	/experiments/AOT/AOT_stimuli/rescaled_final/1489_fw.mp4	0.0	271.22206711769104	
55	249.7073609828949	fix_post	2		12	53.0	2.5	/experiments/AOT/AOT_stimuli/rescaled_final/1489_fw.mp4	0.0	272.5384519100189	0.10006999969482422
56	249.80743098258972	fix_pre	0		120	54.0	2.5	/experiments/AOT/AOT_stimuli/rescaled_final/1085_fw.mp4	0.0	272.63852190971375	0.9999291896820068
56	249.99091506004333	pulse	0	t		54.0	2.5	/experiments/AOT/AOT_stimuli/rescaled_final/1085_fw.mp4	0.0	272.82200598716736	
56	250.80736017227173	movie	1		245	54.0	2.5	/experiments/AOT/AOT_stimuli/rescaled_final/1085_fw.mp4	0.0	273.63845109939575	2.50010085105896
56	251.5908989906311	pulse	1	t		54.0	2.5	/experiments/AOT/AOT_stimuli/rescaled_final/1085_fw.mp4	0.0	274.4219899177551	
56	253.18951511383057	pulse	1	t		54.0	2.5	/experiments/AOT/AOT_stimuli/rescaled_final/1085_fw.mp4	0.0	276.0206060409546	
56	253.3074610233307	fix_post	2		12	54.0	2.5	/experiments/AOT/AOT_stimuli/rescaled_final/1085_fw.mp4	0.0	276.1385519504547	0.09994316101074219
57	253.40740418434143	fix_pre	0		120	55.0	2.5	/experiments/AOT/AOT_stimuli/rescaled_final/1461_rv.mp4	0.0	276.23849511146545	0.9999408721923828
57	254.4073450565338	movie	1		246	55.0	2.5	/experiments/AOT/AOT_stimuli/rescaled_final/1461_rv.mp4	0.0	277.23843598365784	2.5000650882720947
57	254.79072499275208	pulse	1	t		55.0	2.5	/experiments/AOT/AOT_stimuli/rescaled_final/1461_rv.mp4	0.0	277.6218159198761	
57	256.3908920288086	pulse	1	t		55.0	2.5	/experiments/AOT/AOT_stimuli/rescaled_final/1461_rv.mp4	0.0	279.2219829559326	
57	256.9074101448059	fix_post	2		12	55.0	2.5	/experiments/AOT/AOT_stimuli/rescaled_final/1461_rv.mp4	0.0	279.73850107192993	0.09999585151672363
58	257.00740599632263	fix_pre	0		119	56.0	2.5	blank	1.0	279.83849692344666	0.9916369915008545
58	257.99090909957886	pulse	0	t		56.0	2.5	blank	1.0	280.8220000267029	
58	257.9990429878235	movie	1		301	56.0	2.5	blank	1.0	280.8301339149475	2.5083391666412354
58	259.5908770561218	pulse	1	t		56.0	2.5	blank	1.0	282.42196798324585	
58	260.5073821544647	fix_post	2		12	56.0	2.5	blank	1.0	283.33847308158875	0.09995388984680176
59	260.6073360443115	fix_pre	0		120	57.0	2.5	/experiments/AOT/AOT_stimuli/rescaled_final/0547_rv.mp4	0.0	283.43842697143555	0.999575138092041
59	261.1909010410309	pulse	0	t		57.0	2.5	/experiments/AOT/AOT_stimuli/rescaled_final/0547_rv.mp4	0.0	284.0219919681549	
59	261.60691118240356	movie	1		244	57.0	2.5	/experiments/AOT/AOT_stimuli/rescaled_final/0547_rv.mp4	0.0	284.4380021095276	2.500358819961548
59	262.7909719944	pulse	1	t		57.0	2.5	/experiments/AOT/AOT_stimuli/rescaled_final/0547_rv.mp4	0.0	285.62206292152405	
59	264.1072700023651	fix_post	2		12	57.0	2.5	/experiments/AOT/AOT_stimuli/rescaled_final/0547_rv.mp4	0.0	286.93836092948914	0.10009908676147461
60	264.2073690891266	fix_pre	0		120	58.0	2.5	/experiments/AOT/AOT_stimuli/rescaled_final/0484_fw.mp4	0.0	287.0384600162506	1.000067949295044
60	264.3909161090851	pulse	0	t		58.0	2.5	/experiments/AOT/AOT_stimuli/rescaled_final/0484_fw.mp4	0.0	287.2220070362091	
60	265.20743703842163	movie	1		244	58.0	2.5	/experiments/AOT/AOT_stimuli/rescaled_final/0484_fw.mp4	0.0	288.03852796554565	2.499413013458252
60	265.99082112312317	pulse	1	t		58.0	2.5	/experiments/AOT/AOT_stimuli/rescaled_final/0484_fw.mp4	0.0	288.8219120502472	
60	267.59086513519287	pulse	1	t		58.0	2.5	/experiments/AOT/AOT_stimuli/rescaled_final/0484_fw.mp4	0.0	290.4219560623169	
60	267.7068500518799	fix_post	2		12	58.0	2.5	/experiments/AOT/AOT_stimuli/rescaled_final/0484_fw.mp4	0.0	290.5379409790039	0.10048604011535645
61	267.80733609199524	fix_pre	0		120	59.0	2.5	/experiments/AOT/AOT_stimuli/rescaled_final/0800_rv.mp4	0.0	290.63842701911926	1.0000419616699219
61	268.80737805366516	movie	1		245	59.0	2.5	/experiments/AOT/AOT_stimuli/rescaled_final/0800_rv.mp4	0.0	291.6384689807892	2.5
61	269.19044613838196	pulse	1	t		59.0	2.5	/experiments/AOT/AOT_stimuli/rescaled_final/0800_rv.mp4	0.0	292.021537065506	
61	270.79079008102417	pulse	1	t		59.0	2.5	/experiments/AOT/AOT_stimuli/rescaled_final/0800_rv.mp4	0.0	293.6218810081482	
61	271.30737805366516	fix_post	2		12	59.0	2.5	/experiments/AOT/AOT_stimuli/rescaled_final/0800_rv.mp4	0.0	294.1384689807892	0.09986114501953125
62	271.4072391986847	fix_pre	0		119	60.0	2.5	/experiments/AOT/AOT_stimuli/rescaled_final/0201_rv.mp4	0.0	294.2383301258087	0.9917049407958984
62	272.3907091617584	pulse	0	t		60.0	2.5	/experiments/AOT/AOT_stimuli/rescaled_final/0201_rv.mp4	0.0	295.22180008888245	
62	272.3989441394806	movie	1		246	60.0	2.5	/experiments/AOT/AOT_stimuli/rescaled_final/0201_rv.mp4	0.0	295.2300350666046	2.5083539485931396
62	273.9904580116272	pulse	1	t		60.0	2.5	/experiments/AOT/AOT_stimuli/rescaled_final/0201_rv.mp4	0.0	296.8215489387512	
62	274.90729808807373	fix_post	2		12	60.0	2.5	/experiments/AOT/AOT_stimuli/rescaled_final/0201_rv.mp4	0.0	297.73838901519775	0.10006189346313477
63	275.00735998153687	fix_pre	0		120	61.0	2.5	blank	1.0	297.8384509086609	0.9999611377716064
63	275.59222507476807	pulse	0	t		61.0	2.5	blank	1.0	298.4233160018921	
63	276.0073211193085	movie	1		300	61.0	2.5	blank	1.0	298.8384120464325	2.4995498657226562
63	277.190749168396	pulse	1	t		61.0	2.5	blank	1.0	300.02184009552	
63	278.5068709850311	fix_post	2		12	61.0	2.5	blank	1.0	301.33796191215515	0.10042214393615723
64	278.6072931289673	fix_pre	0		120	62.0	2.5	/experiments/AOT/AOT_stimuli/rescaled_final/1151_fw.mp4	0.0	301.4383840560913	0.9997169971466064
64	278.790452003479	pulse	0	t		62.0	2.5	/experiments/AOT/AOT_stimuli/rescaled_final/1151_fw.mp4	0.0	301.621542930603	
64	279.6070101261139	movie	1		243	62.0	2.5	/experiments/AOT/AOT_stimuli/rescaled_final/1151_fw.mp4	0.0	302.4381010532379	2.5002310276031494
64	280.3909921646118	pulse	1	t		62.0	2.5	/experiments/AOT/AOT_stimuli/rescaled_final/1151_fw.mp4	0.0	303.22208309173584	
64	281.98918104171753	pulse	1	t		62.0	2.5	/experiments/AOT/AOT_stimuli/rescaled_final/1151_fw.mp4	0.0	304.82027196884155	
64	282.10724115371704	fix_post	2		12	62.0	2.5	/experiments/AOT/AOT_stimuli/rescaled_final/1151_fw.mp4	0.0	304.93833208084106	0.09994983673095703
65	282.207190990448	fix_pre	0		120	63.0	2.5	/experiments/AOT/AOT_stimuli/rescaled_final/0739_fw.mp4	0.0	305.038281917572	1.0000531673431396
65	283.20724415779114	movie	1		247	63.0	2.5	/experiments/AOT/AOT_stimuli/rescaled_final/0739_fw.mp4	0.0	306.03833508491516	2.499941825866699
65	283.59165501594543	pulse	1	t		63.0	2.5	/experiments/AOT/AOT_stimuli/rescaled_final/0739_fw.mp4	0.0	306.42274594306946	
65	285.19073820114136	pulse	1	t		63.0	2.5	/experiments/AOT/AOT_stimuli/rescaled_final/0739_fw.mp4	0.0	308.0218291282654	
65	285.70718598365784	fix_post	2		12	63.0	2.5	/experiments/AOT/AOT_stimuli/rescaled_final/0739_fw.mp4	0.0	308.53827691078186	0.10006403923034668
66	285.8072500228882	fix_pre	0		119	64.0	2.5	/experiments/AOT/AOT_stimuli/rescaled_final/0498_rv.mp4	0.0	308.6383409500122	0.9916141033172607
66	286.7907111644745	pulse	0	t		64.0	2.5	/experiments/AOT/AOT_stimuli/rescaled_final/0498_rv.mp4	0.0	309.6218020915985	
66	286.79886412620544	movie	1		246	64.0	2.5	/experiments/AOT/AOT_stimuli/rescaled_final/0498_rv.mp4	0.0	309.62995505332947	2.508370876312256
66	288.39079213142395	pulse	1	t		64.0	2.5	/experiments/AOT/AOT_stimuli/rescaled_final/0498_rv.mp4	0.0	311.221883058548	
66	289.3072350025177	fix_post	2		12	64.0	2.5	/experiments/AOT/AOT_stimuli/rescaled_final/0498_rv.mp4	0.0	312.1383259296417	0.09990620613098145
67	289.4071412086487	fix_pre	0		120	65.0	2.5	/experiments/AOT/AOT_stimuli/rescaled_final/0948_rv.mp4	0.0	312.2382321357727	1.0000569820404053
67	289.9906370639801	pulse	0	t		65.0	2.5	/experiments/AOT/AOT_stimuli/rescaled_final/0948_rv.mp4	0.0	312.8217279911041	
67	290.4071981906891	movie	1		245	65.0	2.5	/experiments/AOT/AOT_stimuli/rescaled_final/0948_rv.mp4	0.0	313.2382891178131	2.4995667934417725
67	291.59074211120605	pulse	1	t		65.0	2.5	/experiments/AOT/AOT_stimuli/rescaled_final/0948_rv.mp4	0.0	314.4218330383301	
67	292.90676498413086	fix_post	2		12	65.0	2.5	/experiments/AOT/AOT_stimuli/rescaled_final/0948_rv.mp4	0.0	315.7378559112549	0.10047507286071777
68	293.0072400569916	fix_pre	0		120	66.0	2.5	/experiments/AOT/AOT_stimuli/rescaled_final/0766_fw.mp4	0.0	315.8383309841156	0.9995260238647461
68	293.19067215919495	pulse	0	t		66.0	2.5	/experiments/AOT/AOT_stimuli/rescaled_final/0766_fw.mp4	0.0	316.02176308631897	
68	294.0067660808563	movie	1		245	66.0	2.5	/experiments/AOT/AOT_stimuli/rescaled_final/0766_fw.mp4	0.0	316.83785700798035	2.5004091262817383
68	294.7908101081848	pulse	1	t		66.0	2.5	/experiments/AOT/AOT_stimuli/rescaled_final/0766_fw.mp4	0.0	317.62190103530884	
68	296.39064717292786	pulse	1	t		66.0	2.5	/experiments/AOT/AOT_stimuli/rescaled_final/0766_fw.mp4	0.0	319.2217381000519	
68	296.50717520713806	fix_post	2		12	66.0	2.5	/experiments/AOT/AOT_stimuli/rescaled_final/0766_fw.mp4	0.0	319.3382661342621	0.09998583793640137
69	296.60716104507446	fix_pre	0		120	67.0	2.5	/experiments/AOT/AOT_stimuli/rescaled_final/1858_fw.mp4	0.0	319.4382519721985	1.000110149383545
69	297.607271194458	movie	1		244	67.0	2.5	/experiments/AOT/AOT_stimuli/rescaled_final/1858_fw.mp4	0.0	320.43836212158203	2.4998319149017334
69	297.9902641773224	pulse	1	t		67.0	2.5	/experiments/AOT/AOT_stimuli/rescaled_final/1858_fw.mp4	0.0	320.8213551044464	
69	299.59073209762573	pulse	1	t		67.0	2.5	/experiments/AOT/AOT_stimuli/rescaled_final/1858_fw.mp4	0.0	322.42182302474976	
69	300.10710310935974	fix_post	2		12	67.0	2.5	/experiments/AOT/AOT_stimuli/rescaled_final/1858_fw.mp4	0.0	322.93819403648376	0.10018205642700195
70	300.20728516578674	fix_pre	0		119	68.0	2.5	/experiments/AOT/AOT_stimuli/rescaled_final/1421_fw.mp4	0.0	323.03837609291077	0.9914729595184326
70	301.1906690597534	pulse	0	t		68.0	2.5	/experiments/AOT/AOT_stimuli/rescaled_final/1421_fw.mp4	0.0	324.02175998687744	
70	301.1987581253052	movie	1		245	68.0	2.5	/experiments/AOT/AOT_stimuli/rescaled_final/1421_fw.mp4	0.0	324.0298490524292	2.5083999633789062
70	302.7919051647186	pulse	1	t		68.0	2.5	/experiments/AOT/AOT_stimuli/rescaled_final/1421_fw.mp4	0.0	325.62299609184265	
70	303.7071580886841	fix_post	2		12	68.0	2.5	/experiments/AOT/AOT_stimuli/rescaled_final/1421_fw.mp4	0.0	326.5382490158081	0.09997105598449707
71	303.8071291446686	fix_pre	0		120	69.0	2.5	/experiments/AOT/AOT_stimuli/rescaled_final/2047_fw.mp4	0.0	326.6382200717926	1.0000410079956055
71	304.39059615135193	pulse	0	t		69.0	2.5	/experiments/AOT/AOT_stimuli/rescaled_final/2047_fw.mp4	0.0	327.22168707847595	
71	304.8071701526642	movie	1		245	69.0	2.5	/experiments/AOT/AOT_stimuli/rescaled_final/2047_fw.mp4	0.0	327.6382610797882	2.4999029636383057
71	305.99069714546204	pulse	1	t		69.0	2.5	/experiments/AOT/AOT_stimuli/rescaled_final/2047_fw.mp4	0.0	328.82178807258606	
71	307.3070731163025	fix_post	2		12	69.0	2.5	/experiments/AOT/AOT_stimuli/rescaled_final/2047_fw.mp4	0.0	330.1381640434265	0.0999748706817627
72	307.40704798698425	fix_pre	0		120	70.0	2.5	blank	1.0	330.2381389141083	1.0000231266021729
72	307.5906660556793	pulse	0	t		70.0	2.5	blank	1.0	330.42175698280334	
72	308.4070711135864	movie	1		300	70.0	2.5	blank	1.0	331.23816204071045	2.5000109672546387
72	309.1906599998474	pulse	1	t		70.0	2.5	blank	1.0	332.02175092697144	
72	310.7905831336975	pulse	1	t		70.0	2.5	blank	1.0	333.62167406082153	
72	310.90708208084106	fix_post	2		12	70.0	2.5	blank	1.0	333.7381730079651	0.1000978946685791
73	311.00717997550964	fix_pre	0		120	71.0	2.5	/experiments/AOT/AOT_stimuli/rescaled_final/0627_fw.mp4	0.0	333.83827090263367	0.9998791217803955
73	312.00705909729004	movie	1		244	71.0	2.5	/experiments/AOT/AOT_stimuli/rescaled_final/0627_fw.mp4	0.0	334.83815002441406	2.499974012374878
73	312.39050912857056	pulse	1	t		71.0	2.5	/experiments/AOT/AOT_stimuli/rescaled_final/0627_fw.mp4	0.0	335.2216000556946	
73	313.9905982017517	pulse	1	t		71.0	2.5	/experiments/AOT/AOT_stimuli/rescaled_final/0627_fw.mp4	0.0	336.82168912887573	
73	314.5070331096649	fix_post	2		12	71.0	2.5	/experiments/AOT/AOT_stimuli/rescaled_final/0627_fw.mp4	0.0	337.33812403678894	0.10001993179321289
74	314.60705304145813	fix_pre	0		119	72.0	2.5	/experiments/AOT/AOT_stimuli/rescaled_final/1444_rv.mp4	0.0	337.43814396858215	0.9916479587554932
74	315.5905680656433	pulse	0	t		72.0	2.5	/experiments/AOT/AOT_stimuli/rescaled_final/1444_rv.mp4	0.0	338.42165899276733	
74	315.5987010002136	movie	1		246	72.0	2.5	/experiments/AOT/AOT_stimuli/rescaled_final/1444_rv.mp4	0.0	338.42979192733765	2.5084071159362793
74	317.19164204597473	pulse	1	t		72.0	2.5	/experiments/AOT/AOT_stimuli/rescaled_final/1444_rv.mp4	0.0	340.02273297309875	
74	318.1071081161499	fix_post	2		12	72.0	2.5	/experiments/AOT/AOT_stimuli/rescaled_final/1444_rv.mp4	0.0	340.9381990432739	0.10011506080627441
75	318.2072231769562	fix_pre	0		120	73.0	2.5	/experiments/AOT/AOT_stimuli/rescaled_final/1096_rv.mp4	0.0	341.0383141040802	0.9995439052581787
75	318.79057097435	pulse	0	t		73.0	2.5	/experiments/AOT/AOT_stimuli/rescaled_final/1096_rv.mp4	0.0	341.621661901474	
75	319.20676708221436	movie	1		245	73.0	2.5	/experiments/AOT/AOT_stimuli/rescaled_final/1096_rv.mp4	0.0	342.0378580093384	2.500225067138672
75	320.3906280994415	pulse	1	t		73.0	2.5	/experiments/AOT/AOT_stimuli/rescaled_final/1096_rv.mp4	0.0	343.22171902656555	
75	321.706992149353	fix_post	2		12	73.0	2.5	/experiments/AOT/AOT_stimuli/rescaled_final/1096_rv.mp4	0.0	344.53808307647705	0.09995102882385254
76	321.8069431781769	fix_pre	0		120	74.0	2.5	/experiments/AOT/AOT_stimuli/rescaled_final/0280_rv.mp4	0.0	344.6380341053009	1.0001208782196045
76	321.9904670715332	pulse	0	t		74.0	2.5	/experiments/AOT/AOT_stimuli/rescaled_final/0280_rv.mp4	0.0	344.8215579986572	
76	322.8070640563965	movie	1		243	74.0	2.5	/experiments/AOT/AOT_stimuli/rescaled_final/0280_rv.mp4	0.0	345.6381549835205	2.4994900226593018
76	323.5906171798706	pulse	1	t		74.0	2.5	/experiments/AOT/AOT_stimuli/rescaled_final/0280_rv.mp4	0.0	346.42170810699463	
76	325.18881702423096	pulse	1	t		74.0	2.5	/experiments/AOT/AOT_stimuli/rescaled_final/0280_rv.mp4	0.0	348.019907951355	
76	325.3065540790558	fix_post	2		12	74.0	2.5	/experiments/AOT/AOT_stimuli/rescaled_final/0280_rv.mp4	0.0	348.1376450061798	0.10011506080627441
77	325.40666913986206	fix_pre	0		120	75.0	2.5	blank	1.0	348.2377600669861	1.0003960132598877
77	326.40706515312195	movie	1		300	75.0	2.5	blank	1.0	349.238156080246	2.4999959468841553
77	326.79054713249207	pulse	1	t		75.0	2.5	blank	1.0	349.6216380596161	
77	328.3905031681061	pulse	1	t		75.0	2.5	blank	1.0	351.2215940952301	
77	328.9070611000061	fix_post	2		12	75.0	2.5	blank	1.0	351.7381520271301	0.09991002082824707
78	329.00697112083435	fix_pre	0		119	76.0	2.5	/experiments/AOT/AOT_stimuli/rescaled_final/1614_rv.mp4	0.0	351.8380620479584	0.9917900562286377
78	329.9905421733856	pulse	0	t		76.0	2.5	/experiments/AOT/AOT_stimuli/rescaled_final/1614_rv.mp4	0.0	352.82163310050964	
78	329.998761177063	movie	1		245	76.0	2.5	/experiments/AOT/AOT_stimuli/rescaled_final/1614_rv.mp4	0.0	352.829852104187	2.507875919342041
78	331.5907311439514	pulse	1	t		76.0	2.5	/experiments/AOT/AOT_stimuli/rescaled_final/1614_rv.mp4	0.0	354.42182207107544	
78	332.50663709640503	fix_post	2		12	76.0	2.5	/experiments/AOT/AOT_stimuli/rescaled_final/1614_rv.mp4	0.0	355.33772802352905	0.10042810440063477
79	332.60706520080566	fix_pre	0		120	77.0	2.5	/experiments/AOT/AOT_stimuli/rescaled_final/0814_rv.mp4	0.0	355.4381561279297	1.0000529289245605
79	333.19058299064636	pulse	0	t		77.0	2.5	/experiments/AOT/AOT_stimuli/rescaled_final/0814_rv.mp4	0.0	356.0216739177704	
79	333.6071181297302	movie	1		246	77.0	2.5	/experiments/AOT/AOT_stimuli/rescaled_final/0814_rv.mp4	0.0	356.43820905685425	2.500074863433838
79	334.79013419151306	pulse	1	t		77.0	2.5	/experiments/AOT/AOT_stimuli/rescaled_final/0814_rv.mp4	0.0	357.6212251186371	
79	336.10719299316406	fix_post	2		12	77.0	2.5	/experiments/AOT/AOT_stimuli/rescaled_final/0814_rv.mp4	0.0	358.9382839202881	0.10004210472106934
80	336.20723509788513	fix_pre	0		120	78.0	2.5	/experiments/AOT/AOT_stimuli/rescaled_final/0592_rv.mp4	0.0	359.03832602500916	0.9997940063476562
80	336.39076018333435	pulse	0	t		78.0	2.5	/experiments/AOT/AOT_stimuli/rescaled_final/0592_rv.mp4	0.0	359.2218511104584	
80	337.2070291042328	movie	1		245	78.0	2.5	/experiments/AOT/AOT_stimuli/rescaled_final/0592_rv.mp4	0.0	360.0381200313568	2.4999799728393555
80	337.99051308631897	pulse	1	t		78.0	2.5	/experiments/AOT/AOT_stimuli/rescaled_final/0592_rv.mp4	0.0	360.821604013443	
80	339.59049105644226	pulse	1	t		78.0	2.5	/experiments/AOT/AOT_stimuli/rescaled_final/0592_rv.mp4	0.0	362.4215819835663	
80	339.70700907707214	fix_post	2		12	78.0	2.5	/experiments/AOT/AOT_stimuli/rescaled_final/0592_rv.mp4	0.0	362.53810000419617	0.09994292259216309
81	339.8069519996643	fix_pre	0		120	79.0	2.5	/experiments/AOT/AOT_stimuli/rescaled_final/0677_fw.mp4	0.0	362.63804292678833	0.9997391700744629
81	340.80669116973877	movie	1		244	79.0	2.5	/experiments/AOT/AOT_stimuli/rescaled_final/0677_fw.mp4	0.0	363.6377820968628	2.4998819828033447
81	341.1904501914978	pulse	1	t		79.0	2.5	/experiments/AOT/AOT_stimuli/rescaled_final/0677_fw.mp4	0.0	364.0215411186218	
81	342.7904281616211	pulse	1	t		79.0	2.5	/experiments/AOT/AOT_stimuli/rescaled_final/0677_fw.mp4	0.0	365.6215190887451	
81	343.3065731525421	fix_post	2		12	79.0	2.5	/experiments/AOT/AOT_stimuli/rescaled_final/0677_fw.mp4	0.0	366.13766407966614	0.1001439094543457
82	343.40671706199646	fix_pre	0		119	80.0	2.5	/experiments/AOT/AOT_stimuli/rescaled_final/2092_rv.mp4	0.0	366.2378079891205	0.9919381141662598
82	344.3904230594635	pulse	0	t		80.0	2.5	/experiments/AOT/AOT_stimuli/rescaled_final/2092_rv.mp4	0.0	367.2215139865875	
82	344.3986551761627	movie	1		246	80.0	2.5	/experiments/AOT/AOT_stimuli/rescaled_final/2092_rv.mp4	0.0	367.22974610328674	2.5083088874816895
82	345.99001812934875	pulse	1	t		80.0	2.5	/experiments/AOT/AOT_stimuli/rescaled_final/2092_rv.mp4	0.0	368.8211090564728	
82	346.9069640636444	fix_post	2		12	80.0	2.5	/experiments/AOT/AOT_stimuli/rescaled_final/2092_rv.mp4	0.0	369.73805499076843	0.09992694854736328
83	347.0068910121918	fix_pre	0		120	81.0	2.5	/experiments/AOT/AOT_stimuli/rescaled_final/1900_rv.mp4	0.0	369.8379819393158	0.9996860027313232
83	347.5903491973877	pulse	0	t		81.0	2.5	/experiments/AOT/AOT_stimuli/rescaled_final/1900_rv.mp4	0.0	370.4214401245117	
83	348.0065770149231	movie	1		244	81.0	2.5	/experiments/AOT/AOT_stimuli/rescaled_final/1900_rv.mp4	0.0	370.8376679420471	2.5002670288085938
83	349.1904921531677	pulse	1	t		81.0	2.5	/experiments/AOT/AOT_stimuli/rescaled_final/1900_rv.mp4	0.0	372.02158308029175	
83	350.5068440437317	fix_post	2		12	81.0	2.5	/experiments/AOT/AOT_stimuli/rescaled_final/1900_rv.mp4	0.0	373.3379349708557	0.10005712509155273
84	350.60690116882324	fix_pre	0		120	82.0	2.5	/experiments/AOT/AOT_stimuli/rescaled_final/1923_fw.mp4	0.0	373.43799209594727	1.0000510215759277
84	350.79037404060364	pulse	0	t		82.0	2.5	/experiments/AOT/AOT_stimuli/rescaled_final/1923_fw.mp4	0.0	373.62146496772766	
84	351.60695219039917	movie	1		246	82.0	2.5	/experiments/AOT/AOT_stimuli/rescaled_final/1923_fw.mp4	0.0	374.4380431175232	2.4999117851257324
84	352.3903241157532	pulse	1	t		82.0	2.5	/experiments/AOT/AOT_stimuli/rescaled_final/1923_fw.mp4	0.0	375.2214150428772	
84	353.9903631210327	pulse	1	t		82.0	2.5	/experiments/AOT/AOT_stimuli/rescaled_final/1923_fw.mp4	0.0	376.82145404815674	
84	354.1068639755249	fix_post	2		12	82.0	2.5	/experiments/AOT/AOT_stimuli/rescaled_final/1923_fw.mp4	0.0	376.9379549026489	0.09999608993530273
85	354.2068600654602	fix_pre	0		120	83.0	2.5	blank	1.0	377.03795099258423	1.0001440048217773
85	355.207004070282	movie	1		300	83.0	2.5	blank	1.0	378.038094997406	2.4998059272766113
85	355.590528011322	pulse	1	t		83.0	2.5	blank	1.0	378.42161893844604	
85	357.1904151439667	pulse	1	t		83.0	2.5	blank	1.0	380.0215060710907	
85	357.7068099975586	fix_post	2		12	83.0	2.5	blank	1.0	380.5379009246826	0.10002613067626953
87	357.80683612823486	stim	0		1716					380.6379270553589	14.300066947937012
87	358.79032611846924	pulse	0	t						381.62141704559326	
87	360.390408039093	pulse	0	t						383.22149896621704	
87	361.9903621673584	pulse	0	t						384.8214530944824	
87	363.59038519859314	pulse	0	t						386.42147612571716	
87	365.190318107605	pulse	0	t						388.021409034729	
87	366.7903001308441	pulse	0	t						389.62139105796814	
87	368.3904139995575	pulse	0	t						391.2215049266815	
87	369.9902741909027	pulse	0	t						392.82136511802673	
87	371.59028005599976	pulse	0	t						394.4213709831238	
