trial_nr	onset	event_type	phase	response	nr_frames	movie_index	movie_duration	movie_file	blank	onset_abs	duration
0	0.16651415824890137	stim	0		37					24.853349685668945	0.3082239627838135
0	0.466768741607666	response	0	space						25.15360426902771	
1	0.47473812103271484	stim	0		4388					25.16157364845276	36.584023237228394
1	37.04894304275513	pulse	0	t						61.73577857017517	
1	37.05876135826111	stim	1		1715					61.74559688568115	14.307010412216187
1	38.63925361633301	pulse	1	t						63.32608914375305	
1	40.23938751220703	pulse	1	t						64.92622303962708	
1	41.8394992351532	pulse	1	t						66.52633476257324	
1	43.439717292785645	pulse	1	t						68.12655282020569	
1	45.03999900817871	pulse	1	t						69.72683453559875	
1	46.64027953147888	pulse	1	t						71.32711505889893	
1	48.240450859069824	pulse	1	t						72.92728638648987	
1	49.840683937072754	pulse	1	t						74.5275194644928	
2	51.365771770477295	fix_pre	0		10	0.0	2.5	/experiments/Knapen_AOT/AOT_stimuli/rescaled_final/1135_rv.mp4	0.0	76.05260729789734	0.10844206809997559
2	51.44093585014343	pulse	0	t		0.0	2.5	/experiments/Knapen_AOT/AOT_stimuli/rescaled_final/1135_rv.mp4	0.0	76.12777137756348	
2	51.47421383857727	movie	1		283	0.0	2.5	/experiments/Knapen_AOT/AOT_stimuli/rescaled_final/1135_rv.mp4	0.0	76.16104936599731	2.4835665225982666
2	53.04101920127869	pulse	1	t		0.0	2.5	/experiments/Knapen_AOT/AOT_stimuli/rescaled_final/1135_rv.mp4	0.0	77.72785472869873	
2	53.95778036117554	fix_post	2		12	0.0	2.5	/experiments/Knapen_AOT/AOT_stimuli/rescaled_final/1135_rv.mp4	0.0	78.64461588859558	0.1000370979309082
3	54.057817459106445	fix_pre	0		120	1.0	2.5	/experiments/Knapen_AOT/AOT_stimuli/rescaled_final/1746_rv.mp4	0.0	78.74465298652649	1.0085258483886719
3	54.64145302772522	pulse	0	t		1.0	2.5	/experiments/Knapen_AOT/AOT_stimuli/rescaled_final/1746_rv.mp4	0.0	79.32828855514526	
3	55.06634330749512	movie	1		277	1.0	2.5	/experiments/Knapen_AOT/AOT_stimuli/rescaled_final/1746_rv.mp4	0.0	79.75317883491516	2.4919745922088623
3	56.24183678627014	pulse	1	t		1.0	2.5	/experiments/Knapen_AOT/AOT_stimuli/rescaled_final/1746_rv.mp4	0.0	80.92867231369019	
3	57.55831789970398	fix_post	2		12	1.0	2.5	/experiments/Knapen_AOT/AOT_stimuli/rescaled_final/1746_rv.mp4	0.0	82.24515342712402	0.10011720657348633
4	57.658435106277466	fix_pre	0		120	2.0	2.5	/experiments/Knapen_AOT/AOT_stimuli/rescaled_final/0913_fw.mp4	0.0	82.34527063369751	1.0084116458892822
4	57.84186935424805	pulse	0	t		2.0	2.5	/experiments/Knapen_AOT/AOT_stimuli/rescaled_final/0913_fw.mp4	0.0	82.52870488166809	
4	58.66684675216675	movie	1		275	2.0	2.5	/experiments/Knapen_AOT/AOT_stimuli/rescaled_final/0913_fw.mp4	0.0	83.35368227958679	2.4921951293945312
4	59.44008827209473	pulse	1	t		2.0	2.5	/experiments/Knapen_AOT/AOT_stimuli/rescaled_final/0913_fw.mp4	0.0	84.12692379951477	
4	61.0405797958374	pulse	1	t		2.0	2.5	/experiments/Knapen_AOT/AOT_stimuli/rescaled_final/0913_fw.mp4	0.0	85.72741532325745	
4	61.15904188156128	fix_post	2		12	2.0	2.5	/experiments/Knapen_AOT/AOT_stimuli/rescaled_final/0913_fw.mp4	0.0	85.84587740898132	0.09983682632446289
5	61.25887870788574	fix_pre	0		120	3.0	2.5	/experiments/Knapen_AOT/AOT_stimuli/rescaled_final/0647_fw.mp4	0.0	85.94571423530579	1.0085148811340332
5	62.267393589019775	movie	1		287	3.0	2.5	/experiments/Knapen_AOT/AOT_stimuli/rescaled_final/0647_fw.mp4	0.0	86.95422911643982	2.5003278255462646
5	62.64280915260315	pulse	1	t		3.0	2.5	/experiments/Knapen_AOT/AOT_stimuli/rescaled_final/0647_fw.mp4	0.0	87.3296446800232	
5	64.24096298217773	pulse	1	t		3.0	2.5	/experiments/Knapen_AOT/AOT_stimuli/rescaled_final/0647_fw.mp4	0.0	88.92779850959778	
5	64.76772141456604	fix_post	2		11	3.0	2.5	/experiments/Knapen_AOT/AOT_stimuli/rescaled_final/0647_fw.mp4	0.0	89.45455694198608	0.09175562858581543
6	64.85947704315186	fix_pre	0		119	4.0	2.5	/experiments/Knapen_AOT/AOT_stimuli/rescaled_final/0750_rv.mp4	0.0	89.5463125705719	1.0000925064086914
6	65.8431556224823	pulse	0	t		4.0	2.5	/experiments/Knapen_AOT/AOT_stimuli/rescaled_final/0750_rv.mp4	0.0	90.52999114990234	
6	65.85956954956055	movie	1		281	4.0	2.5	/experiments/Knapen_AOT/AOT_stimuli/rescaled_final/0750_rv.mp4	0.0	90.54640507698059	2.500368118286133
6	67.44218921661377	pulse	1	t		4.0	2.5	/experiments/Knapen_AOT/AOT_stimuli/rescaled_final/0750_rv.mp4	0.0	92.12902474403381	
6	68.35993766784668	fix_post	2		12	4.0	2.5	/experiments/Knapen_AOT/AOT_stimuli/rescaled_final/0750_rv.mp4	0.0	93.04677319526672	0.10002303123474121
7	68.45996069908142	fix_pre	0		120	5.0	2.5	/experiments/Knapen_AOT/AOT_stimuli/rescaled_final/1622_rv.mp4	0.0	93.14679622650146	1.0084781646728516
7	69.04378294944763	pulse	0	t		5.0	2.5	/experiments/Knapen_AOT/AOT_stimuli/rescaled_final/1622_rv.mp4	0.0	93.73061847686768	
7	69.46843886375427	movie	1		287	5.0	2.5	/experiments/Knapen_AOT/AOT_stimuli/rescaled_final/1622_rv.mp4	0.0	94.15527439117432	2.4920339584350586
7	70.64223742485046	pulse	1	t		5.0	2.5	/experiments/Knapen_AOT/AOT_stimuli/rescaled_final/1622_rv.mp4	0.0	95.32907295227051	
7	71.96047282218933	fix_post	2		12	5.0	2.5	/experiments/Knapen_AOT/AOT_stimuli/rescaled_final/1622_rv.mp4	0.0	96.64730834960938	0.10002517700195312
8	72.06049799919128	fix_pre	0		120	6.0	2.5	/experiments/Knapen_AOT/AOT_stimuli/rescaled_final/1859_rv.mp4	0.0	96.74733352661133	1.0084848403930664
8	72.24411606788635	pulse	0	t		6.0	2.5	/experiments/Knapen_AOT/AOT_stimuli/rescaled_final/1859_rv.mp4	0.0	96.9309515953064	
8	73.06898283958435	movie	1		282	6.0	2.5	/experiments/Knapen_AOT/AOT_stimuli/rescaled_final/1859_rv.mp4	0.0	97.7558183670044	2.492048501968384
8	73.84224534034729	pulse	1	t		6.0	2.5	/experiments/Knapen_AOT/AOT_stimuli/rescaled_final/1859_rv.mp4	0.0	98.52908086776733	
8	75.44255232810974	pulse	1	t		6.0	2.5	/experiments/Knapen_AOT/AOT_stimuli/rescaled_final/1859_rv.mp4	0.0	100.12938785552979	
8	75.56103134155273	fix_post	2		12	6.0	2.5	/experiments/Knapen_AOT/AOT_stimuli/rescaled_final/1859_rv.mp4	0.0	100.24786686897278	0.09999799728393555
9	75.66102933883667	fix_pre	0		120	7.0	2.5	blank	1.0	100.34786486625671	1.0001604557037354
9	76.6611897945404	movie	1		300	7.0	2.5	blank	1.0	101.34802532196045	2.500359535217285
9	77.03731322288513	pulse	1	t		7.0	2.5	blank	1.0	101.72414875030518	
9	78.63726782798767	pulse	1	t		7.0	2.5	blank	1.0	103.32410335540771	
9	79.16154932975769	fix_post	2		12	7.0	2.5	blank	1.0	103.84838485717773	0.10003352165222168
10	79.26158285140991	fix_pre	0		118	8.0	2.5	/experiments/Knapen_AOT/AOT_stimuli/rescaled_final/0272_fw.mp4	0.0	103.94841837882996	1.000304937362671
10	80.23749542236328	pulse	0	t		8.0	2.5	/experiments/Knapen_AOT/AOT_stimuli/rescaled_final/0272_fw.mp4	0.0	104.92433094978333	
10	80.26188778877258	movie	1		274	8.0	2.5	/experiments/Knapen_AOT/AOT_stimuli/rescaled_final/0272_fw.mp4	0.0	104.94872331619263	2.491940498352051
10	81.83737397193909	pulse	1	t		8.0	2.5	/experiments/Knapen_AOT/AOT_stimuli/rescaled_final/0272_fw.mp4	0.0	106.52420949935913	
10	82.75382828712463	fix_post	2		12	8.0	2.5	/experiments/Knapen_AOT/AOT_stimuli/rescaled_final/0272_fw.mp4	0.0	107.44066381454468	0.0999603271484375
11	82.85378861427307	fix_pre	0		120	9.0	2.5	/experiments/Knapen_AOT/AOT_stimuli/rescaled_final/0638_rv.mp4	0.0	107.54062414169312	1.008549690246582
11	83.43744945526123	pulse	0	t		9.0	2.5	/experiments/Knapen_AOT/AOT_stimuli/rescaled_final/0638_rv.mp4	0.0	108.12428498268127	
11	83.86233830451965	movie	1		275	9.0	2.5	/experiments/Knapen_AOT/AOT_stimuli/rescaled_final/0638_rv.mp4	0.0	108.5491738319397	2.492032289505005
11	85.03766655921936	pulse	1	t		9.0	2.5	/experiments/Knapen_AOT/AOT_stimuli/rescaled_final/0638_rv.mp4	0.0	109.7245020866394	
11	86.35437059402466	fix_post	2		12	9.0	2.5	/experiments/Knapen_AOT/AOT_stimuli/rescaled_final/0638_rv.mp4	0.0	111.0412061214447	0.09996151924133301
12	86.45433211326599	fix_pre	0		120	10.0	2.5	/experiments/Knapen_AOT/AOT_stimuli/rescaled_final/0576_fw.mp4	0.0	111.14116764068604	1.0084755420684814
12	86.63789653778076	pulse	0	t		10.0	2.5	/experiments/Knapen_AOT/AOT_stimuli/rescaled_final/0576_fw.mp4	0.0	111.3247320652008	
12	87.46280765533447	movie	1		286	10.0	2.5	/experiments/Knapen_AOT/AOT_stimuli/rescaled_final/0576_fw.mp4	0.0	112.14964318275452	2.4920778274536133
12	88.23842072486877	pulse	1	t		10.0	2.5	/experiments/Knapen_AOT/AOT_stimuli/rescaled_final/0576_fw.mp4	0.0	112.92525625228882	
12	89.83837723731995	pulse	1	t		10.0	2.5	/experiments/Knapen_AOT/AOT_stimuli/rescaled_final/0576_fw.mp4	0.0	114.52521276473999	
12	89.95488548278809	fix_post	2		12	10.0	2.5	/experiments/Knapen_AOT/AOT_stimuli/rescaled_final/0576_fw.mp4	0.0	114.64172101020813	0.1001274585723877
13	90.05501294136047	fix_pre	0		120	11.0	2.5	/experiments/Knapen_AOT/AOT_stimuli/rescaled_final/1622_rv.mp4	0.0	114.74184846878052	1.00836181640625
13	91.06337475776672	movie	1		285	11.0	2.5	/experiments/Knapen_AOT/AOT_stimuli/rescaled_final/1622_rv.mp4	0.0	115.75021028518677	2.5003678798675537
13	91.43875455856323	pulse	1	t		11.0	2.5	/experiments/Knapen_AOT/AOT_stimuli/rescaled_final/1622_rv.mp4	0.0	116.12559008598328	
13	93.03884482383728	pulse	1	t		11.0	2.5	/experiments/Knapen_AOT/AOT_stimuli/rescaled_final/1622_rv.mp4	0.0	117.72568035125732	
13	93.56374263763428	fix_post	2		11	11.0	2.5	/experiments/Knapen_AOT/AOT_stimuli/rescaled_final/1622_rv.mp4	0.0	118.25057816505432	0.09172248840332031
14	93.6554651260376	fix_pre	0		119	12.0	2.5	/experiments/Knapen_AOT/AOT_stimuli/rescaled_final/0581_rv.mp4	0.0	118.34230065345764	1.0000827312469482
14	94.63911819458008	pulse	0	t		12.0	2.5	/experiments/Knapen_AOT/AOT_stimuli/rescaled_final/0581_rv.mp4	0.0	119.32595372200012	
14	94.65554785728455	movie	1		280	12.0	2.5	/experiments/Knapen_AOT/AOT_stimuli/rescaled_final/0581_rv.mp4	0.0	119.34238338470459	2.5004050731658936
14	96.23964786529541	pulse	1	t		12.0	2.5	/experiments/Knapen_AOT/AOT_stimuli/rescaled_final/0581_rv.mp4	0.0	120.92648339271545	
14	97.15595293045044	fix_post	2		12	12.0	2.5	/experiments/Knapen_AOT/AOT_stimuli/rescaled_final/0581_rv.mp4	0.0	121.84278845787048	0.10005068778991699
15	97.25600361824036	fix_pre	0		120	13.0	2.5	blank	1.0	121.9428391456604	1.0001144409179688
15	97.83965492248535	pulse	0	t		13.0	2.5	blank	1.0	122.5264904499054	
15	98.25611805915833	movie	1		300	13.0	2.5	blank	1.0	122.94295358657837	2.500347137451172
15	99.44008135795593	pulse	1	t		13.0	2.5	blank	1.0	124.12691688537598	
15	100.7564651966095	fix_post	2		12	13.0	2.5	blank	1.0	125.44330072402954	0.10003066062927246
16	100.85649585723877	fix_pre	0		120	14.0	2.5	/experiments/Knapen_AOT/AOT_stimuli/rescaled_final/1493_rv.mp4	0.0	125.54333138465881	1.0084903240203857
16	101.040034532547	pulse	0	t		14.0	2.5	/experiments/Knapen_AOT/AOT_stimuli/rescaled_final/1493_rv.mp4	0.0	125.72687005996704	
16	101.86498618125916	movie	1		283	14.0	2.5	/experiments/Knapen_AOT/AOT_stimuli/rescaled_final/1493_rv.mp4	0.0	126.5518217086792	2.492030620574951
16	102.63829493522644	pulse	1	t		14.0	2.5	/experiments/Knapen_AOT/AOT_stimuli/rescaled_final/1493_rv.mp4	0.0	127.32513046264648	
16	104.23863291740417	pulse	1	t		14.0	2.5	/experiments/Knapen_AOT/AOT_stimuli/rescaled_final/1493_rv.mp4	0.0	128.92546844482422	
16	104.3570168018341	fix_post	2		12	14.0	2.5	/experiments/Knapen_AOT/AOT_stimuli/rescaled_final/1493_rv.mp4	0.0	129.04385232925415	0.10003662109375
17	104.45705342292786	fix_pre	0		120	15.0	2.5	/experiments/Knapen_AOT/AOT_stimuli/rescaled_final/0272_rv.mp4	0.0	129.1438889503479	1.0084748268127441
17	105.4655282497406	movie	1		280	15.0	2.5	/experiments/Knapen_AOT/AOT_stimuli/rescaled_final/0272_rv.mp4	0.0	130.15236377716064	2.492166757583618
17	105.83944535255432	pulse	1	t		15.0	2.5	/experiments/Knapen_AOT/AOT_stimuli/rescaled_final/0272_rv.mp4	0.0	130.52628087997437	
17	107.43884897232056	pulse	1	t		15.0	2.5	/experiments/Knapen_AOT/AOT_stimuli/rescaled_final/0272_rv.mp4	0.0	132.1256844997406	
17	107.95769500732422	fix_post	2		12	15.0	2.5	/experiments/Knapen_AOT/AOT_stimuli/rescaled_final/0272_rv.mp4	0.0	132.64453053474426	0.09988260269165039
18	108.05757761001587	fix_pre	0		119	16.0	2.5	/experiments/Knapen_AOT/AOT_stimuli/rescaled_final/0014_fw.mp4	0.0	132.7444131374359	1.000150203704834
18	109.04123544692993	pulse	0	t		16.0	2.5	/experiments/Knapen_AOT/AOT_stimuli/rescaled_final/0014_fw.mp4	0.0	133.72807097434998	
18	109.0577278137207	movie	1		284	16.0	2.5	/experiments/Knapen_AOT/AOT_stimuli/rescaled_final/0014_fw.mp4	0.0	133.74456334114075	2.5003650188446045
18	110.6401789188385	pulse	1	t		16.0	2.5	/experiments/Knapen_AOT/AOT_stimuli/rescaled_final/0014_fw.mp4	0.0	135.32701444625854	
18	111.55809283256531	fix_post	2		12	16.0	2.5	/experiments/Knapen_AOT/AOT_stimuli/rescaled_final/0014_fw.mp4	0.0	136.24492835998535	0.10001897811889648
19	111.6581118106842	fix_pre	0		120	17.0	2.5	/experiments/Knapen_AOT/AOT_stimuli/rescaled_final/1552_rv.mp4	0.0	136.34494733810425	1.008512020111084
19	112.24172854423523	pulse	0	t		17.0	2.5	/experiments/Knapen_AOT/AOT_stimuli/rescaled_final/1552_rv.mp4	0.0	136.92856407165527	
19	112.66662383079529	movie	1		284	17.0	2.5	/experiments/Knapen_AOT/AOT_stimuli/rescaled_final/1552_rv.mp4	0.0	137.35345935821533	2.49200439453125
19	113.84002733230591	pulse	1	t		17.0	2.5	/experiments/Knapen_AOT/AOT_stimuli/rescaled_final/1552_rv.mp4	0.0	138.52686285972595	
19	115.15862822532654	fix_post	2		12	17.0	2.5	/experiments/Knapen_AOT/AOT_stimuli/rescaled_final/1552_rv.mp4	0.0	139.84546375274658	0.10005354881286621
20	115.2586817741394	fix_pre	0		120	18.0	2.5	/experiments/Knapen_AOT/AOT_stimuli/rescaled_final/0515_fw.mp4	0.0	139.94551730155945	1.0085134506225586
20	115.44222831726074	pulse	0	t		18.0	2.5	/experiments/Knapen_AOT/AOT_stimuli/rescaled_final/0515_fw.mp4	0.0	140.1290638446808	
20	116.26719522476196	movie	1		276	18.0	2.5	/experiments/Knapen_AOT/AOT_stimuli/rescaled_final/0515_fw.mp4	0.0	140.954030752182	2.4919910430908203
20	117.04045104980469	pulse	1	t		18.0	2.5	/experiments/Knapen_AOT/AOT_stimuli/rescaled_final/0515_fw.mp4	0.0	141.72728657722473	
20	118.64051485061646	pulse	1	t		18.0	2.5	/experiments/Knapen_AOT/AOT_stimuli/rescaled_final/0515_fw.mp4	0.0	143.3273503780365	
20	118.75918626785278	fix_post	2		12	18.0	2.5	/experiments/Knapen_AOT/AOT_stimuli/rescaled_final/0515_fw.mp4	0.0	143.44602179527283	0.10000395774841309
21	118.8591902256012	fix_pre	0		120	19.0	2.5	blank	1.0	143.54602575302124	1.0001628398895264
21	119.85935306549072	movie	1		300	19.0	2.5	blank	1.0	144.54618859291077	2.5004982948303223
21	120.24293947219849	pulse	1	t		19.0	2.5	blank	1.0	144.92977499961853	
21	121.84318614006042	pulse	1	t		19.0	2.5	blank	1.0	146.53002166748047	
21	122.35985136032104	fix_post	2		12	19.0	2.5	blank	1.0	147.0466868877411	0.09993219375610352
22	122.45978355407715	fix_pre	0		119	20.0	2.5	/experiments/Knapen_AOT/AOT_stimuli/rescaled_final/1802_fw.mp4	0.0	147.1466190814972	1.00014328956604
22	123.44353723526001	pulse	0	t		20.0	2.5	/experiments/Knapen_AOT/AOT_stimuli/rescaled_final/1802_fw.mp4	0.0	148.13037276268005	
22	123.45992684364319	movie	1		285	20.0	2.5	/experiments/Knapen_AOT/AOT_stimuli/rescaled_final/1802_fw.mp4	0.0	148.14676237106323	2.5003504753112793
22	125.04207062721252	pulse	1	t		20.0	2.5	/experiments/Knapen_AOT/AOT_stimuli/rescaled_final/1802_fw.mp4	0.0	149.72890615463257	
22	125.96027731895447	fix_post	2		12	20.0	2.5	/experiments/Knapen_AOT/AOT_stimuli/rescaled_final/1802_fw.mp4	0.0	150.6471128463745	0.10000371932983398
23	126.0602810382843	fix_pre	0		120	21.0	2.5	/experiments/Knapen_AOT/AOT_stimuli/rescaled_final/0203_rv.mp4	0.0	150.74711656570435	1.0084965229034424
23	126.64403486251831	pulse	0	t		21.0	2.5	/experiments/Knapen_AOT/AOT_stimuli/rescaled_final/0203_rv.mp4	0.0	151.33087038993835	
23	127.06877756118774	movie	1		281	21.0	2.5	/experiments/Knapen_AOT/AOT_stimuli/rescaled_final/0203_rv.mp4	0.0	151.7556130886078	2.49202823638916
23	128.24253749847412	pulse	1	t		21.0	2.5	/experiments/Knapen_AOT/AOT_stimuli/rescaled_final/0203_rv.mp4	0.0	152.92937302589417	
23	129.5608057975769	fix_post	2		12	21.0	2.5	/experiments/Knapen_AOT/AOT_stimuli/rescaled_final/0203_rv.mp4	0.0	154.24764132499695	0.10002374649047852
24	129.66082954406738	fix_pre	0		120	22.0	2.5	/experiments/Knapen_AOT/AOT_stimuli/rescaled_final/0656_rv.mp4	0.0	154.34766507148743	1.00850510597229
24	129.84437489509583	pulse	0	t		22.0	2.5	/experiments/Knapen_AOT/AOT_stimuli/rescaled_final/0656_rv.mp4	0.0	154.53121042251587	
24	130.66933465003967	movie	1		268	22.0	2.5	/experiments/Knapen_AOT/AOT_stimuli/rescaled_final/0656_rv.mp4	0.0	155.35617017745972	2.492013692855835
24	131.44283723831177	pulse	1	t		22.0	2.5	/experiments/Knapen_AOT/AOT_stimuli/rescaled_final/0656_rv.mp4	0.0	156.1296727657318	
24	133.04365730285645	pulse	1	t		22.0	2.5	/experiments/Knapen_AOT/AOT_stimuli/rescaled_final/0656_rv.mp4	0.0	157.7304928302765	
24	133.1613483428955	fix_post	2		12	22.0	2.5	/experiments/Knapen_AOT/AOT_stimuli/rescaled_final/0656_rv.mp4	0.0	157.84818387031555	0.10003185272216797
25	133.26138019561768	fix_pre	0		120	23.0	2.5	/experiments/Knapen_AOT/AOT_stimuli/rescaled_final/1837_rv.mp4	0.0	157.94821572303772	1.0085439682006836
25	134.26992416381836	movie	1		276	23.0	2.5	/experiments/Knapen_AOT/AOT_stimuli/rescaled_final/1837_rv.mp4	0.0	158.9567596912384	2.500331401824951
25	134.64374446868896	pulse	1	t		23.0	2.5	/experiments/Knapen_AOT/AOT_stimuli/rescaled_final/1837_rv.mp4	0.0	159.330579996109	
25	136.24362778663635	pulse	1	t		23.0	2.5	/experiments/Knapen_AOT/AOT_stimuli/rescaled_final/1837_rv.mp4	0.0	160.9304633140564	
25	136.7702555656433	fix_post	2		11	23.0	2.5	/experiments/Knapen_AOT/AOT_stimuli/rescaled_final/1837_rv.mp4	0.0	161.45709109306335	0.09162759780883789
26	136.86188316345215	fix_pre	0		119	24.0	2.5	/experiments/Knapen_AOT/AOT_stimuli/rescaled_final/0913_rv.mp4	0.0	161.5487186908722	1.0002002716064453
26	137.83789491653442	pulse	0	t		24.0	2.5	/experiments/Knapen_AOT/AOT_stimuli/rescaled_final/0913_rv.mp4	0.0	162.52473044395447	
26	137.8620834350586	movie	1		289	24.0	2.5	/experiments/Knapen_AOT/AOT_stimuli/rescaled_final/0913_rv.mp4	0.0	162.54891896247864	2.5003645420074463
26	139.43797898292542	pulse	1	t		24.0	2.5	/experiments/Knapen_AOT/AOT_stimuli/rescaled_final/0913_rv.mp4	0.0	164.12481451034546	
26	140.36244797706604	fix_post	2		12	24.0	2.5	/experiments/Knapen_AOT/AOT_stimuli/rescaled_final/0913_rv.mp4	0.0	165.04928350448608	0.10000276565551758
27	140.46245074272156	fix_pre	0		120	25.0	2.5	/experiments/Knapen_AOT/AOT_stimuli/rescaled_final/0620_rv.mp4	0.0	165.1492862701416	1.008488416671753
27	141.03816676139832	pulse	0	t		25.0	2.5	/experiments/Knapen_AOT/AOT_stimuli/rescaled_final/0620_rv.mp4	0.0	165.72500228881836	
27	141.4709391593933	movie	1		294	25.0	2.5	/experiments/Knapen_AOT/AOT_stimuli/rescaled_final/0620_rv.mp4	0.0	166.15777468681335	2.4920105934143066
27	142.63800644874573	pulse	1	t		25.0	2.5	/experiments/Knapen_AOT/AOT_stimuli/rescaled_final/0620_rv.mp4	0.0	167.32484197616577	
27	143.96294975280762	fix_post	2		12	25.0	2.5	/experiments/Knapen_AOT/AOT_stimuli/rescaled_final/0620_rv.mp4	0.0	168.64978528022766	0.10000944137573242
28	144.06295919418335	fix_pre	0		120	26.0	2.5	blank	1.0	168.7497947216034	1.0001509189605713
28	144.23815274238586	pulse	0	t		26.0	2.5	blank	1.0	168.9249882698059	
28	145.06311011314392	movie	1		300	26.0	2.5	blank	1.0	169.74994564056396	2.500365972518921
28	145.83876204490662	pulse	1	t		26.0	2.5	blank	1.0	170.52559757232666	
28	147.43869280815125	pulse	1	t		26.0	2.5	blank	1.0	172.1255283355713	
28	147.56347608566284	fix_post	2		12	26.0	2.5	blank	1.0	172.25031161308289	0.10002684593200684
29	147.66350293159485	fix_pre	0		120	27.0	2.5	/experiments/Knapen_AOT/AOT_stimuli/rescaled_final/0817_rv.mp4	0.0	172.3503384590149	1.008507490158081
29	148.67201042175293	movie	1		279	27.0	2.5	/experiments/Knapen_AOT/AOT_stimuli/rescaled_final/0817_rv.mp4	0.0	173.35884594917297	2.4920730590820312
29	149.03788423538208	pulse	1	t		27.0	2.5	/experiments/Knapen_AOT/AOT_stimuli/rescaled_final/0817_rv.mp4	0.0	173.72471976280212	
29	150.63938689231873	pulse	1	t		27.0	2.5	/experiments/Knapen_AOT/AOT_stimuli/rescaled_final/0817_rv.mp4	0.0	175.32622241973877	
29	151.16408348083496	fix_post	2		12	27.0	2.5	/experiments/Knapen_AOT/AOT_stimuli/rescaled_final/0817_rv.mp4	0.0	175.850919008255	0.10014176368713379
30	151.2642252445221	fix_pre	0		118	28.0	2.5	/experiments/Knapen_AOT/AOT_stimuli/rescaled_final/0911_rv.mp4	0.0	175.95106077194214	0.9916548728942871
30	152.23956108093262	pulse	0	t		28.0	2.5	/experiments/Knapen_AOT/AOT_stimuli/rescaled_final/0911_rv.mp4	0.0	176.92639660835266	
30	152.25588011741638	movie	1		272	28.0	2.5	/experiments/Knapen_AOT/AOT_stimuli/rescaled_final/0911_rv.mp4	0.0	176.94271564483643	2.5003771781921387
30	153.83806562423706	pulse	1	t		28.0	2.5	/experiments/Knapen_AOT/AOT_stimuli/rescaled_final/0911_rv.mp4	0.0	178.5249011516571	
30	154.75625729560852	fix_post	2		12	28.0	2.5	/experiments/Knapen_AOT/AOT_stimuli/rescaled_final/0911_rv.mp4	0.0	179.44309282302856	0.1000218391418457
31	154.85627913475037	fix_pre	0		120	29.0	2.5	/experiments/Knapen_AOT/AOT_stimuli/rescaled_final/1980_rv.mp4	0.0	179.5431146621704	1.0085046291351318
31	155.43994140625	pulse	0	t		29.0	2.5	/experiments/Knapen_AOT/AOT_stimuli/rescaled_final/1980_rv.mp4	0.0	180.12677693367004	
31	155.8647837638855	movie	1		288	29.0	2.5	/experiments/Knapen_AOT/AOT_stimuli/rescaled_final/1980_rv.mp4	0.0	180.55161929130554	2.4920151233673096
31	157.03800749778748	pulse	1	t		29.0	2.5	/experiments/Knapen_AOT/AOT_stimuli/rescaled_final/1980_rv.mp4	0.0	181.72484302520752	
31	158.3567988872528	fix_post	2		12	29.0	2.5	/experiments/Knapen_AOT/AOT_stimuli/rescaled_final/1980_rv.mp4	0.0	183.04363441467285	0.1000680923461914
32	158.456866979599	fix_pre	0		120	30.0	2.5	/experiments/Knapen_AOT/AOT_stimuli/rescaled_final/1122_rv.mp4	0.0	183.14370250701904	1.0084400177001953
32	158.64044785499573	pulse	0	t		30.0	2.5	/experiments/Knapen_AOT/AOT_stimuli/rescaled_final/1122_rv.mp4	0.0	183.32728338241577	
32	159.4653069972992	movie	1		284	30.0	2.5	/experiments/Knapen_AOT/AOT_stimuli/rescaled_final/1122_rv.mp4	0.0	184.15214252471924	2.492039442062378
32	160.23889589309692	pulse	1	t		30.0	2.5	/experiments/Knapen_AOT/AOT_stimuli/rescaled_final/1122_rv.mp4	0.0	184.92573142051697	
32	161.83879470825195	pulse	1	t		30.0	2.5	/experiments/Knapen_AOT/AOT_stimuli/rescaled_final/1122_rv.mp4	0.0	186.525630235672	
32	161.95734643936157	fix_post	2		12	30.0	2.5	/experiments/Knapen_AOT/AOT_stimuli/rescaled_final/1122_rv.mp4	0.0	186.64418196678162	0.1001276969909668
33	162.05747413635254	fix_pre	0		120	31.0	2.5	/experiments/Knapen_AOT/AOT_stimuli/rescaled_final/0190_rv.mp4	0.0	186.74430966377258	1.0083940029144287
33	163.06586813926697	movie	1		276	31.0	2.5	/experiments/Knapen_AOT/AOT_stimuli/rescaled_final/0190_rv.mp4	0.0	187.752703666687	2.4920153617858887
33	163.44011092185974	pulse	1	t		31.0	2.5	/experiments/Knapen_AOT/AOT_stimuli/rescaled_final/0190_rv.mp4	0.0	188.12694644927979	
33	165.03966569900513	pulse	1	t		31.0	2.5	/experiments/Knapen_AOT/AOT_stimuli/rescaled_final/0190_rv.mp4	0.0	189.72650122642517	
33	165.55788350105286	fix_post	2		12	31.0	2.5	/experiments/Knapen_AOT/AOT_stimuli/rescaled_final/0190_rv.mp4	0.0	190.2447190284729	0.10004830360412598
34	165.65793180465698	fix_pre	0		119	32.0	2.5	/experiments/Knapen_AOT/AOT_stimuli/rescaled_final/0893_rv.mp4	0.0	190.34476733207703	1.0001177787780762
34	166.64170575141907	pulse	0	t		32.0	2.5	/experiments/Knapen_AOT/AOT_stimuli/rescaled_final/0893_rv.mp4	0.0	191.3285412788391	
34	166.65804958343506	movie	1		279	32.0	2.5	/experiments/Knapen_AOT/AOT_stimuli/rescaled_final/0893_rv.mp4	0.0	191.3448851108551	2.500396490097046
34	168.24082398414612	pulse	1	t		32.0	2.5	/experiments/Knapen_AOT/AOT_stimuli/rescaled_final/0893_rv.mp4	0.0	192.92765951156616	
34	169.1584460735321	fix_post	2		12	32.0	2.5	/experiments/Knapen_AOT/AOT_stimuli/rescaled_final/0893_rv.mp4	0.0	193.84528160095215	0.10000777244567871
35	169.25845384597778	fix_pre	0		120	33.0	2.5	/experiments/Knapen_AOT/AOT_stimuli/rescaled_final/2073_rv.mp4	0.0	193.94528937339783	1.008500576019287
35	169.8421187400818	pulse	0	t		33.0	2.5	/experiments/Knapen_AOT/AOT_stimuli/rescaled_final/2073_rv.mp4	0.0	194.52895426750183	
35	170.26695442199707	movie	1		279	33.0	2.5	/experiments/Knapen_AOT/AOT_stimuli/rescaled_final/2073_rv.mp4	0.0	194.95378994941711	2.491999387741089
35	171.44047260284424	pulse	1	t		33.0	2.5	/experiments/Knapen_AOT/AOT_stimuli/rescaled_final/2073_rv.mp4	0.0	196.12730813026428	
35	172.75895380973816	fix_post	2		12	33.0	2.5	/experiments/Knapen_AOT/AOT_stimuli/rescaled_final/2073_rv.mp4	0.0	197.4457893371582	0.10001277923583984
36	172.858966588974	fix_pre	0		120	34.0	2.5	blank	1.0	197.54580211639404	1.000180721282959
36	173.04260110855103	pulse	0	t		34.0	2.5	blank	1.0	197.72943663597107	
36	173.85914731025696	movie	1		300	34.0	2.5	blank	1.0	198.545982837677	2.500408411026001
36	174.64280915260315	pulse	1	t		34.0	2.5	blank	1.0	199.3296446800232	
36	176.24308466911316	pulse	1	t		34.0	2.5	blank	1.0	200.9299201965332	
36	176.35955572128296	fix_post	2		12	34.0	2.5	blank	1.0	201.046391248703	0.0999605655670166
37	176.45951628684998	fix_pre	0		120	35.0	2.5	/experiments/Knapen_AOT/AOT_stimuli/rescaled_final/0271_rv.mp4	0.0	201.14635181427002	1.0085980892181396
37	177.46811437606812	movie	1		286	35.0	2.5	/experiments/Knapen_AOT/AOT_stimuli/rescaled_final/0271_rv.mp4	0.0	202.15494990348816	2.4919512271881104
37	177.8420648574829	pulse	1	t		35.0	2.5	/experiments/Knapen_AOT/AOT_stimuli/rescaled_final/0271_rv.mp4	0.0	202.52890038490295	
37	179.44149732589722	pulse	1	t		35.0	2.5	/experiments/Knapen_AOT/AOT_stimuli/rescaled_final/0271_rv.mp4	0.0	204.12833285331726	
37	179.96006560325623	fix_post	2		12	35.0	2.5	/experiments/Knapen_AOT/AOT_stimuli/rescaled_final/0271_rv.mp4	0.0	204.64690113067627	0.10000491142272949
38	180.06007051467896	fix_pre	0		119	36.0	2.5	/experiments/Knapen_AOT/AOT_stimuli/rescaled_final/0659_rv.mp4	0.0	204.746906042099	1.0001847743988037
38	181.0438871383667	pulse	0	t		36.0	2.5	/experiments/Knapen_AOT/AOT_stimuli/rescaled_final/0659_rv.mp4	0.0	205.73072266578674	
38	181.06025528907776	movie	1		278	36.0	2.5	/experiments/Knapen_AOT/AOT_stimuli/rescaled_final/0659_rv.mp4	0.0	205.7470908164978	2.500338554382324
38	182.64271807670593	pulse	1	t		36.0	2.5	/experiments/Knapen_AOT/AOT_stimuli/rescaled_final/0659_rv.mp4	0.0	207.32955360412598	
38	183.56059384346008	fix_post	2		12	36.0	2.5	/experiments/Knapen_AOT/AOT_stimuli/rescaled_final/0659_rv.mp4	0.0	208.24742937088013	0.10007190704345703
39	183.66066575050354	fix_pre	0		120	37.0	2.5	/experiments/Knapen_AOT/AOT_stimuli/rescaled_final/1142_fw.mp4	0.0	208.34750127792358	1.0084986686706543
39	184.24424147605896	pulse	0	t		37.0	2.5	/experiments/Knapen_AOT/AOT_stimuli/rescaled_final/1142_fw.mp4	0.0	208.931077003479	
39	184.6691644191742	movie	1		286	37.0	2.5	/experiments/Knapen_AOT/AOT_stimuli/rescaled_final/1142_fw.mp4	0.0	209.35599994659424	2.4919817447662354
39	185.8427984714508	pulse	1	t		37.0	2.5	/experiments/Knapen_AOT/AOT_stimuli/rescaled_final/1142_fw.mp4	0.0	210.52963399887085	
39	187.16114616394043	fix_post	2		12	37.0	2.5	/experiments/Knapen_AOT/AOT_stimuli/rescaled_final/1142_fw.mp4	0.0	211.84798169136047	0.10002779960632324
40	187.26117396354675	fix_pre	0		120	38.0	2.5	/experiments/Knapen_AOT/AOT_stimuli/rescaled_final/1986_fw.mp4	0.0	211.9480094909668	1.008455753326416
40	187.44472241401672	pulse	0	t		38.0	2.5	/experiments/Knapen_AOT/AOT_stimuli/rescaled_final/1986_fw.mp4	0.0	212.13155794143677	
40	188.26962971687317	movie	1		266	38.0	2.5	/experiments/Knapen_AOT/AOT_stimuli/rescaled_final/1986_fw.mp4	0.0	212.9564652442932	2.4921631813049316
40	189.04323148727417	pulse	1	t		38.0	2.5	/experiments/Knapen_AOT/AOT_stimuli/rescaled_final/1986_fw.mp4	0.0	213.7300670146942	
40	190.64331102371216	pulse	1	t		38.0	2.5	/experiments/Knapen_AOT/AOT_stimuli/rescaled_final/1986_fw.mp4	0.0	215.3301465511322	
40	190.7617928981781	fix_post	2		12	38.0	2.5	/experiments/Knapen_AOT/AOT_stimuli/rescaled_final/1986_fw.mp4	0.0	215.44862842559814	0.09987258911132812
41	190.86166548728943	fix_pre	0		120	39.0	2.5	/experiments/Knapen_AOT/AOT_stimuli/rescaled_final/0242_rv.mp4	0.0	215.54850101470947	1.008549451828003
41	191.87021493911743	movie	1		271	39.0	2.5	/experiments/Knapen_AOT/AOT_stimuli/rescaled_final/0242_rv.mp4	0.0	216.55705046653748	2.4919939041137695
41	192.24550914764404	pulse	1	t		39.0	2.5	/experiments/Knapen_AOT/AOT_stimuli/rescaled_final/0242_rv.mp4	0.0	216.9323446750641	
41	193.8438630104065	pulse	1	t		39.0	2.5	/experiments/Knapen_AOT/AOT_stimuli/rescaled_final/0242_rv.mp4	0.0	218.53069853782654	
41	194.3622088432312	fix_post	2		12	39.0	2.5	/experiments/Knapen_AOT/AOT_stimuli/rescaled_final/0242_rv.mp4	0.0	219.04904437065125	0.10001778602600098
42	194.4622266292572	fix_pre	0		119	40.0	2.5	/experiments/Knapen_AOT/AOT_stimuli/rescaled_final/1268_rv.mp4	0.0	219.14906215667725	1.000267505645752
42	195.4459569454193	pulse	0	t		40.0	2.5	/experiments/Knapen_AOT/AOT_stimuli/rescaled_final/1268_rv.mp4	0.0	220.13279247283936	
42	195.46249413490295	movie	1		292	40.0	2.5	/experiments/Knapen_AOT/AOT_stimuli/rescaled_final/1268_rv.mp4	0.0	220.149329662323	2.500288248062134
42	197.04494953155518	pulse	1	t		40.0	2.5	/experiments/Knapen_AOT/AOT_stimuli/rescaled_final/1268_rv.mp4	0.0	221.73178505897522	
42	197.9627823829651	fix_post	2		12	40.0	2.5	/experiments/Knapen_AOT/AOT_stimuli/rescaled_final/1268_rv.mp4	0.0	222.64961791038513	0.1000206470489502
43	198.06280303001404	fix_pre	0		120	41.0	2.5	blank	1.0	222.74963855743408	1.0001397132873535
43	198.63834834098816	pulse	0	t		41.0	2.5	blank	1.0	223.3251838684082	
43	199.0629427433014	movie	1		300	41.0	2.5	blank	1.0	223.74977827072144	2.500401496887207
43	200.2384068965912	pulse	1	t		41.0	2.5	blank	1.0	224.92524242401123	
43	201.5633442401886	fix_post	2		12	41.0	2.5	blank	1.0	226.25017976760864	0.0999755859375
44	201.6633198261261	fix_pre	0		120	42.0	2.5	/experiments/Knapen_AOT/AOT_stimuli/rescaled_final/1576_fw.mp4	0.0	226.35015535354614	1.0084969997406006
44	201.83867812156677	pulse	0	t		42.0	2.5	/experiments/Knapen_AOT/AOT_stimuli/rescaled_final/1576_fw.mp4	0.0	226.52551364898682	
44	202.6718168258667	movie	1		285	42.0	2.5	/experiments/Knapen_AOT/AOT_stimuli/rescaled_final/1576_fw.mp4	0.0	227.35865235328674	2.492009401321411
44	203.43892288208008	pulse	1	t		42.0	2.5	/experiments/Knapen_AOT/AOT_stimuli/rescaled_final/1576_fw.mp4	0.0	228.12575840950012	
44	205.03957843780518	pulse	1	t		42.0	2.5	/experiments/Knapen_AOT/AOT_stimuli/rescaled_final/1576_fw.mp4	0.0	229.72641396522522	
44	205.1638262271881	fix_post	2		12	42.0	2.5	/experiments/Knapen_AOT/AOT_stimuli/rescaled_final/1576_fw.mp4	0.0	229.85066175460815	0.10003137588500977
45	205.26385760307312	fix_pre	0		120	43.0	2.5	/experiments/Knapen_AOT/AOT_stimuli/rescaled_final/1505_rv.mp4	0.0	229.95069313049316	1.0085101127624512
45	206.27236771583557	movie	1		288	43.0	2.5	/experiments/Knapen_AOT/AOT_stimuli/rescaled_final/1505_rv.mp4	0.0	230.95920324325562	2.4920177459716797
45	206.63934445381165	pulse	1	t		43.0	2.5	/experiments/Knapen_AOT/AOT_stimuli/rescaled_final/1505_rv.mp4	0.0	231.3261799812317	
45	208.23950600624084	pulse	1	t		43.0	2.5	/experiments/Knapen_AOT/AOT_stimuli/rescaled_final/1505_rv.mp4	0.0	232.9263415336609	
45	208.76438546180725	fix_post	2		12	43.0	2.5	/experiments/Knapen_AOT/AOT_stimuli/rescaled_final/1505_rv.mp4	0.0	233.4512209892273	0.10002923011779785
46	208.86441469192505	fix_pre	0		118	44.0	2.5	/experiments/Knapen_AOT/AOT_stimuli/rescaled_final/0048_rv.mp4	0.0	233.5512502193451	0.9918234348297119
46	209.8398461341858	pulse	0	t		44.0	2.5	/experiments/Knapen_AOT/AOT_stimuli/rescaled_final/0048_rv.mp4	0.0	234.52668166160583	
46	209.85623812675476	movie	1		294	44.0	2.5	/experiments/Knapen_AOT/AOT_stimuli/rescaled_final/0048_rv.mp4	0.0	234.5430736541748	2.500459909439087
46	211.43879103660583	pulse	1	t		44.0	2.5	/experiments/Knapen_AOT/AOT_stimuli/rescaled_final/0048_rv.mp4	0.0	236.12562656402588	
46	212.35669803619385	fix_post	2		12	44.0	2.5	/experiments/Knapen_AOT/AOT_stimuli/rescaled_final/0048_rv.mp4	0.0	237.0435335636139	0.09990286827087402
47	212.45660090446472	fix_pre	0		120	45.0	2.5	/experiments/Knapen_AOT/AOT_stimuli/rescaled_final/0917_rv.mp4	0.0	237.14343643188477	1.0084812641143799
47	213.0403037071228	pulse	0	t		45.0	2.5	/experiments/Knapen_AOT/AOT_stimuli/rescaled_final/0917_rv.mp4	0.0	237.72713923454285	
47	213.4650821685791	movie	1		281	45.0	2.5	/experiments/Knapen_AOT/AOT_stimuli/rescaled_final/0917_rv.mp4	0.0	238.15191769599915	2.4920783042907715
47	214.63858795166016	pulse	1	t		45.0	2.5	/experiments/Knapen_AOT/AOT_stimuli/rescaled_final/0917_rv.mp4	0.0	239.3254234790802	
47	215.95716047286987	fix_post	2		12	45.0	2.5	/experiments/Knapen_AOT/AOT_stimuli/rescaled_final/0917_rv.mp4	0.0	240.64399600028992	0.09999966621398926
48	216.05716013908386	fix_pre	0		120	46.0	2.5	/experiments/Knapen_AOT/AOT_stimuli/rescaled_final/1613_fw.mp4	0.0	240.7439956665039	1.008519172668457
48	216.2407684326172	pulse	0	t		46.0	2.5	/experiments/Knapen_AOT/AOT_stimuli/rescaled_final/1613_fw.mp4	0.0	240.92760396003723	
48	217.06567931175232	movie	1		259	46.0	2.5	/experiments/Knapen_AOT/AOT_stimuli/rescaled_final/1613_fw.mp4	0.0	241.75251483917236	2.491987705230713
48	217.8387382030487	pulse	1	t		46.0	2.5	/experiments/Knapen_AOT/AOT_stimuli/rescaled_final/1613_fw.mp4	0.0	242.52557373046875	
48	219.43898677825928	pulse	1	t		46.0	2.5	/experiments/Knapen_AOT/AOT_stimuli/rescaled_final/1613_fw.mp4	0.0	244.12582230567932	
48	219.55766701698303	fix_post	2		12	46.0	2.5	/experiments/Knapen_AOT/AOT_stimuli/rescaled_final/1613_fw.mp4	0.0	244.24450254440308	0.10002613067626953
49	219.6576931476593	fix_pre	0		120	47.0	2.5	blank	1.0	244.34452867507935	1.0001463890075684
49	220.65783953666687	movie	1		300	47.0	2.5	blank	1.0	245.3446750640869	2.500373125076294
49	221.04155158996582	pulse	1	t		47.0	2.5	blank	1.0	245.72838711738586	
49	222.64183521270752	pulse	1	t		47.0	2.5	blank	1.0	247.32867074012756	
49	223.15821266174316	fix_post	2		12	47.0	2.5	blank	1.0	247.8450481891632	0.10004973411560059
50	223.25826239585876	fix_pre	0		119	48.0	2.5	/experiments/Knapen_AOT/AOT_stimuli/rescaled_final/1263_fw.mp4	0.0	247.9450979232788	1.0085318088531494
50	224.24189114570618	pulse	0	t		48.0	2.5	/experiments/Knapen_AOT/AOT_stimuli/rescaled_final/1263_fw.mp4	0.0	248.92872667312622	
50	224.2667942047119	movie	1		290	48.0	2.5	/experiments/Knapen_AOT/AOT_stimuli/rescaled_final/1263_fw.mp4	0.0	248.95362973213196	2.4919910430908203
50	225.84081315994263	pulse	1	t		48.0	2.5	/experiments/Knapen_AOT/AOT_stimuli/rescaled_final/1263_fw.mp4	0.0	250.52764868736267	
50	226.75878524780273	fix_post	2		12	48.0	2.5	/experiments/Knapen_AOT/AOT_stimuli/rescaled_final/1263_fw.mp4	0.0	251.44562077522278	0.09998059272766113
51	226.8587658405304	fix_pre	0		120	49.0	2.5	/experiments/Knapen_AOT/AOT_stimuli/rescaled_final/1382_fw.mp4	0.0	251.54560136795044	1.008528232574463
51	227.4425048828125	pulse	0	t		49.0	2.5	/experiments/Knapen_AOT/AOT_stimuli/rescaled_final/1382_fw.mp4	0.0	252.12934041023254	
51	227.86729407310486	movie	1		277	49.0	2.5	/experiments/Knapen_AOT/AOT_stimuli/rescaled_final/1382_fw.mp4	0.0	252.5541296005249	2.4920129776000977
51	229.0420787334442	pulse	1	t		49.0	2.5	/experiments/Knapen_AOT/AOT_stimuli/rescaled_final/1382_fw.mp4	0.0	253.72891426086426	
51	230.35930705070496	fix_post	2		12	49.0	2.5	/experiments/Knapen_AOT/AOT_stimuli/rescaled_final/1382_fw.mp4	0.0	255.046142578125	0.10003161430358887
52	230.45933866500854	fix_pre	0		120	50.0	2.5	/experiments/Knapen_AOT/AOT_stimuli/rescaled_final/0412_rv.mp4	0.0	255.1461741924286	1.0084576606750488
52	230.64285707473755	pulse	0	t		50.0	2.5	/experiments/Knapen_AOT/AOT_stimuli/rescaled_final/0412_rv.mp4	0.0	255.3296926021576	
52	231.4677963256836	movie	1		267	50.0	2.5	/experiments/Knapen_AOT/AOT_stimuli/rescaled_final/0412_rv.mp4	0.0	256.15463185310364	2.492206335067749
52	232.24124932289124	pulse	1	t		50.0	2.5	/experiments/Knapen_AOT/AOT_stimuli/rescaled_final/0412_rv.mp4	0.0	256.9280848503113	
52	233.84170484542847	pulse	1	t		50.0	2.5	/experiments/Knapen_AOT/AOT_stimuli/rescaled_final/0412_rv.mp4	0.0	258.5285403728485	
52	233.96000266075134	fix_post	2		12	50.0	2.5	/experiments/Knapen_AOT/AOT_stimuli/rescaled_final/0412_rv.mp4	0.0	258.6468381881714	0.09988999366760254
53	234.05989265441895	fix_pre	0		120	51.0	2.5	/experiments/Knapen_AOT/AOT_stimuli/rescaled_final/0231_rv.mp4	0.0	258.746728181839	1.0085399150848389
53	235.06843256950378	movie	1		273	51.0	2.5	/experiments/Knapen_AOT/AOT_stimuli/rescaled_final/0231_rv.mp4	0.0	259.7552680969238	2.491997241973877
53	235.4422709941864	pulse	1	t		51.0	2.5	/experiments/Knapen_AOT/AOT_stimuli/rescaled_final/0231_rv.mp4	0.0	260.12910652160645	
53	237.0424656867981	pulse	1	t		51.0	2.5	/experiments/Knapen_AOT/AOT_stimuli/rescaled_final/0231_rv.mp4	0.0	261.72930121421814	
53	237.56042981147766	fix_post	2		12	51.0	2.5	/experiments/Knapen_AOT/AOT_stimuli/rescaled_final/0231_rv.mp4	0.0	262.2472653388977	0.10002994537353516
54	237.6604597568512	fix_pre	0		119	52.0	2.5	/experiments/Knapen_AOT/AOT_stimuli/rescaled_final/1135_fw.mp4	0.0	262.34729528427124	1.0001039505004883
54	238.64421105384827	pulse	0	t		52.0	2.5	/experiments/Knapen_AOT/AOT_stimuli/rescaled_final/1135_fw.mp4	0.0	263.3310465812683	
54	238.66056370735168	movie	1		282	52.0	2.5	/experiments/Knapen_AOT/AOT_stimuli/rescaled_final/1135_fw.mp4	0.0	263.34739923477173	2.5003509521484375
54	240.24366402626038	pulse	1	t		52.0	2.5	/experiments/Knapen_AOT/AOT_stimuli/rescaled_final/1135_fw.mp4	0.0	264.9304995536804	
54	241.16091465950012	fix_post	2		12	52.0	2.5	/experiments/Knapen_AOT/AOT_stimuli/rescaled_final/1135_fw.mp4	0.0	265.84775018692017	0.1000220775604248
55	241.26093673706055	fix_pre	0		120	53.0	2.5	/experiments/Knapen_AOT/AOT_stimuli/rescaled_final/0251_fw.mp4	0.0	265.9477722644806	1.008538007736206
55	241.83788466453552	pulse	0	t		53.0	2.5	/experiments/Knapen_AOT/AOT_stimuli/rescaled_final/0251_fw.mp4	0.0	266.52472019195557	
55	242.26947474479675	movie	1		285	53.0	2.5	/experiments/Knapen_AOT/AOT_stimuli/rescaled_final/0251_fw.mp4	0.0	266.9563102722168	2.492035388946533
55	243.44335842132568	pulse	1	t		53.0	2.5	/experiments/Knapen_AOT/AOT_stimuli/rescaled_final/0251_fw.mp4	0.0	268.1301939487457	
55	244.7615101337433	fix_post	2		12	53.0	2.5	/experiments/Knapen_AOT/AOT_stimuli/rescaled_final/0251_fw.mp4	0.0	269.44834566116333	0.09998846054077148
56	244.86149859428406	fix_pre	0		120	54.0	2.5	/experiments/Knapen_AOT/AOT_stimuli/rescaled_final/1835_rv.mp4	0.0	269.5483341217041	1.0084502696990967
56	245.04503178596497	pulse	0	t		54.0	2.5	/experiments/Knapen_AOT/AOT_stimuli/rescaled_final/1835_rv.mp4	0.0	269.731867313385	
56	245.86994886398315	movie	1		285	54.0	2.5	/experiments/Knapen_AOT/AOT_stimuli/rescaled_final/1835_rv.mp4	0.0	270.5567843914032	2.4922287464141846
56	246.64402198791504	pulse	1	t		54.0	2.5	/experiments/Knapen_AOT/AOT_stimuli/rescaled_final/1835_rv.mp4	0.0	271.3308575153351	
56	248.24343752861023	pulse	1	t		54.0	2.5	/experiments/Knapen_AOT/AOT_stimuli/rescaled_final/1835_rv.mp4	0.0	272.9302730560303	
56	248.36217761039734	fix_post	2		12	54.0	2.5	/experiments/Knapen_AOT/AOT_stimuli/rescaled_final/1835_rv.mp4	0.0	273.0490131378174	0.09981703758239746
57	248.46199464797974	fix_pre	0		120	55.0	2.5	/experiments/Knapen_AOT/AOT_stimuli/rescaled_final/1606_fw.mp4	0.0	273.1488301753998	1.0086019039154053
57	249.47059655189514	movie	1		285	55.0	2.5	/experiments/Knapen_AOT/AOT_stimuli/rescaled_final/1606_fw.mp4	0.0	274.1574320793152	2.491957426071167
57	249.8376739025116	pulse	1	t		55.0	2.5	/experiments/Knapen_AOT/AOT_stimuli/rescaled_final/1606_fw.mp4	0.0	274.52450942993164	
57	251.43769216537476	pulse	1	t		55.0	2.5	/experiments/Knapen_AOT/AOT_stimuli/rescaled_final/1606_fw.mp4	0.0	276.1245276927948	
57	251.9625539779663	fix_post	2		12	55.0	2.5	/experiments/Knapen_AOT/AOT_stimuli/rescaled_final/1606_fw.mp4	0.0	276.64938950538635	0.100006103515625
58	252.06256008148193	fix_pre	0		118	56.0	2.5	blank	1.0	276.749395608902	0.9834604263305664
58	253.03821516036987	pulse	0	t		56.0	2.5	blank	1.0	277.7250506877899	
58	253.0460205078125	movie	1		301	56.0	2.5	blank	1.0	277.73285603523254	2.5088260173797607
58	254.6381812095642	pulse	1	t		56.0	2.5	blank	1.0	279.32501673698425	
58	255.55484652519226	fix_post	2		12	56.0	2.5	blank	1.0	280.2416820526123	0.09995412826538086
59	255.65480065345764	fix_pre	0		120	57.0	2.5	/experiments/Knapen_AOT/AOT_stimuli/rescaled_final/0428_rv.mp4	0.0	280.3416361808777	1.008436679840088
59	256.2384202480316	pulse	0	t		57.0	2.5	/experiments/Knapen_AOT/AOT_stimuli/rescaled_final/0428_rv.mp4	0.0	280.92525577545166	
59	256.66323733329773	movie	1		285	57.0	2.5	/experiments/Knapen_AOT/AOT_stimuli/rescaled_final/0428_rv.mp4	0.0	281.3500728607178	2.4920434951782227
59	257.8376851081848	pulse	1	t		57.0	2.5	/experiments/Knapen_AOT/AOT_stimuli/rescaled_final/0428_rv.mp4	0.0	282.52452063560486	
59	259.15528082847595	fix_post	2		12	57.0	2.5	/experiments/Knapen_AOT/AOT_stimuli/rescaled_final/0428_rv.mp4	0.0	283.842116355896	0.10001707077026367
60	259.2552978992462	fix_pre	0		120	58.0	2.5	/experiments/Knapen_AOT/AOT_stimuli/rescaled_final/0223_rv.mp4	0.0	283.94213342666626	1.0085384845733643
60	259.4388999938965	pulse	0	t		58.0	2.5	/experiments/Knapen_AOT/AOT_stimuli/rescaled_final/0223_rv.mp4	0.0	284.1257355213165	
60	260.2638363838196	movie	1		279	58.0	2.5	/experiments/Knapen_AOT/AOT_stimuli/rescaled_final/0223_rv.mp4	0.0	284.9506719112396	2.4920499324798584
60	261.03921246528625	pulse	1	t		58.0	2.5	/experiments/Knapen_AOT/AOT_stimuli/rescaled_final/0223_rv.mp4	0.0	285.7260479927063	
60	262.63863158226013	pulse	1	t		58.0	2.5	/experiments/Knapen_AOT/AOT_stimuli/rescaled_final/0223_rv.mp4	0.0	287.3254671096802	
60	262.75588631629944	fix_post	2		12	58.0	2.5	/experiments/Knapen_AOT/AOT_stimuli/rescaled_final/0223_rv.mp4	0.0	287.4427218437195	0.10000228881835938
61	262.8558886051178	fix_pre	0		120	59.0	2.5	/experiments/Knapen_AOT/AOT_stimuli/rescaled_final/0696_rv.mp4	0.0	287.54272413253784	1.008500576019287
61	263.8643891811371	movie	1		273	59.0	2.5	/experiments/Knapen_AOT/AOT_stimuli/rescaled_final/0696_rv.mp4	0.0	288.55122470855713	2.491995096206665
61	264.2398500442505	pulse	1	t		59.0	2.5	/experiments/Knapen_AOT/AOT_stimuli/rescaled_final/0696_rv.mp4	0.0	288.92668557167053	
61	265.83770751953125	pulse	1	t		59.0	2.5	/experiments/Knapen_AOT/AOT_stimuli/rescaled_final/0696_rv.mp4	0.0	290.5245430469513	
61	266.35638427734375	fix_post	2		12	59.0	2.5	/experiments/Knapen_AOT/AOT_stimuli/rescaled_final/0696_rv.mp4	0.0	291.0432198047638	0.10001349449157715
62	266.4563977718353	fix_pre	0		119	60.0	2.5	/experiments/Knapen_AOT/AOT_stimuli/rescaled_final/0805_fw.mp4	0.0	291.14323329925537	1.0001723766326904
62	267.4403142929077	pulse	0	t		60.0	2.5	/experiments/Knapen_AOT/AOT_stimuli/rescaled_final/0805_fw.mp4	0.0	292.12714982032776	
62	267.456570148468	movie	1		283	60.0	2.5	/experiments/Knapen_AOT/AOT_stimuli/rescaled_final/0805_fw.mp4	0.0	292.14340567588806	2.5003745555877686
62	269.0387692451477	pulse	1	t		60.0	2.5	/experiments/Knapen_AOT/AOT_stimuli/rescaled_final/0805_fw.mp4	0.0	293.72560477256775	
62	269.9569447040558	fix_post	2		12	60.0	2.5	/experiments/Knapen_AOT/AOT_stimuli/rescaled_final/0805_fw.mp4	0.0	294.64378023147583	0.10001659393310547
63	270.0569612979889	fix_pre	0		120	61.0	2.5	/experiments/Knapen_AOT/AOT_stimuli/rescaled_final/0531_fw.mp4	0.0	294.74379682540894	1.00850248336792
63	270.6406373977661	pulse	0	t		61.0	2.5	/experiments/Knapen_AOT/AOT_stimuli/rescaled_final/0531_fw.mp4	0.0	295.32747292518616	
63	271.0654637813568	movie	1		286	61.0	2.5	/experiments/Knapen_AOT/AOT_stimuli/rescaled_final/0531_fw.mp4	0.0	295.75229930877686	2.4921422004699707
63	272.2410955429077	pulse	1	t		61.0	2.5	/experiments/Knapen_AOT/AOT_stimuli/rescaled_final/0531_fw.mp4	0.0	296.92793107032776	
63	273.5576059818268	fix_post	2		12	61.0	2.5	/experiments/Knapen_AOT/AOT_stimuli/rescaled_final/0531_fw.mp4	0.0	298.2444415092468	0.0998682975769043
64	273.6574742794037	fix_pre	0		120	62.0	2.5	blank	1.0	298.34430980682373	1.0001459121704102
64	273.84110283851624	pulse	0	t		62.0	2.5	blank	1.0	298.5279383659363	
64	274.6576201915741	movie	1		300	62.0	2.5	blank	1.0	299.34445571899414	2.500377893447876
64	275.44126653671265	pulse	1	t		62.0	2.5	blank	1.0	300.1281020641327	
64	277.04155588150024	pulse	1	t		62.0	2.5	blank	1.0	301.7283914089203	
64	277.157998085022	fix_post	2		12	62.0	2.5	blank	1.0	301.844833612442	0.10001254081726074
65	277.25801062583923	fix_pre	0		120	63.0	2.5	/experiments/Knapen_AOT/AOT_stimuli/rescaled_final/1608_fw.mp4	0.0	301.9448461532593	1.008512258529663
65	278.2665228843689	movie	1		285	63.0	2.5	/experiments/Knapen_AOT/AOT_stimuli/rescaled_final/1608_fw.mp4	0.0	302.95335841178894	2.4920148849487305
65	278.6400582790375	pulse	1	t		63.0	2.5	/experiments/Knapen_AOT/AOT_stimuli/rescaled_final/1608_fw.mp4	0.0	303.3268938064575	
65	280.24025225639343	pulse	1	t		63.0	2.5	/experiments/Knapen_AOT/AOT_stimuli/rescaled_final/1608_fw.mp4	0.0	304.9270877838135	
65	280.7585377693176	fix_post	2		12	63.0	2.5	/experiments/Knapen_AOT/AOT_stimuli/rescaled_final/1608_fw.mp4	0.0	305.44537329673767	0.10002493858337402
66	280.858562707901	fix_pre	0		119	64.0	2.5	/experiments/Knapen_AOT/AOT_stimuli/rescaled_final/2140_rv.mp4	0.0	305.54539823532104	1.0001411437988281
66	281.84255504608154	pulse	0	t		64.0	2.5	/experiments/Knapen_AOT/AOT_stimuli/rescaled_final/2140_rv.mp4	0.0	306.5293905735016	
66	281.85870385169983	movie	1		281	64.0	2.5	/experiments/Knapen_AOT/AOT_stimuli/rescaled_final/2140_rv.mp4	0.0	306.5455393791199	2.5004143714904785
66	283.44156074523926	pulse	1	t		64.0	2.5	/experiments/Knapen_AOT/AOT_stimuli/rescaled_final/2140_rv.mp4	0.0	308.1283962726593	
66	284.3591182231903	fix_post	2		12	64.0	2.5	/experiments/Knapen_AOT/AOT_stimuli/rescaled_final/2140_rv.mp4	0.0	309.04595375061035	0.09998345375061035
67	284.4591016769409	fix_pre	0		120	65.0	2.5	/experiments/Knapen_AOT/AOT_stimuli/rescaled_final/0022_rv.mp4	0.0	309.14593720436096	1.0085031986236572
67	285.0426495075226	pulse	0	t		65.0	2.5	/experiments/Knapen_AOT/AOT_stimuli/rescaled_final/0022_rv.mp4	0.0	309.7294850349426	
67	285.4676048755646	movie	1		280	65.0	2.5	/experiments/Knapen_AOT/AOT_stimuli/rescaled_final/0022_rv.mp4	0.0	310.1544404029846	2.4920055866241455
67	286.64281034469604	pulse	1	t		65.0	2.5	/experiments/Knapen_AOT/AOT_stimuli/rescaled_final/0022_rv.mp4	0.0	311.3296458721161	
67	287.9596104621887	fix_post	2		12	65.0	2.5	/experiments/Knapen_AOT/AOT_stimuli/rescaled_final/0022_rv.mp4	0.0	312.64644598960876	0.10004115104675293
68	288.0596516132355	fix_pre	0		120	66.0	2.5	/experiments/Knapen_AOT/AOT_stimuli/rescaled_final/1527_fw.mp4	0.0	312.7464871406555	1.0084993839263916
68	288.243266582489	pulse	0	t		66.0	2.5	/experiments/Knapen_AOT/AOT_stimuli/rescaled_final/1527_fw.mp4	0.0	312.93010210990906	
68	289.06815099716187	movie	1		272	66.0	2.5	/experiments/Knapen_AOT/AOT_stimuli/rescaled_final/1527_fw.mp4	0.0	313.7549865245819	2.4920637607574463
68	289.84371042251587	pulse	1	t		66.0	2.5	/experiments/Knapen_AOT/AOT_stimuli/rescaled_final/1527_fw.mp4	0.0	314.5305459499359	
68	291.4421167373657	pulse	1	t		66.0	2.5	/experiments/Knapen_AOT/AOT_stimuli/rescaled_final/1527_fw.mp4	0.0	316.12895226478577	
68	291.5602147579193	fix_post	2		12	66.0	2.5	/experiments/Knapen_AOT/AOT_stimuli/rescaled_final/1527_fw.mp4	0.0	316.24705028533936	0.10001182556152344
69	291.66022658348083	fix_pre	0		120	67.0	2.5	/experiments/Knapen_AOT/AOT_stimuli/rescaled_final/0755_fw.mp4	0.0	316.3470621109009	1.0084624290466309
69	292.66868901252747	movie	1		270	67.0	2.5	/experiments/Knapen_AOT/AOT_stimuli/rescaled_final/0755_fw.mp4	0.0	317.3555245399475	2.4920058250427246
69	293.0440983772278	pulse	1	t		67.0	2.5	/experiments/Knapen_AOT/AOT_stimuli/rescaled_final/0755_fw.mp4	0.0	317.7309339046478	
69	294.6424648761749	pulse	1	t		67.0	2.5	/experiments/Knapen_AOT/AOT_stimuli/rescaled_final/0755_fw.mp4	0.0	319.32930040359497	
69	295.1606948375702	fix_post	2		12	67.0	2.5	/experiments/Knapen_AOT/AOT_stimuli/rescaled_final/0755_fw.mp4	0.0	319.84753036499023	0.10002517700195312
70	295.26072001457214	fix_pre	0		119	68.0	2.5	/experiments/Knapen_AOT/AOT_stimuli/rescaled_final/0428_fw.mp4	0.0	319.9475555419922	1.000176191329956
70	296.244713306427	pulse	0	t		68.0	2.5	/experiments/Knapen_AOT/AOT_stimuli/rescaled_final/0428_fw.mp4	0.0	320.93154883384705	
70	296.2608962059021	movie	1		290	68.0	2.5	/experiments/Knapen_AOT/AOT_stimuli/rescaled_final/0428_fw.mp4	0.0	320.94773173332214	2.5003931522369385
70	297.8433003425598	pulse	1	t		68.0	2.5	/experiments/Knapen_AOT/AOT_stimuli/rescaled_final/0428_fw.mp4	0.0	322.53013586997986	
70	298.76128935813904	fix_post	2		12	68.0	2.5	/experiments/Knapen_AOT/AOT_stimuli/rescaled_final/0428_fw.mp4	0.0	323.4481248855591	0.10001802444458008
71	298.8613073825836	fix_pre	0		120	69.0	2.5	/experiments/Knapen_AOT/AOT_stimuli/rescaled_final/1299_fw.mp4	0.0	323.54814291000366	1.0084786415100098
71	299.44510197639465	pulse	0	t		69.0	2.5	/experiments/Knapen_AOT/AOT_stimuli/rescaled_final/1299_fw.mp4	0.0	324.1319375038147	
71	299.8697860240936	movie	1		280	69.0	2.5	/experiments/Knapen_AOT/AOT_stimuli/rescaled_final/1299_fw.mp4	0.0	324.5566215515137	2.491978406906128
71	301.0434889793396	pulse	1	t		69.0	2.5	/experiments/Knapen_AOT/AOT_stimuli/rescaled_final/1299_fw.mp4	0.0	325.73032450675964	
71	302.36176443099976	fix_post	2		12	69.0	2.5	/experiments/Knapen_AOT/AOT_stimuli/rescaled_final/1299_fw.mp4	0.0	327.0485999584198	0.10009431838989258
72	302.46185874938965	fix_pre	0		119	70.0	2.5	blank	1.0	327.1486942768097	1.0000874996185303
72	302.63790678977966	pulse	0	t		70.0	2.5	blank	1.0	327.3247423171997	
72	303.4619462490082	movie	1		300	70.0	2.5	blank	1.0	328.1487817764282	2.5004332065582275
72	304.2383658885956	pulse	1	t		70.0	2.5	blank	1.0	328.9252014160156	
72	305.83838295936584	pulse	1	t		70.0	2.5	blank	1.0	330.5252184867859	
72	305.9623794555664	fix_post	2		12	70.0	2.5	blank	1.0	330.64921498298645	0.10001111030578613
73	306.0623905658722	fix_pre	0		120	71.0	2.5	/experiments/Knapen_AOT/AOT_stimuli/rescaled_final/1590_fw.mp4	0.0	330.74922609329224	1.008432388305664
73	307.07082295417786	movie	1		282	71.0	2.5	/experiments/Knapen_AOT/AOT_stimuli/rescaled_final/1590_fw.mp4	0.0	331.7576584815979	2.492032766342163
73	307.43869829177856	pulse	1	t		71.0	2.5	/experiments/Knapen_AOT/AOT_stimuli/rescaled_final/1590_fw.mp4	0.0	332.1255338191986	
73	309.03857374191284	pulse	1	t		71.0	2.5	/experiments/Knapen_AOT/AOT_stimuli/rescaled_final/1590_fw.mp4	0.0	333.7254092693329	
73	309.56285572052	fix_post	2		12	71.0	2.5	/experiments/Knapen_AOT/AOT_stimuli/rescaled_final/1590_fw.mp4	0.0	334.24969124794006	0.10004472732543945
74	309.66290044784546	fix_pre	0		118	72.0	2.5	/experiments/Knapen_AOT/AOT_stimuli/rescaled_final/0514_fw.mp4	0.0	334.3497359752655	0.9918420314788818
74	310.6383707523346	pulse	0	t		72.0	2.5	/experiments/Knapen_AOT/AOT_stimuli/rescaled_final/0514_fw.mp4	0.0	335.32520627975464	
74	310.65474247932434	movie	1		270	72.0	2.5	/experiments/Knapen_AOT/AOT_stimuli/rescaled_final/0514_fw.mp4	0.0	335.3415780067444	2.500462532043457
74	312.2387080192566	pulse	1	t		72.0	2.5	/experiments/Knapen_AOT/AOT_stimuli/rescaled_final/0514_fw.mp4	0.0	336.92554354667664	
74	313.1552050113678	fix_post	2		12	72.0	2.5	/experiments/Knapen_AOT/AOT_stimuli/rescaled_final/0514_fw.mp4	0.0	337.84204053878784	0.09996414184570312
75	313.2551691532135	fix_pre	0		120	73.0	2.5	/experiments/Knapen_AOT/AOT_stimuli/rescaled_final/1802_rv.mp4	0.0	337.94200468063354	1.0084199905395508
75	313.83885192871094	pulse	0	t		73.0	2.5	/experiments/Knapen_AOT/AOT_stimuli/rescaled_final/1802_rv.mp4	0.0	338.525687456131	
75	314.26358914375305	movie	1		266	73.0	2.5	/experiments/Knapen_AOT/AOT_stimuli/rescaled_final/1802_rv.mp4	0.0	338.9504246711731	2.492205858230591
75	315.4389226436615	pulse	1	t		73.0	2.5	/experiments/Knapen_AOT/AOT_stimuli/rescaled_final/1802_rv.mp4	0.0	340.12575817108154	
75	316.75579500198364	fix_post	2		12	73.0	2.5	/experiments/Knapen_AOT/AOT_stimuli/rescaled_final/1802_rv.mp4	0.0	341.4426305294037	0.09983301162719727
76	316.85562801361084	fix_pre	0		120	74.0	2.5	/experiments/Knapen_AOT/AOT_stimuli/rescaled_final/1877_rv.mp4	0.0	341.5424635410309	1.0086455345153809
76	317.03924560546875	pulse	0	t		74.0	2.5	/experiments/Knapen_AOT/AOT_stimuli/rescaled_final/1877_rv.mp4	0.0	341.7260811328888	
76	317.8642735481262	movie	1		277	74.0	2.5	/experiments/Knapen_AOT/AOT_stimuli/rescaled_final/1877_rv.mp4	0.0	342.55110907554626	2.4918808937072754
76	318.63950991630554	pulse	1	t		74.0	2.5	/experiments/Knapen_AOT/AOT_stimuli/rescaled_final/1877_rv.mp4	0.0	343.3263454437256	
76	320.2396926879883	pulse	1	t		74.0	2.5	/experiments/Knapen_AOT/AOT_stimuli/rescaled_final/1877_rv.mp4	0.0	344.9265282154083	
76	320.3561544418335	fix_post	2		12	74.0	2.5	/experiments/Knapen_AOT/AOT_stimuli/rescaled_final/1877_rv.mp4	0.0	345.04298996925354	0.10001897811889648
77	320.4561734199524	fix_pre	0		120	75.0	2.5	/experiments/Knapen_AOT/AOT_stimuli/rescaled_final/1505_fw.mp4	0.0	345.14300894737244	1.0085046291351318
77	321.4646780490875	movie	1		273	75.0	2.5	/experiments/Knapen_AOT/AOT_stimuli/rescaled_final/1505_fw.mp4	0.0	346.15151357650757	2.4920268058776855
77	321.8390986919403	pulse	1	t		75.0	2.5	/experiments/Knapen_AOT/AOT_stimuli/rescaled_final/1505_fw.mp4	0.0	346.52593421936035	
77	323.43942403793335	pulse	1	t		75.0	2.5	/experiments/Knapen_AOT/AOT_stimuli/rescaled_final/1505_fw.mp4	0.0	348.1262595653534	
77	323.9567048549652	fix_post	2		12	75.0	2.5	/experiments/Knapen_AOT/AOT_stimuli/rescaled_final/1505_fw.mp4	0.0	348.64354038238525	0.10002660751342773
78	324.05673146247864	fix_pre	0		119	76.0	2.5	/experiments/Knapen_AOT/AOT_stimuli/rescaled_final/0772_rv.mp4	0.0	348.7435669898987	1.0002062320709229
78	325.0405623912811	pulse	0	t		76.0	2.5	/experiments/Knapen_AOT/AOT_stimuli/rescaled_final/0772_rv.mp4	0.0	349.7273979187012	
78	325.05693769454956	movie	1		286	76.0	2.5	/experiments/Knapen_AOT/AOT_stimuli/rescaled_final/0772_rv.mp4	0.0	349.7437732219696	2.5003015995025635
78	326.639365196228	pulse	1	t		76.0	2.5	/experiments/Knapen_AOT/AOT_stimuli/rescaled_final/0772_rv.mp4	0.0	351.32620072364807	
78	327.5572392940521	fix_post	2		12	76.0	2.5	/experiments/Knapen_AOT/AOT_stimuli/rescaled_final/0772_rv.mp4	0.0	352.24407482147217	0.10000348091125488
79	327.6572427749634	fix_pre	0		120	77.0	2.5	blank	1.0	352.3440783023834	1.0001654624938965
79	328.24091625213623	pulse	0	t		77.0	2.5	blank	1.0	352.9277517795563	
79	328.6574082374573	movie	1		300	77.0	2.5	blank	1.0	353.3442437648773	2.5004990100860596
79	329.841374874115	pulse	1	t		77.0	2.5	blank	1.0	354.52821040153503	
79	331.15790724754333	fix_post	2		12	77.0	2.5	blank	1.0	355.8447427749634	0.09991693496704102
80	331.2578241825104	fix_pre	0		120	78.0	2.5	/experiments/Knapen_AOT/AOT_stimuli/rescaled_final/2160_rv.mp4	0.0	355.9446597099304	1.008476972579956
80	331.4415900707245	pulse	0	t		78.0	2.5	/experiments/Knapen_AOT/AOT_stimuli/rescaled_final/2160_rv.mp4	0.0	356.12842559814453	
80	332.26630115509033	movie	1		269	78.0	2.5	/experiments/Knapen_AOT/AOT_stimuli/rescaled_final/2160_rv.mp4	0.0	356.9531366825104	2.492027997970581
80	333.040495634079	pulse	1	t		78.0	2.5	/experiments/Knapen_AOT/AOT_stimuli/rescaled_final/2160_rv.mp4	0.0	357.727331161499	
80	334.6401126384735	pulse	1	t		78.0	2.5	/experiments/Knapen_AOT/AOT_stimuli/rescaled_final/2160_rv.mp4	0.0	359.32694816589355	
80	334.7583291530609	fix_post	2		12	78.0	2.5	/experiments/Knapen_AOT/AOT_stimuli/rescaled_final/2160_rv.mp4	0.0	359.44516468048096	0.10007619857788086
81	334.8584053516388	fix_pre	0		120	79.0	2.5	/experiments/Knapen_AOT/AOT_stimuli/rescaled_final/1851_rv.mp4	0.0	359.54524087905884	1.0085382461547852
81	335.8669435977936	movie	1		269	79.0	2.5	/experiments/Knapen_AOT/AOT_stimuli/rescaled_final/1851_rv.mp4	0.0	360.5537791252136	2.4919140338897705
81	336.2418751716614	pulse	1	t		79.0	2.5	/experiments/Knapen_AOT/AOT_stimuli/rescaled_final/1851_rv.mp4	0.0	360.9287106990814	
81	337.8425323963165	pulse	1	t		79.0	2.5	/experiments/Knapen_AOT/AOT_stimuli/rescaled_final/1851_rv.mp4	0.0	362.5293679237366	
81	338.35885763168335	fix_post	2		12	79.0	2.5	/experiments/Knapen_AOT/AOT_stimuli/rescaled_final/1851_rv.mp4	0.0	363.0456931591034	0.10009455680847168
82	338.4589521884918	fix_pre	0		119	80.0	2.5	/experiments/Knapen_AOT/AOT_stimuli/rescaled_final/0511_fw.mp4	0.0	363.14578771591187	1.0085046291351318
82	339.44270610809326	pulse	0	t		80.0	2.5	/experiments/Knapen_AOT/AOT_stimuli/rescaled_final/0511_fw.mp4	0.0	364.1295416355133	
82	339.46745681762695	movie	1		284	80.0	2.5	/experiments/Knapen_AOT/AOT_stimuli/rescaled_final/0511_fw.mp4	0.0	364.154292345047	2.491995334625244
82	341.0415177345276	pulse	1	t		80.0	2.5	/experiments/Knapen_AOT/AOT_stimuli/rescaled_final/0511_fw.mp4	0.0	365.72835326194763	
82	341.9594521522522	fix_post	2		12	80.0	2.5	/experiments/Knapen_AOT/AOT_stimuli/rescaled_final/0511_fw.mp4	0.0	366.64628767967224	0.09998941421508789
83	342.0594415664673	fix_pre	0		120	81.0	2.5	/experiments/Knapen_AOT/AOT_stimuli/rescaled_final/0175_fw.mp4	0.0	366.74627709388733	1.008486032485962
83	342.6432273387909	pulse	0	t		81.0	2.5	/experiments/Knapen_AOT/AOT_stimuli/rescaled_final/0175_fw.mp4	0.0	367.33006286621094	
83	343.06792759895325	movie	1		261	81.0	2.5	/experiments/Knapen_AOT/AOT_stimuli/rescaled_final/0175_fw.mp4	0.0	367.7547631263733	2.4919979572296143
83	344.24356341362	pulse	1	t		81.0	2.5	/experiments/Knapen_AOT/AOT_stimuli/rescaled_final/0175_fw.mp4	0.0	368.93039894104004	
83	345.55992555618286	fix_post	2		12	81.0	2.5	/experiments/Knapen_AOT/AOT_stimuli/rescaled_final/0175_fw.mp4	0.0	370.2467610836029	0.10003376007080078
84	345.65995931625366	fix_pre	0		120	82.0	2.5	/experiments/Knapen_AOT/AOT_stimuli/rescaled_final/2158_rv.mp4	0.0	370.3467948436737	1.008498191833496
84	345.843549489975	pulse	0	t		82.0	2.5	/experiments/Knapen_AOT/AOT_stimuli/rescaled_final/2158_rv.mp4	0.0	370.530385017395	
84	346.66845750808716	movie	1		270	82.0	2.5	/experiments/Knapen_AOT/AOT_stimuli/rescaled_final/2158_rv.mp4	0.0	371.3552930355072	2.4920589923858643
84	347.44200253486633	pulse	1	t		82.0	2.5	/experiments/Knapen_AOT/AOT_stimuli/rescaled_final/2158_rv.mp4	0.0	372.1288380622864	
84	349.0429401397705	pulse	1	t		82.0	2.5	/experiments/Knapen_AOT/AOT_stimuli/rescaled_final/2158_rv.mp4	0.0	373.72977566719055	
84	349.160516500473	fix_post	2		12	82.0	2.5	/experiments/Knapen_AOT/AOT_stimuli/rescaled_final/2158_rv.mp4	0.0	373.84735202789307	0.09998369216918945
85	349.2605001926422	fix_pre	0		120	83.0	2.5	blank	1.0	373.94733572006226	1.0001842975616455
85	350.26068449020386	movie	1		300	83.0	2.5	blank	1.0	374.9475200176239	2.500338554382324
85	350.6442403793335	pulse	1	t		83.0	2.5	blank	1.0	375.33107590675354	
85	352.24448895454407	pulse	1	t		83.0	2.5	blank	1.0	376.9313244819641	
85	352.7610230445862	fix_post	2		12	83.0	2.5	blank	1.0	377.4478585720062	0.1000223159790039
87	352.8610453605652	stim	0		1715					377.54788088798523	14.293799877166748
87	353.8447778224945	pulse	0	t						378.53161334991455	
87	355.4450509548187	pulse	0	t						380.13188648223877	
87	357.04523825645447	pulse	0	t						381.7320737838745	
87	358.6454973220825	pulse	0	t						383.33233284950256	
87	360.2458209991455	pulse	0	t						384.93265652656555	
87	361.83839297294617	pulse	0	t						386.5252285003662	
87	363.43859362602234	pulse	0	t						388.1254291534424	
87	365.0384843349457	pulse	0	t						389.7253198623657	
87	366.63856863975525	pulse	0	t						391.3254041671753	
