trial_nr	onset	event_type	phase	response	nr_frames	movie_index	movie_duration	movie_file	blank	onset_abs	duration
0	0.1578810214996338	stim	0		12					20.23429012298584	0.10050082206726074
0	0.25025391578674316	response	0	space						20.32666301727295	
1	0.25838184356689453	stim	0		4565					20.3347909450531	38.041423082351685
1	38.295933961868286	pulse	0	t						58.37234306335449	
1	38.29980492591858	stim	1		1717					58.376214027404785	14.30823802947998
1	39.891562938690186	pulse	1	t						59.96797204017639	
1	41.491235971450806	pulse	1	t						61.56764507293701	
1	43.09148597717285	pulse	1	t						63.16789507865906	
1	44.69156885147095	pulse	1	t						64.76797795295715	
1	46.29158091545105	pulse	1	t						66.36799001693726	
1	47.891424894332886	pulse	1	t						67.96783399581909	
1	49.49144792556763	pulse	1	t						69.56785702705383	
1	51.09135699272156	pulse	1	t						71.16776609420776	
2	52.60804295539856	fix_pre	0		11	0.0	2.5	/experiments/AOT/AOT_stimuli/rescaled_final/0691_fw.mp4	0.0	72.68445205688477	0.0916290283203125
2	52.691489934921265	pulse	0	t		0.0	2.5	/experiments/AOT/AOT_stimuli/rescaled_final/0691_fw.mp4	0.0	72.76789903640747	
2	52.69967198371887	movie	1		243	0.0	2.5	/experiments/AOT/AOT_stimuli/rescaled_final/0691_fw.mp4	0.0	72.77608108520508	2.508344888687134
2	54.29135799407959	pulse	1	t		0.0	2.5	/experiments/AOT/AOT_stimuli/rescaled_final/0691_fw.mp4	0.0	74.3677670955658	
2	55.208016872406006	fix_post	2		12	0.0	2.5	/experiments/AOT/AOT_stimuli/rescaled_final/0691_fw.mp4	0.0	75.28442597389221	0.10000014305114746
3	55.30801701545715	fix_pre	0		120	1.0	2.5	/experiments/AOT/AOT_stimuli/rescaled_final/1559_rv.mp4	0.0	75.38442611694336	1.0000028610229492
3	55.89143395423889	pulse	0	t		1.0	2.5	/experiments/AOT/AOT_stimuli/rescaled_final/1559_rv.mp4	0.0	75.9678430557251	
3	56.3080198764801	movie	1		242	1.0	2.5	/experiments/AOT/AOT_stimuli/rescaled_final/1559_rv.mp4	0.0	76.38442897796631	2.5000319480895996
3	57.491501808166504	pulse	1	t		1.0	2.5	/experiments/AOT/AOT_stimuli/rescaled_final/1559_rv.mp4	0.0	77.56791090965271	
3	58.8080518245697	fix_post	2		12	1.0	2.5	/experiments/AOT/AOT_stimuli/rescaled_final/1559_rv.mp4	0.0	78.88446092605591	0.10002398490905762
4	58.90807580947876	fix_pre	0		120	2.0	2.5	/experiments/AOT/AOT_stimuli/rescaled_final/1815_rv.mp4	0.0	78.98448491096497	0.9999330043792725
4	59.09155082702637	pulse	0	t		2.0	2.5	/experiments/AOT/AOT_stimuli/rescaled_final/1815_rv.mp4	0.0	79.16795992851257	
4	59.90800881385803	movie	1		245	2.0	2.5	/experiments/AOT/AOT_stimuli/rescaled_final/1815_rv.mp4	0.0	79.98441791534424	2.499528169631958
4	60.691457986831665	pulse	1	t		2.0	2.5	/experiments/AOT/AOT_stimuli/rescaled_final/1815_rv.mp4	0.0	80.76786708831787	
4	62.299818992614746	pulse	1	t		2.0	2.5	/experiments/AOT/AOT_stimuli/rescaled_final/1815_rv.mp4	0.0	82.37622809410095	
4	62.40753698348999	fix_post	2		12	2.0	2.5	/experiments/AOT/AOT_stimuli/rescaled_final/1815_rv.mp4	0.0	82.4839460849762	0.10032486915588379
5	62.507861852645874	fix_pre	0		120	3.0	2.5	/experiments/AOT/AOT_stimuli/rescaled_final/0264_rv.mp4	0.0	82.58427095413208	1.0001239776611328
5	63.50798583030701	movie	1		244	3.0	2.5	/experiments/AOT/AOT_stimuli/rescaled_final/0264_rv.mp4	0.0	83.58439493179321	2.499932050704956
5	63.890992879867554	pulse	1	t		3.0	2.5	/experiments/AOT/AOT_stimuli/rescaled_final/0264_rv.mp4	0.0	83.96740198135376	
5	65.49143600463867	pulse	1	t		3.0	2.5	/experiments/AOT/AOT_stimuli/rescaled_final/0264_rv.mp4	0.0	85.56784510612488	
5	66.00791788101196	fix_post	2		12	3.0	2.5	/experiments/AOT/AOT_stimuli/rescaled_final/0264_rv.mp4	0.0	86.08432698249817	0.1000509262084961
6	66.10796880722046	fix_pre	0		119	4.0	2.5	/experiments/AOT/AOT_stimuli/rescaled_final/1937_fw.mp4	0.0	86.18437790870667	0.9916291236877441
6	67.0913918018341	pulse	0	t		4.0	2.5	/experiments/AOT/AOT_stimuli/rescaled_final/1937_fw.mp4	0.0	87.16780090332031	
6	67.0995979309082	movie	1		245	4.0	2.5	/experiments/AOT/AOT_stimuli/rescaled_final/1937_fw.mp4	0.0	87.17600703239441	2.5082859992980957
6	68.69173288345337	pulse	1	t		4.0	2.5	/experiments/AOT/AOT_stimuli/rescaled_final/1937_fw.mp4	0.0	88.76814198493958	
6	69.6078839302063	fix_post	2		12	4.0	2.5	/experiments/AOT/AOT_stimuli/rescaled_final/1937_fw.mp4	0.0	89.6842930316925	0.10003495216369629
7	69.70791888237	fix_pre	0		120	5.0	2.5	blank	1.0	89.7843279838562	1.0000460147857666
7	70.29146599769592	pulse	0	t		5.0	2.5	blank	1.0	90.36787509918213	
7	70.70796489715576	movie	1		300	5.0	2.5	blank	1.0	90.78437399864197	2.5
7	71.89139699935913	pulse	1	t		5.0	2.5	blank	1.0	91.96780610084534	
7	73.20796489715576	fix_post	2		12	5.0	2.5	blank	1.0	93.28437399864197	0.09997200965881348
8	73.30793690681458	fix_pre	0		120	6.0	2.5	/experiments/AOT/AOT_stimuli/rescaled_final/0311_rv.mp4	0.0	93.38434600830078	0.9999880790710449
8	73.4914538860321	pulse	0	t		6.0	2.5	/experiments/AOT/AOT_stimuli/rescaled_final/0311_rv.mp4	0.0	93.56786298751831	
8	74.30792498588562	movie	1		242	6.0	2.5	/experiments/AOT/AOT_stimuli/rescaled_final/0311_rv.mp4	0.0	94.38433408737183	2.4999918937683105
8	75.09142279624939	pulse	1	t		6.0	2.5	/experiments/AOT/AOT_stimuli/rescaled_final/0311_rv.mp4	0.0	95.1678318977356	
8	76.69982600212097	pulse	1	t		6.0	2.5	/experiments/AOT/AOT_stimuli/rescaled_final/0311_rv.mp4	0.0	96.77623510360718	
8	76.80791687965393	fix_post	2		12	6.0	2.5	/experiments/AOT/AOT_stimuli/rescaled_final/0311_rv.mp4	0.0	96.88432598114014	0.10002613067626953
9	76.9079430103302	fix_pre	0		120	7.0	2.5	/experiments/AOT/AOT_stimuli/rescaled_final/1442_rv.mp4	0.0	96.9843521118164	0.999971866607666
9	77.90791487693787	movie	1		243	7.0	2.5	/experiments/AOT/AOT_stimuli/rescaled_final/1442_rv.mp4	0.0	97.98432397842407	2.500077962875366
9	78.29126787185669	pulse	1	t		7.0	2.5	/experiments/AOT/AOT_stimuli/rescaled_final/1442_rv.mp4	0.0	98.3676769733429	
9	79.89142489433289	pulse	1	t		7.0	2.5	/experiments/AOT/AOT_stimuli/rescaled_final/1442_rv.mp4	0.0	99.96783399581909	
9	80.40799283981323	fix_post	2		12	7.0	2.5	/experiments/AOT/AOT_stimuli/rescaled_final/1442_rv.mp4	0.0	100.48440194129944	0.09995102882385254
10	80.50794386863708	fix_pre	0		119	8.0	2.5	/experiments/AOT/AOT_stimuli/rescaled_final/1575_rv.mp4	0.0	100.58435297012329	0.9915931224822998
10	81.4914779663086	pulse	0	t		8.0	2.5	/experiments/AOT/AOT_stimuli/rescaled_final/1575_rv.mp4	0.0	101.5678870677948	
10	81.49953699111938	movie	1		246	8.0	2.5	/experiments/AOT/AOT_stimuli/rescaled_final/1575_rv.mp4	0.0	101.57594609260559	2.508270025253296
10	83.09107184410095	pulse	1	t		8.0	2.5	/experiments/AOT/AOT_stimuli/rescaled_final/1575_rv.mp4	0.0	103.16748094558716	
10	84.00780701637268	fix_post	2		12	8.0	2.5	/experiments/AOT/AOT_stimuli/rescaled_final/1575_rv.mp4	0.0	104.08421611785889	0.1000068187713623
11	84.10781383514404	fix_pre	0		120	9.0	2.5	/experiments/AOT/AOT_stimuli/rescaled_final/0570_rv.mp4	0.0	104.18422293663025	0.9999611377716064
11	84.6913390159607	pulse	0	t		9.0	2.5	/experiments/AOT/AOT_stimuli/rescaled_final/0570_rv.mp4	0.0	104.7677481174469	
11	85.10777497291565	movie	1		243	9.0	2.5	/experiments/AOT/AOT_stimuli/rescaled_final/0570_rv.mp4	0.0	105.18418407440186	2.5001299381256104
11	86.29140400886536	pulse	1	t		9.0	2.5	/experiments/AOT/AOT_stimuli/rescaled_final/0570_rv.mp4	0.0	106.36781311035156	
11	87.60790491104126	fix_post	2		12	9.0	2.5	/experiments/AOT/AOT_stimuli/rescaled_final/0570_rv.mp4	0.0	107.68431401252747	0.09997296333312988
12	87.70787787437439	fix_pre	0		120	10.0	2.5	/experiments/AOT/AOT_stimuli/rescaled_final/1691_rv.mp4	0.0	107.7842869758606	1.0000441074371338
12	87.89138102531433	pulse	0	t		10.0	2.5	/experiments/AOT/AOT_stimuli/rescaled_final/1691_rv.mp4	0.0	107.96779012680054	
12	88.70792198181152	movie	1		243	10.0	2.5	/experiments/AOT/AOT_stimuli/rescaled_final/1691_rv.mp4	0.0	108.78433108329773	2.500044822692871
12	89.49134588241577	pulse	1	t		10.0	2.5	/experiments/AOT/AOT_stimuli/rescaled_final/1691_rv.mp4	0.0	109.56775498390198	
12	91.09970879554749	pulse	1	t		10.0	2.5	/experiments/AOT/AOT_stimuli/rescaled_final/1691_rv.mp4	0.0	111.17611789703369	
12	91.2079668045044	fix_post	2		12	10.0	2.5	/experiments/AOT/AOT_stimuli/rescaled_final/1691_rv.mp4	0.0	111.2843759059906	0.09989714622497559
13	91.30786395072937	fix_pre	0		120	11.0	2.5	/experiments/AOT/AOT_stimuli/rescaled_final/0252_fw.mp4	0.0	111.38427305221558	1.0000269412994385
13	92.30789089202881	movie	1		243	11.0	2.5	/experiments/AOT/AOT_stimuli/rescaled_final/0252_fw.mp4	0.0	112.38429999351501	2.4999349117279053
13	92.69251990318298	pulse	1	t		11.0	2.5	/experiments/AOT/AOT_stimuli/rescaled_final/0252_fw.mp4	0.0	112.76892900466919	
13	94.29132580757141	pulse	1	t		11.0	2.5	/experiments/AOT/AOT_stimuli/rescaled_final/0252_fw.mp4	0.0	114.36773490905762	
13	94.80782580375671	fix_post	2		12	11.0	2.5	/experiments/AOT/AOT_stimuli/rescaled_final/0252_fw.mp4	0.0	114.88423490524292	0.10001516342163086
14	94.90784096717834	fix_pre	0		119	12.0	2.5	/experiments/AOT/AOT_stimuli/rescaled_final/1904_rv.mp4	0.0	114.98425006866455	0.9917099475860596
14	95.8913369178772	pulse	0	t		12.0	2.5	/experiments/AOT/AOT_stimuli/rescaled_final/1904_rv.mp4	0.0	115.9677460193634	
14	95.8995509147644	movie	1		246	12.0	2.5	/experiments/AOT/AOT_stimuli/rescaled_final/1904_rv.mp4	0.0	115.97596001625061	2.5081140995025635
14	97.49081683158875	pulse	1	t		12.0	2.5	/experiments/AOT/AOT_stimuli/rescaled_final/1904_rv.mp4	0.0	117.56722593307495	
14	98.40766501426697	fix_post	2		12	12.0	2.5	/experiments/AOT/AOT_stimuli/rescaled_final/1904_rv.mp4	0.0	118.48407411575317	0.10043692588806152
15	98.50810194015503	fix_pre	0		120	13.0	2.5	blank	1.0	118.58451104164124	0.9997620582580566
15	99.09132790565491	pulse	0	t		13.0	2.5	blank	1.0	119.16773700714111	
15	99.50786399841309	movie	1		300	13.0	2.5	blank	1.0	119.58427309989929	2.4999148845672607
15	100.69125294685364	pulse	1	t		13.0	2.5	blank	1.0	120.76766204833984	
15	102.00777888298035	fix_post	2		12	13.0	2.5	blank	1.0	122.08418798446655	0.10000801086425781
16	102.1077868938446	fix_pre	0		120	14.0	2.5	/experiments/AOT/AOT_stimuli/rescaled_final/1485_rv.mp4	0.0	122.18419599533081	0.9996199607849121
16	102.29129791259766	pulse	0	t		14.0	2.5	/experiments/AOT/AOT_stimuli/rescaled_final/1485_rv.mp4	0.0	122.36770701408386	
16	103.10740685462952	movie	1		245	14.0	2.5	/experiments/AOT/AOT_stimuli/rescaled_final/1485_rv.mp4	0.0	123.18381595611572	2.500333070755005
16	103.89119696617126	pulse	1	t		14.0	2.5	/experiments/AOT/AOT_stimuli/rescaled_final/1485_rv.mp4	0.0	123.96760606765747	
16	105.49963283538818	pulse	1	t		14.0	2.5	/experiments/AOT/AOT_stimuli/rescaled_final/1485_rv.mp4	0.0	125.57604193687439	
16	105.60773992538452	fix_post	2		12	14.0	2.5	/experiments/AOT/AOT_stimuli/rescaled_final/1485_rv.mp4	0.0	125.68414902687073	0.10002994537353516
17	105.70776987075806	fix_pre	0		120	15.0	2.5	/experiments/AOT/AOT_stimuli/rescaled_final/0919_fw.mp4	0.0	125.78417897224426	0.9999649524688721
17	106.70773482322693	movie	1		244	15.0	2.5	/experiments/AOT/AOT_stimuli/rescaled_final/0919_fw.mp4	0.0	126.78414392471313	2.4999170303344727
17	107.09110879898071	pulse	1	t		15.0	2.5	/experiments/AOT/AOT_stimuli/rescaled_final/0919_fw.mp4	0.0	127.16751790046692	
17	108.69115495681763	pulse	1	t		15.0	2.5	/experiments/AOT/AOT_stimuli/rescaled_final/0919_fw.mp4	0.0	128.76756405830383	
17	109.2076518535614	fix_post	2		12	15.0	2.5	/experiments/AOT/AOT_stimuli/rescaled_final/0919_fw.mp4	0.0	129.2840609550476	0.10007905960083008
18	109.30773091316223	fix_pre	0		119	16.0	2.5	/experiments/AOT/AOT_stimuli/rescaled_final/1966_rv.mp4	0.0	129.38414001464844	0.9916810989379883
18	110.29120683670044	pulse	0	t		16.0	2.5	/experiments/AOT/AOT_stimuli/rescaled_final/1966_rv.mp4	0.0	130.36761593818665	
18	110.29941201210022	movie	1		246	16.0	2.5	/experiments/AOT/AOT_stimuli/rescaled_final/1966_rv.mp4	0.0	130.37582111358643	2.508328914642334
18	111.89079093933105	pulse	1	t		16.0	2.5	/experiments/AOT/AOT_stimuli/rescaled_final/1966_rv.mp4	0.0	131.96720004081726	
18	112.80774092674255	fix_post	2		12	16.0	2.5	/experiments/AOT/AOT_stimuli/rescaled_final/1966_rv.mp4	0.0	132.88415002822876	0.09996604919433594
19	112.90770697593689	fix_pre	0		120	17.0	2.5	/experiments/AOT/AOT_stimuli/rescaled_final/1502_rv.mp4	0.0	132.9841160774231	1.0000648498535156
19	113.49134683609009	pulse	0	t		17.0	2.5	/experiments/AOT/AOT_stimuli/rescaled_final/1502_rv.mp4	0.0	133.5677559375763	
19	113.9077718257904	movie	1		245	17.0	2.5	/experiments/AOT/AOT_stimuli/rescaled_final/1502_rv.mp4	0.0	133.9841809272766	2.499948024749756
19	115.0912299156189	pulse	1	t		17.0	2.5	/experiments/AOT/AOT_stimuli/rescaled_final/1502_rv.mp4	0.0	135.1676390171051	
19	116.40771985054016	fix_post	2		12	17.0	2.5	/experiments/AOT/AOT_stimuli/rescaled_final/1502_rv.mp4	0.0	136.48412895202637	0.09999203681945801
20	116.50771188735962	fix_pre	0		120	18.0	2.5	/experiments/AOT/AOT_stimuli/rescaled_final/1441_fw.mp4	0.0	136.58412098884583	1.0000340938568115
20	116.69122982025146	pulse	0	t		18.0	2.5	/experiments/AOT/AOT_stimuli/rescaled_final/1441_fw.mp4	0.0	136.76763892173767	
20	117.50774598121643	movie	1		243	18.0	2.5	/experiments/AOT/AOT_stimuli/rescaled_final/1441_fw.mp4	0.0	137.58415508270264	2.4999499320983887
20	118.29131603240967	pulse	1	t		18.0	2.5	/experiments/AOT/AOT_stimuli/rescaled_final/1441_fw.mp4	0.0	138.36772513389587	
20	119.89959287643433	pulse	1	t		18.0	2.5	/experiments/AOT/AOT_stimuli/rescaled_final/1441_fw.mp4	0.0	139.97600197792053	
20	120.00769591331482	fix_post	2		12	18.0	2.5	/experiments/AOT/AOT_stimuli/rescaled_final/1441_fw.mp4	0.0	140.08410501480103	0.09998607635498047
21	120.1076819896698	fix_pre	0		120	19.0	2.5	blank	1.0	140.184091091156	1.0000958442687988
21	121.1077778339386	movie	1		300	19.0	2.5	blank	1.0	141.1841869354248	2.4998691082000732
21	121.49119997024536	pulse	1	t		19.0	2.5	blank	1.0	141.56760907173157	
21	123.09114694595337	pulse	1	t		19.0	2.5	blank	1.0	143.16755604743958	
21	123.60764694213867	fix_post	2		12	19.0	2.5	blank	1.0	143.68405604362488	0.10005688667297363
22	123.70770382881165	fix_pre	0		119	20.0	2.5	/experiments/AOT/AOT_stimuli/rescaled_final/1474_rv.mp4	0.0	143.78411293029785	0.9916431903839111
22	124.69113802909851	pulse	0	t		20.0	2.5	/experiments/AOT/AOT_stimuli/rescaled_final/1474_rv.mp4	0.0	144.76754713058472	
22	124.69934701919556	movie	1		245	20.0	2.5	/experiments/AOT/AOT_stimuli/rescaled_final/1474_rv.mp4	0.0	144.77575612068176	2.5082738399505615
22	126.29097700119019	pulse	1	t		20.0	2.5	/experiments/AOT/AOT_stimuli/rescaled_final/1474_rv.mp4	0.0	146.3673861026764	
22	127.20762085914612	fix_post	2		12	20.0	2.5	/experiments/AOT/AOT_stimuli/rescaled_final/1474_rv.mp4	0.0	147.28402996063232	0.10005807876586914
23	127.30767893791199	fix_pre	0		120	21.0	2.5	/experiments/AOT/AOT_stimuli/rescaled_final/1021_rv.mp4	0.0	147.3840880393982	1.0000450611114502
23	127.89115190505981	pulse	0	t		21.0	2.5	/experiments/AOT/AOT_stimuli/rescaled_final/1021_rv.mp4	0.0	147.96756100654602	
23	128.30772399902344	movie	1		245	21.0	2.5	/experiments/AOT/AOT_stimuli/rescaled_final/1021_rv.mp4	0.0	148.38413310050964	2.499521017074585
23	129.49133896827698	pulse	1	t		21.0	2.5	/experiments/AOT/AOT_stimuli/rescaled_final/1021_rv.mp4	0.0	149.56774806976318	
23	130.80724501609802	fix_post	2		12	21.0	2.5	/experiments/AOT/AOT_stimuli/rescaled_final/1021_rv.mp4	0.0	150.88365411758423	0.10037493705749512
24	130.90761995315552	fix_pre	0		120	22.0	2.5	/experiments/AOT/AOT_stimuli/rescaled_final/0554_fw.mp4	0.0	150.98402905464172	1.00006103515625
24	131.09114384651184	pulse	0	t		22.0	2.5	/experiments/AOT/AOT_stimuli/rescaled_final/0554_fw.mp4	0.0	151.16755294799805	
24	131.90768098831177	movie	1		245	22.0	2.5	/experiments/AOT/AOT_stimuli/rescaled_final/0554_fw.mp4	0.0	151.98409008979797	2.50002384185791
24	132.69112586975098	pulse	1	t		22.0	2.5	/experiments/AOT/AOT_stimuli/rescaled_final/0554_fw.mp4	0.0	152.76753497123718	
24	134.29082489013672	pulse	1	t		22.0	2.5	/experiments/AOT/AOT_stimuli/rescaled_final/0554_fw.mp4	0.0	154.36723399162292	
24	134.40770483016968	fix_post	2		12	22.0	2.5	/experiments/AOT/AOT_stimuli/rescaled_final/0554_fw.mp4	0.0	154.48411393165588	0.09993100166320801
25	134.50763583183289	fix_pre	0		120	23.0	2.5	/experiments/AOT/AOT_stimuli/rescaled_final/1575_fw.mp4	0.0	154.5840449333191	1.000082015991211
25	135.5077178478241	movie	1		245	23.0	2.5	/experiments/AOT/AOT_stimuli/rescaled_final/1575_fw.mp4	0.0	155.5841269493103	2.4999921321868896
25	135.8911509513855	pulse	1	t		23.0	2.5	/experiments/AOT/AOT_stimuli/rescaled_final/1575_fw.mp4	0.0	155.9675600528717	
25	137.4911289215088	pulse	1	t		23.0	2.5	/experiments/AOT/AOT_stimuli/rescaled_final/1575_fw.mp4	0.0	157.567538022995	
25	138.007709980011	fix_post	2		12	23.0	2.5	/experiments/AOT/AOT_stimuli/rescaled_final/1575_fw.mp4	0.0	158.0841190814972	0.09994292259216309
26	138.10765290260315	fix_pre	0		119	24.0	2.5	/experiments/AOT/AOT_stimuli/rescaled_final/1439_rv.mp4	0.0	158.18406200408936	0.9916219711303711
26	139.091148853302	pulse	0	t		24.0	2.5	/experiments/AOT/AOT_stimuli/rescaled_final/1439_rv.mp4	0.0	159.1675579547882	
26	139.09927487373352	movie	1		244	24.0	2.5	/experiments/AOT/AOT_stimuli/rescaled_final/1439_rv.mp4	0.0	159.17568397521973	2.5078940391540527
26	140.6994960308075	pulse	1	t		24.0	2.5	/experiments/AOT/AOT_stimuli/rescaled_final/1439_rv.mp4	0.0	160.7759051322937	
26	141.60716891288757	fix_post	2		12	24.0	2.5	/experiments/AOT/AOT_stimuli/rescaled_final/1439_rv.mp4	0.0	161.68357801437378	0.10039806365966797
27	141.70756697654724	fix_pre	0		120	25.0	2.5	/experiments/AOT/AOT_stimuli/rescaled_final/0171_fw.mp4	0.0	161.78397607803345	1.0000338554382324
27	142.29111289978027	pulse	0	t		25.0	2.5	/experiments/AOT/AOT_stimuli/rescaled_final/0171_fw.mp4	0.0	162.36752200126648	
27	142.70760083198547	movie	1		244	25.0	2.5	/experiments/AOT/AOT_stimuli/rescaled_final/0171_fw.mp4	0.0	162.78400993347168	2.499983072280884
27	143.89113783836365	pulse	1	t		25.0	2.5	/experiments/AOT/AOT_stimuli/rescaled_final/0171_fw.mp4	0.0	163.96754693984985	
27	145.20758390426636	fix_post	2		12	25.0	2.5	/experiments/AOT/AOT_stimuli/rescaled_final/0171_fw.mp4	0.0	165.28399300575256	0.09998798370361328
28	145.30757188796997	fix_pre	0		120	26.0	2.5	blank	1.0	165.38398098945618	0.9999611377716064
28	145.49107003211975	pulse	0	t		26.0	2.5	blank	1.0	165.56747913360596	
28	146.30753302574158	movie	1		300	26.0	2.5	blank	1.0	166.38394212722778	2.5000319480895996
28	147.0910680294037	pulse	1	t		26.0	2.5	blank	1.0	167.1674771308899	
28	148.69096994400024	pulse	1	t		26.0	2.5	blank	1.0	168.76737904548645	
28	148.80756497383118	fix_post	2		12	26.0	2.5	blank	1.0	168.88397407531738	0.10004782676696777
29	148.90761280059814	fix_pre	0		120	27.0	2.5	/experiments/AOT/AOT_stimuli/rescaled_final/0565_rv.mp4	0.0	168.98402190208435	0.9999771118164062
29	149.90758991241455	movie	1		245	27.0	2.5	/experiments/AOT/AOT_stimuli/rescaled_final/0565_rv.mp4	0.0	169.98399901390076	2.4995288848876953
29	150.2914388179779	pulse	1	t		27.0	2.5	/experiments/AOT/AOT_stimuli/rescaled_final/0565_rv.mp4	0.0	170.3678479194641	
29	151.8911018371582	pulse	1	t		27.0	2.5	/experiments/AOT/AOT_stimuli/rescaled_final/0565_rv.mp4	0.0	171.9675109386444	
29	152.40711879730225	fix_post	2		12	27.0	2.5	/experiments/AOT/AOT_stimuli/rescaled_final/0565_rv.mp4	0.0	172.48352789878845	0.10047006607055664
30	152.5075888633728	fix_pre	0		120	28.0	2.5	/experiments/AOT/AOT_stimuli/rescaled_final/1121_rv.mp4	0.0	172.583997964859	1.000115156173706
30	153.49198389053345	pulse	0	t		28.0	2.5	/experiments/AOT/AOT_stimuli/rescaled_final/1121_rv.mp4	0.0	173.56839299201965	
30	153.5077040195465	movie	1		246	28.0	2.5	/experiments/AOT/AOT_stimuli/rescaled_final/1121_rv.mp4	0.0	173.58411312103271	2.5081329345703125
30	155.09900283813477	pulse	1	t		28.0	2.5	/experiments/AOT/AOT_stimuli/rescaled_final/1121_rv.mp4	0.0	175.17541193962097	
30	156.01583695411682	fix_post	2		12	28.0	2.5	/experiments/AOT/AOT_stimuli/rescaled_final/1121_rv.mp4	0.0	176.09224605560303	0.1000678539276123
31	156.11590480804443	fix_pre	0		120	29.0	2.5	/experiments/AOT/AOT_stimuli/rescaled_final/1055_rv.mp4	0.0	176.19231390953064	0.9999899864196777
31	156.69100499153137	pulse	0	t		29.0	2.5	/experiments/AOT/AOT_stimuli/rescaled_final/1055_rv.mp4	0.0	176.76741409301758	
31	157.1158947944641	movie	1		245	29.0	2.5	/experiments/AOT/AOT_stimuli/rescaled_final/1055_rv.mp4	0.0	177.19230389595032	2.500040054321289
31	158.29085397720337	pulse	1	t		29.0	2.5	/experiments/AOT/AOT_stimuli/rescaled_final/1055_rv.mp4	0.0	178.36726307868958	
31	159.6159348487854	fix_post	2		12	29.0	2.5	/experiments/AOT/AOT_stimuli/rescaled_final/1055_rv.mp4	0.0	179.6923439502716	0.09990811347961426
32	159.71584296226501	fix_pre	0		120	30.0	2.5	/experiments/AOT/AOT_stimuli/rescaled_final/1776_fw.mp4	0.0	179.79225206375122	0.9999918937683105
32	159.89090991020203	pulse	0	t		30.0	2.5	/experiments/AOT/AOT_stimuli/rescaled_final/1776_fw.mp4	0.0	179.96731901168823	
32	160.71583485603333	movie	1		244	30.0	2.5	/experiments/AOT/AOT_stimuli/rescaled_final/1776_fw.mp4	0.0	180.79224395751953	2.499969959259033
32	161.490868806839	pulse	1	t		30.0	2.5	/experiments/AOT/AOT_stimuli/rescaled_final/1776_fw.mp4	0.0	181.5672779083252	
32	163.09091186523438	pulse	1	t		30.0	2.5	/experiments/AOT/AOT_stimuli/rescaled_final/1776_fw.mp4	0.0	183.16732096672058	
32	163.21580481529236	fix_post	2		12	30.0	2.5	/experiments/AOT/AOT_stimuli/rescaled_final/1776_fw.mp4	0.0	183.29221391677856	0.09999418258666992
33	163.31579899787903	fix_pre	0		120	31.0	2.5	/experiments/AOT/AOT_stimuli/rescaled_final/0497_fw.mp4	0.0	183.39220809936523	1.0000319480895996
33	164.31583094596863	movie	1		245	31.0	2.5	/experiments/AOT/AOT_stimuli/rescaled_final/0497_fw.mp4	0.0	184.39224004745483	2.5000269412994385
33	164.6910228729248	pulse	1	t		31.0	2.5	/experiments/AOT/AOT_stimuli/rescaled_final/0497_fw.mp4	0.0	184.767431974411	
33	166.29098391532898	pulse	1	t		31.0	2.5	/experiments/AOT/AOT_stimuli/rescaled_final/0497_fw.mp4	0.0	186.36739301681519	
33	166.81585788726807	fix_post	2		12	31.0	2.5	/experiments/AOT/AOT_stimuli/rescaled_final/0497_fw.mp4	0.0	186.89226698875427	0.09992599487304688
34	166.9157838821411	fix_pre	0		118	32.0	2.5	/experiments/AOT/AOT_stimuli/rescaled_final/2170_rv.mp4	0.0	186.99219298362732	0.9833509922027588
34	167.89096093177795	pulse	0	t		32.0	2.5	/experiments/AOT/AOT_stimuli/rescaled_final/2170_rv.mp4	0.0	187.96737003326416	
34	167.89913487434387	movie	1		244	32.0	2.5	/experiments/AOT/AOT_stimuli/rescaled_final/2170_rv.mp4	0.0	187.97554397583008	2.5083260536193848
34	169.49150586128235	pulse	1	t		32.0	2.5	/experiments/AOT/AOT_stimuli/rescaled_final/2170_rv.mp4	0.0	189.56791496276855	
34	170.40746092796326	fix_post	2		12	32.0	2.5	/experiments/AOT/AOT_stimuli/rescaled_final/2170_rv.mp4	0.0	190.48387002944946	0.09991908073425293
35	170.5073800086975	fix_pre	0		120	33.0	2.5	/experiments/AOT/AOT_stimuli/rescaled_final/0780_fw.mp4	0.0	190.58378911018372	1.0000429153442383
35	171.09180784225464	pulse	0	t		33.0	2.5	/experiments/AOT/AOT_stimuli/rescaled_final/0780_fw.mp4	0.0	191.16821694374084	
35	171.50742292404175	movie	1		245	33.0	2.5	/experiments/AOT/AOT_stimuli/rescaled_final/0780_fw.mp4	0.0	191.58383202552795	2.499919891357422
35	172.69203686714172	pulse	1	t		33.0	2.5	/experiments/AOT/AOT_stimuli/rescaled_final/0780_fw.mp4	0.0	192.76844596862793	
35	174.00734281539917	fix_post	2		12	33.0	2.5	/experiments/AOT/AOT_stimuli/rescaled_final/0780_fw.mp4	0.0	194.08375191688538	0.10012102127075195
36	174.10746383666992	fix_pre	0		120	34.0	2.5	blank	1.0	194.18387293815613	0.9999749660491943
36	174.29092383384705	pulse	0	t		34.0	2.5	blank	1.0	194.36733293533325	
36	175.10743880271912	movie	1		300	34.0	2.5	blank	1.0	195.18384790420532	2.5000500679016113
36	175.89111495018005	pulse	1	t		34.0	2.5	blank	1.0	195.96752405166626	
36	177.49088788032532	pulse	1	t		34.0	2.5	blank	1.0	197.56729698181152	
36	177.60748887062073	fix_post	2		12	34.0	2.5	blank	1.0	197.68389797210693	0.0999760627746582
37	177.70746493339539	fix_pre	0		120	35.0	2.5	/experiments/AOT/AOT_stimuli/rescaled_final/1666_rv.mp4	0.0	197.7838740348816	1.0000789165496826
37	178.70754384994507	movie	1		244	35.0	2.5	/experiments/AOT/AOT_stimuli/rescaled_final/1666_rv.mp4	0.0	198.78395295143127	2.4999611377716064
37	179.09935879707336	pulse	1	t		35.0	2.5	/experiments/AOT/AOT_stimuli/rescaled_final/1666_rv.mp4	0.0	199.17576789855957	
37	180.69083285331726	pulse	1	t		35.0	2.5	/experiments/AOT/AOT_stimuli/rescaled_final/1666_rv.mp4	0.0	200.76724195480347	
37	181.20750498771667	fix_post	2		12	35.0	2.5	/experiments/AOT/AOT_stimuli/rescaled_final/1666_rv.mp4	0.0	201.28391408920288	0.09988903999328613
38	181.30739402770996	fix_pre	0		119	36.0	2.5	/experiments/AOT/AOT_stimuli/rescaled_final/0750_rv.mp4	0.0	201.38380312919617	0.9916739463806152
38	182.29091787338257	pulse	0	t		36.0	2.5	/experiments/AOT/AOT_stimuli/rescaled_final/0750_rv.mp4	0.0	202.36732697486877	
38	182.29906797409058	movie	1		246	36.0	2.5	/experiments/AOT/AOT_stimuli/rescaled_final/0750_rv.mp4	0.0	202.37547707557678	2.508286952972412
38	183.8906979560852	pulse	1	t		36.0	2.5	/experiments/AOT/AOT_stimuli/rescaled_final/0750_rv.mp4	0.0	203.9671070575714	
38	184.807354927063	fix_post	2		12	36.0	2.5	/experiments/AOT/AOT_stimuli/rescaled_final/0750_rv.mp4	0.0	204.8837640285492	0.10001587867736816
39	184.90737080574036	fix_pre	0		120	37.0	2.5	/experiments/AOT/AOT_stimuli/rescaled_final/1492_fw.mp4	0.0	204.98377990722656	1.0000371932983398
39	185.49167585372925	pulse	0	t		37.0	2.5	/experiments/AOT/AOT_stimuli/rescaled_final/1492_fw.mp4	0.0	205.56808495521545	
39	185.9074079990387	movie	1		245	37.0	2.5	/experiments/AOT/AOT_stimuli/rescaled_final/1492_fw.mp4	0.0	205.9838171005249	2.4999380111694336
39	187.0919008255005	pulse	1	t		37.0	2.5	/experiments/AOT/AOT_stimuli/rescaled_final/1492_fw.mp4	0.0	207.1683099269867	
39	188.40734601020813	fix_post	2		12	37.0	2.5	/experiments/AOT/AOT_stimuli/rescaled_final/1492_fw.mp4	0.0	208.48375511169434	0.09996795654296875
40	188.5073139667511	fix_pre	0		119	38.0	2.5	/experiments/AOT/AOT_stimuli/rescaled_final/1159_rv.mp4	0.0	208.5837230682373	1.000208854675293
40	188.69157886505127	pulse	0	t		38.0	2.5	/experiments/AOT/AOT_stimuli/rescaled_final/1159_rv.mp4	0.0	208.76798796653748	
40	189.5075228214264	movie	1		244	38.0	2.5	/experiments/AOT/AOT_stimuli/rescaled_final/1159_rv.mp4	0.0	209.5839319229126	2.499814987182617
40	190.2916820049286	pulse	1	t		38.0	2.5	/experiments/AOT/AOT_stimuli/rescaled_final/1159_rv.mp4	0.0	210.3680911064148	
40	191.89933896064758	pulse	1	t		38.0	2.5	/experiments/AOT/AOT_stimuli/rescaled_final/1159_rv.mp4	0.0	211.9757480621338	
40	192.007337808609	fix_post	2		12	38.0	2.5	/experiments/AOT/AOT_stimuli/rescaled_final/1159_rv.mp4	0.0	212.08374691009521	0.100006103515625
41	192.10734391212463	fix_pre	0		120	39.0	2.5	/experiments/AOT/AOT_stimuli/rescaled_final/1298_fw.mp4	0.0	212.18375301361084	1.0000200271606445
41	193.10736393928528	movie	1		243	39.0	2.5	/experiments/AOT/AOT_stimuli/rescaled_final/1298_fw.mp4	0.0	213.18377304077148	2.4999918937683105
41	193.49194192886353	pulse	1	t		39.0	2.5	/experiments/AOT/AOT_stimuli/rescaled_final/1298_fw.mp4	0.0	213.56835103034973	
41	195.09080481529236	pulse	1	t		39.0	2.5	/experiments/AOT/AOT_stimuli/rescaled_final/1298_fw.mp4	0.0	215.16721391677856	
41	195.6073558330536	fix_post	2		12	39.0	2.5	/experiments/AOT/AOT_stimuli/rescaled_final/1298_fw.mp4	0.0	215.6837649345398	0.10005807876586914
42	195.70741391181946	fix_pre	0		119	40.0	2.5	blank	1.0	215.78382301330566	0.9915649890899658
42	196.69081497192383	pulse	0	t		40.0	2.5	blank	1.0	216.76722407341003	
42	196.69897890090942	movie	1		301	40.0	2.5	blank	1.0	216.77538800239563	2.5083839893341064
42	198.2908329963684	pulse	1	t		40.0	2.5	blank	1.0	218.36724209785461	
42	199.20736289024353	fix_post	2		12	40.0	2.5	blank	1.0	219.28377199172974	0.099884033203125
43	199.30724692344666	fix_pre	0		120	41.0	2.5	/experiments/AOT/AOT_stimuli/rescaled_final/0917_rv.mp4	0.0	219.38365602493286	1.0001180171966553
43	199.89084196090698	pulse	0	t		41.0	2.5	/experiments/AOT/AOT_stimuli/rescaled_final/0917_rv.mp4	0.0	219.9672510623932	
43	200.3073649406433	movie	1		243	41.0	2.5	/experiments/AOT/AOT_stimuli/rescaled_final/0917_rv.mp4	0.0	220.38377404212952	2.5000600814819336
43	201.49181699752808	pulse	1	t		41.0	2.5	/experiments/AOT/AOT_stimuli/rescaled_final/0917_rv.mp4	0.0	221.56822609901428	
43	202.80742502212524	fix_post	2		12	41.0	2.5	/experiments/AOT/AOT_stimuli/rescaled_final/0917_rv.mp4	0.0	222.88383412361145	0.09991693496704102
44	202.90734195709229	fix_pre	0		120	42.0	2.5	/experiments/AOT/AOT_stimuli/rescaled_final/1771_fw.mp4	0.0	222.9837510585785	0.9998838901519775
44	203.09160995483398	pulse	0	t		42.0	2.5	/experiments/AOT/AOT_stimuli/rescaled_final/1771_fw.mp4	0.0	223.1680190563202	
44	203.90722584724426	movie	1		244	42.0	2.5	/experiments/AOT/AOT_stimuli/rescaled_final/1771_fw.mp4	0.0	223.98363494873047	2.500072956085205
44	204.69173383712769	pulse	1	t		42.0	2.5	/experiments/AOT/AOT_stimuli/rescaled_final/1771_fw.mp4	0.0	224.7681429386139	
44	206.29916501045227	pulse	1	t		42.0	2.5	/experiments/AOT/AOT_stimuli/rescaled_final/1771_fw.mp4	0.0	226.37557411193848	
44	206.40729880332947	fix_post	2		12	42.0	2.5	/experiments/AOT/AOT_stimuli/rescaled_final/1771_fw.mp4	0.0	226.48370790481567	0.10000014305114746
45	206.50729894638062	fix_pre	0		120	43.0	2.5	/experiments/AOT/AOT_stimuli/rescaled_final/1161_fw.mp4	0.0	226.58370804786682	0.9996190071105957
45	207.5069179534912	movie	1		244	43.0	2.5	/experiments/AOT/AOT_stimuli/rescaled_final/1161_fw.mp4	0.0	227.58332705497742	2.500607967376709
45	207.89871287345886	pulse	1	t		43.0	2.5	/experiments/AOT/AOT_stimuli/rescaled_final/1161_fw.mp4	0.0	227.97512197494507	
45	209.49139881134033	pulse	1	t		43.0	2.5	/experiments/AOT/AOT_stimuli/rescaled_final/1161_fw.mp4	0.0	229.56780791282654	
45	210.00752592086792	fix_post	2		12	43.0	2.5	/experiments/AOT/AOT_stimuli/rescaled_final/1161_fw.mp4	0.0	230.08393502235413	0.10004210472106934
46	210.107568025589	fix_pre	0		119	44.0	2.5	/experiments/AOT/AOT_stimuli/rescaled_final/0598_fw.mp4	0.0	230.1839771270752	0.9913878440856934
46	211.09072089195251	pulse	0	t		44.0	2.5	/experiments/AOT/AOT_stimuli/rescaled_final/0598_fw.mp4	0.0	231.16712999343872	
46	211.09895586967468	movie	1		248	44.0	2.5	/experiments/AOT/AOT_stimuli/rescaled_final/0598_fw.mp4	0.0	231.1753649711609	2.5083420276641846
46	212.69078993797302	pulse	1	t		44.0	2.5	/experiments/AOT/AOT_stimuli/rescaled_final/0598_fw.mp4	0.0	232.76719903945923	
46	213.60729789733887	fix_post	2		12	44.0	2.5	/experiments/AOT/AOT_stimuli/rescaled_final/0598_fw.mp4	0.0	233.68370699882507	0.09999299049377441
47	213.70729088783264	fix_pre	0		120	45.0	2.5	/experiments/AOT/AOT_stimuli/rescaled_final/0449_rv.mp4	0.0	233.78369998931885	1.0000340938568115
47	214.2907838821411	pulse	0	t		45.0	2.5	/experiments/AOT/AOT_stimuli/rescaled_final/0449_rv.mp4	0.0	234.36719298362732	
47	214.70732498168945	movie	1		243	45.0	2.5	/experiments/AOT/AOT_stimuli/rescaled_final/0449_rv.mp4	0.0	234.78373408317566	2.499980926513672
47	215.89086198806763	pulse	1	t		45.0	2.5	/experiments/AOT/AOT_stimuli/rescaled_final/0449_rv.mp4	0.0	235.96727108955383	
47	217.20730590820312	fix_post	2		12	45.0	2.5	/experiments/AOT/AOT_stimuli/rescaled_final/0449_rv.mp4	0.0	237.28371500968933	0.09991788864135742
48	217.30722379684448	fix_pre	0		120	46.0	2.5	/experiments/AOT/AOT_stimuli/rescaled_final/1418_fw.mp4	0.0	237.3836328983307	0.999932050704956
48	217.49152398109436	pulse	0	t		46.0	2.5	/experiments/AOT/AOT_stimuli/rescaled_final/1418_fw.mp4	0.0	237.56793308258057	
48	218.30715584754944	movie	1		243	46.0	2.5	/experiments/AOT/AOT_stimuli/rescaled_final/1418_fw.mp4	0.0	238.38356494903564	2.5000131130218506
48	219.0916290283203	pulse	1	t		46.0	2.5	/experiments/AOT/AOT_stimuli/rescaled_final/1418_fw.mp4	0.0	239.16803812980652	
48	220.6991319656372	pulse	1	t		46.0	2.5	/experiments/AOT/AOT_stimuli/rescaled_final/1418_fw.mp4	0.0	240.7755410671234	
48	220.8071689605713	fix_post	2		12	46.0	2.5	/experiments/AOT/AOT_stimuli/rescaled_final/1418_fw.mp4	0.0	240.8835780620575	0.10004305839538574
49	220.90721201896667	fix_pre	0		120	47.0	2.5	/experiments/AOT/AOT_stimuli/rescaled_final/2177_rv.mp4	0.0	240.98362112045288	0.9995579719543457
49	221.90676999092102	movie	1		246	47.0	2.5	/experiments/AOT/AOT_stimuli/rescaled_final/2177_rv.mp4	0.0	241.98317909240723	2.500396966934204
49	222.29922485351562	pulse	1	t		47.0	2.5	/experiments/AOT/AOT_stimuli/rescaled_final/2177_rv.mp4	0.0	242.37563395500183	
49	223.8915560245514	pulse	1	t		47.0	2.5	/experiments/AOT/AOT_stimuli/rescaled_final/2177_rv.mp4	0.0	243.9679651260376	
49	224.40716695785522	fix_post	2		12	47.0	2.5	/experiments/AOT/AOT_stimuli/rescaled_final/2177_rv.mp4	0.0	244.48357605934143	0.09999394416809082
50	224.50716090202332	fix_pre	0		120	48.0	2.5	/experiments/AOT/AOT_stimuli/rescaled_final/0639_rv.mp4	0.0	244.58357000350952	1.0000369548797607
50	225.49154591560364	pulse	0	t		48.0	2.5	/experiments/AOT/AOT_stimuli/rescaled_final/0639_rv.mp4	0.0	245.56795501708984	
50	225.50719785690308	movie	1		247	48.0	2.5	/experiments/AOT/AOT_stimuli/rescaled_final/0639_rv.mp4	0.0	245.58360695838928	2.508373975753784
50	227.0906298160553	pulse	1	t		48.0	2.5	/experiments/AOT/AOT_stimuli/rescaled_final/0639_rv.mp4	0.0	247.1670389175415	
50	228.01557183265686	fix_post	2		12	48.0	2.5	/experiments/AOT/AOT_stimuli/rescaled_final/0639_rv.mp4	0.0	248.09198093414307	0.09994816780090332
51	228.11552000045776	fix_pre	0		120	49.0	2.5	blank	1.0	248.19192910194397	0.999957799911499
51	228.69067001342773	pulse	0	t		49.0	2.5	blank	1.0	248.76707911491394	
51	229.11547780036926	movie	1		300	49.0	2.5	blank	1.0	249.19188690185547	2.4999561309814453
51	230.29061484336853	pulse	1	t		49.0	2.5	blank	1.0	250.36702394485474	
51	231.6154339313507	fix_post	2		12	49.0	2.5	blank	1.0	251.6918430328369	0.10011887550354004
52	231.71555280685425	fix_pre	0		120	50.0	2.5	/experiments/AOT/AOT_stimuli/rescaled_final/0753_fw.mp4	0.0	251.79196190834045	0.9998910427093506
52	231.8913688659668	pulse	0	t		50.0	2.5	/experiments/AOT/AOT_stimuli/rescaled_final/0753_fw.mp4	0.0	251.967777967453	
52	232.7154438495636	movie	1		245	50.0	2.5	/experiments/AOT/AOT_stimuli/rescaled_final/0753_fw.mp4	0.0	252.7918529510498	2.500089168548584
52	233.4915018081665	pulse	1	t		50.0	2.5	/experiments/AOT/AOT_stimuli/rescaled_final/0753_fw.mp4	0.0	253.5679109096527	
52	235.09513688087463	pulse	1	t		50.0	2.5	/experiments/AOT/AOT_stimuli/rescaled_final/0753_fw.mp4	0.0	255.17154598236084	
52	235.21553301811218	fix_post	2		12	50.0	2.5	/experiments/AOT/AOT_stimuli/rescaled_final/0753_fw.mp4	0.0	255.2919421195984	0.09984683990478516
53	235.31537985801697	fix_pre	0		120	51.0	2.5	/experiments/AOT/AOT_stimuli/rescaled_final/0723_rv.mp4	0.0	255.39178895950317	1.0000979900360107
53	236.31547784805298	movie	1		245	51.0	2.5	/experiments/AOT/AOT_stimuli/rescaled_final/0723_rv.mp4	0.0	256.3918869495392	2.499890089035034
53	236.69848084449768	pulse	1	t		51.0	2.5	/experiments/AOT/AOT_stimuli/rescaled_final/0723_rv.mp4	0.0	256.7748899459839	
53	238.29150700569153	pulse	1	t		51.0	2.5	/experiments/AOT/AOT_stimuli/rescaled_final/0723_rv.mp4	0.0	258.36791610717773	
53	238.815367937088	fix_post	2		12	51.0	2.5	/experiments/AOT/AOT_stimuli/rescaled_final/0723_rv.mp4	0.0	258.8917770385742	0.10002899169921875
54	238.91539692878723	fix_pre	0		119	52.0	2.5	/experiments/AOT/AOT_stimuli/rescaled_final/0395_fw.mp4	0.0	258.99180603027344	0.9916470050811768
54	239.8915138244629	pulse	0	t		52.0	2.5	/experiments/AOT/AOT_stimuli/rescaled_final/0395_fw.mp4	0.0	259.9679229259491	
54	239.9070439338684	movie	1		246	52.0	2.5	/experiments/AOT/AOT_stimuli/rescaled_final/0395_fw.mp4	0.0	259.9834530353546	2.508423089981079
54	241.49846696853638	pulse	1	t		52.0	2.5	/experiments/AOT/AOT_stimuli/rescaled_final/0395_fw.mp4	0.0	261.5748760700226	
54	242.4154670238495	fix_post	2		12	52.0	2.5	/experiments/AOT/AOT_stimuli/rescaled_final/0395_fw.mp4	0.0	262.4918761253357	0.10003280639648438
55	242.51549983024597	fix_pre	0		120	53.0	2.5	/experiments/AOT/AOT_stimuli/rescaled_final/1776_rv.mp4	0.0	262.5919089317322	0.9999790191650391
55	243.0906720161438	pulse	0	t		53.0	2.5	/experiments/AOT/AOT_stimuli/rescaled_final/1776_rv.mp4	0.0	263.16708111763	
55	243.515478849411	movie	1		245	53.0	2.5	/experiments/AOT/AOT_stimuli/rescaled_final/1776_rv.mp4	0.0	263.5918879508972	2.499959945678711
55	244.6989758014679	pulse	1	t		53.0	2.5	/experiments/AOT/AOT_stimuli/rescaled_final/1776_rv.mp4	0.0	264.7753849029541	
55	246.01543879508972	fix_post	2		12	53.0	2.5	/experiments/AOT/AOT_stimuli/rescaled_final/1776_rv.mp4	0.0	266.0918478965759	0.0999610424041748
56	246.1153998374939	fix_pre	0		120	54.0	2.5	/experiments/AOT/AOT_stimuli/rescaled_final/0311_fw.mp4	0.0	266.1918089389801	0.9999840259552002
56	246.29059886932373	pulse	0	t		54.0	2.5	/experiments/AOT/AOT_stimuli/rescaled_final/0311_fw.mp4	0.0	266.36700797080994	
56	247.1153838634491	movie	1		243	54.0	2.5	/experiments/AOT/AOT_stimuli/rescaled_final/0311_fw.mp4	0.0	267.1917929649353	2.500007152557373
56	247.89060282707214	pulse	1	t		54.0	2.5	/experiments/AOT/AOT_stimuli/rescaled_final/0311_fw.mp4	0.0	267.96701192855835	
56	249.49722385406494	pulse	1	t		54.0	2.5	/experiments/AOT/AOT_stimuli/rescaled_final/0311_fw.mp4	0.0	269.57363295555115	
56	249.61539101600647	fix_post	2		12	54.0	2.5	/experiments/AOT/AOT_stimuli/rescaled_final/0311_fw.mp4	0.0	269.6918001174927	0.09997892379760742
57	249.71536993980408	fix_pre	0		120	55.0	2.5	/experiments/AOT/AOT_stimuli/rescaled_final/1583_fw.mp4	0.0	269.7917790412903	1.0000510215759277
57	250.71542096138	movie	1		245	55.0	2.5	/experiments/AOT/AOT_stimuli/rescaled_final/1583_fw.mp4	0.0	270.7918300628662	2.499943971633911
57	251.09898400306702	pulse	1	t		55.0	2.5	/experiments/AOT/AOT_stimuli/rescaled_final/1583_fw.mp4	0.0	271.1753931045532	
57	252.6916320323944	pulse	1	t		55.0	2.5	/experiments/AOT/AOT_stimuli/rescaled_final/1583_fw.mp4	0.0	272.7680411338806	
57	253.21536493301392	fix_post	2		12	55.0	2.5	/experiments/AOT/AOT_stimuli/rescaled_final/1583_fw.mp4	0.0	273.2917740345001	0.10004091262817383
58	253.3154058456421	fix_pre	0		119	56.0	2.5	blank	1.0	273.3918149471283	0.9916760921478271
58	254.29127383232117	pulse	0	t		56.0	2.5	blank	1.0	274.3676829338074	
58	254.30708193778992	movie	1		301	56.0	2.5	blank	1.0	274.3834910392761	2.5083200931549072
58	255.89130091667175	pulse	1	t		56.0	2.5	blank	1.0	275.96771001815796	
58	256.8154020309448	fix_post	2		12	56.0	2.5	blank	1.0	276.89181113243103	0.09999990463256836
59	256.9154019355774	fix_pre	0		120	57.0	2.5	/experiments/AOT/AOT_stimuli/rescaled_final/1474_fw.mp4	0.0	276.9918110370636	1.0000340938568115
59	257.49132084846497	pulse	0	t		57.0	2.5	/experiments/AOT/AOT_stimuli/rescaled_final/1474_fw.mp4	0.0	277.5677299499512	
59	257.9154360294342	movie	1		243	57.0	2.5	/experiments/AOT/AOT_stimuli/rescaled_final/1474_fw.mp4	0.0	277.9918451309204	2.499494791030884
59	259.098867893219	pulse	1	t		57.0	2.5	/experiments/AOT/AOT_stimuli/rescaled_final/1474_fw.mp4	0.0	279.1752769947052	
59	260.4149308204651	fix_post	2		12	57.0	2.5	/experiments/AOT/AOT_stimuli/rescaled_final/1474_fw.mp4	0.0	280.4913399219513	0.10040807723999023
60	260.5153388977051	fix_pre	0		120	58.0	2.5	/experiments/AOT/AOT_stimuli/rescaled_final/2032_fw.mp4	0.0	280.5917479991913	1.0000090599060059
60	260.6912360191345	pulse	0	t		58.0	2.5	/experiments/AOT/AOT_stimuli/rescaled_final/2032_fw.mp4	0.0	280.7676451206207	
60	261.5153479576111	movie	1		244	58.0	2.5	/experiments/AOT/AOT_stimuli/rescaled_final/2032_fw.mp4	0.0	281.5917570590973	2.5000040531158447
60	262.2905149459839	pulse	1	t		58.0	2.5	/experiments/AOT/AOT_stimuli/rescaled_final/2032_fw.mp4	0.0	282.3669240474701	
60	263.8904848098755	pulse	1	t		58.0	2.5	/experiments/AOT/AOT_stimuli/rescaled_final/2032_fw.mp4	0.0	283.9668939113617	
60	264.01535201072693	fix_post	2		12	58.0	2.5	/experiments/AOT/AOT_stimuli/rescaled_final/2032_fw.mp4	0.0	284.09176111221313	0.09961295127868652
61	264.1149649620056	fix_pre	0		120	59.0	2.5	/experiments/AOT/AOT_stimuli/rescaled_final/0971_rv.mp4	0.0	284.1913740634918	1.0003159046173096
61	265.1152808666229	movie	1		244	59.0	2.5	/experiments/AOT/AOT_stimuli/rescaled_final/0971_rv.mp4	0.0	285.19168996810913	2.5000391006469727
61	265.4986369609833	pulse	1	t		59.0	2.5	/experiments/AOT/AOT_stimuli/rescaled_final/0971_rv.mp4	0.0	285.5750460624695	
61	267.09142899513245	pulse	1	t		59.0	2.5	/experiments/AOT/AOT_stimuli/rescaled_final/0971_rv.mp4	0.0	287.16783809661865	
61	267.6153199672699	fix_post	2		12	59.0	2.5	/experiments/AOT/AOT_stimuli/rescaled_final/0971_rv.mp4	0.0	287.6917290687561	0.10001683235168457
62	267.7153367996216	fix_pre	0		119	60.0	2.5	/experiments/AOT/AOT_stimuli/rescaled_final/1142_fw.mp4	0.0	287.7917459011078	0.99169921875
62	268.6913628578186	pulse	0	t		60.0	2.5	/experiments/AOT/AOT_stimuli/rescaled_final/1142_fw.mp4	0.0	288.7677719593048	
62	268.7070360183716	movie	1		246	60.0	2.5	/experiments/AOT/AOT_stimuli/rescaled_final/1142_fw.mp4	0.0	288.7834451198578	2.508246898651123
62	270.2982568740845	pulse	1	t		60.0	2.5	/experiments/AOT/AOT_stimuli/rescaled_final/1142_fw.mp4	0.0	290.3746659755707	
62	271.2152829170227	fix_post	2		12	60.0	2.5	/experiments/AOT/AOT_stimuli/rescaled_final/1142_fw.mp4	0.0	291.2916920185089	0.0999760627746582
63	271.31525897979736	fix_pre	0		120	61.0	2.5	/experiments/AOT/AOT_stimuli/rescaled_final/1528_rv.mp4	0.0	291.39166808128357	0.9999978542327881
63	271.89123487472534	pulse	0	t		61.0	2.5	/experiments/AOT/AOT_stimuli/rescaled_final/1528_rv.mp4	0.0	291.96764397621155	
63	272.31525683403015	movie	1		250	61.0	2.5	/experiments/AOT/AOT_stimuli/rescaled_final/1528_rv.mp4	0.0	292.39166593551636	2.500005006790161
63	273.4988648891449	pulse	1	t		61.0	2.5	/experiments/AOT/AOT_stimuli/rescaled_final/1528_rv.mp4	0.0	293.5752739906311	
63	274.8152618408203	fix_post	2		12	61.0	2.5	/experiments/AOT/AOT_stimuli/rescaled_final/1528_rv.mp4	0.0	294.8916709423065	0.10003209114074707
64	274.91529393196106	fix_pre	0		120	62.0	2.5	/experiments/AOT/AOT_stimuli/rescaled_final/0480_rv.mp4	0.0	294.99170303344727	0.9999589920043945
64	275.0912528038025	pulse	0	t		62.0	2.5	/experiments/AOT/AOT_stimuli/rescaled_final/0480_rv.mp4	0.0	295.1676619052887	
64	275.91525292396545	movie	1		247	62.0	2.5	/experiments/AOT/AOT_stimuli/rescaled_final/0480_rv.mp4	0.0	295.99166202545166	2.4999659061431885
64	276.6919219493866	pulse	1	t		62.0	2.5	/experiments/AOT/AOT_stimuli/rescaled_final/0480_rv.mp4	0.0	296.7683310508728	
64	278.294615983963	pulse	1	t		62.0	2.5	/experiments/AOT/AOT_stimuli/rescaled_final/0480_rv.mp4	0.0	298.3710250854492	
64	278.41521883010864	fix_post	2		12	62.0	2.5	/experiments/AOT/AOT_stimuli/rescaled_final/0480_rv.mp4	0.0	298.49162793159485	0.10001015663146973
65	278.5152289867401	fix_pre	0		120	63.0	2.5	blank	1.0	298.5916380882263	0.9999768733978271
65	279.51520586013794	movie	1		300	63.0	2.5	blank	1.0	299.59161496162415	2.5000791549682617
65	279.8904559612274	pulse	1	t		63.0	2.5	blank	1.0	299.9668650627136	
65	281.49119091033936	pulse	1	t		63.0	2.5	blank	1.0	301.56760001182556	
65	282.0152850151062	fix_post	2		12	63.0	2.5	blank	1.0	302.0916941165924	0.09991979598999023
66	282.1152048110962	fix_pre	0		119	64.0	2.5	/experiments/AOT/AOT_stimuli/rescaled_final/1341_rv.mp4	0.0	302.1916139125824	0.9916391372680664
66	283.0912208557129	pulse	0	t		64.0	2.5	/experiments/AOT/AOT_stimuli/rescaled_final/1341_rv.mp4	0.0	303.1676299571991	
66	283.10684394836426	movie	1		245	64.0	2.5	/experiments/AOT/AOT_stimuli/rescaled_final/1341_rv.mp4	0.0	303.18325304985046	2.508359909057617
66	284.6982469558716	pulse	1	t		64.0	2.5	/experiments/AOT/AOT_stimuli/rescaled_final/1341_rv.mp4	0.0	304.7746560573578	
66	285.6152038574219	fix_post	2		12	64.0	2.5	/experiments/AOT/AOT_stimuli/rescaled_final/1341_rv.mp4	0.0	305.6916129589081	0.1000831127166748
67	285.71528697013855	fix_pre	0		120	65.0	2.5	/experiments/AOT/AOT_stimuli/rescaled_final/0349_rv.mp4	0.0	305.79169607162476	0.999910831451416
67	286.29145884513855	pulse	0	t		65.0	2.5	/experiments/AOT/AOT_stimuli/rescaled_final/0349_rv.mp4	0.0	306.36786794662476	
67	286.71519780158997	movie	1		245	65.0	2.5	/experiments/AOT/AOT_stimuli/rescaled_final/0349_rv.mp4	0.0	306.7916069030762	2.5000171661376953
67	287.8916850090027	pulse	1	t		65.0	2.5	/experiments/AOT/AOT_stimuli/rescaled_final/0349_rv.mp4	0.0	307.9680941104889	
67	289.21521496772766	fix_post	2		12	65.0	2.5	/experiments/AOT/AOT_stimuli/rescaled_final/0349_rv.mp4	0.0	309.29162406921387	0.09999585151672363
68	289.3152108192444	fix_pre	0		120	66.0	2.5	/experiments/AOT/AOT_stimuli/rescaled_final/2178_fw.mp4	0.0	309.3916199207306	1.0000591278076172
68	289.491171836853	pulse	0	t		66.0	2.5	/experiments/AOT/AOT_stimuli/rescaled_final/2178_fw.mp4	0.0	309.56758093833923	
68	290.315269947052	movie	1		244	66.0	2.5	/experiments/AOT/AOT_stimuli/rescaled_final/2178_fw.mp4	0.0	310.3916790485382	2.499521017074585
68	291.0914089679718	pulse	1	t		66.0	2.5	/experiments/AOT/AOT_stimuli/rescaled_final/2178_fw.mp4	0.0	311.167818069458	
68	292.6970398426056	pulse	1	t		66.0	2.5	/experiments/AOT/AOT_stimuli/rescaled_final/2178_fw.mp4	0.0	312.7734489440918	
68	292.8147909641266	fix_post	2		12	66.0	2.5	/experiments/AOT/AOT_stimuli/rescaled_final/2178_fw.mp4	0.0	312.8912000656128	0.10036492347717285
69	292.91515588760376	fix_pre	0		120	67.0	2.5	/experiments/AOT/AOT_stimuli/rescaled_final/0908_fw.mp4	0.0	312.99156498908997	1.0000560283660889
69	293.91521191596985	movie	1		246	67.0	2.5	/experiments/AOT/AOT_stimuli/rescaled_final/0908_fw.mp4	0.0	313.99162101745605	2.4998769760131836
69	294.2993268966675	pulse	1	t		67.0	2.5	/experiments/AOT/AOT_stimuli/rescaled_final/0908_fw.mp4	0.0	314.3757359981537	
69	295.8911728858948	pulse	1	t		67.0	2.5	/experiments/AOT/AOT_stimuli/rescaled_final/0908_fw.mp4	0.0	315.967581987381	
69	296.41508889198303	fix_post	2		12	67.0	2.5	/experiments/AOT/AOT_stimuli/rescaled_final/0908_fw.mp4	0.0	316.49149799346924	0.1000509262084961
70	296.5151398181915	fix_pre	0		119	68.0	2.5	/experiments/AOT/AOT_stimuli/rescaled_final/0065_fw.mp4	0.0	316.59154891967773	0.9916892051696777
70	297.49863600730896	pulse	0	t		68.0	2.5	/experiments/AOT/AOT_stimuli/rescaled_final/0065_fw.mp4	0.0	317.57504510879517	
70	297.5068290233612	movie	1		247	68.0	2.5	/experiments/AOT/AOT_stimuli/rescaled_final/0065_fw.mp4	0.0	317.5832381248474	2.507938861846924
70	299.098140001297	pulse	1	t		68.0	2.5	/experiments/AOT/AOT_stimuli/rescaled_final/0065_fw.mp4	0.0	319.1745491027832	
70	300.01476788520813	fix_post	2		12	68.0	2.5	/experiments/AOT/AOT_stimuli/rescaled_final/0065_fw.mp4	0.0	320.09117698669434	0.10040402412414551
71	300.1151719093323	fix_pre	0		120	69.0	2.5	blank	1.0	320.1915810108185	0.9999959468841553
71	300.69881200790405	pulse	0	t		69.0	2.5	blank	1.0	320.77522110939026	
71	301.11516785621643	movie	1		300	69.0	2.5	blank	1.0	321.19157695770264	2.4999539852142334
71	302.2910418510437	pulse	1	t		69.0	2.5	blank	1.0	322.3674509525299	
71	303.61512184143066	fix_post	2		12	69.0	2.5	blank	1.0	323.69153094291687	0.09999608993530273
72	303.71511793136597	fix_pre	0		120	70.0	2.5	/experiments/AOT/AOT_stimuli/rescaled_final/2056_fw.mp4	0.0	323.7915270328522	1.0000019073486328
72	303.89104986190796	pulse	0	t		70.0	2.5	/experiments/AOT/AOT_stimuli/rescaled_final/2056_fw.mp4	0.0	323.96745896339417	
72	304.7151198387146	movie	1		244	70.0	2.5	/experiments/AOT/AOT_stimuli/rescaled_final/2056_fw.mp4	0.0	324.7915289402008	2.500089168548584
72	305.49121594429016	pulse	1	t		70.0	2.5	/experiments/AOT/AOT_stimuli/rescaled_final/2056_fw.mp4	0.0	325.56762504577637	
72	307.09724283218384	pulse	1	t		70.0	2.5	/experiments/AOT/AOT_stimuli/rescaled_final/2056_fw.mp4	0.0	327.17365193367004	
72	307.2152090072632	fix_post	2		12	70.0	2.5	/experiments/AOT/AOT_stimuli/rescaled_final/2056_fw.mp4	0.0	327.2916181087494	0.09990096092224121
73	307.3151099681854	fix_pre	0		120	71.0	2.5	/experiments/AOT/AOT_stimuli/rescaled_final/0148_fw.mp4	0.0	327.39151906967163	1.0000460147857666
73	308.3151559829712	movie	1		244	71.0	2.5	/experiments/AOT/AOT_stimuli/rescaled_final/0148_fw.mp4	0.0	328.3915650844574	2.4995689392089844
73	308.69891691207886	pulse	1	t		71.0	2.5	/experiments/AOT/AOT_stimuli/rescaled_final/0148_fw.mp4	0.0	328.77532601356506	
73	310.2912600040436	pulse	1	t		71.0	2.5	/experiments/AOT/AOT_stimuli/rescaled_final/0148_fw.mp4	0.0	330.3676691055298	
73	310.8147249221802	fix_post	2		12	71.0	2.5	/experiments/AOT/AOT_stimuli/rescaled_final/0148_fw.mp4	0.0	330.8911340236664	0.10037708282470703
74	310.9151020050049	fix_pre	0		119	72.0	2.5	/experiments/AOT/AOT_stimuli/rescaled_final/2177_rv.mp4	0.0	330.9915111064911	0.9915978908538818
74	311.8910858631134	pulse	0	t		72.0	2.5	/experiments/AOT/AOT_stimuli/rescaled_final/2177_rv.mp4	0.0	331.9674949645996	
74	311.90669989585876	movie	1		245	72.0	2.5	/experiments/AOT/AOT_stimuli/rescaled_final/2177_rv.mp4	0.0	331.98310899734497	2.5084049701690674
74	313.49822092056274	pulse	1	t		72.0	2.5	/experiments/AOT/AOT_stimuli/rescaled_final/2177_rv.mp4	0.0	333.57463002204895	
74	314.41510486602783	fix_post	2		12	72.0	2.5	/experiments/AOT/AOT_stimuli/rescaled_final/2177_rv.mp4	0.0	334.49151396751404	0.09993600845336914
75	314.5150408744812	fix_pre	0		120	73.0	2.5	/experiments/AOT/AOT_stimuli/rescaled_final/0171_fw.mp4	0.0	334.5914499759674	1.000075101852417
75	315.09857296943665	pulse	0	t		73.0	2.5	/experiments/AOT/AOT_stimuli/rescaled_final/0171_fw.mp4	0.0	335.17498207092285	
75	315.5151159763336	movie	1		243	73.0	2.5	/experiments/AOT/AOT_stimuli/rescaled_final/0171_fw.mp4	0.0	335.5915250778198	2.5001208782196045
75	316.6915488243103	pulse	1	t		73.0	2.5	/experiments/AOT/AOT_stimuli/rescaled_final/0171_fw.mp4	0.0	336.7679579257965	
75	318.0152368545532	fix_post	2		12	73.0	2.5	/experiments/AOT/AOT_stimuli/rescaled_final/0171_fw.mp4	0.0	338.09164595603943	0.09993815422058105
76	318.1151750087738	fix_pre	0		120	74.0	2.5	/experiments/AOT/AOT_stimuli/rescaled_final/1901_rv.mp4	0.0	338.19158411026	0.999547004699707
76	318.2910969257355	pulse	0	t		74.0	2.5	/experiments/AOT/AOT_stimuli/rescaled_final/1901_rv.mp4	0.0	338.3675060272217	
76	319.1147220134735	movie	1		246	74.0	2.5	/experiments/AOT/AOT_stimuli/rescaled_final/1901_rv.mp4	0.0	339.1911311149597	2.5002148151397705
76	319.8980598449707	pulse	1	t		74.0	2.5	/experiments/AOT/AOT_stimuli/rescaled_final/1901_rv.mp4	0.0	339.9744689464569	
76	321.49734592437744	pulse	1	t		74.0	2.5	/experiments/AOT/AOT_stimuli/rescaled_final/1901_rv.mp4	0.0	341.57375502586365	
76	321.6149368286133	fix_post	2		12	74.0	2.5	/experiments/AOT/AOT_stimuli/rescaled_final/1901_rv.mp4	0.0	341.6913459300995	0.1003720760345459
77	321.7153089046478	fix_pre	0		120	75.0	2.5	blank	1.0	341.79171800613403	0.9997808933258057
77	322.71508979797363	movie	1		300	75.0	2.5	blank	1.0	342.79149889945984	2.499988079071045
77	323.0910768508911	pulse	1	t		75.0	2.5	blank	1.0	343.1674859523773	
77	324.6910948753357	pulse	1	t		75.0	2.5	blank	1.0	344.7675039768219	
77	325.2150778770447	fix_post	2		12	75.0	2.5	blank	1.0	345.2914869785309	0.10004305839538574
78	325.31512093544006	fix_pre	0		119	76.0	2.5	/experiments/AOT/AOT_stimuli/rescaled_final/0939_fw.mp4	0.0	345.39153003692627	0.9915459156036377
78	326.2910089492798	pulse	0	t		76.0	2.5	/experiments/AOT/AOT_stimuli/rescaled_final/0939_fw.mp4	0.0	346.367418050766	
78	326.3066668510437	movie	1		244	76.0	2.5	/experiments/AOT/AOT_stimuli/rescaled_final/0939_fw.mp4	0.0	346.3830759525299	2.5080220699310303
78	327.8981399536133	pulse	1	t		76.0	2.5	/experiments/AOT/AOT_stimuli/rescaled_final/0939_fw.mp4	0.0	347.9745490550995	
78	328.81468892097473	fix_post	2		12	76.0	2.5	/experiments/AOT/AOT_stimuli/rescaled_final/0939_fw.mp4	0.0	348.89109802246094	0.10037088394165039
79	328.9150598049164	fix_pre	0		120	77.0	2.5	/experiments/AOT/AOT_stimuli/rescaled_final/0361_fw.mp4	0.0	348.9914689064026	0.9998810291290283
79	329.49853587150574	pulse	0	t		77.0	2.5	/experiments/AOT/AOT_stimuli/rescaled_final/0361_fw.mp4	0.0	349.57494497299194	
79	329.9149408340454	movie	1		248	77.0	2.5	/experiments/AOT/AOT_stimuli/rescaled_final/0361_fw.mp4	0.0	349.9913499355316	2.5000321865081787
79	331.0985658168793	pulse	1	t		77.0	2.5	/experiments/AOT/AOT_stimuli/rescaled_final/0361_fw.mp4	0.0	351.1749749183655	
79	332.4149730205536	fix_post	2		12	77.0	2.5	/experiments/AOT/AOT_stimuli/rescaled_final/0361_fw.mp4	0.0	352.4913821220398	0.1000359058380127
80	332.5150089263916	fix_pre	0		120	78.0	2.5	/experiments/AOT/AOT_stimuli/rescaled_final/0734_fw.mp4	0.0	352.5914180278778	0.9995279312133789
80	332.69844794273376	pulse	0	t		78.0	2.5	/experiments/AOT/AOT_stimuli/rescaled_final/0734_fw.mp4	0.0	352.77485704421997	
80	333.514536857605	movie	1		245	78.0	2.5	/experiments/AOT/AOT_stimuli/rescaled_final/0734_fw.mp4	0.0	353.5909459590912	2.5004100799560547
80	334.29842495918274	pulse	1	t		78.0	2.5	/experiments/AOT/AOT_stimuli/rescaled_final/0734_fw.mp4	0.0	354.37483406066895	
80	335.89683294296265	pulse	1	t		78.0	2.5	/experiments/AOT/AOT_stimuli/rescaled_final/0734_fw.mp4	0.0	355.97324204444885	
80	336.01494693756104	fix_post	2		12	78.0	2.5	/experiments/AOT/AOT_stimuli/rescaled_final/0734_fw.mp4	0.0	356.09135603904724	0.10011100769042969
81	336.11505794525146	fix_pre	0		120	79.0	2.5	/experiments/AOT/AOT_stimuli/rescaled_final/1682_rv.mp4	0.0	356.19146704673767	0.9998998641967773
81	337.11495780944824	movie	1		245	79.0	2.5	/experiments/AOT/AOT_stimuli/rescaled_final/1682_rv.mp4	0.0	357.19136691093445	2.500084161758423
81	337.49824690818787	pulse	1	t		79.0	2.5	/experiments/AOT/AOT_stimuli/rescaled_final/1682_rv.mp4	0.0	357.5746560096741	
81	339.0911419391632	pulse	1	t		79.0	2.5	/experiments/AOT/AOT_stimuli/rescaled_final/1682_rv.mp4	0.0	359.1675510406494	
81	339.61504197120667	fix_post	2		12	79.0	2.5	/experiments/AOT/AOT_stimuli/rescaled_final/1682_rv.mp4	0.0	359.69145107269287	0.09997391700744629
82	339.7150158882141	fix_pre	0		119	80.0	2.5	/experiments/AOT/AOT_stimuli/rescaled_final/0908_rv.mp4	0.0	359.7914249897003	0.9915361404418945
82	340.6909508705139	pulse	0	t		80.0	2.5	/experiments/AOT/AOT_stimuli/rescaled_final/0908_rv.mp4	0.0	360.7673599720001	
82	340.706552028656	movie	1		245	80.0	2.5	/experiments/AOT/AOT_stimuli/rescaled_final/0908_rv.mp4	0.0	360.7829611301422	2.508344888687134
82	342.2979779243469	pulse	1	t		80.0	2.5	/experiments/AOT/AOT_stimuli/rescaled_final/0908_rv.mp4	0.0	362.37438702583313	
82	343.21489691734314	fix_post	2		12	80.0	2.5	/experiments/AOT/AOT_stimuli/rescaled_final/0908_rv.mp4	0.0	363.29130601882935	0.10005998611450195
83	343.31495690345764	fix_pre	0		120	81.0	2.5	/experiments/AOT/AOT_stimuli/rescaled_final/1103_rv.mp4	0.0	363.39136600494385	1.0000300407409668
83	343.8910028934479	pulse	0	t		81.0	2.5	/experiments/AOT/AOT_stimuli/rescaled_final/1103_rv.mp4	0.0	363.9674119949341	
83	344.3149869441986	movie	1		243	81.0	2.5	/experiments/AOT/AOT_stimuli/rescaled_final/1103_rv.mp4	0.0	364.3913960456848	2.4998939037323
83	345.4985167980194	pulse	1	t		81.0	2.5	/experiments/AOT/AOT_stimuli/rescaled_final/1103_rv.mp4	0.0	365.5749258995056	
83	346.8148808479309	fix_post	2		12	81.0	2.5	/experiments/AOT/AOT_stimuli/rescaled_final/1103_rv.mp4	0.0	366.8912899494171	0.10015702247619629
84	346.9150378704071	fix_pre	0		120	82.0	2.5	blank	1.0	366.9914469718933	0.9998669624328613
84	347.0984528064728	pulse	0	t		82.0	2.5	blank	1.0	367.174861907959	
84	347.91490483283997	movie	1		300	82.0	2.5	blank	1.0	367.9913139343262	2.500133991241455
84	348.6983218193054	pulse	1	t		82.0	2.5	blank	1.0	368.7747309207916	
84	350.29839396476746	pulse	1	t		82.0	2.5	blank	1.0	370.37480306625366	
84	350.4150388240814	fix_post	2		12	82.0	2.5	blank	1.0	370.4914479255676	0.09997010231018066
85	350.5150089263916	fix_pre	0		120	83.0	2.5	/experiments/AOT/AOT_stimuli/rescaled_final/1450_fw.mp4	0.0	370.5914180278778	0.9999029636383057
85	351.5149118900299	movie	1		244	83.0	2.5	/experiments/AOT/AOT_stimuli/rescaled_final/1450_fw.mp4	0.0	371.5913209915161	2.4995250701904297
85	351.89850401878357	pulse	1	t		83.0	2.5	/experiments/AOT/AOT_stimuli/rescaled_final/1450_fw.mp4	0.0	371.9749131202698	
85	353.490966796875	pulse	1	t		83.0	2.5	/experiments/AOT/AOT_stimuli/rescaled_final/1450_fw.mp4	0.0	373.5673758983612	
85	354.01443696022034	fix_post	2		12	83.0	2.5	/experiments/AOT/AOT_stimuli/rescaled_final/1450_fw.mp4	0.0	374.09084606170654	0.10043692588806152
87	354.1148738861084	stim	0		1716					374.1912829875946	14.299991130828857
87	355.09107780456543	pulse	0	t						375.16748690605164	
87	356.6910328865051	pulse	0	t						376.76744198799133	
87	358.2909588813782	pulse	0	t						378.3673679828644	
87	359.89105796813965	pulse	0	t						379.96746706962585	
87	361.49838280677795	pulse	0	t						381.57479190826416	
87	363.0983498096466	pulse	0	t						383.1747589111328	
87	364.69839692115784	pulse	0	t						384.77480602264404	
87	366.2983148097992	pulse	0	t						386.3747239112854	
87	367.89830493927	pulse	0	t						387.9747140407562	
