trial_nr	onset	event_type	phase	response	nr_frames	movie_index	movie_duration	movie_file	blank	onset_abs	duration
0	0.1582651138305664	stim	0		34					20.677937984466553	0.28331995010375977
0	0.4335811138153076	response	0	space						20.953253984451294	
1	0.44158506393432617	stim	0		2748					20.961257934570312	22.908209085464478
1	23.33777403831482	pulse	0	t						43.857446908950806	
1	23.349794149398804	stim	1		1716					43.86946702003479	14.299942016601562
1	24.933308124542236	pulse	1	t						45.45298099517822	
1	26.533267974853516	pulse	1	t						47.0529408454895	
1	28.13322401046753	pulse	1	t						48.652896881103516	
1	29.733262062072754	pulse	1	t						50.25293493270874	
1	31.333229064941406	pulse	1	t						51.85290193557739	
1	32.93323802947998	pulse	1	t						53.45291090011597	
1	34.53318214416504	pulse	1	t						55.052855014801025	
1	36.133164167404175	pulse	1	t						56.65283703804016	
2	37.649736166000366	fix_pre	0		11	0.0	2.5	/experiments/AOT/AOT_stimuli/rescaled_final/0598_rv.mp4	0.0	58.16940903663635	0.09160995483398438
2	37.7331600189209	pulse	0	t		0.0	2.5	/experiments/AOT/AOT_stimuli/rescaled_final/0598_rv.mp4	0.0	58.252832889556885	
2	37.74134612083435	movie	1		247	0.0	2.5	/experiments/AOT/AOT_stimuli/rescaled_final/0598_rv.mp4	0.0	58.26101899147034	2.5083539485931396
2	39.33335304260254	pulse	1	t		0.0	2.5	/experiments/AOT/AOT_stimuli/rescaled_final/0598_rv.mp4	0.0	59.853025913238525	
2	40.24970006942749	fix_post	2		12	0.0	2.5	/experiments/AOT/AOT_stimuli/rescaled_final/0598_rv.mp4	0.0	60.76937294006348	0.09989690780639648
3	40.34959697723389	fix_pre	0		120	1.0	2.5	/experiments/AOT/AOT_stimuli/rescaled_final/1442_fw.mp4	0.0	60.86926984786987	1.0000770092010498
3	40.9332320690155	pulse	0	t		1.0	2.5	/experiments/AOT/AOT_stimuli/rescaled_final/1442_fw.mp4	0.0	61.45290493965149	
3	41.34967398643494	movie	1		243	1.0	2.5	/experiments/AOT/AOT_stimuli/rescaled_final/1442_fw.mp4	0.0	61.86934685707092	2.4999330043792725
3	42.53329801559448	pulse	1	t		1.0	2.5	/experiments/AOT/AOT_stimuli/rescaled_final/1442_fw.mp4	0.0	63.05297088623047	
3	43.84960699081421	fix_post	2		12	1.0	2.5	/experiments/AOT/AOT_stimuli/rescaled_final/1442_fw.mp4	0.0	64.3692798614502	0.10010504722595215
4	43.94971203804016	fix_pre	0		120	2.0	2.5	/experiments/AOT/AOT_stimuli/rescaled_final/1960_fw.mp4	0.0	64.46938490867615	0.9999980926513672
4	44.133201122283936	pulse	0	t		2.0	2.5	/experiments/AOT/AOT_stimuli/rescaled_final/1960_fw.mp4	0.0	64.65287399291992	
4	44.94971013069153	movie	1		243	2.0	2.5	/experiments/AOT/AOT_stimuli/rescaled_final/1960_fw.mp4	0.0	65.46938300132751	2.5000410079956055
4	45.73320198059082	pulse	1	t		2.0	2.5	/experiments/AOT/AOT_stimuli/rescaled_final/1960_fw.mp4	0.0	66.2528748512268	
4	47.331467151641846	pulse	1	t		2.0	2.5	/experiments/AOT/AOT_stimuli/rescaled_final/1960_fw.mp4	0.0	67.85114002227783	
4	47.449751138687134	fix_post	2		12	2.0	2.5	/experiments/AOT/AOT_stimuli/rescaled_final/1960_fw.mp4	0.0	67.96942400932312	0.09997200965881348
5	47.54972314834595	fix_pre	0		120	3.0	2.5	/experiments/AOT/AOT_stimuli/rescaled_final/0615_rv.mp4	0.0	68.06939601898193	1.0000638961791992
5	48.54978704452515	movie	1		241	3.0	2.5	/experiments/AOT/AOT_stimuli/rescaled_final/0615_rv.mp4	0.0	69.06945991516113	2.499483108520508
5	48.93308997154236	pulse	1	t		3.0	2.5	/experiments/AOT/AOT_stimuli/rescaled_final/0615_rv.mp4	0.0	69.45276284217834	
5	50.53314805030823	pulse	1	t		3.0	2.5	/experiments/AOT/AOT_stimuli/rescaled_final/0615_rv.mp4	0.0	71.05282092094421	
5	51.049270153045654	fix_post	2		12	3.0	2.5	/experiments/AOT/AOT_stimuli/rescaled_final/0615_rv.mp4	0.0	71.56894302368164	0.09998583793640137
6	51.149255990982056	fix_pre	0		119	4.0	2.5	/experiments/AOT/AOT_stimuli/rescaled_final/0395_fw.mp4	0.0	71.66892886161804	0.9921300411224365
6	52.133156061172485	pulse	0	t		4.0	2.5	/experiments/AOT/AOT_stimuli/rescaled_final/0395_fw.mp4	0.0	72.65282893180847	
6	52.14138603210449	movie	1		245	4.0	2.5	/experiments/AOT/AOT_stimuli/rescaled_final/0395_fw.mp4	0.0	72.66105890274048	2.508223056793213
6	53.733110189437866	pulse	1	t		4.0	2.5	/experiments/AOT/AOT_stimuli/rescaled_final/0395_fw.mp4	0.0	74.25278306007385	
6	54.649609088897705	fix_post	2		12	4.0	2.5	/experiments/AOT/AOT_stimuli/rescaled_final/0395_fw.mp4	0.0	75.16928195953369	0.10001492500305176
7	54.74962401390076	fix_pre	0		120	5.0	2.5	blank	1.0	75.26929688453674	0.9999561309814453
7	55.333178997039795	pulse	0	t		5.0	2.5	blank	1.0	75.85285186767578	
7	55.7495801448822	movie	1		300	5.0	2.5	blank	1.0	76.26925301551819	2.500114917755127
7	56.93312215805054	pulse	1	t		5.0	2.5	blank	1.0	77.45279502868652	
7	58.24969506263733	fix_post	2		12	5.0	2.5	blank	1.0	78.76936793327332	0.09996390342712402
8	58.34965896606445	fix_pre	0		120	6.0	2.5	/experiments/AOT/AOT_stimuli/rescaled_final/1984_fw.mp4	0.0	78.86933183670044	1.0000572204589844
8	58.53311014175415	pulse	0	t		6.0	2.5	/experiments/AOT/AOT_stimuli/rescaled_final/1984_fw.mp4	0.0	79.05278301239014	
8	59.34971618652344	movie	1		245	6.0	2.5	/experiments/AOT/AOT_stimuli/rescaled_final/1984_fw.mp4	0.0	79.86938905715942	2.499464988708496
8	60.13312602043152	pulse	1	t		6.0	2.5	/experiments/AOT/AOT_stimuli/rescaled_final/1984_fw.mp4	0.0	80.6527988910675	
8	61.73139500617981	pulse	1	t		6.0	2.5	/experiments/AOT/AOT_stimuli/rescaled_final/1984_fw.mp4	0.0	82.2510678768158	
8	61.849181175231934	fix_post	2		12	6.0	2.5	/experiments/AOT/AOT_stimuli/rescaled_final/1984_fw.mp4	0.0	82.36885404586792	0.10001683235168457
9	61.94919800758362	fix_pre	0		120	7.0	2.5	/experiments/AOT/AOT_stimuli/rescaled_final/1740_rv.mp4	0.0	82.4688708782196	1.0004510879516602
9	62.94964909553528	movie	1		243	7.0	2.5	/experiments/AOT/AOT_stimuli/rescaled_final/1740_rv.mp4	0.0	83.46932196617126	2.499876022338867
9	63.332849979400635	pulse	1	t		7.0	2.5	/experiments/AOT/AOT_stimuli/rescaled_final/1740_rv.mp4	0.0	83.85252285003662	
9	64.9329981803894	pulse	1	t		7.0	2.5	/experiments/AOT/AOT_stimuli/rescaled_final/1740_rv.mp4	0.0	85.45267105102539	
9	65.44952511787415	fix_post	2		12	7.0	2.5	/experiments/AOT/AOT_stimuli/rescaled_final/1740_rv.mp4	0.0	85.96919798851013	0.10002398490905762
10	65.5495491027832	fix_pre	0		119	8.0	2.5	/experiments/AOT/AOT_stimuli/rescaled_final/0743_fw.mp4	0.0	86.06922197341919	0.9917120933532715
10	66.53317308425903	pulse	0	t		8.0	2.5	/experiments/AOT/AOT_stimuli/rescaled_final/0743_fw.mp4	0.0	87.05284595489502	
10	66.54126119613647	movie	1		245	8.0	2.5	/experiments/AOT/AOT_stimuli/rescaled_final/0743_fw.mp4	0.0	87.06093406677246	2.508305788040161
10	68.1328911781311	pulse	1	t		8.0	2.5	/experiments/AOT/AOT_stimuli/rescaled_final/0743_fw.mp4	0.0	88.65256404876709	
10	69.04956698417664	fix_post	2		12	8.0	2.5	/experiments/AOT/AOT_stimuli/rescaled_final/0743_fw.mp4	0.0	89.56923985481262	0.10004305839538574
11	69.14961004257202	fix_pre	0		120	9.0	2.5	/experiments/AOT/AOT_stimuli/rescaled_final/1423_fw.mp4	0.0	89.66928291320801	0.9999771118164062
11	69.73316097259521	pulse	0	t		9.0	2.5	/experiments/AOT/AOT_stimuli/rescaled_final/1423_fw.mp4	0.0	90.2528338432312	
11	70.14958715438843	movie	1		243	9.0	2.5	/experiments/AOT/AOT_stimuli/rescaled_final/1423_fw.mp4	0.0	90.66926002502441	2.499992847442627
11	71.33305501937866	pulse	1	t		9.0	2.5	/experiments/AOT/AOT_stimuli/rescaled_final/1423_fw.mp4	0.0	91.85272789001465	
11	72.64958000183105	fix_post	2		12	9.0	2.5	/experiments/AOT/AOT_stimuli/rescaled_final/1423_fw.mp4	0.0	93.16925287246704	0.09999608993530273
12	72.74957609176636	fix_pre	0		120	10.0	2.5	/experiments/AOT/AOT_stimuli/rescaled_final/0148_rv.mp4	0.0	93.26924896240234	1.0000810623168945
12	72.93305110931396	pulse	0	t		10.0	2.5	/experiments/AOT/AOT_stimuli/rescaled_final/0148_rv.mp4	0.0	93.45272397994995	
12	73.74965715408325	movie	1		246	10.0	2.5	/experiments/AOT/AOT_stimuli/rescaled_final/0148_rv.mp4	0.0	94.26933002471924	2.4994778633117676
12	74.53296303749084	pulse	1	t		10.0	2.5	/experiments/AOT/AOT_stimuli/rescaled_final/0148_rv.mp4	0.0	95.05263590812683	
12	76.13202810287476	pulse	1	t		10.0	2.5	/experiments/AOT/AOT_stimuli/rescaled_final/0148_rv.mp4	0.0	96.65170097351074	
12	76.24913501739502	fix_post	2		12	10.0	2.5	/experiments/AOT/AOT_stimuli/rescaled_final/0148_rv.mp4	0.0	96.768807888031	0.10048198699951172
13	76.34961700439453	fix_pre	0		120	11.0	2.5	/experiments/AOT/AOT_stimuli/rescaled_final/2032_rv.mp4	0.0	96.86928987503052	0.9999351501464844
13	77.34955215454102	movie	1		245	11.0	2.5	/experiments/AOT/AOT_stimuli/rescaled_final/2032_rv.mp4	0.0	97.869225025177	2.4999849796295166
13	77.7333390712738	pulse	1	t		11.0	2.5	/experiments/AOT/AOT_stimuli/rescaled_final/2032_rv.mp4	0.0	98.25301194190979	
13	79.3329529762268	pulse	1	t		11.0	2.5	/experiments/AOT/AOT_stimuli/rescaled_final/2032_rv.mp4	0.0	99.8526258468628	
13	79.84953713417053	fix_post	2		12	11.0	2.5	/experiments/AOT/AOT_stimuli/rescaled_final/2032_rv.mp4	0.0	100.36921000480652	0.0999598503112793
14	79.94949698448181	fix_pre	0		119	12.0	2.5	/experiments/AOT/AOT_stimuli/rescaled_final/1108_fw.mp4	0.0	100.4691698551178	0.9916892051696777
14	80.93297719955444	pulse	0	t		12.0	2.5	/experiments/AOT/AOT_stimuli/rescaled_final/1108_fw.mp4	0.0	101.45265007019043	
14	80.94118618965149	movie	1		246	12.0	2.5	/experiments/AOT/AOT_stimuli/rescaled_final/1108_fw.mp4	0.0	101.46085906028748	2.508253812789917
14	82.53255009651184	pulse	1	t		12.0	2.5	/experiments/AOT/AOT_stimuli/rescaled_final/1108_fw.mp4	0.0	103.05222296714783	
14	83.4494400024414	fix_post	2		12	12.0	2.5	/experiments/AOT/AOT_stimuli/rescaled_final/1108_fw.mp4	0.0	103.96911287307739	0.10003113746643066
15	83.54947113990784	fix_pre	0		120	13.0	2.5	blank	1.0	104.06914401054382	1.0000200271606445
15	84.13295817375183	pulse	0	t		13.0	2.5	blank	1.0	104.65263104438782	
15	84.54949116706848	movie	1		300	13.0	2.5	blank	1.0	105.06916403770447	2.5000789165496826
15	85.73294115066528	pulse	1	t		13.0	2.5	blank	1.0	106.25261402130127	
15	87.04957008361816	fix_post	2		12	13.0	2.5	blank	1.0	107.56924295425415	0.09984397888183594
16	87.1494140625	fix_pre	0		120	14.0	2.5	/experiments/AOT/AOT_stimuli/rescaled_final/0500_rv.mp4	0.0	107.66908693313599	1.0000810623168945
16	87.33292698860168	pulse	0	t		14.0	2.5	/experiments/AOT/AOT_stimuli/rescaled_final/0500_rv.mp4	0.0	107.85259985923767	
16	88.1494951248169	movie	1		244	14.0	2.5	/experiments/AOT/AOT_stimuli/rescaled_final/0500_rv.mp4	0.0	108.66916799545288	2.5000159740448
16	88.93297410011292	pulse	1	t		14.0	2.5	/experiments/AOT/AOT_stimuli/rescaled_final/0500_rv.mp4	0.0	109.4526469707489	
16	90.53159403800964	pulse	1	t		14.0	2.5	/experiments/AOT/AOT_stimuli/rescaled_final/0500_rv.mp4	0.0	111.05126690864563	
16	90.6495110988617	fix_post	2		12	14.0	2.5	/experiments/AOT/AOT_stimuli/rescaled_final/0500_rv.mp4	0.0	111.16918396949768	0.09997296333312988
17	90.74948406219482	fix_pre	0		120	15.0	2.5	/experiments/AOT/AOT_stimuli/rescaled_final/0300_rv.mp4	0.0	111.26915693283081	0.9998660087585449
17	91.74935007095337	movie	1		244	15.0	2.5	/experiments/AOT/AOT_stimuli/rescaled_final/0300_rv.mp4	0.0	112.26902294158936	2.4996840953826904
17	92.13326716423035	pulse	1	t		15.0	2.5	/experiments/AOT/AOT_stimuli/rescaled_final/0300_rv.mp4	0.0	112.65294003486633	
17	93.73279309272766	pulse	1	t		15.0	2.5	/experiments/AOT/AOT_stimuli/rescaled_final/0300_rv.mp4	0.0	114.25246596336365	
17	94.24903416633606	fix_post	2		12	15.0	2.5	/experiments/AOT/AOT_stimuli/rescaled_final/0300_rv.mp4	0.0	114.76870703697205	0.10042381286621094
18	94.34945797920227	fix_pre	0		119	16.0	2.5	/experiments/AOT/AOT_stimuli/rescaled_final/1559_rv.mp4	0.0	114.86913084983826	0.9915730953216553
18	95.33291912078857	pulse	0	t		16.0	2.5	/experiments/AOT/AOT_stimuli/rescaled_final/1559_rv.mp4	0.0	115.85259199142456	
18	95.34103107452393	movie	1		245	16.0	2.5	/experiments/AOT/AOT_stimuli/rescaled_final/1559_rv.mp4	0.0	115.86070394515991	2.5084218978881836
18	96.93249702453613	pulse	1	t		16.0	2.5	/experiments/AOT/AOT_stimuli/rescaled_final/1559_rv.mp4	0.0	117.45216989517212	
18	97.84945297241211	fix_post	2		12	16.0	2.5	/experiments/AOT/AOT_stimuli/rescaled_final/1559_rv.mp4	0.0	118.3691258430481	0.09999203681945801
19	97.94944500923157	fix_pre	0		120	17.0	2.5	/experiments/AOT/AOT_stimuli/rescaled_final/1937_rv.mp4	0.0	118.46911787986755	1.000136137008667
19	98.53287100791931	pulse	0	t		17.0	2.5	/experiments/AOT/AOT_stimuli/rescaled_final/1937_rv.mp4	0.0	119.0525438785553	
19	98.94958114624023	movie	1		245	17.0	2.5	/experiments/AOT/AOT_stimuli/rescaled_final/1937_rv.mp4	0.0	119.46925401687622	2.4993560314178467
19	100.13290500640869	pulse	1	t		17.0	2.5	/experiments/AOT/AOT_stimuli/rescaled_final/1937_rv.mp4	0.0	120.65257787704468	
19	101.44893717765808	fix_post	2		12	17.0	2.5	/experiments/AOT/AOT_stimuli/rescaled_final/1937_rv.mp4	0.0	121.96861004829407	0.10047483444213867
20	101.54941201210022	fix_pre	0		120	18.0	2.5	/experiments/AOT/AOT_stimuli/rescaled_final/1666_fw.mp4	0.0	122.0690848827362	0.9999990463256836
20	101.73290014266968	pulse	0	t		18.0	2.5	/experiments/AOT/AOT_stimuli/rescaled_final/1666_fw.mp4	0.0	122.25257301330566	
20	102.5494110584259	movie	1		243	18.0	2.5	/experiments/AOT/AOT_stimuli/rescaled_final/1666_fw.mp4	0.0	123.06908392906189	2.4999709129333496
20	103.33289003372192	pulse	1	t		18.0	2.5	/experiments/AOT/AOT_stimuli/rescaled_final/1666_fw.mp4	0.0	123.85256290435791	
20	104.93118906021118	pulse	1	t		18.0	2.5	/experiments/AOT/AOT_stimuli/rescaled_final/1666_fw.mp4	0.0	125.45086193084717	
20	105.04938197135925	fix_post	2		12	18.0	2.5	/experiments/AOT/AOT_stimuli/rescaled_final/1666_fw.mp4	0.0	125.56905484199524	0.09998607635498047
21	105.14936804771423	fix_pre	0		120	19.0	2.5	/experiments/AOT/AOT_stimuli/rescaled_final/1441_fw.mp4	0.0	125.66904091835022	1.0000319480895996
21	106.14939999580383	movie	1		243	19.0	2.5	/experiments/AOT/AOT_stimuli/rescaled_final/1441_fw.mp4	0.0	126.66907286643982	2.5000782012939453
21	106.53239297866821	pulse	1	t		19.0	2.5	/experiments/AOT/AOT_stimuli/rescaled_final/1441_fw.mp4	0.0	127.0520658493042	
21	108.13281512260437	pulse	1	t		19.0	2.5	/experiments/AOT/AOT_stimuli/rescaled_final/1441_fw.mp4	0.0	128.65248799324036	
21	108.64947819709778	fix_post	2		12	19.0	2.5	/experiments/AOT/AOT_stimuli/rescaled_final/1441_fw.mp4	0.0	129.16915106773376	0.09987783432006836
22	108.74935603141785	fix_pre	0		119	20.0	2.5	/experiments/AOT/AOT_stimuli/rescaled_final/1777_rv.mp4	0.0	129.26902890205383	0.9916770458221436
22	109.7327470779419	pulse	0	t		20.0	2.5	/experiments/AOT/AOT_stimuli/rescaled_final/1777_rv.mp4	0.0	130.25241994857788	
22	109.74103307723999	movie	1		245	20.0	2.5	/experiments/AOT/AOT_stimuli/rescaled_final/1777_rv.mp4	0.0	130.26070594787598	2.5078461170196533
22	111.33250403404236	pulse	1	t		20.0	2.5	/experiments/AOT/AOT_stimuli/rescaled_final/1777_rv.mp4	0.0	131.85217690467834	
22	112.24887919425964	fix_post	2		12	20.0	2.5	/experiments/AOT/AOT_stimuli/rescaled_final/1777_rv.mp4	0.0	132.76855206489563	0.10048985481262207
23	112.34936904907227	fix_pre	0		120	21.0	2.5	blank	1.0	132.86904191970825	0.9999570846557617
23	112.93283605575562	pulse	0	t		21.0	2.5	blank	1.0	133.4525089263916	
23	113.34932613372803	movie	1		300	21.0	2.5	blank	1.0	133.868999004364	2.5000369548797607
23	114.53301119804382	pulse	1	t		21.0	2.5	blank	1.0	135.0526840686798	
23	115.84936308860779	fix_post	2		12	21.0	2.5	blank	1.0	136.36903595924377	0.09990906715393066
24	115.94927215576172	fix_pre	0		120	22.0	2.5	/experiments/AOT/AOT_stimuli/rescaled_final/1560_rv.mp4	0.0	136.4689450263977	1.0000970363616943
24	116.1328752040863	pulse	0	t		22.0	2.5	/experiments/AOT/AOT_stimuli/rescaled_final/1560_rv.mp4	0.0	136.6525480747223	
24	116.94936919212341	movie	1		248	22.0	2.5	/experiments/AOT/AOT_stimuli/rescaled_final/1560_rv.mp4	0.0	137.4690420627594	2.4997568130493164
24	117.7323579788208	pulse	1	t		22.0	2.5	/experiments/AOT/AOT_stimuli/rescaled_final/1560_rv.mp4	0.0	138.2520308494568	
24	119.32881903648376	pulse	1	t		22.0	2.5	/experiments/AOT/AOT_stimuli/rescaled_final/1560_rv.mp4	0.0	139.84849190711975	
24	119.44912600517273	fix_post	2		12	22.0	2.5	/experiments/AOT/AOT_stimuli/rescaled_final/1560_rv.mp4	0.0	139.96879887580872	0.09996604919433594
25	119.54909205436707	fix_pre	0		120	23.0	2.5	/experiments/AOT/AOT_stimuli/rescaled_final/0972_rv.mp4	0.0	140.06876492500305	1.00006103515625
25	120.54915308952332	movie	1		245	23.0	2.5	/experiments/AOT/AOT_stimuli/rescaled_final/0972_rv.mp4	0.0	141.0688259601593	2.5001718997955322
25	120.93214917182922	pulse	1	t		23.0	2.5	/experiments/AOT/AOT_stimuli/rescaled_final/0972_rv.mp4	0.0	141.4518220424652	
25	122.53273010253906	pulse	1	t		23.0	2.5	/experiments/AOT/AOT_stimuli/rescaled_final/0972_rv.mp4	0.0	143.05240297317505	
25	123.04932498931885	fix_post	2		12	23.0	2.5	/experiments/AOT/AOT_stimuli/rescaled_final/0972_rv.mp4	0.0	143.56899785995483	0.09995913505554199
26	123.14928412437439	fix_pre	0		119	24.0	2.5	/experiments/AOT/AOT_stimuli/rescaled_final/0405_rv.mp4	0.0	143.66895699501038	0.9916448593139648
26	124.13276600837708	pulse	0	t		24.0	2.5	/experiments/AOT/AOT_stimuli/rescaled_final/0405_rv.mp4	0.0	144.65243887901306	
26	124.14092898368835	movie	1		245	24.0	2.5	/experiments/AOT/AOT_stimuli/rescaled_final/0405_rv.mp4	0.0	144.66060185432434	2.50799298286438
26	125.73214316368103	pulse	1	t		24.0	2.5	/experiments/AOT/AOT_stimuli/rescaled_final/0405_rv.mp4	0.0	146.25181603431702	
26	126.64892196655273	fix_post	2		12	24.0	2.5	/experiments/AOT/AOT_stimuli/rescaled_final/0405_rv.mp4	0.0	147.16859483718872	0.1003260612487793
27	126.74924802780151	fix_pre	0		120	25.0	2.5	/experiments/AOT/AOT_stimuli/rescaled_final/1366_fw.mp4	0.0	147.2689208984375	0.9999711513519287
27	127.33271408081055	pulse	0	t		25.0	2.5	/experiments/AOT/AOT_stimuli/rescaled_final/1366_fw.mp4	0.0	147.85238695144653	
27	127.74921917915344	movie	1		246	25.0	2.5	/experiments/AOT/AOT_stimuli/rescaled_final/1366_fw.mp4	0.0	148.26889204978943	2.5000128746032715
27	128.9328169822693	pulse	1	t		25.0	2.5	/experiments/AOT/AOT_stimuli/rescaled_final/1366_fw.mp4	0.0	149.45248985290527	
27	130.2492320537567	fix_post	2		12	25.0	2.5	/experiments/AOT/AOT_stimuli/rescaled_final/1366_fw.mp4	0.0	150.7689049243927	0.09994196891784668
28	130.34917402267456	fix_pre	0		120	26.0	2.5	/experiments/AOT/AOT_stimuli/rescaled_final/0361_rv.mp4	0.0	150.86884689331055	1.0000619888305664
28	130.53269505500793	pulse	0	t		26.0	2.5	/experiments/AOT/AOT_stimuli/rescaled_final/0361_rv.mp4	0.0	151.05236792564392	
28	131.34923601150513	movie	1		244	26.0	2.5	/experiments/AOT/AOT_stimuli/rescaled_final/0361_rv.mp4	0.0	151.8689088821411	2.4995579719543457
28	132.13269114494324	pulse	1	t		26.0	2.5	/experiments/AOT/AOT_stimuli/rescaled_final/0361_rv.mp4	0.0	152.65236401557922	
28	133.7321071624756	pulse	1	t		26.0	2.5	/experiments/AOT/AOT_stimuli/rescaled_final/0361_rv.mp4	0.0	154.25178003311157	
28	133.84879398345947	fix_post	2		12	26.0	2.5	/experiments/AOT/AOT_stimuli/rescaled_final/0361_rv.mp4	0.0	154.36846685409546	0.1004030704498291
29	133.9491970539093	fix_pre	0		120	27.0	2.5	blank	1.0	154.4688699245453	1.0
29	134.9491970539093	movie	1		300	27.0	2.5	blank	1.0	155.4688699245453	2.500014066696167
29	135.33275508880615	pulse	1	t		27.0	2.5	blank	1.0	155.85242795944214	
29	136.93265104293823	pulse	1	t		27.0	2.5	blank	1.0	157.45232391357422	
29	137.44921112060547	fix_post	2		12	27.0	2.5	blank	1.0	157.96888399124146	0.1000220775604248
30	137.5492331981659	fix_pre	0		119	28.0	2.5	/experiments/AOT/AOT_stimuli/rescaled_final/1467_rv.mp4	0.0	158.06890606880188	0.9916679859161377
30	138.5326840877533	pulse	0	t		28.0	2.5	/experiments/AOT/AOT_stimuli/rescaled_final/1467_rv.mp4	0.0	159.05235695838928	
30	138.54090118408203	movie	1		246	28.0	2.5	/experiments/AOT/AOT_stimuli/rescaled_final/1467_rv.mp4	0.0	159.06057405471802	2.5083508491516113
30	140.13209319114685	pulse	1	t		28.0	2.5	/experiments/AOT/AOT_stimuli/rescaled_final/1467_rv.mp4	0.0	160.65176606178284	
30	141.04925203323364	fix_post	2		12	28.0	2.5	/experiments/AOT/AOT_stimuli/rescaled_final/1467_rv.mp4	0.0	161.56892490386963	0.09992599487304688
31	141.1491780281067	fix_pre	0		120	29.0	2.5	/experiments/AOT/AOT_stimuli/rescaled_final/0827_fw.mp4	0.0	161.66885089874268	1.0000250339508057
31	141.73272919654846	pulse	0	t		29.0	2.5	/experiments/AOT/AOT_stimuli/rescaled_final/0827_fw.mp4	0.0	162.25240206718445	
31	142.1492030620575	movie	1		246	29.0	2.5	/experiments/AOT/AOT_stimuli/rescaled_final/0827_fw.mp4	0.0	162.66887593269348	2.499958038330078
31	143.33271598815918	pulse	1	t		29.0	2.5	/experiments/AOT/AOT_stimuli/rescaled_final/0827_fw.mp4	0.0	163.85238885879517	
31	144.64916110038757	fix_post	2		12	29.0	2.5	/experiments/AOT/AOT_stimuli/rescaled_final/0827_fw.mp4	0.0	165.16883397102356	0.10003995895385742
32	144.74920105934143	fix_pre	0		120	30.0	2.5	/experiments/AOT/AOT_stimuli/rescaled_final/0743_rv.mp4	0.0	165.26887392997742	0.9999051094055176
32	144.93266320228577	pulse	0	t		30.0	2.5	/experiments/AOT/AOT_stimuli/rescaled_final/0743_rv.mp4	0.0	165.45233607292175	
32	145.74910616874695	movie	1		245	30.0	2.5	/experiments/AOT/AOT_stimuli/rescaled_final/0743_rv.mp4	0.0	166.26877903938293	2.5000598430633545
32	146.53272104263306	pulse	1	t		30.0	2.5	/experiments/AOT/AOT_stimuli/rescaled_final/0743_rv.mp4	0.0	167.05239391326904	
32	148.13115811347961	pulse	1	t		30.0	2.5	/experiments/AOT/AOT_stimuli/rescaled_final/0743_rv.mp4	0.0	168.6508309841156	
32	148.2491660118103	fix_post	2		12	30.0	2.5	/experiments/AOT/AOT_stimuli/rescaled_final/0743_rv.mp4	0.0	168.7688388824463	0.09956216812133789
33	148.34872817993164	fix_pre	0		120	31.0	2.5	/experiments/AOT/AOT_stimuli/rescaled_final/1984_rv.mp4	0.0	168.86840105056763	1.000464916229248
33	149.3491930961609	movie	1		244	31.0	2.5	/experiments/AOT/AOT_stimuli/rescaled_final/1984_rv.mp4	0.0	169.86886596679688	2.4999070167541504
33	149.73194909095764	pulse	1	t		31.0	2.5	/experiments/AOT/AOT_stimuli/rescaled_final/1984_rv.mp4	0.0	170.25162196159363	
33	151.33263516426086	pulse	1	t		31.0	2.5	/experiments/AOT/AOT_stimuli/rescaled_final/1984_rv.mp4	0.0	171.85230803489685	
33	151.84910011291504	fix_post	2		12	31.0	2.5	/experiments/AOT/AOT_stimuli/rescaled_final/1984_rv.mp4	0.0	172.36877298355103	0.10011792182922363
34	151.94921803474426	fix_pre	0		119	32.0	2.5	/experiments/AOT/AOT_stimuli/rescaled_final/0789_fw.mp4	0.0	172.46889090538025	0.9915609359741211
34	152.93266320228577	pulse	0	t		32.0	2.5	/experiments/AOT/AOT_stimuli/rescaled_final/0789_fw.mp4	0.0	173.45233607292175	
34	152.94077897071838	movie	1		245	32.0	2.5	/experiments/AOT/AOT_stimuli/rescaled_final/0789_fw.mp4	0.0	173.46045184135437	2.5079591274261475
34	154.5321741104126	pulse	1	t		32.0	2.5	/experiments/AOT/AOT_stimuli/rescaled_final/0789_fw.mp4	0.0	175.05184698104858	
34	155.44873809814453	fix_post	2		12	32.0	2.5	/experiments/AOT/AOT_stimuli/rescaled_final/0789_fw.mp4	0.0	175.96841096878052	0.10044693946838379
35	155.54918503761292	fix_pre	0		120	33.0	2.5	/experiments/AOT/AOT_stimuli/rescaled_final/1904_fw.mp4	0.0	176.0688579082489	0.9999740123748779
35	156.13263201713562	pulse	0	t		33.0	2.5	/experiments/AOT/AOT_stimuli/rescaled_final/1904_fw.mp4	0.0	176.6523048877716	
35	156.5491590499878	movie	1		242	33.0	2.5	/experiments/AOT/AOT_stimuli/rescaled_final/1904_fw.mp4	0.0	177.06883192062378	2.499964952468872
35	157.73271107673645	pulse	1	t		33.0	2.5	/experiments/AOT/AOT_stimuli/rescaled_final/1904_fw.mp4	0.0	178.25238394737244	
35	159.04912400245667	fix_post	2		12	33.0	2.5	/experiments/AOT/AOT_stimuli/rescaled_final/1904_fw.mp4	0.0	179.56879687309265	0.10002017021179199
36	159.14914417266846	fix_pre	0		120	34.0	2.5	blank	1.0	179.66881704330444	1.0000360012054443
36	159.3327510356903	pulse	0	t		34.0	2.5	blank	1.0	179.8524239063263	
36	160.1491801738739	movie	1		300	34.0	2.5	blank	1.0	180.6688530445099	2.5000460147857666
36	160.9326331615448	pulse	1	t		34.0	2.5	blank	1.0	181.4523060321808	
36	162.53257513046265	pulse	1	t		34.0	2.5	blank	1.0	183.05224800109863	
36	162.64922618865967	fix_post	2		12	34.0	2.5	blank	1.0	183.16889905929565	0.0998678207397461
37	162.7490940093994	fix_pre	0		120	35.0	2.5	/experiments/AOT/AOT_stimuli/rescaled_final/1096_fw.mp4	0.0	183.2687668800354	1.0000221729278564
37	163.74911618232727	movie	1		244	35.0	2.5	/experiments/AOT/AOT_stimuli/rescaled_final/1096_fw.mp4	0.0	184.26878905296326	2.499985933303833
37	164.1321361064911	pulse	1	t		35.0	2.5	/experiments/AOT/AOT_stimuli/rescaled_final/1096_fw.mp4	0.0	184.65180897712708	
37	165.73255801200867	pulse	1	t		35.0	2.5	/experiments/AOT/AOT_stimuli/rescaled_final/1096_fw.mp4	0.0	186.25223088264465	
37	166.2491021156311	fix_post	2		12	35.0	2.5	/experiments/AOT/AOT_stimuli/rescaled_final/1096_fw.mp4	0.0	186.7687749862671	0.10003805160522461
38	166.34914016723633	fix_pre	0		119	36.0	2.5	/experiments/AOT/AOT_stimuli/rescaled_final/1167_fw.mp4	0.0	186.86881303787231	0.9916398525238037
38	167.33258509635925	pulse	0	t		36.0	2.5	/experiments/AOT/AOT_stimuli/rescaled_final/1167_fw.mp4	0.0	187.85225796699524	
38	167.34078001976013	movie	1		245	36.0	2.5	/experiments/AOT/AOT_stimuli/rescaled_final/1167_fw.mp4	0.0	187.86045289039612	2.50832200050354
38	168.93209218978882	pulse	1	t		36.0	2.5	/experiments/AOT/AOT_stimuli/rescaled_final/1167_fw.mp4	0.0	189.4517650604248	
38	169.84910202026367	fix_post	2		12	36.0	2.5	/experiments/AOT/AOT_stimuli/rescaled_final/1167_fw.mp4	0.0	190.36877489089966	0.09996414184570312
39	169.94906616210938	fix_pre	0		120	37.0	2.5	/experiments/AOT/AOT_stimuli/rescaled_final/1876_rv.mp4	0.0	190.46873903274536	1.0000028610229492
39	170.53268909454346	pulse	0	t		37.0	2.5	/experiments/AOT/AOT_stimuli/rescaled_final/1876_rv.mp4	0.0	191.05236196517944	
39	170.94906902313232	movie	1		246	37.0	2.5	/experiments/AOT/AOT_stimuli/rescaled_final/1876_rv.mp4	0.0	191.4687418937683	2.5000619888305664
39	172.13259100914001	pulse	1	t		37.0	2.5	/experiments/AOT/AOT_stimuli/rescaled_final/1876_rv.mp4	0.0	192.652263879776	
39	173.4491310119629	fix_post	2		12	37.0	2.5	/experiments/AOT/AOT_stimuli/rescaled_final/1876_rv.mp4	0.0	193.96880388259888	0.0999460220336914
40	173.54907703399658	fix_pre	0		120	38.0	2.5	/experiments/AOT/AOT_stimuli/rescaled_final/1358_fw.mp4	0.0	194.06874990463257	1.0000190734863281
40	173.73249101638794	pulse	0	t		38.0	2.5	/experiments/AOT/AOT_stimuli/rescaled_final/1358_fw.mp4	0.0	194.25216388702393	
40	174.5490961074829	movie	1		243	38.0	2.5	/experiments/AOT/AOT_stimuli/rescaled_final/1358_fw.mp4	0.0	195.0687689781189	2.4999430179595947
40	175.33261704444885	pulse	1	t		38.0	2.5	/experiments/AOT/AOT_stimuli/rescaled_final/1358_fw.mp4	0.0	195.85228991508484	
40	176.93086409568787	pulse	1	t		38.0	2.5	/experiments/AOT/AOT_stimuli/rescaled_final/1358_fw.mp4	0.0	197.45053696632385	
40	177.0490391254425	fix_post	2		12	38.0	2.5	/experiments/AOT/AOT_stimuli/rescaled_final/1358_fw.mp4	0.0	197.5687119960785	0.10000085830688477
41	177.1490399837494	fix_pre	0		120	39.0	2.5	/experiments/AOT/AOT_stimuli/rescaled_final/1142_rv.mp4	0.0	197.66871285438538	1.0001931190490723
41	178.14923310279846	movie	1		244	39.0	2.5	/experiments/AOT/AOT_stimuli/rescaled_final/1142_rv.mp4	0.0	198.66890597343445	2.499717950820923
41	178.53278398513794	pulse	1	t		39.0	2.5	/experiments/AOT/AOT_stimuli/rescaled_final/1142_rv.mp4	0.0	199.05245685577393	
41	180.13250613212585	pulse	1	t		39.0	2.5	/experiments/AOT/AOT_stimuli/rescaled_final/1142_rv.mp4	0.0	200.65217900276184	
41	180.64895105361938	fix_post	2		12	39.0	2.5	/experiments/AOT/AOT_stimuli/rescaled_final/1142_rv.mp4	0.0	201.16862392425537	0.10004711151123047
42	180.74899816513062	fix_pre	0		119	40.0	2.5	/experiments/AOT/AOT_stimuli/rescaled_final/1626_rv.mp4	0.0	201.2686710357666	0.9916958808898926
42	181.7325201034546	pulse	0	t		40.0	2.5	/experiments/AOT/AOT_stimuli/rescaled_final/1626_rv.mp4	0.0	202.25219297409058	
42	181.7406940460205	movie	1		245	40.0	2.5	/experiments/AOT/AOT_stimuli/rescaled_final/1626_rv.mp4	0.0	202.2603669166565	2.5083370208740234
42	183.33205103874207	pulse	1	t		40.0	2.5	/experiments/AOT/AOT_stimuli/rescaled_final/1626_rv.mp4	0.0	203.85172390937805	
42	184.24903106689453	fix_post	2		12	40.0	2.5	/experiments/AOT/AOT_stimuli/rescaled_final/1626_rv.mp4	0.0	204.76870393753052	0.09992504119873047
43	184.34895610809326	fix_pre	0		120	41.0	2.5	/experiments/AOT/AOT_stimuli/rescaled_final/2165_rv.mp4	0.0	204.86862897872925	1.000072956085205
43	184.93245697021484	pulse	0	t		41.0	2.5	/experiments/AOT/AOT_stimuli/rescaled_final/2165_rv.mp4	0.0	205.45212984085083	
43	185.34902906417847	movie	1		243	41.0	2.5	/experiments/AOT/AOT_stimuli/rescaled_final/2165_rv.mp4	0.0	205.86870193481445	2.4998700618743896
43	186.53248500823975	pulse	1	t		41.0	2.5	/experiments/AOT/AOT_stimuli/rescaled_final/2165_rv.mp4	0.0	207.05215787887573	
43	187.84889912605286	fix_post	2		12	41.0	2.5	/experiments/AOT/AOT_stimuli/rescaled_final/2165_rv.mp4	0.0	208.36857199668884	0.10004901885986328
44	187.94894814491272	fix_pre	0		120	42.0	2.5	blank	1.0	208.4686210155487	0.9999840259552002
44	188.13241505622864	pulse	0	t		42.0	2.5	blank	1.0	208.65208792686462	
44	188.94893217086792	movie	1		300	42.0	2.5	blank	1.0	209.4686050415039	2.500041961669922
44	189.73241806030273	pulse	1	t		42.0	2.5	blank	1.0	210.25209093093872	
44	191.3324511051178	pulse	1	t		42.0	2.5	blank	1.0	211.85212397575378	
44	191.44897413253784	fix_post	2		12	42.0	2.5	blank	1.0	211.96864700317383	0.09994292259216309
45	191.54891705513	fix_pre	0		120	43.0	2.5	/experiments/AOT/AOT_stimuli/rescaled_final/1740_rv.mp4	0.0	212.068589925766	1.0000231266021729
45	192.54894018173218	movie	1		243	43.0	2.5	/experiments/AOT/AOT_stimuli/rescaled_final/1740_rv.mp4	0.0	213.06861305236816	2.4999887943267822
45	192.93348503112793	pulse	1	t		43.0	2.5	/experiments/AOT/AOT_stimuli/rescaled_final/1740_rv.mp4	0.0	213.45315790176392	
45	194.53239703178406	pulse	1	t		43.0	2.5	/experiments/AOT/AOT_stimuli/rescaled_final/1740_rv.mp4	0.0	215.05206990242004	
45	195.04892897605896	fix_post	2		12	43.0	2.5	/experiments/AOT/AOT_stimuli/rescaled_final/1740_rv.mp4	0.0	215.56860184669495	0.1000661849975586
46	195.14899516105652	fix_pre	0		119	44.0	2.5	/experiments/AOT/AOT_stimuli/rescaled_final/0972_fw.mp4	0.0	215.6686680316925	0.9916059970855713
46	196.1324360370636	pulse	0	t		44.0	2.5	/experiments/AOT/AOT_stimuli/rescaled_final/0972_fw.mp4	0.0	216.65210890769958	
46	196.1406011581421	movie	1		243	44.0	2.5	/experiments/AOT/AOT_stimuli/rescaled_final/0972_fw.mp4	0.0	216.66027402877808	2.5083508491516113
46	197.73199105262756	pulse	1	t		44.0	2.5	/experiments/AOT/AOT_stimuli/rescaled_final/0972_fw.mp4	0.0	218.25166392326355	
46	198.6489520072937	fix_post	2		12	44.0	2.5	/experiments/AOT/AOT_stimuli/rescaled_final/0972_fw.mp4	0.0	219.1686248779297	0.099884033203125
47	198.74883604049683	fix_pre	0		120	45.0	2.5	/experiments/AOT/AOT_stimuli/rescaled_final/1151_fw.mp4	0.0	219.2685089111328	0.9996740818023682
47	199.33247303962708	pulse	0	t		45.0	2.5	/experiments/AOT/AOT_stimuli/rescaled_final/1151_fw.mp4	0.0	219.85214591026306	
47	199.7485101222992	movie	1		243	45.0	2.5	/experiments/AOT/AOT_stimuli/rescaled_final/1151_fw.mp4	0.0	220.26818299293518	2.500095844268799
47	200.93246412277222	pulse	1	t		45.0	2.5	/experiments/AOT/AOT_stimuli/rescaled_final/1151_fw.mp4	0.0	221.4521369934082	
47	202.248605966568	fix_post	2		12	45.0	2.5	/experiments/AOT/AOT_stimuli/rescaled_final/1151_fw.mp4	0.0	222.76827883720398	0.1003570556640625
48	202.34896302223206	fix_pre	0		120	46.0	2.5	/experiments/AOT/AOT_stimuli/rescaled_final/0722_rv.mp4	0.0	222.86863589286804	0.999932050704956
48	202.53240418434143	pulse	0	t		46.0	2.5	/experiments/AOT/AOT_stimuli/rescaled_final/0722_rv.mp4	0.0	223.05207705497742	
48	203.348895072937	movie	1		245	46.0	2.5	/experiments/AOT/AOT_stimuli/rescaled_final/0722_rv.mp4	0.0	223.868567943573	2.500016927719116
48	204.13250017166138	pulse	1	t		46.0	2.5	/experiments/AOT/AOT_stimuli/rescaled_final/0722_rv.mp4	0.0	224.65217304229736	
48	205.7283811569214	pulse	1	t		46.0	2.5	/experiments/AOT/AOT_stimuli/rescaled_final/0722_rv.mp4	0.0	226.24805402755737	
48	205.84891200065613	fix_post	2		12	46.0	2.5	/experiments/AOT/AOT_stimuli/rescaled_final/0722_rv.mp4	0.0	226.36858487129211	0.1000361442565918
49	205.94894814491272	fix_pre	0		120	47.0	2.5	/experiments/AOT/AOT_stimuli/rescaled_final/1108_rv.mp4	0.0	226.4686210155487	1.0000519752502441
49	206.94900012016296	movie	1		243	47.0	2.5	/experiments/AOT/AOT_stimuli/rescaled_final/1108_rv.mp4	0.0	227.46867299079895	2.499897003173828
49	207.3332221508026	pulse	1	t		47.0	2.5	/experiments/AOT/AOT_stimuli/rescaled_final/1108_rv.mp4	0.0	227.8528950214386	
49	208.93228197097778	pulse	1	t		47.0	2.5	/experiments/AOT/AOT_stimuli/rescaled_final/1108_rv.mp4	0.0	229.45195484161377	
49	209.4488971233368	fix_post	2		12	47.0	2.5	/experiments/AOT/AOT_stimuli/rescaled_final/1108_rv.mp4	0.0	229.96856999397278	0.10002994537353516
50	209.54892706871033	fix_pre	0		119	48.0	2.5	blank	1.0	230.0685999393463	0.9916601181030273
50	210.53237414360046	pulse	0	t		48.0	2.5	blank	1.0	231.05204701423645	
50	210.54058718681335	movie	1		301	48.0	2.5	blank	1.0	231.06026005744934	2.5083868503570557
50	212.13232612609863	pulse	1	t		48.0	2.5	blank	1.0	232.65199899673462	
50	213.0489740371704	fix_post	2		12	48.0	2.5	blank	1.0	233.5686469078064	0.09989809989929199
51	213.1488721370697	fix_pre	0		120	49.0	2.5	/experiments/AOT/AOT_stimuli/rescaled_final/2066_rv.mp4	0.0	233.6685450077057	1.0000338554382324
51	213.73230504989624	pulse	0	t		49.0	2.5	/experiments/AOT/AOT_stimuli/rescaled_final/2066_rv.mp4	0.0	234.25197792053223	
51	214.14890599250793	movie	1		244	49.0	2.5	/experiments/AOT/AOT_stimuli/rescaled_final/2066_rv.mp4	0.0	234.66857886314392	2.4999380111694336
51	215.3322970867157	pulse	1	t		49.0	2.5	/experiments/AOT/AOT_stimuli/rescaled_final/2066_rv.mp4	0.0	235.85196995735168	
51	216.64884400367737	fix_post	2		12	49.0	2.5	/experiments/AOT/AOT_stimuli/rescaled_final/2066_rv.mp4	0.0	237.16851687431335	0.0999910831451416
52	216.7488350868225	fix_pre	0		120	50.0	2.5	/experiments/AOT/AOT_stimuli/rescaled_final/1361_fw.mp4	0.0	237.2685079574585	0.9995861053466797
52	216.9323329925537	pulse	0	t		50.0	2.5	/experiments/AOT/AOT_stimuli/rescaled_final/1361_fw.mp4	0.0	237.4520058631897	
52	217.7484211921692	movie	1		243	50.0	2.5	/experiments/AOT/AOT_stimuli/rescaled_final/1361_fw.mp4	0.0	238.26809406280518	2.500431776046753
52	218.5323121547699	pulse	1	t		50.0	2.5	/experiments/AOT/AOT_stimuli/rescaled_final/1361_fw.mp4	0.0	239.05198502540588	
52	220.13050198554993	pulse	1	t		50.0	2.5	/experiments/AOT/AOT_stimuli/rescaled_final/1361_fw.mp4	0.0	240.6501748561859	
52	220.24885296821594	fix_post	2		12	50.0	2.5	/experiments/AOT/AOT_stimuli/rescaled_final/1361_fw.mp4	0.0	240.76852583885193	0.10006904602050781
53	220.34892201423645	fix_pre	0		120	51.0	2.5	/experiments/AOT/AOT_stimuli/rescaled_final/0610_fw.mp4	0.0	240.86859488487244	0.9999630451202393
53	221.3488850593567	movie	1		244	51.0	2.5	/experiments/AOT/AOT_stimuli/rescaled_final/0610_fw.mp4	0.0	241.86855792999268	2.4999840259552
53	221.7319140434265	pulse	1	t		51.0	2.5	/experiments/AOT/AOT_stimuli/rescaled_final/0610_fw.mp4	0.0	242.2515869140625	
53	223.3322629928589	pulse	1	t		51.0	2.5	/experiments/AOT/AOT_stimuli/rescaled_final/0610_fw.mp4	0.0	243.85193586349487	
53	223.8488690853119	fix_post	2		12	51.0	2.5	/experiments/AOT/AOT_stimuli/rescaled_final/0610_fw.mp4	0.0	244.36854195594788	0.10000991821289062
54	223.94887900352478	fix_pre	0		119	52.0	2.5	/experiments/AOT/AOT_stimuli/rescaled_final/1492_rv.mp4	0.0	244.46855187416077	0.991530179977417
54	224.9322919845581	pulse	0	t		52.0	2.5	/experiments/AOT/AOT_stimuli/rescaled_final/1492_rv.mp4	0.0	245.4519648551941	
54	224.9404091835022	movie	1		244	52.0	2.5	/experiments/AOT/AOT_stimuli/rescaled_final/1492_rv.mp4	0.0	245.46008205413818	2.508513927459717
54	226.53183102607727	pulse	1	t		52.0	2.5	/experiments/AOT/AOT_stimuli/rescaled_final/1492_rv.mp4	0.0	247.05150389671326	
54	227.4489231109619	fix_post	2		12	52.0	2.5	/experiments/AOT/AOT_stimuli/rescaled_final/1492_rv.mp4	0.0	247.9685959815979	0.09982991218566895
55	227.54875302314758	fix_pre	0		120	53.0	2.5	/experiments/AOT/AOT_stimuli/rescaled_final/1361_rv.mp4	0.0	248.06842589378357	1.0001590251922607
55	228.1322681903839	pulse	0	t		53.0	2.5	/experiments/AOT/AOT_stimuli/rescaled_final/1361_rv.mp4	0.0	248.6519410610199	
55	228.54891204833984	movie	1		243	53.0	2.5	/experiments/AOT/AOT_stimuli/rescaled_final/1361_rv.mp4	0.0	249.06858491897583	2.499664068222046
55	229.732253074646	pulse	1	t		53.0	2.5	/experiments/AOT/AOT_stimuli/rescaled_final/1361_rv.mp4	0.0	250.25192594528198	
55	231.0485761165619	fix_post	2		12	53.0	2.5	/experiments/AOT/AOT_stimuli/rescaled_final/1361_rv.mp4	0.0	251.56824898719788	0.0998830795288086
56	231.1484591960907	fix_pre	0		120	54.0	2.5	/experiments/AOT/AOT_stimuli/rescaled_final/0319_rv.mp4	0.0	251.66813206672668	1.000302791595459
56	231.3323941230774	pulse	0	t		54.0	2.5	/experiments/AOT/AOT_stimuli/rescaled_final/0319_rv.mp4	0.0	251.85206699371338	
56	232.14876198768616	movie	1		245	54.0	2.5	/experiments/AOT/AOT_stimuli/rescaled_final/0319_rv.mp4	0.0	252.66843485832214	2.5000832080841064
56	232.93214416503906	pulse	1	t		54.0	2.5	/experiments/AOT/AOT_stimuli/rescaled_final/0319_rv.mp4	0.0	253.45181703567505	
56	234.53062200546265	pulse	1	t		54.0	2.5	/experiments/AOT/AOT_stimuli/rescaled_final/0319_rv.mp4	0.0	255.05029487609863	
56	234.64884519577026	fix_post	2		12	54.0	2.5	/experiments/AOT/AOT_stimuli/rescaled_final/0319_rv.mp4	0.0	255.16851806640625	0.09989380836486816
57	234.74873900413513	fix_pre	0		120	55.0	2.5	blank	1.0	255.26841187477112	1.0000741481781006
57	235.74881315231323	movie	1		300	55.0	2.5	blank	1.0	256.2684860229492	2.4999449253082275
57	236.13222217559814	pulse	1	t		55.0	2.5	blank	1.0	256.65189504623413	
57	237.73206210136414	pulse	1	t		55.0	2.5	blank	1.0	258.2517349720001	
57	238.24875807762146	fix_post	2		12	55.0	2.5	blank	1.0	258.76843094825745	0.09995198249816895
58	238.34871006011963	fix_pre	0		119	56.0	2.5	/experiments/AOT/AOT_stimuli/rescaled_final/0789_rv.mp4	0.0	258.8683829307556	0.9916870594024658
58	239.3321831226349	pulse	0	t		56.0	2.5	/experiments/AOT/AOT_stimuli/rescaled_final/0789_rv.mp4	0.0	259.8518559932709	
58	239.3403971195221	movie	1		245	56.0	2.5	/experiments/AOT/AOT_stimuli/rescaled_final/0789_rv.mp4	0.0	259.8600699901581	2.5079269409179688
58	240.93178915977478	pulse	1	t		56.0	2.5	/experiments/AOT/AOT_stimuli/rescaled_final/0789_rv.mp4	0.0	261.45146203041077	
58	241.84832406044006	fix_post	2		12	56.0	2.5	/experiments/AOT/AOT_stimuli/rescaled_final/0789_rv.mp4	0.0	262.36799693107605	0.10034799575805664
59	241.94867205619812	fix_pre	0		120	57.0	2.5	/experiments/AOT/AOT_stimuli/rescaled_final/0827_rv.mp4	0.0	262.4683449268341	1.0001070499420166
59	242.53214406967163	pulse	0	t		57.0	2.5	/experiments/AOT/AOT_stimuli/rescaled_final/0827_rv.mp4	0.0	263.0518169403076	
59	242.94877910614014	movie	1		245	57.0	2.5	/experiments/AOT/AOT_stimuli/rescaled_final/0827_rv.mp4	0.0	263.4684519767761	2.499955892562866
59	244.13221716880798	pulse	1	t		57.0	2.5	/experiments/AOT/AOT_stimuli/rescaled_final/0827_rv.mp4	0.0	264.65189003944397	
59	245.448734998703	fix_post	2		12	57.0	2.5	/experiments/AOT/AOT_stimuli/rescaled_final/0827_rv.mp4	0.0	265.968407869339	0.10004520416259766
60	245.5487802028656	fix_pre	0		120	58.0	2.5	/experiments/AOT/AOT_stimuli/rescaled_final/2096_rv.mp4	0.0	266.0684530735016	0.9999217987060547
60	245.73218512535095	pulse	0	t		58.0	2.5	/experiments/AOT/AOT_stimuli/rescaled_final/2096_rv.mp4	0.0	266.25185799598694	
60	246.54870200157166	movie	1		244	58.0	2.5	/experiments/AOT/AOT_stimuli/rescaled_final/2096_rv.mp4	0.0	267.06837487220764	2.4999301433563232
60	247.3322081565857	pulse	1	t		58.0	2.5	/experiments/AOT/AOT_stimuli/rescaled_final/2096_rv.mp4	0.0	267.8518810272217	
60	248.92830801010132	pulse	1	t		58.0	2.5	/experiments/AOT/AOT_stimuli/rescaled_final/2096_rv.mp4	0.0	269.4479808807373	
60	249.04863214492798	fix_post	2		12	58.0	2.5	/experiments/AOT/AOT_stimuli/rescaled_final/2096_rv.mp4	0.0	269.56830501556396	0.1000208854675293
61	249.1486530303955	fix_pre	0		120	59.0	2.5	/experiments/AOT/AOT_stimuli/rescaled_final/1428_fw.mp4	0.0	269.6683259010315	1.0001561641693115
61	250.14880919456482	movie	1		248	59.0	2.5	/experiments/AOT/AOT_stimuli/rescaled_final/1428_fw.mp4	0.0	270.6684820652008	2.4998347759246826
61	250.53168606758118	pulse	1	t		59.0	2.5	/experiments/AOT/AOT_stimuli/rescaled_final/1428_fw.mp4	0.0	271.05135893821716	
61	252.13212513923645	pulse	1	t		59.0	2.5	/experiments/AOT/AOT_stimuli/rescaled_final/1428_fw.mp4	0.0	272.65179800987244	
61	252.6486439704895	fix_post	2		12	59.0	2.5	/experiments/AOT/AOT_stimuli/rescaled_final/1428_fw.mp4	0.0	273.1683168411255	0.1001121997833252
62	252.74875617027283	fix_pre	0		119	60.0	2.5	/experiments/AOT/AOT_stimuli/rescaled_final/1528_fw.mp4	0.0	273.2684290409088	0.9915289878845215
62	253.73210310935974	pulse	0	t		60.0	2.5	/experiments/AOT/AOT_stimuli/rescaled_final/1528_fw.mp4	0.0	274.2517759799957	
62	253.74028515815735	movie	1		250	60.0	2.5	/experiments/AOT/AOT_stimuli/rescaled_final/1528_fw.mp4	0.0	274.25995802879333	2.5083298683166504
62	255.33143210411072	pulse	1	t		60.0	2.5	/experiments/AOT/AOT_stimuli/rescaled_final/1528_fw.mp4	0.0	275.8511049747467	
62	256.248615026474	fix_post	2		12	60.0	2.5	/experiments/AOT/AOT_stimuli/rescaled_final/1528_fw.mp4	0.0	276.76828789711	0.10012102127075195
63	256.34873604774475	fix_pre	0		120	61.0	2.5	blank	1.0	276.86840891838074	0.9999289512634277
63	256.9320921897888	pulse	0	t		61.0	2.5	blank	1.0	277.4517650604248	
63	257.3486649990082	movie	1		300	61.0	2.5	blank	1.0	277.86833786964417	2.4999279975891113
63	258.53213000297546	pulse	1	t		61.0	2.5	blank	1.0	279.05180287361145	
63	259.8485929965973	fix_post	2		12	61.0	2.5	blank	1.0	280.3682658672333	0.10013198852539062
64	259.9487249851227	fix_pre	0		120	62.0	2.5	/experiments/AOT/AOT_stimuli/rescaled_final/0827_rv.mp4	0.0	280.46839785575867	0.9999110698699951
64	260.13217997550964	pulse	0	t		62.0	2.5	/experiments/AOT/AOT_stimuli/rescaled_final/0827_rv.mp4	0.0	280.65185284614563	
64	260.9486360549927	movie	1		245	62.0	2.5	/experiments/AOT/AOT_stimuli/rescaled_final/0827_rv.mp4	0.0	281.46830892562866	2.500040054321289
64	261.7321331501007	pulse	1	t		62.0	2.5	/experiments/AOT/AOT_stimuli/rescaled_final/0827_rv.mp4	0.0	282.2518060207367	
64	263.32792115211487	pulse	1	t		62.0	2.5	/experiments/AOT/AOT_stimuli/rescaled_final/0827_rv.mp4	0.0	283.84759402275085	
64	263.44867610931396	fix_post	2		12	62.0	2.5	/experiments/AOT/AOT_stimuli/rescaled_final/0827_rv.mp4	0.0	283.96834897994995	0.09998393058776855
65	263.54866003990173	fix_pre	0		120	63.0	2.5	/experiments/AOT/AOT_stimuli/rescaled_final/0295_fw.mp4	0.0	284.0683329105377	0.9999520778656006
65	264.54861211776733	movie	1		244	63.0	2.5	/experiments/AOT/AOT_stimuli/rescaled_final/0295_fw.mp4	0.0	285.0682849884033	2.5000369548797607
65	264.93180799484253	pulse	1	t		63.0	2.5	/experiments/AOT/AOT_stimuli/rescaled_final/0295_fw.mp4	0.0	285.4514808654785	
65	266.53207302093506	pulse	1	t		63.0	2.5	/experiments/AOT/AOT_stimuli/rescaled_final/0295_fw.mp4	0.0	287.05174589157104	
65	267.0486490726471	fix_post	2		12	63.0	2.5	/experiments/AOT/AOT_stimuli/rescaled_final/0295_fw.mp4	0.0	287.5683219432831	0.09988212585449219
66	267.1485311985016	fix_pre	0		119	64.0	2.5	/experiments/AOT/AOT_stimuli/rescaled_final/0019_rv.mp4	0.0	287.6682040691376	0.9916329383850098
66	268.1320610046387	pulse	0	t		64.0	2.5	/experiments/AOT/AOT_stimuli/rescaled_final/0019_rv.mp4	0.0	288.65173387527466	
66	268.1401641368866	movie	1		245	64.0	2.5	/experiments/AOT/AOT_stimuli/rescaled_final/0019_rv.mp4	0.0	288.6598370075226	2.5084798336029053
66	269.7318391799927	pulse	1	t		64.0	2.5	/experiments/AOT/AOT_stimuli/rescaled_final/0019_rv.mp4	0.0	290.25151205062866	
66	270.6486439704895	fix_post	2		12	64.0	2.5	/experiments/AOT/AOT_stimuli/rescaled_final/0019_rv.mp4	0.0	291.1683168411255	0.09991121292114258
67	270.74855518341064	fix_pre	0		120	65.0	2.5	/experiments/AOT/AOT_stimuli/rescaled_final/0832_rv.mp4	0.0	291.26822805404663	1.0000979900360107
67	271.331992149353	pulse	0	t		65.0	2.5	/experiments/AOT/AOT_stimuli/rescaled_final/0832_rv.mp4	0.0	291.851665019989	
67	271.74865317344666	movie	1		244	65.0	2.5	/experiments/AOT/AOT_stimuli/rescaled_final/0832_rv.mp4	0.0	292.26832604408264	2.499886989593506
67	272.93204617500305	pulse	1	t		65.0	2.5	/experiments/AOT/AOT_stimuli/rescaled_final/0832_rv.mp4	0.0	293.45171904563904	
67	274.24854016304016	fix_post	2		12	65.0	2.5	/experiments/AOT/AOT_stimuli/rescaled_final/0832_rv.mp4	0.0	294.76821303367615	0.10005688667297363
68	274.34859704971313	fix_pre	0		120	66.0	2.5	/experiments/AOT/AOT_stimuli/rescaled_final/1888_fw.mp4	0.0	294.8682699203491	0.9999351501464844
68	274.5320301055908	pulse	0	t		66.0	2.5	/experiments/AOT/AOT_stimuli/rescaled_final/1888_fw.mp4	0.0	295.0517029762268	
68	275.3485321998596	movie	1		243	66.0	2.5	/experiments/AOT/AOT_stimuli/rescaled_final/1888_fw.mp4	0.0	295.8682050704956	2.4999477863311768
68	276.1320149898529	pulse	1	t		66.0	2.5	/experiments/AOT/AOT_stimuli/rescaled_final/1888_fw.mp4	0.0	296.6516878604889	
68	277.7304251194	pulse	1	t		66.0	2.5	/experiments/AOT/AOT_stimuli/rescaled_final/1888_fw.mp4	0.0	298.250097990036	
68	277.8484799861908	fix_post	2		12	66.0	2.5	/experiments/AOT/AOT_stimuli/rescaled_final/1888_fw.mp4	0.0	298.3681528568268	0.10008120536804199
69	277.94856119155884	fix_pre	0		120	67.0	2.5	/experiments/AOT/AOT_stimuli/rescaled_final/1298_fw.mp4	0.0	298.4682340621948	1.0000009536743164
69	278.94856214523315	movie	1		243	67.0	2.5	/experiments/AOT/AOT_stimuli/rescaled_final/1298_fw.mp4	0.0	299.46823501586914	2.4999868869781494
69	279.33301615715027	pulse	1	t		67.0	2.5	/experiments/AOT/AOT_stimuli/rescaled_final/1298_fw.mp4	0.0	299.85268902778625	
69	280.93202018737793	pulse	1	t		67.0	2.5	/experiments/AOT/AOT_stimuli/rescaled_final/1298_fw.mp4	0.0	301.4516930580139	
69	281.4485490322113	fix_post	2		12	67.0	2.5	/experiments/AOT/AOT_stimuli/rescaled_final/1298_fw.mp4	0.0	301.9682219028473	0.0999441146850586
70	281.54849314689636	fix_pre	0		119	68.0	2.5	/experiments/AOT/AOT_stimuli/rescaled_final/2177_fw.mp4	0.0	302.06816601753235	0.9917328357696533
70	282.5319621562958	pulse	0	t		68.0	2.5	/experiments/AOT/AOT_stimuli/rescaled_final/2177_fw.mp4	0.0	303.05163502693176	
70	282.540225982666	movie	1		246	68.0	2.5	/experiments/AOT/AOT_stimuli/rescaled_final/2177_fw.mp4	0.0	303.059898853302	2.5078890323638916
70	284.1317181587219	pulse	1	t		68.0	2.5	/experiments/AOT/AOT_stimuli/rescaled_final/2177_fw.mp4	0.0	304.6513910293579	
70	285.0481150150299	fix_post	2		12	68.0	2.5	/experiments/AOT/AOT_stimuli/rescaled_final/2177_fw.mp4	0.0	305.5677878856659	0.10000395774841309
71	285.1481189727783	fix_pre	0		120	69.0	2.5	/experiments/AOT/AOT_stimuli/rescaled_final/1626_rv.mp4	0.0	305.6677918434143	1.0004310607910156
71	285.73159098625183	pulse	0	t		69.0	2.5	/experiments/AOT/AOT_stimuli/rescaled_final/1626_rv.mp4	0.0	306.2512638568878	
71	286.14855003356934	movie	1		246	69.0	2.5	/experiments/AOT/AOT_stimuli/rescaled_final/1626_rv.mp4	0.0	306.6682229042053	2.4999570846557617
71	287.3321940898895	pulse	1	t		69.0	2.5	/experiments/AOT/AOT_stimuli/rescaled_final/1626_rv.mp4	0.0	307.8518669605255	
71	288.6485071182251	fix_post	2		12	69.0	2.5	/experiments/AOT/AOT_stimuli/rescaled_final/1626_rv.mp4	0.0	309.1681799888611	0.09991002082824707
72	288.74841713905334	fix_pre	0		120	70.0	2.5	blank	1.0	309.26809000968933	1.0001070499420166
72	288.93194103240967	pulse	0	t		70.0	2.5	blank	1.0	309.45161390304565	
72	289.74852418899536	movie	1		300	70.0	2.5	blank	1.0	310.26819705963135	2.500002861022949
72	290.53195118904114	pulse	1	t		70.0	2.5	blank	1.0	311.0516240596771	
72	292.1320550441742	pulse	1	t		70.0	2.5	blank	1.0	312.6517279148102	
72	292.2485270500183	fix_post	2		12	70.0	2.5	blank	1.0	312.7681999206543	0.09998607635498047
73	292.3485131263733	fix_pre	0		120	71.0	2.5	/experiments/AOT/AOT_stimuli/rescaled_final/0912_fw.mp4	0.0	312.8681859970093	1.0000429153442383
73	293.34855604171753	movie	1		244	71.0	2.5	/experiments/AOT/AOT_stimuli/rescaled_final/0912_fw.mp4	0.0	313.8682289123535	2.499925136566162
73	293.7330570220947	pulse	1	t		71.0	2.5	/experiments/AOT/AOT_stimuli/rescaled_final/0912_fw.mp4	0.0	314.2527298927307	
73	295.3319230079651	pulse	1	t		71.0	2.5	/experiments/AOT/AOT_stimuli/rescaled_final/0912_fw.mp4	0.0	315.8515958786011	
73	295.8484811782837	fix_post	2		12	71.0	2.5	/experiments/AOT/AOT_stimuli/rescaled_final/0912_fw.mp4	0.0	316.3681540489197	0.09999990463256836
74	295.94848108291626	fix_pre	0		119	72.0	2.5	/experiments/AOT/AOT_stimuli/rescaled_final/1502_rv.mp4	0.0	316.46815395355225	0.991645097732544
74	296.9319109916687	pulse	0	t		72.0	2.5	/experiments/AOT/AOT_stimuli/rescaled_final/1502_rv.mp4	0.0	317.4515838623047	
74	296.9401261806488	movie	1		248	72.0	2.5	/experiments/AOT/AOT_stimuli/rescaled_final/1502_rv.mp4	0.0	317.4597990512848	2.508307933807373
74	298.5316650867462	pulse	1	t		72.0	2.5	/experiments/AOT/AOT_stimuli/rescaled_final/1502_rv.mp4	0.0	319.0513379573822	
74	299.4484341144562	fix_post	2		12	72.0	2.5	/experiments/AOT/AOT_stimuli/rescaled_final/1502_rv.mp4	0.0	319.96810698509216	0.10001087188720703
75	299.5484449863434	fix_pre	0		120	73.0	2.5	/experiments/AOT/AOT_stimuli/rescaled_final/0639_fw.mp4	0.0	320.06811785697937	1.000014066696167
75	300.1319031715393	pulse	0	t		73.0	2.5	/experiments/AOT/AOT_stimuli/rescaled_final/0639_fw.mp4	0.0	320.6515760421753	
75	300.54845905303955	movie	1		246	73.0	2.5	/experiments/AOT/AOT_stimuli/rescaled_final/0639_fw.mp4	0.0	321.06813192367554	2.499969005584717
75	301.7318871021271	pulse	1	t		73.0	2.5	/experiments/AOT/AOT_stimuli/rescaled_final/0639_fw.mp4	0.0	322.25155997276306	
75	303.04842805862427	fix_post	2		12	73.0	2.5	/experiments/AOT/AOT_stimuli/rescaled_final/0639_fw.mp4	0.0	323.56810092926025	0.09995794296264648
76	303.1483860015869	fix_pre	0		120	74.0	2.5	/experiments/AOT/AOT_stimuli/rescaled_final/1572_rv.mp4	0.0	323.6680588722229	1.0000231266021729
76	303.3319170475006	pulse	0	t		74.0	2.5	/experiments/AOT/AOT_stimuli/rescaled_final/1572_rv.mp4	0.0	323.8515899181366	
76	304.1484091281891	movie	1		246	74.0	2.5	/experiments/AOT/AOT_stimuli/rescaled_final/1572_rv.mp4	0.0	324.6680819988251	2.5000789165496826
76	304.9319610595703	pulse	1	t		74.0	2.5	/experiments/AOT/AOT_stimuli/rescaled_final/1572_rv.mp4	0.0	325.4516339302063	
76	306.53047013282776	pulse	1	t		74.0	2.5	/experiments/AOT/AOT_stimuli/rescaled_final/1572_rv.mp4	0.0	327.05014300346375	
76	306.64848804473877	fix_post	2		12	74.0	2.5	/experiments/AOT/AOT_stimuli/rescaled_final/1572_rv.mp4	0.0	327.16816091537476	0.09989500045776367
77	306.74838304519653	fix_pre	0		120	75.0	2.5	blank	1.0	327.2680559158325	0.9995810985565186
77	307.74796414375305	movie	1		300	75.0	2.5	blank	1.0	328.26763701438904	2.5004570484161377
77	308.1318790912628	pulse	1	t		75.0	2.5	blank	1.0	328.6515519618988	
77	309.7318630218506	pulse	1	t		75.0	2.5	blank	1.0	330.2515358924866	
77	310.2484211921692	fix_post	2		12	75.0	2.5	blank	1.0	330.7680940628052	0.09992098808288574
78	310.3483421802521	fix_pre	0		119	76.0	2.5	/experiments/AOT/AOT_stimuli/rescaled_final/0276_fw.mp4	0.0	330.86801505088806	0.9916839599609375
78	311.3318581581116	pulse	0	t		76.0	2.5	/experiments/AOT/AOT_stimuli/rescaled_final/0276_fw.mp4	0.0	331.85153102874756	
78	311.340026140213	movie	1		244	76.0	2.5	/experiments/AOT/AOT_stimuli/rescaled_final/0276_fw.mp4	0.0	331.859699010849	2.5082969665527344
78	312.93199014663696	pulse	1	t		76.0	2.5	/experiments/AOT/AOT_stimuli/rescaled_final/0276_fw.mp4	0.0	333.45166301727295	
78	313.84832310676575	fix_post	2		12	76.0	2.5	/experiments/AOT/AOT_stimuli/rescaled_final/0276_fw.mp4	0.0	334.36799597740173	0.10004496574401855
79	313.94836807250977	fix_pre	0		120	77.0	2.5	/experiments/AOT/AOT_stimuli/rescaled_final/1882_fw.mp4	0.0	334.46804094314575	0.9999980926513672
79	314.5318431854248	pulse	0	t		77.0	2.5	/experiments/AOT/AOT_stimuli/rescaled_final/1882_fw.mp4	0.0	335.0515160560608	
79	314.94836616516113	movie	1		243	77.0	2.5	/experiments/AOT/AOT_stimuli/rescaled_final/1882_fw.mp4	0.0	335.4680390357971	2.499974012374878
79	316.1318590641022	pulse	1	t		77.0	2.5	/experiments/AOT/AOT_stimuli/rescaled_final/1882_fw.mp4	0.0	336.65153193473816	
79	317.448340177536	fix_post	2		12	77.0	2.5	/experiments/AOT/AOT_stimuli/rescaled_final/1882_fw.mp4	0.0	337.968013048172	0.09997797012329102
80	317.5483181476593	fix_pre	0		120	78.0	2.5	/experiments/AOT/AOT_stimuli/rescaled_final/2096_rv.mp4	0.0	338.0679910182953	1.0000159740447998
80	317.73184609413147	pulse	0	t		78.0	2.5	/experiments/AOT/AOT_stimuli/rescaled_final/2096_rv.mp4	0.0	338.25151896476746	
80	318.5483341217041	movie	1		247	78.0	2.5	/experiments/AOT/AOT_stimuli/rescaled_final/2096_rv.mp4	0.0	339.0680069923401	2.499945878982544
80	319.33177614212036	pulse	1	t		78.0	2.5	/experiments/AOT/AOT_stimuli/rescaled_final/2096_rv.mp4	0.0	339.85144901275635	
80	320.9275221824646	pulse	1	t		78.0	2.5	/experiments/AOT/AOT_stimuli/rescaled_final/2096_rv.mp4	0.0	341.4471950531006	
80	321.04828000068665	fix_post	2		12	78.0	2.5	/experiments/AOT/AOT_stimuli/rescaled_final/2096_rv.mp4	0.0	341.56795287132263	0.10001707077026367
81	321.1482970714569	fix_pre	0		120	79.0	2.5	/experiments/AOT/AOT_stimuli/rescaled_final/0550_rv.mp4	0.0	341.6679699420929	0.9999299049377441
81	322.14822697639465	movie	1		249	79.0	2.5	/experiments/AOT/AOT_stimuli/rescaled_final/0550_rv.mp4	0.0	342.66789984703064	2.5000410079956055
81	322.53257513046265	pulse	1	t		79.0	2.5	/experiments/AOT/AOT_stimuli/rescaled_final/0550_rv.mp4	0.0	343.05224800109863	
81	324.13175106048584	pulse	1	t		79.0	2.5	/experiments/AOT/AOT_stimuli/rescaled_final/0550_rv.mp4	0.0	344.6514239311218	
81	324.64826798439026	fix_post	2		12	79.0	2.5	/experiments/AOT/AOT_stimuli/rescaled_final/0550_rv.mp4	0.0	345.16794085502625	0.10003113746643066
82	324.7482991218567	fix_pre	0		119	80.0	2.5	/experiments/AOT/AOT_stimuli/rescaled_final/0053_fw.mp4	0.0	345.2679719924927	0.9917099475860596
82	325.731849193573	pulse	0	t		80.0	2.5	/experiments/AOT/AOT_stimuli/rescaled_final/0053_fw.mp4	0.0	346.251522064209	
82	325.74000906944275	movie	1		246	80.0	2.5	/experiments/AOT/AOT_stimuli/rescaled_final/0053_fw.mp4	0.0	346.25968194007874	2.5082569122314453
82	327.3317220211029	pulse	1	t		80.0	2.5	/experiments/AOT/AOT_stimuli/rescaled_final/0053_fw.mp4	0.0	347.8513948917389	
82	328.2482659816742	fix_post	2		12	80.0	2.5	/experiments/AOT/AOT_stimuli/rescaled_final/0053_fw.mp4	0.0	348.7679388523102	0.1000211238861084
83	328.3482871055603	fix_pre	0		120	81.0	2.5	/experiments/AOT/AOT_stimuli/rescaled_final/0550_fw.mp4	0.0	348.8679599761963	1.0000309944152832
83	328.9319820404053	pulse	0	t		81.0	2.5	/experiments/AOT/AOT_stimuli/rescaled_final/0550_fw.mp4	0.0	349.45165491104126	
83	329.3483180999756	movie	1		246	81.0	2.5	/experiments/AOT/AOT_stimuli/rescaled_final/0550_fw.mp4	0.0	349.8679909706116	2.4999709129333496
83	330.53181409835815	pulse	1	t		81.0	2.5	/experiments/AOT/AOT_stimuli/rescaled_final/0550_fw.mp4	0.0	351.05148696899414	
83	331.84828901290894	fix_post	2		12	81.0	2.5	/experiments/AOT/AOT_stimuli/rescaled_final/0550_fw.mp4	0.0	352.3679618835449	0.09998512268066406
84	331.9482741355896	fix_pre	0		120	82.0	2.5	blank	1.0	352.4679470062256	0.9999740123748779
84	332.1317501068115	pulse	0	t		82.0	2.5	blank	1.0	352.6514229774475	
84	332.9482481479645	movie	1		300	82.0	2.5	blank	1.0	353.46792101860046	2.5000429153442383
84	333.731693983078	pulse	1	t		82.0	2.5	blank	1.0	354.251366853714	
84	335.3317291736603	pulse	1	t		82.0	2.5	blank	1.0	355.85140204429626	
84	335.4482910633087	fix_post	2		12	82.0	2.5	blank	1.0	355.9679639339447	0.09993505477905273
85	335.54822611808777	fix_pre	0		120	83.0	2.5	/experiments/AOT/AOT_stimuli/rescaled_final/2076_rv.mp4	0.0	356.06789898872375	1.0000488758087158
85	336.5482749938965	movie	1		246	83.0	2.5	/experiments/AOT/AOT_stimuli/rescaled_final/2076_rv.mp4	0.0	357.06794786453247	2.4998931884765625
85	336.932825088501	pulse	1	t		83.0	2.5	/experiments/AOT/AOT_stimuli/rescaled_final/2076_rv.mp4	0.0	357.45249795913696	
85	338.5316460132599	pulse	1	t		83.0	2.5	/experiments/AOT/AOT_stimuli/rescaled_final/2076_rv.mp4	0.0	359.0513188838959	
85	339.04816818237305	fix_post	2		12	83.0	2.5	/experiments/AOT/AOT_stimuli/rescaled_final/2076_rv.mp4	0.0	359.56784105300903	0.10005378723144531
87	339.1482219696045	stim	0		1716					359.6678948402405	14.29997205734253
87	340.13169503211975	pulse	0	t						360.65136790275574	
87	341.73169803619385	pulse	0	t						362.25137090682983	
87	343.3318600654602	pulse	0	t						363.8515329360962	
87	344.9317879676819	pulse	0	t						365.45146083831787	
87	346.53183603286743	pulse	0	t						367.0515089035034	
87	348.1316680908203	pulse	0	t						368.6513409614563	
87	349.73157119750977	pulse	0	t						370.25124406814575	
87	351.3315989971161	pulse	0	t						371.8512718677521	
87	352.9315721988678	pulse	0	t						373.4512450695038	
