trial_nr	onset	event_type	phase	response	nr_frames	movie_index	movie_duration	movie_file	blank	onset_abs	duration
0	0.17512989044189453	stim	0		7					16.88380241394043	0.05811595916748047
0	0.22507357597351074	response	0	space						16.933746099472046	
1	0.233245849609375	stim	0		4603					16.94191837310791	38.37267231941223
1	38.59604740142822	pulse	0	t						55.30471992492676	
1	38.605918169021606	stim	1		1715					55.31459069252014	14.301910161972046
1	40.18963694572449	pulse	1	t						56.89830946922302	
1	41.789679288864136	pulse	1	t						58.49835181236267	
1	43.39020037651062	pulse	1	t						60.098872900009155	
1	44.990270376205444	pulse	1	t						61.69894289970398	
1	46.590402364730835	pulse	1	t						63.29907488822937	
1	48.190659046173096	pulse	1	t						64.89933156967163	
1	49.790881872177124	pulse	1	t						66.49955439567566	
1	51.39116859436035	pulse	1	t						68.09984111785889	
2	52.90782833099365	fix_pre	0		11	0.0	2.5	/experiments/Knapen_AOT/AOT_stimuli/rescaled_final/0767_fw.mp4	0.0	69.61650085449219	0.10851025581359863
2	52.99135780334473	pulse	0	t		0.0	2.5	/experiments/Knapen_AOT/AOT_stimuli/rescaled_final/0767_fw.mp4	0.0	69.70003032684326	
2	53.01633858680725	movie	1		287	0.0	2.5	/experiments/Knapen_AOT/AOT_stimuli/rescaled_final/0767_fw.mp4	0.0	69.72501111030579	2.491865873336792
2	54.59034752845764	pulse	1	t		0.0	2.5	/experiments/Knapen_AOT/AOT_stimuli/rescaled_final/0767_fw.mp4	0.0	71.29902005195618	
2	55.50820446014404	fix_post	2		12	0.0	2.5	/experiments/Knapen_AOT/AOT_stimuli/rescaled_final/0767_fw.mp4	0.0	72.21687698364258	0.1000375747680664
3	55.60824203491211	fix_pre	0		120	1.0	2.5	/experiments/Knapen_AOT/AOT_stimuli/rescaled_final/1848_fw.mp4	0.0	72.31691455841064	1.008479356765747
3	56.192180156707764	pulse	0	t		1.0	2.5	/experiments/Knapen_AOT/AOT_stimuli/rescaled_final/1848_fw.mp4	0.0	72.9008526802063	
3	56.616721391677856	movie	1		287	1.0	2.5	/experiments/Knapen_AOT/AOT_stimuli/rescaled_final/1848_fw.mp4	0.0	73.32539391517639	2.492055892944336
3	57.79043197631836	pulse	1	t		1.0	2.5	/experiments/Knapen_AOT/AOT_stimuli/rescaled_final/1848_fw.mp4	0.0	74.4991044998169	
3	59.10877728462219	fix_post	2		12	1.0	2.5	/experiments/Knapen_AOT/AOT_stimuli/rescaled_final/1848_fw.mp4	0.0	75.81744980812073	0.09999537467956543
4	59.20877265930176	fix_pre	0		120	2.0	2.5	/experiments/Knapen_AOT/AOT_stimuli/rescaled_final/0146_fw.mp4	0.0	75.9174451828003	1.0085172653198242
4	59.3924560546875	pulse	0	t		2.0	2.5	/experiments/Knapen_AOT/AOT_stimuli/rescaled_final/0146_fw.mp4	0.0	76.10112857818604	
4	60.21728992462158	movie	1		282	2.0	2.5	/experiments/Knapen_AOT/AOT_stimuli/rescaled_final/0146_fw.mp4	0.0	76.92596244812012	2.4920268058776855
4	60.990339279174805	pulse	1	t		2.0	2.5	/experiments/Knapen_AOT/AOT_stimuli/rescaled_final/0146_fw.mp4	0.0	77.69901180267334	
4	62.586913108825684	pulse	1	t		2.0	2.5	/experiments/Knapen_AOT/AOT_stimuli/rescaled_final/0146_fw.mp4	0.0	79.29558563232422	
4	62.70931673049927	fix_post	2		12	2.0	2.5	/experiments/Knapen_AOT/AOT_stimuli/rescaled_final/0146_fw.mp4	0.0	79.4179892539978	0.10010695457458496
5	62.80942368507385	fix_pre	0		120	3.0	2.5	/experiments/Knapen_AOT/AOT_stimuli/rescaled_final/1862_rv.mp4	0.0	79.51809620857239	1.0083904266357422
5	63.817814111709595	movie	1		277	3.0	2.5	/experiments/Knapen_AOT/AOT_stimuli/rescaled_final/1862_rv.mp4	0.0	80.52648663520813	2.4920549392700195
5	64.1933650970459	pulse	1	t		3.0	2.5	/experiments/Knapen_AOT/AOT_stimuli/rescaled_final/1862_rv.mp4	0.0	80.90203762054443	
5	65.79161620140076	pulse	1	t		3.0	2.5	/experiments/Knapen_AOT/AOT_stimuli/rescaled_final/1862_rv.mp4	0.0	82.50028872489929	
5	66.30986905097961	fix_post	2		12	3.0	2.5	/experiments/Knapen_AOT/AOT_stimuli/rescaled_final/1862_rv.mp4	0.0	83.01854157447815	0.0999898910522461
6	66.40985894203186	fix_pre	0		119	4.0	2.5	/experiments/Knapen_AOT/AOT_stimuli/rescaled_final/1370_fw.mp4	0.0	83.1185314655304	1.0002148151397705
6	67.385751247406	pulse	0	t		4.0	2.5	/experiments/Knapen_AOT/AOT_stimuli/rescaled_final/1370_fw.mp4	0.0	84.09442377090454	
6	67.41007375717163	movie	1		295	4.0	2.5	/experiments/Knapen_AOT/AOT_stimuli/rescaled_final/1370_fw.mp4	0.0	84.11874628067017	2.500302791595459
6	68.98579239845276	pulse	1	t		4.0	2.5	/experiments/Knapen_AOT/AOT_stimuli/rescaled_final/1370_fw.mp4	0.0	85.6944649219513	
6	69.91037654876709	fix_post	2		12	4.0	2.5	/experiments/Knapen_AOT/AOT_stimuli/rescaled_final/1370_fw.mp4	0.0	86.61904907226562	0.10003161430358887
7	70.01040816307068	fix_pre	0		120	5.0	2.5	/experiments/Knapen_AOT/AOT_stimuli/rescaled_final/1577_rv.mp4	0.0	86.71908068656921	1.0085961818695068
7	70.58578658103943	pulse	0	t		5.0	2.5	/experiments/Knapen_AOT/AOT_stimuli/rescaled_final/1577_rv.mp4	0.0	87.29445910453796	
7	71.01900434494019	movie	1		277	5.0	2.5	/experiments/Knapen_AOT/AOT_stimuli/rescaled_final/1577_rv.mp4	0.0	87.72767686843872	2.4919097423553467
7	72.18626475334167	pulse	1	t		5.0	2.5	/experiments/Knapen_AOT/AOT_stimuli/rescaled_final/1577_rv.mp4	0.0	88.89493727684021	
7	73.51091408729553	fix_post	2		12	5.0	2.5	/experiments/Knapen_AOT/AOT_stimuli/rescaled_final/1577_rv.mp4	0.0	90.21958661079407	0.1000211238861084
8	73.61093521118164	fix_pre	0		120	6.0	2.5	/experiments/Knapen_AOT/AOT_stimuli/rescaled_final/2033_fw.mp4	0.0	90.31960773468018	1.0084943771362305
8	73.7861738204956	pulse	0	t		6.0	2.5	/experiments/Knapen_AOT/AOT_stimuli/rescaled_final/2033_fw.mp4	0.0	90.49484634399414	
8	74.61942958831787	movie	1		285	6.0	2.5	/experiments/Knapen_AOT/AOT_stimuli/rescaled_final/2033_fw.mp4	0.0	91.3281021118164	2.492039918899536
8	75.38601493835449	pulse	1	t		6.0	2.5	/experiments/Knapen_AOT/AOT_stimuli/rescaled_final/2033_fw.mp4	0.0	92.09468746185303	
8	76.98669385910034	pulse	1	t		6.0	2.5	/experiments/Knapen_AOT/AOT_stimuli/rescaled_final/2033_fw.mp4	0.0	93.69536638259888	
8	77.11146950721741	fix_post	2		12	6.0	2.5	/experiments/Knapen_AOT/AOT_stimuli/rescaled_final/2033_fw.mp4	0.0	93.82014203071594	0.10005950927734375
9	77.21152901649475	fix_pre	0		120	7.0	2.5	blank	1.0	93.92020153999329	1.0000958442687988
9	78.21162486076355	movie	1		300	7.0	2.5	blank	1.0	94.92029738426208	2.500394344329834
9	78.5869996547699	pulse	1	t		7.0	2.5	blank	1.0	95.29567217826843	
9	80.18717336654663	pulse	1	t		7.0	2.5	blank	1.0	96.89584589004517	
9	80.71201920509338	fix_post	2		12	7.0	2.5	blank	1.0	97.42069172859192	0.09999847412109375
10	80.81201767921448	fix_pre	0		118	8.0	2.5	/experiments/Knapen_AOT/AOT_stimuli/rescaled_final/0393_fw.mp4	0.0	97.52069020271301	0.9918675422668457
10	81.78739929199219	pulse	0	t		8.0	2.5	/experiments/Knapen_AOT/AOT_stimuli/rescaled_final/0393_fw.mp4	0.0	98.49607181549072	
10	81.80388522148132	movie	1		274	8.0	2.5	/experiments/Knapen_AOT/AOT_stimuli/rescaled_final/0393_fw.mp4	0.0	98.51255774497986	2.500333547592163
10	83.38632583618164	pulse	1	t		8.0	2.5	/experiments/Knapen_AOT/AOT_stimuli/rescaled_final/0393_fw.mp4	0.0	100.09499835968018	
10	84.30421876907349	fix_post	2		12	8.0	2.5	/experiments/Knapen_AOT/AOT_stimuli/rescaled_final/0393_fw.mp4	0.0	101.01289129257202	0.10000491142272949
11	84.40422368049622	fix_pre	0		120	9.0	2.5	/experiments/Knapen_AOT/AOT_stimuli/rescaled_final/0650_fw.mp4	0.0	101.11289620399475	1.0085253715515137
11	84.9878978729248	pulse	0	t		9.0	2.5	/experiments/Knapen_AOT/AOT_stimuli/rescaled_final/0650_fw.mp4	0.0	101.69657039642334	
11	85.41274905204773	movie	1		280	9.0	2.5	/experiments/Knapen_AOT/AOT_stimuli/rescaled_final/0650_fw.mp4	0.0	102.12142157554626	2.492036819458008
11	86.58593201637268	pulse	1	t		9.0	2.5	/experiments/Knapen_AOT/AOT_stimuli/rescaled_final/0650_fw.mp4	0.0	103.29460453987122	
11	87.90478587150574	fix_post	2		12	9.0	2.5	/experiments/Knapen_AOT/AOT_stimuli/rescaled_final/0650_fw.mp4	0.0	104.61345839500427	0.100006103515625
12	88.00479197502136	fix_pre	0		120	10.0	2.5	/experiments/Knapen_AOT/AOT_stimuli/rescaled_final/1252_fw.mp4	0.0	104.7134644985199	1.0084829330444336
12	88.1883614063263	pulse	0	t		10.0	2.5	/experiments/Knapen_AOT/AOT_stimuli/rescaled_final/1252_fw.mp4	0.0	104.89703392982483	
12	89.0132749080658	movie	1		285	10.0	2.5	/experiments/Knapen_AOT/AOT_stimuli/rescaled_final/1252_fw.mp4	0.0	105.72194743156433	2.492018699645996
12	89.78639078140259	pulse	1	t		10.0	2.5	/experiments/Knapen_AOT/AOT_stimuli/rescaled_final/1252_fw.mp4	0.0	106.49506330490112	
12	91.38674354553223	pulse	1	t		10.0	2.5	/experiments/Knapen_AOT/AOT_stimuli/rescaled_final/1252_fw.mp4	0.0	108.09541606903076	
12	91.50529360771179	fix_post	2		12	10.0	2.5	/experiments/Knapen_AOT/AOT_stimuli/rescaled_final/1252_fw.mp4	0.0	108.21396613121033	0.10003900527954102
13	91.60533261299133	fix_pre	0		120	11.0	2.5	/experiments/Knapen_AOT/AOT_stimuli/rescaled_final/0421_rv.mp4	0.0	108.31400513648987	1.0084803104400635
13	92.6138129234314	movie	1		282	11.0	2.5	/experiments/Knapen_AOT/AOT_stimuli/rescaled_final/0421_rv.mp4	0.0	109.32248544692993	2.49202823638916
13	92.9884889125824	pulse	1	t		11.0	2.5	/experiments/Knapen_AOT/AOT_stimuli/rescaled_final/0421_rv.mp4	0.0	109.69716143608093	
13	94.58703780174255	pulse	1	t		11.0	2.5	/experiments/Knapen_AOT/AOT_stimuli/rescaled_final/0421_rv.mp4	0.0	111.29571032524109	
13	95.10584115982056	fix_post	2		12	11.0	2.5	/experiments/Knapen_AOT/AOT_stimuli/rescaled_final/0421_rv.mp4	0.0	111.81451368331909	0.10002279281616211
14	95.20586395263672	fix_pre	0		119	12.0	2.5	blank	1.0	111.91453647613525	0.9918148517608643
14	96.18952369689941	pulse	0	t		12.0	2.5	blank	1.0	112.89819622039795	
14	96.19767880439758	movie	1		301	12.0	2.5	blank	1.0	112.90635132789612	2.5086894035339355
14	97.78975915908813	pulse	1	t		12.0	2.5	blank	1.0	114.49843168258667	
14	98.70636820793152	fix_post	2		12	12.0	2.5	blank	1.0	115.41504073143005	0.10005402565002441
15	98.80642223358154	fix_pre	0		120	13.0	2.5	/experiments/Knapen_AOT/AOT_stimuli/rescaled_final/0176_rv.mp4	0.0	115.51509475708008	1.0085082054138184
15	99.3901150226593	pulse	0	t		13.0	2.5	/experiments/Knapen_AOT/AOT_stimuli/rescaled_final/0176_rv.mp4	0.0	116.09878754615784	
15	99.81493043899536	movie	1		284	13.0	2.5	/experiments/Knapen_AOT/AOT_stimuli/rescaled_final/0176_rv.mp4	0.0	116.5236029624939	2.492042303085327
15	100.98841524124146	pulse	1	t		13.0	2.5	/experiments/Knapen_AOT/AOT_stimuli/rescaled_final/0176_rv.mp4	0.0	117.69708776473999	
15	102.30697274208069	fix_post	2		12	13.0	2.5	/experiments/Knapen_AOT/AOT_stimuli/rescaled_final/0176_rv.mp4	0.0	119.01564526557922	0.0999610424041748
16	102.40693378448486	fix_pre	0		120	14.0	2.5	/experiments/Knapen_AOT/AOT_stimuli/rescaled_final/0176_fw.mp4	0.0	119.1156063079834	1.008521318435669
16	102.59052729606628	pulse	0	t		14.0	2.5	/experiments/Knapen_AOT/AOT_stimuli/rescaled_final/0176_fw.mp4	0.0	119.29919981956482	
16	103.41545510292053	movie	1		284	14.0	2.5	/experiments/Knapen_AOT/AOT_stimuli/rescaled_final/0176_fw.mp4	0.0	120.12412762641907	2.491997003555298
16	104.18986535072327	pulse	1	t		14.0	2.5	/experiments/Knapen_AOT/AOT_stimuli/rescaled_final/0176_fw.mp4	0.0	120.8985378742218	
16	105.78883099555969	pulse	1	t		14.0	2.5	/experiments/Knapen_AOT/AOT_stimuli/rescaled_final/0176_fw.mp4	0.0	122.49750351905823	
16	105.90745210647583	fix_post	2		12	14.0	2.5	/experiments/Knapen_AOT/AOT_stimuli/rescaled_final/0176_fw.mp4	0.0	122.61612462997437	0.10002636909484863
17	106.00747847557068	fix_pre	0		120	15.0	2.5	/experiments/Knapen_AOT/AOT_stimuli/rescaled_final/2063_fw.mp4	0.0	122.71615099906921	1.0085384845733643
17	107.01601696014404	movie	1		284	15.0	2.5	/experiments/Knapen_AOT/AOT_stimuli/rescaled_final/2063_fw.mp4	0.0	123.72468948364258	2.491992473602295
17	107.38963413238525	pulse	1	t		15.0	2.5	/experiments/Knapen_AOT/AOT_stimuli/rescaled_final/2063_fw.mp4	0.0	124.09830665588379	
17	108.98917555809021	pulse	1	t		15.0	2.5	/experiments/Knapen_AOT/AOT_stimuli/rescaled_final/2063_fw.mp4	0.0	125.69784808158875	
17	109.50800943374634	fix_post	2		12	15.0	2.5	/experiments/Knapen_AOT/AOT_stimuli/rescaled_final/2063_fw.mp4	0.0	126.21668195724487	0.10003900527954102
18	109.60804843902588	fix_pre	0		119	16.0	2.5	/experiments/Knapen_AOT/AOT_stimuli/rescaled_final/0197_fw.mp4	0.0	126.31672096252441	1.0000944137573242
18	110.5917239189148	pulse	0	t		16.0	2.5	/experiments/Knapen_AOT/AOT_stimuli/rescaled_final/0197_fw.mp4	0.0	127.30039644241333	
18	110.6081428527832	movie	1		279	16.0	2.5	/experiments/Knapen_AOT/AOT_stimuli/rescaled_final/0197_fw.mp4	0.0	127.31681537628174	2.5004026889801025
18	112.1907012462616	pulse	1	t		16.0	2.5	/experiments/Knapen_AOT/AOT_stimuli/rescaled_final/0197_fw.mp4	0.0	128.89937376976013	
18	113.1085455417633	fix_post	2		12	16.0	2.5	/experiments/Knapen_AOT/AOT_stimuli/rescaled_final/0197_fw.mp4	0.0	129.81721806526184	0.10002398490905762
19	113.20856952667236	fix_pre	0		120	17.0	2.5	/experiments/Knapen_AOT/AOT_stimuli/rescaled_final/1712_fw.mp4	0.0	129.9172420501709	1.0085132122039795
19	113.79219770431519	pulse	0	t		17.0	2.5	/experiments/Knapen_AOT/AOT_stimuli/rescaled_final/1712_fw.mp4	0.0	130.50087022781372	
19	114.21708273887634	movie	1		279	17.0	2.5	/experiments/Knapen_AOT/AOT_stimuli/rescaled_final/1712_fw.mp4	0.0	130.92575526237488	2.492002487182617
19	115.39113783836365	pulse	1	t		17.0	2.5	/experiments/Knapen_AOT/AOT_stimuli/rescaled_final/1712_fw.mp4	0.0	132.09981036186218	
19	116.70908522605896	fix_post	2		12	17.0	2.5	/experiments/Knapen_AOT/AOT_stimuli/rescaled_final/1712_fw.mp4	0.0	133.4177577495575	0.10006403923034668
20	116.8091492652893	fix_pre	0		120	18.0	2.5	/experiments/Knapen_AOT/AOT_stimuli/rescaled_final/1107_fw.mp4	0.0	133.51782178878784	1.0084524154663086
20	116.99268317222595	pulse	0	t		18.0	2.5	/experiments/Knapen_AOT/AOT_stimuli/rescaled_final/1107_fw.mp4	0.0	133.7013556957245	
20	117.81760168075562	movie	1		282	18.0	2.5	/experiments/Knapen_AOT/AOT_stimuli/rescaled_final/1107_fw.mp4	0.0	134.52627420425415	2.492021322250366
20	118.590895652771	pulse	1	t		18.0	2.5	/experiments/Knapen_AOT/AOT_stimuli/rescaled_final/1107_fw.mp4	0.0	135.29956817626953	
20	120.19103074073792	pulse	1	t		18.0	2.5	/experiments/Knapen_AOT/AOT_stimuli/rescaled_final/1107_fw.mp4	0.0	136.89970326423645	
20	120.30962300300598	fix_post	2		12	18.0	2.5	/experiments/Knapen_AOT/AOT_stimuli/rescaled_final/1107_fw.mp4	0.0	137.01829552650452	0.10002613067626953
21	120.40964913368225	fix_pre	0		120	19.0	2.5	/experiments/Knapen_AOT/AOT_stimuli/rescaled_final/1933_rv.mp4	0.0	137.1183216571808	1.0084683895111084
21	121.41811752319336	movie	1		274	19.0	2.5	/experiments/Knapen_AOT/AOT_stimuli/rescaled_final/1933_rv.mp4	0.0	138.1267900466919	2.4920449256896973
21	121.79219150543213	pulse	1	t		19.0	2.5	/experiments/Knapen_AOT/AOT_stimuli/rescaled_final/1933_rv.mp4	0.0	138.50086402893066	
21	123.39162158966064	pulse	1	t		19.0	2.5	/experiments/Knapen_AOT/AOT_stimuli/rescaled_final/1933_rv.mp4	0.0	140.10029411315918	
21	123.91016244888306	fix_post	2		12	19.0	2.5	/experiments/Knapen_AOT/AOT_stimuli/rescaled_final/1933_rv.mp4	0.0	140.6188349723816	0.10002517700195312
22	124.01018762588501	fix_pre	0		119	20.0	2.5	blank	1.0	140.71886014938354	0.9918200969696045
22	124.986328125	pulse	0	t		20.0	2.5	blank	1.0	141.69500064849854	
22	125.00200772285461	movie	1		301	20.0	2.5	blank	1.0	141.71068024635315	2.508744716644287
22	126.58623695373535	pulse	1	t		20.0	2.5	blank	1.0	143.2949094772339	
22	127.5107524394989	fix_post	2		12	20.0	2.5	blank	1.0	144.21942496299744	0.09996795654296875
23	127.61072039604187	fix_pre	0		120	21.0	2.5	/experiments/Knapen_AOT/AOT_stimuli/rescaled_final/0991_fw.mp4	0.0	144.3193929195404	1.0084893703460693
23	128.18624997138977	pulse	0	t		21.0	2.5	/experiments/Knapen_AOT/AOT_stimuli/rescaled_final/0991_fw.mp4	0.0	144.8949224948883	
23	128.61920976638794	movie	1		282	21.0	2.5	/experiments/Knapen_AOT/AOT_stimuli/rescaled_final/0991_fw.mp4	0.0	145.32788228988647	2.4920737743377686
23	129.78632879257202	pulse	1	t		21.0	2.5	/experiments/Knapen_AOT/AOT_stimuli/rescaled_final/0991_fw.mp4	0.0	146.49500131607056	
23	131.1112835407257	fix_post	2		12	21.0	2.5	/experiments/Knapen_AOT/AOT_stimuli/rescaled_final/0991_fw.mp4	0.0	147.81995606422424	0.1000361442565918
24	131.2113196849823	fix_pre	0		120	22.0	2.5	/experiments/Knapen_AOT/AOT_stimuli/rescaled_final/1428_rv.mp4	0.0	147.91999220848083	1.0085084438323975
24	131.3865773677826	pulse	0	t		22.0	2.5	/experiments/Knapen_AOT/AOT_stimuli/rescaled_final/1428_rv.mp4	0.0	148.09524989128113	
24	132.2198281288147	movie	1		282	22.0	2.5	/experiments/Knapen_AOT/AOT_stimuli/rescaled_final/1428_rv.mp4	0.0	148.92850065231323	2.491987466812134
24	132.98585510253906	pulse	1	t		22.0	2.5	/experiments/Knapen_AOT/AOT_stimuli/rescaled_final/1428_rv.mp4	0.0	149.6945276260376	
24	134.58516001701355	pulse	1	t		22.0	2.5	/experiments/Knapen_AOT/AOT_stimuli/rescaled_final/1428_rv.mp4	0.0	151.29383254051208	
24	134.71181559562683	fix_post	2		12	22.0	2.5	/experiments/Knapen_AOT/AOT_stimuli/rescaled_final/1428_rv.mp4	0.0	151.42048811912537	0.09999895095825195
25	134.81181454658508	fix_pre	0		120	23.0	2.5	/experiments/Knapen_AOT/AOT_stimuli/rescaled_final/0922_rv.mp4	0.0	151.52048707008362	1.0085227489471436
25	135.82033729553223	movie	1		266	23.0	2.5	/experiments/Knapen_AOT/AOT_stimuli/rescaled_final/0922_rv.mp4	0.0	152.52900981903076	2.491992950439453
25	136.18717288970947	pulse	1	t		23.0	2.5	/experiments/Knapen_AOT/AOT_stimuli/rescaled_final/0922_rv.mp4	0.0	152.895845413208	
25	137.78627038002014	pulse	1	t		23.0	2.5	/experiments/Knapen_AOT/AOT_stimuli/rescaled_final/0922_rv.mp4	0.0	154.49494290351868	
25	138.31233024597168	fix_post	2		12	23.0	2.5	/experiments/Knapen_AOT/AOT_stimuli/rescaled_final/0922_rv.mp4	0.0	155.02100276947021	0.10002708435058594
26	138.41235733032227	fix_pre	0		118	24.0	2.5	/experiments/Knapen_AOT/AOT_stimuli/rescaled_final/0858_fw.mp4	0.0	155.1210298538208	0.9918205738067627
26	139.3879132270813	pulse	0	t		24.0	2.5	/experiments/Knapen_AOT/AOT_stimuli/rescaled_final/0858_fw.mp4	0.0	156.09658575057983	
26	139.40417790412903	movie	1		270	24.0	2.5	/experiments/Knapen_AOT/AOT_stimuli/rescaled_final/0858_fw.mp4	0.0	156.11285042762756	2.500354051589966
26	140.9864101409912	pulse	1	t		24.0	2.5	/experiments/Knapen_AOT/AOT_stimuli/rescaled_final/0858_fw.mp4	0.0	157.69508266448975	
26	141.904531955719	fix_post	2		12	24.0	2.5	/experiments/Knapen_AOT/AOT_stimuli/rescaled_final/0858_fw.mp4	0.0	158.61320447921753	0.10002803802490234
27	142.0045599937439	fix_pre	0		120	25.0	2.5	/experiments/Knapen_AOT/AOT_stimuli/rescaled_final/1252_rv.mp4	0.0	158.71323251724243	1.0085077285766602
27	142.58818078041077	pulse	0	t		25.0	2.5	/experiments/Knapen_AOT/AOT_stimuli/rescaled_final/1252_rv.mp4	0.0	159.2968533039093	
27	143.01306772232056	movie	1		277	25.0	2.5	/experiments/Knapen_AOT/AOT_stimuli/rescaled_final/1252_rv.mp4	0.0	159.7217402458191	2.4920716285705566
27	144.18680143356323	pulse	1	t		25.0	2.5	/experiments/Knapen_AOT/AOT_stimuli/rescaled_final/1252_rv.mp4	0.0	160.89547395706177	
27	145.5051393508911	fix_post	2		12	25.0	2.5	/experiments/Knapen_AOT/AOT_stimuli/rescaled_final/1252_rv.mp4	0.0	162.21381187438965	0.09997057914733887
28	145.60510993003845	fix_pre	0		120	26.0	2.5	/experiments/Knapen_AOT/AOT_stimuli/rescaled_final/2036_rv.mp4	0.0	162.313782453537	1.0084912776947021
28	145.78865694999695	pulse	0	t		26.0	2.5	/experiments/Knapen_AOT/AOT_stimuli/rescaled_final/2036_rv.mp4	0.0	162.49732947349548	
28	146.61360120773315	movie	1		292	26.0	2.5	/experiments/Knapen_AOT/AOT_stimuli/rescaled_final/2036_rv.mp4	0.0	163.3222737312317	2.4920411109924316
28	147.38742661476135	pulse	1	t		26.0	2.5	/experiments/Knapen_AOT/AOT_stimuli/rescaled_final/2036_rv.mp4	0.0	164.0960991382599	
28	148.98708772659302	pulse	1	t		26.0	2.5	/experiments/Knapen_AOT/AOT_stimuli/rescaled_final/2036_rv.mp4	0.0	165.69576025009155	
28	149.1056423187256	fix_post	2		12	26.0	2.5	/experiments/Knapen_AOT/AOT_stimuli/rescaled_final/2036_rv.mp4	0.0	165.81431484222412	0.10003018379211426
29	149.2056725025177	fix_pre	0		120	27.0	2.5	/experiments/Knapen_AOT/AOT_stimuli/rescaled_final/2036_fw.mp4	0.0	165.91434502601624	1.0085396766662598
29	150.21421217918396	movie	1		274	27.0	2.5	/experiments/Knapen_AOT/AOT_stimuli/rescaled_final/2036_fw.mp4	0.0	166.9228847026825	2.4919750690460205
29	150.5878655910492	pulse	1	t		27.0	2.5	/experiments/Knapen_AOT/AOT_stimuli/rescaled_final/2036_fw.mp4	0.0	167.29653811454773	
29	152.18828225135803	pulse	1	t		27.0	2.5	/experiments/Knapen_AOT/AOT_stimuli/rescaled_final/2036_fw.mp4	0.0	168.89695477485657	
29	152.70618724822998	fix_post	2		12	27.0	2.5	/experiments/Knapen_AOT/AOT_stimuli/rescaled_final/2036_fw.mp4	0.0	169.41485977172852	0.10000348091125488
30	152.80619072914124	fix_pre	0		119	28.0	2.5	blank	1.0	169.51486325263977	0.9917902946472168
30	153.79036855697632	pulse	0	t		28.0	2.5	blank	1.0	170.49904108047485	
30	153.79798102378845	movie	1		301	28.0	2.5	blank	1.0	170.506653547287	2.5087738037109375
30	155.39015007019043	pulse	1	t		28.0	2.5	blank	1.0	172.09882259368896	
30	156.3067548274994	fix_post	2		12	28.0	2.5	blank	1.0	173.01542735099792	0.10003495216369629
31	156.4067897796631	fix_pre	0		120	29.0	2.5	/experiments/Knapen_AOT/AOT_stimuli/rescaled_final/0211_rv.mp4	0.0	173.11546230316162	1.008474349975586
31	156.99033617973328	pulse	0	t		29.0	2.5	/experiments/Knapen_AOT/AOT_stimuli/rescaled_final/0211_rv.mp4	0.0	173.6990087032318	
31	157.41526412963867	movie	1		284	29.0	2.5	/experiments/Knapen_AOT/AOT_stimuli/rescaled_final/0211_rv.mp4	0.0	174.1239366531372	2.492084264755249
31	158.5885910987854	pulse	1	t		29.0	2.5	/experiments/Knapen_AOT/AOT_stimuli/rescaled_final/0211_rv.mp4	0.0	175.29726362228394	
31	159.90734839439392	fix_post	2		12	29.0	2.5	/experiments/Knapen_AOT/AOT_stimuli/rescaled_final/0211_rv.mp4	0.0	176.61602091789246	0.09996724128723145
32	160.00731563568115	fix_pre	0		120	30.0	2.5	/experiments/Knapen_AOT/AOT_stimuli/rescaled_final/1332_fw.mp4	0.0	176.7159881591797	1.0084362030029297
32	160.190908908844	pulse	0	t		30.0	2.5	/experiments/Knapen_AOT/AOT_stimuli/rescaled_final/1332_fw.mp4	0.0	176.89958143234253	
32	161.01575183868408	movie	1		291	30.0	2.5	/experiments/Knapen_AOT/AOT_stimuli/rescaled_final/1332_fw.mp4	0.0	177.72442436218262	2.492050886154175
32	161.78967380523682	pulse	1	t		30.0	2.5	/experiments/Knapen_AOT/AOT_stimuli/rescaled_final/1332_fw.mp4	0.0	178.49834632873535	
32	163.38944959640503	pulse	1	t		30.0	2.5	/experiments/Knapen_AOT/AOT_stimuli/rescaled_final/1332_fw.mp4	0.0	180.09812211990356	
32	163.50780272483826	fix_post	2		12	30.0	2.5	/experiments/Knapen_AOT/AOT_stimuli/rescaled_final/1332_fw.mp4	0.0	180.2164752483368	0.10002017021179199
33	163.60782289505005	fix_pre	0		120	31.0	2.5	/experiments/Knapen_AOT/AOT_stimuli/rescaled_final/1014_fw.mp4	0.0	180.31649541854858	1.00846529006958
33	164.61628818511963	movie	1		263	31.0	2.5	/experiments/Knapen_AOT/AOT_stimuli/rescaled_final/1014_fw.mp4	0.0	181.32496070861816	2.492091655731201
33	164.99170875549316	pulse	1	t		31.0	2.5	/experiments/Knapen_AOT/AOT_stimuli/rescaled_final/1014_fw.mp4	0.0	181.7003812789917	
33	166.59075736999512	pulse	1	t		31.0	2.5	/experiments/Knapen_AOT/AOT_stimuli/rescaled_final/1014_fw.mp4	0.0	183.29942989349365	
33	167.10837984085083	fix_post	2		12	31.0	2.5	/experiments/Knapen_AOT/AOT_stimuli/rescaled_final/1014_fw.mp4	0.0	183.81705236434937	0.09997057914733887
34	167.20835041999817	fix_pre	0		119	32.0	2.5	/experiments/Knapen_AOT/AOT_stimuli/rescaled_final/1504_rv.mp4	0.0	183.9170229434967	1.00014328956604
34	168.192626953125	pulse	0	t		32.0	2.5	/experiments/Knapen_AOT/AOT_stimuli/rescaled_final/1504_rv.mp4	0.0	184.90129947662354	
34	168.2084937095642	movie	1		276	32.0	2.5	/experiments/Knapen_AOT/AOT_stimuli/rescaled_final/1504_rv.mp4	0.0	184.91716623306274	2.5004043579101562
34	169.79148721694946	pulse	1	t		32.0	2.5	/experiments/Knapen_AOT/AOT_stimuli/rescaled_final/1504_rv.mp4	0.0	186.500159740448	
34	170.70889806747437	fix_post	2		12	32.0	2.5	/experiments/Knapen_AOT/AOT_stimuli/rescaled_final/1504_rv.mp4	0.0	187.4175705909729	0.09999871253967285
35	170.80889678001404	fix_pre	0		120	33.0	2.5	/experiments/Knapen_AOT/AOT_stimuli/rescaled_final/1039_rv.mp4	0.0	187.51756930351257	1.0085217952728271
35	171.39260506629944	pulse	0	t		33.0	2.5	/experiments/Knapen_AOT/AOT_stimuli/rescaled_final/1039_rv.mp4	0.0	188.10127758979797	
35	171.81741857528687	movie	1		271	33.0	2.5	/experiments/Knapen_AOT/AOT_stimuli/rescaled_final/1039_rv.mp4	0.0	188.5260910987854	2.4921483993530273
35	172.99190306663513	pulse	1	t		33.0	2.5	/experiments/Knapen_AOT/AOT_stimuli/rescaled_final/1039_rv.mp4	0.0	189.70057559013367	
35	174.3095669746399	fix_post	2		12	33.0	2.5	/experiments/Knapen_AOT/AOT_stimuli/rescaled_final/1039_rv.mp4	0.0	191.01823949813843	0.09987044334411621
36	174.409437417984	fix_pre	0		120	34.0	2.5	/experiments/Knapen_AOT/AOT_stimuli/rescaled_final/0052_rv.mp4	0.0	191.11810994148254	1.0084965229034424
36	174.58565092086792	pulse	0	t		34.0	2.5	/experiments/Knapen_AOT/AOT_stimuli/rescaled_final/0052_rv.mp4	0.0	191.29432344436646	
36	175.41793394088745	movie	1		277	34.0	2.5	/experiments/Knapen_AOT/AOT_stimuli/rescaled_final/0052_rv.mp4	0.0	192.126606464386	2.4921038150787354
36	176.19097876548767	pulse	1	t		34.0	2.5	/experiments/Knapen_AOT/AOT_stimuli/rescaled_final/0052_rv.mp4	0.0	192.8996512889862	
36	177.79297542572021	pulse	1	t		34.0	2.5	/experiments/Knapen_AOT/AOT_stimuli/rescaled_final/0052_rv.mp4	0.0	194.50164794921875	
36	177.9100377559662	fix_post	2		12	34.0	2.5	/experiments/Knapen_AOT/AOT_stimuli/rescaled_final/0052_rv.mp4	0.0	194.61871027946472	0.09994077682495117
37	178.00997853279114	fix_pre	0		120	35.0	2.5	blank	1.0	194.71865105628967	1.0001380443572998
37	179.01011657714844	movie	1		300	35.0	2.5	blank	1.0	195.71878910064697	2.5003838539123535
37	179.38557052612305	pulse	1	t		35.0	2.5	blank	1.0	196.09424304962158	
37	180.9855740070343	pulse	1	t		35.0	2.5	blank	1.0	197.69424653053284	
37	181.5105004310608	fix_post	2		12	35.0	2.5	blank	1.0	198.21917295455933	0.10009288787841797
38	181.6105933189392	fix_pre	0		118	36.0	2.5	/experiments/Knapen_AOT/AOT_stimuli/rescaled_final/1490_fw.mp4	0.0	198.31926584243774	0.9917335510253906
38	182.5858383178711	pulse	0	t		36.0	2.5	/experiments/Knapen_AOT/AOT_stimuli/rescaled_final/1490_fw.mp4	0.0	199.29451084136963	
38	182.6023268699646	movie	1		261	36.0	2.5	/experiments/Knapen_AOT/AOT_stimuli/rescaled_final/1490_fw.mp4	0.0	199.31099939346313	2.500462532043457
38	184.18616843223572	pulse	1	t		36.0	2.5	/experiments/Knapen_AOT/AOT_stimuli/rescaled_final/1490_fw.mp4	0.0	200.89484095573425	
38	185.10278940200806	fix_post	2		12	36.0	2.5	/experiments/Knapen_AOT/AOT_stimuli/rescaled_final/1490_fw.mp4	0.0	201.8114619255066	0.09992456436157227
39	185.20271396636963	fix_pre	0		120	37.0	2.5	/experiments/Knapen_AOT/AOT_stimuli/rescaled_final/1089_rv.mp4	0.0	201.91138648986816	1.0085272789001465
39	185.78646659851074	pulse	0	t		37.0	2.5	/experiments/Knapen_AOT/AOT_stimuli/rescaled_final/1089_rv.mp4	0.0	202.49513912200928	
39	186.21124124526978	movie	1		280	37.0	2.5	/experiments/Knapen_AOT/AOT_stimuli/rescaled_final/1089_rv.mp4	0.0	202.9199137687683	2.4919915199279785
39	187.38661003112793	pulse	1	t		37.0	2.5	/experiments/Knapen_AOT/AOT_stimuli/rescaled_final/1089_rv.mp4	0.0	204.09528255462646	
39	188.70323276519775	fix_post	2		12	37.0	2.5	/experiments/Knapen_AOT/AOT_stimuli/rescaled_final/1089_rv.mp4	0.0	205.4119052886963	0.09999752044677734
40	188.80323028564453	fix_pre	0		120	38.0	2.5	/experiments/Knapen_AOT/AOT_stimuli/rescaled_final/2103_fw.mp4	0.0	205.51190280914307	1.008558988571167
40	188.98679041862488	pulse	0	t		38.0	2.5	/experiments/Knapen_AOT/AOT_stimuli/rescaled_final/2103_fw.mp4	0.0	205.6954629421234	
40	189.8117892742157	movie	1		286	38.0	2.5	/experiments/Knapen_AOT/AOT_stimuli/rescaled_final/2103_fw.mp4	0.0	206.52046179771423	2.4919958114624023
40	190.58700370788574	pulse	1	t		38.0	2.5	/experiments/Knapen_AOT/AOT_stimuli/rescaled_final/2103_fw.mp4	0.0	207.29567623138428	
40	192.18726134300232	pulse	1	t		38.0	2.5	/experiments/Knapen_AOT/AOT_stimuli/rescaled_final/2103_fw.mp4	0.0	208.89593386650085	
40	192.3037850856781	fix_post	2		12	38.0	2.5	/experiments/Knapen_AOT/AOT_stimuli/rescaled_final/2103_fw.mp4	0.0	209.01245760917664	0.1000211238861084
41	192.4038062095642	fix_pre	0		120	39.0	2.5	/experiments/Knapen_AOT/AOT_stimuli/rescaled_final/1093_rv.mp4	0.0	209.11247873306274	1.0084865093231201
41	193.41229271888733	movie	1		274	39.0	2.5	/experiments/Knapen_AOT/AOT_stimuli/rescaled_final/1093_rv.mp4	0.0	210.12096524238586	2.4920613765716553
41	193.785906791687	pulse	1	t		39.0	2.5	/experiments/Knapen_AOT/AOT_stimuli/rescaled_final/1093_rv.mp4	0.0	210.49457931518555	
41	195.38617944717407	pulse	1	t		39.0	2.5	/experiments/Knapen_AOT/AOT_stimuli/rescaled_final/1093_rv.mp4	0.0	212.0948519706726	
41	195.90435409545898	fix_post	2		12	39.0	2.5	/experiments/Knapen_AOT/AOT_stimuli/rescaled_final/1093_rv.mp4	0.0	212.61302661895752	0.1000211238861084
42	196.0043752193451	fix_pre	0		119	40.0	2.5	/experiments/Knapen_AOT/AOT_stimuli/rescaled_final/1448_rv.mp4	0.0	212.71304774284363	1.0001332759857178
42	196.98801279067993	pulse	0	t		40.0	2.5	/experiments/Knapen_AOT/AOT_stimuli/rescaled_final/1448_rv.mp4	0.0	213.69668531417847	
42	197.0045084953308	movie	1		288	40.0	2.5	/experiments/Knapen_AOT/AOT_stimuli/rescaled_final/1448_rv.mp4	0.0	213.71318101882935	2.5003552436828613
42	198.58650732040405	pulse	1	t		40.0	2.5	/experiments/Knapen_AOT/AOT_stimuli/rescaled_final/1448_rv.mp4	0.0	215.2951798439026	
42	199.50486373901367	fix_post	2		12	40.0	2.5	/experiments/Knapen_AOT/AOT_stimuli/rescaled_final/1448_rv.mp4	0.0	216.2135362625122	0.1000211238861084
43	199.60488486289978	fix_pre	0		120	41.0	2.5	blank	1.0	216.31355738639832	1.000152587890625
43	200.18844366073608	pulse	0	t		41.0	2.5	blank	1.0	216.89711618423462	
43	200.6050374507904	movie	1		300	41.0	2.5	blank	1.0	217.31370997428894	2.500375986099243
43	201.78869605064392	pulse	1	t		41.0	2.5	blank	1.0	218.49736857414246	
43	203.10541343688965	fix_post	2		12	41.0	2.5	blank	1.0	219.81408596038818	0.10000753402709961
44	203.20542097091675	fix_pre	0		120	42.0	2.5	/experiments/Knapen_AOT/AOT_stimuli/rescaled_final/0482_fw.mp4	0.0	219.91409349441528	1.0085067749023438
44	203.38900876045227	pulse	0	t		42.0	2.5	/experiments/Knapen_AOT/AOT_stimuli/rescaled_final/0482_fw.mp4	0.0	220.0976812839508	
44	204.2139277458191	movie	1		288	42.0	2.5	/experiments/Knapen_AOT/AOT_stimuli/rescaled_final/0482_fw.mp4	0.0	220.92260026931763	2.4920270442962646
44	204.99056124687195	pulse	1	t		42.0	2.5	/experiments/Knapen_AOT/AOT_stimuli/rescaled_final/0482_fw.mp4	0.0	221.69923377037048	
44	206.58734583854675	pulse	1	t		42.0	2.5	/experiments/Knapen_AOT/AOT_stimuli/rescaled_final/0482_fw.mp4	0.0	223.2960183620453	
44	206.70595479011536	fix_post	2		12	42.0	2.5	/experiments/Knapen_AOT/AOT_stimuli/rescaled_final/0482_fw.mp4	0.0	223.4146273136139	0.10027122497558594
45	206.80622601509094	fix_pre	0		120	43.0	2.5	/experiments/Knapen_AOT/AOT_stimuli/rescaled_final/1470_rv.mp4	0.0	223.51489853858948	1.0082595348358154
45	207.81448554992676	movie	1		280	43.0	2.5	/experiments/Knapen_AOT/AOT_stimuli/rescaled_final/1470_rv.mp4	0.0	224.5231580734253	2.4920096397399902
45	208.18804669380188	pulse	1	t		43.0	2.5	/experiments/Knapen_AOT/AOT_stimuli/rescaled_final/1470_rv.mp4	0.0	224.89671921730042	
45	209.7879114151001	pulse	1	t		43.0	2.5	/experiments/Knapen_AOT/AOT_stimuli/rescaled_final/1470_rv.mp4	0.0	226.49658393859863	
45	210.30649518966675	fix_post	2		12	43.0	2.5	/experiments/Knapen_AOT/AOT_stimuli/rescaled_final/1470_rv.mp4	0.0	227.01516771316528	0.1001274585723877
46	210.40662264823914	fix_pre	0		119	44.0	2.5	/experiments/Knapen_AOT/AOT_stimuli/rescaled_final/1199_fw.mp4	0.0	227.11529517173767	1.0084314346313477
46	211.39019751548767	pulse	0	t		44.0	2.5	/experiments/Knapen_AOT/AOT_stimuli/rescaled_final/1199_fw.mp4	0.0	228.0988700389862	
46	211.41505408287048	movie	1		280	44.0	2.5	/experiments/Knapen_AOT/AOT_stimuli/rescaled_final/1199_fw.mp4	0.0	228.12372660636902	2.4919819831848145
46	212.98867297172546	pulse	1	t		44.0	2.5	/experiments/Knapen_AOT/AOT_stimuli/rescaled_final/1199_fw.mp4	0.0	229.697345495224	
46	213.9070360660553	fix_post	2		12	44.0	2.5	/experiments/Knapen_AOT/AOT_stimuli/rescaled_final/1199_fw.mp4	0.0	230.61570858955383	0.10005640983581543
47	214.0070924758911	fix_pre	0		120	45.0	2.5	/experiments/Knapen_AOT/AOT_stimuli/rescaled_final/0878_rv.mp4	0.0	230.71576499938965	1.0084664821624756
47	214.59059834480286	pulse	0	t		45.0	2.5	/experiments/Knapen_AOT/AOT_stimuli/rescaled_final/0878_rv.mp4	0.0	231.2992708683014	
47	215.0155589580536	movie	1		287	45.0	2.5	/experiments/Knapen_AOT/AOT_stimuli/rescaled_final/0878_rv.mp4	0.0	231.72423148155212	2.4920082092285156
47	216.1893060207367	pulse	1	t		45.0	2.5	/experiments/Knapen_AOT/AOT_stimuli/rescaled_final/0878_rv.mp4	0.0	232.89797854423523	
47	217.5075671672821	fix_post	2		12	45.0	2.5	/experiments/Knapen_AOT/AOT_stimuli/rescaled_final/0878_rv.mp4	0.0	234.21623969078064	0.10003185272216797
48	217.60759902000427	fix_pre	0		120	46.0	2.5	/experiments/Knapen_AOT/AOT_stimuli/rescaled_final/1272_rv.mp4	0.0	234.3162715435028	1.0085628032684326
48	217.7911479473114	pulse	0	t		46.0	2.5	/experiments/Knapen_AOT/AOT_stimuli/rescaled_final/1272_rv.mp4	0.0	234.49982047080994	
48	218.6161618232727	movie	1		264	46.0	2.5	/experiments/Knapen_AOT/AOT_stimuli/rescaled_final/1272_rv.mp4	0.0	235.32483434677124	2.491987466812134
48	219.38989758491516	pulse	1	t		46.0	2.5	/experiments/Knapen_AOT/AOT_stimuli/rescaled_final/1272_rv.mp4	0.0	236.0985701084137	
48	220.98991632461548	pulse	1	t		46.0	2.5	/experiments/Knapen_AOT/AOT_stimuli/rescaled_final/1272_rv.mp4	0.0	237.698588848114	
48	221.10814929008484	fix_post	2		12	46.0	2.5	/experiments/Knapen_AOT/AOT_stimuli/rescaled_final/1272_rv.mp4	0.0	237.81682181358337	0.09997725486755371
49	221.2081265449524	fix_pre	0		120	47.0	2.5	/experiments/Knapen_AOT/AOT_stimuli/rescaled_final/1547_fw.mp4	0.0	237.91679906845093	1.0084948539733887
49	222.21662139892578	movie	1		283	47.0	2.5	/experiments/Knapen_AOT/AOT_stimuli/rescaled_final/1547_fw.mp4	0.0	238.92529392242432	2.4920711517333984
49	222.59026646614075	pulse	1	t		47.0	2.5	/experiments/Knapen_AOT/AOT_stimuli/rescaled_final/1547_fw.mp4	0.0	239.29893898963928	
49	224.19010996818542	pulse	1	t		47.0	2.5	/experiments/Knapen_AOT/AOT_stimuli/rescaled_final/1547_fw.mp4	0.0	240.89878249168396	
49	224.70869255065918	fix_post	2		12	47.0	2.5	/experiments/Knapen_AOT/AOT_stimuli/rescaled_final/1547_fw.mp4	0.0	241.41736507415771	0.09997367858886719
50	224.80866622924805	fix_pre	0		119	48.0	2.5	/experiments/Knapen_AOT/AOT_stimuli/rescaled_final/1772_fw.mp4	0.0	241.51733875274658	1.000239610671997
50	225.7925033569336	pulse	0	t		48.0	2.5	/experiments/Knapen_AOT/AOT_stimuli/rescaled_final/1772_fw.mp4	0.0	242.50117588043213	
50	225.80890583992004	movie	1		283	48.0	2.5	/experiments/Knapen_AOT/AOT_stimuli/rescaled_final/1772_fw.mp4	0.0	242.51757836341858	2.500305414199829
50	227.39102125167847	pulse	1	t		48.0	2.5	/experiments/Knapen_AOT/AOT_stimuli/rescaled_final/1772_fw.mp4	0.0	244.099693775177	
50	228.30921125411987	fix_post	2		12	48.0	2.5	/experiments/Knapen_AOT/AOT_stimuli/rescaled_final/1772_fw.mp4	0.0	245.0178837776184	0.10003089904785156
51	228.40924215316772	fix_pre	0		120	49.0	2.5	blank	1.0	245.11791467666626	1.0001394748687744
51	228.9931423664093	pulse	0	t		49.0	2.5	blank	1.0	245.70181488990784	
51	229.4093816280365	movie	1		300	49.0	2.5	blank	1.0	246.11805415153503	2.500351667404175
51	230.5931375026703	pulse	1	t		49.0	2.5	blank	1.0	247.30181002616882	
51	231.90973329544067	fix_post	2		12	49.0	2.5	blank	1.0	248.6184058189392	0.1000213623046875
52	232.00975465774536	fix_pre	0		119	50.0	2.5	/experiments/Knapen_AOT/AOT_stimuli/rescaled_final/1428_rv.mp4	0.0	248.7184271812439	1.008474588394165
52	232.19413328170776	pulse	0	t		50.0	2.5	/experiments/Knapen_AOT/AOT_stimuli/rescaled_final/1428_rv.mp4	0.0	248.9028058052063	
52	233.01822924613953	movie	1		268	50.0	2.5	/experiments/Knapen_AOT/AOT_stimuli/rescaled_final/1428_rv.mp4	0.0	249.72690176963806	2.4920828342437744
52	233.79132175445557	pulse	1	t		50.0	2.5	/experiments/Knapen_AOT/AOT_stimuli/rescaled_final/1428_rv.mp4	0.0	250.4999942779541	
52	235.38769340515137	pulse	1	t		50.0	2.5	/experiments/Knapen_AOT/AOT_stimuli/rescaled_final/1428_rv.mp4	0.0	252.0963659286499	
52	235.5103120803833	fix_post	2		12	50.0	2.5	/experiments/Knapen_AOT/AOT_stimuli/rescaled_final/1428_rv.mp4	0.0	252.21898460388184	0.10004687309265137
53	235.61035895347595	fix_pre	0		120	51.0	2.5	/experiments/Knapen_AOT/AOT_stimuli/rescaled_final/0650_rv.mp4	0.0	252.3190314769745	1.008430004119873
53	236.61878895759583	movie	1		274	51.0	2.5	/experiments/Knapen_AOT/AOT_stimuli/rescaled_final/0650_rv.mp4	0.0	253.32746148109436	2.492093801498413
53	236.99431133270264	pulse	1	t		51.0	2.5	/experiments/Knapen_AOT/AOT_stimuli/rescaled_final/0650_rv.mp4	0.0	253.70298385620117	
53	238.5863356590271	pulse	1	t		51.0	2.5	/experiments/Knapen_AOT/AOT_stimuli/rescaled_final/0650_rv.mp4	0.0	255.29500818252563	
53	239.11088275909424	fix_post	2		12	51.0	2.5	/experiments/Knapen_AOT/AOT_stimuli/rescaled_final/0650_rv.mp4	0.0	255.81955528259277	0.09993791580200195
54	239.21082067489624	fix_pre	0		118	52.0	2.5	/experiments/Knapen_AOT/AOT_stimuli/rescaled_final/0326_fw.mp4	0.0	255.91949319839478	0.9918632507324219
54	240.1862711906433	pulse	0	t		52.0	2.5	/experiments/Knapen_AOT/AOT_stimuli/rescaled_final/0326_fw.mp4	0.0	256.89494371414185	
54	240.20268392562866	movie	1		270	52.0	2.5	/experiments/Knapen_AOT/AOT_stimuli/rescaled_final/0326_fw.mp4	0.0	256.9113564491272	2.500365972518921
54	241.7865104675293	pulse	1	t		52.0	2.5	/experiments/Knapen_AOT/AOT_stimuli/rescaled_final/0326_fw.mp4	0.0	258.49518299102783	
54	242.70304989814758	fix_post	2		12	52.0	2.5	/experiments/Knapen_AOT/AOT_stimuli/rescaled_final/0326_fw.mp4	0.0	259.4117224216461	0.09999537467956543
55	242.80304527282715	fix_pre	0		120	53.0	2.5	/experiments/Knapen_AOT/AOT_stimuli/rescaled_final/1820_fw.mp4	0.0	259.5117177963257	1.0084631443023682
55	243.38668298721313	pulse	0	t		53.0	2.5	/experiments/Knapen_AOT/AOT_stimuli/rescaled_final/1820_fw.mp4	0.0	260.09535551071167	
55	243.81150841712952	movie	1		272	53.0	2.5	/experiments/Knapen_AOT/AOT_stimuli/rescaled_final/1820_fw.mp4	0.0	260.52018094062805	2.4920494556427
55	244.98698043823242	pulse	1	t		53.0	2.5	/experiments/Knapen_AOT/AOT_stimuli/rescaled_final/1820_fw.mp4	0.0	261.69565296173096	
55	246.30355787277222	fix_post	2		12	53.0	2.5	/experiments/Knapen_AOT/AOT_stimuli/rescaled_final/1820_fw.mp4	0.0	263.01223039627075	0.10009169578552246
56	246.40364956855774	fix_pre	0		120	54.0	2.5	/experiments/Knapen_AOT/AOT_stimuli/rescaled_final/0590_rv.mp4	0.0	263.1123220920563	1.0084528923034668
56	246.58720684051514	pulse	0	t		54.0	2.5	/experiments/Knapen_AOT/AOT_stimuli/rescaled_final/0590_rv.mp4	0.0	263.2958793640137	
56	247.4121024608612	movie	1		268	54.0	2.5	/experiments/Knapen_AOT/AOT_stimuli/rescaled_final/0590_rv.mp4	0.0	264.12077498435974	2.4920156002044678
56	248.18742442131042	pulse	1	t		54.0	2.5	/experiments/Knapen_AOT/AOT_stimuli/rescaled_final/0590_rv.mp4	0.0	264.89609694480896	
56	249.7877161502838	pulse	1	t		54.0	2.5	/experiments/Knapen_AOT/AOT_stimuli/rescaled_final/0590_rv.mp4	0.0	266.49638867378235	
56	249.90411806106567	fix_post	2		12	54.0	2.5	/experiments/Knapen_AOT/AOT_stimuli/rescaled_final/0590_rv.mp4	0.0	266.6127905845642	0.1000223159790039
57	250.00414037704468	fix_pre	0		120	55.0	2.5	blank	1.0	266.7128129005432	1.0001296997070312
57	251.0042700767517	movie	1		300	55.0	2.5	blank	1.0	267.71294260025024	2.500380277633667
57	251.38795471191406	pulse	1	t		55.0	2.5	blank	1.0	268.0966272354126	
57	252.9881227016449	pulse	1	t		55.0	2.5	blank	1.0	269.69679522514343	
57	253.50465035438538	fix_post	2		12	55.0	2.5	blank	1.0	270.2133228778839	0.10002684593200684
58	253.60467720031738	fix_pre	0		119	56.0	2.5	/experiments/Knapen_AOT/AOT_stimuli/rescaled_final/2106_rv.mp4	0.0	270.3133497238159	1.0001754760742188
58	254.5884931087494	pulse	0	t		56.0	2.5	/experiments/Knapen_AOT/AOT_stimuli/rescaled_final/2106_rv.mp4	0.0	271.2971656322479	
58	254.6048526763916	movie	1		279	56.0	2.5	/experiments/Knapen_AOT/AOT_stimuli/rescaled_final/2106_rv.mp4	0.0	271.31352519989014	2.5003321170806885
58	256.18872117996216	pulse	1	t		56.0	2.5	/experiments/Knapen_AOT/AOT_stimuli/rescaled_final/2106_rv.mp4	0.0	272.8973937034607	
58	257.1051847934723	fix_post	2		12	56.0	2.5	/experiments/Knapen_AOT/AOT_stimuli/rescaled_final/2106_rv.mp4	0.0	273.8138573169708	0.10016584396362305
59	257.2053506374359	fix_pre	0		120	57.0	2.5	/experiments/Knapen_AOT/AOT_stimuli/rescaled_final/1036_rv.mp4	0.0	273.91402316093445	1.0083503723144531
59	257.7888126373291	pulse	0	t		57.0	2.5	/experiments/Knapen_AOT/AOT_stimuli/rescaled_final/1036_rv.mp4	0.0	274.49748516082764	
59	258.21370100975037	movie	1		264	57.0	2.5	/experiments/Knapen_AOT/AOT_stimuli/rescaled_final/1036_rv.mp4	0.0	274.9223735332489	2.4921152591705322
59	259.387512922287	pulse	1	t		57.0	2.5	/experiments/Knapen_AOT/AOT_stimuli/rescaled_final/1036_rv.mp4	0.0	276.0961854457855	
59	260.7058162689209	fix_post	2		12	57.0	2.5	/experiments/Knapen_AOT/AOT_stimuli/rescaled_final/1036_rv.mp4	0.0	277.41448879241943	0.09993743896484375
60	260.80575370788574	fix_pre	0		120	58.0	2.5	/experiments/Knapen_AOT/AOT_stimuli/rescaled_final/1445_fw.mp4	0.0	277.5144262313843	1.0085465908050537
60	260.9893682003021	pulse	0	t		58.0	2.5	/experiments/Knapen_AOT/AOT_stimuli/rescaled_final/1445_fw.mp4	0.0	277.69804072380066	
60	261.8143002986908	movie	1		273	58.0	2.5	/experiments/Knapen_AOT/AOT_stimuli/rescaled_final/1445_fw.mp4	0.0	278.52297282218933	2.4919893741607666
60	262.58767437934875	pulse	1	t		58.0	2.5	/experiments/Knapen_AOT/AOT_stimuli/rescaled_final/1445_fw.mp4	0.0	279.2963469028473	
60	264.1900396347046	pulse	1	t		58.0	2.5	/experiments/Knapen_AOT/AOT_stimuli/rescaled_final/1445_fw.mp4	0.0	280.8987121582031	
60	264.30628967285156	fix_post	2		12	58.0	2.5	/experiments/Knapen_AOT/AOT_stimuli/rescaled_final/1445_fw.mp4	0.0	281.0149621963501	0.10005545616149902
61	264.40634512901306	fix_pre	0		120	59.0	2.5	/experiments/Knapen_AOT/AOT_stimuli/rescaled_final/1435_rv.mp4	0.0	281.1150176525116	1.0084328651428223
61	265.4147779941559	movie	1		288	59.0	2.5	/experiments/Knapen_AOT/AOT_stimuli/rescaled_final/1435_rv.mp4	0.0	282.1234505176544	2.4920296669006348
61	265.7885241508484	pulse	1	t		59.0	2.5	/experiments/Knapen_AOT/AOT_stimuli/rescaled_final/1435_rv.mp4	0.0	282.4971966743469	
61	267.3881390094757	pulse	1	t		59.0	2.5	/experiments/Knapen_AOT/AOT_stimuli/rescaled_final/1435_rv.mp4	0.0	284.09681153297424	
61	267.9068076610565	fix_post	2		12	59.0	2.5	/experiments/Knapen_AOT/AOT_stimuli/rescaled_final/1435_rv.mp4	0.0	284.61548018455505	0.10002017021179199
62	268.0068278312683	fix_pre	0		119	60.0	2.5	/experiments/Knapen_AOT/AOT_stimuli/rescaled_final/1063_fw.mp4	0.0	284.71550035476685	1.0001749992370605
62	268.99066257476807	pulse	0	t		60.0	2.5	/experiments/Knapen_AOT/AOT_stimuli/rescaled_final/1063_fw.mp4	0.0	285.6993350982666	
62	269.00700283050537	movie	1		282	60.0	2.5	/experiments/Knapen_AOT/AOT_stimuli/rescaled_final/1063_fw.mp4	0.0	285.7156753540039	2.5003607273101807
62	270.58916211128235	pulse	1	t		60.0	2.5	/experiments/Knapen_AOT/AOT_stimuli/rescaled_final/1063_fw.mp4	0.0	287.2978346347809	
62	271.50736355781555	fix_post	2		12	60.0	2.5	/experiments/Knapen_AOT/AOT_stimuli/rescaled_final/1063_fw.mp4	0.0	288.2160360813141	0.10000824928283691
63	271.6073718070984	fix_pre	0		120	61.0	2.5	/experiments/Knapen_AOT/AOT_stimuli/rescaled_final/1047_rv.mp4	0.0	288.3160443305969	1.0085041522979736
63	272.1910135746002	pulse	0	t		61.0	2.5	/experiments/Knapen_AOT/AOT_stimuli/rescaled_final/1047_rv.mp4	0.0	288.89968609809875	
63	272.61587595939636	movie	1		270	61.0	2.5	/experiments/Knapen_AOT/AOT_stimuli/rescaled_final/1047_rv.mp4	0.0	289.3245484828949	2.4920578002929688
63	273.7895588874817	pulse	1	t		61.0	2.5	/experiments/Knapen_AOT/AOT_stimuli/rescaled_final/1047_rv.mp4	0.0	290.4982314109802	
63	275.10793375968933	fix_post	2		12	61.0	2.5	/experiments/Knapen_AOT/AOT_stimuli/rescaled_final/1047_rv.mp4	0.0	291.81660628318787	0.09998750686645508
64	275.2079212665558	fix_pre	0		120	62.0	2.5	blank	1.0	291.9165937900543	1.0001220703125
64	275.3915512561798	pulse	0	t		62.0	2.5	blank	1.0	292.10022377967834	
64	276.2080433368683	movie	1		300	62.0	2.5	blank	1.0	292.9167158603668	2.5003998279571533
64	276.99175333976746	pulse	1	t		62.0	2.5	blank	1.0	293.700425863266	
64	278.59207558631897	pulse	1	t		62.0	2.5	blank	1.0	295.3007481098175	
64	278.70844316482544	fix_post	2		12	62.0	2.5	blank	1.0	295.417115688324	0.10004734992980957
65	278.80849051475525	fix_pre	0		120	63.0	2.5	/experiments/Knapen_AOT/AOT_stimuli/rescaled_final/1464_rv.mp4	0.0	295.5171630382538	1.0084497928619385
65	279.8169403076172	movie	1		271	63.0	2.5	/experiments/Knapen_AOT/AOT_stimuli/rescaled_final/1464_rv.mp4	0.0	296.5256128311157	2.4920451641082764
65	280.1904504299164	pulse	1	t		63.0	2.5	/experiments/Knapen_AOT/AOT_stimuli/rescaled_final/1464_rv.mp4	0.0	296.8991229534149	
65	281.7904689311981	pulse	1	t		63.0	2.5	/experiments/Knapen_AOT/AOT_stimuli/rescaled_final/1464_rv.mp4	0.0	298.49914145469666	
65	282.30898547172546	fix_post	2		12	63.0	2.5	/experiments/Knapen_AOT/AOT_stimuli/rescaled_final/1464_rv.mp4	0.0	299.017657995224	0.1000525951385498
66	282.409038066864	fix_pre	0		119	64.0	2.5	/experiments/Knapen_AOT/AOT_stimuli/rescaled_final/0176_rv.mp4	0.0	299.11771059036255	1.0001466274261475
66	283.39277362823486	pulse	0	t		64.0	2.5	/experiments/Knapen_AOT/AOT_stimuli/rescaled_final/0176_rv.mp4	0.0	300.1014461517334	
66	283.40918469429016	movie	1		265	64.0	2.5	/experiments/Knapen_AOT/AOT_stimuli/rescaled_final/0176_rv.mp4	0.0	300.1178572177887	2.5004401206970215
66	284.9922468662262	pulse	1	t		64.0	2.5	/experiments/Knapen_AOT/AOT_stimuli/rescaled_final/0176_rv.mp4	0.0	301.70091938972473	
66	285.9096248149872	fix_post	2		12	64.0	2.5	/experiments/Knapen_AOT/AOT_stimuli/rescaled_final/0176_rv.mp4	0.0	302.6182973384857	0.09991955757141113
67	286.0095443725586	fix_pre	0		120	65.0	2.5	/experiments/Knapen_AOT/AOT_stimuli/rescaled_final/1089_fw.mp4	0.0	302.71821689605713	1.008507251739502
67	286.5931935310364	pulse	0	t		65.0	2.5	/experiments/Knapen_AOT/AOT_stimuli/rescaled_final/1089_fw.mp4	0.0	303.3018660545349	
67	287.0180516242981	movie	1		273	65.0	2.5	/experiments/Knapen_AOT/AOT_stimuli/rescaled_final/1089_fw.mp4	0.0	303.72672414779663	2.4920847415924072
67	288.1912896633148	pulse	1	t		65.0	2.5	/experiments/Knapen_AOT/AOT_stimuli/rescaled_final/1089_fw.mp4	0.0	304.89996218681335	
67	289.5101363658905	fix_post	2		12	65.0	2.5	/experiments/Knapen_AOT/AOT_stimuli/rescaled_final/1089_fw.mp4	0.0	306.21880888938904	0.09990692138671875
68	289.6100432872772	fix_pre	0		120	66.0	2.5	/experiments/Knapen_AOT/AOT_stimuli/rescaled_final/0567_fw.mp4	0.0	306.31871581077576	1.0085556507110596
68	289.7936956882477	pulse	0	t		66.0	2.5	/experiments/Knapen_AOT/AOT_stimuli/rescaled_final/0567_fw.mp4	0.0	306.5023682117462	
68	290.6185989379883	movie	1		271	66.0	2.5	/experiments/Knapen_AOT/AOT_stimuli/rescaled_final/0567_fw.mp4	0.0	307.3272714614868	2.492034435272217
68	291.3923316001892	pulse	1	t		66.0	2.5	/experiments/Knapen_AOT/AOT_stimuli/rescaled_final/0567_fw.mp4	0.0	308.10100412368774	
68	292.9932074546814	pulse	1	t		66.0	2.5	/experiments/Knapen_AOT/AOT_stimuli/rescaled_final/0567_fw.mp4	0.0	309.70187997817993	
68	293.1106333732605	fix_post	2		12	66.0	2.5	/experiments/Knapen_AOT/AOT_stimuli/rescaled_final/0567_fw.mp4	0.0	309.81930589675903	0.09999394416809082
69	293.2106273174286	fix_pre	0		120	67.0	2.5	/experiments/Knapen_AOT/AOT_stimuli/rescaled_final/1047_fw.mp4	0.0	309.9192998409271	1.0085477828979492
69	294.21917510032654	movie	1		264	67.0	2.5	/experiments/Knapen_AOT/AOT_stimuli/rescaled_final/1047_fw.mp4	0.0	310.9278476238251	2.491976499557495
69	294.59311056137085	pulse	1	t		67.0	2.5	/experiments/Knapen_AOT/AOT_stimuli/rescaled_final/1047_fw.mp4	0.0	311.3017830848694	
69	296.1865322589874	pulse	1	t		67.0	2.5	/experiments/Knapen_AOT/AOT_stimuli/rescaled_final/1047_fw.mp4	0.0	312.89520478248596	
69	296.71115159988403	fix_post	2		12	67.0	2.5	/experiments/Knapen_AOT/AOT_stimuli/rescaled_final/1047_fw.mp4	0.0	313.41982412338257	0.1000204086303711
70	296.8111720085144	fix_pre	0		118	68.0	2.5	blank	1.0	313.51984453201294	0.9834468364715576
70	297.7865662574768	pulse	0	t		68.0	2.5	blank	1.0	314.49523878097534	
70	297.79461884498596	movie	1		301	68.0	2.5	blank	1.0	314.5032913684845	2.5087575912475586
70	299.3870348930359	pulse	1	t		68.0	2.5	blank	1.0	316.0957074165344	
70	300.3033764362335	fix_post	2		12	68.0	2.5	blank	1.0	317.01204895973206	0.09999585151672363
71	300.40337228775024	fix_pre	0		120	69.0	2.5	/experiments/Knapen_AOT/AOT_stimuli/rescaled_final/0974_rv.mp4	0.0	317.1120448112488	1.0085108280181885
71	300.9870524406433	pulse	0	t		69.0	2.5	/experiments/Knapen_AOT/AOT_stimuli/rescaled_final/0974_rv.mp4	0.0	317.69572496414185	
71	301.41188311576843	movie	1		261	69.0	2.5	/experiments/Knapen_AOT/AOT_stimuli/rescaled_final/0974_rv.mp4	0.0	318.12055563926697	2.492018699645996
71	302.5865225791931	pulse	1	t		69.0	2.5	/experiments/Knapen_AOT/AOT_stimuli/rescaled_final/0974_rv.mp4	0.0	319.29519510269165	
71	303.90390181541443	fix_post	2		12	69.0	2.5	/experiments/Knapen_AOT/AOT_stimuli/rescaled_final/0974_rv.mp4	0.0	320.61257433891296	0.1000208854675293
72	304.00392270088196	fix_pre	0		120	70.0	2.5	/experiments/Knapen_AOT/AOT_stimuli/rescaled_final/1130_fw.mp4	0.0	320.7125952243805	1.008518934249878
72	304.18748927116394	pulse	0	t		70.0	2.5	/experiments/Knapen_AOT/AOT_stimuli/rescaled_final/1130_fw.mp4	0.0	320.8961617946625	
72	305.01244163513184	movie	1		285	70.0	2.5	/experiments/Knapen_AOT/AOT_stimuli/rescaled_final/1130_fw.mp4	0.0	321.72111415863037	2.491997480392456
72	305.78638219833374	pulse	1	t		70.0	2.5	/experiments/Knapen_AOT/AOT_stimuli/rescaled_final/1130_fw.mp4	0.0	322.4950547218323	
72	307.3863260746002	pulse	1	t		70.0	2.5	/experiments/Knapen_AOT/AOT_stimuli/rescaled_final/1130_fw.mp4	0.0	324.09499859809875	
72	307.5044391155243	fix_post	2		12	70.0	2.5	/experiments/Knapen_AOT/AOT_stimuli/rescaled_final/1130_fw.mp4	0.0	324.2131116390228	0.10003232955932617
73	307.6044714450836	fix_pre	0		120	71.0	2.5	/experiments/Knapen_AOT/AOT_stimuli/rescaled_final/1484_fw.mp4	0.0	324.31314396858215	1.0085413455963135
73	308.61301279067993	movie	1		278	71.0	2.5	/experiments/Knapen_AOT/AOT_stimuli/rescaled_final/1484_fw.mp4	0.0	325.32168531417847	2.4919791221618652
73	308.9870505332947	pulse	1	t		71.0	2.5	/experiments/Knapen_AOT/AOT_stimuli/rescaled_final/1484_fw.mp4	0.0	325.6957230567932	
73	310.5872507095337	pulse	1	t		71.0	2.5	/experiments/Knapen_AOT/AOT_stimuli/rescaled_final/1484_fw.mp4	0.0	327.2959232330322	
73	311.1049919128418	fix_post	2		12	71.0	2.5	/experiments/Knapen_AOT/AOT_stimuli/rescaled_final/1484_fw.mp4	0.0	327.81366443634033	0.10004210472106934
74	311.20503401756287	fix_pre	0		119	72.0	2.5	/experiments/Knapen_AOT/AOT_stimuli/rescaled_final/0687_fw.mp4	0.0	327.9137065410614	1.0085821151733398
74	312.1887149810791	pulse	0	t		72.0	2.5	/experiments/Knapen_AOT/AOT_stimuli/rescaled_final/0687_fw.mp4	0.0	328.89738750457764	
74	312.2136161327362	movie	1		285	72.0	2.5	/experiments/Knapen_AOT/AOT_stimuli/rescaled_final/0687_fw.mp4	0.0	328.92228865623474	2.491908550262451
74	313.78822803497314	pulse	1	t		72.0	2.5	/experiments/Knapen_AOT/AOT_stimuli/rescaled_final/0687_fw.mp4	0.0	330.4969005584717	
74	314.70552468299866	fix_post	2		12	72.0	2.5	/experiments/Knapen_AOT/AOT_stimuli/rescaled_final/0687_fw.mp4	0.0	331.4141972064972	0.10002446174621582
75	314.8055491447449	fix_pre	0		120	73.0	2.5	/experiments/Knapen_AOT/AOT_stimuli/rescaled_final/1371_rv.mp4	0.0	331.5142216682434	1.0085208415985107
75	315.3892388343811	pulse	0	t		73.0	2.5	/experiments/Knapen_AOT/AOT_stimuli/rescaled_final/1371_rv.mp4	0.0	332.09791135787964	
75	315.8140699863434	movie	1		272	73.0	2.5	/experiments/Knapen_AOT/AOT_stimuli/rescaled_final/1371_rv.mp4	0.0	332.5227425098419	2.4920122623443604
75	316.9882559776306	pulse	1	t		73.0	2.5	/experiments/Knapen_AOT/AOT_stimuli/rescaled_final/1371_rv.mp4	0.0	333.69692850112915	
75	318.30608224868774	fix_post	2		12	73.0	2.5	/experiments/Knapen_AOT/AOT_stimuli/rescaled_final/1371_rv.mp4	0.0	335.0147547721863	0.10003423690795898
76	318.4061164855957	fix_pre	0		120	74.0	2.5	/experiments/Knapen_AOT/AOT_stimuli/rescaled_final/1125_fw.mp4	0.0	335.11478900909424	1.0084295272827148
76	318.5896728038788	pulse	0	t		74.0	2.5	/experiments/Knapen_AOT/AOT_stimuli/rescaled_final/1125_fw.mp4	0.0	335.2983453273773	
76	319.4145460128784	movie	1		278	74.0	2.5	/experiments/Knapen_AOT/AOT_stimuli/rescaled_final/1125_fw.mp4	0.0	336.12321853637695	2.4920639991760254
76	320.1876766681671	pulse	1	t		74.0	2.5	/experiments/Knapen_AOT/AOT_stimuli/rescaled_final/1125_fw.mp4	0.0	336.89634919166565	
76	321.788777589798	pulse	1	t		74.0	2.5	/experiments/Knapen_AOT/AOT_stimuli/rescaled_final/1125_fw.mp4	0.0	338.4974501132965	
76	321.90661001205444	fix_post	2		12	74.0	2.5	/experiments/Knapen_AOT/AOT_stimuli/rescaled_final/1125_fw.mp4	0.0	338.615282535553	0.1000218391418457
77	322.0066318511963	fix_pre	0		120	75.0	2.5	/experiments/Knapen_AOT/AOT_stimuli/rescaled_final/1025_rv.mp4	0.0	338.7153043746948	1.008491039276123
77	323.0151228904724	movie	1		278	75.0	2.5	/experiments/Knapen_AOT/AOT_stimuli/rescaled_final/1025_rv.mp4	0.0	339.72379541397095	2.4920504093170166
77	323.38923597335815	pulse	1	t		75.0	2.5	/experiments/Knapen_AOT/AOT_stimuli/rescaled_final/1025_rv.mp4	0.0	340.0979084968567	
77	324.9893870353699	pulse	1	t		75.0	2.5	/experiments/Knapen_AOT/AOT_stimuli/rescaled_final/1025_rv.mp4	0.0	341.6980595588684	
77	325.50717329978943	fix_post	2		12	75.0	2.5	/experiments/Knapen_AOT/AOT_stimuli/rescaled_final/1025_rv.mp4	0.0	342.21584582328796	0.09999370574951172
78	325.60716700553894	fix_pre	0		119	76.0	2.5	blank	1.0	342.3158395290375	0.9917850494384766
78	326.59077525138855	pulse	0	t		76.0	2.5	blank	1.0	343.2994477748871	
78	326.5989520549774	movie	1		301	76.0	2.5	blank	1.0	343.30762457847595	2.5087335109710693
78	328.191189289093	pulse	1	t		76.0	2.5	blank	1.0	344.89986181259155	
78	329.1076855659485	fix_post	2		12	76.0	2.5	blank	1.0	345.816358089447	0.10000753402709961
79	329.2076930999756	fix_pre	0		120	77.0	2.5	/experiments/Knapen_AOT/AOT_stimuli/rescaled_final/1093_fw.mp4	0.0	345.9163656234741	1.0085055828094482
79	329.7914102077484	pulse	0	t		77.0	2.5	/experiments/Knapen_AOT/AOT_stimuli/rescaled_final/1093_fw.mp4	0.0	346.50008273124695	
79	330.21619868278503	movie	1		276	77.0	2.5	/experiments/Knapen_AOT/AOT_stimuli/rescaled_final/1093_fw.mp4	0.0	346.92487120628357	2.4920618534088135
79	331.3902916908264	pulse	1	t		77.0	2.5	/experiments/Knapen_AOT/AOT_stimuli/rescaled_final/1093_fw.mp4	0.0	348.09896421432495	
79	332.70826053619385	fix_post	2		12	77.0	2.5	/experiments/Knapen_AOT/AOT_stimuli/rescaled_final/1093_fw.mp4	0.0	349.4169330596924	0.09998226165771484
80	332.80824279785156	fix_pre	0		119	78.0	2.5	/experiments/Knapen_AOT/AOT_stimuli/rescaled_final/1753_fw.mp4	0.0	349.5169153213501	1.0085039138793945
80	332.9918460845947	pulse	0	t		78.0	2.5	/experiments/Knapen_AOT/AOT_stimuli/rescaled_final/1753_fw.mp4	0.0	349.70051860809326	
80	333.81674671173096	movie	1		278	78.0	2.5	/experiments/Knapen_AOT/AOT_stimuli/rescaled_final/1753_fw.mp4	0.0	350.5254192352295	2.492032766342163
80	334.59052181243896	pulse	1	t		78.0	2.5	/experiments/Knapen_AOT/AOT_stimuli/rescaled_final/1753_fw.mp4	0.0	351.2991943359375	
80	336.1926465034485	pulse	1	t		78.0	2.5	/experiments/Knapen_AOT/AOT_stimuli/rescaled_final/1753_fw.mp4	0.0	352.901319026947	
80	336.3087794780731	fix_post	2		12	78.0	2.5	/experiments/Knapen_AOT/AOT_stimuli/rescaled_final/1753_fw.mp4	0.0	353.01745200157166	0.09999465942382812
81	336.40877413749695	fix_pre	0		120	79.0	2.5	/experiments/Knapen_AOT/AOT_stimuli/rescaled_final/1812_fw.mp4	0.0	353.1174466609955	1.008518934249878
81	337.4172930717468	movie	1		265	79.0	2.5	/experiments/Knapen_AOT/AOT_stimuli/rescaled_final/1812_fw.mp4	0.0	354.12596559524536	2.4920530319213867
81	337.79269647598267	pulse	1	t		79.0	2.5	/experiments/Knapen_AOT/AOT_stimuli/rescaled_final/1812_fw.mp4	0.0	354.5013689994812	
81	339.3912696838379	pulse	1	t		79.0	2.5	/experiments/Knapen_AOT/AOT_stimuli/rescaled_final/1812_fw.mp4	0.0	356.0999422073364	
81	339.9093461036682	fix_post	2		12	79.0	2.5	/experiments/Knapen_AOT/AOT_stimuli/rescaled_final/1812_fw.mp4	0.0	356.61801862716675	0.09998869895935059
82	340.00933480262756	fix_pre	0		119	80.0	2.5	/experiments/Knapen_AOT/AOT_stimuli/rescaled_final/0041_fw.mp4	0.0	356.7180073261261	1.0001420974731445
82	340.9930212497711	pulse	0	t		80.0	2.5	/experiments/Knapen_AOT/AOT_stimuli/rescaled_final/0041_fw.mp4	0.0	357.70169377326965	
82	341.0094769001007	movie	1		271	80.0	2.5	/experiments/Knapen_AOT/AOT_stimuli/rescaled_final/0041_fw.mp4	0.0	357.71814942359924	2.5003676414489746
82	342.59195828437805	pulse	1	t		80.0	2.5	/experiments/Knapen_AOT/AOT_stimuli/rescaled_final/0041_fw.mp4	0.0	359.3006308078766	
82	343.5098445415497	fix_post	2		12	80.0	2.5	/experiments/Knapen_AOT/AOT_stimuli/rescaled_final/0041_fw.mp4	0.0	360.2185170650482	0.10006141662597656
83	343.60990595817566	fix_pre	0		120	81.0	2.5	/experiments/Knapen_AOT/AOT_stimuli/rescaled_final/0176_fw.mp4	0.0	360.3185784816742	1.008498191833496
83	344.18664288520813	pulse	0	t		81.0	2.5	/experiments/Knapen_AOT/AOT_stimuli/rescaled_final/0176_fw.mp4	0.0	360.89531540870667	
83	344.61840415000916	movie	1		260	81.0	2.5	/experiments/Knapen_AOT/AOT_stimuli/rescaled_final/0176_fw.mp4	0.0	361.3270766735077	2.4920105934143066
83	345.79233050346375	pulse	1	t		81.0	2.5	/experiments/Knapen_AOT/AOT_stimuli/rescaled_final/0176_fw.mp4	0.0	362.5010030269623	
83	347.11041474342346	fix_post	2		12	81.0	2.5	/experiments/Knapen_AOT/AOT_stimuli/rescaled_final/0176_fw.mp4	0.0	363.819087266922	0.10001540184020996
84	347.2104301452637	fix_pre	0		120	82.0	2.5	blank	1.0	363.9191026687622	1.0001988410949707
84	347.3857886791229	pulse	0	t		82.0	2.5	blank	1.0	364.09446120262146	
84	348.21062898635864	movie	1		300	82.0	2.5	blank	1.0	364.9193015098572	2.5002946853637695
84	348.98592591285706	pulse	1	t		82.0	2.5	blank	1.0	365.6945984363556	
84	350.58637022972107	pulse	1	t		82.0	2.5	blank	1.0	367.2950427532196	
84	350.7109236717224	fix_post	2		12	82.0	2.5	blank	1.0	367.41959619522095	0.1000204086303711
85	350.8109440803528	fix_pre	0		120	83.0	2.5	/experiments/Knapen_AOT/AOT_stimuli/rescaled_final/1089_rv.mp4	0.0	367.5196166038513	1.0084812641143799
85	351.81942534446716	movie	1		262	83.0	2.5	/experiments/Knapen_AOT/AOT_stimuli/rescaled_final/1089_rv.mp4	0.0	368.5280978679657	2.4920716285705566
85	352.18639755249023	pulse	1	t		83.0	2.5	/experiments/Knapen_AOT/AOT_stimuli/rescaled_final/1089_rv.mp4	0.0	368.89507007598877	
85	353.7866327762604	pulse	1	t		83.0	2.5	/experiments/Knapen_AOT/AOT_stimuli/rescaled_final/1089_rv.mp4	0.0	370.4953052997589	
85	354.3114969730377	fix_post	2		12	83.0	2.5	/experiments/Knapen_AOT/AOT_stimuli/rescaled_final/1089_rv.mp4	0.0	371.02016949653625	0.10001802444458008
87	354.4115149974823	stim	0		1715					371.12018752098083	14.2937753200531
87	355.3868417739868	pulse	0	t						372.09551429748535	
87	356.9871702194214	pulse	0	t						373.6958427429199	
87	358.5874788761139	pulse	0	t						375.2961513996124	
87	360.18771386146545	pulse	0	t						376.896386384964	
87	361.7881245613098	pulse	0	t						378.49679708480835	
87	363.38802695274353	pulse	0	t						380.09669947624207	
87	364.98844051361084	pulse	0	t						381.6971130371094	
87	366.5885925292969	pulse	0	t						383.2972650527954	
87	368.18893122673035	pulse	0	t						384.8976037502289	
