trial_nr	onset	event_type	phase	response	nr_frames	movie_index	movie_duration	movie_file	blank	onset_abs	duration
0	0.20818305015563965	stim	0		71					19.4129581451416	0.5916450023651123
0	0.7845249176025391	response	0	space						19.9893000125885	
1	0.799828052520752	stim	0		4273					20.004603147506714	35.62574601173401
1	36.41039705276489	pulse	0	t						55.615172147750854	
1	36.42557406425476	stim	1		1715					55.63034915924072	14.298364877700806
1	38.00555205345154	pulse	1	t						57.2103271484375	
1	39.60594296455383	pulse	1	t						58.810718059539795	
1	41.206053018569946	pulse	1	t						60.41082811355591	
1	42.806257009506226	pulse	1	t						62.01103210449219	
1	44.40654802322388	pulse	1	t						63.61132311820984	
1	46.00682210922241	pulse	1	t						65.21159720420837	
1	47.60706901550293	pulse	1	t						66.81184411048889	
1	49.207152128219604	pulse	1	t						68.41192722320557	
2	50.723938941955566	fix_pre	0		11	0.0	2.5	/experiments/knapen_AOT/AOT_stimuli/rescaled_final/1406_fw.mp4	0.0	69.92871403694153	0.0916910171508789
2	50.80752396583557	pulse	0	t		0.0	2.5	/experiments/knapen_AOT/AOT_stimuli/rescaled_final/1406_fw.mp4	0.0	70.01229906082153	
2	50.815629959106445	movie	1		242	0.0	2.5	/experiments/knapen_AOT/AOT_stimuli/rescaled_final/1406_fw.mp4	0.0	70.02040505409241	2.5088400840759277
2	52.41158890724182	pulse	1	t		0.0	2.5	/experiments/knapen_AOT/AOT_stimuli/rescaled_final/1406_fw.mp4	0.0	71.61636400222778	
2	53.32447004318237	fix_post	2		12	0.0	2.5	/experiments/knapen_AOT/AOT_stimuli/rescaled_final/1406_fw.mp4	0.0	72.52924513816833	0.09995007514953613
3	53.42442011833191	fix_pre	0		120	1.0	2.5	/experiments/knapen_AOT/AOT_stimuli/rescaled_final/1402_fw.mp4	0.0	72.62919521331787	1.0000979900360107
3	54.00809693336487	pulse	0	t		1.0	2.5	/experiments/knapen_AOT/AOT_stimuli/rescaled_final/1402_fw.mp4	0.0	73.21287202835083	
3	54.42451810836792	movie	1		242	1.0	2.5	/experiments/knapen_AOT/AOT_stimuli/rescaled_final/1402_fw.mp4	0.0	73.62929320335388	2.5005548000335693
3	55.608312129974365	pulse	1	t		1.0	2.5	/experiments/knapen_AOT/AOT_stimuli/rescaled_final/1402_fw.mp4	0.0	74.81308722496033	
3	56.92507290840149	fix_post	2		12	1.0	2.5	/experiments/knapen_AOT/AOT_stimuli/rescaled_final/1402_fw.mp4	0.0	76.12984800338745	0.0998539924621582
4	57.02492690086365	fix_pre	0		120	2.0	2.5	/experiments/knapen_AOT/AOT_stimuli/rescaled_final/1349_rv.mp4	0.0	76.22970199584961	1.0002031326293945
4	57.20843005180359	pulse	0	t		2.0	2.5	/experiments/knapen_AOT/AOT_stimuli/rescaled_final/1349_rv.mp4	0.0	76.41320514678955	
4	58.02513003349304	movie	1		242	2.0	2.5	/experiments/knapen_AOT/AOT_stimuli/rescaled_final/1349_rv.mp4	0.0	77.229905128479	2.500427007675171
4	58.808737993240356	pulse	1	t		2.0	2.5	/experiments/knapen_AOT/AOT_stimuli/rescaled_final/1349_rv.mp4	0.0	78.01351308822632	
4	60.4089241027832	pulse	1	t		2.0	2.5	/experiments/knapen_AOT/AOT_stimuli/rescaled_final/1349_rv.mp4	0.0	79.61369919776917	
4	60.52555704116821	fix_post	2		12	2.0	2.5	/experiments/knapen_AOT/AOT_stimuli/rescaled_final/1349_rv.mp4	0.0	79.73033213615417	0.0999910831451416
5	60.625548124313354	fix_pre	0		120	3.0	2.5	/experiments/knapen_AOT/AOT_stimuli/rescaled_final/0703_rv.mp4	0.0	79.83032321929932	1.0000479221343994
5	61.625596046447754	movie	1		242	3.0	2.5	/experiments/knapen_AOT/AOT_stimuli/rescaled_final/0703_rv.mp4	0.0	80.83037114143372	2.4921960830688477
5	62.009692907333374	pulse	1	t		3.0	2.5	/experiments/knapen_AOT/AOT_stimuli/rescaled_final/0703_rv.mp4	0.0	81.21446800231934	
5	63.60936498641968	pulse	1	t		3.0	2.5	/experiments/knapen_AOT/AOT_stimuli/rescaled_final/0703_rv.mp4	0.0	82.81414008140564	
5	64.1177921295166	fix_post	2		12	3.0	2.5	/experiments/knapen_AOT/AOT_stimuli/rescaled_final/0703_rv.mp4	0.0	83.32256722450256	0.09985089302062988
6	64.21764302253723	fix_pre	0		120	4.0	2.5	/experiments/knapen_AOT/AOT_stimuli/rescaled_final/1711_rv.mp4	0.0	83.4224181175232	1.0001399517059326
6	65.20976305007935	pulse	0	t		4.0	2.5	/experiments/knapen_AOT/AOT_stimuli/rescaled_final/1711_rv.mp4	0.0	84.41453814506531	
6	65.21778297424316	movie	1		243	4.0	2.5	/experiments/knapen_AOT/AOT_stimuli/rescaled_final/1711_rv.mp4	0.0	84.42255806922913	2.508819103240967
6	66.81043004989624	pulse	1	t		4.0	2.5	/experiments/knapen_AOT/AOT_stimuli/rescaled_final/1711_rv.mp4	0.0	86.0152051448822	
6	67.72660207748413	fix_post	2		12	4.0	2.5	/experiments/knapen_AOT/AOT_stimuli/rescaled_final/1711_rv.mp4	0.0	86.93137717247009	0.09994196891784668
7	67.82654404640198	fix_pre	0		120	5.0	2.5	/experiments/knapen_AOT/AOT_stimuli/rescaled_final/0660_rv.mp4	0.0	87.03131914138794	1.0001270771026611
7	68.41016912460327	pulse	0	t		5.0	2.5	/experiments/knapen_AOT/AOT_stimuli/rescaled_final/0660_rv.mp4	0.0	87.61494421958923	
7	68.82667112350464	movie	1		242	5.0	2.5	/experiments/knapen_AOT/AOT_stimuli/rescaled_final/0660_rv.mp4	0.0	88.0314462184906	2.5004630088806152
7	70.01043605804443	pulse	1	t		5.0	2.5	/experiments/knapen_AOT/AOT_stimuli/rescaled_final/0660_rv.mp4	0.0	89.2152111530304	
7	71.32713413238525	fix_post	2		12	5.0	2.5	/experiments/knapen_AOT/AOT_stimuli/rescaled_final/0660_rv.mp4	0.0	90.53190922737122	0.09991693496704102
8	71.4270510673523	fix_pre	0		116	6.0	2.5	/experiments/knapen_AOT/AOT_stimuli/rescaled_final/1558_fw.mp4	0.0	90.63182616233826	1.0001468658447266
8	71.61071801185608	pulse	0	t		6.0	2.5	/experiments/knapen_AOT/AOT_stimuli/rescaled_final/1558_fw.mp4	0.0	90.81549310684204	
8	72.42719793319702	movie	1		243	6.0	2.5	/experiments/knapen_AOT/AOT_stimuli/rescaled_final/1558_fw.mp4	0.0	91.63197302818298	2.5005171298980713
8	73.21093392372131	pulse	1	t		6.0	2.5	/experiments/knapen_AOT/AOT_stimuli/rescaled_final/1558_fw.mp4	0.0	92.41570901870728	
8	74.81110906600952	pulse	1	t		6.0	2.5	/experiments/knapen_AOT/AOT_stimuli/rescaled_final/1558_fw.mp4	0.0	94.01588416099548	
8	74.92771506309509	fix_post	2		12	6.0	2.5	/experiments/knapen_AOT/AOT_stimuli/rescaled_final/1558_fw.mp4	0.0	94.13249015808105	0.09985995292663574
9	75.02757501602173	fix_pre	0		120	7.0	2.5	blank	1.0	94.23235011100769	1.0001978874206543
9	76.02777290344238	movie	1		299	7.0	2.5	blank	1.0	95.23254799842834	2.492047071456909
9	76.41137099266052	pulse	1	t		7.0	2.5	blank	1.0	95.61614608764648	
9	78.01156997680664	pulse	1	t		7.0	2.5	blank	1.0	97.2163450717926	
9	78.51981997489929	fix_post	2		12	7.0	2.5	blank	1.0	97.72459506988525	0.10000300407409668
10	78.61982297897339	fix_pre	0		120	8.0	2.5	/experiments/knapen_AOT/AOT_stimuli/rescaled_final/0695_rv.mp4	0.0	97.82459807395935	1.0001411437988281
10	79.61185908317566	pulse	0	t		8.0	2.5	/experiments/knapen_AOT/AOT_stimuli/rescaled_final/0695_rv.mp4	0.0	98.81663417816162	
10	79.61996412277222	movie	1		244	8.0	2.5	/experiments/knapen_AOT/AOT_stimuli/rescaled_final/0695_rv.mp4	0.0	98.82473921775818	2.5087459087371826
10	81.21248006820679	pulse	1	t		8.0	2.5	/experiments/knapen_AOT/AOT_stimuli/rescaled_final/0695_rv.mp4	0.0	100.41725516319275	
10	82.1287100315094	fix_post	2		12	8.0	2.5	/experiments/knapen_AOT/AOT_stimuli/rescaled_final/0695_rv.mp4	0.0	101.33348512649536	0.10000991821289062
11	82.22871994972229	fix_pre	0		120	9.0	2.5	/experiments/knapen_AOT/AOT_stimuli/rescaled_final/2073_fw.mp4	0.0	101.43349504470825	1.0001330375671387
11	82.8048300743103	pulse	0	t		9.0	2.5	/experiments/knapen_AOT/AOT_stimuli/rescaled_final/2073_fw.mp4	0.0	102.00960516929626	
11	83.22885298728943	movie	1		243	9.0	2.5	/experiments/knapen_AOT/AOT_stimuli/rescaled_final/2073_fw.mp4	0.0	102.43362808227539	2.5003819465637207
11	84.40863609313965	pulse	1	t		9.0	2.5	/experiments/knapen_AOT/AOT_stimuli/rescaled_final/2073_fw.mp4	0.0	103.61341118812561	
11	85.72923493385315	fix_post	2		12	9.0	2.5	/experiments/knapen_AOT/AOT_stimuli/rescaled_final/2073_fw.mp4	0.0	104.93401002883911	0.09993910789489746
12	85.82917404174805	fix_pre	0		120	10.0	2.5	/experiments/knapen_AOT/AOT_stimuli/rescaled_final/2002_fw.mp4	0.0	105.03394913673401	1.0001740455627441
12	86.00517106056213	pulse	0	t		10.0	2.5	/experiments/knapen_AOT/AOT_stimuli/rescaled_final/2002_fw.mp4	0.0	105.2099461555481	
12	86.82934808731079	movie	1		243	10.0	2.5	/experiments/knapen_AOT/AOT_stimuli/rescaled_final/2002_fw.mp4	0.0	106.03412318229675	2.500396966934204
12	87.6047830581665	pulse	1	t		10.0	2.5	/experiments/knapen_AOT/AOT_stimuli/rescaled_final/2002_fw.mp4	0.0	106.80955815315247	
12	89.20484900474548	pulse	1	t		10.0	2.5	/experiments/knapen_AOT/AOT_stimuli/rescaled_final/2002_fw.mp4	0.0	108.40962409973145	
12	89.329745054245	fix_post	2		12	10.0	2.5	/experiments/knapen_AOT/AOT_stimuli/rescaled_final/2002_fw.mp4	0.0	108.53452014923096	0.10004997253417969
13	89.42979502677917	fix_pre	0		120	11.0	2.5	/experiments/knapen_AOT/AOT_stimuli/rescaled_final/1099_fw.mp4	0.0	108.63457012176514	1.0001060962677002
13	90.42990112304688	movie	1		242	11.0	2.5	/experiments/knapen_AOT/AOT_stimuli/rescaled_final/1099_fw.mp4	0.0	109.63467621803284	2.49216890335083
13	90.80511999130249	pulse	1	t		11.0	2.5	/experiments/knapen_AOT/AOT_stimuli/rescaled_final/1099_fw.mp4	0.0	110.00989508628845	
13	92.40542912483215	pulse	1	t		11.0	2.5	/experiments/knapen_AOT/AOT_stimuli/rescaled_final/1099_fw.mp4	0.0	111.61020421981812	
13	92.9220700263977	fix_post	2		12	11.0	2.5	/experiments/knapen_AOT/AOT_stimuli/rescaled_final/1099_fw.mp4	0.0	112.12684512138367	0.09989809989929199
14	93.021968126297	fix_pre	0		119	12.0	2.5	/experiments/knapen_AOT/AOT_stimuli/rescaled_final/1743_fw.mp4	0.0	112.22674322128296	0.991797924041748
14	94.00562191009521	pulse	0	t		12.0	2.5	/experiments/knapen_AOT/AOT_stimuli/rescaled_final/1743_fw.mp4	0.0	113.21039700508118	
14	94.01376605033875	movie	1		243	12.0	2.5	/experiments/knapen_AOT/AOT_stimuli/rescaled_final/1743_fw.mp4	0.0	113.2185411453247	2.5087549686431885
14	95.60674691200256	pulse	1	t		12.0	2.5	/experiments/knapen_AOT/AOT_stimuli/rescaled_final/1743_fw.mp4	0.0	114.81152200698853	
14	96.52252101898193	fix_post	2		12	12.0	2.5	/experiments/knapen_AOT/AOT_stimuli/rescaled_final/1743_fw.mp4	0.0	115.7272961139679	0.0999600887298584
15	96.62248110771179	fix_pre	0		120	13.0	2.5	blank	1.0	115.82725620269775	1.0002248287200928
15	97.20619797706604	pulse	0	t		13.0	2.5	blank	1.0	116.410973072052	
15	97.62270593643188	movie	1		300	13.0	2.5	blank	1.0	116.82748103141785	2.5003490447998047
15	98.8062949180603	pulse	1	t		13.0	2.5	blank	1.0	118.01107001304626	
15	100.12305498123169	fix_post	2		12	13.0	2.5	blank	1.0	119.32783007621765	0.10002493858337402
16	100.22307991981506	fix_pre	0		120	14.0	2.5	/experiments/knapen_AOT/AOT_stimuli/rescaled_final/0135_fw.mp4	0.0	119.42785501480103	1.0000851154327393
16	100.40655994415283	pulse	0	t		14.0	2.5	/experiments/knapen_AOT/AOT_stimuli/rescaled_final/0135_fw.mp4	0.0	119.6113350391388	
16	101.2231650352478	movie	1		242	14.0	2.5	/experiments/knapen_AOT/AOT_stimuli/rescaled_final/0135_fw.mp4	0.0	120.42794013023376	2.500498056411743
16	102.00687503814697	pulse	1	t		14.0	2.5	/experiments/knapen_AOT/AOT_stimuli/rescaled_final/0135_fw.mp4	0.0	121.21165013313293	
16	103.6071629524231	pulse	1	t		14.0	2.5	/experiments/knapen_AOT/AOT_stimuli/rescaled_final/0135_fw.mp4	0.0	122.81193804740906	
16	103.72366309165955	fix_post	2		12	14.0	2.5	/experiments/knapen_AOT/AOT_stimuli/rescaled_final/0135_fw.mp4	0.0	122.92843818664551	0.09991002082824707
17	103.8235731124878	fix_pre	0		120	15.0	2.5	/experiments/knapen_AOT/AOT_stimuli/rescaled_final/1321_rv.mp4	0.0	123.02834820747375	1.0001189708709717
17	104.82369208335876	movie	1		242	15.0	2.5	/experiments/knapen_AOT/AOT_stimuli/rescaled_final/1321_rv.mp4	0.0	124.02846717834473	2.492141008377075
17	105.21229004859924	pulse	1	t		15.0	2.5	/experiments/knapen_AOT/AOT_stimuli/rescaled_final/1321_rv.mp4	0.0	124.4170651435852	
17	106.80752396583557	pulse	1	t		15.0	2.5	/experiments/knapen_AOT/AOT_stimuli/rescaled_final/1321_rv.mp4	0.0	126.01229906082153	
17	107.31583309173584	fix_post	2		12	15.0	2.5	/experiments/knapen_AOT/AOT_stimuli/rescaled_final/1321_rv.mp4	0.0	126.5206081867218	0.09999489784240723
18	107.41582798957825	fix_pre	0		120	16.0	2.5	/experiments/knapen_AOT/AOT_stimuli/rescaled_final/0072_fw.mp4	0.0	126.62060308456421	1.0000770092010498
18	108.4077799320221	pulse	0	t		16.0	2.5	/experiments/knapen_AOT/AOT_stimuli/rescaled_final/0072_fw.mp4	0.0	127.61255502700806	
18	108.4159049987793	movie	1		244	16.0	2.5	/experiments/knapen_AOT/AOT_stimuli/rescaled_final/0072_fw.mp4	0.0	127.62068009376526	2.5087130069732666
18	110.00861096382141	pulse	1	t		16.0	2.5	/experiments/knapen_AOT/AOT_stimuli/rescaled_final/0072_fw.mp4	0.0	129.21338605880737	
18	110.92461800575256	fix_post	2		12	16.0	2.5	/experiments/knapen_AOT/AOT_stimuli/rescaled_final/0072_fw.mp4	0.0	130.12939310073853	0.1000070571899414
19	111.0246250629425	fix_pre	0		120	17.0	2.5	/experiments/knapen_AOT/AOT_stimuli/rescaled_final/0209_rv.mp4	0.0	130.22940015792847	1.0002529621124268
19	111.6082329750061	pulse	0	t		17.0	2.5	/experiments/knapen_AOT/AOT_stimuli/rescaled_final/0209_rv.mp4	0.0	130.81300806999207	
19	112.02487802505493	movie	1		243	17.0	2.5	/experiments/knapen_AOT/AOT_stimuli/rescaled_final/0209_rv.mp4	0.0	131.2296531200409	2.5002760887145996
19	113.20854902267456	pulse	1	t		17.0	2.5	/experiments/knapen_AOT/AOT_stimuli/rescaled_final/0209_rv.mp4	0.0	132.41332411766052	
19	114.52515411376953	fix_post	2		12	17.0	2.5	/experiments/knapen_AOT/AOT_stimuli/rescaled_final/0209_rv.mp4	0.0	133.7299292087555	0.09999394416809082
20	114.62514805793762	fix_pre	0		120	18.0	2.5	/experiments/knapen_AOT/AOT_stimuli/rescaled_final/1685_fw.mp4	0.0	133.82992315292358	1.0001728534698486
20	114.80883598327637	pulse	0	t		18.0	2.5	/experiments/knapen_AOT/AOT_stimuli/rescaled_final/1685_fw.mp4	0.0	134.01361107826233	
20	115.62532091140747	movie	1		242	18.0	2.5	/experiments/knapen_AOT/AOT_stimuli/rescaled_final/1685_fw.mp4	0.0	134.83009600639343	2.5004730224609375
20	116.40898108482361	pulse	1	t		18.0	2.5	/experiments/knapen_AOT/AOT_stimuli/rescaled_final/1685_fw.mp4	0.0	135.61375617980957	
20	118.00980806350708	pulse	1	t		18.0	2.5	/experiments/knapen_AOT/AOT_stimuli/rescaled_final/1685_fw.mp4	0.0	137.21458315849304	
20	118.12579393386841	fix_post	2		12	18.0	2.5	/experiments/knapen_AOT/AOT_stimuli/rescaled_final/1685_fw.mp4	0.0	137.33056902885437	0.09990310668945312
21	118.22569704055786	fix_pre	0		120	19.0	2.5	/experiments/knapen_AOT/AOT_stimuli/rescaled_final/1680_fw.mp4	0.0	137.43047213554382	1.000143051147461
21	119.22584009170532	movie	1		241	19.0	2.5	/experiments/knapen_AOT/AOT_stimuli/rescaled_final/1680_fw.mp4	0.0	138.43061518669128	2.4921300411224365
21	119.61032295227051	pulse	1	t		19.0	2.5	/experiments/knapen_AOT/AOT_stimuli/rescaled_final/1680_fw.mp4	0.0	138.81509804725647	
21	121.20976400375366	pulse	1	t		19.0	2.5	/experiments/knapen_AOT/AOT_stimuli/rescaled_final/1680_fw.mp4	0.0	140.41453909873962	
21	121.71797013282776	fix_post	2		12	19.0	2.5	/experiments/knapen_AOT/AOT_stimuli/rescaled_final/1680_fw.mp4	0.0	140.92274522781372	0.0999598503112793
22	121.81792998313904	fix_pre	0		120	20.0	2.5	blank	1.0	141.022705078125	1.0001461505889893
22	122.8099410533905	pulse	0	t		20.0	2.5	blank	1.0	142.01471614837646	
22	122.81807613372803	movie	1		301	20.0	2.5	blank	1.0	142.022851228714	2.508708953857422
22	124.4101390838623	pulse	1	t		20.0	2.5	blank	1.0	143.61491417884827	
22	125.32678508758545	fix_post	2		12	20.0	2.5	blank	1.0	144.5315601825714	0.09999990463256836
23	125.42678499221802	fix_pre	0		120	21.0	2.5	/experiments/knapen_AOT/AOT_stimuli/rescaled_final/1305_fw.mp4	0.0	144.63156008720398	1.0001270771026611
23	126.0103530883789	pulse	0	t		21.0	2.5	/experiments/knapen_AOT/AOT_stimuli/rescaled_final/1305_fw.mp4	0.0	145.21512818336487	
23	126.42691206932068	movie	1		242	21.0	2.5	/experiments/knapen_AOT/AOT_stimuli/rescaled_final/1305_fw.mp4	0.0	145.63168716430664	2.5004780292510986
23	127.61071491241455	pulse	1	t		21.0	2.5	/experiments/knapen_AOT/AOT_stimuli/rescaled_final/1305_fw.mp4	0.0	146.8154900074005	
23	128.92739009857178	fix_post	2		12	21.0	2.5	/experiments/knapen_AOT/AOT_stimuli/rescaled_final/1305_fw.mp4	0.0	148.13216519355774	0.10001897811889648
24	129.02740907669067	fix_pre	0		120	22.0	2.5	/experiments/knapen_AOT/AOT_stimuli/rescaled_final/0947_rv.mp4	0.0	148.23218417167664	1.00010085105896
24	129.210932970047	pulse	0	t		22.0	2.5	/experiments/knapen_AOT/AOT_stimuli/rescaled_final/0947_rv.mp4	0.0	148.41570806503296	
24	130.02750992774963	movie	1		243	22.0	2.5	/experiments/knapen_AOT/AOT_stimuli/rescaled_final/0947_rv.mp4	0.0	149.2322850227356	2.5004220008850098
24	130.81109404563904	pulse	1	t		22.0	2.5	/experiments/knapen_AOT/AOT_stimuli/rescaled_final/0947_rv.mp4	0.0	150.015869140625	
24	132.41185402870178	pulse	1	t		22.0	2.5	/experiments/knapen_AOT/AOT_stimuli/rescaled_final/0947_rv.mp4	0.0	151.61662912368774	
24	132.52793192863464	fix_post	2		12	22.0	2.5	/experiments/knapen_AOT/AOT_stimuli/rescaled_final/0947_rv.mp4	0.0	151.7327070236206	0.09993505477905273
25	132.6278669834137	fix_pre	0		120	23.0	2.5	/experiments/knapen_AOT/AOT_stimuli/rescaled_final/0695_rv.mp4	0.0	151.83264207839966	1.0001411437988281
25	133.62800812721252	movie	1		240	23.0	2.5	/experiments/knapen_AOT/AOT_stimuli/rescaled_final/0695_rv.mp4	0.0	152.8327832221985	2.492060899734497
25	134.01275992393494	pulse	1	t		23.0	2.5	/experiments/knapen_AOT/AOT_stimuli/rescaled_final/0695_rv.mp4	0.0	153.2175350189209	
25	135.61193108558655	pulse	1	t		23.0	2.5	/experiments/knapen_AOT/AOT_stimuli/rescaled_final/0695_rv.mp4	0.0	154.8167061805725	
25	136.12006902694702	fix_post	2		12	23.0	2.5	/experiments/knapen_AOT/AOT_stimuli/rescaled_final/0695_rv.mp4	0.0	155.32484412193298	0.10000896453857422
26	136.2200779914856	fix_pre	0		120	24.0	2.5	/experiments/knapen_AOT/AOT_stimuli/rescaled_final/1201_fw.mp4	0.0	155.42485308647156	1.0001060962677002
26	137.21209692955017	pulse	0	t		24.0	2.5	/experiments/knapen_AOT/AOT_stimuli/rescaled_final/1201_fw.mp4	0.0	156.41687202453613	
26	137.2201840877533	movie	1		244	24.0	2.5	/experiments/knapen_AOT/AOT_stimuli/rescaled_final/1201_fw.mp4	0.0	156.42495918273926	2.50872802734375
26	138.81295108795166	pulse	1	t		24.0	2.5	/experiments/knapen_AOT/AOT_stimuli/rescaled_final/1201_fw.mp4	0.0	158.01772618293762	
26	139.72891211509705	fix_post	2		12	24.0	2.5	/experiments/knapen_AOT/AOT_stimuli/rescaled_final/1201_fw.mp4	0.0	158.933687210083	0.10004782676696777
27	139.828959941864	fix_pre	0		120	25.0	2.5	/experiments/knapen_AOT/AOT_stimuli/rescaled_final/1179_rv.mp4	0.0	159.03373503684998	1.000133991241455
27	140.41264390945435	pulse	0	t		25.0	2.5	/experiments/knapen_AOT/AOT_stimuli/rescaled_final/1179_rv.mp4	0.0	159.6174190044403	
27	140.82909393310547	movie	1		242	25.0	2.5	/experiments/knapen_AOT/AOT_stimuli/rescaled_final/1179_rv.mp4	0.0	160.03386902809143	2.500516176223755
27	142.00554895401	pulse	1	t		25.0	2.5	/experiments/knapen_AOT/AOT_stimuli/rescaled_final/1179_rv.mp4	0.0	161.21032404899597	
27	143.32961010932922	fix_post	2		12	25.0	2.5	/experiments/knapen_AOT/AOT_stimuli/rescaled_final/1179_rv.mp4	0.0	162.53438520431519	0.0999298095703125
28	143.42953991889954	fix_pre	0		120	26.0	2.5	blank	1.0	162.6343150138855	1.0001091957092285
28	143.60559797286987	pulse	0	t		26.0	2.5	blank	1.0	162.81037306785583	
28	144.42964911460876	movie	1		300	26.0	2.5	blank	1.0	163.63442420959473	2.5003788471221924
28	145.20596408843994	pulse	1	t		26.0	2.5	blank	1.0	164.4107391834259	
28	146.80594301223755	pulse	1	t		26.0	2.5	blank	1.0	166.0107181072235	
28	146.93002796173096	fix_post	2		12	26.0	2.5	blank	1.0	166.13480305671692	0.1000051498413086
29	147.03003311157227	fix_pre	0		120	27.0	2.5	/experiments/knapen_AOT/AOT_stimuli/rescaled_final/0072_rv.mp4	0.0	166.23480820655823	1.0001349449157715
29	148.03016805648804	movie	1		241	27.0	2.5	/experiments/knapen_AOT/AOT_stimuli/rescaled_final/0072_rv.mp4	0.0	167.234943151474	2.492064952850342
29	148.40553212165833	pulse	1	t		27.0	2.5	/experiments/knapen_AOT/AOT_stimuli/rescaled_final/0072_rv.mp4	0.0	167.6103072166443	
29	150.00574898719788	pulse	1	t		27.0	2.5	/experiments/knapen_AOT/AOT_stimuli/rescaled_final/0072_rv.mp4	0.0	169.21052408218384	
29	150.52223300933838	fix_post	2		12	27.0	2.5	/experiments/knapen_AOT/AOT_stimuli/rescaled_final/0072_rv.mp4	0.0	169.72700810432434	0.09996199607849121
30	150.62219500541687	fix_pre	0		119	28.0	2.5	/experiments/knapen_AOT/AOT_stimuli/rescaled_final/0294_fw.mp4	0.0	169.82697010040283	0.991887092590332
30	151.6058099269867	pulse	0	t		28.0	2.5	/experiments/knapen_AOT/AOT_stimuli/rescaled_final/0294_fw.mp4	0.0	170.81058502197266	
30	151.6140820980072	movie	1		244	28.0	2.5	/experiments/knapen_AOT/AOT_stimuli/rescaled_final/0294_fw.mp4	0.0	170.81885719299316	2.5087039470672607
30	153.20678997039795	pulse	1	t		28.0	2.5	/experiments/knapen_AOT/AOT_stimuli/rescaled_final/0294_fw.mp4	0.0	172.4115650653839	
30	154.12278604507446	fix_post	2		12	28.0	2.5	/experiments/knapen_AOT/AOT_stimuli/rescaled_final/0294_fw.mp4	0.0	173.32756114006042	0.09999394416809082
31	154.22277998924255	fix_pre	0		120	29.0	2.5	/experiments/knapen_AOT/AOT_stimuli/rescaled_final/0534_fw.mp4	0.0	173.42755508422852	1.000162124633789
31	154.80632305145264	pulse	0	t		29.0	2.5	/experiments/knapen_AOT/AOT_stimuli/rescaled_final/0534_fw.mp4	0.0	174.0110981464386	
31	155.22294211387634	movie	1		244	29.0	2.5	/experiments/knapen_AOT/AOT_stimuli/rescaled_final/0534_fw.mp4	0.0	174.4277172088623	2.500333786010742
31	156.40672206878662	pulse	1	t		29.0	2.5	/experiments/knapen_AOT/AOT_stimuli/rescaled_final/0534_fw.mp4	0.0	175.61149716377258	
31	157.72327589988708	fix_post	2		12	29.0	2.5	/experiments/knapen_AOT/AOT_stimuli/rescaled_final/0534_fw.mp4	0.0	176.92805099487305	0.1000211238861084
32	157.8232970237732	fix_pre	0		120	30.0	2.5	/experiments/knapen_AOT/AOT_stimuli/rescaled_final/0340_rv.mp4	0.0	177.02807211875916	1.0002110004425049
32	158.0069329738617	pulse	0	t		30.0	2.5	/experiments/knapen_AOT/AOT_stimuli/rescaled_final/0340_rv.mp4	0.0	177.21170806884766	
32	158.8235080242157	movie	1		243	30.0	2.5	/experiments/knapen_AOT/AOT_stimuli/rescaled_final/0340_rv.mp4	0.0	178.02828311920166	2.500343084335327
32	159.60705590248108	pulse	1	t		30.0	2.5	/experiments/knapen_AOT/AOT_stimuli/rescaled_final/0340_rv.mp4	0.0	178.81183099746704	
32	161.2070770263672	pulse	1	t		30.0	2.5	/experiments/knapen_AOT/AOT_stimuli/rescaled_final/0340_rv.mp4	0.0	180.41185212135315	
32	161.32385110855103	fix_post	2		12	30.0	2.5	/experiments/knapen_AOT/AOT_stimuli/rescaled_final/0340_rv.mp4	0.0	180.528626203537	0.10001492500305176
33	161.42386603355408	fix_pre	0		120	31.0	2.5	/experiments/knapen_AOT/AOT_stimuli/rescaled_final/0253_fw.mp4	0.0	180.62864112854004	1.0001220703125
33	162.42398810386658	movie	1		243	31.0	2.5	/experiments/knapen_AOT/AOT_stimuli/rescaled_final/0253_fw.mp4	0.0	181.62876319885254	2.4920740127563477
33	162.8079869747162	pulse	1	t		31.0	2.5	/experiments/knapen_AOT/AOT_stimuli/rescaled_final/0253_fw.mp4	0.0	182.01276206970215	
33	164.40800189971924	pulse	1	t		31.0	2.5	/experiments/knapen_AOT/AOT_stimuli/rescaled_final/0253_fw.mp4	0.0	183.6127769947052	
33	164.91606211662292	fix_post	2		12	31.0	2.5	/experiments/knapen_AOT/AOT_stimuli/rescaled_final/0253_fw.mp4	0.0	184.1208372116089	0.09998178482055664
34	165.01604390144348	fix_pre	0		120	32.0	2.5	/experiments/knapen_AOT/AOT_stimuli/rescaled_final/1112_rv.mp4	0.0	184.22081899642944	1.000129222869873
34	166.00813698768616	pulse	0	t		32.0	2.5	/experiments/knapen_AOT/AOT_stimuli/rescaled_final/1112_rv.mp4	0.0	185.21291208267212	
34	166.01617312431335	movie	1		243	32.0	2.5	/experiments/knapen_AOT/AOT_stimuli/rescaled_final/1112_rv.mp4	0.0	185.22094821929932	2.5087788105010986
34	167.61292600631714	pulse	1	t		32.0	2.5	/experiments/knapen_AOT/AOT_stimuli/rescaled_final/1112_rv.mp4	0.0	186.8177011013031	
34	168.52495193481445	fix_post	2		12	32.0	2.5	/experiments/knapen_AOT/AOT_stimuli/rescaled_final/1112_rv.mp4	0.0	187.72972702980042	0.0999760627746582
35	168.6249279975891	fix_pre	0		120	33.0	2.5	/experiments/knapen_AOT/AOT_stimuli/rescaled_final/0241_rv.mp4	0.0	187.82970309257507	1.0000989437103271
35	169.20848512649536	pulse	0	t		33.0	2.5	/experiments/knapen_AOT/AOT_stimuli/rescaled_final/0241_rv.mp4	0.0	188.41326022148132	
35	169.62502694129944	movie	1		243	33.0	2.5	/experiments/knapen_AOT/AOT_stimuli/rescaled_final/0241_rv.mp4	0.0	188.8298020362854	2.500462055206299
35	170.80504202842712	pulse	1	t		33.0	2.5	/experiments/knapen_AOT/AOT_stimuli/rescaled_final/0241_rv.mp4	0.0	190.0098171234131	
35	172.12548899650574	fix_post	2		12	33.0	2.5	/experiments/knapen_AOT/AOT_stimuli/rescaled_final/0241_rv.mp4	0.0	191.3302640914917	0.09997200965881348
36	172.22546100616455	fix_pre	0		120	34.0	2.5	/experiments/knapen_AOT/AOT_stimuli/rescaled_final/0350_fw.mp4	0.0	191.4302361011505	1.0001931190490723
36	172.40904307365417	pulse	0	t		34.0	2.5	/experiments/knapen_AOT/AOT_stimuli/rescaled_final/0350_fw.mp4	0.0	191.61381816864014	
36	173.22565412521362	movie	1		242	34.0	2.5	/experiments/knapen_AOT/AOT_stimuli/rescaled_final/0350_fw.mp4	0.0	192.43042922019958	2.5003559589385986
36	174.00924110412598	pulse	1	t		34.0	2.5	/experiments/knapen_AOT/AOT_stimuli/rescaled_final/0350_fw.mp4	0.0	193.21401619911194	
36	175.6098370552063	pulse	1	t		34.0	2.5	/experiments/knapen_AOT/AOT_stimuli/rescaled_final/0350_fw.mp4	0.0	194.81461215019226	
36	175.72601008415222	fix_post	2		12	34.0	2.5	/experiments/knapen_AOT/AOT_stimuli/rescaled_final/0350_fw.mp4	0.0	194.93078517913818	0.09998488426208496
37	175.8259949684143	fix_pre	0		120	35.0	2.5	blank	1.0	195.03077006340027	1.0001051425933838
37	176.8261001110077	movie	1		299	35.0	2.5	blank	1.0	196.03087520599365	2.49206280708313
37	177.20973992347717	pulse	1	t		35.0	2.5	blank	1.0	196.41451501846313	
37	178.8100950717926	pulse	1	t		35.0	2.5	blank	1.0	198.01487016677856	
37	179.31816291809082	fix_post	2		12	35.0	2.5	blank	1.0	198.52293801307678	0.09999513626098633
38	179.4181580543518	fix_pre	0		120	36.0	2.5	/experiments/knapen_AOT/AOT_stimuli/rescaled_final/2073_fw.mp4	0.0	198.62293314933777	1.000243902206421
38	180.41019105911255	pulse	0	t		36.0	2.5	/experiments/knapen_AOT/AOT_stimuli/rescaled_final/2073_fw.mp4	0.0	199.6149661540985	
38	180.41840195655823	movie	1		244	36.0	2.5	/experiments/knapen_AOT/AOT_stimuli/rescaled_final/2073_fw.mp4	0.0	199.6231770515442	2.508648157119751
38	182.0112109184265	pulse	1	t		36.0	2.5	/experiments/knapen_AOT/AOT_stimuli/rescaled_final/2073_fw.mp4	0.0	201.21598601341248	
38	182.92705011367798	fix_post	2		12	36.0	2.5	/experiments/knapen_AOT/AOT_stimuli/rescaled_final/2073_fw.mp4	0.0	202.13182520866394	0.09998297691345215
39	183.02703309059143	fix_pre	0		120	37.0	2.5	/experiments/knapen_AOT/AOT_stimuli/rescaled_final/1292_rv.mp4	0.0	202.2318081855774	1.000140905380249
39	183.6106879711151	pulse	0	t		37.0	2.5	/experiments/knapen_AOT/AOT_stimuli/rescaled_final/1292_rv.mp4	0.0	202.81546306610107	
39	184.02717399597168	movie	1		243	37.0	2.5	/experiments/knapen_AOT/AOT_stimuli/rescaled_final/1292_rv.mp4	0.0	203.23194909095764	2.500504970550537
39	185.21102094650269	pulse	1	t		37.0	2.5	/experiments/knapen_AOT/AOT_stimuli/rescaled_final/1292_rv.mp4	0.0	204.41579604148865	
39	186.52767896652222	fix_post	2		12	37.0	2.5	/experiments/knapen_AOT/AOT_stimuli/rescaled_final/1292_rv.mp4	0.0	205.73245406150818	0.09992694854736328
40	186.62760591506958	fix_pre	0		120	38.0	2.5	/experiments/knapen_AOT/AOT_stimuli/rescaled_final/1457_fw.mp4	0.0	205.83238101005554	1.0002460479736328
40	186.81111001968384	pulse	0	t		38.0	2.5	/experiments/knapen_AOT/AOT_stimuli/rescaled_final/1457_fw.mp4	0.0	206.0158851146698	
40	187.6278519630432	movie	1		243	38.0	2.5	/experiments/knapen_AOT/AOT_stimuli/rescaled_final/1457_fw.mp4	0.0	206.83262705802917	2.5003700256347656
40	188.41136813163757	pulse	1	t		38.0	2.5	/experiments/knapen_AOT/AOT_stimuli/rescaled_final/1457_fw.mp4	0.0	207.61614322662354	
40	190.01146697998047	pulse	1	t		38.0	2.5	/experiments/knapen_AOT/AOT_stimuli/rescaled_final/1457_fw.mp4	0.0	209.21624207496643	
40	190.12822198867798	fix_post	2		12	38.0	2.5	/experiments/knapen_AOT/AOT_stimuli/rescaled_final/1457_fw.mp4	0.0	209.33299708366394	0.09988093376159668
41	190.22810292243958	fix_pre	0		120	39.0	2.5	/experiments/knapen_AOT/AOT_stimuli/rescaled_final/0800_fw.mp4	0.0	209.43287801742554	1.0001699924468994
41	191.22827291488647	movie	1		242	39.0	2.5	/experiments/knapen_AOT/AOT_stimuli/rescaled_final/0800_fw.mp4	0.0	210.43304800987244	2.4921040534973145
41	191.6125259399414	pulse	1	t		39.0	2.5	/experiments/knapen_AOT/AOT_stimuli/rescaled_final/0800_fw.mp4	0.0	210.81730103492737	
41	193.21220803260803	pulse	1	t		39.0	2.5	/experiments/knapen_AOT/AOT_stimuli/rescaled_final/0800_fw.mp4	0.0	212.416983127594	
41	193.7203769683838	fix_post	2		9	39.0	2.5	/experiments/knapen_AOT/AOT_stimuli/rescaled_final/0800_fw.mp4	0.0	212.92515206336975	0.10004997253417969
42	193.82042694091797	fix_pre	0		120	40.0	2.5	blank	1.0	213.02520203590393	1.0000810623168945
42	194.81232500076294	pulse	0	t		40.0	2.5	blank	1.0	214.0171000957489	
42	194.82050800323486	movie	1		301	40.0	2.5	blank	1.0	214.02528309822083	2.5086729526519775
42	196.40499591827393	pulse	1	t		40.0	2.5	blank	1.0	215.6097710132599	
42	197.32918095588684	fix_post	2		12	40.0	2.5	blank	1.0	216.5339560508728	0.10001397132873535
43	197.42919492721558	fix_pre	0		120	41.0	2.5	/experiments/knapen_AOT/AOT_stimuli/rescaled_final/0297_fw.mp4	0.0	216.63397002220154	1.0002121925354004
43	198.00543403625488	pulse	0	t		41.0	2.5	/experiments/knapen_AOT/AOT_stimuli/rescaled_final/0297_fw.mp4	0.0	217.21020913124084	
43	198.42940711975098	movie	1		243	41.0	2.5	/experiments/knapen_AOT/AOT_stimuli/rescaled_final/0297_fw.mp4	0.0	217.63418221473694	2.500321865081787
43	199.60542607307434	pulse	1	t		41.0	2.5	/experiments/knapen_AOT/AOT_stimuli/rescaled_final/0297_fw.mp4	0.0	218.8102011680603	
43	200.92972898483276	fix_post	2		12	41.0	2.5	/experiments/knapen_AOT/AOT_stimuli/rescaled_final/0297_fw.mp4	0.0	220.13450407981873	0.10001301765441895
44	201.02974200248718	fix_pre	0		120	42.0	2.5	/experiments/knapen_AOT/AOT_stimuli/rescaled_final/1255_fw.mp4	0.0	220.23451709747314	1.0002059936523438
44	201.2051351070404	pulse	0	t		42.0	2.5	/experiments/knapen_AOT/AOT_stimuli/rescaled_final/1255_fw.mp4	0.0	220.40991020202637	
44	202.02994799613953	movie	1		242	42.0	2.5	/experiments/knapen_AOT/AOT_stimuli/rescaled_final/1255_fw.mp4	0.0	221.2347230911255	2.5004279613494873
44	202.80525302886963	pulse	1	t		42.0	2.5	/experiments/knapen_AOT/AOT_stimuli/rescaled_final/1255_fw.mp4	0.0	222.0100281238556	
44	204.40537691116333	pulse	1	t		42.0	2.5	/experiments/knapen_AOT/AOT_stimuli/rescaled_final/1255_fw.mp4	0.0	223.6101520061493	
44	204.530375957489	fix_post	2		12	42.0	2.5	/experiments/knapen_AOT/AOT_stimuli/rescaled_final/1255_fw.mp4	0.0	223.73515105247498	0.099945068359375
45	204.6303210258484	fix_pre	0		120	43.0	2.5	/experiments/knapen_AOT/AOT_stimuli/rescaled_final/1132_rv.mp4	0.0	223.83509612083435	1.0001330375671387
45	205.63045406341553	movie	1		242	43.0	2.5	/experiments/knapen_AOT/AOT_stimuli/rescaled_final/1132_rv.mp4	0.0	224.8352291584015	2.4921648502349854
45	206.0057020187378	pulse	1	t		43.0	2.5	/experiments/knapen_AOT/AOT_stimuli/rescaled_final/1132_rv.mp4	0.0	225.21047711372375	
45	207.60599899291992	pulse	1	t		43.0	2.5	/experiments/knapen_AOT/AOT_stimuli/rescaled_final/1132_rv.mp4	0.0	226.81077408790588	
45	208.1226189136505	fix_post	2		12	43.0	2.5	/experiments/knapen_AOT/AOT_stimuli/rescaled_final/1132_rv.mp4	0.0	227.32739400863647	0.09989619255065918
46	208.22251510620117	fix_pre	0		119	44.0	2.5	/experiments/knapen_AOT/AOT_stimuli/rescaled_final/0543_rv.mp4	0.0	227.42729020118713	0.991804838180542
46	209.20616793632507	pulse	0	t		44.0	2.5	/experiments/knapen_AOT/AOT_stimuli/rescaled_final/0543_rv.mp4	0.0	228.41094303131104	
46	209.2143199443817	movie	1		244	44.0	2.5	/experiments/knapen_AOT/AOT_stimuli/rescaled_final/0543_rv.mp4	0.0	228.41909503936768	2.5087549686431885
46	210.80770707130432	pulse	1	t		44.0	2.5	/experiments/knapen_AOT/AOT_stimuli/rescaled_final/0543_rv.mp4	0.0	230.01248216629028	
46	211.7230749130249	fix_post	2		12	44.0	2.5	/experiments/knapen_AOT/AOT_stimuli/rescaled_final/0543_rv.mp4	0.0	230.92785000801086	0.09997105598449707
47	211.8230459690094	fix_pre	0		120	45.0	2.5	/experiments/knapen_AOT/AOT_stimuli/rescaled_final/0757_fw.mp4	0.0	231.02782106399536	1.0001180171966553
47	212.40659999847412	pulse	0	t		45.0	2.5	/experiments/knapen_AOT/AOT_stimuli/rescaled_final/0757_fw.mp4	0.0	231.61137509346008	
47	212.82316398620605	movie	1		244	45.0	2.5	/experiments/knapen_AOT/AOT_stimuli/rescaled_final/0757_fw.mp4	0.0	232.02793908119202	2.5004079341888428
47	214.0069420337677	pulse	1	t		45.0	2.5	/experiments/knapen_AOT/AOT_stimuli/rescaled_final/0757_fw.mp4	0.0	233.21171712875366	
47	215.3235719203949	fix_post	2		12	45.0	2.5	/experiments/knapen_AOT/AOT_stimuli/rescaled_final/0757_fw.mp4	0.0	234.52834701538086	0.10004401206970215
48	215.4236159324646	fix_pre	0		120	46.0	2.5	/experiments/knapen_AOT/AOT_stimuli/rescaled_final/0076_fw.mp4	0.0	234.62839102745056	1.0000770092010498
48	215.60707211494446	pulse	0	t		46.0	2.5	/experiments/knapen_AOT/AOT_stimuli/rescaled_final/0076_fw.mp4	0.0	234.81184720993042	
48	216.42369294166565	movie	1		244	46.0	2.5	/experiments/knapen_AOT/AOT_stimuli/rescaled_final/0076_fw.mp4	0.0	235.6284680366516	2.500391960144043
48	217.20736813545227	pulse	1	t		46.0	2.5	/experiments/knapen_AOT/AOT_stimuli/rescaled_final/0076_fw.mp4	0.0	236.41214323043823	
48	218.8076159954071	pulse	1	t		46.0	2.5	/experiments/knapen_AOT/AOT_stimuli/rescaled_final/0076_fw.mp4	0.0	238.01239109039307	
48	218.9240849018097	fix_post	2		12	46.0	2.5	/experiments/knapen_AOT/AOT_stimuli/rescaled_final/0076_fw.mp4	0.0	238.12885999679565	0.09998416900634766
49	219.02406907081604	fix_pre	0		120	47.0	2.5	/experiments/knapen_AOT/AOT_stimuli/rescaled_final/1395_fw.mp4	0.0	238.228844165802	1.000182867050171
49	220.0242519378662	movie	1		242	47.0	2.5	/experiments/knapen_AOT/AOT_stimuli/rescaled_final/1395_fw.mp4	0.0	239.22902703285217	2.492065191268921
49	220.4083640575409	pulse	1	t		47.0	2.5	/experiments/knapen_AOT/AOT_stimuli/rescaled_final/1395_fw.mp4	0.0	239.61313915252686	
49	222.00801491737366	pulse	1	t		47.0	2.5	/experiments/knapen_AOT/AOT_stimuli/rescaled_final/1395_fw.mp4	0.0	241.21279001235962	
49	222.51631712913513	fix_post	2		12	47.0	2.5	/experiments/knapen_AOT/AOT_stimuli/rescaled_final/1395_fw.mp4	0.0	241.7210922241211	0.09997391700744629
50	222.61629104614258	fix_pre	0		120	48.0	2.5	/experiments/knapen_AOT/AOT_stimuli/rescaled_final/1364_rv.mp4	0.0	241.82106614112854	1.0001158714294434
50	223.60831713676453	pulse	0	t		48.0	2.5	/experiments/knapen_AOT/AOT_stimuli/rescaled_final/1364_rv.mp4	0.0	242.8130922317505	
50	223.61640691757202	movie	1		244	48.0	2.5	/experiments/knapen_AOT/AOT_stimuli/rescaled_final/1364_rv.mp4	0.0	242.82118201255798	2.5087311267852783
50	225.2090539932251	pulse	1	t		48.0	2.5	/experiments/knapen_AOT/AOT_stimuli/rescaled_final/1364_rv.mp4	0.0	244.41382908821106	
50	226.1251380443573	fix_post	2		12	48.0	2.5	/experiments/knapen_AOT/AOT_stimuli/rescaled_final/1364_rv.mp4	0.0	245.32991313934326	0.1000669002532959
51	226.2252049446106	fix_pre	0		120	49.0	2.5	blank	1.0	245.42998003959656	1.0001649856567383
51	226.80876398086548	pulse	0	t		49.0	2.5	blank	1.0	246.01353907585144	
51	227.22536993026733	movie	1		300	49.0	2.5	blank	1.0	246.4301450252533	2.500369071960449
51	228.4090540409088	pulse	1	t		49.0	2.5	blank	1.0	247.61382913589478	
51	229.72573900222778	fix_post	2		12	49.0	2.5	blank	1.0	248.93051409721375	0.10000205039978027
52	229.82574105262756	fix_pre	0		120	50.0	2.5	/experiments/knapen_AOT/AOT_stimuli/rescaled_final/2029_rv.mp4	0.0	249.03051614761353	1.0001120567321777
52	230.0092658996582	pulse	0	t		50.0	2.5	/experiments/knapen_AOT/AOT_stimuli/rescaled_final/2029_rv.mp4	0.0	249.21404099464417	
52	230.82585310935974	movie	1		243	50.0	2.5	/experiments/knapen_AOT/AOT_stimuli/rescaled_final/2029_rv.mp4	0.0	250.0306282043457	2.5004079341888428
52	231.60962295532227	pulse	1	t		50.0	2.5	/experiments/knapen_AOT/AOT_stimuli/rescaled_final/2029_rv.mp4	0.0	250.81439805030823	
52	233.21028208732605	pulse	1	t		50.0	2.5	/experiments/knapen_AOT/AOT_stimuli/rescaled_final/2029_rv.mp4	0.0	252.415057182312	
52	233.32626104354858	fix_post	2		12	50.0	2.5	/experiments/knapen_AOT/AOT_stimuli/rescaled_final/2029_rv.mp4	0.0	252.53103613853455	0.09999299049377441
53	233.42625403404236	fix_pre	0		120	51.0	2.5	/experiments/knapen_AOT/AOT_stimuli/rescaled_final/1038_rv.mp4	0.0	252.63102912902832	1.0001749992370605
53	234.42642903327942	movie	1		241	51.0	2.5	/experiments/knapen_AOT/AOT_stimuli/rescaled_final/1038_rv.mp4	0.0	253.63120412826538	2.4921059608459473
53	234.81080198287964	pulse	1	t		51.0	2.5	/experiments/knapen_AOT/AOT_stimuli/rescaled_final/1038_rv.mp4	0.0	254.0155770778656	
53	236.4101960659027	pulse	1	t		51.0	2.5	/experiments/knapen_AOT/AOT_stimuli/rescaled_final/1038_rv.mp4	0.0	255.61497116088867	
53	236.91853499412537	fix_post	2		12	51.0	2.5	/experiments/knapen_AOT/AOT_stimuli/rescaled_final/1038_rv.mp4	0.0	256.1233100891113	0.09994006156921387
54	237.01847505569458	fix_pre	0		120	52.0	2.5	/experiments/knapen_AOT/AOT_stimuli/rescaled_final/0356_rv.mp4	0.0	256.22325015068054	1.0001568794250488
54	238.01044511795044	pulse	0	t		52.0	2.5	/experiments/knapen_AOT/AOT_stimuli/rescaled_final/0356_rv.mp4	0.0	257.2152202129364	
54	238.01863193511963	movie	1		243	52.0	2.5	/experiments/knapen_AOT/AOT_stimuli/rescaled_final/0356_rv.mp4	0.0	257.2234070301056	2.508681058883667
54	239.61115312576294	pulse	1	t		52.0	2.5	/experiments/knapen_AOT/AOT_stimuli/rescaled_final/0356_rv.mp4	0.0	258.8159282207489	
54	240.5273129940033	fix_post	2		12	52.0	2.5	/experiments/knapen_AOT/AOT_stimuli/rescaled_final/0356_rv.mp4	0.0	259.73208808898926	0.10005998611450195
55	240.6273729801178	fix_pre	0		120	53.0	2.5	/experiments/knapen_AOT/AOT_stimuli/rescaled_final/0139_fw.mp4	0.0	259.83214807510376	1.000108003616333
55	241.21098589897156	pulse	0	t		53.0	2.5	/experiments/knapen_AOT/AOT_stimuli/rescaled_final/0139_fw.mp4	0.0	260.4157609939575	
55	241.62748098373413	movie	1		242	53.0	2.5	/experiments/knapen_AOT/AOT_stimuli/rescaled_final/0139_fw.mp4	0.0	260.8322560787201	2.5005381107330322
55	242.81127309799194	pulse	1	t		53.0	2.5	/experiments/knapen_AOT/AOT_stimuli/rescaled_final/0139_fw.mp4	0.0	262.0160481929779	
55	244.12801909446716	fix_post	2		12	53.0	2.5	/experiments/knapen_AOT/AOT_stimuli/rescaled_final/0139_fw.mp4	0.0	263.3327941894531	0.09984993934631348
56	244.22786903381348	fix_pre	0		120	54.0	2.5	/experiments/knapen_AOT/AOT_stimuli/rescaled_final/0253_rv.mp4	0.0	263.43264412879944	1.0001440048217773
56	244.41137099266052	pulse	0	t		54.0	2.5	/experiments/knapen_AOT/AOT_stimuli/rescaled_final/0253_rv.mp4	0.0	263.6161460876465	
56	245.22801303863525	movie	1		244	54.0	2.5	/experiments/knapen_AOT/AOT_stimuli/rescaled_final/0253_rv.mp4	0.0	264.4327881336212	2.500382900238037
56	246.01174807548523	pulse	1	t		54.0	2.5	/experiments/knapen_AOT/AOT_stimuli/rescaled_final/0253_rv.mp4	0.0	265.2165231704712	
56	247.61190795898438	pulse	1	t		54.0	2.5	/experiments/knapen_AOT/AOT_stimuli/rescaled_final/0253_rv.mp4	0.0	266.81668305397034	
56	247.7283959388733	fix_post	2		12	54.0	2.5	/experiments/knapen_AOT/AOT_stimuli/rescaled_final/0253_rv.mp4	0.0	266.93317103385925	0.10001206398010254
57	247.8284080028534	fix_pre	0		120	55.0	2.5	/experiments/knapen_AOT/AOT_stimuli/rescaled_final/2078_fw.mp4	0.0	267.03318309783936	1.0001769065856934
57	248.8285849094391	movie	1		241	55.0	2.5	/experiments/knapen_AOT/AOT_stimuli/rescaled_final/2078_fw.mp4	0.0	268.03336000442505	2.4921622276306152
57	249.21348690986633	pulse	1	t		55.0	2.5	/experiments/knapen_AOT/AOT_stimuli/rescaled_final/2078_fw.mp4	0.0	268.4182620048523	
57	250.80510807037354	pulse	1	t		55.0	2.5	/experiments/knapen_AOT/AOT_stimuli/rescaled_final/2078_fw.mp4	0.0	270.0098831653595	
57	251.3207471370697	fix_post	2		12	55.0	2.5	/experiments/knapen_AOT/AOT_stimuli/rescaled_final/2078_fw.mp4	0.0	270.52552223205566	0.0998837947845459
58	251.42063093185425	fix_pre	0		120	56.0	2.5	blank	1.0	270.6254060268402	1.0001251697540283
58	252.4050691127777	pulse	0	t		56.0	2.5	blank	1.0	271.6098442077637	
58	252.42075610160828	movie	1		301	56.0	2.5	blank	1.0	271.62553119659424	2.508708953857422
58	254.0052969455719	pulse	1	t		56.0	2.5	blank	1.0	273.21007204055786	
58	254.9294650554657	fix_post	2		10	56.0	2.5	blank	1.0	274.13424015045166	0.10009598731994629
59	255.02956104278564	fix_pre	0		120	57.0	2.5	/experiments/knapen_AOT/AOT_stimuli/rescaled_final/1364_fw.mp4	0.0	274.2343361377716	1.000093936920166
59	255.6048710346222	pulse	0	t		57.0	2.5	/experiments/knapen_AOT/AOT_stimuli/rescaled_final/1364_fw.mp4	0.0	274.80964612960815	
59	256.0296549797058	movie	1		243	57.0	2.5	/experiments/knapen_AOT/AOT_stimuli/rescaled_final/1364_fw.mp4	0.0	275.2344300746918	2.500460147857666
59	257.2060661315918	pulse	1	t		57.0	2.5	/experiments/knapen_AOT/AOT_stimuli/rescaled_final/1364_fw.mp4	0.0	276.41084122657776	
59	258.5301151275635	fix_post	2		12	57.0	2.5	/experiments/knapen_AOT/AOT_stimuli/rescaled_final/1364_fw.mp4	0.0	277.73489022254944	0.09993100166320801
60	258.6300461292267	fix_pre	0		120	58.0	2.5	/experiments/knapen_AOT/AOT_stimuli/rescaled_final/1121_fw.mp4	0.0	277.83482122421265	1.000091791152954
60	258.8051609992981	pulse	0	t		58.0	2.5	/experiments/knapen_AOT/AOT_stimuli/rescaled_final/1121_fw.mp4	0.0	278.00993609428406	
60	259.63013792037964	movie	1		242	58.0	2.5	/experiments/knapen_AOT/AOT_stimuli/rescaled_final/1121_fw.mp4	0.0	278.8349130153656	2.5005149841308594
60	260.40542697906494	pulse	1	t		58.0	2.5	/experiments/knapen_AOT/AOT_stimuli/rescaled_final/1121_fw.mp4	0.0	279.6102020740509	
60	262.0057101249695	pulse	1	t		58.0	2.5	/experiments/knapen_AOT/AOT_stimuli/rescaled_final/1121_fw.mp4	0.0	281.21048521995544	
60	262.1306529045105	fix_post	2		11	58.0	2.5	/experiments/knapen_AOT/AOT_stimuli/rescaled_final/1121_fw.mp4	0.0	281.33542799949646	0.09155607223510742
61	262.2222089767456	fix_pre	0		120	59.0	2.5	/experiments/knapen_AOT/AOT_stimuli/rescaled_final/1258_rv.mp4	0.0	281.42698407173157	1.000143051147461
61	263.22235202789307	movie	1		243	59.0	2.5	/experiments/knapen_AOT/AOT_stimuli/rescaled_final/1258_rv.mp4	0.0	282.427127122879	2.5004210472106934
61	263.6066451072693	pulse	1	t		59.0	2.5	/experiments/knapen_AOT/AOT_stimuli/rescaled_final/1258_rv.mp4	0.0	282.81142020225525	
61	265.2061810493469	pulse	1	t		59.0	2.5	/experiments/knapen_AOT/AOT_stimuli/rescaled_final/1258_rv.mp4	0.0	284.4109561443329	
61	265.72277307510376	fix_post	2		12	59.0	2.5	/experiments/knapen_AOT/AOT_stimuli/rescaled_final/1258_rv.mp4	0.0	284.9275481700897	0.10001397132873535
62	265.8227870464325	fix_pre	0		119	60.0	2.5	/experiments/knapen_AOT/AOT_stimuli/rescaled_final/1926_fw.mp4	0.0	285.02756214141846	0.9917628765106201
62	266.8063290119171	pulse	0	t		60.0	2.5	/experiments/knapen_AOT/AOT_stimuli/rescaled_final/1926_fw.mp4	0.0	286.0111041069031	
62	266.8145499229431	movie	1		246	60.0	2.5	/experiments/knapen_AOT/AOT_stimuli/rescaled_final/1926_fw.mp4	0.0	286.0193250179291	2.5087530612945557
62	268.4071719646454	pulse	1	t		60.0	2.5	/experiments/knapen_AOT/AOT_stimuli/rescaled_final/1926_fw.mp4	0.0	287.61194705963135	
62	269.32330298423767	fix_post	2		12	60.0	2.5	/experiments/knapen_AOT/AOT_stimuli/rescaled_final/1926_fw.mp4	0.0	288.52807807922363	0.10003900527954102
63	269.4233419895172	fix_pre	0		120	61.0	2.5	/experiments/knapen_AOT/AOT_stimuli/rescaled_final/1065_fw.mp4	0.0	288.6281170845032	1.0000851154327393
63	270.00695300102234	pulse	0	t		61.0	2.5	/experiments/knapen_AOT/AOT_stimuli/rescaled_final/1065_fw.mp4	0.0	289.2117280960083	
63	270.42342710494995	movie	1		243	61.0	2.5	/experiments/knapen_AOT/AOT_stimuli/rescaled_final/1065_fw.mp4	0.0	289.6282021999359	2.500540018081665
63	271.60726594924927	pulse	1	t		61.0	2.5	/experiments/knapen_AOT/AOT_stimuli/rescaled_final/1065_fw.mp4	0.0	290.81204104423523	
63	272.9239671230316	fix_post	2		12	61.0	2.5	/experiments/knapen_AOT/AOT_stimuli/rescaled_final/1065_fw.mp4	0.0	292.1287422180176	0.09985089302062988
64	273.02381801605225	fix_pre	0		120	62.0	2.5	blank	1.0	292.2285931110382	1.0001649856567383
64	273.20737409591675	pulse	0	t		62.0	2.5	blank	1.0	292.4121491909027	
64	274.023983001709	movie	1		300	62.0	2.5	blank	1.0	293.22875809669495	2.5003859996795654
64	274.80761909484863	pulse	1	t		62.0	2.5	blank	1.0	294.0123941898346	
64	276.4078269004822	pulse	1	t		62.0	2.5	blank	1.0	295.61260199546814	
64	276.52436900138855	fix_post	2		12	62.0	2.5	blank	1.0	295.7291440963745	0.10004401206970215
65	276.62441301345825	fix_pre	0		120	63.0	2.5	/experiments/knapen_AOT/AOT_stimuli/rescaled_final/1255_rv.mp4	0.0	295.8291881084442	1.0001249313354492
65	277.6245379447937	movie	1		241	63.0	2.5	/experiments/knapen_AOT/AOT_stimuli/rescaled_final/1255_rv.mp4	0.0	296.82931303977966	2.4920151233673096
65	278.0085470676422	pulse	1	t		63.0	2.5	/experiments/knapen_AOT/AOT_stimuli/rescaled_final/1255_rv.mp4	0.0	297.2133221626282	
65	279.60835099220276	pulse	1	t		63.0	2.5	/experiments/knapen_AOT/AOT_stimuli/rescaled_final/1255_rv.mp4	0.0	298.8131260871887	
65	280.116553068161	fix_post	2		12	63.0	2.5	/experiments/knapen_AOT/AOT_stimuli/rescaled_final/1255_rv.mp4	0.0	299.321328163147	0.09999799728393555
66	280.21655106544495	fix_pre	0		120	64.0	2.5	/experiments/knapen_AOT/AOT_stimuli/rescaled_final/1672_rv.mp4	0.0	299.4213261604309	1.0002360343933105
66	281.2086350917816	pulse	0	t		64.0	2.5	/experiments/knapen_AOT/AOT_stimuli/rescaled_final/1672_rv.mp4	0.0	300.4134101867676	
66	281.21678709983826	movie	1		243	64.0	2.5	/experiments/knapen_AOT/AOT_stimuli/rescaled_final/1672_rv.mp4	0.0	300.4215621948242	2.508661985397339
66	282.8094620704651	pulse	1	t		64.0	2.5	/experiments/knapen_AOT/AOT_stimuli/rescaled_final/1672_rv.mp4	0.0	302.01423716545105	
66	283.7254490852356	fix_post	2		12	64.0	2.5	/experiments/knapen_AOT/AOT_stimuli/rescaled_final/1672_rv.mp4	0.0	302.93022418022156	0.09999895095825195
67	283.82544803619385	fix_pre	0		120	65.0	2.5	/experiments/knapen_AOT/AOT_stimuli/rescaled_final/0386_fw.mp4	0.0	303.0302231311798	1.000140905380249
67	284.4090631008148	pulse	0	t		65.0	2.5	/experiments/knapen_AOT/AOT_stimuli/rescaled_final/0386_fw.mp4	0.0	303.6138381958008	
67	284.8255889415741	movie	1		244	65.0	2.5	/experiments/knapen_AOT/AOT_stimuli/rescaled_final/0386_fw.mp4	0.0	304.03036403656006	2.500401020050049
67	286.00929498672485	pulse	1	t		65.0	2.5	/experiments/knapen_AOT/AOT_stimuli/rescaled_final/0386_fw.mp4	0.0	305.2140700817108	
67	287.32598996162415	fix_post	2		12	65.0	2.5	/experiments/knapen_AOT/AOT_stimuli/rescaled_final/0386_fw.mp4	0.0	306.5307650566101	0.10002398490905762
68	287.4260139465332	fix_pre	0		120	66.0	2.5	/experiments/knapen_AOT/AOT_stimuli/rescaled_final/1263_fw.mp4	0.0	306.63078904151917	1.000101089477539
68	287.6095190048218	pulse	0	t		66.0	2.5	/experiments/knapen_AOT/AOT_stimuli/rescaled_final/1263_fw.mp4	0.0	306.81429409980774	
68	288.42611503601074	movie	1		244	66.0	2.5	/experiments/knapen_AOT/AOT_stimuli/rescaled_final/1263_fw.mp4	0.0	307.6308901309967	2.500391960144043
68	289.20976209640503	pulse	1	t		66.0	2.5	/experiments/knapen_AOT/AOT_stimuli/rescaled_final/1263_fw.mp4	0.0	308.414537191391	
68	290.80997490882874	pulse	1	t		66.0	2.5	/experiments/knapen_AOT/AOT_stimuli/rescaled_final/1263_fw.mp4	0.0	310.0147500038147	
68	290.9265069961548	fix_post	2		12	66.0	2.5	/experiments/knapen_AOT/AOT_stimuli/rescaled_final/1263_fw.mp4	0.0	310.13128209114075	0.10001397132873535
69	291.0265209674835	fix_pre	0		120	67.0	2.5	/experiments/knapen_AOT/AOT_stimuli/rescaled_final/0515_rv.mp4	0.0	310.2312960624695	1.0001239776611328
69	292.02664494514465	movie	1		242	67.0	2.5	/experiments/knapen_AOT/AOT_stimuli/rescaled_final/0515_rv.mp4	0.0	311.2314200401306	2.492171049118042
69	292.41144704818726	pulse	1	t		67.0	2.5	/experiments/knapen_AOT/AOT_stimuli/rescaled_final/0515_rv.mp4	0.0	311.6162221431732	
69	294.0104470252991	pulse	1	t		67.0	2.5	/experiments/knapen_AOT/AOT_stimuli/rescaled_final/0515_rv.mp4	0.0	313.21522212028503	
69	294.5188159942627	fix_post	2		12	67.0	2.5	/experiments/knapen_AOT/AOT_stimuli/rescaled_final/0515_rv.mp4	0.0	313.72359108924866	0.09991812705993652
70	294.61873412132263	fix_pre	0		120	68.0	2.5	blank	1.0	313.8235092163086	1.000091791152954
70	295.61078000068665	pulse	0	t		68.0	2.5	blank	1.0	314.8155550956726	
70	295.6188259124756	movie	1		301	68.0	2.5	blank	1.0	314.82360100746155	2.5087761878967285
70	297.2109589576721	pulse	1	t		68.0	2.5	blank	1.0	316.4157340526581	
70	298.1276021003723	fix_post	2		12	68.0	2.5	blank	1.0	317.3323771953583	0.10001492500305176
71	298.22761702537537	fix_pre	0		120	69.0	2.5	/experiments/knapen_AOT/AOT_stimuli/rescaled_final/1041_rv.mp4	0.0	317.4323921203613	1.0001230239868164
71	298.8112380504608	pulse	0	t		69.0	2.5	/experiments/knapen_AOT/AOT_stimuli/rescaled_final/1041_rv.mp4	0.0	318.0160131454468	
71	299.2277400493622	movie	1		242	69.0	2.5	/experiments/knapen_AOT/AOT_stimuli/rescaled_final/1041_rv.mp4	0.0	318.43251514434814	2.5004260540008545
71	300.41149711608887	pulse	1	t		69.0	2.5	/experiments/knapen_AOT/AOT_stimuli/rescaled_final/1041_rv.mp4	0.0	319.61627221107483	
71	301.72816610336304	fix_post	2		12	69.0	2.5	/experiments/knapen_AOT/AOT_stimuli/rescaled_final/1041_rv.mp4	0.0	320.932941198349	0.09993290901184082
72	301.8280990123749	fix_pre	0		120	70.0	2.5	/experiments/knapen_AOT/AOT_stimuli/rescaled_final/0947_rv.mp4	0.0	321.03287410736084	1.0001649856567383
72	302.0117199420929	pulse	0	t		70.0	2.5	/experiments/knapen_AOT/AOT_stimuli/rescaled_final/0947_rv.mp4	0.0	321.21649503707886	
72	302.8282639980316	movie	1		243	70.0	2.5	/experiments/knapen_AOT/AOT_stimuli/rescaled_final/0947_rv.mp4	0.0	322.0330390930176	2.5004401206970215
72	303.61191606521606	pulse	1	t		70.0	2.5	/experiments/knapen_AOT/AOT_stimuli/rescaled_final/0947_rv.mp4	0.0	322.816691160202	
72	305.2120680809021	pulse	1	t		70.0	2.5	/experiments/knapen_AOT/AOT_stimuli/rescaled_final/0947_rv.mp4	0.0	324.41684317588806	
72	305.32870411872864	fix_post	2		12	70.0	2.5	/experiments/knapen_AOT/AOT_stimuli/rescaled_final/0947_rv.mp4	0.0	324.5334792137146	0.09996795654296875
73	305.4286720752716	fix_pre	0		120	71.0	2.5	/experiments/knapen_AOT/AOT_stimuli/rescaled_final/1926_rv.mp4	0.0	324.63344717025757	1.0001368522644043
73	306.428808927536	movie	1		244	71.0	2.5	/experiments/knapen_AOT/AOT_stimuli/rescaled_final/1926_rv.mp4	0.0	325.633584022522	2.4920661449432373
73	306.8137249946594	pulse	1	t		71.0	2.5	/experiments/knapen_AOT/AOT_stimuli/rescaled_final/1926_rv.mp4	0.0	326.0185000896454	
73	308.4054229259491	pulse	1	t		71.0	2.5	/experiments/knapen_AOT/AOT_stimuli/rescaled_final/1926_rv.mp4	0.0	327.61019802093506	
73	308.92087507247925	fix_post	2		12	71.0	2.5	/experiments/knapen_AOT/AOT_stimuli/rescaled_final/1926_rv.mp4	0.0	328.1256501674652	0.10002493858337402
74	309.0209000110626	fix_pre	0		120	72.0	2.5	/experiments/knapen_AOT/AOT_stimuli/rescaled_final/0294_fw.mp4	0.0	328.2256751060486	1.0001559257507324
74	310.0054121017456	pulse	0	t		72.0	2.5	/experiments/knapen_AOT/AOT_stimuli/rescaled_final/0294_fw.mp4	0.0	329.21018719673157	
74	310.02105593681335	movie	1		244	72.0	2.5	/experiments/knapen_AOT/AOT_stimuli/rescaled_final/0294_fw.mp4	0.0	329.2258310317993	2.5086891651153564
74	311.61366510391235	pulse	1	t		72.0	2.5	/experiments/knapen_AOT/AOT_stimuli/rescaled_final/0294_fw.mp4	0.0	330.8184401988983	
74	312.5297451019287	fix_post	2		12	72.0	2.5	/experiments/knapen_AOT/AOT_stimuli/rescaled_final/0294_fw.mp4	0.0	331.7345201969147	0.10000181198120117
75	312.6297469139099	fix_pre	0		120	73.0	2.5	/experiments/knapen_AOT/AOT_stimuli/rescaled_final/0297_rv.mp4	0.0	331.8345220088959	1.0001649856567383
75	313.2058050632477	pulse	0	t		73.0	2.5	/experiments/knapen_AOT/AOT_stimuli/rescaled_final/0297_rv.mp4	0.0	332.41058015823364	
75	313.62991189956665	movie	1		242	73.0	2.5	/experiments/knapen_AOT/AOT_stimuli/rescaled_final/0297_rv.mp4	0.0	332.8346869945526	2.500481128692627
75	314.80578899383545	pulse	1	t		73.0	2.5	/experiments/knapen_AOT/AOT_stimuli/rescaled_final/0297_rv.mp4	0.0	334.0105640888214	
75	316.1303930282593	fix_post	2		12	73.0	2.5	/experiments/knapen_AOT/AOT_stimuli/rescaled_final/0297_rv.mp4	0.0	335.33516812324524	0.0999290943145752
76	316.23032212257385	fix_pre	0		119	74.0	2.5	/experiments/knapen_AOT/AOT_stimuli/rescaled_final/0572_fw.mp4	0.0	335.4350972175598	1.000128984451294
76	316.4055440425873	pulse	0	t		74.0	2.5	/experiments/knapen_AOT/AOT_stimuli/rescaled_final/0572_fw.mp4	0.0	335.61031913757324	
76	317.23045110702515	movie	1		244	74.0	2.5	/experiments/knapen_AOT/AOT_stimuli/rescaled_final/0572_fw.mp4	0.0	336.4352262020111	2.5003910064697266
76	318.0056939125061	pulse	1	t		74.0	2.5	/experiments/knapen_AOT/AOT_stimuli/rescaled_final/0572_fw.mp4	0.0	337.21046900749207	
76	319.60588812828064	pulse	1	t		74.0	2.5	/experiments/knapen_AOT/AOT_stimuli/rescaled_final/0572_fw.mp4	0.0	338.8106632232666	
76	319.7308421134949	fix_post	2		12	74.0	2.5	/experiments/knapen_AOT/AOT_stimuli/rescaled_final/0572_fw.mp4	0.0	338.93561720848083	0.10001587867736816
77	319.83085799217224	fix_pre	0		119	75.0	2.5	/experiments/knapen_AOT/AOT_stimuli/rescaled_final/1036_fw.mp4	0.0	339.0356330871582	0.9918339252471924
77	320.82269191741943	movie	1		242	75.0	2.5	/experiments/knapen_AOT/AOT_stimuli/rescaled_final/1036_fw.mp4	0.0	340.0274670124054	2.5004191398620605
77	321.20753812789917	pulse	1	t		75.0	2.5	/experiments/knapen_AOT/AOT_stimuli/rescaled_final/1036_fw.mp4	0.0	340.41231322288513	
77	322.80656695365906	pulse	1	t		75.0	2.5	/experiments/knapen_AOT/AOT_stimuli/rescaled_final/1036_fw.mp4	0.0	342.011342048645	
77	323.3231110572815	fix_post	2		12	75.0	2.5	/experiments/knapen_AOT/AOT_stimuli/rescaled_final/1036_fw.mp4	0.0	342.52788615226746	0.09990906715393066
78	323.4230201244354	fix_pre	0		119	76.0	2.5	blank	1.0	342.6277952194214	0.9918258190155029
78	324.40672993659973	pulse	0	t		76.0	2.5	blank	1.0	343.6115050315857	
78	324.4148459434509	movie	1		301	76.0	2.5	blank	1.0	343.6196210384369	2.5087461471557617
78	326.0068709850311	pulse	1	t		76.0	2.5	blank	1.0	345.2116460800171	
78	326.9235920906067	fix_post	2		12	76.0	2.5	blank	1.0	346.12836718559265	0.09999203681945801
79	327.02358412742615	fix_pre	0		120	77.0	2.5	/experiments/knapen_AOT/AOT_stimuli/rescaled_final/1099_rv.mp4	0.0	346.2283592224121	1.0001599788665771
79	327.607115983963	pulse	0	t		77.0	2.5	/experiments/knapen_AOT/AOT_stimuli/rescaled_final/1099_rv.mp4	0.0	346.811891078949	
79	328.0237441062927	movie	1		243	77.0	2.5	/experiments/knapen_AOT/AOT_stimuli/rescaled_final/1099_rv.mp4	0.0	347.2285192012787	2.5003888607025146
79	329.2074439525604	pulse	1	t		77.0	2.5	/experiments/knapen_AOT/AOT_stimuli/rescaled_final/1099_rv.mp4	0.0	348.4122190475464	
79	330.52413296699524	fix_post	2		12	77.0	2.5	/experiments/knapen_AOT/AOT_stimuli/rescaled_final/1099_rv.mp4	0.0	349.7289080619812	0.09998106956481934
80	330.62411403656006	fix_pre	0		120	78.0	2.5	/experiments/knapen_AOT/AOT_stimuli/rescaled_final/0334_fw.mp4	0.0	349.828889131546	1.0001468658447266
80	330.807687997818	pulse	0	t		78.0	2.5	/experiments/knapen_AOT/AOT_stimuli/rescaled_final/0334_fw.mp4	0.0	350.01246309280396	
80	331.6242609024048	movie	1		244	78.0	2.5	/experiments/knapen_AOT/AOT_stimuli/rescaled_final/0334_fw.mp4	0.0	350.82903599739075	2.5003621578216553
80	332.4080059528351	pulse	1	t		78.0	2.5	/experiments/knapen_AOT/AOT_stimuli/rescaled_final/0334_fw.mp4	0.0	351.61278104782104	
80	334.0081079006195	pulse	1	t		78.0	2.5	/experiments/knapen_AOT/AOT_stimuli/rescaled_final/0334_fw.mp4	0.0	353.21288299560547	
80	334.12462306022644	fix_post	2		12	78.0	2.5	/experiments/knapen_AOT/AOT_stimuli/rescaled_final/0334_fw.mp4	0.0	353.3293981552124	0.10002899169921875
81	334.22465205192566	fix_pre	0		120	79.0	2.5	/experiments/knapen_AOT/AOT_stimuli/rescaled_final/1255_rv.mp4	0.0	353.4294271469116	1.0001509189605713
81	335.22480297088623	movie	1		241	79.0	2.5	/experiments/knapen_AOT/AOT_stimuli/rescaled_final/1255_rv.mp4	0.0	354.4295780658722	2.4920270442962646
81	335.6097159385681	pulse	1	t		79.0	2.5	/experiments/knapen_AOT/AOT_stimuli/rescaled_final/1255_rv.mp4	0.0	354.8144910335541	
81	337.20862102508545	pulse	1	t		79.0	2.5	/experiments/knapen_AOT/AOT_stimuli/rescaled_final/1255_rv.mp4	0.0	356.4133961200714	
81	337.7168300151825	fix_post	2		12	79.0	2.5	/experiments/knapen_AOT/AOT_stimuli/rescaled_final/1255_rv.mp4	0.0	356.92160511016846	0.10003495216369629
82	337.8168649673462	fix_pre	0		120	80.0	2.5	/experiments/knapen_AOT/AOT_stimuli/rescaled_final/1099_rv.mp4	0.0	357.02164006233215	1.0001189708709717
82	338.8089699745178	pulse	0	t		80.0	2.5	/experiments/knapen_AOT/AOT_stimuli/rescaled_final/1099_rv.mp4	0.0	358.0137450695038	
82	338.81698393821716	movie	1		244	80.0	2.5	/experiments/knapen_AOT/AOT_stimuli/rescaled_final/1099_rv.mp4	0.0	358.0217590332031	2.5087461471557617
82	340.4097340106964	pulse	1	t		80.0	2.5	/experiments/knapen_AOT/AOT_stimuli/rescaled_final/1099_rv.mp4	0.0	359.6145091056824	
82	341.3257300853729	fix_post	2		12	80.0	2.5	/experiments/knapen_AOT/AOT_stimuli/rescaled_final/1099_rv.mp4	0.0	360.5305051803589	0.09998703002929688
83	341.4257171154022	fix_pre	0		120	81.0	2.5	/experiments/knapen_AOT/AOT_stimuli/rescaled_final/1754_rv.mp4	0.0	360.6304922103882	1.000194787979126
83	342.0092930793762	pulse	0	t		81.0	2.5	/experiments/knapen_AOT/AOT_stimuli/rescaled_final/1754_rv.mp4	0.0	361.2140681743622	
83	342.42591190338135	movie	1		246	81.0	2.5	/experiments/knapen_AOT/AOT_stimuli/rescaled_final/1754_rv.mp4	0.0	361.6306869983673	2.500345230102539
83	343.6096589565277	pulse	1	t		81.0	2.5	/experiments/knapen_AOT/AOT_stimuli/rescaled_final/1754_rv.mp4	0.0	362.8144340515137	
83	344.9262571334839	fix_post	2		12	81.0	2.5	/experiments/knapen_AOT/AOT_stimuli/rescaled_final/1754_rv.mp4	0.0	364.13103222846985	0.09998583793640137
84	345.0262429714203	fix_pre	0		120	82.0	2.5	/experiments/knapen_AOT/AOT_stimuli/rescaled_final/1785_fw.mp4	0.0	364.23101806640625	1.0001630783081055
84	345.2099199295044	pulse	0	t		82.0	2.5	/experiments/knapen_AOT/AOT_stimuli/rescaled_final/1785_fw.mp4	0.0	364.41469502449036	
84	346.0264060497284	movie	1		242	82.0	2.5	/experiments/knapen_AOT/AOT_stimuli/rescaled_final/1785_fw.mp4	0.0	365.23118114471436	2.5005478858947754
84	346.8100121021271	pulse	1	t		82.0	2.5	/experiments/knapen_AOT/AOT_stimuli/rescaled_final/1785_fw.mp4	0.0	366.01478719711304	
84	348.4100649356842	pulse	1	t		82.0	2.5	/experiments/knapen_AOT/AOT_stimuli/rescaled_final/1785_fw.mp4	0.0	367.61484003067017	
84	348.52695393562317	fix_post	2		12	82.0	2.5	/experiments/knapen_AOT/AOT_stimuli/rescaled_final/1785_fw.mp4	0.0	367.73172903060913	0.09988117218017578
85	348.62683510780334	fix_pre	0		120	83.0	2.5	blank	1.0	367.8316102027893	1.0001389980316162
85	349.62697410583496	movie	1		299	83.0	2.5	blank	1.0	368.8317492008209	2.4920198917388916
85	350.01052808761597	pulse	1	t		83.0	2.5	blank	1.0	369.21530318260193	
85	351.6107499599457	pulse	1	t		83.0	2.5	blank	1.0	370.81552505493164	
85	352.11899399757385	fix_post	2		12	83.0	2.5	blank	1.0	371.3237690925598	0.10002493858337402
87	352.2190189361572	stim	0		1716					371.4237940311432	14.302150011062622
87	353.2111349105835	pulse	0	t						372.41591000556946	
87	354.81134510040283	pulse	0	t						374.0161201953888	
87	356.41145610809326	pulse	0	t						375.6162312030792	
87	358.0117359161377	pulse	0	t						377.21651101112366	
87	359.6119830608368	pulse	0	t						378.81675815582275	
87	361.2121489048004	pulse	0	t						380.4169239997864	
87	362.8050661087036	pulse	0	t						382.0098412036896	
87	364.4051830768585	pulse	0	t						383.6099581718445	
87	366.0054829120636	pulse	0	t						385.21025800704956	
