trial_nr	onset	event_type	phase	response	nr_frames	movie_index	movie_duration	movie_file	blank	onset_abs	duration
0	0.2080678939819336	stim	0		262					23.98204779624939	2.1837289333343506
0	2.3836569786071777	response	0	space						26.157636880874634	
1	2.391796827316284	stim	0		5672					26.16577672958374	47.28533911705017
1	49.66720795631409	pulse	0	t						73.44118785858154	
1	49.677135944366455	stim	1		1716					73.45111584663391	14.307133913040161
1	51.25770902633667	pulse	1	t						75.03168892860413	
1	52.85783791542053	pulse	1	t						76.63181781768799	
1	54.45804286003113	pulse	1	t						78.23202276229858	
1	56.05828499794006	pulse	1	t						79.83226490020752	
1	57.65854787826538	pulse	1	t						81.43252778053284	
1	59.25881004333496	pulse	1	t						83.03278994560242	
1	60.859017848968506	pulse	1	t						84.63299775123596	
1	62.459254026412964	pulse	1	t						86.23323392868042	
2	63.984269857406616	fix_pre	0		10	0.0	2.5	/experiments/knapen_AOT/AOT_stimuli/rescaled_final/1517_rv.mp4	0.0	87.75824975967407	0.08340907096862793
2	64.05961489677429	pulse	0	t		0.0	2.5	/experiments/knapen_AOT/AOT_stimuli/rescaled_final/1517_rv.mp4	0.0	87.83359479904175	
2	64.06767892837524	movie	1		245	0.0	2.5	/experiments/knapen_AOT/AOT_stimuli/rescaled_final/1517_rv.mp4	0.0	87.8416588306427	2.5086441040039062
2	65.66038799285889	pulse	1	t		0.0	2.5	/experiments/knapen_AOT/AOT_stimuli/rescaled_final/1517_rv.mp4	0.0	89.43436789512634	
2	66.57632303237915	fix_post	2		12	0.0	2.5	/experiments/knapen_AOT/AOT_stimuli/rescaled_final/1517_rv.mp4	0.0	90.3503029346466	0.10005784034729004
3	66.67638087272644	fix_pre	0		120	1.0	2.5	/experiments/knapen_AOT/AOT_stimuli/rescaled_final/0201_fw.mp4	0.0	90.4503607749939	1.0001959800720215
3	67.2600929737091	pulse	0	t		1.0	2.5	/experiments/knapen_AOT/AOT_stimuli/rescaled_final/0201_fw.mp4	0.0	91.03407287597656	
3	67.67657685279846	movie	1		244	1.0	2.5	/experiments/knapen_AOT/AOT_stimuli/rescaled_final/0201_fw.mp4	0.0	91.45055675506592	2.5003020763397217
3	68.86025786399841	pulse	1	t		1.0	2.5	/experiments/knapen_AOT/AOT_stimuli/rescaled_final/0201_fw.mp4	0.0	92.63423776626587	
3	70.17687892913818	fix_post	2		12	1.0	2.5	/experiments/knapen_AOT/AOT_stimuli/rescaled_final/0201_fw.mp4	0.0	93.95085883140564	0.10000109672546387
4	70.27688002586365	fix_pre	0		120	2.0	2.5	/experiments/knapen_AOT/AOT_stimuli/rescaled_final/0939_fw.mp4	0.0	94.0508599281311	1.0001659393310547
4	70.46049785614014	pulse	0	t		2.0	2.5	/experiments/knapen_AOT/AOT_stimuli/rescaled_final/0939_fw.mp4	0.0	94.23447775840759	
4	71.2770459651947	movie	1		244	2.0	2.5	/experiments/knapen_AOT/AOT_stimuli/rescaled_final/0939_fw.mp4	0.0	95.05102586746216	2.500375986099243
4	72.06069684028625	pulse	1	t		2.0	2.5	/experiments/knapen_AOT/AOT_stimuli/rescaled_final/0939_fw.mp4	0.0	95.83467674255371	
4	73.6610939502716	pulse	1	t		2.0	2.5	/experiments/knapen_AOT/AOT_stimuli/rescaled_final/0939_fw.mp4	0.0	97.43507385253906	
4	73.77742195129395	fix_post	2		12	2.0	2.5	/experiments/knapen_AOT/AOT_stimuli/rescaled_final/0939_fw.mp4	0.0	97.5514018535614	0.0999898910522461
5	73.87741184234619	fix_pre	0		120	3.0	2.5	/experiments/knapen_AOT/AOT_stimuli/rescaled_final/1203_rv.mp4	0.0	97.65139174461365	1.000128984451294
5	74.87754082679749	movie	1		243	3.0	2.5	/experiments/knapen_AOT/AOT_stimuli/rescaled_final/1203_rv.mp4	0.0	98.65152072906494	2.4921131134033203
5	75.2618339061737	pulse	1	t		3.0	2.5	/experiments/knapen_AOT/AOT_stimuli/rescaled_final/1203_rv.mp4	0.0	99.03581380844116	
5	76.86145186424255	pulse	1	t		3.0	2.5	/experiments/knapen_AOT/AOT_stimuli/rescaled_final/1203_rv.mp4	0.0	100.63543176651001	
5	77.3696539402008	fix_post	2		12	3.0	2.5	/experiments/knapen_AOT/AOT_stimuli/rescaled_final/1203_rv.mp4	0.0	101.14363384246826	0.09996509552001953
6	77.46961903572083	fix_pre	0		120	4.0	2.5	/experiments/knapen_AOT/AOT_stimuli/rescaled_final/0075_rv.mp4	0.0	101.24359893798828	1.0001869201660156
6	78.46165704727173	pulse	0	t		4.0	2.5	/experiments/knapen_AOT/AOT_stimuli/rescaled_final/0075_rv.mp4	0.0	102.23563694953918	
6	78.46980595588684	movie	1		246	4.0	2.5	/experiments/knapen_AOT/AOT_stimuli/rescaled_final/0075_rv.mp4	0.0	102.2437858581543	2.5087480545043945
6	80.06288599967957	pulse	1	t		4.0	2.5	/experiments/knapen_AOT/AOT_stimuli/rescaled_final/0075_rv.mp4	0.0	103.83686590194702	
6	80.97855401039124	fix_post	2		12	4.0	2.5	/experiments/knapen_AOT/AOT_stimuli/rescaled_final/0075_rv.mp4	0.0	104.75253391265869	0.09993696212768555
7	81.07849097251892	fix_pre	0		120	5.0	2.5	/experiments/knapen_AOT/AOT_stimuli/rescaled_final/2003_fw.mp4	0.0	104.85247087478638	1.000195026397705
7	81.66213989257812	pulse	0	t		5.0	2.5	/experiments/knapen_AOT/AOT_stimuli/rescaled_final/2003_fw.mp4	0.0	105.43611979484558	
7	82.07868599891663	movie	1		243	5.0	2.5	/experiments/knapen_AOT/AOT_stimuli/rescaled_final/2003_fw.mp4	0.0	105.85266590118408	2.5003180503845215
7	83.26256585121155	pulse	1	t		5.0	2.5	/experiments/knapen_AOT/AOT_stimuli/rescaled_final/2003_fw.mp4	0.0	107.036545753479	
7	84.57900404930115	fix_post	2		12	5.0	2.5	/experiments/knapen_AOT/AOT_stimuli/rescaled_final/2003_fw.mp4	0.0	108.3529839515686	0.10004186630249023
8	84.67904591560364	fix_pre	0		120	6.0	2.5	blank	1.0	108.4530258178711	1.000135898590088
8	84.86270093917847	pulse	0	t		6.0	2.5	blank	1.0	108.63668084144592	
8	85.67918181419373	movie	1		300	6.0	2.5	blank	1.0	109.45316171646118	2.5003821849823
8	86.46287703514099	pulse	1	t		6.0	2.5	blank	1.0	110.23685693740845	
8	88.06304883956909	pulse	1	t		6.0	2.5	blank	1.0	111.83702874183655	
8	88.17956399917603	fix_post	2		12	6.0	2.5	blank	1.0	111.95354390144348	0.10003805160522461
9	88.27960205078125	fix_pre	0		120	7.0	2.5	/experiments/knapen_AOT/AOT_stimuli/rescaled_final/2106_rv.mp4	0.0	112.0535819530487	1.000215768814087
9	89.27981781959534	movie	1		243	7.0	2.5	/experiments/knapen_AOT/AOT_stimuli/rescaled_final/2106_rv.mp4	0.0	113.0537977218628	2.491971015930176
9	89.66388893127441	pulse	1	t		7.0	2.5	/experiments/knapen_AOT/AOT_stimuli/rescaled_final/2106_rv.mp4	0.0	113.43786883354187	
9	91.26369190216064	pulse	1	t		7.0	2.5	/experiments/knapen_AOT/AOT_stimuli/rescaled_final/2106_rv.mp4	0.0	115.0376718044281	
9	91.77178883552551	fix_post	2		12	7.0	2.5	/experiments/knapen_AOT/AOT_stimuli/rescaled_final/2106_rv.mp4	0.0	115.54576873779297	0.09998321533203125
10	91.87177205085754	fix_pre	0		120	8.0	2.5	/experiments/knapen_AOT/AOT_stimuli/rescaled_final/1516_rv.mp4	0.0	115.645751953125	1.0001637935638428
10	92.86382603645325	pulse	0	t		8.0	2.5	/experiments/knapen_AOT/AOT_stimuli/rescaled_final/1516_rv.mp4	0.0	116.6378059387207	
10	92.87193584442139	movie	1		245	8.0	2.5	/experiments/knapen_AOT/AOT_stimuli/rescaled_final/1516_rv.mp4	0.0	116.64591574668884	2.508723020553589
10	94.46533298492432	pulse	1	t		8.0	2.5	/experiments/knapen_AOT/AOT_stimuli/rescaled_final/1516_rv.mp4	0.0	118.23931288719177	
10	95.38065886497498	fix_post	2		12	8.0	2.5	/experiments/knapen_AOT/AOT_stimuli/rescaled_final/1516_rv.mp4	0.0	119.15463876724243	0.10000300407409668
11	95.48066186904907	fix_pre	0		120	9.0	2.5	/experiments/knapen_AOT/AOT_stimuli/rescaled_final/1879_rv.mp4	0.0	119.25464177131653	1.0001440048217773
11	96.06425786018372	pulse	0	t		9.0	2.5	/experiments/knapen_AOT/AOT_stimuli/rescaled_final/1879_rv.mp4	0.0	119.83823776245117	
11	96.48080587387085	movie	1		244	9.0	2.5	/experiments/knapen_AOT/AOT_stimuli/rescaled_final/1879_rv.mp4	0.0	120.2547857761383	2.5004279613494873
11	97.6604208946228	pulse	1	t		9.0	2.5	/experiments/knapen_AOT/AOT_stimuli/rescaled_final/1879_rv.mp4	0.0	121.43440079689026	
11	98.98123383522034	fix_post	2		12	9.0	2.5	/experiments/knapen_AOT/AOT_stimuli/rescaled_final/1879_rv.mp4	0.0	122.7552137374878	0.0999290943145752
12	99.08116292953491	fix_pre	0		120	10.0	2.5	/experiments/knapen_AOT/AOT_stimuli/rescaled_final/1921_fw.mp4	0.0	122.85514283180237	1.000204086303711
12	99.25735902786255	pulse	0	t		10.0	2.5	/experiments/knapen_AOT/AOT_stimuli/rescaled_final/1921_fw.mp4	0.0	123.03133893013	
12	100.08136701583862	movie	1		243	10.0	2.5	/experiments/knapen_AOT/AOT_stimuli/rescaled_final/1921_fw.mp4	0.0	123.85534691810608	2.500330924987793
12	100.85766696929932	pulse	1	t		10.0	2.5	/experiments/knapen_AOT/AOT_stimuli/rescaled_final/1921_fw.mp4	0.0	124.63164687156677	
12	102.4652168750763	pulse	1	t		10.0	2.5	/experiments/knapen_AOT/AOT_stimuli/rescaled_final/1921_fw.mp4	0.0	126.23919677734375	
12	102.58169794082642	fix_post	2		12	10.0	2.5	/experiments/knapen_AOT/AOT_stimuli/rescaled_final/1921_fw.mp4	0.0	126.35567784309387	0.1000509262084961
13	102.68174886703491	fix_pre	0		119	11.0	2.5	/experiments/knapen_AOT/AOT_stimuli/rescaled_final/0266_rv.mp4	0.0	126.45572876930237	0.9918720722198486
13	103.67362093925476	movie	1		246	11.0	2.5	/experiments/knapen_AOT/AOT_stimuli/rescaled_final/0266_rv.mp4	0.0	127.44760084152222	2.500469923019409
13	104.05819082260132	pulse	1	t		11.0	2.5	/experiments/knapen_AOT/AOT_stimuli/rescaled_final/0266_rv.mp4	0.0	127.83217072486877	
13	105.65735101699829	pulse	1	t		11.0	2.5	/experiments/knapen_AOT/AOT_stimuli/rescaled_final/0266_rv.mp4	0.0	129.43133091926575	
13	106.17409086227417	fix_post	2		9	11.0	2.5	/experiments/knapen_AOT/AOT_stimuli/rescaled_final/0266_rv.mp4	0.0	129.94807076454163	0.09983706474304199
14	106.27392792701721	fix_pre	0		119	12.0	2.5	/experiments/knapen_AOT/AOT_stimuli/rescaled_final/2065_rv.mp4	0.0	130.04790782928467	0.991832971572876
14	107.25758600234985	pulse	0	t		12.0	2.5	/experiments/knapen_AOT/AOT_stimuli/rescaled_final/2065_rv.mp4	0.0	131.0315659046173	
14	107.26576089859009	movie	1		245	12.0	2.5	/experiments/knapen_AOT/AOT_stimuli/rescaled_final/2065_rv.mp4	0.0	131.03974080085754	2.508707046508789
14	108.85853981971741	pulse	1	t		12.0	2.5	/experiments/knapen_AOT/AOT_stimuli/rescaled_final/2065_rv.mp4	0.0	132.63251972198486	
14	109.77446794509888	fix_post	2		12	12.0	2.5	/experiments/knapen_AOT/AOT_stimuli/rescaled_final/2065_rv.mp4	0.0	133.54844784736633	0.09999203681945801
15	109.87445998191833	fix_pre	0		120	13.0	2.5	/experiments/knapen_AOT/AOT_stimuli/rescaled_final/1094_fw.mp4	0.0	133.6484398841858	1.0001928806304932
15	110.45806002616882	pulse	0	t		13.0	2.5	/experiments/knapen_AOT/AOT_stimuli/rescaled_final/1094_fw.mp4	0.0	134.23203992843628	
15	110.87465286254883	movie	1		243	13.0	2.5	/experiments/knapen_AOT/AOT_stimuli/rescaled_final/1094_fw.mp4	0.0	134.64863276481628	2.500307083129883
15	112.05840301513672	pulse	1	t		13.0	2.5	/experiments/knapen_AOT/AOT_stimuli/rescaled_final/1094_fw.mp4	0.0	135.83238291740417	
15	113.37495994567871	fix_post	2		12	13.0	2.5	/experiments/knapen_AOT/AOT_stimuli/rescaled_final/1094_fw.mp4	0.0	137.14893984794617	0.10003304481506348
16	113.47499299049377	fix_pre	0		120	14.0	2.5	blank	1.0	137.24897289276123	1.000135898590088
16	113.6585898399353	pulse	0	t		14.0	2.5	blank	1.0	137.43256974220276	
16	114.47512888908386	movie	1		300	14.0	2.5	blank	1.0	138.24910879135132	2.5004260540008545
16	115.25882482528687	pulse	1	t		14.0	2.5	blank	1.0	139.03280472755432	
16	116.8589859008789	pulse	1	t		14.0	2.5	blank	1.0	140.63296580314636	
16	116.97555494308472	fix_post	2		12	14.0	2.5	blank	1.0	140.74953484535217	0.09998798370361328
17	117.07554292678833	fix_pre	0		120	15.0	2.5	/experiments/knapen_AOT/AOT_stimuli/rescaled_final/0855_fw.mp4	0.0	140.8495228290558	1.0001990795135498
17	118.07574200630188	movie	1		243	15.0	2.5	/experiments/knapen_AOT/AOT_stimuli/rescaled_final/0855_fw.mp4	0.0	141.84972190856934	2.4919610023498535
17	118.46378302574158	pulse	1	t		15.0	2.5	/experiments/knapen_AOT/AOT_stimuli/rescaled_final/0855_fw.mp4	0.0	142.23776292800903	
17	120.05952095985413	pulse	1	t		15.0	2.5	/experiments/knapen_AOT/AOT_stimuli/rescaled_final/0855_fw.mp4	0.0	143.83350086212158	
17	120.56770300865173	fix_post	2		12	15.0	2.5	/experiments/knapen_AOT/AOT_stimuli/rescaled_final/0855_fw.mp4	0.0	144.3416829109192	0.10005402565002441
18	120.66775703430176	fix_pre	0		120	16.0	2.5	/experiments/knapen_AOT/AOT_stimuli/rescaled_final/1516_fw.mp4	0.0	144.4417369365692	1.0001509189605713
18	121.65985894203186	pulse	0	t		16.0	2.5	/experiments/knapen_AOT/AOT_stimuli/rescaled_final/1516_fw.mp4	0.0	145.43383884429932	
18	121.66790795326233	movie	1		246	16.0	2.5	/experiments/knapen_AOT/AOT_stimuli/rescaled_final/1516_fw.mp4	0.0	145.44188785552979	2.5087199211120605
18	123.26067090034485	pulse	1	t		16.0	2.5	/experiments/knapen_AOT/AOT_stimuli/rescaled_final/1516_fw.mp4	0.0	147.0346508026123	
18	124.17662787437439	fix_post	2		12	16.0	2.5	/experiments/knapen_AOT/AOT_stimuli/rescaled_final/1516_fw.mp4	0.0	147.95060777664185	0.1000220775604248
19	124.27664995193481	fix_pre	0		120	17.0	2.5	/experiments/knapen_AOT/AOT_stimuli/rescaled_final/1208_rv.mp4	0.0	148.05062985420227	1.0001349449157715
19	124.86021089553833	pulse	0	t		17.0	2.5	/experiments/knapen_AOT/AOT_stimuli/rescaled_final/1208_rv.mp4	0.0	148.6341907978058	
19	125.27678489685059	movie	1		244	17.0	2.5	/experiments/knapen_AOT/AOT_stimuli/rescaled_final/1208_rv.mp4	0.0	149.05076479911804	2.5003819465637207
19	126.46068787574768	pulse	1	t		17.0	2.5	/experiments/knapen_AOT/AOT_stimuli/rescaled_final/1208_rv.mp4	0.0	150.23466777801514	
19	127.7771668434143	fix_post	2		12	17.0	2.5	/experiments/knapen_AOT/AOT_stimuli/rescaled_final/1208_rv.mp4	0.0	151.55114674568176	0.09998798370361328
20	127.87715482711792	fix_pre	0		120	18.0	2.5	/experiments/knapen_AOT/AOT_stimuli/rescaled_final/1205_fw.mp4	0.0	151.65113472938538	1.0001211166381836
20	128.0608048439026	pulse	0	t		18.0	2.5	/experiments/knapen_AOT/AOT_stimuli/rescaled_final/1205_fw.mp4	0.0	151.83478474617004	
20	128.8772759437561	movie	1		245	18.0	2.5	/experiments/knapen_AOT/AOT_stimuli/rescaled_final/1205_fw.mp4	0.0	152.65125584602356	2.5003790855407715
20	129.66104102134705	pulse	1	t		18.0	2.5	/experiments/knapen_AOT/AOT_stimuli/rescaled_final/1205_fw.mp4	0.0	153.4350209236145	
20	131.2587239742279	pulse	1	t		18.0	2.5	/experiments/knapen_AOT/AOT_stimuli/rescaled_final/1205_fw.mp4	0.0	155.03270387649536	
20	131.37765502929688	fix_post	2		12	18.0	2.5	/experiments/knapen_AOT/AOT_stimuli/rescaled_final/1205_fw.mp4	0.0	155.15163493156433	0.10007882118225098
21	131.47773385047913	fix_pre	0		120	19.0	2.5	/experiments/knapen_AOT/AOT_stimuli/rescaled_final/0501_fw.mp4	0.0	155.25171375274658	1.0001311302185059
21	132.47786498069763	movie	1		243	19.0	2.5	/experiments/knapen_AOT/AOT_stimuli/rescaled_final/0501_fw.mp4	0.0	156.2518448829651	2.4920389652252197
21	132.8655698299408	pulse	1	t		19.0	2.5	/experiments/knapen_AOT/AOT_stimuli/rescaled_final/0501_fw.mp4	0.0	156.63954973220825	
21	134.46179485321045	pulse	1	t		19.0	2.5	/experiments/knapen_AOT/AOT_stimuli/rescaled_final/0501_fw.mp4	0.0	158.2357747554779	
21	134.96990394592285	fix_post	2		12	19.0	2.5	/experiments/knapen_AOT/AOT_stimuli/rescaled_final/0501_fw.mp4	0.0	158.7438838481903	0.10001301765441895
22	135.06991696357727	fix_pre	0		120	20.0	2.5	/experiments/knapen_AOT/AOT_stimuli/rescaled_final/2133_fw.mp4	0.0	158.84389686584473	1.000128984451294
22	136.06201004981995	pulse	0	t		20.0	2.5	/experiments/knapen_AOT/AOT_stimuli/rescaled_final/2133_fw.mp4	0.0	159.8359899520874	
22	136.07004594802856	movie	1		244	20.0	2.5	/experiments/knapen_AOT/AOT_stimuli/rescaled_final/2133_fw.mp4	0.0	159.84402585029602	2.5087530612945557
22	137.66269898414612	pulse	1	t		20.0	2.5	/experiments/knapen_AOT/AOT_stimuli/rescaled_final/2133_fw.mp4	0.0	161.43667888641357	
22	138.57879900932312	fix_post	2		12	20.0	2.5	/experiments/knapen_AOT/AOT_stimuli/rescaled_final/2133_fw.mp4	0.0	162.35277891159058	0.09996485710144043
23	138.67876386642456	fix_pre	0		120	21.0	2.5	blank	1.0	162.45274376869202	1.0001740455627441
23	139.26240491867065	pulse	0	t		21.0	2.5	blank	1.0	163.0363848209381	
23	139.6789379119873	movie	1		300	21.0	2.5	blank	1.0	163.45291781425476	2.500375986099243
23	140.86270999908447	pulse	1	t		21.0	2.5	blank	1.0	164.63668990135193	
23	142.17931389808655	fix_post	2		12	21.0	2.5	blank	1.0	165.953293800354	0.10005593299865723
24	142.2793698310852	fix_pre	0		120	22.0	2.5	/experiments/knapen_AOT/AOT_stimuli/rescaled_final/0472_rv.mp4	0.0	166.05334973335266	1.0001001358032227
24	142.46296191215515	pulse	0	t		22.0	2.5	/experiments/knapen_AOT/AOT_stimuli/rescaled_final/0472_rv.mp4	0.0	166.2369418144226	
24	143.27946996688843	movie	1		244	22.0	2.5	/experiments/knapen_AOT/AOT_stimuli/rescaled_final/0472_rv.mp4	0.0	167.05344986915588	2.5003349781036377
24	144.06308794021606	pulse	1	t		22.0	2.5	/experiments/knapen_AOT/AOT_stimuli/rescaled_final/0472_rv.mp4	0.0	167.83706784248352	
24	145.66335701942444	pulse	1	t		22.0	2.5	/experiments/knapen_AOT/AOT_stimuli/rescaled_final/0472_rv.mp4	0.0	169.4373369216919	
24	145.77980494499207	fix_post	2		12	22.0	2.5	/experiments/knapen_AOT/AOT_stimuli/rescaled_final/0472_rv.mp4	0.0	169.55378484725952	0.10004591941833496
25	145.8798508644104	fix_pre	0		120	23.0	2.5	/experiments/knapen_AOT/AOT_stimuli/rescaled_final/0711_fw.mp4	0.0	169.65383076667786	1.0001351833343506
25	146.87998604774475	movie	1		244	23.0	2.5	/experiments/knapen_AOT/AOT_stimuli/rescaled_final/0711_fw.mp4	0.0	170.6539659500122	2.492100954055786
25	147.26476001739502	pulse	1	t		23.0	2.5	/experiments/knapen_AOT/AOT_stimuli/rescaled_final/0711_fw.mp4	0.0	171.03873991966248	
25	148.8639588356018	pulse	1	t		23.0	2.5	/experiments/knapen_AOT/AOT_stimuli/rescaled_final/0711_fw.mp4	0.0	172.63793873786926	
25	149.37208700180054	fix_post	2		12	23.0	2.5	/experiments/knapen_AOT/AOT_stimuli/rescaled_final/0711_fw.mp4	0.0	173.146066904068	0.09996604919433594
26	149.47205305099487	fix_pre	0		120	24.0	2.5	/experiments/knapen_AOT/AOT_stimuli/rescaled_final/0423_rv.mp4	0.0	173.24603295326233	1.0001349449157715
26	150.46413588523865	pulse	0	t		24.0	2.5	/experiments/knapen_AOT/AOT_stimuli/rescaled_final/0423_rv.mp4	0.0	174.2381157875061	
26	150.47218799591064	movie	1		245	24.0	2.5	/experiments/knapen_AOT/AOT_stimuli/rescaled_final/0423_rv.mp4	0.0	174.2461678981781	2.508678913116455
26	152.06468796730042	pulse	1	t		24.0	2.5	/experiments/knapen_AOT/AOT_stimuli/rescaled_final/0423_rv.mp4	0.0	175.83866786956787	
26	152.9808669090271	fix_post	2		12	24.0	2.5	/experiments/knapen_AOT/AOT_stimuli/rescaled_final/0423_rv.mp4	0.0	176.75484681129456	0.10005497932434082
27	153.08092188835144	fix_pre	0		120	25.0	2.5	/experiments/knapen_AOT/AOT_stimuli/rescaled_final/1636_fw.mp4	0.0	176.8549017906189	1.0001609325408936
27	153.6570188999176	pulse	0	t		25.0	2.5	/experiments/knapen_AOT/AOT_stimuli/rescaled_final/1636_fw.mp4	0.0	177.43099880218506	
27	154.08108282089233	movie	1		245	25.0	2.5	/experiments/knapen_AOT/AOT_stimuli/rescaled_final/1636_fw.mp4	0.0	177.8550627231598	2.5003581047058105
27	155.25708603858948	pulse	1	t		25.0	2.5	/experiments/knapen_AOT/AOT_stimuli/rescaled_final/1636_fw.mp4	0.0	179.03106594085693	
27	156.58144092559814	fix_post	2		12	25.0	2.5	/experiments/knapen_AOT/AOT_stimuli/rescaled_final/1636_fw.mp4	0.0	180.3554208278656	0.09999489784240723
28	156.68143582344055	fix_pre	0		120	26.0	2.5	/experiments/knapen_AOT/AOT_stimuli/rescaled_final/0075_rv.mp4	0.0	180.455415725708	1.0001840591430664
28	156.85749197006226	pulse	0	t		26.0	2.5	/experiments/knapen_AOT/AOT_stimuli/rescaled_final/0075_rv.mp4	0.0	180.6314718723297	
28	157.68161988258362	movie	1		244	26.0	2.5	/experiments/knapen_AOT/AOT_stimuli/rescaled_final/0075_rv.mp4	0.0	181.45559978485107	2.5003719329833984
28	158.4569079875946	pulse	1	t		26.0	2.5	/experiments/knapen_AOT/AOT_stimuli/rescaled_final/0075_rv.mp4	0.0	182.23088788986206	
28	160.05712985992432	pulse	1	t		26.0	2.5	/experiments/knapen_AOT/AOT_stimuli/rescaled_final/0075_rv.mp4	0.0	183.83110976219177	
28	160.18199181556702	fix_post	2		12	26.0	2.5	/experiments/knapen_AOT/AOT_stimuli/rescaled_final/0075_rv.mp4	0.0	183.95597171783447	0.09999608993530273
29	160.28198790550232	fix_pre	0		120	27.0	2.5	blank	1.0	184.05596780776978	1.0001699924468994
29	161.28215789794922	movie	1		299	27.0	2.5	blank	1.0	185.05613780021667	2.4920849800109863
29	161.65750789642334	pulse	1	t		27.0	2.5	blank	1.0	185.4314877986908	
29	163.25760293006897	pulse	1	t		27.0	2.5	blank	1.0	187.03158283233643	
29	163.7742428779602	fix_post	2		12	27.0	2.5	blank	1.0	187.54822278022766	0.10003900527954102
30	163.87428188323975	fix_pre	0		116	28.0	2.5	/experiments/knapen_AOT/AOT_stimuli/rescaled_final/1801_fw.mp4	0.0	187.6482617855072	0.9917480945587158
30	164.85805201530457	pulse	0	t		28.0	2.5	/experiments/knapen_AOT/AOT_stimuli/rescaled_final/1801_fw.mp4	0.0	188.63203191757202	
30	164.86602997779846	movie	1		244	28.0	2.5	/experiments/knapen_AOT/AOT_stimuli/rescaled_final/1801_fw.mp4	0.0	188.64000988006592	2.508749008178711
30	166.45880484580994	pulse	1	t		28.0	2.5	/experiments/knapen_AOT/AOT_stimuli/rescaled_final/1801_fw.mp4	0.0	190.2327847480774	
30	167.37477898597717	fix_post	2		12	28.0	2.5	/experiments/knapen_AOT/AOT_stimuli/rescaled_final/1801_fw.mp4	0.0	191.14875888824463	0.09999585151672363
31	167.4747748374939	fix_pre	0		120	29.0	2.5	/experiments/knapen_AOT/AOT_stimuli/rescaled_final/0545_rv.mp4	0.0	191.24875473976135	1.000133991241455
31	168.05836081504822	pulse	0	t		29.0	2.5	/experiments/knapen_AOT/AOT_stimuli/rescaled_final/0545_rv.mp4	0.0	191.83234071731567	
31	168.47490882873535	movie	1		245	29.0	2.5	/experiments/knapen_AOT/AOT_stimuli/rescaled_final/0545_rv.mp4	0.0	192.2488887310028	2.5003671646118164
31	169.65857887268066	pulse	1	t		29.0	2.5	/experiments/knapen_AOT/AOT_stimuli/rescaled_final/0545_rv.mp4	0.0	193.43255877494812	
31	170.97527599334717	fix_post	2		12	29.0	2.5	/experiments/knapen_AOT/AOT_stimuli/rescaled_final/0545_rv.mp4	0.0	194.74925589561462	0.10001587867736816
32	171.07529187202454	fix_pre	0		120	30.0	2.5	/experiments/knapen_AOT/AOT_stimuli/rescaled_final/0149_fw.mp4	0.0	194.849271774292	1.0001411437988281
32	171.2588529586792	pulse	0	t		30.0	2.5	/experiments/knapen_AOT/AOT_stimuli/rescaled_final/0149_fw.mp4	0.0	195.03283286094666	
32	172.07543301582336	movie	1		244	30.0	2.5	/experiments/knapen_AOT/AOT_stimuli/rescaled_final/0149_fw.mp4	0.0	195.84941291809082	2.5003628730773926
32	172.85910391807556	pulse	1	t		30.0	2.5	/experiments/knapen_AOT/AOT_stimuli/rescaled_final/0149_fw.mp4	0.0	196.63308382034302	
32	174.45942091941833	pulse	1	t		30.0	2.5	/experiments/knapen_AOT/AOT_stimuli/rescaled_final/0149_fw.mp4	0.0	198.2334008216858	
32	174.57579588890076	fix_post	2		12	30.0	2.5	/experiments/knapen_AOT/AOT_stimuli/rescaled_final/0149_fw.mp4	0.0	198.3497757911682	0.10006499290466309
33	174.67586088180542	fix_pre	0		120	31.0	2.5	/experiments/knapen_AOT/AOT_stimuli/rescaled_final/1118_rv.mp4	0.0	198.44984078407288	1.0001201629638672
33	175.6759810447693	movie	1		242	31.0	2.5	/experiments/knapen_AOT/AOT_stimuli/rescaled_final/1118_rv.mp4	0.0	199.44996094703674	2.4920499324798584
33	176.06013989448547	pulse	1	t		31.0	2.5	/experiments/knapen_AOT/AOT_stimuli/rescaled_final/1118_rv.mp4	0.0	199.83411979675293	
33	177.65979981422424	pulse	1	t		31.0	2.5	/experiments/knapen_AOT/AOT_stimuli/rescaled_final/1118_rv.mp4	0.0	201.4337797164917	
33	178.16803097724915	fix_post	2		12	31.0	2.5	/experiments/knapen_AOT/AOT_stimuli/rescaled_final/1118_rv.mp4	0.0	201.9420108795166	0.09996604919433594
34	178.26799702644348	fix_pre	0		120	32.0	2.5	/experiments/knapen_AOT/AOT_stimuli/rescaled_final/0433_fw.mp4	0.0	202.04197692871094	1.0002210140228271
34	179.26003789901733	pulse	0	t		32.0	2.5	/experiments/knapen_AOT/AOT_stimuli/rescaled_final/0433_fw.mp4	0.0	203.0340178012848	
34	179.2682180404663	movie	1		245	32.0	2.5	/experiments/knapen_AOT/AOT_stimuli/rescaled_final/0433_fw.mp4	0.0	203.04219794273376	2.5086519718170166
34	180.86488103866577	pulse	1	t		32.0	2.5	/experiments/knapen_AOT/AOT_stimuli/rescaled_final/0433_fw.mp4	0.0	204.63886094093323	
34	181.77687001228333	fix_post	2		12	32.0	2.5	/experiments/knapen_AOT/AOT_stimuli/rescaled_final/0433_fw.mp4	0.0	205.55084991455078	0.10002994537353516
35	181.87689995765686	fix_pre	0		120	33.0	2.5	/experiments/knapen_AOT/AOT_stimuli/rescaled_final/0058_fw.mp4	0.0	205.65087985992432	1.0001399517059326
35	182.46062803268433	pulse	0	t		33.0	2.5	/experiments/knapen_AOT/AOT_stimuli/rescaled_final/0058_fw.mp4	0.0	206.23460793495178	
35	182.8770399093628	movie	1		247	33.0	2.5	/experiments/knapen_AOT/AOT_stimuli/rescaled_final/0058_fw.mp4	0.0	206.65101981163025	2.500347137451172
35	184.06083393096924	pulse	1	t		33.0	2.5	/experiments/knapen_AOT/AOT_stimuli/rescaled_final/0058_fw.mp4	0.0	207.8348138332367	
35	185.37738704681396	fix_post	2		12	33.0	2.5	/experiments/knapen_AOT/AOT_stimuli/rescaled_final/0058_fw.mp4	0.0	209.15136694908142	0.10005593299865723
36	185.47744297981262	fix_pre	0		120	34.0	2.5	/experiments/knapen_AOT/AOT_stimuli/rescaled_final/0176_rv.mp4	0.0	209.25142288208008	1.0001230239868164
36	185.66096687316895	pulse	0	t		34.0	2.5	/experiments/knapen_AOT/AOT_stimuli/rescaled_final/0176_rv.mp4	0.0	209.4349467754364	
36	186.47756600379944	movie	1		244	34.0	2.5	/experiments/knapen_AOT/AOT_stimuli/rescaled_final/0176_rv.mp4	0.0	210.2515459060669	2.500396966934204
36	187.26120781898499	pulse	1	t		34.0	2.5	/experiments/knapen_AOT/AOT_stimuli/rescaled_final/0176_rv.mp4	0.0	211.03518772125244	
36	188.8616919517517	pulse	1	t		34.0	2.5	/experiments/knapen_AOT/AOT_stimuli/rescaled_final/0176_rv.mp4	0.0	212.63567185401917	
36	188.97796297073364	fix_post	2		12	34.0	2.5	/experiments/knapen_AOT/AOT_stimuli/rescaled_final/0176_rv.mp4	0.0	212.7519428730011	0.10000395774841309
37	189.07796692848206	fix_pre	0		120	35.0	2.5	blank	1.0	212.8519468307495	1.0001521110534668
37	190.07811903953552	movie	1		299	35.0	2.5	blank	1.0	213.85209894180298	2.492050886154175
37	190.4618158340454	pulse	1	t		35.0	2.5	blank	1.0	214.23579573631287	
37	192.0619080066681	pulse	1	t		35.0	2.5	blank	1.0	215.83588790893555	
37	192.5701699256897	fix_post	2		12	35.0	2.5	blank	1.0	216.34414982795715	0.10000801086425781
38	192.67017793655396	fix_pre	0		120	36.0	2.5	/experiments/knapen_AOT/AOT_stimuli/rescaled_final/1134_fw.mp4	0.0	216.4441578388214	1.0002119541168213
38	193.66213703155518	pulse	0	t		36.0	2.5	/experiments/knapen_AOT/AOT_stimuli/rescaled_final/1134_fw.mp4	0.0	217.43611693382263	
38	193.67038989067078	movie	1		246	36.0	2.5	/experiments/knapen_AOT/AOT_stimuli/rescaled_final/1134_fw.mp4	0.0	217.44436979293823	2.508636951446533
38	195.26697182655334	pulse	1	t		36.0	2.5	/experiments/knapen_AOT/AOT_stimuli/rescaled_final/1134_fw.mp4	0.0	219.0409517288208	
38	196.1790268421173	fix_post	2		12	36.0	2.5	/experiments/knapen_AOT/AOT_stimuli/rescaled_final/1134_fw.mp4	0.0	219.95300674438477	0.09999418258666992
39	196.27902102470398	fix_pre	0		120	37.0	2.5	/experiments/knapen_AOT/AOT_stimuli/rescaled_final/1712_fw.mp4	0.0	220.05300092697144	1.000154972076416
39	196.86277103424072	pulse	0	t		37.0	2.5	/experiments/knapen_AOT/AOT_stimuli/rescaled_final/1712_fw.mp4	0.0	220.63675093650818	
39	197.2791759967804	movie	1		243	37.0	2.5	/experiments/knapen_AOT/AOT_stimuli/rescaled_final/1712_fw.mp4	0.0	221.05315589904785	2.5003650188446045
39	198.46305084228516	pulse	1	t		37.0	2.5	/experiments/knapen_AOT/AOT_stimuli/rescaled_final/1712_fw.mp4	0.0	222.2370307445526	
39	199.779541015625	fix_post	2		12	37.0	2.5	/experiments/knapen_AOT/AOT_stimuli/rescaled_final/1712_fw.mp4	0.0	223.55352091789246	0.10003900527954102
40	199.87958002090454	fix_pre	0		120	38.0	2.5	/experiments/knapen_AOT/AOT_stimuli/rescaled_final/1556_fw.mp4	0.0	223.653559923172	1.0002119541168213
40	200.06307792663574	pulse	0	t		38.0	2.5	/experiments/knapen_AOT/AOT_stimuli/rescaled_final/1556_fw.mp4	0.0	223.8370578289032	
40	200.87979197502136	movie	1		245	38.0	2.5	/experiments/knapen_AOT/AOT_stimuli/rescaled_final/1556_fw.mp4	0.0	224.65377187728882	2.5003509521484375
40	201.6634578704834	pulse	1	t		38.0	2.5	/experiments/knapen_AOT/AOT_stimuli/rescaled_final/1556_fw.mp4	0.0	225.43743777275085	
40	203.26101803779602	pulse	1	t		38.0	2.5	/experiments/knapen_AOT/AOT_stimuli/rescaled_final/1556_fw.mp4	0.0	227.03499794006348	
40	203.3801429271698	fix_post	2		12	38.0	2.5	/experiments/knapen_AOT/AOT_stimuli/rescaled_final/1556_fw.mp4	0.0	227.15412282943726	0.09999608993530273
41	203.4801390171051	fix_pre	0		119	39.0	2.5	/experiments/knapen_AOT/AOT_stimuli/rescaled_final/1879_fw.mp4	0.0	227.25411891937256	0.9917948246002197
41	204.47193384170532	movie	1		245	39.0	2.5	/experiments/knapen_AOT/AOT_stimuli/rescaled_final/1879_fw.mp4	0.0	228.24591374397278	2.50032901763916
41	204.85662293434143	pulse	1	t		39.0	2.5	/experiments/knapen_AOT/AOT_stimuli/rescaled_final/1879_fw.mp4	0.0	228.6306028366089	
41	206.45676803588867	pulse	1	t		39.0	2.5	/experiments/knapen_AOT/AOT_stimuli/rescaled_final/1879_fw.mp4	0.0	230.23074793815613	
41	206.97226285934448	fix_post	2		12	39.0	2.5	/experiments/knapen_AOT/AOT_stimuli/rescaled_final/1879_fw.mp4	0.0	230.74624276161194	0.10012102127075195
42	207.07238388061523	fix_pre	0		120	40.0	2.5	/experiments/knapen_AOT/AOT_stimuli/rescaled_final/1340_rv.mp4	0.0	230.8463637828827	1.0000829696655273
42	208.0644509792328	pulse	0	t		40.0	2.5	/experiments/knapen_AOT/AOT_stimuli/rescaled_final/1340_rv.mp4	0.0	231.83843088150024	
42	208.07246685028076	movie	1		246	40.0	2.5	/experiments/knapen_AOT/AOT_stimuli/rescaled_final/1340_rv.mp4	0.0	231.84644675254822	2.508697986602783
42	209.66918301582336	pulse	1	t		40.0	2.5	/experiments/knapen_AOT/AOT_stimuli/rescaled_final/1340_rv.mp4	0.0	233.44316291809082	
42	210.58116483688354	fix_post	2		12	40.0	2.5	/experiments/knapen_AOT/AOT_stimuli/rescaled_final/1340_rv.mp4	0.0	234.355144739151	0.10013103485107422
43	210.68129587173462	fix_pre	0		120	41.0	2.5	blank	1.0	234.45527577400208	1.000136137008667
43	211.25724601745605	pulse	0	t		41.0	2.5	blank	1.0	235.0312259197235	
43	211.6814320087433	movie	1		300	41.0	2.5	blank	1.0	235.45541191101074	2.5002858638763428
43	212.85663890838623	pulse	1	t		41.0	2.5	blank	1.0	236.6306188106537	
43	214.18171787261963	fix_post	2		12	41.0	2.5	blank	1.0	237.95569777488708	0.100006103515625
44	214.28172397613525	fix_pre	0		120	42.0	2.5	/experiments/knapen_AOT/AOT_stimuli/rescaled_final/0854_fw.mp4	0.0	238.0557038784027	1.0001718997955322
44	214.4569239616394	pulse	0	t		42.0	2.5	/experiments/knapen_AOT/AOT_stimuli/rescaled_final/0854_fw.mp4	0.0	238.23090386390686	
44	215.2818958759308	movie	1		245	42.0	2.5	/experiments/knapen_AOT/AOT_stimuli/rescaled_final/0854_fw.mp4	0.0	239.05587577819824	2.500370979309082
44	216.05712485313416	pulse	1	t		42.0	2.5	/experiments/knapen_AOT/AOT_stimuli/rescaled_final/0854_fw.mp4	0.0	239.8311047554016	
44	217.65761995315552	pulse	1	t		42.0	2.5	/experiments/knapen_AOT/AOT_stimuli/rescaled_final/0854_fw.mp4	0.0	241.43159985542297	
44	217.78226685523987	fix_post	2		12	42.0	2.5	/experiments/knapen_AOT/AOT_stimuli/rescaled_final/0854_fw.mp4	0.0	241.55624675750732	0.10000801086425781
45	217.88227486610413	fix_pre	0		120	43.0	2.5	/experiments/knapen_AOT/AOT_stimuli/rescaled_final/0212_rv.mp4	0.0	241.65625476837158	1.0001389980316162
45	218.88241386413574	movie	1		246	43.0	2.5	/experiments/knapen_AOT/AOT_stimuli/rescaled_final/0212_rv.mp4	0.0	242.6563937664032	2.4920501708984375
45	219.25775504112244	pulse	1	t		43.0	2.5	/experiments/knapen_AOT/AOT_stimuli/rescaled_final/0212_rv.mp4	0.0	243.0317349433899	
45	220.85802102088928	pulse	1	t		43.0	2.5	/experiments/knapen_AOT/AOT_stimuli/rescaled_final/0212_rv.mp4	0.0	244.63200092315674	
45	221.37446403503418	fix_post	2		12	43.0	2.5	/experiments/knapen_AOT/AOT_stimuli/rescaled_final/0212_rv.mp4	0.0	245.14844393730164	0.09997987747192383
46	221.4744439125061	fix_pre	0		119	44.0	2.5	/experiments/knapen_AOT/AOT_stimuli/rescaled_final/0862_fw.mp4	0.0	245.24842381477356	0.9918720722198486
46	222.45808601379395	pulse	0	t		44.0	2.5	/experiments/knapen_AOT/AOT_stimuli/rescaled_final/0862_fw.mp4	0.0	246.2320659160614	
46	222.46631598472595	movie	1		244	44.0	2.5	/experiments/knapen_AOT/AOT_stimuli/rescaled_final/0862_fw.mp4	0.0	246.2402958869934	2.5086469650268555
46	224.0588939189911	pulse	1	t		44.0	2.5	/experiments/knapen_AOT/AOT_stimuli/rescaled_final/0862_fw.mp4	0.0	247.83287382125854	
46	224.9749629497528	fix_post	2		12	44.0	2.5	/experiments/knapen_AOT/AOT_stimuli/rescaled_final/0862_fw.mp4	0.0	248.74894285202026	0.10003995895385742
47	225.07500290870667	fix_pre	0		120	45.0	2.5	/experiments/knapen_AOT/AOT_stimuli/rescaled_final/1247_rv.mp4	0.0	248.84898281097412	1.000169038772583
47	225.65869784355164	pulse	0	t		45.0	2.5	/experiments/knapen_AOT/AOT_stimuli/rescaled_final/1247_rv.mp4	0.0	249.4326777458191	
47	226.07517194747925	movie	1		243	45.0	2.5	/experiments/knapen_AOT/AOT_stimuli/rescaled_final/1247_rv.mp4	0.0	249.8491518497467	2.5004360675811768
47	227.25904488563538	pulse	1	t		45.0	2.5	/experiments/knapen_AOT/AOT_stimuli/rescaled_final/1247_rv.mp4	0.0	251.03302478790283	
47	228.57560801506042	fix_post	2		12	45.0	2.5	/experiments/knapen_AOT/AOT_stimuli/rescaled_final/1247_rv.mp4	0.0	252.34958791732788	0.09992480278015137
48	228.67553281784058	fix_pre	0		120	46.0	2.5	/experiments/knapen_AOT/AOT_stimuli/rescaled_final/0248_fw.mp4	0.0	252.44951272010803	1.0001521110534668
48	228.85909295082092	pulse	0	t		46.0	2.5	/experiments/knapen_AOT/AOT_stimuli/rescaled_final/0248_fw.mp4	0.0	252.63307285308838	
48	229.67568492889404	movie	1		244	46.0	2.5	/experiments/knapen_AOT/AOT_stimuli/rescaled_final/0248_fw.mp4	0.0	253.4496648311615	2.500399112701416
48	230.45933985710144	pulse	1	t		46.0	2.5	/experiments/knapen_AOT/AOT_stimuli/rescaled_final/0248_fw.mp4	0.0	254.2333197593689	
48	232.0595200061798	pulse	1	t		46.0	2.5	/experiments/knapen_AOT/AOT_stimuli/rescaled_final/0248_fw.mp4	0.0	255.83349990844727	
48	232.17608404159546	fix_post	2		8	46.0	2.5	/experiments/knapen_AOT/AOT_stimuli/rescaled_final/0248_fw.mp4	0.0	255.95006394386292	0.0916588306427002
49	232.26774287223816	fix_pre	0		120	47.0	2.5	/experiments/knapen_AOT/AOT_stimuli/rescaled_final/0943_rv.mp4	0.0	256.0417227745056	1.0001239776611328
49	233.2678668498993	movie	1		243	47.0	2.5	/experiments/knapen_AOT/AOT_stimuli/rescaled_final/0943_rv.mp4	0.0	257.04184675216675	2.500378131866455
49	233.65997290611267	pulse	1	t		47.0	2.5	/experiments/knapen_AOT/AOT_stimuli/rescaled_final/0943_rv.mp4	0.0	257.4339528083801	
49	235.26008987426758	pulse	1	t		47.0	2.5	/experiments/knapen_AOT/AOT_stimuli/rescaled_final/0943_rv.mp4	0.0	259.03406977653503	
49	235.76824498176575	fix_post	2		12	47.0	2.5	/experiments/knapen_AOT/AOT_stimuli/rescaled_final/0943_rv.mp4	0.0	259.5422248840332	0.1000819206237793
50	235.86832690238953	fix_pre	0		120	48.0	2.5	/experiments/knapen_AOT/AOT_stimuli/rescaled_final/1677_fw.mp4	0.0	259.642306804657	1.0001001358032227
50	236.8603069782257	pulse	0	t		48.0	2.5	/experiments/knapen_AOT/AOT_stimuli/rescaled_final/1677_fw.mp4	0.0	260.63428688049316	
50	236.86842703819275	movie	1		246	48.0	2.5	/experiments/knapen_AOT/AOT_stimuli/rescaled_final/1677_fw.mp4	0.0	260.6424069404602	2.508680820465088
50	238.46102499961853	pulse	1	t		48.0	2.5	/experiments/knapen_AOT/AOT_stimuli/rescaled_final/1677_fw.mp4	0.0	262.235004901886	
50	239.37710785865784	fix_post	2		12	48.0	2.5	/experiments/knapen_AOT/AOT_stimuli/rescaled_final/1677_fw.mp4	0.0	263.1510877609253	0.10007715225219727
51	239.47718501091003	fix_pre	0		120	49.0	2.5	blank	1.0	263.2511649131775	1.0001089572906494
51	240.06075382232666	pulse	0	t		49.0	2.5	blank	1.0	263.8347337245941	
51	240.47729396820068	movie	1		300	49.0	2.5	blank	1.0	264.25127387046814	2.500454902648926
51	241.66112685203552	pulse	1	t		49.0	2.5	blank	1.0	265.435106754303	
51	242.9777488708496	fix_post	2		12	49.0	2.5	blank	1.0	266.75172877311707	0.09996604919433594
52	243.07771492004395	fix_pre	0		120	50.0	2.5	/experiments/knapen_AOT/AOT_stimuli/rescaled_final/0383_fw.mp4	0.0	266.8516948223114	1.0001499652862549
52	243.26122093200684	pulse	0	t		50.0	2.5	/experiments/knapen_AOT/AOT_stimuli/rescaled_final/0383_fw.mp4	0.0	267.0352008342743	
52	244.0778648853302	movie	1		244	50.0	2.5	/experiments/knapen_AOT/AOT_stimuli/rescaled_final/0383_fw.mp4	0.0	267.85184478759766	2.5003340244293213
52	244.8615288734436	pulse	1	t		50.0	2.5	/experiments/knapen_AOT/AOT_stimuli/rescaled_final/0383_fw.mp4	0.0	268.63550877571106	
52	246.46176505088806	pulse	1	t		50.0	2.5	/experiments/knapen_AOT/AOT_stimuli/rescaled_final/0383_fw.mp4	0.0	270.2357449531555	
52	246.57819890975952	fix_post	2		12	50.0	2.5	/experiments/knapen_AOT/AOT_stimuli/rescaled_final/0383_fw.mp4	0.0	270.352178812027	0.10004591941833496
53	246.67824482917786	fix_pre	0		119	51.0	2.5	/experiments/knapen_AOT/AOT_stimuli/rescaled_final/2120_rv.mp4	0.0	270.4522247314453	0.9917981624603271
53	247.67004299163818	movie	1		243	51.0	2.5	/experiments/knapen_AOT/AOT_stimuli/rescaled_final/2120_rv.mp4	0.0	271.44402289390564	2.500394821166992
53	248.0621898174286	pulse	1	t		51.0	2.5	/experiments/knapen_AOT/AOT_stimuli/rescaled_final/2120_rv.mp4	0.0	271.83616971969604	
53	249.66222190856934	pulse	1	t		51.0	2.5	/experiments/knapen_AOT/AOT_stimuli/rescaled_final/2120_rv.mp4	0.0	273.4362018108368	
53	250.17043781280518	fix_post	2		12	51.0	2.5	/experiments/knapen_AOT/AOT_stimuli/rescaled_final/2120_rv.mp4	0.0	273.94441771507263	0.09998703002929688
54	250.27042484283447	fix_pre	0		120	52.0	2.5	/experiments/knapen_AOT/AOT_stimuli/rescaled_final/1186_fw.mp4	0.0	274.04440474510193	1.0001780986785889
54	251.2624499797821	pulse	0	t		52.0	2.5	/experiments/knapen_AOT/AOT_stimuli/rescaled_final/1186_fw.mp4	0.0	275.03642988204956	
54	251.27060294151306	movie	1		245	52.0	2.5	/experiments/knapen_AOT/AOT_stimuli/rescaled_final/1186_fw.mp4	0.0	275.0445828437805	2.508655071258545
54	252.86389303207397	pulse	1	t		52.0	2.5	/experiments/knapen_AOT/AOT_stimuli/rescaled_final/1186_fw.mp4	0.0	276.63787293434143	
54	253.7792580127716	fix_post	2		12	52.0	2.5	/experiments/knapen_AOT/AOT_stimuli/rescaled_final/1186_fw.mp4	0.0	277.55323791503906	0.10006594657897949
55	253.8793239593506	fix_pre	0		120	53.0	2.5	/experiments/knapen_AOT/AOT_stimuli/rescaled_final/1605_fw.mp4	0.0	277.65330386161804	1.0001718997955322
55	254.4629909992218	pulse	0	t		53.0	2.5	/experiments/knapen_AOT/AOT_stimuli/rescaled_final/1605_fw.mp4	0.0	278.23697090148926	
55	254.87949585914612	movie	1		245	53.0	2.5	/experiments/knapen_AOT/AOT_stimuli/rescaled_final/1605_fw.mp4	0.0	278.6534757614136	2.5003411769866943
55	256.06322503089905	pulse	1	t		53.0	2.5	/experiments/knapen_AOT/AOT_stimuli/rescaled_final/1605_fw.mp4	0.0	279.8372049331665	
55	257.3798370361328	fix_post	2		12	53.0	2.5	/experiments/knapen_AOT/AOT_stimuli/rescaled_final/1605_fw.mp4	0.0	281.15381693840027	0.10000300407409668
56	257.4798400402069	fix_pre	0		120	54.0	2.5	/experiments/knapen_AOT/AOT_stimuli/rescaled_final/1517_rv.mp4	0.0	281.25381994247437	1.000147819519043
56	257.6635010242462	pulse	0	t		54.0	2.5	/experiments/knapen_AOT/AOT_stimuli/rescaled_final/1517_rv.mp4	0.0	281.4374809265137	
56	258.47998785972595	movie	1		245	54.0	2.5	/experiments/knapen_AOT/AOT_stimuli/rescaled_final/1517_rv.mp4	0.0	282.2539677619934	2.5004141330718994
56	259.2636649608612	pulse	1	t		54.0	2.5	/experiments/knapen_AOT/AOT_stimuli/rescaled_final/1517_rv.mp4	0.0	283.03764486312866	
56	260.86128187179565	pulse	1	t		54.0	2.5	/experiments/knapen_AOT/AOT_stimuli/rescaled_final/1517_rv.mp4	0.0	284.6352617740631	
56	260.98040199279785	fix_post	2		12	54.0	2.5	/experiments/knapen_AOT/AOT_stimuli/rescaled_final/1517_rv.mp4	0.0	284.7543818950653	0.10001683235168457
57	261.08041882514954	fix_pre	0		120	55.0	2.5	/experiments/knapen_AOT/AOT_stimuli/rescaled_final/0638_fw.mp4	0.0	284.854398727417	1.0001020431518555
57	262.0805208683014	movie	1		244	55.0	2.5	/experiments/knapen_AOT/AOT_stimuli/rescaled_final/0638_fw.mp4	0.0	285.85450077056885	2.4920501708984375
57	262.4647078514099	pulse	1	t		55.0	2.5	/experiments/knapen_AOT/AOT_stimuli/rescaled_final/0638_fw.mp4	0.0	286.23868775367737	
57	264.05709505081177	pulse	1	t		55.0	2.5	/experiments/knapen_AOT/AOT_stimuli/rescaled_final/0638_fw.mp4	0.0	287.8310749530792	
57	264.57257103919983	fix_post	2		12	55.0	2.5	/experiments/knapen_AOT/AOT_stimuli/rescaled_final/0638_fw.mp4	0.0	288.3465509414673	0.10003280639648438
58	264.6726038455963	fix_pre	0		120	56.0	2.5	blank	1.0	288.44658374786377	1.000128984451294
58	265.6571228504181	pulse	0	t		56.0	2.5	blank	1.0	289.43110275268555	
58	265.6727328300476	movie	1		301	56.0	2.5	blank	1.0	289.44671273231506	2.5087242126464844
58	267.2575218677521	pulse	1	t		56.0	2.5	blank	1.0	291.03150177001953	
58	268.1814570426941	fix_post	2		12	56.0	2.5	blank	1.0	291.95543694496155	0.09998488426208496
59	268.2814419269562	fix_pre	0		120	57.0	2.5	/experiments/knapen_AOT/AOT_stimuli/rescaled_final/0515_rv.mp4	0.0	292.05542182922363	1.000166893005371
59	268.85768485069275	pulse	0	t		57.0	2.5	/experiments/knapen_AOT/AOT_stimuli/rescaled_final/0515_rv.mp4	0.0	292.6316647529602	
59	269.28160881996155	movie	1		245	57.0	2.5	/experiments/knapen_AOT/AOT_stimuli/rescaled_final/0515_rv.mp4	0.0	293.055588722229	2.5003840923309326
59	270.45737290382385	pulse	1	t		57.0	2.5	/experiments/knapen_AOT/AOT_stimuli/rescaled_final/0515_rv.mp4	0.0	294.2313528060913	
59	271.7819929122925	fix_post	2		12	57.0	2.5	/experiments/knapen_AOT/AOT_stimuli/rescaled_final/0515_rv.mp4	0.0	295.55597281455994	0.09998202323913574
60	271.8819749355316	fix_pre	0		120	58.0	2.5	/experiments/knapen_AOT/AOT_stimuli/rescaled_final/0130_fw.mp4	0.0	295.6559548377991	1.0001919269561768
60	272.057315826416	pulse	0	t		58.0	2.5	/experiments/knapen_AOT/AOT_stimuli/rescaled_final/0130_fw.mp4	0.0	295.8312957286835	
60	272.8821668624878	movie	1		244	58.0	2.5	/experiments/knapen_AOT/AOT_stimuli/rescaled_final/0130_fw.mp4	0.0	296.65614676475525	2.500349998474121
60	273.65743589401245	pulse	1	t		58.0	2.5	/experiments/knapen_AOT/AOT_stimuli/rescaled_final/0130_fw.mp4	0.0	297.4314157962799	
60	275.25765585899353	pulse	1	t		58.0	2.5	/experiments/knapen_AOT/AOT_stimuli/rescaled_final/0130_fw.mp4	0.0	299.031635761261	
60	275.3825168609619	fix_post	2		12	58.0	2.5	/experiments/knapen_AOT/AOT_stimuli/rescaled_final/0130_fw.mp4	0.0	299.15649676322937	0.1000070571899414
61	275.48252391815186	fix_pre	0		120	59.0	2.5	/experiments/knapen_AOT/AOT_stimuli/rescaled_final/0159_fw.mp4	0.0	299.2565038204193	1.000157117843628
61	276.4826810359955	movie	1		242	59.0	2.5	/experiments/knapen_AOT/AOT_stimuli/rescaled_final/0159_fw.mp4	0.0	300.25666093826294	2.4920928478240967
61	276.85800981521606	pulse	1	t		59.0	2.5	/experiments/knapen_AOT/AOT_stimuli/rescaled_final/0159_fw.mp4	0.0	300.6319897174835	
61	278.4583330154419	pulse	1	t		59.0	2.5	/experiments/knapen_AOT/AOT_stimuli/rescaled_final/0159_fw.mp4	0.0	302.23231291770935	
61	278.9747738838196	fix_post	2		12	59.0	2.5	/experiments/knapen_AOT/AOT_stimuli/rescaled_final/0159_fw.mp4	0.0	302.74875378608704	0.09995102882385254
62	279.07472491264343	fix_pre	0		119	60.0	2.5	/experiments/knapen_AOT/AOT_stimuli/rescaled_final/1603_rv.mp4	0.0	302.8487048149109	0.9918310642242432
62	280.0584180355072	pulse	0	t		60.0	2.5	/experiments/knapen_AOT/AOT_stimuli/rescaled_final/1603_rv.mp4	0.0	303.83239793777466	
62	280.0665559768677	movie	1		245	60.0	2.5	/experiments/knapen_AOT/AOT_stimuli/rescaled_final/1603_rv.mp4	0.0	303.84053587913513	2.508697986602783
62	281.6594159603119	pulse	1	t		60.0	2.5	/experiments/knapen_AOT/AOT_stimuli/rescaled_final/1603_rv.mp4	0.0	305.43339586257935	
62	282.57525396347046	fix_post	2		12	60.0	2.5	/experiments/knapen_AOT/AOT_stimuli/rescaled_final/1603_rv.mp4	0.0	306.3492338657379	0.09998488426208496
63	282.67523884773254	fix_pre	0		120	61.0	2.5	blank	1.0	306.44921875	1.0001990795135498
63	283.25894594192505	pulse	0	t		61.0	2.5	blank	1.0	307.0329258441925	
63	283.6754379272461	movie	1		300	61.0	2.5	blank	1.0	307.44941782951355	2.5003879070281982
63	284.8591649532318	pulse	1	t		61.0	2.5	blank	1.0	308.63314485549927	
63	286.1758258342743	fix_post	2		12	61.0	2.5	blank	1.0	309.94980573654175	0.10003304481506348
64	286.27585887908936	fix_pre	0		120	62.0	2.5	/experiments/knapen_AOT/AOT_stimuli/rescaled_final/1954_rv.mp4	0.0	310.0498387813568	1.000133991241455
64	286.4593858718872	pulse	0	t		62.0	2.5	/experiments/knapen_AOT/AOT_stimuli/rescaled_final/1954_rv.mp4	0.0	310.23336577415466	
64	287.2759928703308	movie	1		245	62.0	2.5	/experiments/knapen_AOT/AOT_stimuli/rescaled_final/1954_rv.mp4	0.0	311.04997277259827	2.500391960144043
64	288.0597598552704	pulse	1	t		62.0	2.5	/experiments/knapen_AOT/AOT_stimuli/rescaled_final/1954_rv.mp4	0.0	311.83373975753784	
64	289.6599988937378	pulse	1	t		62.0	2.5	/experiments/knapen_AOT/AOT_stimuli/rescaled_final/1954_rv.mp4	0.0	313.43397879600525	
64	289.77638483047485	fix_post	2		12	62.0	2.5	/experiments/knapen_AOT/AOT_stimuli/rescaled_final/1954_rv.mp4	0.0	313.5503647327423	0.09993910789489746
65	289.87632393836975	fix_pre	0		120	63.0	2.5	/experiments/knapen_AOT/AOT_stimuli/rescaled_final/0632_rv.mp4	0.0	313.6503038406372	1.0001680850982666
65	290.876492023468	movie	1		244	63.0	2.5	/experiments/knapen_AOT/AOT_stimuli/rescaled_final/0632_rv.mp4	0.0	314.6504719257355	2.4920120239257812
65	291.2604830265045	pulse	1	t		63.0	2.5	/experiments/knapen_AOT/AOT_stimuli/rescaled_final/0632_rv.mp4	0.0	315.034462928772	
65	292.86029291152954	pulse	1	t		63.0	2.5	/experiments/knapen_AOT/AOT_stimuli/rescaled_final/0632_rv.mp4	0.0	316.634272813797	
65	293.3685040473938	fix_post	2		12	63.0	2.5	/experiments/knapen_AOT/AOT_stimuli/rescaled_final/0632_rv.mp4	0.0	317.14248394966125	0.1233217716217041
66	293.4918258190155	fix_pre	0		116	64.0	2.5	/experiments/knapen_AOT/AOT_stimuli/rescaled_final/1462_rv.mp4	0.0	317.26580572128296	0.9768891334533691
66	294.46062183380127	pulse	0	t		64.0	2.5	/experiments/knapen_AOT/AOT_stimuli/rescaled_final/1462_rv.mp4	0.0	318.2346017360687	
66	294.4687149524689	movie	1		248	64.0	2.5	/experiments/knapen_AOT/AOT_stimuli/rescaled_final/1462_rv.mp4	0.0	318.2426948547363	2.5086829662323
66	296.0622420310974	pulse	1	t		64.0	2.5	/experiments/knapen_AOT/AOT_stimuli/rescaled_final/1462_rv.mp4	0.0	319.83622193336487	
66	296.9773979187012	fix_post	2		12	64.0	2.5	/experiments/knapen_AOT/AOT_stimuli/rescaled_final/1462_rv.mp4	0.0	320.7513778209686	0.10010290145874023
67	297.0775008201599	fix_pre	0		120	65.0	2.5	/experiments/knapen_AOT/AOT_stimuli/rescaled_final/1198_rv.mp4	0.0	320.85148072242737	1.0001811981201172
67	297.66104102134705	pulse	0	t		65.0	2.5	/experiments/knapen_AOT/AOT_stimuli/rescaled_final/1198_rv.mp4	0.0	321.4350209236145	
67	298.07768201828003	movie	1		244	65.0	2.5	/experiments/knapen_AOT/AOT_stimuli/rescaled_final/1198_rv.mp4	0.0	321.8516619205475	2.5002269744873047
67	299.26140785217285	pulse	1	t		65.0	2.5	/experiments/knapen_AOT/AOT_stimuli/rescaled_final/1198_rv.mp4	0.0	323.0353877544403	
67	300.57790899276733	fix_post	2		12	65.0	2.5	/experiments/knapen_AOT/AOT_stimuli/rescaled_final/1198_rv.mp4	0.0	324.3518888950348	0.10004782676696777
68	300.6779568195343	fix_pre	0		120	66.0	2.5	/experiments/knapen_AOT/AOT_stimuli/rescaled_final/2003_rv.mp4	0.0	324.45193672180176	1.0001640319824219
68	300.86159801483154	pulse	0	t		66.0	2.5	/experiments/knapen_AOT/AOT_stimuli/rescaled_final/2003_rv.mp4	0.0	324.635577917099	
68	301.6781208515167	movie	1		244	66.0	2.5	/experiments/knapen_AOT/AOT_stimuli/rescaled_final/2003_rv.mp4	0.0	325.4521007537842	2.5003390312194824
68	302.4619040489197	pulse	1	t		66.0	2.5	/experiments/knapen_AOT/AOT_stimuli/rescaled_final/2003_rv.mp4	0.0	326.23588395118713	
68	304.0621509552002	pulse	1	t		66.0	2.5	/experiments/knapen_AOT/AOT_stimuli/rescaled_final/2003_rv.mp4	0.0	327.83613085746765	
68	304.1784598827362	fix_post	2		12	66.0	2.5	/experiments/knapen_AOT/AOT_stimuli/rescaled_final/2003_rv.mp4	0.0	327.95243978500366	0.1000511646270752
69	304.2785110473633	fix_pre	0		120	67.0	2.5	/experiments/knapen_AOT/AOT_stimuli/rescaled_final/1413_rv.mp4	0.0	328.05249094963074	1.000126838684082
69	305.27863788604736	movie	1		245	67.0	2.5	/experiments/knapen_AOT/AOT_stimuli/rescaled_final/1413_rv.mp4	0.0	329.0526177883148	2.4921300411224365
69	305.66303181648254	pulse	1	t		67.0	2.5	/experiments/knapen_AOT/AOT_stimuli/rescaled_final/1413_rv.mp4	0.0	329.43701171875	
69	307.2625768184662	pulse	1	t		67.0	2.5	/experiments/knapen_AOT/AOT_stimuli/rescaled_final/1413_rv.mp4	0.0	331.03655672073364	
69	307.7707679271698	fix_post	2		12	67.0	2.5	/experiments/knapen_AOT/AOT_stimuli/rescaled_final/1413_rv.mp4	0.0	331.54474782943726	0.09992098808288574
70	307.8706889152527	fix_pre	0		120	68.0	2.5	/experiments/knapen_AOT/AOT_stimuli/rescaled_final/0248_rv.mp4	0.0	331.64466881752014	1.0001919269561768
70	308.86279296875	pulse	0	t		68.0	2.5	/experiments/knapen_AOT/AOT_stimuli/rescaled_final/0248_rv.mp4	0.0	332.63677287101746	
70	308.87088084220886	movie	1		246	68.0	2.5	/experiments/knapen_AOT/AOT_stimuli/rescaled_final/0248_rv.mp4	0.0	332.6448607444763	2.508714199066162
70	310.4635169506073	pulse	1	t		68.0	2.5	/experiments/knapen_AOT/AOT_stimuli/rescaled_final/0248_rv.mp4	0.0	334.23749685287476	
70	311.379595041275	fix_post	2		12	68.0	2.5	/experiments/knapen_AOT/AOT_stimuli/rescaled_final/0248_rv.mp4	0.0	335.1535749435425	0.09997200965881348
71	311.47956705093384	fix_pre	0		120	69.0	2.5	/experiments/knapen_AOT/AOT_stimuli/rescaled_final/0326_rv.mp4	0.0	335.2535469532013	1.00016188621521
71	312.0631799697876	pulse	0	t		69.0	2.5	/experiments/knapen_AOT/AOT_stimuli/rescaled_final/0326_rv.mp4	0.0	335.83715987205505	
71	312.47972893714905	movie	1		246	69.0	2.5	/experiments/knapen_AOT/AOT_stimuli/rescaled_final/0326_rv.mp4	0.0	336.2537088394165	2.5004360675811768
71	313.66350984573364	pulse	1	t		69.0	2.5	/experiments/knapen_AOT/AOT_stimuli/rescaled_final/0326_rv.mp4	0.0	337.4374897480011	
71	314.9801650047302	fix_post	2		12	69.0	2.5	/experiments/knapen_AOT/AOT_stimuli/rescaled_final/0326_rv.mp4	0.0	338.7541449069977	0.09996199607849121
72	315.0801270008087	fix_pre	0		120	70.0	2.5	blank	1.0	338.8541069030762	1.0001628398895264
72	315.26380586624146	pulse	0	t		70.0	2.5	blank	1.0	339.0377857685089	
72	316.08028984069824	movie	1		300	70.0	2.5	blank	1.0	339.8542697429657	2.500385046005249
72	316.8640019893646	pulse	1	t		70.0	2.5	blank	1.0	340.6379818916321	
72	318.4567630290985	pulse	1	t		70.0	2.5	blank	1.0	342.23074293136597	
72	318.5806748867035	fix_post	2		12	70.0	2.5	blank	1.0	342.35465478897095	0.09995412826538086
73	318.6806290149689	fix_pre	0		120	71.0	2.5	/experiments/knapen_AOT/AOT_stimuli/rescaled_final/0440_fw.mp4	0.0	342.4546089172363	1.0001988410949707
73	319.68082785606384	movie	1		244	71.0	2.5	/experiments/knapen_AOT/AOT_stimuli/rescaled_final/0440_fw.mp4	0.0	343.4548077583313	2.4920241832733154
73	320.0656158924103	pulse	1	t		71.0	2.5	/experiments/knapen_AOT/AOT_stimuli/rescaled_final/0440_fw.mp4	0.0	343.83959579467773	
73	321.65728282928467	pulse	1	t		71.0	2.5	/experiments/knapen_AOT/AOT_stimuli/rescaled_final/0440_fw.mp4	0.0	345.4312627315521	
73	322.17285203933716	fix_post	2		12	71.0	2.5	/experiments/knapen_AOT/AOT_stimuli/rescaled_final/0440_fw.mp4	0.0	345.9468319416046	0.09998393058776855
74	322.2728359699249	fix_pre	0		120	72.0	2.5	/experiments/knapen_AOT/AOT_stimuli/rescaled_final/2101_fw.mp4	0.0	346.0468158721924	1.0001709461212158
74	323.25739002227783	pulse	0	t		72.0	2.5	/experiments/knapen_AOT/AOT_stimuli/rescaled_final/2101_fw.mp4	0.0	347.0313699245453	
74	323.27300691604614	movie	1		246	72.0	2.5	/experiments/knapen_AOT/AOT_stimuli/rescaled_final/2101_fw.mp4	0.0	347.0469868183136	2.5087039470672607
74	324.86550784111023	pulse	1	t		72.0	2.5	/experiments/knapen_AOT/AOT_stimuli/rescaled_final/2101_fw.mp4	0.0	348.6394877433777	
74	325.7817108631134	fix_post	2		12	72.0	2.5	/experiments/knapen_AOT/AOT_stimuli/rescaled_final/2101_fw.mp4	0.0	349.55569076538086	0.09999203681945801
75	325.88170289993286	fix_pre	0		120	73.0	2.5	/experiments/knapen_AOT/AOT_stimuli/rescaled_final/0433_fw.mp4	0.0	349.6556828022003	1.000180959701538
75	326.4570608139038	pulse	0	t		73.0	2.5	/experiments/knapen_AOT/AOT_stimuli/rescaled_final/0433_fw.mp4	0.0	350.23104071617126	
75	326.8818838596344	movie	1		245	73.0	2.5	/experiments/knapen_AOT/AOT_stimuli/rescaled_final/0433_fw.mp4	0.0	350.65586376190186	2.500385046005249
75	328.0612769126892	pulse	1	t		73.0	2.5	/experiments/knapen_AOT/AOT_stimuli/rescaled_final/0433_fw.mp4	0.0	351.83525681495667	
75	329.38226890563965	fix_post	2		12	73.0	2.5	/experiments/knapen_AOT/AOT_stimuli/rescaled_final/0433_fw.mp4	0.0	353.1562488079071	0.09999513626098633
76	329.48226404190063	fix_pre	0		120	74.0	2.5	/experiments/knapen_AOT/AOT_stimuli/rescaled_final/1505_fw.mp4	0.0	353.2562439441681	1.0001587867736816
76	329.6575999259949	pulse	0	t		74.0	2.5	/experiments/knapen_AOT/AOT_stimuli/rescaled_final/1505_fw.mp4	0.0	353.43157982826233	
76	330.4824228286743	movie	1		245	74.0	2.5	/experiments/knapen_AOT/AOT_stimuli/rescaled_final/1505_fw.mp4	0.0	354.2564027309418	2.500359058380127
76	331.2576858997345	pulse	1	t		74.0	2.5	/experiments/knapen_AOT/AOT_stimuli/rescaled_final/1505_fw.mp4	0.0	355.03166580200195	
76	332.8581168651581	pulse	1	t		74.0	2.5	/experiments/knapen_AOT/AOT_stimuli/rescaled_final/1505_fw.mp4	0.0	356.63209676742554	
76	332.98278188705444	fix_post	2		12	74.0	2.5	/experiments/knapen_AOT/AOT_stimuli/rescaled_final/1505_fw.mp4	0.0	356.7567617893219	0.10000896453857422
77	333.082790851593	fix_pre	0		119	75.0	2.5	/experiments/knapen_AOT/AOT_stimuli/rescaled_final/1555_fw.mp4	0.0	356.8567707538605	0.9917991161346436
77	334.07458996772766	movie	1		245	75.0	2.5	/experiments/knapen_AOT/AOT_stimuli/rescaled_final/1555_fw.mp4	0.0	357.8485698699951	2.5003910064697266
77	334.4586658477783	pulse	1	t		75.0	2.5	/experiments/knapen_AOT/AOT_stimuli/rescaled_final/1555_fw.mp4	0.0	358.2326457500458	
77	336.0585079193115	pulse	1	t		75.0	2.5	/experiments/knapen_AOT/AOT_stimuli/rescaled_final/1555_fw.mp4	0.0	359.832487821579	
77	336.5749809741974	fix_post	2		12	75.0	2.5	/experiments/knapen_AOT/AOT_stimuli/rescaled_final/1555_fw.mp4	0.0	360.34896087646484	0.10001492500305176
78	336.67499589920044	fix_pre	0		119	76.0	2.5	/experiments/knapen_AOT/AOT_stimuli/rescaled_final/0680_rv.mp4	0.0	360.4489758014679	0.991832971572876
78	337.65882086753845	pulse	0	t		76.0	2.5	/experiments/knapen_AOT/AOT_stimuli/rescaled_final/0680_rv.mp4	0.0	361.4328007698059	
78	337.6668288707733	movie	1		244	76.0	2.5	/experiments/knapen_AOT/AOT_stimuli/rescaled_final/0680_rv.mp4	0.0	361.44080877304077	2.508730173110962
78	339.25990986824036	pulse	1	t		76.0	2.5	/experiments/knapen_AOT/AOT_stimuli/rescaled_final/0680_rv.mp4	0.0	363.0338897705078	
78	340.1755590438843	fix_post	2		12	76.0	2.5	/experiments/knapen_AOT/AOT_stimuli/rescaled_final/0680_rv.mp4	0.0	363.94953894615173	0.09996795654296875
79	340.27552700042725	fix_pre	0		120	77.0	2.5	blank	1.0	364.0495069026947	1.0001728534698486
79	340.8590910434723	pulse	0	t		77.0	2.5	blank	1.0	364.63307094573975	
79	341.2756998538971	movie	1		300	77.0	2.5	blank	1.0	365.04967975616455	2.5003371238708496
79	342.45942783355713	pulse	1	t		77.0	2.5	blank	1.0	366.2334077358246	
79	343.77603697776794	fix_post	2		12	77.0	2.5	blank	1.0	367.5500168800354	0.10004901885986328
80	343.8760859966278	fix_pre	0		120	78.0	2.5	/experiments/knapen_AOT/AOT_stimuli/rescaled_final/0638_rv.mp4	0.0	367.65006589889526	1.0001299381256104
80	344.0596158504486	pulse	0	t		78.0	2.5	/experiments/knapen_AOT/AOT_stimuli/rescaled_final/0638_rv.mp4	0.0	367.83359575271606	
80	344.8762159347534	movie	1		245	78.0	2.5	/experiments/knapen_AOT/AOT_stimuli/rescaled_final/0638_rv.mp4	0.0	368.6501958370209	2.5003960132598877
80	345.65988302230835	pulse	1	t		78.0	2.5	/experiments/knapen_AOT/AOT_stimuli/rescaled_final/0638_rv.mp4	0.0	369.4338629245758	
80	347.25761795043945	pulse	1	t		78.0	2.5	/experiments/knapen_AOT/AOT_stimuli/rescaled_final/0638_rv.mp4	0.0	371.0315978527069	
80	347.3766119480133	fix_post	2		12	78.0	2.5	/experiments/knapen_AOT/AOT_stimuli/rescaled_final/0638_rv.mp4	0.0	371.15059185028076	0.10002493858337402
81	347.4766368865967	fix_pre	0		120	79.0	2.5	/experiments/knapen_AOT/AOT_stimuli/rescaled_final/0795_rv.mp4	0.0	371.25061678886414	1.0001130104064941
81	348.4767498970032	movie	1		244	79.0	2.5	/experiments/knapen_AOT/AOT_stimuli/rescaled_final/0795_rv.mp4	0.0	372.25072979927063	2.492094039916992
81	348.86080503463745	pulse	1	t		79.0	2.5	/experiments/knapen_AOT/AOT_stimuli/rescaled_final/0795_rv.mp4	0.0	372.6347849369049	
81	350.4606280326843	pulse	1	t		79.0	2.5	/experiments/knapen_AOT/AOT_stimuli/rescaled_final/0795_rv.mp4	0.0	374.2346079349518	
81	350.96884393692017	fix_post	2		12	79.0	2.5	/experiments/knapen_AOT/AOT_stimuli/rescaled_final/0795_rv.mp4	0.0	374.7428238391876	0.099945068359375
82	351.06878900527954	fix_pre	0		120	80.0	2.5	/experiments/knapen_AOT/AOT_stimuli/rescaled_final/0555_fw.mp4	0.0	374.842768907547	1.0001938343048096
82	352.06089997291565	pulse	0	t		80.0	2.5	/experiments/knapen_AOT/AOT_stimuli/rescaled_final/0555_fw.mp4	0.0	375.8348798751831	
82	352.06898283958435	movie	1		246	80.0	2.5	/experiments/knapen_AOT/AOT_stimuli/rescaled_final/0555_fw.mp4	0.0	375.8429627418518	2.509709119796753
82	353.66160702705383	pulse	1	t		80.0	2.5	/experiments/knapen_AOT/AOT_stimuli/rescaled_final/0555_fw.mp4	0.0	377.4355869293213	
82	354.5786919593811	fix_post	2		9	80.0	2.5	/experiments/knapen_AOT/AOT_stimuli/rescaled_final/0555_fw.mp4	0.0	378.35267186164856	0.09903907775878906
83	354.6777310371399	fix_pre	0		120	81.0	2.5	/experiments/knapen_AOT/AOT_stimuli/rescaled_final/1822_rv.mp4	0.0	378.45171093940735	1.000152826309204
83	355.26144790649414	pulse	0	t		81.0	2.5	/experiments/knapen_AOT/AOT_stimuli/rescaled_final/1822_rv.mp4	0.0	379.0354278087616	
83	355.6778838634491	movie	1		245	81.0	2.5	/experiments/knapen_AOT/AOT_stimuli/rescaled_final/1822_rv.mp4	0.0	379.45186376571655	2.500373125076294
83	356.8616509437561	pulse	1	t		81.0	2.5	/experiments/knapen_AOT/AOT_stimuli/rescaled_final/1822_rv.mp4	0.0	380.63563084602356	
83	358.1782569885254	fix_post	2		12	81.0	2.5	/experiments/knapen_AOT/AOT_stimuli/rescaled_final/1822_rv.mp4	0.0	381.95223689079285	0.09999895095825195
84	358.27825593948364	fix_pre	0		120	82.0	2.5	blank	1.0	382.0522358417511	1.0001330375671387
84	358.4617729187012	pulse	0	t		82.0	2.5	blank	1.0	382.2357528209686	
84	359.2783889770508	movie	1		300	82.0	2.5	blank	1.0	383.05236887931824	2.5003700256347656
84	360.062029838562	pulse	1	t		82.0	2.5	blank	1.0	383.83600974082947	
84	361.6623649597168	pulse	1	t		82.0	2.5	blank	1.0	385.43634486198425	
84	361.77875900268555	fix_post	2		12	82.0	2.5	blank	1.0	385.552738904953	0.09998297691345215
85	361.878741979599	fix_pre	0		120	83.0	2.5	/experiments/knapen_AOT/AOT_stimuli/rescaled_final/0948_rv.mp4	0.0	385.65272188186646	1.000154972076416
85	362.8788969516754	movie	1		243	83.0	2.5	/experiments/knapen_AOT/AOT_stimuli/rescaled_final/0948_rv.mp4	0.0	386.65287685394287	2.4920270442962646
85	363.26317501068115	pulse	1	t		83.0	2.5	/experiments/knapen_AOT/AOT_stimuli/rescaled_final/0948_rv.mp4	0.0	387.0371549129486	
85	364.8627259731293	pulse	1	t		83.0	2.5	/experiments/knapen_AOT/AOT_stimuli/rescaled_final/0948_rv.mp4	0.0	388.63670587539673	
85	365.3709239959717	fix_post	2		12	83.0	2.5	/experiments/knapen_AOT/AOT_stimuli/rescaled_final/0948_rv.mp4	0.0	389.14490389823914	0.10003900527954102
87	365.4709630012512	stim	0		1716					389.2449429035187	14.302212953567505
87	366.46302103996277	pulse	0	t						390.2370009422302	
87	368.063236951828	pulse	0	t						391.83721685409546	
87	369.663489818573	pulse	0	t						393.43746972084045	
87	371.2638039588928	pulse	0	t						395.0377838611603	
87	372.8638708591461	pulse	0	t						396.6378507614136	
87	374.4640839099884	pulse	0	t						398.23806381225586	
87	376.0644268989563	pulse	0	t						399.83840680122375	
87	377.6573078632355	pulse	0	t						401.43128776550293	
87	379.2575509548187	pulse	0	t						403.0315308570862	
