trial_nr	onset	event_type	phase	response	nr_frames	movie_index	movie_duration	movie_file	blank	onset_abs	duration
0	0.16652607917785645	stim	0		5					61.96040654182434	0.04156637191772461
0	0.20018553733825684	response	0	space						61.99406599998474	
1	0.20809245109558105	stim	0		4720					62.001972913742065	39.35161757469177
1	39.544920682907104	pulse	0	t						101.33880114555359	
1	39.55971002578735	stim	1		1714					101.35359048843384	14.29804277420044
1	41.13947796821594	pulse	1	t						102.93335843086243	
1	42.739721059799194	pulse	1	t						104.53360152244568	
1	44.34001064300537	pulse	1	t						106.13389110565186	
1	45.940080642700195	pulse	1	t						107.73396110534668	
1	47.54030632972717	pulse	1	t						109.33418679237366	
1	49.14059400558472	pulse	1	t						110.9344744682312	
1	50.74078917503357	pulse	1	t						112.53466963768005	
1	52.34110236167908	pulse	1	t						114.13498282432556	
2	53.85775279998779	fix_pre	0		11	0.0	2.5	/experiments/knapen_AOT/AOT_stimuli/rescaled_final/0864_fw.mp4	0.0	115.65163326263428	0.1083838939666748
2	53.94143486022949	pulse	0	t		0.0	2.5	/experiments/knapen_AOT/AOT_stimuli/rescaled_final/0864_fw.mp4	0.0	115.73531532287598	
2	53.96613669395447	movie	1		277	0.0	2.5	/experiments/knapen_AOT/AOT_stimuli/rescaled_final/0864_fw.mp4	0.0	115.76001715660095	2.4919681549072266
2	55.53979730606079	pulse	1	t		0.0	2.5	/experiments/knapen_AOT/AOT_stimuli/rescaled_final/0864_fw.mp4	0.0	117.33367776870728	
2	56.458104848861694	fix_post	2		12	0.0	2.5	/experiments/knapen_AOT/AOT_stimuli/rescaled_final/0864_fw.mp4	0.0	118.25198531150818	0.1000370979309082
3	56.5581419467926	fix_pre	0		120	1.0	2.5	/experiments/knapen_AOT/AOT_stimuli/rescaled_final/1317_rv.mp4	0.0	118.35202240943909	1.008472204208374
3	57.141793727874756	pulse	0	t		1.0	2.5	/experiments/knapen_AOT/AOT_stimuli/rescaled_final/1317_rv.mp4	0.0	118.93567419052124	
3	57.56661415100098	movie	1		280	1.0	2.5	/experiments/knapen_AOT/AOT_stimuli/rescaled_final/1317_rv.mp4	0.0	119.36049461364746	2.4920461177825928
3	58.74015784263611	pulse	1	t		1.0	2.5	/experiments/knapen_AOT/AOT_stimuli/rescaled_final/1317_rv.mp4	0.0	120.53403830528259	
3	60.05866026878357	fix_post	2		12	1.0	2.5	/experiments/knapen_AOT/AOT_stimuli/rescaled_final/1317_rv.mp4	0.0	121.85254073143005	0.10004973411560059
4	60.15871000289917	fix_pre	0		120	2.0	2.5	/experiments/knapen_AOT/AOT_stimuli/rescaled_final/0514_rv.mp4	0.0	121.95259046554565	1.0086026191711426
4	60.34232687950134	pulse	0	t		2.0	2.5	/experiments/knapen_AOT/AOT_stimuli/rescaled_final/0514_rv.mp4	0.0	122.13620734214783	
4	61.16731262207031	movie	1		256	2.0	2.5	/experiments/knapen_AOT/AOT_stimuli/rescaled_final/0514_rv.mp4	0.0	122.9611930847168	2.4918839931488037
4	61.94158315658569	pulse	1	t		2.0	2.5	/experiments/knapen_AOT/AOT_stimuli/rescaled_final/0514_rv.mp4	0.0	123.73546361923218	
4	63.542874574661255	pulse	1	t		2.0	2.5	/experiments/knapen_AOT/AOT_stimuli/rescaled_final/0514_rv.mp4	0.0	125.33675503730774	
4	63.659196615219116	fix_post	2		12	2.0	2.5	/experiments/knapen_AOT/AOT_stimuli/rescaled_final/0514_rv.mp4	0.0	125.4530770778656	0.10001707077026367
5	63.75921368598938	fix_pre	0		120	3.0	2.5	/experiments/knapen_AOT/AOT_stimuli/rescaled_final/2020_fw.mp4	0.0	125.55309414863586	1.008490800857544
5	64.76770448684692	movie	1		264	3.0	2.5	/experiments/knapen_AOT/AOT_stimuli/rescaled_final/2020_fw.mp4	0.0	126.56158494949341	2.4920921325683594
5	65.14128851890564	pulse	1	t		3.0	2.5	/experiments/knapen_AOT/AOT_stimuli/rescaled_final/2020_fw.mp4	0.0	126.93516898155212	
5	66.74477624893188	pulse	1	t		3.0	2.5	/experiments/knapen_AOT/AOT_stimuli/rescaled_final/2020_fw.mp4	0.0	128.53865671157837	
5	67.25979661941528	fix_post	2		12	3.0	2.5	/experiments/knapen_AOT/AOT_stimuli/rescaled_final/2020_fw.mp4	0.0	129.05367708206177	0.09998583793640137
6	67.35978245735168	fix_pre	0		119	4.0	2.5	/experiments/knapen_AOT/AOT_stimuli/rescaled_final/1546_fw.mp4	0.0	129.15366291999817	1.0001275539398193
6	68.34343242645264	pulse	0	t		4.0	2.5	/experiments/knapen_AOT/AOT_stimuli/rescaled_final/1546_fw.mp4	0.0	130.13731288909912	
6	68.3599100112915	movie	1		275	4.0	2.5	/experiments/knapen_AOT/AOT_stimuli/rescaled_final/1546_fw.mp4	0.0	130.153790473938	2.5005903244018555
6	69.94241094589233	pulse	1	t		4.0	2.5	/experiments/knapen_AOT/AOT_stimuli/rescaled_final/1546_fw.mp4	0.0	131.73629140853882	
6	70.86050033569336	fix_post	2		12	4.0	2.5	/experiments/knapen_AOT/AOT_stimuli/rescaled_final/1546_fw.mp4	0.0	132.65438079833984	0.09979939460754395
7	70.9602997303009	fix_pre	0		120	5.0	2.5	/experiments/knapen_AOT/AOT_stimuli/rescaled_final/0797_rv.mp4	0.0	132.7541801929474	1.008497953414917
7	71.54394602775574	pulse	0	t		5.0	2.5	/experiments/knapen_AOT/AOT_stimuli/rescaled_final/0797_rv.mp4	0.0	133.33782649040222	
7	71.96879768371582	movie	1		274	5.0	2.5	/experiments/knapen_AOT/AOT_stimuli/rescaled_final/0797_rv.mp4	0.0	133.7626781463623	2.4920847415924072
7	73.14238452911377	pulse	1	t		5.0	2.5	/experiments/knapen_AOT/AOT_stimuli/rescaled_final/0797_rv.mp4	0.0	134.93626499176025	
7	74.46088242530823	fix_post	2		12	5.0	2.5	/experiments/knapen_AOT/AOT_stimuli/rescaled_final/0797_rv.mp4	0.0	136.2547628879547	0.10003042221069336
8	74.56091284751892	fix_pre	0		120	6.0	2.5	/experiments/knapen_AOT/AOT_stimuli/rescaled_final/1010_rv.mp4	0.0	136.3547933101654	1.0084319114685059
8	74.74441599845886	pulse	0	t		6.0	2.5	/experiments/knapen_AOT/AOT_stimuli/rescaled_final/1010_rv.mp4	0.0	136.53829646110535	
8	75.56934475898743	movie	1		280	6.0	2.5	/experiments/knapen_AOT/AOT_stimuli/rescaled_final/1010_rv.mp4	0.0	137.3632252216339	2.4921810626983643
8	76.34228897094727	pulse	1	t		6.0	2.5	/experiments/knapen_AOT/AOT_stimuli/rescaled_final/1010_rv.mp4	0.0	138.13616943359375	
8	77.94298458099365	pulse	1	t		6.0	2.5	/experiments/knapen_AOT/AOT_stimuli/rescaled_final/1010_rv.mp4	0.0	139.73686504364014	
8	78.06152582168579	fix_post	2		12	6.0	2.5	/experiments/knapen_AOT/AOT_stimuli/rescaled_final/1010_rv.mp4	0.0	139.85540628433228	0.09985852241516113
9	78.16138434410095	fix_pre	0		120	7.0	2.5	blank	1.0	139.95526480674744	1.000138282775879
9	79.16152262687683	movie	1		300	7.0	2.5	blank	1.0	140.95540308952332	2.5004122257232666
9	79.54513239860535	pulse	1	t		7.0	2.5	blank	1.0	141.33901286125183	
9	81.14547801017761	pulse	1	t		7.0	2.5	blank	1.0	142.9393584728241	
9	81.6619348526001	fix_post	2		12	7.0	2.5	blank	1.0	143.45581531524658	0.10000729560852051
10	81.76194214820862	fix_pre	0		119	8.0	2.5	/experiments/knapen_AOT/AOT_stimuli/rescaled_final/0434_fw.mp4	0.0	143.5558226108551	1.0086054801940918
10	82.74571180343628	pulse	0	t		8.0	2.5	/experiments/knapen_AOT/AOT_stimuli/rescaled_final/0434_fw.mp4	0.0	144.53959226608276	
10	82.77054762840271	movie	1		280	8.0	2.5	/experiments/knapen_AOT/AOT_stimuli/rescaled_final/0434_fw.mp4	0.0	144.5644280910492	2.491896390914917
10	84.34553909301758	pulse	1	t		8.0	2.5	/experiments/knapen_AOT/AOT_stimuli/rescaled_final/0434_fw.mp4	0.0	146.13941955566406	
10	85.26244401931763	fix_post	2		12	8.0	2.5	/experiments/knapen_AOT/AOT_stimuli/rescaled_final/0434_fw.mp4	0.0	147.0563244819641	0.10001897811889648
11	85.36246299743652	fix_pre	0		120	9.0	2.5	/experiments/knapen_AOT/AOT_stimuli/rescaled_final/1689_rv.mp4	0.0	147.156343460083	1.0085010528564453
11	85.9460620880127	pulse	0	t		9.0	2.5	/experiments/knapen_AOT/AOT_stimuli/rescaled_final/1689_rv.mp4	0.0	147.73994255065918	
11	86.37096405029297	movie	1		274	9.0	2.5	/experiments/knapen_AOT/AOT_stimuli/rescaled_final/1689_rv.mp4	0.0	148.16484451293945	2.492016553878784
11	87.54465508460999	pulse	1	t		9.0	2.5	/experiments/knapen_AOT/AOT_stimuli/rescaled_final/1689_rv.mp4	0.0	149.33853554725647	
11	88.86298060417175	fix_post	2		12	9.0	2.5	/experiments/knapen_AOT/AOT_stimuli/rescaled_final/1689_rv.mp4	0.0	150.65686106681824	0.10018658638000488
12	88.96316719055176	fix_pre	0		120	10.0	2.5	/experiments/knapen_AOT/AOT_stimuli/rescaled_final/1813_rv.mp4	0.0	150.75704765319824	1.0083317756652832
12	89.13900446891785	pulse	0	t		10.0	2.5	/experiments/knapen_AOT/AOT_stimuli/rescaled_final/1813_rv.mp4	0.0	150.93288493156433	
12	89.97149896621704	movie	1		264	10.0	2.5	/experiments/knapen_AOT/AOT_stimuli/rescaled_final/1813_rv.mp4	0.0	151.76537942886353	2.49204421043396
12	90.74516248703003	pulse	1	t		10.0	2.5	/experiments/knapen_AOT/AOT_stimuli/rescaled_final/1813_rv.mp4	0.0	152.5390429496765	
12	92.33936166763306	pulse	1	t		10.0	2.5	/experiments/knapen_AOT/AOT_stimuli/rescaled_final/1813_rv.mp4	0.0	154.13324213027954	
12	92.463543176651	fix_post	2		12	10.0	2.5	/experiments/knapen_AOT/AOT_stimuli/rescaled_final/1813_rv.mp4	0.0	154.25742363929749	0.0999906063079834
13	92.56353378295898	fix_pre	0		120	11.0	2.5	/experiments/knapen_AOT/AOT_stimuli/rescaled_final/2069_rv.mp4	0.0	154.35741424560547	1.008502721786499
13	93.57203650474548	movie	1		269	11.0	2.5	/experiments/knapen_AOT/AOT_stimuli/rescaled_final/2069_rv.mp4	0.0	155.36591696739197	2.4921350479125977
13	93.93933653831482	pulse	1	t		11.0	2.5	/experiments/knapen_AOT/AOT_stimuli/rescaled_final/2069_rv.mp4	0.0	155.7332170009613	
13	95.53923010826111	pulse	1	t		11.0	2.5	/experiments/knapen_AOT/AOT_stimuli/rescaled_final/2069_rv.mp4	0.0	157.3331105709076	
13	96.06417155265808	fix_post	2		12	11.0	2.5	/experiments/knapen_AOT/AOT_stimuli/rescaled_final/2069_rv.mp4	0.0	157.85805201530457	0.09997248649597168
14	96.16414403915405	fix_pre	0		118	12.0	2.5	/experiments/knapen_AOT/AOT_stimuli/rescaled_final/1813_fw.mp4	0.0	157.95802450180054	0.9917759895324707
14	97.139488697052	pulse	0	t		12.0	2.5	/experiments/knapen_AOT/AOT_stimuli/rescaled_final/1813_fw.mp4	0.0	158.9333691596985	
14	97.15592002868652	movie	1		282	12.0	2.5	/experiments/knapen_AOT/AOT_stimuli/rescaled_final/1813_fw.mp4	0.0	158.949800491333	2.500389814376831
14	98.73972344398499	pulse	1	t		12.0	2.5	/experiments/knapen_AOT/AOT_stimuli/rescaled_final/1813_fw.mp4	0.0	160.53360390663147	
14	99.65630984306335	fix_post	2		12	12.0	2.5	/experiments/knapen_AOT/AOT_stimuli/rescaled_final/1813_fw.mp4	0.0	161.45019030570984	0.09999632835388184
15	99.75630617141724	fix_pre	0		120	13.0	2.5	/experiments/knapen_AOT/AOT_stimuli/rescaled_final/2175_fw.mp4	0.0	161.55018663406372	1.008491039276123
15	100.33995819091797	pulse	0	t		13.0	2.5	/experiments/knapen_AOT/AOT_stimuli/rescaled_final/2175_fw.mp4	0.0	162.13383865356445	
15	100.76479721069336	movie	1		256	13.0	2.5	/experiments/knapen_AOT/AOT_stimuli/rescaled_final/2175_fw.mp4	0.0	162.55867767333984	2.4920356273651123
15	101.94015455245972	pulse	1	t		13.0	2.5	/experiments/knapen_AOT/AOT_stimuli/rescaled_final/2175_fw.mp4	0.0	163.7340350151062	
15	103.25683283805847	fix_post	2		12	13.0	2.5	/experiments/knapen_AOT/AOT_stimuli/rescaled_final/2175_fw.mp4	0.0	165.05071330070496	0.10001897811889648
16	103.35685181617737	fix_pre	0		120	14.0	2.5	blank	1.0	165.15073227882385	1.0001251697540283
16	103.54044342041016	pulse	0	t		14.0	2.5	blank	1.0	165.33432388305664	
16	104.3569769859314	movie	1		300	14.0	2.5	blank	1.0	166.15085744857788	2.5004045963287354
16	105.14077925682068	pulse	1	t		14.0	2.5	blank	1.0	166.93465971946716	
16	106.74085807800293	pulse	1	t		14.0	2.5	blank	1.0	168.5347385406494	
16	106.85738158226013	fix_post	2		12	14.0	2.5	blank	1.0	168.65126204490662	0.09999823570251465
17	106.95737981796265	fix_pre	0		120	15.0	2.5	/experiments/knapen_AOT/AOT_stimuli/rescaled_final/1394_fw.mp4	0.0	168.75126028060913	1.0085303783416748
17	107.96591019630432	movie	1		261	15.0	2.5	/experiments/knapen_AOT/AOT_stimuli/rescaled_final/1394_fw.mp4	0.0	169.7597906589508	2.4919962882995605
17	108.34005522727966	pulse	1	t		15.0	2.5	/experiments/knapen_AOT/AOT_stimuli/rescaled_final/1394_fw.mp4	0.0	170.13393568992615	
17	109.94043016433716	pulse	1	t		15.0	2.5	/experiments/knapen_AOT/AOT_stimuli/rescaled_final/1394_fw.mp4	0.0	171.73431062698364	
17	110.45790648460388	fix_post	2		12	15.0	2.5	/experiments/knapen_AOT/AOT_stimuli/rescaled_final/1394_fw.mp4	0.0	172.25178694725037	0.10002279281616211
18	110.55792927742004	fix_pre	0		119	16.0	2.5	/experiments/knapen_AOT/AOT_stimuli/rescaled_final/1389_fw.mp4	0.0	172.35180974006653	1.0001776218414307
18	111.54165601730347	pulse	0	t		16.0	2.5	/experiments/knapen_AOT/AOT_stimuli/rescaled_final/1389_fw.mp4	0.0	173.33553647994995	
18	111.55810689926147	movie	1		264	16.0	2.5	/experiments/knapen_AOT/AOT_stimuli/rescaled_final/1389_fw.mp4	0.0	173.35198736190796	2.500342607498169
18	113.14067721366882	pulse	1	t		16.0	2.5	/experiments/knapen_AOT/AOT_stimuli/rescaled_final/1389_fw.mp4	0.0	174.9345576763153	
18	114.05844950675964	fix_post	2		12	16.0	2.5	/experiments/knapen_AOT/AOT_stimuli/rescaled_final/1389_fw.mp4	0.0	175.85232996940613	0.10001945495605469
19	114.1584689617157	fix_pre	0		120	17.0	2.5	/experiments/knapen_AOT/AOT_stimuli/rescaled_final/1813_fw.mp4	0.0	175.95234942436218	1.008521556854248
19	114.74219512939453	pulse	0	t		17.0	2.5	/experiments/knapen_AOT/AOT_stimuli/rescaled_final/1813_fw.mp4	0.0	176.53607559204102	
19	115.16699051856995	movie	1		286	17.0	2.5	/experiments/knapen_AOT/AOT_stimuli/rescaled_final/1813_fw.mp4	0.0	176.96087098121643	2.4919724464416504
19	116.34099459648132	pulse	1	t		17.0	2.5	/experiments/knapen_AOT/AOT_stimuli/rescaled_final/1813_fw.mp4	0.0	178.1348750591278	
19	117.6589629650116	fix_post	2		12	17.0	2.5	/experiments/knapen_AOT/AOT_stimuli/rescaled_final/1813_fw.mp4	0.0	179.45284342765808	0.10002899169921875
20	117.75899195671082	fix_pre	0		120	18.0	2.5	/experiments/knapen_AOT/AOT_stimuli/rescaled_final/0306_rv.mp4	0.0	179.5528724193573	1.0085034370422363
20	117.94257521629333	pulse	0	t		18.0	2.5	/experiments/knapen_AOT/AOT_stimuli/rescaled_final/0306_rv.mp4	0.0	179.73645567893982	
20	118.76749539375305	movie	1		278	18.0	2.5	/experiments/knapen_AOT/AOT_stimuli/rescaled_final/0306_rv.mp4	0.0	180.56137585639954	2.4920334815979004
20	119.5405261516571	pulse	1	t		18.0	2.5	/experiments/knapen_AOT/AOT_stimuli/rescaled_final/0306_rv.mp4	0.0	181.3344066143036	
20	121.14196562767029	pulse	1	t		18.0	2.5	/experiments/knapen_AOT/AOT_stimuli/rescaled_final/0306_rv.mp4	0.0	182.93584609031677	
20	121.25952887535095	fix_post	2		12	18.0	2.5	/experiments/knapen_AOT/AOT_stimuli/rescaled_final/0306_rv.mp4	0.0	183.05340933799744	0.10000920295715332
21	121.3595380783081	fix_pre	0		120	19.0	2.5	/experiments/knapen_AOT/AOT_stimuli/rescaled_final/0874_fw.mp4	0.0	183.1534185409546	1.0085060596466064
21	122.36804413795471	movie	1		276	19.0	2.5	/experiments/knapen_AOT/AOT_stimuli/rescaled_final/0874_fw.mp4	0.0	184.1619246006012	2.4920098781585693
21	122.7417356967926	pulse	1	t		19.0	2.5	/experiments/knapen_AOT/AOT_stimuli/rescaled_final/0874_fw.mp4	0.0	184.5356161594391	
21	124.34363293647766	pulse	1	t		19.0	2.5	/experiments/knapen_AOT/AOT_stimuli/rescaled_final/0874_fw.mp4	0.0	186.13751339912415	
21	124.86005401611328	fix_post	2		12	19.0	2.5	/experiments/knapen_AOT/AOT_stimuli/rescaled_final/0874_fw.mp4	0.0	186.65393447875977	0.10003328323364258
22	124.96008729934692	fix_pre	0		119	20.0	2.5	blank	1.0	186.7539677619934	0.9918224811553955
22	125.9438591003418	pulse	0	t		20.0	2.5	blank	1.0	187.73773956298828	
22	125.95190978050232	movie	1		301	20.0	2.5	blank	1.0	187.7457902431488	2.508688449859619
22	127.544020652771	pulse	1	t		20.0	2.5	blank	1.0	189.33790111541748	
22	128.46059823036194	fix_post	2		12	20.0	2.5	blank	1.0	190.25447869300842	0.10001564025878906
23	128.56061387062073	fix_pre	0		120	21.0	2.5	/experiments/knapen_AOT/AOT_stimuli/rescaled_final/0671_rv.mp4	0.0	190.3544943332672	1.0085370540618896
23	129.1442551612854	pulse	0	t		21.0	2.5	/experiments/knapen_AOT/AOT_stimuli/rescaled_final/0671_rv.mp4	0.0	190.93813562393188	
23	129.56915092468262	movie	1		267	21.0	2.5	/experiments/knapen_AOT/AOT_stimuli/rescaled_final/0671_rv.mp4	0.0	191.3630313873291	2.491969585418701
23	130.74279880523682	pulse	1	t		21.0	2.5	/experiments/knapen_AOT/AOT_stimuli/rescaled_final/0671_rv.mp4	0.0	192.5366792678833	
23	132.06112051010132	fix_post	2		12	21.0	2.5	/experiments/knapen_AOT/AOT_stimuli/rescaled_final/0671_rv.mp4	0.0	193.8550009727478	0.10004019737243652
24	132.16116070747375	fix_pre	0		120	22.0	2.5	/experiments/knapen_AOT/AOT_stimuli/rescaled_final/0110_fw.mp4	0.0	193.95504117012024	1.0086090564727783
24	132.34474301338196	pulse	0	t		22.0	2.5	/experiments/knapen_AOT/AOT_stimuli/rescaled_final/0110_fw.mp4	0.0	194.13862347602844	
24	133.16976976394653	movie	1		266	22.0	2.5	/experiments/knapen_AOT/AOT_stimuli/rescaled_final/0110_fw.mp4	0.0	194.96365022659302	2.491917133331299
24	133.94292426109314	pulse	1	t		22.0	2.5	/experiments/knapen_AOT/AOT_stimuli/rescaled_final/0110_fw.mp4	0.0	195.73680472373962	
24	135.54327821731567	pulse	1	t		22.0	2.5	/experiments/knapen_AOT/AOT_stimuli/rescaled_final/0110_fw.mp4	0.0	197.33715867996216	
24	135.66168689727783	fix_post	2		12	22.0	2.5	/experiments/knapen_AOT/AOT_stimuli/rescaled_final/0110_fw.mp4	0.0	197.45556735992432	0.10001802444458008
25	135.7617049217224	fix_pre	0		120	23.0	2.5	/experiments/knapen_AOT/AOT_stimuli/rescaled_final/2020_fw.mp4	0.0	197.5555853843689	1.0085060596466064
25	136.77021098136902	movie	1		275	23.0	2.5	/experiments/knapen_AOT/AOT_stimuli/rescaled_final/2020_fw.mp4	0.0	198.5640914440155	2.4920871257781982
25	137.14398622512817	pulse	1	t		23.0	2.5	/experiments/knapen_AOT/AOT_stimuli/rescaled_final/2020_fw.mp4	0.0	198.93786668777466	
25	138.7434799671173	pulse	1	t		23.0	2.5	/experiments/knapen_AOT/AOT_stimuli/rescaled_final/2020_fw.mp4	0.0	200.5373604297638	
25	139.26229810714722	fix_post	2		12	23.0	2.5	/experiments/knapen_AOT/AOT_stimuli/rescaled_final/2020_fw.mp4	0.0	201.0561785697937	0.09995818138122559
26	139.36225628852844	fix_pre	0		119	24.0	2.5	/experiments/knapen_AOT/AOT_stimuli/rescaled_final/0905_rv.mp4	0.0	201.15613675117493	1.000253677368164
26	140.34605073928833	pulse	0	t		24.0	2.5	/experiments/knapen_AOT/AOT_stimuli/rescaled_final/0905_rv.mp4	0.0	202.13993120193481	
26	140.3625099658966	movie	1		275	24.0	2.5	/experiments/knapen_AOT/AOT_stimuli/rescaled_final/0905_rv.mp4	0.0	202.1563904285431	2.5002546310424805
26	141.94506764411926	pulse	1	t		24.0	2.5	/experiments/knapen_AOT/AOT_stimuli/rescaled_final/0905_rv.mp4	0.0	203.73894810676575	
26	142.8627645969391	fix_post	2		12	24.0	2.5	/experiments/knapen_AOT/AOT_stimuli/rescaled_final/0905_rv.mp4	0.0	204.65664505958557	0.10002422332763672
27	142.96278882026672	fix_pre	0		120	25.0	2.5	/experiments/knapen_AOT/AOT_stimuli/rescaled_final/0057_rv.mp4	0.0	204.7566692829132	1.0084643363952637
27	143.53941988945007	pulse	0	t		25.0	2.5	/experiments/knapen_AOT/AOT_stimuli/rescaled_final/0057_rv.mp4	0.0	205.33330035209656	
27	143.971253156662	movie	1		269	25.0	2.5	/experiments/knapen_AOT/AOT_stimuli/rescaled_final/0057_rv.mp4	0.0	205.76513361930847	2.4920718669891357
27	145.14476776123047	pulse	1	t		25.0	2.5	/experiments/knapen_AOT/AOT_stimuli/rescaled_final/0057_rv.mp4	0.0	206.93864822387695	
27	146.46332502365112	fix_post	2		12	25.0	2.5	/experiments/knapen_AOT/AOT_stimuli/rescaled_final/0057_rv.mp4	0.0	208.2572054862976	0.09999632835388184
28	146.563321352005	fix_pre	0		120	26.0	2.5	/experiments/knapen_AOT/AOT_stimuli/rescaled_final/1386_rv.mp4	0.0	208.3572018146515	1.0085155963897705
28	146.74690651893616	pulse	0	t		26.0	2.5	/experiments/knapen_AOT/AOT_stimuli/rescaled_final/1386_rv.mp4	0.0	208.54078698158264	
28	147.57183694839478	movie	1		279	26.0	2.5	/experiments/knapen_AOT/AOT_stimuli/rescaled_final/1386_rv.mp4	0.0	209.36571741104126	2.5003461837768555
28	148.3464765548706	pulse	1	t		26.0	2.5	/experiments/knapen_AOT/AOT_stimuli/rescaled_final/1386_rv.mp4	0.0	210.1403570175171	
28	149.94539332389832	pulse	1	t		26.0	2.5	/experiments/knapen_AOT/AOT_stimuli/rescaled_final/1386_rv.mp4	0.0	211.7392737865448	
28	150.07218313217163	fix_post	2		11	26.0	2.5	/experiments/knapen_AOT/AOT_stimuli/rescaled_final/1386_rv.mp4	0.0	211.86606359481812	0.09168863296508789
29	150.16387176513672	fix_pre	0		120	27.0	2.5	blank	1.0	211.9577522277832	1.0001411437988281
29	151.16401290893555	movie	1		300	27.0	2.5	blank	1.0	212.95789337158203	2.500370740890503
29	151.53952598571777	pulse	1	t		27.0	2.5	blank	1.0	213.33340644836426	
29	153.13963150978088	pulse	1	t		27.0	2.5	blank	1.0	214.93351197242737	
29	153.66438364982605	fix_post	2		12	27.0	2.5	blank	1.0	215.45826411247253	0.10003089904785156
30	153.7644145488739	fix_pre	0		118	28.0	2.5	/experiments/knapen_AOT/AOT_stimuli/rescaled_final/0327_fw.mp4	0.0	215.55829501152039	0.9918131828308105
30	154.7398316860199	pulse	0	t		28.0	2.5	/experiments/knapen_AOT/AOT_stimuli/rescaled_final/0327_fw.mp4	0.0	216.53371214866638	
30	154.7562277317047	movie	1		284	28.0	2.5	/experiments/knapen_AOT/AOT_stimuli/rescaled_final/0327_fw.mp4	0.0	216.5501081943512	2.5003576278686523
30	156.34002828598022	pulse	1	t		28.0	2.5	/experiments/knapen_AOT/AOT_stimuli/rescaled_final/0327_fw.mp4	0.0	218.1339087486267	
30	157.25658535957336	fix_post	2		12	28.0	2.5	/experiments/knapen_AOT/AOT_stimuli/rescaled_final/0327_fw.mp4	0.0	219.05046582221985	0.1000220775604248
31	157.3566074371338	fix_pre	0		120	29.0	2.5	/experiments/knapen_AOT/AOT_stimuli/rescaled_final/0224_rv.mp4	0.0	219.15048789978027	1.0085525512695312
31	157.94030809402466	pulse	0	t		29.0	2.5	/experiments/knapen_AOT/AOT_stimuli/rescaled_final/0224_rv.mp4	0.0	219.73418855667114	
31	158.36515998840332	movie	1		275	29.0	2.5	/experiments/knapen_AOT/AOT_stimuli/rescaled_final/0224_rv.mp4	0.0	220.1590404510498	2.4919803142547607
31	159.53947734832764	pulse	1	t		29.0	2.5	/experiments/knapen_AOT/AOT_stimuli/rescaled_final/0224_rv.mp4	0.0	221.33335781097412	
31	160.85714030265808	fix_post	2		12	29.0	2.5	/experiments/knapen_AOT/AOT_stimuli/rescaled_final/0224_rv.mp4	0.0	222.65102076530457	0.10006284713745117
32	160.95720314979553	fix_pre	0		120	30.0	2.5	/experiments/knapen_AOT/AOT_stimuli/rescaled_final/1878_fw.mp4	0.0	222.75108361244202	1.0084314346313477
32	161.14109778404236	pulse	0	t		30.0	2.5	/experiments/knapen_AOT/AOT_stimuli/rescaled_final/1878_fw.mp4	0.0	222.93497824668884	
32	161.96563458442688	movie	1		272	30.0	2.5	/experiments/knapen_AOT/AOT_stimuli/rescaled_final/1878_fw.mp4	0.0	223.75951504707336	2.492067813873291
32	162.7410922050476	pulse	1	t		30.0	2.5	/experiments/knapen_AOT/AOT_stimuli/rescaled_final/1878_fw.mp4	0.0	224.5349726676941	
32	164.34140181541443	pulse	1	t		30.0	2.5	/experiments/knapen_AOT/AOT_stimuli/rescaled_final/1878_fw.mp4	0.0	226.1352822780609	
32	164.45770239830017	fix_post	2		12	30.0	2.5	/experiments/knapen_AOT/AOT_stimuli/rescaled_final/1878_fw.mp4	0.0	226.25158286094666	0.09998726844787598
33	164.55768966674805	fix_pre	0		120	31.0	2.5	/experiments/knapen_AOT/AOT_stimuli/rescaled_final/0959_fw.mp4	0.0	226.35157012939453	1.0085067749023438
33	165.5661964416504	movie	1		280	31.0	2.5	/experiments/knapen_AOT/AOT_stimuli/rescaled_final/0959_fw.mp4	0.0	227.36007690429688	2.4920191764831543
33	165.9400007724762	pulse	1	t		31.0	2.5	/experiments/knapen_AOT/AOT_stimuli/rescaled_final/0959_fw.mp4	0.0	227.73388123512268	
33	167.53965759277344	pulse	1	t		31.0	2.5	/experiments/knapen_AOT/AOT_stimuli/rescaled_final/0959_fw.mp4	0.0	229.33353805541992	
33	168.05821561813354	fix_post	2		12	31.0	2.5	/experiments/knapen_AOT/AOT_stimuli/rescaled_final/0959_fw.mp4	0.0	229.85209608078003	0.10003232955932617
34	168.15824794769287	fix_pre	0		119	32.0	2.5	/experiments/knapen_AOT/AOT_stimuli/rescaled_final/1652_fw.mp4	0.0	229.95212841033936	1.0001189708709717
34	169.14196133613586	pulse	0	t		32.0	2.5	/experiments/knapen_AOT/AOT_stimuli/rescaled_final/1652_fw.mp4	0.0	230.93584179878235	
34	169.15836691856384	movie	1		280	32.0	2.5	/experiments/knapen_AOT/AOT_stimuli/rescaled_final/1652_fw.mp4	0.0	230.95224738121033	2.5003867149353027
34	170.74052047729492	pulse	1	t		32.0	2.5	/experiments/knapen_AOT/AOT_stimuli/rescaled_final/1652_fw.mp4	0.0	232.5344009399414	
34	171.65875363349915	fix_post	2		12	32.0	2.5	/experiments/knapen_AOT/AOT_stimuli/rescaled_final/1652_fw.mp4	0.0	233.45263409614563	0.1000673770904541
35	171.7588210105896	fix_pre	0		120	33.0	2.5	/experiments/knapen_AOT/AOT_stimuli/rescaled_final/0251_fw.mp4	0.0	233.55270147323608	1.0084915161132812
35	172.34250020980835	pulse	0	t		33.0	2.5	/experiments/knapen_AOT/AOT_stimuli/rescaled_final/0251_fw.mp4	0.0	234.13638067245483	
35	172.76731252670288	movie	1		276	33.0	2.5	/experiments/knapen_AOT/AOT_stimuli/rescaled_final/0251_fw.mp4	0.0	234.56119298934937	2.4919962882995605
35	173.9416081905365	pulse	1	t		33.0	2.5	/experiments/knapen_AOT/AOT_stimuli/rescaled_final/0251_fw.mp4	0.0	235.73548865318298	
35	175.25930881500244	fix_post	2		12	33.0	2.5	/experiments/knapen_AOT/AOT_stimuli/rescaled_final/0251_fw.mp4	0.0	237.05318927764893	0.1000361442565918
36	175.35934495925903	fix_pre	0		120	34.0	2.5	blank	1.0	237.15322542190552	1.0000996589660645
36	175.54295110702515	pulse	0	t		34.0	2.5	blank	1.0	237.33683156967163	
36	176.3594446182251	movie	1		300	34.0	2.5	blank	1.0	238.15332508087158	2.500445604324341
36	177.14308285713196	pulse	1	t		34.0	2.5	blank	1.0	238.93696331977844	
36	178.74336886405945	pulse	1	t		34.0	2.5	blank	1.0	240.53724932670593	
36	178.85989022254944	fix_post	2		12	34.0	2.5	blank	1.0	240.65377068519592	0.09996342658996582
37	178.9598536491394	fix_pre	0		120	35.0	2.5	/experiments/knapen_AOT/AOT_stimuli/rescaled_final/2172_rv.mp4	0.0	240.7537341117859	1.0085172653198242
37	179.96837091445923	movie	1		274	35.0	2.5	/experiments/knapen_AOT/AOT_stimuli/rescaled_final/2172_rv.mp4	0.0	241.7622513771057	2.492001533508301
37	180.34215021133423	pulse	1	t		35.0	2.5	/experiments/knapen_AOT/AOT_stimuli/rescaled_final/2172_rv.mp4	0.0	242.1360306739807	
37	181.9418432712555	pulse	1	t		35.0	2.5	/experiments/knapen_AOT/AOT_stimuli/rescaled_final/2172_rv.mp4	0.0	243.73572373390198	
37	182.46037244796753	fix_post	2		12	35.0	2.5	/experiments/knapen_AOT/AOT_stimuli/rescaled_final/2172_rv.mp4	0.0	244.254252910614	0.1000206470489502
38	182.56039309501648	fix_pre	0		119	36.0	2.5	/experiments/knapen_AOT/AOT_stimuli/rescaled_final/0161_fw.mp4	0.0	244.35427355766296	1.000176191329956
38	183.54412293434143	pulse	0	t		36.0	2.5	/experiments/knapen_AOT/AOT_stimuli/rescaled_final/0161_fw.mp4	0.0	245.33800339698792	
38	183.56056928634644	movie	1		279	36.0	2.5	/experiments/knapen_AOT/AOT_stimuli/rescaled_final/0161_fw.mp4	0.0	245.35444974899292	2.500340700149536
38	185.14431595802307	pulse	1	t		36.0	2.5	/experiments/knapen_AOT/AOT_stimuli/rescaled_final/0161_fw.mp4	0.0	246.93819642066956	
38	186.06090998649597	fix_post	2		12	36.0	2.5	/experiments/knapen_AOT/AOT_stimuli/rescaled_final/0161_fw.mp4	0.0	247.85479044914246	0.10005021095275879
39	186.16096019744873	fix_pre	0		120	37.0	2.5	/experiments/knapen_AOT/AOT_stimuli/rescaled_final/0010_rv.mp4	0.0	247.95484066009521	1.0084521770477295
39	186.7445604801178	pulse	0	t		37.0	2.5	/experiments/knapen_AOT/AOT_stimuli/rescaled_final/0010_rv.mp4	0.0	248.53844094276428	
39	187.16941237449646	movie	1		293	37.0	2.5	/experiments/knapen_AOT/AOT_stimuli/rescaled_final/0010_rv.mp4	0.0	248.96329283714294	2.492349863052368
39	188.34290504455566	pulse	1	t		37.0	2.5	/experiments/knapen_AOT/AOT_stimuli/rescaled_final/0010_rv.mp4	0.0	250.13678550720215	
39	189.66176223754883	fix_post	2		12	37.0	2.5	/experiments/knapen_AOT/AOT_stimuli/rescaled_final/0010_rv.mp4	0.0	251.4556427001953	0.09971475601196289
40	189.7614769935608	fix_pre	0		120	38.0	2.5	/experiments/knapen_AOT/AOT_stimuli/rescaled_final/1632_rv.mp4	0.0	251.55535745620728	1.0084881782531738
40	189.9450249671936	pulse	0	t		38.0	2.5	/experiments/knapen_AOT/AOT_stimuli/rescaled_final/1632_rv.mp4	0.0	251.7389054298401	
40	190.76996517181396	movie	1		291	38.0	2.5	/experiments/knapen_AOT/AOT_stimuli/rescaled_final/1632_rv.mp4	0.0	252.56384563446045	2.492001533508301
40	191.5440754890442	pulse	1	t		38.0	2.5	/experiments/knapen_AOT/AOT_stimuli/rescaled_final/1632_rv.mp4	0.0	253.33795595169067	
40	193.1410686969757	pulse	1	t		38.0	2.5	/experiments/knapen_AOT/AOT_stimuli/rescaled_final/1632_rv.mp4	0.0	254.9349491596222	
40	193.26196670532227	fix_post	2		12	38.0	2.5	/experiments/knapen_AOT/AOT_stimuli/rescaled_final/1632_rv.mp4	0.0	255.05584716796875	0.10004258155822754
41	193.3620092868805	fix_pre	0		120	39.0	2.5	/experiments/knapen_AOT/AOT_stimuli/rescaled_final/0819_rv.mp4	0.0	255.15588974952698	1.0000965595245361
41	194.36210584640503	movie	1		296	39.0	2.5	/experiments/knapen_AOT/AOT_stimuli/rescaled_final/0819_rv.mp4	0.0	256.1559863090515	2.500406265258789
41	194.74372458457947	pulse	1	t		39.0	2.5	/experiments/knapen_AOT/AOT_stimuli/rescaled_final/0819_rv.mp4	0.0	256.53760504722595	
41	196.34152221679688	pulse	1	t		39.0	2.5	/experiments/knapen_AOT/AOT_stimuli/rescaled_final/0819_rv.mp4	0.0	258.13540267944336	
41	196.86251211166382	fix_post	2		12	39.0	2.5	/experiments/knapen_AOT/AOT_stimuli/rescaled_final/0819_rv.mp4	0.0	258.6563925743103	0.10001182556152344
42	196.96252393722534	fix_pre	0		119	40.0	2.5	/experiments/knapen_AOT/AOT_stimuli/rescaled_final/0161_fw.mp4	0.0	258.7564043998718	1.000185489654541
42	197.93883681297302	pulse	0	t		40.0	2.5	/experiments/knapen_AOT/AOT_stimuli/rescaled_final/0161_fw.mp4	0.0	259.7327172756195	
42	197.96270942687988	movie	1		295	40.0	2.5	/experiments/knapen_AOT/AOT_stimuli/rescaled_final/0161_fw.mp4	0.0	259.75658988952637	2.500332832336426
42	199.54258131980896	pulse	1	t		40.0	2.5	/experiments/knapen_AOT/AOT_stimuli/rescaled_final/0161_fw.mp4	0.0	261.33646178245544	
42	200.4630422592163	fix_post	2		12	40.0	2.5	/experiments/knapen_AOT/AOT_stimuli/rescaled_final/0161_fw.mp4	0.0	262.2569227218628	0.10003209114074707
43	200.56307435035706	fix_pre	0		120	41.0	2.5	/experiments/knapen_AOT/AOT_stimuli/rescaled_final/1676_rv.mp4	0.0	262.35695481300354	1.0085015296936035
43	201.13868737220764	pulse	0	t		41.0	2.5	/experiments/knapen_AOT/AOT_stimuli/rescaled_final/1676_rv.mp4	0.0	262.9325678348541	
43	201.57157588005066	movie	1		294	41.0	2.5	/experiments/knapen_AOT/AOT_stimuli/rescaled_final/1676_rv.mp4	0.0	263.36545634269714	2.492046594619751
43	202.73868799209595	pulse	1	t		41.0	2.5	/experiments/knapen_AOT/AOT_stimuli/rescaled_final/1676_rv.mp4	0.0	264.53256845474243	
43	204.0636224746704	fix_post	2		12	41.0	2.5	/experiments/knapen_AOT/AOT_stimuli/rescaled_final/1676_rv.mp4	0.0	265.8575029373169	0.09999585151672363
44	204.16361832618713	fix_pre	0		120	42.0	2.5	blank	1.0	265.9574987888336	1.0001907348632812
44	204.33893871307373	pulse	0	t		42.0	2.5	blank	1.0	266.1328191757202	
44	205.16380906105042	movie	1		300	42.0	2.5	blank	1.0	266.9576895236969	2.500347375869751
44	205.93916988372803	pulse	1	t		42.0	2.5	blank	1.0	267.7330503463745	
44	207.5393795967102	pulse	1	t		42.0	2.5	blank	1.0	269.3332600593567	
44	207.66415643692017	fix_post	2		12	42.0	2.5	blank	1.0	269.45803689956665	0.10002446174621582
45	207.76418089866638	fix_pre	0		120	43.0	2.5	/experiments/knapen_AOT/AOT_stimuli/rescaled_final/0243_rv.mp4	0.0	269.55806136131287	1.0084805488586426
45	208.77266144752502	movie	1		280	43.0	2.5	/experiments/knapen_AOT/AOT_stimuli/rescaled_final/0243_rv.mp4	0.0	270.5665419101715	2.4920461177825928
45	209.13974595069885	pulse	1	t		43.0	2.5	/experiments/knapen_AOT/AOT_stimuli/rescaled_final/0243_rv.mp4	0.0	270.93362641334534	
45	210.73885369300842	pulse	1	t		43.0	2.5	/experiments/knapen_AOT/AOT_stimuli/rescaled_final/0243_rv.mp4	0.0	272.5327341556549	
45	211.26470756530762	fix_post	2		12	43.0	2.5	/experiments/knapen_AOT/AOT_stimuli/rescaled_final/0243_rv.mp4	0.0	273.0585880279541	0.10000848770141602
46	211.36471605300903	fix_pre	0		118	44.0	2.5	/experiments/knapen_AOT/AOT_stimuli/rescaled_final/1771_fw.mp4	0.0	273.1585965156555	0.9918239116668701
46	212.34020566940308	pulse	0	t		44.0	2.5	/experiments/knapen_AOT/AOT_stimuli/rescaled_final/1771_fw.mp4	0.0	274.13408613204956	
46	212.3565399646759	movie	1		279	44.0	2.5	/experiments/knapen_AOT/AOT_stimuli/rescaled_final/1771_fw.mp4	0.0	274.1504204273224	2.500365734100342
46	213.9392545223236	pulse	1	t		44.0	2.5	/experiments/knapen_AOT/AOT_stimuli/rescaled_final/1771_fw.mp4	0.0	275.7331349849701	
46	214.85690569877625	fix_post	2		12	44.0	2.5	/experiments/knapen_AOT/AOT_stimuli/rescaled_final/1771_fw.mp4	0.0	276.65078616142273	0.10000181198120117
47	214.95690751075745	fix_pre	0		120	45.0	2.5	/experiments/knapen_AOT/AOT_stimuli/rescaled_final/0404_fw.mp4	0.0	276.75078797340393	1.0085139274597168
47	215.54054498672485	pulse	0	t		45.0	2.5	/experiments/knapen_AOT/AOT_stimuli/rescaled_final/0404_fw.mp4	0.0	277.33442544937134	
47	215.96542143821716	movie	1		278	45.0	2.5	/experiments/knapen_AOT/AOT_stimuli/rescaled_final/0404_fw.mp4	0.0	277.75930190086365	2.4920265674591064
47	217.1397397518158	pulse	1	t		45.0	2.5	/experiments/knapen_AOT/AOT_stimuli/rescaled_final/0404_fw.mp4	0.0	278.9336202144623	
47	218.45744800567627	fix_post	2		12	45.0	2.5	/experiments/knapen_AOT/AOT_stimuli/rescaled_final/0404_fw.mp4	0.0	280.25132846832275	0.1000223159790039
48	218.55747032165527	fix_pre	0		120	46.0	2.5	/experiments/knapen_AOT/AOT_stimuli/rescaled_final/2069_fw.mp4	0.0	280.35135078430176	1.0086076259613037
48	218.74105596542358	pulse	0	t		46.0	2.5	/experiments/knapen_AOT/AOT_stimuli/rescaled_final/2069_fw.mp4	0.0	280.53493642807007	
48	219.56607794761658	movie	1		259	46.0	2.5	/experiments/knapen_AOT/AOT_stimuli/rescaled_final/2069_fw.mp4	0.0	281.35995841026306	2.4919261932373047
48	220.3408305644989	pulse	1	t		46.0	2.5	/experiments/knapen_AOT/AOT_stimuli/rescaled_final/2069_fw.mp4	0.0	282.1347110271454	
48	221.93967533111572	pulse	1	t		46.0	2.5	/experiments/knapen_AOT/AOT_stimuli/rescaled_final/2069_fw.mp4	0.0	283.7335557937622	
48	222.05800414085388	fix_post	2		12	46.0	2.5	/experiments/knapen_AOT/AOT_stimuli/rescaled_final/2069_fw.mp4	0.0	283.85188460350037	0.10003328323364258
49	222.15803742408752	fix_pre	0		120	47.0	2.5	/experiments/knapen_AOT/AOT_stimuli/rescaled_final/0950_rv.mp4	0.0	283.951917886734	1.008448839187622
49	223.16648626327515	movie	1		266	47.0	2.5	/experiments/knapen_AOT/AOT_stimuli/rescaled_final/0950_rv.mp4	0.0	284.96036672592163	2.4920451641082764
49	223.54057145118713	pulse	1	t		47.0	2.5	/experiments/knapen_AOT/AOT_stimuli/rescaled_final/0950_rv.mp4	0.0	285.3344519138336	
49	225.14111280441284	pulse	1	t		47.0	2.5	/experiments/knapen_AOT/AOT_stimuli/rescaled_final/0950_rv.mp4	0.0	286.9349932670593	
49	225.65853142738342	fix_post	2		12	47.0	2.5	/experiments/knapen_AOT/AOT_stimuli/rescaled_final/0950_rv.mp4	0.0	287.4524118900299	0.10003304481506348
50	225.7585644721985	fix_pre	0		119	48.0	2.5	/experiments/knapen_AOT/AOT_stimuli/rescaled_final/1771_fw.mp4	0.0	287.55244493484497	1.000124454498291
50	226.74227643013	pulse	0	t		48.0	2.5	/experiments/knapen_AOT/AOT_stimuli/rescaled_final/1771_fw.mp4	0.0	288.5361568927765	
50	226.75868892669678	movie	1		269	48.0	2.5	/experiments/knapen_AOT/AOT_stimuli/rescaled_final/1771_fw.mp4	0.0	288.55256938934326	2.5003957748413086
50	228.3414740562439	pulse	1	t		48.0	2.5	/experiments/knapen_AOT/AOT_stimuli/rescaled_final/1771_fw.mp4	0.0	290.1353545188904	
50	229.2590847015381	fix_post	2		12	48.0	2.5	/experiments/knapen_AOT/AOT_stimuli/rescaled_final/1771_fw.mp4	0.0	291.05296516418457	0.10002398490905762
51	229.35910868644714	fix_pre	0		120	49.0	2.5	blank	1.0	291.1529891490936	1.000091791152954
51	229.94284319877625	pulse	0	t		49.0	2.5	blank	1.0	291.73672366142273	
51	230.3592004776001	movie	1		300	49.0	2.5	blank	1.0	292.1530809402466	2.50040602684021
51	231.5429606437683	pulse	1	t		49.0	2.5	blank	1.0	293.3368411064148	
51	232.8596065044403	fix_post	2		12	49.0	2.5	blank	1.0	294.6534869670868	0.10002970695495605
52	232.95963621139526	fix_pre	0		120	50.0	2.5	/experiments/knapen_AOT/AOT_stimuli/rescaled_final/1827_rv.mp4	0.0	294.75351667404175	1.0084826946258545
52	233.1432626247406	pulse	0	t		50.0	2.5	/experiments/knapen_AOT/AOT_stimuli/rescaled_final/1827_rv.mp4	0.0	294.9371430873871	
52	233.96811890602112	movie	1		278	50.0	2.5	/experiments/knapen_AOT/AOT_stimuli/rescaled_final/1827_rv.mp4	0.0	295.7619993686676	2.49208402633667
52	234.74108719825745	pulse	1	t		50.0	2.5	/experiments/knapen_AOT/AOT_stimuli/rescaled_final/1827_rv.mp4	0.0	296.53496766090393	
52	236.34183049201965	pulse	1	t		50.0	2.5	/experiments/knapen_AOT/AOT_stimuli/rescaled_final/1827_rv.mp4	0.0	298.13571095466614	
52	236.4602029323578	fix_post	2		12	50.0	2.5	/experiments/knapen_AOT/AOT_stimuli/rescaled_final/1827_rv.mp4	0.0	298.2540833950043	0.09995579719543457
53	236.56015872955322	fix_pre	0		120	51.0	2.5	/experiments/knapen_AOT/AOT_stimuli/rescaled_final/0705_rv.mp4	0.0	298.3540391921997	1.0085554122924805
53	237.5687141418457	movie	1		285	51.0	2.5	/experiments/knapen_AOT/AOT_stimuli/rescaled_final/0705_rv.mp4	0.0	299.3625946044922	2.492027759552002
53	237.94233107566833	pulse	1	t		51.0	2.5	/experiments/knapen_AOT/AOT_stimuli/rescaled_final/0705_rv.mp4	0.0	299.7362115383148	
53	239.54233288764954	pulse	1	t		51.0	2.5	/experiments/knapen_AOT/AOT_stimuli/rescaled_final/0705_rv.mp4	0.0	301.336213350296	
53	240.0607419013977	fix_post	2		12	51.0	2.5	/experiments/knapen_AOT/AOT_stimuli/rescaled_final/0705_rv.mp4	0.0	301.8546223640442	0.10001063346862793
54	240.16075253486633	fix_pre	0		119	52.0	2.5	/experiments/knapen_AOT/AOT_stimuli/rescaled_final/1653_fw.mp4	0.0	301.9546329975128	1.0000996589660645
54	241.14444017410278	pulse	0	t		52.0	2.5	/experiments/knapen_AOT/AOT_stimuli/rescaled_final/1653_fw.mp4	0.0	302.93832063674927	
54	241.1608521938324	movie	1		281	52.0	2.5	/experiments/knapen_AOT/AOT_stimuli/rescaled_final/1653_fw.mp4	0.0	302.9547326564789	2.5003676414489746
54	242.74297761917114	pulse	1	t		52.0	2.5	/experiments/knapen_AOT/AOT_stimuli/rescaled_final/1653_fw.mp4	0.0	304.5368580818176	
54	243.66121983528137	fix_post	2		12	52.0	2.5	/experiments/knapen_AOT/AOT_stimuli/rescaled_final/1653_fw.mp4	0.0	305.45510029792786	0.10003137588500977
55	243.76125121116638	fix_pre	0		120	53.0	2.5	/experiments/knapen_AOT/AOT_stimuli/rescaled_final/0647_fw.mp4	0.0	305.55513167381287	1.0085387229919434
55	244.34489965438843	pulse	0	t		53.0	2.5	/experiments/knapen_AOT/AOT_stimuli/rescaled_final/0647_fw.mp4	0.0	306.1387801170349	
55	244.76978993415833	movie	1		279	53.0	2.5	/experiments/knapen_AOT/AOT_stimuli/rescaled_final/0647_fw.mp4	0.0	306.5636703968048	2.492014169692993
55	245.9447684288025	pulse	1	t		53.0	2.5	/experiments/knapen_AOT/AOT_stimuli/rescaled_final/0647_fw.mp4	0.0	307.738648891449	
55	247.26180410385132	fix_post	2		12	53.0	2.5	/experiments/knapen_AOT/AOT_stimuli/rescaled_final/0647_fw.mp4	0.0	309.0556845664978	0.09999275207519531
56	247.3617968559265	fix_pre	0		120	54.0	2.5	/experiments/knapen_AOT/AOT_stimuli/rescaled_final/0433_fw.mp4	0.0	309.155677318573	1.008453607559204
56	247.54543590545654	pulse	0	t		54.0	2.5	/experiments/knapen_AOT/AOT_stimuli/rescaled_final/0433_fw.mp4	0.0	309.339316368103	
56	248.37025046348572	movie	1		279	54.0	2.5	/experiments/knapen_AOT/AOT_stimuli/rescaled_final/0433_fw.mp4	0.0	310.1641309261322	2.4921889305114746
56	249.14541602134705	pulse	1	t		54.0	2.5	/experiments/knapen_AOT/AOT_stimuli/rescaled_final/0433_fw.mp4	0.0	310.93929648399353	
56	250.74393033981323	pulse	1	t		54.0	2.5	/experiments/knapen_AOT/AOT_stimuli/rescaled_final/0433_fw.mp4	0.0	312.5378108024597	
56	250.8624393939972	fix_post	2		12	54.0	2.5	/experiments/knapen_AOT/AOT_stimuli/rescaled_final/0433_fw.mp4	0.0	312.6563198566437	0.09988951683044434
57	250.96232891082764	fix_pre	0		120	55.0	2.5	blank	1.0	312.7562093734741	1.0001254081726074
57	251.96245431900024	movie	1		300	55.0	2.5	blank	1.0	313.75633478164673	2.5003881454467773
57	252.34611082077026	pulse	1	t		55.0	2.5	blank	1.0	314.13999128341675	
57	253.93946957588196	pulse	1	t		55.0	2.5	blank	1.0	315.73335003852844	
57	254.46284246444702	fix_post	2		12	55.0	2.5	blank	1.0	316.2567229270935	0.10015368461608887
58	254.5629961490631	fix_pre	0		119	56.0	2.5	/experiments/knapen_AOT/AOT_stimuli/rescaled_final/0604_fw.mp4	0.0	316.3568766117096	1.0000321865081787
58	255.54655742645264	pulse	0	t		56.0	2.5	/experiments/knapen_AOT/AOT_stimuli/rescaled_final/0604_fw.mp4	0.0	317.3404378890991	
58	255.5630283355713	movie	1		281	56.0	2.5	/experiments/knapen_AOT/AOT_stimuli/rescaled_final/0604_fw.mp4	0.0	317.3569087982178	2.5003602504730225
58	257.1457214355469	pulse	1	t		56.0	2.5	/experiments/knapen_AOT/AOT_stimuli/rescaled_final/0604_fw.mp4	0.0	318.93960189819336	
58	258.0633885860443	fix_post	2		12	56.0	2.5	/experiments/knapen_AOT/AOT_stimuli/rescaled_final/0604_fw.mp4	0.0	319.8572690486908	0.10002017021179199
59	258.1634087562561	fix_pre	0		120	57.0	2.5	/experiments/knapen_AOT/AOT_stimuli/rescaled_final/0306_rv.mp4	0.0	319.9572892189026	1.0085043907165527
59	258.73938941955566	pulse	0	t		57.0	2.5	/experiments/knapen_AOT/AOT_stimuli/rescaled_final/0306_rv.mp4	0.0	320.53326988220215	
59	259.17191314697266	movie	1		277	57.0	2.5	/experiments/knapen_AOT/AOT_stimuli/rescaled_final/0306_rv.mp4	0.0	320.96579360961914	2.49218487739563
59	260.3391969203949	pulse	1	t		57.0	2.5	/experiments/knapen_AOT/AOT_stimuli/rescaled_final/0306_rv.mp4	0.0	322.1330773830414	
59	261.6640980243683	fix_post	2		12	57.0	2.5	/experiments/knapen_AOT/AOT_stimuli/rescaled_final/0306_rv.mp4	0.0	323.45797848701477	0.09986186027526855
60	261.76395988464355	fix_pre	0		120	58.0	2.5	/experiments/knapen_AOT/AOT_stimuli/rescaled_final/0151_fw.mp4	0.0	323.55784034729004	1.0084729194641113
60	261.9393193721771	pulse	0	t		58.0	2.5	/experiments/knapen_AOT/AOT_stimuli/rescaled_final/0151_fw.mp4	0.0	323.7331998348236	
60	262.77243280410767	movie	1		282	58.0	2.5	/experiments/knapen_AOT/AOT_stimuli/rescaled_final/0151_fw.mp4	0.0	324.56631326675415	2.4920380115509033
60	263.5395152568817	pulse	1	t		58.0	2.5	/experiments/knapen_AOT/AOT_stimuli/rescaled_final/0151_fw.mp4	0.0	325.3333957195282	
60	265.1397376060486	pulse	1	t		58.0	2.5	/experiments/knapen_AOT/AOT_stimuli/rescaled_final/0151_fw.mp4	0.0	326.93361806869507	
60	265.26447081565857	fix_post	2		12	58.0	2.5	/experiments/knapen_AOT/AOT_stimuli/rescaled_final/0151_fw.mp4	0.0	327.05835127830505	0.10002899169921875
61	265.3644998073578	fix_pre	0		120	59.0	2.5	/experiments/knapen_AOT/AOT_stimuli/rescaled_final/0429_fw.mp4	0.0	327.1583802700043	1.0085077285766602
61	266.37300753593445	movie	1		280	59.0	2.5	/experiments/knapen_AOT/AOT_stimuli/rescaled_final/0429_fw.mp4	0.0	328.16688799858093	2.4920101165771484
61	266.7401258945465	pulse	1	t		59.0	2.5	/experiments/knapen_AOT/AOT_stimuli/rescaled_final/0429_fw.mp4	0.0	328.534006357193	
61	268.3401823043823	pulse	1	t		59.0	2.5	/experiments/knapen_AOT/AOT_stimuli/rescaled_final/0429_fw.mp4	0.0	330.1340627670288	
61	268.8650176525116	fix_post	2		12	59.0	2.5	/experiments/knapen_AOT/AOT_stimuli/rescaled_final/0429_fw.mp4	0.0	330.6588981151581	0.1000361442565918
62	268.9650537967682	fix_pre	0		118	60.0	2.5	/experiments/knapen_AOT/AOT_stimuli/rescaled_final/1271_fw.mp4	0.0	330.7589342594147	0.9918069839477539
62	269.94039487838745	pulse	0	t		60.0	2.5	/experiments/knapen_AOT/AOT_stimuli/rescaled_final/1271_fw.mp4	0.0	331.73427534103394	
62	269.95686078071594	movie	1		288	60.0	2.5	/experiments/knapen_AOT/AOT_stimuli/rescaled_final/1271_fw.mp4	0.0	331.7507412433624	2.5003647804260254
62	271.5407540798187	pulse	1	t		60.0	2.5	/experiments/knapen_AOT/AOT_stimuli/rescaled_final/1271_fw.mp4	0.0	333.3346345424652	
62	272.45722556114197	fix_post	2		12	60.0	2.5	/experiments/knapen_AOT/AOT_stimuli/rescaled_final/1271_fw.mp4	0.0	334.25110602378845	0.10007524490356445
63	272.55730080604553	fix_pre	0		120	61.0	2.5	blank	1.0	334.351181268692	1.0001449584960938
63	273.1409559249878	pulse	0	t		61.0	2.5	blank	1.0	334.9348363876343	
63	273.5574457645416	movie	1		300	61.0	2.5	blank	1.0	335.3513262271881	2.5003137588500977
63	274.74120831489563	pulse	1	t		61.0	2.5	blank	1.0	336.5350887775421	
63	276.0577595233917	fix_post	2		12	61.0	2.5	blank	1.0	337.8516399860382	0.10002613067626953
64	276.157785654068	fix_pre	0		120	62.0	2.5	/experiments/knapen_AOT/AOT_stimuli/rescaled_final/0792_rv.mp4	0.0	337.9516661167145	1.008479356765747
64	276.3413848876953	pulse	0	t		62.0	2.5	/experiments/knapen_AOT/AOT_stimuli/rescaled_final/0792_rv.mp4	0.0	338.1352653503418	
64	277.16626501083374	movie	1		281	62.0	2.5	/experiments/knapen_AOT/AOT_stimuli/rescaled_final/0792_rv.mp4	0.0	338.9601454734802	2.492035388946533
64	277.939728975296	pulse	1	t		62.0	2.5	/experiments/knapen_AOT/AOT_stimuli/rescaled_final/0792_rv.mp4	0.0	339.7336094379425	
64	279.54217767715454	pulse	1	t		62.0	2.5	/experiments/knapen_AOT/AOT_stimuli/rescaled_final/0792_rv.mp4	0.0	341.336058139801	
64	279.6583003997803	fix_post	2		12	62.0	2.5	/experiments/knapen_AOT/AOT_stimuli/rescaled_final/0792_rv.mp4	0.0	341.45218086242676	0.10008049011230469
65	279.7583808898926	fix_pre	0		120	63.0	2.5	/experiments/knapen_AOT/AOT_stimuli/rescaled_final/2172_fw.mp4	0.0	341.55226135253906	1.0084519386291504
65	280.76683282852173	movie	1		272	63.0	2.5	/experiments/knapen_AOT/AOT_stimuli/rescaled_final/2172_fw.mp4	0.0	342.5607132911682	2.492034435272217
65	281.1418581008911	pulse	1	t		63.0	2.5	/experiments/knapen_AOT/AOT_stimuli/rescaled_final/2172_fw.mp4	0.0	342.9357385635376	
65	282.74012541770935	pulse	1	t		63.0	2.5	/experiments/knapen_AOT/AOT_stimuli/rescaled_final/2172_fw.mp4	0.0	344.53400588035583	
65	283.25886726379395	fix_post	2		12	63.0	2.5	/experiments/knapen_AOT/AOT_stimuli/rescaled_final/2172_fw.mp4	0.0	345.05274772644043	0.0999908447265625
66	283.3588581085205	fix_pre	0		119	64.0	2.5	/experiments/knapen_AOT/AOT_stimuli/rescaled_final/2087_fw.mp4	0.0	345.152738571167	1.0085887908935547
66	284.34264087677	pulse	0	t		64.0	2.5	/experiments/knapen_AOT/AOT_stimuli/rescaled_final/2087_fw.mp4	0.0	346.1365213394165	
66	284.36744689941406	movie	1		287	64.0	2.5	/experiments/knapen_AOT/AOT_stimuli/rescaled_final/2087_fw.mp4	0.0	346.16132736206055	2.491943836212158
66	285.9411587715149	pulse	1	t		64.0	2.5	/experiments/knapen_AOT/AOT_stimuli/rescaled_final/2087_fw.mp4	0.0	347.7350392341614	
66	286.8593907356262	fix_post	2		12	64.0	2.5	/experiments/knapen_AOT/AOT_stimuli/rescaled_final/2087_fw.mp4	0.0	348.6532711982727	0.10009241104125977
67	286.9594831466675	fix_pre	0		120	65.0	2.5	/experiments/knapen_AOT/AOT_stimuli/rescaled_final/1981_rv.mp4	0.0	348.75336360931396	1.0084776878356934
67	287.54308915138245	pulse	0	t		65.0	2.5	/experiments/knapen_AOT/AOT_stimuli/rescaled_final/1981_rv.mp4	0.0	349.33696961402893	
67	287.9679608345032	movie	1		287	65.0	2.5	/experiments/knapen_AOT/AOT_stimuli/rescaled_final/1981_rv.mp4	0.0	349.76184129714966	2.491955280303955
67	289.1416780948639	pulse	1	t		65.0	2.5	/experiments/knapen_AOT/AOT_stimuli/rescaled_final/1981_rv.mp4	0.0	350.9355585575104	
67	290.45991611480713	fix_post	2		12	65.0	2.5	/experiments/knapen_AOT/AOT_stimuli/rescaled_final/1981_rv.mp4	0.0	352.2537965774536	0.10002613067626953
68	290.5599422454834	fix_pre	0		120	66.0	2.5	/experiments/knapen_AOT/AOT_stimuli/rescaled_final/0742_fw.mp4	0.0	352.3538227081299	1.0085134506225586
68	290.7434911727905	pulse	0	t		66.0	2.5	/experiments/knapen_AOT/AOT_stimuli/rescaled_final/0742_fw.mp4	0.0	352.537371635437	
68	291.56845569610596	movie	1		281	66.0	2.5	/experiments/knapen_AOT/AOT_stimuli/rescaled_final/0742_fw.mp4	0.0	353.36233615875244	2.4920337200164795
68	292.3414161205292	pulse	1	t		66.0	2.5	/experiments/knapen_AOT/AOT_stimuli/rescaled_final/0742_fw.mp4	0.0	354.13529658317566	
68	293.9422686100006	pulse	1	t		66.0	2.5	/experiments/knapen_AOT/AOT_stimuli/rescaled_final/0742_fw.mp4	0.0	355.7361490726471	
68	294.06048941612244	fix_post	2		12	66.0	2.5	/experiments/knapen_AOT/AOT_stimuli/rescaled_final/0742_fw.mp4	0.0	355.8543698787689	0.09998130798339844
69	294.16047072410583	fix_pre	0		120	67.0	2.5	/experiments/knapen_AOT/AOT_stimuli/rescaled_final/0994_fw.mp4	0.0	355.9543511867523	1.0085289478302002
69	295.16899967193604	movie	1		270	67.0	2.5	/experiments/knapen_AOT/AOT_stimuli/rescaled_final/0994_fw.mp4	0.0	356.9628801345825	2.492004632949829
69	295.5425181388855	pulse	1	t		67.0	2.5	/experiments/knapen_AOT/AOT_stimuli/rescaled_final/0994_fw.mp4	0.0	357.336398601532	
69	297.1421959400177	pulse	1	t		67.0	2.5	/experiments/knapen_AOT/AOT_stimuli/rescaled_final/0994_fw.mp4	0.0	358.9360764026642	
69	297.66100430488586	fix_post	2		12	67.0	2.5	/experiments/knapen_AOT/AOT_stimuli/rescaled_final/0994_fw.mp4	0.0	359.45488476753235	0.1000206470489502
70	297.7610249519348	fix_pre	0		119	68.0	2.5	/experiments/knapen_AOT/AOT_stimuli/rescaled_final/1357_rv.mp4	0.0	359.5549054145813	1.0001490116119385
70	298.7447438240051	pulse	0	t		68.0	2.5	/experiments/knapen_AOT/AOT_stimuli/rescaled_final/1357_rv.mp4	0.0	360.5386242866516	
70	298.76117396354675	movie	1		271	68.0	2.5	/experiments/knapen_AOT/AOT_stimuli/rescaled_final/1357_rv.mp4	0.0	360.55505442619324	2.5003976821899414
70	300.34333395957947	pulse	1	t		68.0	2.5	/experiments/knapen_AOT/AOT_stimuli/rescaled_final/1357_rv.mp4	0.0	362.13721442222595	
70	301.2615716457367	fix_post	2		12	68.0	2.5	/experiments/knapen_AOT/AOT_stimuli/rescaled_final/1357_rv.mp4	0.0	363.0554521083832	0.09999537467956543
71	301.36156702041626	fix_pre	0		120	69.0	2.5	/experiments/knapen_AOT/AOT_stimuli/rescaled_final/0322_rv.mp4	0.0	363.15544748306274	1.0085430145263672
71	301.9452471733093	pulse	0	t		69.0	2.5	/experiments/knapen_AOT/AOT_stimuli/rescaled_final/0322_rv.mp4	0.0	363.7391276359558	
71	302.3701100349426	movie	1		291	69.0	2.5	/experiments/knapen_AOT/AOT_stimuli/rescaled_final/0322_rv.mp4	0.0	364.1639904975891	2.4919803142547607
71	303.5436108112335	pulse	1	t		69.0	2.5	/experiments/knapen_AOT/AOT_stimuli/rescaled_final/0322_rv.mp4	0.0	365.33749127388	
71	304.8620903491974	fix_post	2		12	69.0	2.5	/experiments/knapen_AOT/AOT_stimuli/rescaled_final/0322_rv.mp4	0.0	366.6559708118439	0.1000065803527832
72	304.96209692955017	fix_pre	0		120	70.0	2.5	blank	1.0	366.75597739219666	1.0001482963562012
72	305.14567279815674	pulse	0	t		70.0	2.5	blank	1.0	366.9395532608032	
72	305.9622452259064	movie	1		300	70.0	2.5	blank	1.0	367.75612568855286	2.5003750324249268
72	306.74599862098694	pulse	1	t		70.0	2.5	blank	1.0	368.5398790836334	
72	308.34613156318665	pulse	1	t		70.0	2.5	blank	1.0	370.14001202583313	
72	308.4626202583313	fix_post	2		12	70.0	2.5	blank	1.0	370.2565007209778	0.1000220775604248
73	308.5626423358917	fix_pre	0		120	71.0	2.5	/experiments/knapen_AOT/AOT_stimuli/rescaled_final/0866_fw.mp4	0.0	370.3565227985382	1.0084753036499023
73	309.5711176395416	movie	1		272	71.0	2.5	/experiments/knapen_AOT/AOT_stimuli/rescaled_final/0866_fw.mp4	0.0	371.3649981021881	2.492055654525757
73	309.94665026664734	pulse	1	t		71.0	2.5	/experiments/knapen_AOT/AOT_stimuli/rescaled_final/0866_fw.mp4	0.0	371.7405307292938	
73	311.5445907115936	pulse	1	t		71.0	2.5	/experiments/knapen_AOT/AOT_stimuli/rescaled_final/0866_fw.mp4	0.0	373.3384711742401	
73	312.0631732940674	fix_post	2		12	71.0	2.5	/experiments/knapen_AOT/AOT_stimuli/rescaled_final/0866_fw.mp4	0.0	373.85705375671387	0.09999728202819824
74	312.1631705760956	fix_pre	0		119	72.0	2.5	/experiments/knapen_AOT/AOT_stimuli/rescaled_final/0915_fw.mp4	0.0	373.95705103874207	1.0002360343933105
74	313.1468868255615	pulse	0	t		72.0	2.5	/experiments/knapen_AOT/AOT_stimuli/rescaled_final/0915_fw.mp4	0.0	374.940767288208	
74	313.1634066104889	movie	1		275	72.0	2.5	/experiments/knapen_AOT/AOT_stimuli/rescaled_final/0915_fw.mp4	0.0	374.9572870731354	2.5003204345703125
74	314.7461955547333	pulse	1	t		72.0	2.5	/experiments/knapen_AOT/AOT_stimuli/rescaled_final/0915_fw.mp4	0.0	376.54007601737976	
74	315.6637270450592	fix_post	2		12	72.0	2.5	/experiments/knapen_AOT/AOT_stimuli/rescaled_final/0915_fw.mp4	0.0	377.4576075077057	0.10000920295715332
75	315.76373624801636	fix_pre	0		120	73.0	2.5	/experiments/knapen_AOT/AOT_stimuli/rescaled_final/0620_rv.mp4	0.0	377.55761671066284	1.008467197418213
75	316.3403158187866	pulse	0	t		73.0	2.5	/experiments/knapen_AOT/AOT_stimuli/rescaled_final/0620_rv.mp4	0.0	378.1341962814331	
75	316.77220344543457	movie	1		270	73.0	2.5	/experiments/knapen_AOT/AOT_stimuli/rescaled_final/0620_rv.mp4	0.0	378.56608390808105	2.4920570850372314
75	317.94603085517883	pulse	1	t		73.0	2.5	/experiments/knapen_AOT/AOT_stimuli/rescaled_final/0620_rv.mp4	0.0	379.7399113178253	
75	319.2642605304718	fix_post	2		12	73.0	2.5	/experiments/knapen_AOT/AOT_stimuli/rescaled_final/0620_rv.mp4	0.0	381.0581409931183	0.10002875328063965
76	319.36428928375244	fix_pre	0		120	74.0	2.5	/experiments/knapen_AOT/AOT_stimuli/rescaled_final/1802_fw.mp4	0.0	381.1581697463989	1.008500576019287
76	319.53972816467285	pulse	0	t		74.0	2.5	/experiments/knapen_AOT/AOT_stimuli/rescaled_final/1802_fw.mp4	0.0	381.33360862731934	
76	320.37278985977173	movie	1		284	74.0	2.5	/experiments/knapen_AOT/AOT_stimuli/rescaled_final/1802_fw.mp4	0.0	382.1666703224182	2.4921226501464844
76	321.139732837677	pulse	1	t		74.0	2.5	/experiments/knapen_AOT/AOT_stimuli/rescaled_final/1802_fw.mp4	0.0	382.9336133003235	
76	322.740021944046	pulse	1	t		74.0	2.5	/experiments/knapen_AOT/AOT_stimuli/rescaled_final/1802_fw.mp4	0.0	384.5339024066925	
76	322.8649125099182	fix_post	2		12	74.0	2.5	/experiments/knapen_AOT/AOT_stimuli/rescaled_final/1802_fw.mp4	0.0	384.6587929725647	0.0999143123626709
77	322.9648268222809	fix_pre	0		120	75.0	2.5	blank	1.0	384.75870728492737	1.000135898590088
77	323.964962720871	movie	1		299	75.0	2.5	blank	1.0	385.75884318351746	2.500375747680664
77	324.3404154777527	pulse	1	t		75.0	2.5	blank	1.0	386.13429594039917	
77	325.9405837059021	pulse	1	t		75.0	2.5	blank	1.0	387.7344641685486	
77	326.46533846855164	fix_post	2		12	75.0	2.5	blank	1.0	388.2592189311981	0.10001277923583984
78	326.5653512477875	fix_pre	0		118	76.0	2.5	/experiments/knapen_AOT/AOT_stimuli/rescaled_final/1152_rv.mp4	0.0	388.35923171043396	0.9917960166931152
78	327.54071521759033	pulse	0	t		76.0	2.5	/experiments/knapen_AOT/AOT_stimuli/rescaled_final/1152_rv.mp4	0.0	389.3345956802368	
78	327.5571472644806	movie	1		271	76.0	2.5	/experiments/knapen_AOT/AOT_stimuli/rescaled_final/1152_rv.mp4	0.0	389.3510277271271	2.500380039215088
78	329.14107942581177	pulse	1	t		76.0	2.5	/experiments/knapen_AOT/AOT_stimuli/rescaled_final/1152_rv.mp4	0.0	390.93495988845825	
78	330.0575273036957	fix_post	2		12	76.0	2.5	/experiments/knapen_AOT/AOT_stimuli/rescaled_final/1152_rv.mp4	0.0	391.85140776634216	0.10003018379211426
79	330.1575574874878	fix_pre	0		120	77.0	2.5	/experiments/knapen_AOT/AOT_stimuli/rescaled_final/1222_rv.mp4	0.0	391.9514379501343	1.0084946155548096
79	330.7414381504059	pulse	0	t		77.0	2.5	/experiments/knapen_AOT/AOT_stimuli/rescaled_final/1222_rv.mp4	0.0	392.53531861305237	
79	331.1660521030426	movie	1		267	77.0	2.5	/experiments/knapen_AOT/AOT_stimuli/rescaled_final/1222_rv.mp4	0.0	392.9599325656891	2.4920952320098877
79	332.34180450439453	pulse	1	t		77.0	2.5	/experiments/knapen_AOT/AOT_stimuli/rescaled_final/1222_rv.mp4	0.0	394.135684967041	
79	333.6581473350525	fix_post	2		12	77.0	2.5	/experiments/knapen_AOT/AOT_stimuli/rescaled_final/1222_rv.mp4	0.0	395.452027797699	0.10001945495605469
80	333.75816679000854	fix_pre	0		120	78.0	2.5	/experiments/knapen_AOT/AOT_stimuli/rescaled_final/0224_rv.mp4	0.0	395.55204725265503	1.0084342956542969
80	333.9416699409485	pulse	0	t		78.0	2.5	/experiments/knapen_AOT/AOT_stimuli/rescaled_final/0224_rv.mp4	0.0	395.73555040359497	
80	334.76660108566284	movie	1		275	78.0	2.5	/experiments/knapen_AOT/AOT_stimuli/rescaled_final/0224_rv.mp4	0.0	396.5604815483093	2.4920027256011963
80	335.53993463516235	pulse	1	t		78.0	2.5	/experiments/knapen_AOT/AOT_stimuli/rescaled_final/0224_rv.mp4	0.0	397.33381509780884	
80	337.1401734352112	pulse	1	t		78.0	2.5	/experiments/knapen_AOT/AOT_stimuli/rescaled_final/0224_rv.mp4	0.0	398.93405389785767	
80	337.25860381126404	fix_post	2		12	78.0	2.5	/experiments/knapen_AOT/AOT_stimuli/rescaled_final/0224_rv.mp4	0.0	399.0524842739105	0.10003256797790527
81	337.35863637924194	fix_pre	0		120	79.0	2.5	/experiments/knapen_AOT/AOT_stimuli/rescaled_final/0878_rv.mp4	0.0	399.1525168418884	1.0085089206695557
81	338.3671452999115	movie	1		288	79.0	2.5	/experiments/knapen_AOT/AOT_stimuli/rescaled_final/0878_rv.mp4	0.0	400.161025762558	2.492046356201172
81	338.7430217266083	pulse	1	t		79.0	2.5	/experiments/knapen_AOT/AOT_stimuli/rescaled_final/0878_rv.mp4	0.0	400.53690218925476	
81	340.3407213687897	pulse	1	t		79.0	2.5	/experiments/knapen_AOT/AOT_stimuli/rescaled_final/0878_rv.mp4	0.0	402.13460183143616	
81	340.85919165611267	fix_post	2		12	79.0	2.5	/experiments/knapen_AOT/AOT_stimuli/rescaled_final/0878_rv.mp4	0.0	402.65307211875916	0.10004639625549316
82	340.95923805236816	fix_pre	0		119	80.0	2.5	/experiments/knapen_AOT/AOT_stimuli/rescaled_final/1878_rv.mp4	0.0	402.75311851501465	1.0001585483551025
82	341.94315218925476	pulse	0	t		80.0	2.5	/experiments/knapen_AOT/AOT_stimuli/rescaled_final/1878_rv.mp4	0.0	403.73703265190125	
82	341.95939660072327	movie	1		279	80.0	2.5	/experiments/knapen_AOT/AOT_stimuli/rescaled_final/1878_rv.mp4	0.0	403.75327706336975	2.500293254852295
82	343.5412652492523	pulse	1	t		80.0	2.5	/experiments/knapen_AOT/AOT_stimuli/rescaled_final/1878_rv.mp4	0.0	405.3351457118988	
82	344.45968985557556	fix_post	2		12	80.0	2.5	/experiments/knapen_AOT/AOT_stimuli/rescaled_final/1878_rv.mp4	0.0	406.25357031822205	0.10005068778991699
83	344.5597405433655	fix_pre	0		120	81.0	2.5	/experiments/knapen_AOT/AOT_stimuli/rescaled_final/0639_rv.mp4	0.0	406.35362100601196	1.0084624290466309
83	345.14327907562256	pulse	0	t		81.0	2.5	/experiments/knapen_AOT/AOT_stimuli/rescaled_final/0639_rv.mp4	0.0	406.93715953826904	
83	345.5682029724121	movie	1		276	81.0	2.5	/experiments/knapen_AOT/AOT_stimuli/rescaled_final/0639_rv.mp4	0.0	407.3620834350586	2.4920361042022705
83	346.74187898635864	pulse	1	t		81.0	2.5	/experiments/knapen_AOT/AOT_stimuli/rescaled_final/0639_rv.mp4	0.0	408.5357594490051	
83	348.0602390766144	fix_post	2		12	81.0	2.5	/experiments/knapen_AOT/AOT_stimuli/rescaled_final/0639_rv.mp4	0.0	409.85411953926086	0.10006999969482422
84	348.1603090763092	fix_pre	0		120	82.0	2.5	/experiments/knapen_AOT/AOT_stimuli/rescaled_final/1396_rv.mp4	0.0	409.9541895389557	1.0084335803985596
84	348.34382724761963	pulse	0	t		82.0	2.5	/experiments/knapen_AOT/AOT_stimuli/rescaled_final/1396_rv.mp4	0.0	410.1377077102661	
84	349.16874265670776	movie	1		269	82.0	2.5	/experiments/knapen_AOT/AOT_stimuli/rescaled_final/1396_rv.mp4	0.0	410.96262311935425	2.4920616149902344
84	349.9434223175049	pulse	1	t		82.0	2.5	/experiments/knapen_AOT/AOT_stimuli/rescaled_final/1396_rv.mp4	0.0	411.73730278015137	
84	351.54594707489014	pulse	1	t		82.0	2.5	/experiments/knapen_AOT/AOT_stimuli/rescaled_final/1396_rv.mp4	0.0	413.3398275375366	
84	351.660804271698	fix_post	2		12	82.0	2.5	/experiments/knapen_AOT/AOT_stimuli/rescaled_final/1396_rv.mp4	0.0	413.4546847343445	0.1000051498413086
85	351.7608094215393	fix_pre	0		120	83.0	2.5	blank	1.0	413.5546898841858	1.0001513957977295
85	352.76096081733704	movie	1		300	83.0	2.5	blank	1.0	414.5548412799835	2.5003581047058105
85	353.1446235179901	pulse	1	t		83.0	2.5	blank	1.0	414.9385039806366	
85	354.7448046207428	pulse	1	t		83.0	2.5	blank	1.0	416.5386850833893	
85	355.26131892204285	fix_post	2		12	83.0	2.5	blank	1.0	417.05519938468933	0.10007786750793457
87	355.3613967895508	stim	0		1715					417.15527725219727	14.293747186660767
87	356.34507036209106	pulse	0	t						418.13895082473755	
87	357.9452669620514	pulse	0	t						419.7391474246979	
87	359.54550313949585	pulse	0	t						421.33938360214233	
87	361.14588260650635	pulse	0	t						422.93976306915283	
87	362.745974779129	pulse	0	t						424.5398552417755	
87	364.34636211395264	pulse	0	t						426.1402425765991	
87	365.939076423645	pulse	0	t						427.7329568862915	
87	367.53902196884155	pulse	0	t						429.33290243148804	
87	369.13885164260864	pulse	0	t						430.9327321052551	
