trial_nr	onset	event_type	phase	response	nr_frames	movie_index	movie_duration	movie_file	blank	onset_abs	duration
0	0.1831657886505127	stim	0		27					22.165408849716187	0.2250051498413086
0	0.4002869129180908	response	0	space						22.382529973983765	
1	0.4081709384918213	stim	0		4531					22.390413999557495	37.775853872299194
1	38.173956871032715	pulse	0	t						60.15619993209839	
1	38.184024810791016	stim	1		1716					60.16626787185669	14.30693006515503
1	39.76420283317566	pulse	1	t						61.74644589424133	
1	41.36450481414795	pulse	1	t						63.34674787521362	
1	42.96467995643616	pulse	1	t						64.94692301750183	
1	44.56494092941284	pulse	1	t						66.54718399047852	
1	46.165217876434326	pulse	1	t						68.1474609375	
1	47.76545786857605	pulse	1	t						69.74770092964172	
1	49.365720987319946	pulse	1	t						71.34796404838562	
1	50.9658567905426	pulse	1	t						72.94809985160828	
2	52.490954875946045	fix_pre	0		10	0.0	2.5	/experiments/knapen_AOT/AOT_stimuli/rescaled_final/0556_rv.mp4	0.0	74.47319793701172	0.0834500789642334
2	52.566104888916016	pulse	0	t		0.0	2.5	/experiments/knapen_AOT/AOT_stimuli/rescaled_final/0556_rv.mp4	0.0	74.54834794998169	
2	52.57440495491028	movie	1		245	0.0	2.5	/experiments/knapen_AOT/AOT_stimuli/rescaled_final/0556_rv.mp4	0.0	74.55664801597595	2.5086159706115723
2	54.17078495025635	pulse	1	t		0.0	2.5	/experiments/knapen_AOT/AOT_stimuli/rescaled_final/0556_rv.mp4	0.0	76.15302801132202	
2	55.08302092552185	fix_post	2		12	0.0	2.5	/experiments/knapen_AOT/AOT_stimuli/rescaled_final/0556_rv.mp4	0.0	77.06526398658752	0.09997105598449707
3	55.18299198150635	fix_pre	0		120	1.0	2.5	/experiments/knapen_AOT/AOT_stimuli/rescaled_final/0916_fw.mp4	0.0	77.16523504257202	1.0001959800720215
3	55.76672387123108	pulse	0	t		1.0	2.5	/experiments/knapen_AOT/AOT_stimuli/rescaled_final/0916_fw.mp4	0.0	77.74896693229675	
3	56.18318796157837	movie	1		243	1.0	2.5	/experiments/knapen_AOT/AOT_stimuli/rescaled_final/0916_fw.mp4	0.0	78.16543102264404	2.500332832336426
3	57.36700391769409	pulse	1	t		1.0	2.5	/experiments/knapen_AOT/AOT_stimuli/rescaled_final/0916_fw.mp4	0.0	79.34924697875977	
3	58.683520793914795	fix_post	2		12	1.0	2.5	/experiments/knapen_AOT/AOT_stimuli/rescaled_final/0916_fw.mp4	0.0	80.66576385498047	0.1000211238861084
4	58.7835419178009	fix_pre	0		120	2.0	2.5	/experiments/knapen_AOT/AOT_stimuli/rescaled_final/1322_rv.mp4	0.0	80.76578497886658	1.0001349449157715
4	58.96717596054077	pulse	0	t		2.0	2.5	/experiments/knapen_AOT/AOT_stimuli/rescaled_final/1322_rv.mp4	0.0	80.94941902160645	
4	59.783676862716675	movie	1		244	2.0	2.5	/experiments/knapen_AOT/AOT_stimuli/rescaled_final/1322_rv.mp4	0.0	81.76591992378235	2.5003840923309326
4	60.56731581687927	pulse	1	t		2.0	2.5	/experiments/knapen_AOT/AOT_stimuli/rescaled_final/1322_rv.mp4	0.0	82.54955887794495	
4	62.167515993118286	pulse	1	t		2.0	2.5	/experiments/knapen_AOT/AOT_stimuli/rescaled_final/1322_rv.mp4	0.0	84.14975905418396	
4	62.28406095504761	fix_post	2		12	2.0	2.5	/experiments/knapen_AOT/AOT_stimuli/rescaled_final/1322_rv.mp4	0.0	84.26630401611328	0.09998202323913574
5	62.38404297828674	fix_pre	0		119	3.0	2.5	/experiments/knapen_AOT/AOT_stimuli/rescaled_final/0888_rv.mp4	0.0	84.36628603935242	0.9918298721313477
5	63.37587285041809	movie	1		243	3.0	2.5	/experiments/knapen_AOT/AOT_stimuli/rescaled_final/0888_rv.mp4	0.0	85.35811591148376	2.5003559589385986
5	63.767889976501465	pulse	1	t		3.0	2.5	/experiments/knapen_AOT/AOT_stimuli/rescaled_final/0888_rv.mp4	0.0	85.75013303756714	
5	65.36810994148254	pulse	1	t		3.0	2.5	/experiments/knapen_AOT/AOT_stimuli/rescaled_final/0888_rv.mp4	0.0	87.35035300254822	
5	65.87622880935669	fix_post	2		12	3.0	2.5	/experiments/knapen_AOT/AOT_stimuli/rescaled_final/0888_rv.mp4	0.0	87.85847187042236	0.10002803802490234
6	65.97625684738159	fix_pre	0		120	4.0	2.5	/experiments/knapen_AOT/AOT_stimuli/rescaled_final/1588_fw.mp4	0.0	87.95849990844727	1.0001699924468994
6	66.96824288368225	pulse	0	t		4.0	2.5	/experiments/knapen_AOT/AOT_stimuli/rescaled_final/1588_fw.mp4	0.0	88.95048594474792	
6	66.97642683982849	movie	1		247	4.0	2.5	/experiments/knapen_AOT/AOT_stimuli/rescaled_final/1588_fw.mp4	0.0	88.95866990089417	2.5086770057678223
6	68.56938099861145	pulse	1	t		4.0	2.5	/experiments/knapen_AOT/AOT_stimuli/rescaled_final/1588_fw.mp4	0.0	90.55162405967712	
6	69.48510384559631	fix_post	2		12	4.0	2.5	/experiments/knapen_AOT/AOT_stimuli/rescaled_final/1588_fw.mp4	0.0	91.46734690666199	0.10010313987731934
7	69.58520698547363	fix_pre	0		116	5.0	2.5	/experiments/knapen_AOT/AOT_stimuli/rescaled_final/0353_fw.mp4	0.0	91.5674500465393	1.0000958442687988
7	70.16876482963562	pulse	0	t		5.0	2.5	/experiments/knapen_AOT/AOT_stimuli/rescaled_final/0353_fw.mp4	0.0	92.1510078907013	
7	70.58530282974243	movie	1		245	5.0	2.5	/experiments/knapen_AOT/AOT_stimuli/rescaled_final/0353_fw.mp4	0.0	92.5675458908081	2.500364065170288
7	71.7691547870636	pulse	1	t		5.0	2.5	/experiments/knapen_AOT/AOT_stimuli/rescaled_final/0353_fw.mp4	0.0	93.75139784812927	
7	73.08566689491272	fix_post	2		12	5.0	2.5	/experiments/knapen_AOT/AOT_stimuli/rescaled_final/0353_fw.mp4	0.0	95.0679099559784	0.10001993179321289
8	73.18568682670593	fix_pre	0		120	6.0	2.5	blank	1.0	95.1679298877716	1.0001311302185059
8	73.36921787261963	pulse	0	t		6.0	2.5	blank	1.0	95.3514609336853	
8	74.18581795692444	movie	1		300	6.0	2.5	blank	1.0	96.16806101799011	2.5004258155822754
8	74.96953177452087	pulse	1	t		6.0	2.5	blank	1.0	96.95177483558655	
8	76.5697648525238	pulse	1	t		6.0	2.5	blank	1.0	98.55200791358948	
8	76.68624377250671	fix_post	2		12	6.0	2.5	blank	1.0	98.66848683357239	0.09998917579650879
9	76.78623294830322	fix_pre	0		119	7.0	2.5	/experiments/knapen_AOT/AOT_stimuli/rescaled_final/1159_fw.mp4	0.0	98.7684760093689	0.9918298721313477
9	77.77806282043457	movie	1		244	7.0	2.5	/experiments/knapen_AOT/AOT_stimuli/rescaled_final/1159_fw.mp4	0.0	99.76030588150024	2.500333070755005
9	78.17006087303162	pulse	1	t		7.0	2.5	/experiments/knapen_AOT/AOT_stimuli/rescaled_final/1159_fw.mp4	0.0	100.15230393409729	
9	79.77020597457886	pulse	1	t		7.0	2.5	/experiments/knapen_AOT/AOT_stimuli/rescaled_final/1159_fw.mp4	0.0	101.75244903564453	
9	80.27839589118958	fix_post	2		12	7.0	2.5	/experiments/knapen_AOT/AOT_stimuli/rescaled_final/1159_fw.mp4	0.0	102.26063895225525	0.1000509262084961
10	80.37844681739807	fix_pre	0		120	8.0	2.5	/experiments/knapen_AOT/AOT_stimuli/rescaled_final/1287_rv.mp4	0.0	102.36068987846375	1.0001220703125
10	81.36298084259033	pulse	0	t		8.0	2.5	/experiments/knapen_AOT/AOT_stimuli/rescaled_final/1287_rv.mp4	0.0	103.345223903656	
10	81.37856888771057	movie	1		245	8.0	2.5	/experiments/knapen_AOT/AOT_stimuli/rescaled_final/1287_rv.mp4	0.0	103.36081194877625	2.508678913116455
10	82.97442698478699	pulse	1	t		8.0	2.5	/experiments/knapen_AOT/AOT_stimuli/rescaled_final/1287_rv.mp4	0.0	104.95667004585266	
10	83.88724780082703	fix_post	2		12	8.0	2.5	/experiments/knapen_AOT/AOT_stimuli/rescaled_final/1287_rv.mp4	0.0	105.8694908618927	0.10002017021179199
11	83.98726797103882	fix_pre	0		120	9.0	2.5	/experiments/knapen_AOT/AOT_stimuli/rescaled_final/0517_fw.mp4	0.0	105.96951103210449	1.0001838207244873
11	84.56344199180603	pulse	0	t		9.0	2.5	/experiments/knapen_AOT/AOT_stimuli/rescaled_final/0517_fw.mp4	0.0	106.5456850528717	
11	84.9874517917633	movie	1		245	9.0	2.5	/experiments/knapen_AOT/AOT_stimuli/rescaled_final/0517_fw.mp4	0.0	106.96969485282898	2.500399112701416
11	86.1632468700409	pulse	1	t		9.0	2.5	/experiments/knapen_AOT/AOT_stimuli/rescaled_final/0517_fw.mp4	0.0	108.14548993110657	
11	87.48785090446472	fix_post	2		12	9.0	2.5	/experiments/knapen_AOT/AOT_stimuli/rescaled_final/0517_fw.mp4	0.0	109.4700939655304	0.10000395774841309
12	87.58785486221313	fix_pre	0		120	10.0	2.5	/experiments/knapen_AOT/AOT_stimuli/rescaled_final/1390_fw.mp4	0.0	109.57009792327881	1.000175952911377
12	87.76377987861633	pulse	0	t		10.0	2.5	/experiments/knapen_AOT/AOT_stimuli/rescaled_final/1390_fw.mp4	0.0	109.746022939682	
12	88.58803081512451	movie	1		243	10.0	2.5	/experiments/knapen_AOT/AOT_stimuli/rescaled_final/1390_fw.mp4	0.0	110.57027387619019	2.4919750690460205
12	89.36327481269836	pulse	1	t		10.0	2.5	/experiments/knapen_AOT/AOT_stimuli/rescaled_final/1390_fw.mp4	0.0	111.34551787376404	
12	90.9634518623352	pulse	1	t		10.0	2.5	/experiments/knapen_AOT/AOT_stimuli/rescaled_final/1390_fw.mp4	0.0	112.94569492340088	
12	91.08000588417053	fix_post	2		12	10.0	2.5	/experiments/knapen_AOT/AOT_stimuli/rescaled_final/1390_fw.mp4	0.0	113.0622489452362	0.10004091262817383
13	91.1800467967987	fix_pre	0		120	11.0	2.5	/experiments/knapen_AOT/AOT_stimuli/rescaled_final/1110_fw.mp4	0.0	113.16228985786438	1.000150203704834
13	92.18019700050354	movie	1		243	11.0	2.5	/experiments/knapen_AOT/AOT_stimuli/rescaled_final/1110_fw.mp4	0.0	114.16244006156921	2.5003678798675537
13	92.5642318725586	pulse	1	t		11.0	2.5	/experiments/knapen_AOT/AOT_stimuli/rescaled_final/1110_fw.mp4	0.0	114.54647493362427	
13	94.16413879394531	pulse	1	t		11.0	2.5	/experiments/knapen_AOT/AOT_stimuli/rescaled_final/1110_fw.mp4	0.0	116.14638185501099	
13	94.6805648803711	fix_post	2		12	11.0	2.5	/experiments/knapen_AOT/AOT_stimuli/rescaled_final/1110_fw.mp4	0.0	116.66280794143677	0.1000070571899414
14	94.78057193756104	fix_pre	0		119	12.0	2.5	blank	1.0	116.76281499862671	0.9918289184570312
14	95.76429581642151	pulse	0	t		12.0	2.5	blank	1.0	117.74653887748718	
14	95.77240085601807	movie	1		301	12.0	2.5	blank	1.0	117.75464391708374	2.5086820125579834
14	97.36444783210754	pulse	1	t		12.0	2.5	blank	1.0	119.34669089317322	
14	98.28108286857605	fix_post	2		12	12.0	2.5	blank	1.0	120.26332592964172	0.10001802444458008
15	98.38110089302063	fix_pre	0		120	13.0	2.5	/experiments/knapen_AOT/AOT_stimuli/rescaled_final/0896_fw.mp4	0.0	120.3633439540863	1.0001599788665771
15	98.96477580070496	pulse	0	t		13.0	2.5	/experiments/knapen_AOT/AOT_stimuli/rescaled_final/0896_fw.mp4	0.0	120.94701886177063	
15	99.3812608718872	movie	1		243	13.0	2.5	/experiments/knapen_AOT/AOT_stimuli/rescaled_final/0896_fw.mp4	0.0	121.36350393295288	2.5003390312194824
15	100.56504392623901	pulse	1	t		13.0	2.5	/experiments/knapen_AOT/AOT_stimuli/rescaled_final/0896_fw.mp4	0.0	122.54728698730469	
15	101.88159990310669	fix_post	2		12	13.0	2.5	/experiments/knapen_AOT/AOT_stimuli/rescaled_final/0896_fw.mp4	0.0	123.86384296417236	0.10006189346313477
16	101.98166179656982	fix_pre	0		120	14.0	2.5	/experiments/knapen_AOT/AOT_stimuli/rescaled_final/1002_fw.mp4	0.0	123.9639048576355	1.0001540184020996
16	102.16521787643433	pulse	0	t		14.0	2.5	/experiments/knapen_AOT/AOT_stimuli/rescaled_final/1002_fw.mp4	0.0	124.1474609375	
16	102.98181581497192	movie	1		244	14.0	2.5	/experiments/knapen_AOT/AOT_stimuli/rescaled_final/1002_fw.mp4	0.0	124.9640588760376	2.5003111362457275
16	103.765389919281	pulse	1	t		14.0	2.5	/experiments/knapen_AOT/AOT_stimuli/rescaled_final/1002_fw.mp4	0.0	125.74763298034668	
16	105.36567187309265	pulse	1	t		14.0	2.5	/experiments/knapen_AOT/AOT_stimuli/rescaled_final/1002_fw.mp4	0.0	127.34791493415833	
16	105.48212695121765	fix_post	2		12	14.0	2.5	/experiments/knapen_AOT/AOT_stimuli/rescaled_final/1002_fw.mp4	0.0	127.46437001228333	0.10005903244018555
17	105.58218598365784	fix_pre	0		120	15.0	2.5	/experiments/knapen_AOT/AOT_stimuli/rescaled_final/0484_fw.mp4	0.0	127.56442904472351	1.000128984451294
17	106.58231496810913	movie	1		244	15.0	2.5	/experiments/knapen_AOT/AOT_stimuli/rescaled_final/0484_fw.mp4	0.0	128.5645580291748	2.4920198917388916
17	106.96663498878479	pulse	1	t		15.0	2.5	/experiments/knapen_AOT/AOT_stimuli/rescaled_final/0484_fw.mp4	0.0	128.94887804985046	
17	108.56610178947449	pulse	1	t		15.0	2.5	/experiments/knapen_AOT/AOT_stimuli/rescaled_final/0484_fw.mp4	0.0	130.54834485054016	
17	109.07433485984802	fix_post	2		12	15.0	2.5	/experiments/knapen_AOT/AOT_stimuli/rescaled_final/0484_fw.mp4	0.0	131.0565779209137	0.10002803802490234
18	109.17436289787292	fix_pre	0		120	16.0	2.5	/experiments/knapen_AOT/AOT_stimuli/rescaled_final/1642_fw.mp4	0.0	131.1566059589386	1.000135898590088
18	110.16644787788391	pulse	0	t		16.0	2.5	/experiments/knapen_AOT/AOT_stimuli/rescaled_final/1642_fw.mp4	0.0	132.14869093894958	
18	110.17449879646301	movie	1		246	16.0	2.5	/experiments/knapen_AOT/AOT_stimuli/rescaled_final/1642_fw.mp4	0.0	132.1567418575287	2.508730173110962
18	111.77080988883972	pulse	1	t		16.0	2.5	/experiments/knapen_AOT/AOT_stimuli/rescaled_final/1642_fw.mp4	0.0	133.7530529499054	
18	112.68322896957397	fix_post	2		12	16.0	2.5	/experiments/knapen_AOT/AOT_stimuli/rescaled_final/1642_fw.mp4	0.0	134.66547203063965	0.10003995895385742
19	112.78326892852783	fix_pre	0		120	17.0	2.5	/experiments/knapen_AOT/AOT_stimuli/rescaled_final/0135_rv.mp4	0.0	134.7655119895935	1.000140905380249
19	113.3670117855072	pulse	0	t		17.0	2.5	/experiments/knapen_AOT/AOT_stimuli/rescaled_final/0135_rv.mp4	0.0	135.34925484657288	
19	113.78340983390808	movie	1		243	17.0	2.5	/experiments/knapen_AOT/AOT_stimuli/rescaled_final/0135_rv.mp4	0.0	135.76565289497375	2.5003609657287598
19	114.96727180480957	pulse	1	t		17.0	2.5	/experiments/knapen_AOT/AOT_stimuli/rescaled_final/0135_rv.mp4	0.0	136.94951486587524	
19	116.28377079963684	fix_post	2		12	17.0	2.5	/experiments/knapen_AOT/AOT_stimuli/rescaled_final/0135_rv.mp4	0.0	138.26601386070251	0.10002303123474121
20	116.38379383087158	fix_pre	0		120	18.0	2.5	/experiments/knapen_AOT/AOT_stimuli/rescaled_final/1765_fw.mp4	0.0	138.36603689193726	1.0001399517059326
20	116.56733298301697	pulse	0	t		18.0	2.5	/experiments/knapen_AOT/AOT_stimuli/rescaled_final/1765_fw.mp4	0.0	138.54957604408264	
20	117.38393378257751	movie	1		243	18.0	2.5	/experiments/knapen_AOT/AOT_stimuli/rescaled_final/1765_fw.mp4	0.0	139.3661768436432	2.500359058380127
20	118.16762495040894	pulse	1	t		18.0	2.5	/experiments/knapen_AOT/AOT_stimuli/rescaled_final/1765_fw.mp4	0.0	140.1498680114746	
20	119.76774597167969	pulse	1	t		18.0	2.5	/experiments/knapen_AOT/AOT_stimuli/rescaled_final/1765_fw.mp4	0.0	141.74998903274536	
20	119.88429284095764	fix_post	2		12	18.0	2.5	/experiments/knapen_AOT/AOT_stimuli/rescaled_final/1765_fw.mp4	0.0	141.86653590202332	0.10009098052978516
21	119.98438382148743	fix_pre	0		120	19.0	2.5	/experiments/knapen_AOT/AOT_stimuli/rescaled_final/1081_rv.mp4	0.0	141.9666268825531	1.0000770092010498
21	120.98446083068848	movie	1		243	19.0	2.5	/experiments/knapen_AOT/AOT_stimuli/rescaled_final/1081_rv.mp4	0.0	142.96670389175415	2.4920430183410645
21	121.36863994598389	pulse	1	t		19.0	2.5	/experiments/knapen_AOT/AOT_stimuli/rescaled_final/1081_rv.mp4	0.0	143.35088300704956	
21	122.96831679344177	pulse	1	t		19.0	2.5	/experiments/knapen_AOT/AOT_stimuli/rescaled_final/1081_rv.mp4	0.0	144.95055985450745	
21	123.47650384902954	fix_post	2		12	19.0	2.5	/experiments/knapen_AOT/AOT_stimuli/rescaled_final/1081_rv.mp4	0.0	145.45874691009521	0.100067138671875
22	123.57657098770142	fix_pre	0		120	20.0	2.5	/experiments/knapen_AOT/AOT_stimuli/rescaled_final/1159_rv.mp4	0.0	145.5588140487671	1.000133991241455
22	124.56857085227966	pulse	0	t		20.0	2.5	/experiments/knapen_AOT/AOT_stimuli/rescaled_final/1159_rv.mp4	0.0	146.55081391334534	
22	124.57670497894287	movie	1		246	20.0	2.5	/experiments/knapen_AOT/AOT_stimuli/rescaled_final/1159_rv.mp4	0.0	146.55894804000854	2.5086798667907715
22	126.1693468093872	pulse	1	t		20.0	2.5	/experiments/knapen_AOT/AOT_stimuli/rescaled_final/1159_rv.mp4	0.0	148.15158987045288	
22	127.08538484573364	fix_post	2		12	20.0	2.5	/experiments/knapen_AOT/AOT_stimuli/rescaled_final/1159_rv.mp4	0.0	149.06762790679932	0.10002803802490234
23	127.18541288375854	fix_pre	0		120	21.0	2.5	blank	1.0	149.16765594482422	1.000135898590088
23	127.7691159248352	pulse	0	t		21.0	2.5	blank	1.0	149.75135898590088	
23	128.18554878234863	movie	1		300	21.0	2.5	blank	1.0	150.1677918434143	2.5004072189331055
23	129.3693549633026	pulse	1	t		21.0	2.5	blank	1.0	151.3515980243683	
23	130.68595600128174	fix_post	2		12	21.0	2.5	blank	1.0	152.6681990623474	0.10007596015930176
24	130.78603196144104	fix_pre	0		117	22.0	2.5	/experiments/knapen_AOT/AOT_stimuli/rescaled_final/1702_rv.mp4	0.0	152.7682750225067	1.0000460147857666
24	130.96945881843567	pulse	0	t		22.0	2.5	/experiments/knapen_AOT/AOT_stimuli/rescaled_final/1702_rv.mp4	0.0	152.95170187950134	
24	131.7860779762268	movie	1		243	22.0	2.5	/experiments/knapen_AOT/AOT_stimuli/rescaled_final/1702_rv.mp4	0.0	153.76832103729248	2.5003788471221924
24	132.56978297233582	pulse	1	t		22.0	2.5	/experiments/knapen_AOT/AOT_stimuli/rescaled_final/1702_rv.mp4	0.0	154.5520260334015	
24	134.16997981071472	pulse	1	t		22.0	2.5	/experiments/knapen_AOT/AOT_stimuli/rescaled_final/1702_rv.mp4	0.0	156.1522228717804	
24	134.286456823349	fix_post	2		12	22.0	2.5	/experiments/knapen_AOT/AOT_stimuli/rescaled_final/1702_rv.mp4	0.0	156.26869988441467	0.10004615783691406
25	134.3865029811859	fix_pre	0		120	23.0	2.5	/experiments/knapen_AOT/AOT_stimuli/rescaled_final/0335_rv.mp4	0.0	156.3687460422516	1.0001308917999268
25	135.38663387298584	movie	1		243	23.0	2.5	/experiments/knapen_AOT/AOT_stimuli/rescaled_final/0335_rv.mp4	0.0	157.3688769340515	2.4920120239257812
25	135.7709038257599	pulse	1	t		23.0	2.5	/experiments/knapen_AOT/AOT_stimuli/rescaled_final/0335_rv.mp4	0.0	157.75314688682556	
25	137.37048983573914	pulse	1	t		23.0	2.5	/experiments/knapen_AOT/AOT_stimuli/rescaled_final/0335_rv.mp4	0.0	159.3527328968048	
25	137.87864589691162	fix_post	2		12	23.0	2.5	/experiments/knapen_AOT/AOT_stimuli/rescaled_final/0335_rv.mp4	0.0	159.8608889579773	0.09999990463256836
26	137.9786458015442	fix_pre	0		120	24.0	2.5	/experiments/knapen_AOT/AOT_stimuli/rescaled_final/1940_fw.mp4	0.0	159.96088886260986	1.0001840591430664
26	138.9707899093628	pulse	0	t		24.0	2.5	/experiments/knapen_AOT/AOT_stimuli/rescaled_final/1940_fw.mp4	0.0	160.95303297042847	
26	138.97882986068726	movie	1		245	24.0	2.5	/experiments/knapen_AOT/AOT_stimuli/rescaled_final/1940_fw.mp4	0.0	160.96107292175293	2.508687973022461
26	140.5746557712555	pulse	1	t		24.0	2.5	/experiments/knapen_AOT/AOT_stimuli/rescaled_final/1940_fw.mp4	0.0	162.55689883232117	
26	141.48751783370972	fix_post	2		12	24.0	2.5	/experiments/knapen_AOT/AOT_stimuli/rescaled_final/1940_fw.mp4	0.0	163.4697608947754	0.09999608993530273
27	141.58751392364502	fix_pre	0		120	25.0	2.5	/experiments/knapen_AOT/AOT_stimuli/rescaled_final/0207_fw.mp4	0.0	163.5697569847107	1.0001919269561768
27	142.1636939048767	pulse	0	t		25.0	2.5	/experiments/knapen_AOT/AOT_stimuli/rescaled_final/0207_fw.mp4	0.0	164.14593696594238	
27	142.5877058506012	movie	1		244	25.0	2.5	/experiments/knapen_AOT/AOT_stimuli/rescaled_final/0207_fw.mp4	0.0	164.56994891166687	2.50034499168396
27	143.7714719772339	pulse	1	t		25.0	2.5	/experiments/knapen_AOT/AOT_stimuli/rescaled_final/0207_fw.mp4	0.0	165.75371503829956	
27	145.08805084228516	fix_post	2		12	25.0	2.5	/experiments/knapen_AOT/AOT_stimuli/rescaled_final/0207_fw.mp4	0.0	167.07029390335083	0.10002708435058594
28	145.18807792663574	fix_pre	0		120	26.0	2.5	/experiments/knapen_AOT/AOT_stimuli/rescaled_final/1159_rv.mp4	0.0	167.17032098770142	1.0001449584960938
28	145.36402082443237	pulse	0	t		26.0	2.5	/experiments/knapen_AOT/AOT_stimuli/rescaled_final/1159_rv.mp4	0.0	167.34626388549805	
28	146.18822288513184	movie	1		244	26.0	2.5	/experiments/knapen_AOT/AOT_stimuli/rescaled_final/1159_rv.mp4	0.0	168.1704659461975	2.50046706199646
28	146.9644877910614	pulse	1	t		26.0	2.5	/experiments/knapen_AOT/AOT_stimuli/rescaled_final/1159_rv.mp4	0.0	168.94673085212708	
28	148.56391191482544	pulse	1	t		26.0	2.5	/experiments/knapen_AOT/AOT_stimuli/rescaled_final/1159_rv.mp4	0.0	170.5461549758911	
28	148.6886899471283	fix_post	2		12	26.0	2.5	/experiments/knapen_AOT/AOT_stimuli/rescaled_final/1159_rv.mp4	0.0	170.67093300819397	0.09996795654296875
29	148.78865790367126	fix_pre	0		120	27.0	2.5	/experiments/knapen_AOT/AOT_stimuli/rescaled_final/1775_rv.mp4	0.0	170.77090096473694	1.0001180171966553
29	149.78877592086792	movie	1		243	27.0	2.5	/experiments/knapen_AOT/AOT_stimuli/rescaled_final/1775_rv.mp4	0.0	171.7710189819336	2.4920918941497803
29	150.16397881507874	pulse	1	t		27.0	2.5	/experiments/knapen_AOT/AOT_stimuli/rescaled_final/1775_rv.mp4	0.0	172.1462218761444	
29	151.76430082321167	pulse	1	t		27.0	2.5	/experiments/knapen_AOT/AOT_stimuli/rescaled_final/1775_rv.mp4	0.0	173.74654388427734	
29	152.2808678150177	fix_post	2		12	27.0	2.5	/experiments/knapen_AOT/AOT_stimuli/rescaled_final/1775_rv.mp4	0.0	174.26311087608337	0.09994697570800781
30	152.3808147907257	fix_pre	0		119	28.0	2.5	blank	1.0	174.36305785179138	0.9918231964111328
30	153.36453986167908	pulse	0	t		28.0	2.5	blank	1.0	175.34678292274475	
30	153.37263798713684	movie	1		301	28.0	2.5	blank	1.0	175.35488104820251	2.5087058544158936
30	154.96484780311584	pulse	1	t		28.0	2.5	blank	1.0	176.94709086418152	
30	155.88134384155273	fix_post	2		12	28.0	2.5	blank	1.0	177.8635869026184	0.10003399848937988
31	155.98137784004211	fix_pre	0		120	29.0	2.5	/experiments/knapen_AOT/AOT_stimuli/rescaled_final/1464_fw.mp4	0.0	177.9636209011078	1.0001440048217773
31	156.56503200531006	pulse	0	t		29.0	2.5	/experiments/knapen_AOT/AOT_stimuli/rescaled_final/1464_fw.mp4	0.0	178.54727506637573	
31	156.9815218448639	movie	1		246	29.0	2.5	/experiments/knapen_AOT/AOT_stimuli/rescaled_final/1464_fw.mp4	0.0	178.96376490592957	2.5003559589385986
31	158.16526079177856	pulse	1	t		29.0	2.5	/experiments/knapen_AOT/AOT_stimuli/rescaled_final/1464_fw.mp4	0.0	180.14750385284424	
31	159.4818778038025	fix_post	2		12	29.0	2.5	/experiments/knapen_AOT/AOT_stimuli/rescaled_final/1464_fw.mp4	0.0	181.46412086486816	0.10004305839538574
32	159.58192086219788	fix_pre	0		120	30.0	2.5	/experiments/knapen_AOT/AOT_stimuli/rescaled_final/1656_rv.mp4	0.0	181.56416392326355	1.0001261234283447
32	159.76553583145142	pulse	0	t		30.0	2.5	/experiments/knapen_AOT/AOT_stimuli/rescaled_final/1656_rv.mp4	0.0	181.7477788925171	
32	160.58204698562622	movie	1		243	30.0	2.5	/experiments/knapen_AOT/AOT_stimuli/rescaled_final/1656_rv.mp4	0.0	182.5642900466919	2.5003559589385986
32	161.36583185195923	pulse	1	t		30.0	2.5	/experiments/knapen_AOT/AOT_stimuli/rescaled_final/1656_rv.mp4	0.0	183.3480749130249	
32	162.965726852417	pulse	1	t		30.0	2.5	/experiments/knapen_AOT/AOT_stimuli/rescaled_final/1656_rv.mp4	0.0	184.94796991348267	
32	163.08240294456482	fix_post	2		12	30.0	2.5	/experiments/knapen_AOT/AOT_stimuli/rescaled_final/1656_rv.mp4	0.0	185.0646460056305	0.10001492500305176
33	163.18241786956787	fix_pre	0		120	31.0	2.5	/experiments/knapen_AOT/AOT_stimuli/rescaled_final/1486_rv.mp4	0.0	185.16466093063354	1.0001730918884277
33	164.1825909614563	movie	1		243	31.0	2.5	/experiments/knapen_AOT/AOT_stimuli/rescaled_final/1486_rv.mp4	0.0	186.16483402252197	2.492025852203369
33	164.56741786003113	pulse	1	t		31.0	2.5	/experiments/knapen_AOT/AOT_stimuli/rescaled_final/1486_rv.mp4	0.0	186.5496609210968	
33	166.16644287109375	pulse	1	t		31.0	2.5	/experiments/knapen_AOT/AOT_stimuli/rescaled_final/1486_rv.mp4	0.0	188.14868593215942	
33	166.67461681365967	fix_post	2		12	31.0	2.5	/experiments/knapen_AOT/AOT_stimuli/rescaled_final/1486_rv.mp4	0.0	188.65685987472534	0.10002803802490234
34	166.77464485168457	fix_pre	0		120	32.0	2.5	/experiments/knapen_AOT/AOT_stimuli/rescaled_final/0811_rv.mp4	0.0	188.75688791275024	1.0001449584960938
34	167.7667419910431	pulse	0	t		32.0	2.5	/experiments/knapen_AOT/AOT_stimuli/rescaled_final/0811_rv.mp4	0.0	189.74898505210876	
34	167.77478981018066	movie	1		246	32.0	2.5	/experiments/knapen_AOT/AOT_stimuli/rescaled_final/0811_rv.mp4	0.0	189.75703287124634	2.50870418548584
34	169.36751079559326	pulse	1	t		32.0	2.5	/experiments/knapen_AOT/AOT_stimuli/rescaled_final/0811_rv.mp4	0.0	191.34975385665894	
34	170.2834939956665	fix_post	2		12	32.0	2.5	/experiments/knapen_AOT/AOT_stimuli/rescaled_final/0811_rv.mp4	0.0	192.26573705673218	0.09998679161071777
35	170.38348078727722	fix_pre	0		120	33.0	2.5	/experiments/knapen_AOT/AOT_stimuli/rescaled_final/0034_rv.mp4	0.0	192.3657238483429	1.0001661777496338
35	170.96715784072876	pulse	0	t		33.0	2.5	/experiments/knapen_AOT/AOT_stimuli/rescaled_final/0034_rv.mp4	0.0	192.94940090179443	
35	171.38364696502686	movie	1		243	33.0	2.5	/experiments/knapen_AOT/AOT_stimuli/rescaled_final/0034_rv.mp4	0.0	193.36589002609253	2.5003929138183594
35	172.56751680374146	pulse	1	t		33.0	2.5	/experiments/knapen_AOT/AOT_stimuli/rescaled_final/0034_rv.mp4	0.0	194.54975986480713	
35	173.88403987884521	fix_post	2		12	33.0	2.5	/experiments/knapen_AOT/AOT_stimuli/rescaled_final/0034_rv.mp4	0.0	195.8662829399109	0.100006103515625
36	173.98404598236084	fix_pre	0		120	34.0	2.5	/experiments/knapen_AOT/AOT_stimuli/rescaled_final/0896_rv.mp4	0.0	195.9662890434265	1.0001599788665771
36	174.16763591766357	pulse	0	t		34.0	2.5	/experiments/knapen_AOT/AOT_stimuli/rescaled_final/0896_rv.mp4	0.0	196.14987897872925	
36	174.98420596122742	movie	1		244	34.0	2.5	/experiments/knapen_AOT/AOT_stimuli/rescaled_final/0896_rv.mp4	0.0	196.9664490222931	2.5003459453582764
36	175.767963886261	pulse	1	t		34.0	2.5	/experiments/knapen_AOT/AOT_stimuli/rescaled_final/0896_rv.mp4	0.0	197.75020694732666	
36	177.36811900138855	pulse	1	t		34.0	2.5	/experiments/knapen_AOT/AOT_stimuli/rescaled_final/0896_rv.mp4	0.0	199.35036206245422	
36	177.4845519065857	fix_post	2		12	34.0	2.5	/experiments/knapen_AOT/AOT_stimuli/rescaled_final/0896_rv.mp4	0.0	199.46679496765137	0.10004806518554688
37	177.58459997177124	fix_pre	0		120	35.0	2.5	blank	1.0	199.5668430328369	1.0001609325408936
37	178.58476090431213	movie	1		299	35.0	2.5	blank	1.0	200.5670039653778	2.4920129776000977
37	178.9682698249817	pulse	1	t		35.0	2.5	blank	1.0	200.95051288604736	
37	180.56859683990479	pulse	1	t		35.0	2.5	blank	1.0	202.55083990097046	
37	181.07677388191223	fix_post	2		12	35.0	2.5	blank	1.0	203.0590169429779	0.10000991821289062
38	181.17678380012512	fix_pre	0		120	36.0	2.5	/experiments/knapen_AOT/AOT_stimuli/rescaled_final/0868_fw.mp4	0.0	203.1590268611908	1.0001440048217773
38	182.16892886161804	pulse	0	t		36.0	2.5	/experiments/knapen_AOT/AOT_stimuli/rescaled_final/0868_fw.mp4	0.0	204.15117192268372	
38	182.1769278049469	movie	1		245	36.0	2.5	/experiments/knapen_AOT/AOT_stimuli/rescaled_final/0868_fw.mp4	0.0	204.15917086601257	2.5087029933929443
38	183.76966786384583	pulse	1	t		36.0	2.5	/experiments/knapen_AOT/AOT_stimuli/rescaled_final/0868_fw.mp4	0.0	205.7519109249115	
38	184.68563079833984	fix_post	2		12	36.0	2.5	/experiments/knapen_AOT/AOT_stimuli/rescaled_final/0868_fw.mp4	0.0	206.66787385940552	0.10000300407409668
39	184.78563380241394	fix_pre	0		120	37.0	2.5	/experiments/knapen_AOT/AOT_stimuli/rescaled_final/0896_rv.mp4	0.0	206.76787686347961	1.0002100467681885
39	185.36923098564148	pulse	0	t		37.0	2.5	/experiments/knapen_AOT/AOT_stimuli/rescaled_final/0896_rv.mp4	0.0	207.35147404670715	
39	185.78584384918213	movie	1		243	37.0	2.5	/experiments/knapen_AOT/AOT_stimuli/rescaled_final/0896_rv.mp4	0.0	207.7680869102478	2.5003180503845215
39	186.96586894989014	pulse	1	t		37.0	2.5	/experiments/knapen_AOT/AOT_stimuli/rescaled_final/0896_rv.mp4	0.0	208.9481120109558	
39	188.28616189956665	fix_post	2		12	37.0	2.5	/experiments/knapen_AOT/AOT_stimuli/rescaled_final/0896_rv.mp4	0.0	210.26840496063232	0.10002398490905762
40	188.3861858844757	fix_pre	0		120	38.0	2.5	/experiments/knapen_AOT/AOT_stimuli/rescaled_final/0351_rv.mp4	0.0	210.36842894554138	1.0001881122589111
40	188.56973600387573	pulse	0	t		38.0	2.5	/experiments/knapen_AOT/AOT_stimuli/rescaled_final/0351_rv.mp4	0.0	210.5519790649414	
40	189.38637399673462	movie	1		245	38.0	2.5	/experiments/knapen_AOT/AOT_stimuli/rescaled_final/0351_rv.mp4	0.0	211.3686170578003	2.5003159046173096
40	190.17014694213867	pulse	1	t		38.0	2.5	/experiments/knapen_AOT/AOT_stimuli/rescaled_final/0351_rv.mp4	0.0	212.15239000320435	
40	191.7678849697113	pulse	1	t		38.0	2.5	/experiments/knapen_AOT/AOT_stimuli/rescaled_final/0351_rv.mp4	0.0	213.75012803077698	
40	191.88668990135193	fix_post	2		12	38.0	2.5	/experiments/knapen_AOT/AOT_stimuli/rescaled_final/0351_rv.mp4	0.0	213.8689329624176	0.10003399848937988
41	191.9867238998413	fix_pre	0		120	39.0	2.5	/experiments/knapen_AOT/AOT_stimuli/rescaled_final/0730_rv.mp4	0.0	213.96896696090698	1.0001609325408936
41	192.9868848323822	movie	1		239	39.0	2.5	/experiments/knapen_AOT/AOT_stimuli/rescaled_final/0730_rv.mp4	0.0	214.96912789344788	2.492011070251465
41	193.37092185020447	pulse	1	t		39.0	2.5	/experiments/knapen_AOT/AOT_stimuli/rescaled_final/0730_rv.mp4	0.0	215.35316491127014	
41	194.96338200569153	pulse	1	t		39.0	2.5	/experiments/knapen_AOT/AOT_stimuli/rescaled_final/0730_rv.mp4	0.0	216.9456250667572	
41	195.47889590263367	fix_post	2		12	39.0	2.5	/experiments/knapen_AOT/AOT_stimuli/rescaled_final/0730_rv.mp4	0.0	217.46113896369934	0.10010695457458496
42	195.57900285720825	fix_pre	0		120	40.0	2.5	blank	1.0	217.56124591827393	1.0000550746917725
42	196.56333994865417	pulse	0	t		40.0	2.5	blank	1.0	218.54558300971985	
42	196.57905793190002	movie	1		301	40.0	2.5	blank	1.0	218.5613009929657	2.5087058544158936
42	198.1637089252472	pulse	1	t		40.0	2.5	blank	1.0	220.14595198631287	
42	199.08776378631592	fix_post	2		12	40.0	2.5	blank	1.0	221.0700068473816	0.10007119178771973
43	199.18783497810364	fix_pre	0		120	41.0	2.5	/experiments/knapen_AOT/AOT_stimuli/rescaled_final/1287_rv.mp4	0.0	221.1700780391693	1.0001428127288818
43	199.7639558315277	pulse	0	t		41.0	2.5	/experiments/knapen_AOT/AOT_stimuli/rescaled_final/1287_rv.mp4	0.0	221.74619889259338	
43	200.18797779083252	movie	1		244	41.0	2.5	/experiments/knapen_AOT/AOT_stimuli/rescaled_final/1287_rv.mp4	0.0	222.1702208518982	2.5003280639648438
43	201.36428785324097	pulse	1	t		41.0	2.5	/experiments/knapen_AOT/AOT_stimuli/rescaled_final/1287_rv.mp4	0.0	223.34653091430664	
43	202.68830585479736	fix_post	2		12	41.0	2.5	/experiments/knapen_AOT/AOT_stimuli/rescaled_final/1287_rv.mp4	0.0	224.67054891586304	0.10001993179321289
44	202.78832578659058	fix_pre	0		120	42.0	2.5	/experiments/knapen_AOT/AOT_stimuli/rescaled_final/1723_rv.mp4	0.0	224.77056884765625	1.0001780986785889
44	202.96348786354065	pulse	0	t		42.0	2.5	/experiments/knapen_AOT/AOT_stimuli/rescaled_final/1723_rv.mp4	0.0	224.94573092460632	
44	203.78850388526917	movie	1		243	42.0	2.5	/experiments/knapen_AOT/AOT_stimuli/rescaled_final/1723_rv.mp4	0.0	225.77074694633484	2.5003440380096436
44	204.56376695632935	pulse	1	t		42.0	2.5	/experiments/knapen_AOT/AOT_stimuli/rescaled_final/1723_rv.mp4	0.0	226.54601001739502	
44	206.16403079032898	pulse	1	t		42.0	2.5	/experiments/knapen_AOT/AOT_stimuli/rescaled_final/1723_rv.mp4	0.0	228.14627385139465	
44	206.2888479232788	fix_post	2		12	42.0	2.5	/experiments/knapen_AOT/AOT_stimuli/rescaled_final/1723_rv.mp4	0.0	228.27109098434448	0.1000208854675293
45	206.38886880874634	fix_pre	0		119	43.0	2.5	/experiments/knapen_AOT/AOT_stimuli/rescaled_final/0317_fw.mp4	0.0	228.371111869812	0.9918191432952881
45	207.38068795204163	movie	1		245	43.0	2.5	/experiments/knapen_AOT/AOT_stimuli/rescaled_final/0317_fw.mp4	0.0	229.3629310131073	2.5003719329833984
45	207.76481795310974	pulse	1	t		43.0	2.5	/experiments/knapen_AOT/AOT_stimuli/rescaled_final/0317_fw.mp4	0.0	229.74706101417542	
45	209.36463689804077	pulse	1	t		43.0	2.5	/experiments/knapen_AOT/AOT_stimuli/rescaled_final/0317_fw.mp4	0.0	231.34687995910645	
45	209.88105988502502	fix_post	2		12	43.0	2.5	/experiments/knapen_AOT/AOT_stimuli/rescaled_final/0317_fw.mp4	0.0	231.8633029460907	0.10003304481506348
46	209.9810929298401	fix_pre	0		119	44.0	2.5	/experiments/knapen_AOT/AOT_stimuli/rescaled_final/1143_rv.mp4	0.0	231.96333599090576	0.991786003112793
46	210.96474695205688	pulse	0	t		44.0	2.5	/experiments/knapen_AOT/AOT_stimuli/rescaled_final/1143_rv.mp4	0.0	232.94699001312256	
46	210.97287893295288	movie	1		246	44.0	2.5	/experiments/knapen_AOT/AOT_stimuli/rescaled_final/1143_rv.mp4	0.0	232.95512199401855	2.5086989402770996
46	212.5657238960266	pulse	1	t		44.0	2.5	/experiments/knapen_AOT/AOT_stimuli/rescaled_final/1143_rv.mp4	0.0	234.54796695709229	
46	213.48157787322998	fix_post	2		12	44.0	2.5	/experiments/knapen_AOT/AOT_stimuli/rescaled_final/1143_rv.mp4	0.0	235.46382093429565	0.10007500648498535
47	213.58165287971497	fix_pre	0		120	45.0	2.5	/experiments/knapen_AOT/AOT_stimuli/rescaled_final/1079_fw.mp4	0.0	235.56389594078064	1.000133991241455
47	214.1652228832245	pulse	0	t		45.0	2.5	/experiments/knapen_AOT/AOT_stimuli/rescaled_final/1079_fw.mp4	0.0	236.14746594429016	
47	214.58178687095642	movie	1		244	45.0	2.5	/experiments/knapen_AOT/AOT_stimuli/rescaled_final/1079_fw.mp4	0.0	236.5640299320221	2.5003340244293213
47	215.76556777954102	pulse	1	t		45.0	2.5	/experiments/knapen_AOT/AOT_stimuli/rescaled_final/1079_fw.mp4	0.0	237.7478108406067	
47	217.08212089538574	fix_post	2		12	45.0	2.5	/experiments/knapen_AOT/AOT_stimuli/rescaled_final/1079_fw.mp4	0.0	239.06436395645142	0.10001301765441895
48	217.18213391304016	fix_pre	0		120	46.0	2.5	/experiments/knapen_AOT/AOT_stimuli/rescaled_final/0683_fw.mp4	0.0	239.16437697410583	1.0001778602600098
48	217.3657739162445	pulse	0	t		46.0	2.5	/experiments/knapen_AOT/AOT_stimuli/rescaled_final/0683_fw.mp4	0.0	239.34801697731018	
48	218.18231177330017	movie	1		243	46.0	2.5	/experiments/knapen_AOT/AOT_stimuli/rescaled_final/0683_fw.mp4	0.0	240.16455483436584	2.5003561973571777
48	218.9659218788147	pulse	1	t		46.0	2.5	/experiments/knapen_AOT/AOT_stimuli/rescaled_final/0683_fw.mp4	0.0	240.94816493988037	
48	220.56644892692566	pulse	1	t		46.0	2.5	/experiments/knapen_AOT/AOT_stimuli/rescaled_final/0683_fw.mp4	0.0	242.54869198799133	
48	220.68266797065735	fix_post	2		12	46.0	2.5	/experiments/knapen_AOT/AOT_stimuli/rescaled_final/0683_fw.mp4	0.0	242.66491103172302	0.09999990463256836
49	220.78266787528992	fix_pre	0		120	47.0	2.5	/experiments/knapen_AOT/AOT_stimuli/rescaled_final/1889_rv.mp4	0.0	242.7649109363556	1.000128984451294
49	221.7827968597412	movie	1		243	47.0	2.5	/experiments/knapen_AOT/AOT_stimuli/rescaled_final/1889_rv.mp4	0.0	243.76503992080688	2.49208402633667
49	222.16690492630005	pulse	1	t		47.0	2.5	/experiments/knapen_AOT/AOT_stimuli/rescaled_final/1889_rv.mp4	0.0	244.14914798736572	
49	223.7667338848114	pulse	1	t		47.0	2.5	/experiments/knapen_AOT/AOT_stimuli/rescaled_final/1889_rv.mp4	0.0	245.74897694587708	
49	224.27488088607788	fix_post	2		12	47.0	2.5	/experiments/knapen_AOT/AOT_stimuli/rescaled_final/1889_rv.mp4	0.0	246.25712394714355	0.10001301765441895
50	224.3748939037323	fix_pre	0		120	48.0	2.5	blank	1.0	246.35713696479797	1.000135898590088
50	225.36693787574768	pulse	0	t		48.0	2.5	blank	1.0	247.34918093681335	
50	225.3750298023224	movie	1		301	48.0	2.5	blank	1.0	247.35727286338806	2.508695125579834
50	226.96709489822388	pulse	1	t		48.0	2.5	blank	1.0	248.94933795928955	
50	227.88372492790222	fix_post	2		12	48.0	2.5	blank	1.0	249.8659679889679	0.10008502006530762
51	227.98380994796753	fix_pre	0		120	49.0	2.5	/experiments/knapen_AOT/AOT_stimuli/rescaled_final/1939_rv.mp4	0.0	249.9660530090332	1.0000958442687988
51	228.56729984283447	pulse	0	t		49.0	2.5	/experiments/knapen_AOT/AOT_stimuli/rescaled_final/1939_rv.mp4	0.0	250.54954290390015	
51	228.98390579223633	movie	1		244	49.0	2.5	/experiments/knapen_AOT/AOT_stimuli/rescaled_final/1939_rv.mp4	0.0	250.966148853302	2.5004031658172607
51	230.16774797439575	pulse	1	t		49.0	2.5	/experiments/knapen_AOT/AOT_stimuli/rescaled_final/1939_rv.mp4	0.0	252.14999103546143	
51	231.4843089580536	fix_post	2		12	49.0	2.5	/experiments/knapen_AOT/AOT_stimuli/rescaled_final/1939_rv.mp4	0.0	253.46655201911926	0.09996795654296875
52	231.58427691459656	fix_pre	0		120	50.0	2.5	/experiments/knapen_AOT/AOT_stimuli/rescaled_final/1007_rv.mp4	0.0	253.56651997566223	1.000175952911377
52	231.76789689064026	pulse	0	t		50.0	2.5	/experiments/knapen_AOT/AOT_stimuli/rescaled_final/1007_rv.mp4	0.0	253.75013995170593	
52	232.58445286750793	movie	1		245	50.0	2.5	/experiments/knapen_AOT/AOT_stimuli/rescaled_final/1007_rv.mp4	0.0	254.5666959285736	2.500446081161499
52	233.36811089515686	pulse	1	t		50.0	2.5	/experiments/knapen_AOT/AOT_stimuli/rescaled_final/1007_rv.mp4	0.0	255.35035395622253	
52	234.9659938812256	pulse	1	t		50.0	2.5	/experiments/knapen_AOT/AOT_stimuli/rescaled_final/1007_rv.mp4	0.0	256.94823694229126	
52	235.08489894866943	fix_post	2		12	50.0	2.5	/experiments/knapen_AOT/AOT_stimuli/rescaled_final/1007_rv.mp4	0.0	257.0671420097351	0.09995484352111816
53	235.18485379219055	fix_pre	0		120	51.0	2.5	/experiments/knapen_AOT/AOT_stimuli/rescaled_final/1568_rv.mp4	0.0	257.1670968532562	1.0001270771026611
53	236.1849808692932	movie	1		243	51.0	2.5	/experiments/knapen_AOT/AOT_stimuli/rescaled_final/1568_rv.mp4	0.0	258.1672239303589	2.4920239448547363
53	236.56907987594604	pulse	1	t		51.0	2.5	/experiments/knapen_AOT/AOT_stimuli/rescaled_final/1568_rv.mp4	0.0	258.5513229370117	
53	238.16894793510437	pulse	1	t		51.0	2.5	/experiments/knapen_AOT/AOT_stimuli/rescaled_final/1568_rv.mp4	0.0	260.15119099617004	
53	238.67700481414795	fix_post	2		12	51.0	2.5	/experiments/knapen_AOT/AOT_stimuli/rescaled_final/1568_rv.mp4	0.0	260.6592478752136	0.10003900527954102
54	238.7770438194275	fix_pre	0		120	52.0	2.5	/experiments/knapen_AOT/AOT_stimuli/rescaled_final/0414_rv.mp4	0.0	260.75928688049316	1.0001320838928223
54	239.76911997795105	pulse	0	t		52.0	2.5	/experiments/knapen_AOT/AOT_stimuli/rescaled_final/0414_rv.mp4	0.0	261.7513630390167	
54	239.7771759033203	movie	1		244	52.0	2.5	/experiments/knapen_AOT/AOT_stimuli/rescaled_final/0414_rv.mp4	0.0	261.759418964386	2.5087029933929443
54	241.37042999267578	pulse	1	t		52.0	2.5	/experiments/knapen_AOT/AOT_stimuli/rescaled_final/0414_rv.mp4	0.0	263.35267305374146	
54	242.28587889671326	fix_post	2		12	52.0	2.5	/experiments/knapen_AOT/AOT_stimuli/rescaled_final/0414_rv.mp4	0.0	264.26812195777893	0.10004091262817383
55	242.38591980934143	fix_pre	0		120	53.0	2.5	/experiments/knapen_AOT/AOT_stimuli/rescaled_final/0868_fw.mp4	0.0	264.3681628704071	1.000133991241455
55	242.96960592269897	pulse	0	t		53.0	2.5	/experiments/knapen_AOT/AOT_stimuli/rescaled_final/0868_fw.mp4	0.0	264.95184898376465	
55	243.38605380058289	movie	1		244	53.0	2.5	/experiments/knapen_AOT/AOT_stimuli/rescaled_final/0868_fw.mp4	0.0	265.36829686164856	2.5004451274871826
55	244.56987380981445	pulse	1	t		53.0	2.5	/experiments/knapen_AOT/AOT_stimuli/rescaled_final/0868_fw.mp4	0.0	266.5521168708801	
55	245.88649892807007	fix_post	2		12	53.0	2.5	/experiments/knapen_AOT/AOT_stimuli/rescaled_final/0868_fw.mp4	0.0	267.86874198913574	0.09996891021728516
56	245.98646783828735	fix_pre	0		120	54.0	2.5	blank	1.0	267.968710899353	1.0001161098480225
56	246.17000579833984	pulse	0	t		54.0	2.5	blank	1.0	268.1522488594055	
56	246.98658394813538	movie	1		300	54.0	2.5	blank	1.0	268.96882700920105	2.5003879070281982
56	247.77023482322693	pulse	1	t		54.0	2.5	blank	1.0	269.7524778842926	
56	249.37053298950195	pulse	1	t		54.0	2.5	blank	1.0	271.3527760505676	
56	249.48697185516357	fix_post	2		12	54.0	2.5	blank	1.0	271.46921491622925	0.10002899169921875
57	249.5870008468628	fix_pre	0		120	55.0	2.5	/experiments/knapen_AOT/AOT_stimuli/rescaled_final/0792_fw.mp4	0.0	271.56924390792847	1.000119924545288
57	250.58712077140808	movie	1		243	55.0	2.5	/experiments/knapen_AOT/AOT_stimuli/rescaled_final/0792_fw.mp4	0.0	272.56936383247375	2.492032051086426
57	250.9712369441986	pulse	1	t		55.0	2.5	/experiments/knapen_AOT/AOT_stimuli/rescaled_final/0792_fw.mp4	0.0	272.9534800052643	
57	252.5637128353119	pulse	1	t		55.0	2.5	/experiments/knapen_AOT/AOT_stimuli/rescaled_final/0792_fw.mp4	0.0	274.54595589637756	
57	253.0791528224945	fix_post	2		12	55.0	2.5	/experiments/knapen_AOT/AOT_stimuli/rescaled_final/0792_fw.mp4	0.0	275.0613958835602	0.10007309913635254
58	253.17922592163086	fix_pre	0		120	56.0	2.5	/experiments/knapen_AOT/AOT_stimuli/rescaled_final/1110_rv.mp4	0.0	275.16146898269653	1.0001280307769775
58	254.16368579864502	pulse	0	t		56.0	2.5	/experiments/knapen_AOT/AOT_stimuli/rescaled_final/1110_rv.mp4	0.0	276.1459288597107	
58	254.17935395240784	movie	1		243	56.0	2.5	/experiments/knapen_AOT/AOT_stimuli/rescaled_final/1110_rv.mp4	0.0	276.1615970134735	2.5087168216705322
58	255.77207589149475	pulse	1	t		56.0	2.5	/experiments/knapen_AOT/AOT_stimuli/rescaled_final/1110_rv.mp4	0.0	277.7543189525604	
58	256.68807077407837	fix_post	2		12	56.0	2.5	/experiments/knapen_AOT/AOT_stimuli/rescaled_final/1110_rv.mp4	0.0	278.67031383514404	0.09996819496154785
59	256.7880389690399	fix_pre	0		120	57.0	2.5	/experiments/knapen_AOT/AOT_stimuli/rescaled_final/1765_fw.mp4	0.0	278.7702820301056	1.0001888275146484
59	257.36325693130493	pulse	0	t		57.0	2.5	/experiments/knapen_AOT/AOT_stimuli/rescaled_final/1765_fw.mp4	0.0	279.3454999923706	
59	257.78822779655457	movie	1		244	57.0	2.5	/experiments/knapen_AOT/AOT_stimuli/rescaled_final/1765_fw.mp4	0.0	279.77047085762024	2.500361204147339
59	258.96400690078735	pulse	1	t		57.0	2.5	/experiments/knapen_AOT/AOT_stimuli/rescaled_final/1765_fw.mp4	0.0	280.946249961853	
59	260.2885890007019	fix_post	2		12	57.0	2.5	/experiments/knapen_AOT/AOT_stimuli/rescaled_final/1765_fw.mp4	0.0	282.2708320617676	0.09998393058776855
60	260.3885729312897	fix_pre	0		120	58.0	2.5	/experiments/knapen_AOT/AOT_stimuli/rescaled_final/1486_fw.mp4	0.0	282.37081599235535	1.0001978874206543
60	260.56390380859375	pulse	0	t		58.0	2.5	/experiments/knapen_AOT/AOT_stimuli/rescaled_final/1486_fw.mp4	0.0	282.5461468696594	
60	261.3887708187103	movie	1		245	58.0	2.5	/experiments/knapen_AOT/AOT_stimuli/rescaled_final/1486_fw.mp4	0.0	283.371013879776	2.500326156616211
60	262.1641399860382	pulse	1	t		58.0	2.5	/experiments/knapen_AOT/AOT_stimuli/rescaled_final/1486_fw.mp4	0.0	284.1463830471039	
60	263.76424193382263	pulse	1	t		58.0	2.5	/experiments/knapen_AOT/AOT_stimuli/rescaled_final/1486_fw.mp4	0.0	285.7464849948883	
60	263.88909697532654	fix_post	2		12	58.0	2.5	/experiments/knapen_AOT/AOT_stimuli/rescaled_final/1486_fw.mp4	0.0	285.8713400363922	0.1000218391418457
61	263.9891188144684	fix_pre	0		119	59.0	2.5	/experiments/knapen_AOT/AOT_stimuli/rescaled_final/1105_rv.mp4	0.0	285.97136187553406	0.9918529987335205
61	264.9809718132019	movie	1		243	59.0	2.5	/experiments/knapen_AOT/AOT_stimuli/rescaled_final/1105_rv.mp4	0.0	286.9632148742676	2.5003740787506104
61	265.36896991729736	pulse	1	t		59.0	2.5	/experiments/knapen_AOT/AOT_stimuli/rescaled_final/1105_rv.mp4	0.0	287.35121297836304	
61	266.96475887298584	pulse	1	t		59.0	2.5	/experiments/knapen_AOT/AOT_stimuli/rescaled_final/1105_rv.mp4	0.0	288.9470019340515	
61	267.4813458919525	fix_post	2		12	59.0	2.5	/experiments/knapen_AOT/AOT_stimuli/rescaled_final/1105_rv.mp4	0.0	289.4635889530182	0.0999910831451416
62	267.58133697509766	fix_pre	0		119	60.0	2.5	/experiments/knapen_AOT/AOT_stimuli/rescaled_final/1889_fw.mp4	0.0	289.56358003616333	0.9917969703674316
62	268.5650339126587	pulse	0	t		60.0	2.5	/experiments/knapen_AOT/AOT_stimuli/rescaled_final/1889_fw.mp4	0.0	290.54727697372437	
62	268.5731339454651	movie	1		245	60.0	2.5	/experiments/knapen_AOT/AOT_stimuli/rescaled_final/1889_fw.mp4	0.0	290.55537700653076	2.5087430477142334
62	270.16586685180664	pulse	1	t		60.0	2.5	/experiments/knapen_AOT/AOT_stimuli/rescaled_final/1889_fw.mp4	0.0	292.1481099128723	
62	271.0818769931793	fix_post	2		12	60.0	2.5	/experiments/knapen_AOT/AOT_stimuli/rescaled_final/1889_fw.mp4	0.0	293.064120054245	0.10003995895385742
63	271.1819169521332	fix_pre	0		120	61.0	2.5	/experiments/knapen_AOT/AOT_stimuli/rescaled_final/1961_rv.mp4	0.0	293.16416001319885	1.0001070499420166
63	271.7654869556427	pulse	0	t		61.0	2.5	/experiments/knapen_AOT/AOT_stimuli/rescaled_final/1961_rv.mp4	0.0	293.7477300167084	
63	272.1820240020752	movie	1		244	61.0	2.5	/experiments/knapen_AOT/AOT_stimuli/rescaled_final/1961_rv.mp4	0.0	294.16426706314087	2.5003879070281982
63	273.3658649921417	pulse	1	t		61.0	2.5	/experiments/knapen_AOT/AOT_stimuli/rescaled_final/1961_rv.mp4	0.0	295.3481080532074	
63	274.6824119091034	fix_post	2		12	61.0	2.5	/experiments/knapen_AOT/AOT_stimuli/rescaled_final/1961_rv.mp4	0.0	296.66465497016907	0.09998106956481934
64	274.7823929786682	fix_pre	0		120	62.0	2.5	blank	1.0	296.7646360397339	1.000187873840332
64	274.96596479415894	pulse	0	t		62.0	2.5	blank	1.0	296.9482078552246	
64	275.78258085250854	movie	1		300	62.0	2.5	blank	1.0	297.7648239135742	2.500370979309082
64	276.56623888015747	pulse	1	t		62.0	2.5	blank	1.0	298.54848194122314	
64	278.1663990020752	pulse	1	t		62.0	2.5	blank	1.0	300.14864206314087	
64	278.2829518318176	fix_post	2		12	62.0	2.5	blank	1.0	300.2651948928833	0.0999751091003418
65	278.38292694091797	fix_pre	0		120	63.0	2.5	/experiments/knapen_AOT/AOT_stimuli/rescaled_final/1699_fw.mp4	0.0	300.36517000198364	1.0001568794250488
65	279.383083820343	movie	1		243	63.0	2.5	/experiments/knapen_AOT/AOT_stimuli/rescaled_final/1699_fw.mp4	0.0	301.3653268814087	2.4920310974121094
65	279.7672038078308	pulse	1	t		63.0	2.5	/experiments/knapen_AOT/AOT_stimuli/rescaled_final/1699_fw.mp4	0.0	301.7494468688965	
65	281.36698389053345	pulse	1	t		63.0	2.5	/experiments/knapen_AOT/AOT_stimuli/rescaled_final/1699_fw.mp4	0.0	303.3492269515991	
65	281.8751149177551	fix_post	2		12	63.0	2.5	/experiments/knapen_AOT/AOT_stimuli/rescaled_final/1699_fw.mp4	0.0	303.8573579788208	0.10002493858337402
66	281.9751398563385	fix_pre	0		120	64.0	2.5	/experiments/knapen_AOT/AOT_stimuli/rescaled_final/1007_fw.mp4	0.0	303.9573829174042	1.0001420974731445
66	282.9671769142151	pulse	0	t		64.0	2.5	/experiments/knapen_AOT/AOT_stimuli/rescaled_final/1007_fw.mp4	0.0	304.94941997528076	
66	282.97528195381165	movie	1		245	64.0	2.5	/experiments/knapen_AOT/AOT_stimuli/rescaled_final/1007_fw.mp4	0.0	304.9575250148773	2.5087039470672607
66	284.5678699016571	pulse	1	t		64.0	2.5	/experiments/knapen_AOT/AOT_stimuli/rescaled_final/1007_fw.mp4	0.0	306.5501129627228	
66	285.4839859008789	fix_post	2		12	64.0	2.5	/experiments/knapen_AOT/AOT_stimuli/rescaled_final/1007_fw.mp4	0.0	307.4662289619446	0.10002589225769043
67	285.5840117931366	fix_pre	0		120	65.0	2.5	/experiments/knapen_AOT/AOT_stimuli/rescaled_final/0168_fw.mp4	0.0	307.56625485420227	1.0001280307769775
67	286.1676208972931	pulse	0	t		65.0	2.5	/experiments/knapen_AOT/AOT_stimuli/rescaled_final/0168_fw.mp4	0.0	308.14986395835876	
67	286.5841398239136	movie	1		244	65.0	2.5	/experiments/knapen_AOT/AOT_stimuli/rescaled_final/0168_fw.mp4	0.0	308.56638288497925	2.5003790855407715
67	287.7680809497833	pulse	1	t		65.0	2.5	/experiments/knapen_AOT/AOT_stimuli/rescaled_final/0168_fw.mp4	0.0	309.750324010849	
67	289.08451890945435	fix_post	2		12	65.0	2.5	/experiments/knapen_AOT/AOT_stimuli/rescaled_final/0168_fw.mp4	0.0	311.06676197052	0.1000058650970459
68	289.1845247745514	fix_pre	0		120	66.0	2.5	/experiments/knapen_AOT/AOT_stimuli/rescaled_final/1568_fw.mp4	0.0	311.16676783561707	1.0002062320709229
68	289.36820697784424	pulse	0	t		66.0	2.5	/experiments/knapen_AOT/AOT_stimuli/rescaled_final/1568_fw.mp4	0.0	311.3504500389099	
68	290.1847310066223	movie	1		244	66.0	2.5	/experiments/knapen_AOT/AOT_stimuli/rescaled_final/1568_fw.mp4	0.0	312.166974067688	2.500354766845703
68	290.9684648513794	pulse	1	t		66.0	2.5	/experiments/knapen_AOT/AOT_stimuli/rescaled_final/1568_fw.mp4	0.0	312.95070791244507	
68	292.56894993782043	pulse	1	t		66.0	2.5	/experiments/knapen_AOT/AOT_stimuli/rescaled_final/1568_fw.mp4	0.0	314.5511929988861	
68	292.685085773468	fix_post	2		12	66.0	2.5	/experiments/knapen_AOT/AOT_stimuli/rescaled_final/1568_fw.mp4	0.0	314.6673288345337	0.100006103515625
69	292.78509187698364	fix_pre	0		120	67.0	2.5	/experiments/knapen_AOT/AOT_stimuli/rescaled_final/0622_fw.mp4	0.0	314.7673349380493	1.000148057937622
69	293.78523993492126	movie	1		243	67.0	2.5	/experiments/knapen_AOT/AOT_stimuli/rescaled_final/0622_fw.mp4	0.0	315.76748299598694	2.4920270442962646
69	294.1694369316101	pulse	1	t		67.0	2.5	/experiments/knapen_AOT/AOT_stimuli/rescaled_final/0622_fw.mp4	0.0	316.1516799926758	
69	295.7691419124603	pulse	1	t		67.0	2.5	/experiments/knapen_AOT/AOT_stimuli/rescaled_final/0622_fw.mp4	0.0	317.751384973526	
69	296.27726697921753	fix_post	2		12	67.0	2.5	/experiments/knapen_AOT/AOT_stimuli/rescaled_final/0622_fw.mp4	0.0	318.2595100402832	0.10001683235168457
70	296.3772838115692	fix_pre	0		120	68.0	2.5	blank	1.0	318.3595268726349	1.0001940727233887
70	297.3692708015442	pulse	0	t		68.0	2.5	blank	1.0	319.35151386260986	
70	297.3774778842926	movie	1		301	68.0	2.5	blank	1.0	319.3597209453583	2.5086750984191895
70	298.96949887275696	pulse	1	t		68.0	2.5	blank	1.0	320.95174193382263	
70	299.8861529827118	fix_post	2		12	68.0	2.5	blank	1.0	321.86839604377747	0.09999585151672363
71	299.9861488342285	fix_pre	0		120	69.0	2.5	/experiments/knapen_AOT/AOT_stimuli/rescaled_final/1500_rv.mp4	0.0	321.9683918952942	1.0001599788665771
71	300.56977891921997	pulse	0	t		69.0	2.5	/experiments/knapen_AOT/AOT_stimuli/rescaled_final/1500_rv.mp4	0.0	322.55202198028564	
71	300.9863088130951	movie	1		245	69.0	2.5	/experiments/knapen_AOT/AOT_stimuli/rescaled_final/1500_rv.mp4	0.0	322.96855187416077	2.500352144241333
71	302.1701159477234	pulse	1	t		69.0	2.5	/experiments/knapen_AOT/AOT_stimuli/rescaled_final/1500_rv.mp4	0.0	324.15235900878906	
71	303.4866609573364	fix_post	2		12	69.0	2.5	/experiments/knapen_AOT/AOT_stimuli/rescaled_final/1500_rv.mp4	0.0	325.4689040184021	0.10009002685546875
72	303.5867509841919	fix_pre	0		120	70.0	2.5	/experiments/knapen_AOT/AOT_stimuli/rescaled_final/0730_fw.mp4	0.0	325.56899404525757	1.0001099109649658
72	303.7702260017395	pulse	0	t		70.0	2.5	/experiments/knapen_AOT/AOT_stimuli/rescaled_final/0730_fw.mp4	0.0	325.7524690628052	
72	304.58686089515686	movie	1		244	70.0	2.5	/experiments/knapen_AOT/AOT_stimuli/rescaled_final/0730_fw.mp4	0.0	326.56910395622253	2.500335931777954
72	305.37051582336426	pulse	1	t		70.0	2.5	/experiments/knapen_AOT/AOT_stimuli/rescaled_final/0730_fw.mp4	0.0	327.35275888442993	
72	306.9709138870239	pulse	1	t		70.0	2.5	/experiments/knapen_AOT/AOT_stimuli/rescaled_final/0730_fw.mp4	0.0	328.9531569480896	
72	307.0871968269348	fix_post	2		12	70.0	2.5	/experiments/knapen_AOT/AOT_stimuli/rescaled_final/0730_fw.mp4	0.0	329.0694398880005	0.100006103515625
73	307.18720293045044	fix_pre	0		120	71.0	2.5	/experiments/knapen_AOT/AOT_stimuli/rescaled_final/0135_rv.mp4	0.0	329.1694459915161	1.0001599788665771
73	308.187362909317	movie	1		242	71.0	2.5	/experiments/knapen_AOT/AOT_stimuli/rescaled_final/0135_rv.mp4	0.0	330.1696059703827	2.492065906524658
73	308.57214999198914	pulse	1	t		71.0	2.5	/experiments/knapen_AOT/AOT_stimuli/rescaled_final/0135_rv.mp4	0.0	330.5543930530548	
73	310.1640088558197	pulse	1	t		71.0	2.5	/experiments/knapen_AOT/AOT_stimuli/rescaled_final/0135_rv.mp4	0.0	332.1462519168854	
73	310.6794288158417	fix_post	2		12	71.0	2.5	/experiments/knapen_AOT/AOT_stimuli/rescaled_final/0135_rv.mp4	0.0	332.66167187690735	0.10005497932434082
74	310.779483795166	fix_pre	0		120	72.0	2.5	/experiments/knapen_AOT/AOT_stimuli/rescaled_final/1081_fw.mp4	0.0	332.7617268562317	1.000096082687378
74	311.76389384269714	pulse	0	t		72.0	2.5	/experiments/knapen_AOT/AOT_stimuli/rescaled_final/1081_fw.mp4	0.0	333.7461369037628	
74	311.7795798778534	movie	1		245	72.0	2.5	/experiments/knapen_AOT/AOT_stimuli/rescaled_final/1081_fw.mp4	0.0	333.76182293891907	2.508707046508789
74	313.37229800224304	pulse	1	t		72.0	2.5	/experiments/knapen_AOT/AOT_stimuli/rescaled_final/1081_fw.mp4	0.0	335.3545410633087	
74	314.2882869243622	fix_post	2		12	72.0	2.5	/experiments/knapen_AOT/AOT_stimuli/rescaled_final/1081_fw.mp4	0.0	336.27052998542786	0.10001707077026367
75	314.38830399513245	fix_pre	0		120	73.0	2.5	/experiments/knapen_AOT/AOT_stimuli/rescaled_final/0353_rv.mp4	0.0	336.3705470561981	1.00016188621521
75	314.9644889831543	pulse	0	t		73.0	2.5	/experiments/knapen_AOT/AOT_stimuli/rescaled_final/0353_rv.mp4	0.0	336.94673204421997	
75	315.38846588134766	movie	1		241	73.0	2.5	/experiments/knapen_AOT/AOT_stimuli/rescaled_final/0353_rv.mp4	0.0	337.37070894241333	2.5003790855407715
75	316.56457781791687	pulse	1	t		73.0	2.5	/experiments/knapen_AOT/AOT_stimuli/rescaled_final/0353_rv.mp4	0.0	338.54682087898254	
75	317.8888449668884	fix_post	2		12	73.0	2.5	/experiments/knapen_AOT/AOT_stimuli/rescaled_final/0353_rv.mp4	0.0	339.8710880279541	0.10001087188720703
76	317.98885583877563	fix_pre	0		120	74.0	2.5	/experiments/knapen_AOT/AOT_stimuli/rescaled_final/0783_rv.mp4	0.0	339.9710988998413	1.0001349449157715
76	318.16426491737366	pulse	0	t		74.0	2.5	/experiments/knapen_AOT/AOT_stimuli/rescaled_final/0783_rv.mp4	0.0	340.14650797843933	
76	318.9889907836914	movie	1		245	74.0	2.5	/experiments/knapen_AOT/AOT_stimuli/rescaled_final/0783_rv.mp4	0.0	340.9712338447571	2.5003581047058105
76	319.764221906662	pulse	1	t		74.0	2.5	/experiments/knapen_AOT/AOT_stimuli/rescaled_final/0783_rv.mp4	0.0	341.74646496772766	
76	321.36459279060364	pulse	1	t		74.0	2.5	/experiments/knapen_AOT/AOT_stimuli/rescaled_final/0783_rv.mp4	0.0	343.3468358516693	
76	321.4893488883972	fix_post	2		12	74.0	2.5	/experiments/knapen_AOT/AOT_stimuli/rescaled_final/0783_rv.mp4	0.0	343.4715919494629	0.10002708435058594
77	321.5893759727478	fix_pre	0		120	75.0	2.5	blank	1.0	343.5716190338135	1.0001909732818604
77	322.58956694602966	movie	1		299	75.0	2.5	blank	1.0	344.57181000709534	2.4919979572296143
77	322.9648938179016	pulse	1	t		75.0	2.5	blank	1.0	344.9471368789673	
77	324.5650088787079	pulse	1	t		75.0	2.5	blank	1.0	346.54725193977356	
77	325.0815649032593	fix_post	2		12	75.0	2.5	blank	1.0	347.06380796432495	0.10001492500305176
78	325.18157982826233	fix_pre	0		119	76.0	2.5	/experiments/knapen_AOT/AOT_stimuli/rescaled_final/1775_rv.mp4	0.0	347.163822889328	0.9918279647827148
78	326.16523790359497	pulse	0	t		76.0	2.5	/experiments/knapen_AOT/AOT_stimuli/rescaled_final/1775_rv.mp4	0.0	348.14748096466064	
78	326.17340779304504	movie	1		245	76.0	2.5	/experiments/knapen_AOT/AOT_stimuli/rescaled_final/1775_rv.mp4	0.0	348.1556508541107	2.508681058883667
78	327.7667758464813	pulse	1	t		76.0	2.5	/experiments/knapen_AOT/AOT_stimuli/rescaled_final/1775_rv.mp4	0.0	349.749018907547	
78	328.6820888519287	fix_post	2		12	76.0	2.5	/experiments/knapen_AOT/AOT_stimuli/rescaled_final/1775_rv.mp4	0.0	350.6643319129944	0.10002303123474121
79	328.78211188316345	fix_pre	0		120	77.0	2.5	/experiments/knapen_AOT/AOT_stimuli/rescaled_final/1460_fw.mp4	0.0	350.7643549442291	1.0001599788665771
79	329.3658239841461	pulse	0	t		77.0	2.5	/experiments/knapen_AOT/AOT_stimuli/rescaled_final/1460_fw.mp4	0.0	351.3480670452118	
79	329.78227186203003	movie	1		245	77.0	2.5	/experiments/knapen_AOT/AOT_stimuli/rescaled_final/1460_fw.mp4	0.0	351.7645149230957	2.5004119873046875
79	330.9660699367523	pulse	1	t		77.0	2.5	/experiments/knapen_AOT/AOT_stimuli/rescaled_final/1460_fw.mp4	0.0	352.948312997818	
79	332.2826838493347	fix_post	2		12	77.0	2.5	/experiments/knapen_AOT/AOT_stimuli/rescaled_final/1460_fw.mp4	0.0	354.2649269104004	0.09999513626098633
80	332.3826789855957	fix_pre	0		120	78.0	2.5	/experiments/knapen_AOT/AOT_stimuli/rescaled_final/1883_rv.mp4	0.0	354.3649220466614	1.000093936920166
80	332.5661709308624	pulse	0	t		78.0	2.5	/experiments/knapen_AOT/AOT_stimuli/rescaled_final/1883_rv.mp4	0.0	354.5484139919281	
80	333.38277292251587	movie	1		245	78.0	2.5	/experiments/knapen_AOT/AOT_stimuli/rescaled_final/1883_rv.mp4	0.0	355.36501598358154	2.5003809928894043
80	334.16651582717896	pulse	1	t		78.0	2.5	/experiments/knapen_AOT/AOT_stimuli/rescaled_final/1883_rv.mp4	0.0	356.14875888824463	
80	335.7644407749176	pulse	1	t		78.0	2.5	/experiments/knapen_AOT/AOT_stimuli/rescaled_final/1883_rv.mp4	0.0	357.7466838359833	
80	335.8831539154053	fix_post	2		12	78.0	2.5	/experiments/knapen_AOT/AOT_stimuli/rescaled_final/1883_rv.mp4	0.0	357.86539697647095	0.10001492500305176
81	335.9831688404083	fix_pre	0		119	79.0	2.5	/experiments/knapen_AOT/AOT_stimuli/rescaled_final/1185_rv.mp4	0.0	357.965411901474	0.9918229579925537
81	336.9749917984009	movie	1		244	79.0	2.5	/experiments/knapen_AOT/AOT_stimuli/rescaled_final/1185_rv.mp4	0.0	358.95723485946655	2.5003650188446045
81	337.36702489852905	pulse	1	t		79.0	2.5	/experiments/knapen_AOT/AOT_stimuli/rescaled_final/1185_rv.mp4	0.0	359.3492679595947	
81	338.96716690063477	pulse	1	t		79.0	2.5	/experiments/knapen_AOT/AOT_stimuli/rescaled_final/1185_rv.mp4	0.0	360.94940996170044	
81	339.4753568172455	fix_post	2		12	79.0	2.5	/experiments/knapen_AOT/AOT_stimuli/rescaled_final/1185_rv.mp4	0.0	361.45759987831116	0.10002899169921875
82	339.5753858089447	fix_pre	0		120	80.0	2.5	/experiments/knapen_AOT/AOT_stimuli/rescaled_final/0901_fw.mp4	0.0	361.5576288700104	1.0001850128173828
82	340.56741285324097	pulse	0	t		80.0	2.5	/experiments/knapen_AOT/AOT_stimuli/rescaled_final/0901_fw.mp4	0.0	362.54965591430664	
82	340.5755708217621	movie	1		249	80.0	2.5	/experiments/knapen_AOT/AOT_stimuli/rescaled_final/0901_fw.mp4	0.0	362.55781388282776	2.5086870193481445
82	342.16878390312195	pulse	1	t		80.0	2.5	/experiments/knapen_AOT/AOT_stimuli/rescaled_final/0901_fw.mp4	0.0	364.1510269641876	
82	343.08425784111023	fix_post	2		12	80.0	2.5	/experiments/knapen_AOT/AOT_stimuli/rescaled_final/0901_fw.mp4	0.0	365.0665009021759	0.1000821590423584
83	343.1843400001526	fix_pre	0		120	81.0	2.5	/experiments/knapen_AOT/AOT_stimuli/rescaled_final/0034_rv.mp4	0.0	365.16658306121826	1.000074863433838
83	343.767963886261	pulse	0	t		81.0	2.5	/experiments/knapen_AOT/AOT_stimuli/rescaled_final/0034_rv.mp4	0.0	365.75020694732666	
83	344.1844148635864	movie	1		243	81.0	2.5	/experiments/knapen_AOT/AOT_stimuli/rescaled_final/0034_rv.mp4	0.0	366.1666579246521	2.500386953353882
83	345.3682208061218	pulse	1	t		81.0	2.5	/experiments/knapen_AOT/AOT_stimuli/rescaled_final/0034_rv.mp4	0.0	367.3504638671875	
83	346.6848018169403	fix_post	2		12	81.0	2.5	/experiments/knapen_AOT/AOT_stimuli/rescaled_final/0034_rv.mp4	0.0	368.667044878006	0.09998798370361328
84	346.7847898006439	fix_pre	0		120	82.0	2.5	/experiments/knapen_AOT/AOT_stimuli/rescaled_final/1358_fw.mp4	0.0	368.7670328617096	1.0001740455627441
84	346.9684319496155	pulse	0	t		82.0	2.5	/experiments/knapen_AOT/AOT_stimuli/rescaled_final/1358_fw.mp4	0.0	368.95067501068115	
84	347.78496384620667	movie	1		244	82.0	2.5	/experiments/knapen_AOT/AOT_stimuli/rescaled_final/1358_fw.mp4	0.0	369.76720690727234	2.5003719329833984
84	348.56857991218567	pulse	1	t		82.0	2.5	/experiments/knapen_AOT/AOT_stimuli/rescaled_final/1358_fw.mp4	0.0	370.55082297325134	
84	350.1688868999481	pulse	1	t		82.0	2.5	/experiments/knapen_AOT/AOT_stimuli/rescaled_final/1358_fw.mp4	0.0	372.1511299610138	
84	350.28533577919006	fix_post	2		12	82.0	2.5	/experiments/knapen_AOT/AOT_stimuli/rescaled_final/1358_fw.mp4	0.0	372.26757884025574	0.10001206398010254
85	350.38534784317017	fix_pre	0		120	83.0	2.5	blank	1.0	372.36759090423584	1.0001130104064941
85	351.38546085357666	movie	1		299	83.0	2.5	blank	1.0	373.36770391464233	2.492074966430664
85	351.7691719532013	pulse	1	t		83.0	2.5	blank	1.0	373.75141501426697	
85	353.3692808151245	pulse	1	t		83.0	2.5	blank	1.0	375.3515238761902	
85	353.8775358200073	fix_post	2		12	83.0	2.5	blank	1.0	375.859778881073	0.1000051498413086
87	353.97754096984863	stim	0		1716					375.9597840309143	14.302229881286621
87	354.9696419239044	pulse	0	t						376.9518849849701	
87	356.56985688209534	pulse	0	t						378.552099943161	
87	358.1701159477234	pulse	0	t						380.15235900878906	
87	359.77022194862366	pulse	0	t						381.75246500968933	
87	361.3704957962036	pulse	0	t						383.3527388572693	
87	362.96328377723694	pulse	0	t						384.9455268383026	
87	364.56356596946716	pulse	0	t						386.54580903053284	
87	366.16381883621216	pulse	0	t						388.14606189727783	
87	367.7640438079834	pulse	0	t						389.7462868690491	
