trial_nr	onset	event_type	phase	response	nr_frames	movie_index	movie_duration	movie_file	blank	onset_abs	duration
0	0.1748342514038086	stim	0		6					18.146528720855713	0.0498502254486084
0	0.21669292449951172	response	0	space						18.188387393951416	
1	0.224684476852417	stim	0		4413					18.19637894630432	36.79028654098511
1	37.00564742088318	pulse	0	t						54.97734189033508	
1	37.014971017837524	stim	1		1716					54.98666548728943	14.309099197387695
1	38.59738302230835	pulse	1	t						56.569077491760254	
1	40.197911739349365	pulse	1	t						58.16960620880127	
1	41.79792666435242	pulse	1	t						59.76962113380432	
1	43.39805030822754	pulse	1	t						61.36974477767944	
1	44.99841237068176	pulse	1	t						62.97010684013367	
1	46.59853672981262	pulse	1	t						64.57023119926453	
1	48.198795795440674	pulse	1	t						66.17049026489258	
1	49.798999071121216	pulse	1	t						67.77069354057312	
2	51.32407021522522	fix_pre	0		10	0.0	2.5	/experiments/knapen_AOT/AOT_stimuli/rescaled_final/0456_rv.mp4	0.0	69.29576468467712	0.1000819206237793
2	51.39962124824524	pulse	0	t		0.0	2.5	/experiments/knapen_AOT/AOT_stimuli/rescaled_final/0456_rv.mp4	0.0	69.37131571769714	
2	51.424152135849	movie	1		279	0.0	2.5	/experiments/knapen_AOT/AOT_stimuli/rescaled_final/0456_rv.mp4	0.0	69.3958466053009	2.4919986724853516
2	52.99776268005371	pulse	1	t		0.0	2.5	/experiments/knapen_AOT/AOT_stimuli/rescaled_final/0456_rv.mp4	0.0	70.96945714950562	
2	53.91615080833435	fix_post	2		12	0.0	2.5	/experiments/knapen_AOT/AOT_stimuli/rescaled_final/0456_rv.mp4	0.0	71.88784527778625	0.10006213188171387
3	54.016212940216064	fix_pre	0		120	1.0	2.5	/experiments/knapen_AOT/AOT_stimuli/rescaled_final/1199_rv.mp4	0.0	71.98790740966797	1.0085077285766602
3	54.59979510307312	pulse	0	t		1.0	2.5	/experiments/knapen_AOT/AOT_stimuli/rescaled_final/1199_rv.mp4	0.0	72.57148957252502	
3	55.024720668792725	movie	1		279	1.0	2.5	/experiments/knapen_AOT/AOT_stimuli/rescaled_final/1199_rv.mp4	0.0	72.99641513824463	2.4920923709869385
3	56.19806671142578	pulse	1	t		1.0	2.5	/experiments/knapen_AOT/AOT_stimuli/rescaled_final/1199_rv.mp4	0.0	74.16976118087769	
3	57.51681303977966	fix_post	2		12	1.0	2.5	/experiments/knapen_AOT/AOT_stimuli/rescaled_final/1199_rv.mp4	0.0	75.48850750923157	0.10010743141174316
4	57.616920471191406	fix_pre	0		120	2.0	2.5	/experiments/knapen_AOT/AOT_stimuli/rescaled_final/1949_rv.mp4	0.0	75.58861494064331	1.0083856582641602
4	57.80023813247681	pulse	0	t		2.0	2.5	/experiments/knapen_AOT/AOT_stimuli/rescaled_final/1949_rv.mp4	0.0	75.77193260192871	
4	58.625306129455566	movie	1		262	2.0	2.5	/experiments/knapen_AOT/AOT_stimuli/rescaled_final/1949_rv.mp4	0.0	76.59700059890747	2.491950035095215
4	59.398377656936646	pulse	1	t		2.0	2.5	/experiments/knapen_AOT/AOT_stimuli/rescaled_final/1949_rv.mp4	0.0	77.37007212638855	
4	60.99857425689697	pulse	1	t		2.0	2.5	/experiments/knapen_AOT/AOT_stimuli/rescaled_final/1949_rv.mp4	0.0	78.97026872634888	
4	61.11725616455078	fix_post	2		12	2.0	2.5	/experiments/knapen_AOT/AOT_stimuli/rescaled_final/1949_rv.mp4	0.0	79.08895063400269	0.10003662109375
5	61.21729278564453	fix_pre	0		120	3.0	2.5	/experiments/knapen_AOT/AOT_stimuli/rescaled_final/1590_fw.mp4	0.0	79.18898725509644	1.008509874343872
5	62.2258026599884	movie	1		277	3.0	2.5	/experiments/knapen_AOT/AOT_stimuli/rescaled_final/1590_fw.mp4	0.0	80.19749712944031	2.4921998977661133
5	62.60046076774597	pulse	1	t		3.0	2.5	/experiments/knapen_AOT/AOT_stimuli/rescaled_final/1590_fw.mp4	0.0	80.57215523719788	
5	64.19916272163391	pulse	1	t		3.0	2.5	/experiments/knapen_AOT/AOT_stimuli/rescaled_final/1590_fw.mp4	0.0	82.17085719108582	
5	64.71800255775452	fix_post	2		12	3.0	2.5	/experiments/knapen_AOT/AOT_stimuli/rescaled_final/1590_fw.mp4	0.0	82.68969702720642	0.09980154037475586
6	64.81780409812927	fix_pre	0		119	4.0	2.5	/experiments/knapen_AOT/AOT_stimuli/rescaled_final/1130_rv.mp4	0.0	82.78949856758118	1.0001716613769531
6	65.80154323577881	pulse	0	t		4.0	2.5	/experiments/knapen_AOT/AOT_stimuli/rescaled_final/1130_rv.mp4	0.0	83.77323770523071	
6	65.81797575950623	movie	1		264	4.0	2.5	/experiments/knapen_AOT/AOT_stimuli/rescaled_final/1130_rv.mp4	0.0	83.78967022895813	2.500322103500366
6	67.40251755714417	pulse	1	t		4.0	2.5	/experiments/knapen_AOT/AOT_stimuli/rescaled_final/1130_rv.mp4	0.0	85.37421202659607	
6	68.31829786300659	fix_post	2		12	4.0	2.5	/experiments/knapen_AOT/AOT_stimuli/rescaled_final/1130_rv.mp4	0.0	86.2899923324585	0.10001015663146973
7	68.41830801963806	fix_pre	0		120	5.0	2.5	/experiments/knapen_AOT/AOT_stimuli/rescaled_final/0320_rv.mp4	0.0	86.39000248908997	1.008544921875
7	69.00198101997375	pulse	0	t		5.0	2.5	/experiments/knapen_AOT/AOT_stimuli/rescaled_final/0320_rv.mp4	0.0	86.97367548942566	
7	69.42685294151306	movie	1		275	5.0	2.5	/experiments/knapen_AOT/AOT_stimuli/rescaled_final/0320_rv.mp4	0.0	87.39854741096497	2.4919886589050293
7	70.60027575492859	pulse	1	t		5.0	2.5	/experiments/knapen_AOT/AOT_stimuli/rescaled_final/0320_rv.mp4	0.0	88.5719702243805	
7	71.91884160041809	fix_post	2		12	5.0	2.5	/experiments/knapen_AOT/AOT_stimuli/rescaled_final/0320_rv.mp4	0.0	89.89053606987	0.10002350807189941
8	72.01886510848999	fix_pre	0		120	6.0	2.5	blank	1.0	89.9905595779419	1.0001604557037354
8	72.19409132003784	pulse	0	t		6.0	2.5	blank	1.0	90.16578578948975	
8	73.01902556419373	movie	1		300	6.0	2.5	blank	1.0	90.99072003364563	2.5004312992095947
8	73.7944712638855	pulse	1	t		6.0	2.5	blank	1.0	91.7661657333374	
8	75.3945860862732	pulse	1	t		6.0	2.5	blank	1.0	93.3662805557251	
8	75.51945686340332	fix_post	2		12	6.0	2.5	blank	1.0	93.49115133285522	0.09999966621398926
9	75.61945652961731	fix_pre	0		120	7.0	2.5	/experiments/knapen_AOT/AOT_stimuli/rescaled_final/1883_rv.mp4	0.0	93.59115099906921	1.0084514617919922
9	76.6279079914093	movie	1		269	7.0	2.5	/experiments/knapen_AOT/AOT_stimuli/rescaled_final/1883_rv.mp4	0.0	94.5996024608612	2.492173433303833
9	76.9944851398468	pulse	1	t		7.0	2.5	/experiments/knapen_AOT/AOT_stimuli/rescaled_final/1883_rv.mp4	0.0	94.9661796092987	
9	78.5950939655304	pulse	1	t		7.0	2.5	/experiments/knapen_AOT/AOT_stimuli/rescaled_final/1883_rv.mp4	0.0	96.5667884349823	
9	79.12008142471313	fix_post	2		12	7.0	2.5	/experiments/knapen_AOT/AOT_stimuli/rescaled_final/1883_rv.mp4	0.0	97.09177589416504	0.09985589981079102
10	79.21993732452393	fix_pre	0		118	8.0	2.5	/experiments/knapen_AOT/AOT_stimuli/rescaled_final/0554_fw.mp4	0.0	97.19163179397583	0.9918138980865479
10	80.19529581069946	pulse	0	t		8.0	2.5	/experiments/knapen_AOT/AOT_stimuli/rescaled_final/0554_fw.mp4	0.0	98.16699028015137	
10	80.21175122261047	movie	1		270	8.0	2.5	/experiments/knapen_AOT/AOT_stimuli/rescaled_final/0554_fw.mp4	0.0	98.18344569206238	2.500525712966919
10	81.79566979408264	pulse	1	t		8.0	2.5	/experiments/knapen_AOT/AOT_stimuli/rescaled_final/0554_fw.mp4	0.0	99.76736426353455	
10	82.71227693557739	fix_post	2		12	8.0	2.5	/experiments/knapen_AOT/AOT_stimuli/rescaled_final/0554_fw.mp4	0.0	100.6839714050293	0.10016965866088867
11	82.81244659423828	fix_pre	0		120	9.0	2.5	/experiments/knapen_AOT/AOT_stimuli/rescaled_final/1779_fw.mp4	0.0	100.78414106369019	1.0081980228424072
11	83.39580249786377	pulse	0	t		9.0	2.5	/experiments/knapen_AOT/AOT_stimuli/rescaled_final/1779_fw.mp4	0.0	101.36749696731567	
11	83.82064461708069	movie	1		265	9.0	2.5	/experiments/knapen_AOT/AOT_stimuli/rescaled_final/1779_fw.mp4	0.0	101.79233908653259	2.492201089859009
11	84.99624037742615	pulse	1	t		9.0	2.5	/experiments/knapen_AOT/AOT_stimuli/rescaled_final/1779_fw.mp4	0.0	102.96793484687805	
11	86.3128457069397	fix_post	2		12	9.0	2.5	/experiments/knapen_AOT/AOT_stimuli/rescaled_final/1779_fw.mp4	0.0	104.2845401763916	0.09997367858886719
12	86.41281938552856	fix_pre	0		120	10.0	2.5	/experiments/knapen_AOT/AOT_stimuli/rescaled_final/0118_fw.mp4	0.0	104.38451385498047	1.008471965789795
12	86.596355676651	pulse	0	t		10.0	2.5	/experiments/knapen_AOT/AOT_stimuli/rescaled_final/0118_fw.mp4	0.0	104.5680501461029	
12	87.42129135131836	movie	1		258	10.0	2.5	/experiments/knapen_AOT/AOT_stimuli/rescaled_final/0118_fw.mp4	0.0	105.39298582077026	2.4926421642303467
12	88.19449853897095	pulse	1	t		10.0	2.5	/experiments/knapen_AOT/AOT_stimuli/rescaled_final/0118_fw.mp4	0.0	106.16619300842285	
12	89.79496574401855	pulse	1	t		10.0	2.5	/experiments/knapen_AOT/AOT_stimuli/rescaled_final/0118_fw.mp4	0.0	107.76666021347046	
12	89.9139335155487	fix_post	2		12	10.0	2.5	/experiments/knapen_AOT/AOT_stimuli/rescaled_final/0118_fw.mp4	0.0	107.88562798500061	0.09944534301757812
13	90.01337885856628	fix_pre	0		120	11.0	2.5	/experiments/knapen_AOT/AOT_stimuli/rescaled_final/1120_fw.mp4	0.0	107.98507332801819	1.0083954334259033
13	91.02177429199219	movie	1		276	11.0	2.5	/experiments/knapen_AOT/AOT_stimuli/rescaled_final/1120_fw.mp4	0.0	108.99346876144409	2.5003502368927
13	91.39532780647278	pulse	1	t		11.0	2.5	/experiments/knapen_AOT/AOT_stimuli/rescaled_final/1120_fw.mp4	0.0	109.36702227592468	
13	92.9950680732727	pulse	1	t		11.0	2.5	/experiments/knapen_AOT/AOT_stimuli/rescaled_final/1120_fw.mp4	0.0	110.96676254272461	
13	93.52212452888489	fix_post	2		11	11.0	2.5	/experiments/knapen_AOT/AOT_stimuli/rescaled_final/1120_fw.mp4	0.0	111.49381899833679	0.09181356430053711
14	93.61393809318542	fix_pre	0		119	12.0	2.5	/experiments/knapen_AOT/AOT_stimuli/rescaled_final/0359_fw.mp4	0.0	111.58563256263733	1.0084788799285889
14	94.59755325317383	pulse	0	t		12.0	2.5	/experiments/knapen_AOT/AOT_stimuli/rescaled_final/0359_fw.mp4	0.0	112.56924772262573	
14	94.62241697311401	movie	1		261	12.0	2.5	/experiments/knapen_AOT/AOT_stimuli/rescaled_final/0359_fw.mp4	0.0	112.59411144256592	2.4921023845672607
14	96.19622087478638	pulse	1	t		12.0	2.5	/experiments/knapen_AOT/AOT_stimuli/rescaled_final/0359_fw.mp4	0.0	114.16791534423828	
14	97.11451935768127	fix_post	2		12	12.0	2.5	/experiments/knapen_AOT/AOT_stimuli/rescaled_final/0359_fw.mp4	0.0	115.08621382713318	0.09981846809387207
15	97.21433782577515	fix_pre	0		120	13.0	2.5	blank	1.0	115.18603229522705	1.0001304149627686
15	97.79846811294556	pulse	0	t		13.0	2.5	blank	1.0	115.77016258239746	
15	98.21446824073792	movie	1		300	13.0	2.5	blank	1.0	116.18616271018982	2.5003719329833984
15	99.39817118644714	pulse	1	t		13.0	2.5	blank	1.0	117.36986565589905	
15	100.71484017372131	fix_post	2		12	13.0	2.5	blank	1.0	118.68653464317322	0.10014462471008301
16	100.8149847984314	fix_pre	0		120	14.0	2.5	/experiments/knapen_AOT/AOT_stimuli/rescaled_final/0633_rv.mp4	0.0	118.7866792678833	1.008368968963623
16	100.99846243858337	pulse	0	t		14.0	2.5	/experiments/knapen_AOT/AOT_stimuli/rescaled_final/0633_rv.mp4	0.0	118.97015690803528	
16	101.82335376739502	movie	1		267	14.0	2.5	/experiments/knapen_AOT/AOT_stimuli/rescaled_final/0633_rv.mp4	0.0	119.79504823684692	2.49228572845459
16	102.59677457809448	pulse	1	t		14.0	2.5	/experiments/knapen_AOT/AOT_stimuli/rescaled_final/0633_rv.mp4	0.0	120.56846904754639	
16	104.19759631156921	pulse	1	t		14.0	2.5	/experiments/knapen_AOT/AOT_stimuli/rescaled_final/0633_rv.mp4	0.0	122.16929078102112	
16	104.31563949584961	fix_post	2		12	14.0	2.5	/experiments/knapen_AOT/AOT_stimuli/rescaled_final/0633_rv.mp4	0.0	122.28733396530151	0.09996986389160156
17	104.41560935974121	fix_pre	0		120	15.0	2.5	/experiments/knapen_AOT/AOT_stimuli/rescaled_final/0814_rv.mp4	0.0	122.38730382919312	1.0086669921875
17	105.42427635192871	movie	1		263	15.0	2.5	/experiments/knapen_AOT/AOT_stimuli/rescaled_final/0814_rv.mp4	0.0	123.39597082138062	2.4916670322418213
17	105.79757905006409	pulse	1	t		15.0	2.5	/experiments/knapen_AOT/AOT_stimuli/rescaled_final/0814_rv.mp4	0.0	123.76927351951599	
17	107.39735245704651	pulse	1	t		15.0	2.5	/experiments/knapen_AOT/AOT_stimuli/rescaled_final/0814_rv.mp4	0.0	125.36904692649841	
17	107.91594338417053	fix_post	2		12	15.0	2.5	/experiments/knapen_AOT/AOT_stimuli/rescaled_final/0814_rv.mp4	0.0	125.88763785362244	0.09997987747192383
18	108.01592326164246	fix_pre	0		119	16.0	2.5	/experiments/knapen_AOT/AOT_stimuli/rescaled_final/0633_fw.mp4	0.0	125.98761773109436	1.0001661777496338
18	108.99991011619568	pulse	0	t		16.0	2.5	/experiments/knapen_AOT/AOT_stimuli/rescaled_final/0633_fw.mp4	0.0	126.97160458564758	
18	109.01608943939209	movie	1		263	16.0	2.5	/experiments/knapen_AOT/AOT_stimuli/rescaled_final/0633_fw.mp4	0.0	126.987783908844	2.5006978511810303
18	110.59829258918762	pulse	1	t		16.0	2.5	/experiments/knapen_AOT/AOT_stimuli/rescaled_final/0633_fw.mp4	0.0	128.56998705863953	
18	111.51678729057312	fix_post	2		12	16.0	2.5	/experiments/knapen_AOT/AOT_stimuli/rescaled_final/0633_fw.mp4	0.0	129.48848176002502	0.09969639778137207
19	111.61648368835449	fix_pre	0		120	17.0	2.5	/experiments/knapen_AOT/AOT_stimuli/rescaled_final/1955_rv.mp4	0.0	129.5881781578064	1.0086328983306885
19	112.20013070106506	pulse	0	t		17.0	2.5	/experiments/knapen_AOT/AOT_stimuli/rescaled_final/1955_rv.mp4	0.0	130.17182517051697	
19	112.62511658668518	movie	1		260	17.0	2.5	/experiments/knapen_AOT/AOT_stimuli/rescaled_final/1955_rv.mp4	0.0	130.59681105613708	2.4921324253082275
19	113.800461769104	pulse	1	t		17.0	2.5	/experiments/knapen_AOT/AOT_stimuli/rescaled_final/1955_rv.mp4	0.0	131.7721562385559	
19	115.11724901199341	fix_post	2		12	17.0	2.5	/experiments/knapen_AOT/AOT_stimuli/rescaled_final/1955_rv.mp4	0.0	133.0889434814453	0.09978032112121582
20	115.21702933311462	fix_pre	0		120	18.0	2.5	/experiments/knapen_AOT/AOT_stimuli/rescaled_final/0612_fw.mp4	0.0	133.18872380256653	1.0086300373077393
20	115.4005765914917	pulse	0	t		18.0	2.5	/experiments/knapen_AOT/AOT_stimuli/rescaled_final/0612_fw.mp4	0.0	133.3722710609436	
20	116.22565937042236	movie	1		284	18.0	2.5	/experiments/knapen_AOT/AOT_stimuli/rescaled_final/0612_fw.mp4	0.0	134.19735383987427	2.4922237396240234
20	116.99911594390869	pulse	1	t		18.0	2.5	/experiments/knapen_AOT/AOT_stimuli/rescaled_final/0612_fw.mp4	0.0	134.9708104133606	
20	118.59905815124512	pulse	1	t		18.0	2.5	/experiments/knapen_AOT/AOT_stimuli/rescaled_final/0612_fw.mp4	0.0	136.57075262069702	
20	118.71788311004639	fix_post	2		12	18.0	2.5	/experiments/knapen_AOT/AOT_stimuli/rescaled_final/0612_fw.mp4	0.0	136.6895775794983	0.09971356391906738
21	118.81759667396545	fix_pre	0		120	19.0	2.5	/experiments/knapen_AOT/AOT_stimuli/rescaled_final/1831_fw.mp4	0.0	136.78929114341736	1.0084865093231201
21	119.82608318328857	movie	1		280	19.0	2.5	/experiments/knapen_AOT/AOT_stimuli/rescaled_final/1831_fw.mp4	0.0	137.79777765274048	2.4921653270721436
21	120.19995880126953	pulse	1	t		19.0	2.5	/experiments/knapen_AOT/AOT_stimuli/rescaled_final/1831_fw.mp4	0.0	138.17165327072144	
21	121.79978251457214	pulse	1	t		19.0	2.5	/experiments/knapen_AOT/AOT_stimuli/rescaled_final/1831_fw.mp4	0.0	139.77147698402405	
21	122.31824851036072	fix_post	2		12	19.0	2.5	/experiments/knapen_AOT/AOT_stimuli/rescaled_final/1831_fw.mp4	0.0	140.28994297981262	0.09988832473754883
22	122.41813683509827	fix_pre	0		119	20.0	2.5	/experiments/knapen_AOT/AOT_stimuli/rescaled_final/1952_rv.mp4	0.0	140.38983130455017	1.0001628398895264
22	123.39402318000793	pulse	0	t		20.0	2.5	/experiments/knapen_AOT/AOT_stimuli/rescaled_final/1952_rv.mp4	0.0	141.36571764945984	
22	123.4182996749878	movie	1		281	20.0	2.5	/experiments/knapen_AOT/AOT_stimuli/rescaled_final/1952_rv.mp4	0.0	141.3899941444397	2.500580310821533
22	125.00066876411438	pulse	1	t		20.0	2.5	/experiments/knapen_AOT/AOT_stimuli/rescaled_final/1952_rv.mp4	0.0	142.97236323356628	
22	125.91887998580933	fix_post	2		12	20.0	2.5	/experiments/knapen_AOT/AOT_stimuli/rescaled_final/1952_rv.mp4	0.0	143.89057445526123	0.09976983070373535
23	126.01864981651306	fix_pre	0		120	21.0	2.5	blank	1.0	143.99034428596497	1.0001766681671143
23	126.5941014289856	pulse	0	t		21.0	2.5	blank	1.0	144.5657958984375	
23	127.01882648468018	movie	1		300	21.0	2.5	blank	1.0	144.99052095413208	2.500377893447876
23	128.19438910484314	pulse	1	t		21.0	2.5	blank	1.0	146.16608357429504	
23	129.51920437812805	fix_post	2		12	21.0	2.5	blank	1.0	147.49089884757996	0.10053873062133789
24	129.6197431087494	fix_pre	0		120	22.0	2.5	/experiments/knapen_AOT/AOT_stimuli/rescaled_final/2155_fw.mp4	0.0	147.5914375782013	1.007943868637085
24	129.7943994998932	pulse	0	t		22.0	2.5	/experiments/knapen_AOT/AOT_stimuli/rescaled_final/2155_fw.mp4	0.0	147.7660939693451	
24	130.62768697738647	movie	1		264	22.0	2.5	/experiments/knapen_AOT/AOT_stimuli/rescaled_final/2155_fw.mp4	0.0	148.59938144683838	2.4921860694885254
24	131.39471101760864	pulse	1	t		22.0	2.5	/experiments/knapen_AOT/AOT_stimuli/rescaled_final/2155_fw.mp4	0.0	149.36640548706055	
24	132.99488043785095	pulse	1	t		22.0	2.5	/experiments/knapen_AOT/AOT_stimuli/rescaled_final/2155_fw.mp4	0.0	150.96657490730286	
24	133.119873046875	fix_post	2		12	22.0	2.5	/experiments/knapen_AOT/AOT_stimuli/rescaled_final/2155_fw.mp4	0.0	151.0915675163269	0.09987115859985352
25	133.21974420547485	fix_pre	0		120	23.0	2.5	/experiments/knapen_AOT/AOT_stimuli/rescaled_final/1527_rv.mp4	0.0	151.19143867492676	1.0084879398345947
25	134.22823214530945	movie	1		268	23.0	2.5	/experiments/knapen_AOT/AOT_stimuli/rescaled_final/1527_rv.mp4	0.0	152.19992661476135	2.492231607437134
25	134.5943968296051	pulse	1	t		23.0	2.5	/experiments/knapen_AOT/AOT_stimuli/rescaled_final/1527_rv.mp4	0.0	152.566091299057	
25	136.1957335472107	pulse	1	t		23.0	2.5	/experiments/knapen_AOT/AOT_stimuli/rescaled_final/1527_rv.mp4	0.0	154.1674280166626	
25	136.72046375274658	fix_post	2		12	23.0	2.5	/experiments/knapen_AOT/AOT_stimuli/rescaled_final/1527_rv.mp4	0.0	154.6921582221985	0.0998537540435791
26	136.82031750679016	fix_pre	0		118	24.0	2.5	/experiments/knapen_AOT/AOT_stimuli/rescaled_final/1230_rv.mp4	0.0	154.79201197624207	0.9918222427368164
26	137.79575777053833	pulse	0	t		24.0	2.5	/experiments/knapen_AOT/AOT_stimuli/rescaled_final/1230_rv.mp4	0.0	155.76745223999023	
26	137.81213974952698	movie	1		279	24.0	2.5	/experiments/knapen_AOT/AOT_stimuli/rescaled_final/1230_rv.mp4	0.0	155.78383421897888	2.5004773139953613
26	139.3948884010315	pulse	1	t		24.0	2.5	/experiments/knapen_AOT/AOT_stimuli/rescaled_final/1230_rv.mp4	0.0	157.3665828704834	
26	140.31261706352234	fix_post	2		12	24.0	2.5	/experiments/knapen_AOT/AOT_stimuli/rescaled_final/1230_rv.mp4	0.0	158.28431153297424	0.09998250007629395
27	140.41259956359863	fix_pre	0		120	25.0	2.5	/experiments/knapen_AOT/AOT_stimuli/rescaled_final/0001_fw.mp4	0.0	158.38429403305054	1.0084023475646973
27	140.996164560318	pulse	0	t		25.0	2.5	/experiments/knapen_AOT/AOT_stimuli/rescaled_final/0001_fw.mp4	0.0	158.9678590297699	
27	141.42100191116333	movie	1		263	25.0	2.5	/experiments/knapen_AOT/AOT_stimuli/rescaled_final/0001_fw.mp4	0.0	159.39269638061523	2.492172956466675
27	142.59436917304993	pulse	1	t		25.0	2.5	/experiments/knapen_AOT/AOT_stimuli/rescaled_final/0001_fw.mp4	0.0	160.56606364250183	
27	143.91317486763	fix_post	2		12	25.0	2.5	/experiments/knapen_AOT/AOT_stimuli/rescaled_final/0001_fw.mp4	0.0	161.8848693370819	0.09992074966430664
28	144.0130956172943	fix_pre	0		120	26.0	2.5	blank	1.0	161.98479008674622	1.000302791595459
28	144.196594953537	pulse	0	t		26.0	2.5	blank	1.0	162.1682894229889	
28	145.01339840888977	movie	1		300	26.0	2.5	blank	1.0	162.98509287834167	2.5002660751342773
28	145.79691362380981	pulse	1	t		26.0	2.5	blank	1.0	163.76860809326172	
28	147.39707922935486	pulse	1	t		26.0	2.5	blank	1.0	165.36877369880676	
28	147.51366448402405	fix_post	2		12	26.0	2.5	blank	1.0	165.48535895347595	0.09992623329162598
29	147.61359071731567	fix_pre	0		120	27.0	2.5	/experiments/knapen_AOT/AOT_stimuli/rescaled_final/0744_rv.mp4	0.0	165.58528518676758	1.0084764957427979
29	148.62206721305847	movie	1		255	27.0	2.5	/experiments/knapen_AOT/AOT_stimuli/rescaled_final/0744_rv.mp4	0.0	166.59376168251038	2.492337465286255
29	148.99749994277954	pulse	1	t		27.0	2.5	/experiments/knapen_AOT/AOT_stimuli/rescaled_final/0744_rv.mp4	0.0	166.96919441223145	
29	150.5975203514099	pulse	1	t		27.0	2.5	/experiments/knapen_AOT/AOT_stimuli/rescaled_final/0744_rv.mp4	0.0	168.56921482086182	
29	151.11440467834473	fix_post	2		12	27.0	2.5	/experiments/knapen_AOT/AOT_stimuli/rescaled_final/0744_rv.mp4	0.0	169.08609914779663	0.09970545768737793
30	151.2141101360321	fix_pre	0		119	28.0	2.5	/experiments/knapen_AOT/AOT_stimuli/rescaled_final/1367_rv.mp4	0.0	169.185804605484	1.0001695156097412
30	152.19774842262268	pulse	0	t		28.0	2.5	/experiments/knapen_AOT/AOT_stimuli/rescaled_final/1367_rv.mp4	0.0	170.16944289207458	
30	152.21427965164185	movie	1		266	28.0	2.5	/experiments/knapen_AOT/AOT_stimuli/rescaled_final/1367_rv.mp4	0.0	170.18597412109375	2.5008292198181152
30	153.79666543006897	pulse	1	t		28.0	2.5	/experiments/knapen_AOT/AOT_stimuli/rescaled_final/1367_rv.mp4	0.0	171.76835989952087	
30	154.71510887145996	fix_post	2		12	28.0	2.5	/experiments/knapen_AOT/AOT_stimuli/rescaled_final/1367_rv.mp4	0.0	172.68680334091187	0.09955048561096191
31	154.81465935707092	fix_pre	0		120	29.0	2.5	/experiments/knapen_AOT/AOT_stimuli/rescaled_final/2080_rv.mp4	0.0	172.78635382652283	1.0085039138793945
31	155.39856815338135	pulse	0	t		29.0	2.5	/experiments/knapen_AOT/AOT_stimuli/rescaled_final/2080_rv.mp4	0.0	173.37026262283325	
31	155.82316327095032	movie	1		248	29.0	2.5	/experiments/knapen_AOT/AOT_stimuli/rescaled_final/2080_rv.mp4	0.0	173.79485774040222	2.492100715637207
31	156.99696445465088	pulse	1	t		29.0	2.5	/experiments/knapen_AOT/AOT_stimuli/rescaled_final/2080_rv.mp4	0.0	174.96865892410278	
31	158.31526398658752	fix_post	2		12	29.0	2.5	/experiments/knapen_AOT/AOT_stimuli/rescaled_final/2080_rv.mp4	0.0	176.28695845603943	0.09998774528503418
32	158.41525173187256	fix_pre	0		120	30.0	2.5	/experiments/knapen_AOT/AOT_stimuli/rescaled_final/0612_rv.mp4	0.0	176.38694620132446	1.0085995197296143
32	158.59875798225403	pulse	0	t		30.0	2.5	/experiments/knapen_AOT/AOT_stimuli/rescaled_final/0612_rv.mp4	0.0	176.57045245170593	
32	159.42385125160217	movie	1		264	30.0	2.5	/experiments/knapen_AOT/AOT_stimuli/rescaled_final/0612_rv.mp4	0.0	177.39554572105408	2.4921457767486572
32	160.19686269760132	pulse	1	t		30.0	2.5	/experiments/knapen_AOT/AOT_stimuli/rescaled_final/0612_rv.mp4	0.0	178.16855716705322	
32	161.79719400405884	pulse	1	t		30.0	2.5	/experiments/knapen_AOT/AOT_stimuli/rescaled_final/0612_rv.mp4	0.0	179.76888847351074	
32	161.91599702835083	fix_post	2		12	30.0	2.5	/experiments/knapen_AOT/AOT_stimuli/rescaled_final/0612_rv.mp4	0.0	179.88769149780273	0.09993624687194824
33	162.01593327522278	fix_pre	0		120	31.0	2.5	/experiments/knapen_AOT/AOT_stimuli/rescaled_final/0344_rv.mp4	0.0	179.98762774467468	1.0083591938018799
33	163.02429246902466	movie	1		278	31.0	2.5	/experiments/knapen_AOT/AOT_stimuli/rescaled_final/0344_rv.mp4	0.0	180.99598693847656	2.4919958114624023
33	163.3980574607849	pulse	1	t		31.0	2.5	/experiments/knapen_AOT/AOT_stimuli/rescaled_final/0344_rv.mp4	0.0	181.36975193023682	
33	164.9976749420166	pulse	1	t		31.0	2.5	/experiments/knapen_AOT/AOT_stimuli/rescaled_final/0344_rv.mp4	0.0	182.9693694114685	
33	165.51628828048706	fix_post	2		12	31.0	2.5	/experiments/knapen_AOT/AOT_stimuli/rescaled_final/0344_rv.mp4	0.0	183.48798274993896	0.1000216007232666
34	165.61630988121033	fix_pre	0		119	32.0	2.5	/experiments/knapen_AOT/AOT_stimuli/rescaled_final/1890_rv.mp4	0.0	183.58800435066223	1.0001168251037598
34	166.59997415542603	pulse	0	t		32.0	2.5	/experiments/knapen_AOT/AOT_stimuli/rescaled_final/1890_rv.mp4	0.0	184.57166862487793	
34	166.6164267063141	movie	1		274	32.0	2.5	/experiments/knapen_AOT/AOT_stimuli/rescaled_final/1890_rv.mp4	0.0	184.588121175766	2.500589609146118
34	168.20004272460938	pulse	1	t		32.0	2.5	/experiments/knapen_AOT/AOT_stimuli/rescaled_final/1890_rv.mp4	0.0	186.17173719406128	
34	169.1170163154602	fix_post	2		12	32.0	2.5	/experiments/knapen_AOT/AOT_stimuli/rescaled_final/1890_rv.mp4	0.0	187.0887107849121	0.09981250762939453
35	169.2168288230896	fix_pre	0		120	33.0	2.5	blank	1.0	187.1885232925415	1.0001442432403564
35	169.8008587360382	pulse	0	t		33.0	2.5	blank	1.0	187.7725532054901	
35	170.21697306632996	movie	1		300	33.0	2.5	blank	1.0	188.18866753578186	2.500378131866455
35	171.40111780166626	pulse	1	t		33.0	2.5	blank	1.0	189.37281227111816	
35	172.7173511981964	fix_post	2		12	33.0	2.5	blank	1.0	190.68904566764832	0.10009956359863281
36	172.81745076179504	fix_pre	0		120	34.0	2.5	/experiments/knapen_AOT/AOT_stimuli/rescaled_final/0316_rv.mp4	0.0	190.78914523124695	1.008413553237915
36	173.00103306770325	pulse	0	t		34.0	2.5	/experiments/knapen_AOT/AOT_stimuli/rescaled_final/0316_rv.mp4	0.0	190.97272753715515	
36	173.82586431503296	movie	1		250	34.0	2.5	/experiments/knapen_AOT/AOT_stimuli/rescaled_final/0316_rv.mp4	0.0	191.79755878448486	2.4920101165771484
36	174.6012945175171	pulse	1	t		34.0	2.5	/experiments/knapen_AOT/AOT_stimuli/rescaled_final/0316_rv.mp4	0.0	192.572988986969	
36	176.1993908882141	pulse	1	t		34.0	2.5	/experiments/knapen_AOT/AOT_stimuli/rescaled_final/0316_rv.mp4	0.0	194.17108535766602	
36	176.3178744316101	fix_post	2		12	34.0	2.5	/experiments/knapen_AOT/AOT_stimuli/rescaled_final/0316_rv.mp4	0.0	194.289568901062	0.10005545616149902
37	176.4179298877716	fix_pre	0		120	35.0	2.5	/experiments/knapen_AOT/AOT_stimuli/rescaled_final/1150_fw.mp4	0.0	194.3896243572235	1.0084998607635498
37	177.42642974853516	movie	1		278	35.0	2.5	/experiments/knapen_AOT/AOT_stimuli/rescaled_final/1150_fw.mp4	0.0	195.39812421798706	2.4921622276306152
37	177.80079650878906	pulse	1	t		35.0	2.5	/experiments/knapen_AOT/AOT_stimuli/rescaled_final/1150_fw.mp4	0.0	195.77249097824097	
37	179.40017127990723	pulse	1	t		35.0	2.5	/experiments/knapen_AOT/AOT_stimuli/rescaled_final/1150_fw.mp4	0.0	197.37186574935913	
37	179.91859197616577	fix_post	2		11	35.0	2.5	/experiments/knapen_AOT/AOT_stimuli/rescaled_final/1150_fw.mp4	0.0	197.89028644561768	0.09986352920532227
38	180.0184555053711	fix_pre	0		119	36.0	2.5	/experiments/knapen_AOT/AOT_stimuli/rescaled_final/1545_rv.mp4	0.0	197.990149974823	1.0001962184906006
38	181.00209498405457	pulse	0	t		36.0	2.5	/experiments/knapen_AOT/AOT_stimuli/rescaled_final/1545_rv.mp4	0.0	198.97378945350647	
38	181.0186517238617	movie	1		280	36.0	2.5	/experiments/knapen_AOT/AOT_stimuli/rescaled_final/1545_rv.mp4	0.0	198.9903461933136	2.5089313983917236
38	182.60107707977295	pulse	1	t		36.0	2.5	/experiments/knapen_AOT/AOT_stimuli/rescaled_final/1545_rv.mp4	0.0	200.57277154922485	
38	183.52758312225342	fix_post	2		11	36.0	2.5	/experiments/knapen_AOT/AOT_stimuli/rescaled_final/1545_rv.mp4	0.0	201.49927759170532	0.09165716171264648
39	183.61924028396606	fix_pre	0		120	37.0	2.5	/experiments/knapen_AOT/AOT_stimuli/rescaled_final/0628_rv.mp4	0.0	201.59093475341797	1.0082499980926514
39	184.19459104537964	pulse	0	t		37.0	2.5	/experiments/knapen_AOT/AOT_stimuli/rescaled_final/0628_rv.mp4	0.0	202.16628551483154	
39	184.62749028205872	movie	1		290	37.0	2.5	/experiments/knapen_AOT/AOT_stimuli/rescaled_final/0628_rv.mp4	0.0	202.59918475151062	2.492377519607544
39	185.7946276664734	pulse	1	t		37.0	2.5	/experiments/knapen_AOT/AOT_stimuli/rescaled_final/0628_rv.mp4	0.0	203.7663221359253	
39	187.11986780166626	fix_post	2		12	37.0	2.5	/experiments/knapen_AOT/AOT_stimuli/rescaled_final/0628_rv.mp4	0.0	205.09156227111816	0.09969401359558105
40	187.21956181526184	fix_pre	0		120	38.0	2.5	/experiments/knapen_AOT/AOT_stimuli/rescaled_final/1390_rv.mp4	0.0	205.19125628471375	1.0084617137908936
40	187.39484572410583	pulse	0	t		38.0	2.5	/experiments/knapen_AOT/AOT_stimuli/rescaled_final/1390_rv.mp4	0.0	205.36654019355774	
40	188.22802352905273	movie	1		267	38.0	2.5	/experiments/knapen_AOT/AOT_stimuli/rescaled_final/1390_rv.mp4	0.0	206.19971799850464	2.4920284748077393
40	188.99526119232178	pulse	1	t		38.0	2.5	/experiments/knapen_AOT/AOT_stimuli/rescaled_final/1390_rv.mp4	0.0	206.96695566177368	
40	190.59521532058716	pulse	1	t		38.0	2.5	/experiments/knapen_AOT/AOT_stimuli/rescaled_final/1390_rv.mp4	0.0	208.56690979003906	
40	190.72005200386047	fix_post	2		12	38.0	2.5	/experiments/knapen_AOT/AOT_stimuli/rescaled_final/1390_rv.mp4	0.0	208.69174647331238	0.1000823974609375
41	190.8201344013214	fix_pre	0		120	39.0	2.5	/experiments/knapen_AOT/AOT_stimuli/rescaled_final/1580_fw.mp4	0.0	208.79182887077332	1.0085551738739014
41	191.8286895751953	movie	1		264	39.0	2.5	/experiments/knapen_AOT/AOT_stimuli/rescaled_final/1580_fw.mp4	0.0	209.80038404464722	2.4918994903564453
41	192.1957094669342	pulse	1	t		39.0	2.5	/experiments/knapen_AOT/AOT_stimuli/rescaled_final/1580_fw.mp4	0.0	210.1674039363861	
41	193.79590320587158	pulse	1	t		39.0	2.5	/experiments/knapen_AOT/AOT_stimuli/rescaled_final/1580_fw.mp4	0.0	211.7675976753235	
41	194.32058906555176	fix_post	2		12	39.0	2.5	/experiments/knapen_AOT/AOT_stimuli/rescaled_final/1580_fw.mp4	0.0	212.29228353500366	0.10002803802490234
42	194.42061710357666	fix_pre	0		118	40.0	2.5	/experiments/knapen_AOT/AOT_stimuli/rescaled_final/0442_rv.mp4	0.0	212.39231157302856	0.9919517040252686
42	195.39615607261658	pulse	0	t		40.0	2.5	/experiments/knapen_AOT/AOT_stimuli/rescaled_final/0442_rv.mp4	0.0	213.36785054206848	
42	195.41256880760193	movie	1		276	40.0	2.5	/experiments/knapen_AOT/AOT_stimuli/rescaled_final/0442_rv.mp4	0.0	213.38426327705383	2.5002388954162598
42	196.99455904960632	pulse	1	t		40.0	2.5	/experiments/knapen_AOT/AOT_stimuli/rescaled_final/0442_rv.mp4	0.0	214.96625351905823	
42	197.9128077030182	fix_post	2		12	40.0	2.5	/experiments/knapen_AOT/AOT_stimuli/rescaled_final/0442_rv.mp4	0.0	215.8845021724701	0.10000896453857422
43	198.01281666755676	fix_pre	0		120	41.0	2.5	/experiments/knapen_AOT/AOT_stimuli/rescaled_final/0902_rv.mp4	0.0	215.98451113700867	1.0086779594421387
43	198.59650039672852	pulse	0	t		41.0	2.5	/experiments/knapen_AOT/AOT_stimuli/rescaled_final/0902_rv.mp4	0.0	216.56819486618042	
43	199.0214946269989	movie	1		278	41.0	2.5	/experiments/knapen_AOT/AOT_stimuli/rescaled_final/0902_rv.mp4	0.0	216.9931890964508	2.4919369220733643
43	200.19461178779602	pulse	1	t		41.0	2.5	/experiments/knapen_AOT/AOT_stimuli/rescaled_final/0902_rv.mp4	0.0	218.16630625724792	
43	201.51343154907227	fix_post	2		12	41.0	2.5	/experiments/knapen_AOT/AOT_stimuli/rescaled_final/0902_rv.mp4	0.0	219.48512601852417	0.09994053840637207
44	201.61337208747864	fix_pre	0		120	42.0	2.5	blank	1.0	219.58506655693054	1.00038743019104
44	201.79694175720215	pulse	0	t		42.0	2.5	blank	1.0	219.76863622665405	
44	202.61375951766968	movie	1		300	42.0	2.5	blank	1.0	220.58545398712158	2.500379800796509
44	203.39727139472961	pulse	1	t		42.0	2.5	blank	1.0	221.36896586418152	
44	204.99740648269653	pulse	1	t		42.0	2.5	blank	1.0	222.96910095214844	
44	205.1141393184662	fix_post	2		12	42.0	2.5	blank	1.0	223.0858337879181	0.09976434707641602
45	205.2139036655426	fix_pre	0		120	43.0	2.5	/experiments/knapen_AOT/AOT_stimuli/rescaled_final/1194_fw.mp4	0.0	223.1855981349945	1.0084946155548096
45	206.2223982810974	movie	1		272	43.0	2.5	/experiments/knapen_AOT/AOT_stimuli/rescaled_final/1194_fw.mp4	0.0	224.19409275054932	2.4920151233673096
45	206.59631633758545	pulse	1	t		43.0	2.5	/experiments/knapen_AOT/AOT_stimuli/rescaled_final/1194_fw.mp4	0.0	224.56801080703735	
45	208.1955714225769	pulse	1	t		43.0	2.5	/experiments/knapen_AOT/AOT_stimuli/rescaled_final/1194_fw.mp4	0.0	226.1672658920288	
45	208.71441340446472	fix_post	2		12	43.0	2.5	/experiments/knapen_AOT/AOT_stimuli/rescaled_final/1194_fw.mp4	0.0	226.68610787391663	0.10034894943237305
46	208.8147623538971	fix_pre	0		119	44.0	2.5	/experiments/knapen_AOT/AOT_stimuli/rescaled_final/1835_fw.mp4	0.0	226.786456823349	0.9998760223388672
46	209.7982201576233	pulse	0	t		44.0	2.5	/experiments/knapen_AOT/AOT_stimuli/rescaled_final/1835_fw.mp4	0.0	227.7699146270752	
46	209.81463837623596	movie	1		268	44.0	2.5	/experiments/knapen_AOT/AOT_stimuli/rescaled_final/1835_fw.mp4	0.0	227.78633284568787	2.508716583251953
46	211.3976218700409	pulse	1	t		44.0	2.5	/experiments/knapen_AOT/AOT_stimuli/rescaled_final/1835_fw.mp4	0.0	229.3693163394928	
46	212.32335495948792	fix_post	2		11	44.0	2.5	/experiments/knapen_AOT/AOT_stimuli/rescaled_final/1835_fw.mp4	0.0	230.29504942893982	0.09178304672241211
47	212.41513800621033	fix_pre	0		120	45.0	2.5	/experiments/knapen_AOT/AOT_stimuli/rescaled_final/0344_fw.mp4	0.0	230.38683247566223	1.0083742141723633
47	212.9985842704773	pulse	0	t		45.0	2.5	/experiments/knapen_AOT/AOT_stimuli/rescaled_final/0344_fw.mp4	0.0	230.9702787399292	
47	213.4235122203827	movie	1		273	45.0	2.5	/experiments/knapen_AOT/AOT_stimuli/rescaled_final/0344_fw.mp4	0.0	231.3952066898346	2.4920783042907715
47	214.59895968437195	pulse	1	t		45.0	2.5	/experiments/knapen_AOT/AOT_stimuli/rescaled_final/0344_fw.mp4	0.0	232.57065415382385	
47	215.91559052467346	fix_post	2		12	45.0	2.5	/experiments/knapen_AOT/AOT_stimuli/rescaled_final/0344_fw.mp4	0.0	233.88728499412537	0.10012006759643555
48	216.0157105922699	fix_pre	0		120	46.0	2.5	/experiments/knapen_AOT/AOT_stimuli/rescaled_final/0303_rv.mp4	0.0	233.9874050617218	1.0084540843963623
48	216.19947457313538	pulse	0	t		46.0	2.5	/experiments/knapen_AOT/AOT_stimuli/rescaled_final/0303_rv.mp4	0.0	234.17116904258728	
48	217.02416467666626	movie	1		279	46.0	2.5	/experiments/knapen_AOT/AOT_stimuli/rescaled_final/0303_rv.mp4	0.0	234.99585914611816	2.4921939373016357
48	217.79799008369446	pulse	1	t		46.0	2.5	/experiments/knapen_AOT/AOT_stimuli/rescaled_final/0303_rv.mp4	0.0	235.76968455314636	
48	219.39735555648804	pulse	1	t		46.0	2.5	/experiments/knapen_AOT/AOT_stimuli/rescaled_final/0303_rv.mp4	0.0	237.36905002593994	
48	219.5163586139679	fix_post	2		12	46.0	2.5	/experiments/knapen_AOT/AOT_stimuli/rescaled_final/0303_rv.mp4	0.0	237.4880530834198	0.09982824325561523
49	219.6161868572235	fix_pre	0		120	47.0	2.5	blank	1.0	237.58788132667542	1.0000672340393066
49	220.61625409126282	movie	1		285	47.0	2.5	blank	1.0	238.58794856071472	2.5003857612609863
49	220.9998574256897	pulse	1	t		47.0	2.5	blank	1.0	238.9715518951416	
49	222.61488938331604	pulse	1	t		47.0	2.5	blank	1.0	240.58658385276794	
49	223.1166398525238	fix_post	2		12	47.0	2.5	blank	1.0	241.0883343219757	0.10007476806640625
50	223.2167146205902	fix_pre	0		119	48.0	2.5	/experiments/knapen_AOT/AOT_stimuli/rescaled_final/0079_rv.mp4	0.0	241.18840909004211	1.0000340938568115
50	224.20040893554688	pulse	0	t		48.0	2.5	/experiments/knapen_AOT/AOT_stimuli/rescaled_final/0079_rv.mp4	0.0	242.17210340499878	
50	224.21674871444702	movie	1		283	48.0	2.5	/experiments/knapen_AOT/AOT_stimuli/rescaled_final/0079_rv.mp4	0.0	242.18844318389893	2.5005691051483154
50	225.7989959716797	pulse	1	t		48.0	2.5	/experiments/knapen_AOT/AOT_stimuli/rescaled_final/0079_rv.mp4	0.0	243.7706904411316	
50	226.71731781959534	fix_post	2		12	48.0	2.5	/experiments/knapen_AOT/AOT_stimuli/rescaled_final/0079_rv.mp4	0.0	244.68901228904724	0.09990763664245605
51	226.8172254562378	fix_pre	0		120	49.0	2.5	/experiments/knapen_AOT/AOT_stimuli/rescaled_final/1784_rv.mp4	0.0	244.7889199256897	1.0085339546203613
51	227.40085554122925	pulse	0	t		49.0	2.5	/experiments/knapen_AOT/AOT_stimuli/rescaled_final/1784_rv.mp4	0.0	245.37255001068115	
51	227.82575941085815	movie	1		278	49.0	2.5	/experiments/knapen_AOT/AOT_stimuli/rescaled_final/1784_rv.mp4	0.0	245.79745388031006	2.4922103881835938
51	228.9990406036377	pulse	1	t		49.0	2.5	/experiments/knapen_AOT/AOT_stimuli/rescaled_final/1784_rv.mp4	0.0	246.9707350730896	
51	230.31796979904175	fix_post	2		12	49.0	2.5	/experiments/knapen_AOT/AOT_stimuli/rescaled_final/1784_rv.mp4	0.0	248.28966426849365	0.09973287582397461
52	230.41770267486572	fix_pre	0		120	50.0	2.5	/experiments/knapen_AOT/AOT_stimuli/rescaled_final/1727_fw.mp4	0.0	248.38939714431763	1.0086145401000977
52	230.6013207435608	pulse	0	t		50.0	2.5	/experiments/knapen_AOT/AOT_stimuli/rescaled_final/1727_fw.mp4	0.0	248.5730152130127	
52	231.42631721496582	movie	1		271	50.0	2.5	/experiments/knapen_AOT/AOT_stimuli/rescaled_final/1727_fw.mp4	0.0	249.39801168441772	2.492097854614258
52	232.19961404800415	pulse	1	t		50.0	2.5	/experiments/knapen_AOT/AOT_stimuli/rescaled_final/1727_fw.mp4	0.0	250.17130851745605	
52	233.79957795143127	pulse	1	t		50.0	2.5	/experiments/knapen_AOT/AOT_stimuli/rescaled_final/1727_fw.mp4	0.0	251.77127242088318	
52	233.91841506958008	fix_post	2		12	50.0	2.5	/experiments/knapen_AOT/AOT_stimuli/rescaled_final/1727_fw.mp4	0.0	251.89010953903198	0.09996914863586426
53	234.01838421821594	fix_pre	0		120	51.0	2.5	/experiments/knapen_AOT/AOT_stimuli/rescaled_final/0968_fw.mp4	0.0	251.99007868766785	1.0083537101745605
53	235.0267379283905	movie	1		276	51.0	2.5	/experiments/knapen_AOT/AOT_stimuli/rescaled_final/0968_fw.mp4	0.0	252.9984323978424	2.4920356273651123
53	235.4010226726532	pulse	1	t		51.0	2.5	/experiments/knapen_AOT/AOT_stimuli/rescaled_final/0968_fw.mp4	0.0	253.3727171421051	
53	237.00012278556824	pulse	1	t		51.0	2.5	/experiments/knapen_AOT/AOT_stimuli/rescaled_final/0968_fw.mp4	0.0	254.97181725502014	
53	237.51877355575562	fix_post	2		12	51.0	2.5	/experiments/knapen_AOT/AOT_stimuli/rescaled_final/0968_fw.mp4	0.0	255.49046802520752	0.10001111030578613
54	237.6187846660614	fix_pre	0		119	52.0	2.5	/experiments/knapen_AOT/AOT_stimuli/rescaled_final/1761_fw.mp4	0.0	255.5904791355133	1.0003864765167236
54	238.60248279571533	pulse	0	t		52.0	2.5	/experiments/knapen_AOT/AOT_stimuli/rescaled_final/1761_fw.mp4	0.0	256.57417726516724	
54	238.61917114257812	movie	1		276	52.0	2.5	/experiments/knapen_AOT/AOT_stimuli/rescaled_final/1761_fw.mp4	0.0	256.59086561203003	2.5002999305725098
54	240.20110177993774	pulse	1	t		52.0	2.5	/experiments/knapen_AOT/AOT_stimuli/rescaled_final/1761_fw.mp4	0.0	258.17279624938965	
54	241.11947107315063	fix_post	2		12	52.0	2.5	/experiments/knapen_AOT/AOT_stimuli/rescaled_final/1761_fw.mp4	0.0	259.09116554260254	0.09985923767089844
55	241.21933031082153	fix_pre	0		120	53.0	2.5	/experiments/knapen_AOT/AOT_stimuli/rescaled_final/1040_rv.mp4	0.0	259.19102478027344	1.0084984302520752
55	241.794668674469	pulse	0	t		53.0	2.5	/experiments/knapen_AOT/AOT_stimuli/rescaled_final/1040_rv.mp4	0.0	259.7663631439209	
55	242.2278287410736	movie	1		272	53.0	2.5	/experiments/knapen_AOT/AOT_stimuli/rescaled_final/1040_rv.mp4	0.0	260.1995232105255	2.4922492504119873
55	243.39491891860962	pulse	1	t		53.0	2.5	/experiments/knapen_AOT/AOT_stimuli/rescaled_final/1040_rv.mp4	0.0	261.3666133880615	
55	244.7200779914856	fix_post	2		12	53.0	2.5	/experiments/knapen_AOT/AOT_stimuli/rescaled_final/1040_rv.mp4	0.0	262.6917724609375	0.09977364540100098
56	244.8198516368866	fix_pre	0		120	54.0	2.5	/experiments/knapen_AOT/AOT_stimuli/rescaled_final/0255_rv.mp4	0.0	262.7915461063385	1.0085155963897705
56	244.99518013000488	pulse	0	t		54.0	2.5	/experiments/knapen_AOT/AOT_stimuli/rescaled_final/0255_rv.mp4	0.0	262.9668745994568	
56	245.82836723327637	movie	1		280	54.0	2.5	/experiments/knapen_AOT/AOT_stimuli/rescaled_final/0255_rv.mp4	0.0	263.80006170272827	2.4922831058502197
56	246.59533262252808	pulse	1	t		54.0	2.5	/experiments/knapen_AOT/AOT_stimuli/rescaled_final/0255_rv.mp4	0.0	264.56702709198	
56	248.19559860229492	pulse	1	t		54.0	2.5	/experiments/knapen_AOT/AOT_stimuli/rescaled_final/0255_rv.mp4	0.0	266.1672930717468	
56	248.3206503391266	fix_post	2		12	54.0	2.5	/experiments/knapen_AOT/AOT_stimuli/rescaled_final/0255_rv.mp4	0.0	266.2923448085785	0.09975790977478027
57	248.42040824890137	fix_pre	0		120	55.0	2.5	/experiments/knapen_AOT/AOT_stimuli/rescaled_final/2094_rv.mp4	0.0	266.39210271835327	1.0085031986236572
57	249.42891144752502	movie	1		262	55.0	2.5	/experiments/knapen_AOT/AOT_stimuli/rescaled_final/2094_rv.mp4	0.0	267.40060591697693	2.4922733306884766
57	249.79424023628235	pulse	1	t		55.0	2.5	/experiments/knapen_AOT/AOT_stimuli/rescaled_final/2094_rv.mp4	0.0	267.76593470573425	
57	251.3939402103424	pulse	1	t		55.0	2.5	/experiments/knapen_AOT/AOT_stimuli/rescaled_final/2094_rv.mp4	0.0	269.3656346797943	
57	251.9211847782135	fix_post	2		12	55.0	2.5	/experiments/knapen_AOT/AOT_stimuli/rescaled_final/2094_rv.mp4	0.0	269.8928792476654	0.09980964660644531
58	252.02099442481995	fix_pre	0		118	56.0	2.5	blank	1.0	269.99268889427185	0.9834473133087158
58	252.99633598327637	pulse	0	t		56.0	2.5	blank	1.0	270.96803045272827	
58	253.00444173812866	movie	1		301	56.0	2.5	blank	1.0	270.97613620758057	2.508730411529541
58	254.59654664993286	pulse	1	t		56.0	2.5	blank	1.0	272.56824111938477	
58	255.5131721496582	fix_post	2		12	56.0	2.5	blank	1.0	273.4848666191101	0.0999915599822998
59	255.6131637096405	fix_pre	0		120	57.0	2.5	/experiments/knapen_AOT/AOT_stimuli/rescaled_final/2042_rv.mp4	0.0	273.5848581790924	1.008497714996338
59	256.1967601776123	pulse	0	t		57.0	2.5	/experiments/knapen_AOT/AOT_stimuli/rescaled_final/2042_rv.mp4	0.0	274.1684546470642	
59	256.62166142463684	movie	1		274	57.0	2.5	/experiments/knapen_AOT/AOT_stimuli/rescaled_final/2042_rv.mp4	0.0	274.59335589408875	2.492044687271118
59	257.7971878051758	pulse	1	t		57.0	2.5	/experiments/knapen_AOT/AOT_stimuli/rescaled_final/2042_rv.mp4	0.0	275.7688822746277	
59	259.11370611190796	fix_post	2		12	57.0	2.5	/experiments/knapen_AOT/AOT_stimuli/rescaled_final/2042_rv.mp4	0.0	277.08540058135986	0.0999758243560791
60	259.21368193626404	fix_pre	0		119	58.0	2.5	/experiments/knapen_AOT/AOT_stimuli/rescaled_final/0510_fw.mp4	0.0	277.18537640571594	1.0085465908050537
60	259.39767050743103	pulse	0	t		58.0	2.5	/experiments/knapen_AOT/AOT_stimuli/rescaled_final/0510_fw.mp4	0.0	277.36936497688293	
60	260.2222285270691	movie	1		277	58.0	2.5	/experiments/knapen_AOT/AOT_stimuli/rescaled_final/0510_fw.mp4	0.0	278.193922996521	2.492020606994629
60	260.9972314834595	pulse	1	t		58.0	2.5	/experiments/knapen_AOT/AOT_stimuli/rescaled_final/0510_fw.mp4	0.0	278.9689259529114	
60	262.5956587791443	pulse	1	t		58.0	2.5	/experiments/knapen_AOT/AOT_stimuli/rescaled_final/0510_fw.mp4	0.0	280.5673532485962	
60	262.7142491340637	fix_post	2		12	58.0	2.5	/experiments/knapen_AOT/AOT_stimuli/rescaled_final/0510_fw.mp4	0.0	280.6859436035156	0.10006332397460938
61	262.81431245803833	fix_pre	0		120	59.0	2.5	/experiments/knapen_AOT/AOT_stimuli/rescaled_final/0761_rv.mp4	0.0	280.78600692749023	1.0085844993591309
61	263.82289695739746	movie	1		276	59.0	2.5	/experiments/knapen_AOT/AOT_stimuli/rescaled_final/0761_rv.mp4	0.0	281.79459142684937	2.4919145107269287
61	264.19609689712524	pulse	1	t		59.0	2.5	/experiments/knapen_AOT/AOT_stimuli/rescaled_final/0761_rv.mp4	0.0	282.16779136657715	
61	265.79780101776123	pulse	1	t		59.0	2.5	/experiments/knapen_AOT/AOT_stimuli/rescaled_final/0761_rv.mp4	0.0	283.76949548721313	
61	266.3148114681244	fix_post	2		12	59.0	2.5	/experiments/knapen_AOT/AOT_stimuli/rescaled_final/0761_rv.mp4	0.0	284.2865059375763	0.09997344017028809
62	266.4147849082947	fix_pre	0		119	60.0	2.5	/experiments/knapen_AOT/AOT_stimuli/rescaled_final/1439_rv.mp4	0.0	284.3864793777466	1.0001451969146729
62	267.39880204200745	pulse	0	t		60.0	2.5	/experiments/knapen_AOT/AOT_stimuli/rescaled_final/1439_rv.mp4	0.0	285.37049651145935	
62	267.41493010520935	movie	1		285	60.0	2.5	/experiments/knapen_AOT/AOT_stimuli/rescaled_final/1439_rv.mp4	0.0	285.38662457466125	2.5006372928619385
62	268.9972529411316	pulse	1	t		60.0	2.5	/experiments/knapen_AOT/AOT_stimuli/rescaled_final/1439_rv.mp4	0.0	286.9689474105835	
62	269.9155673980713	fix_post	2		12	60.0	2.5	/experiments/knapen_AOT/AOT_stimuli/rescaled_final/1439_rv.mp4	0.0	287.8872618675232	0.09977006912231445
63	270.0153374671936	fix_pre	0		120	61.0	2.5	/experiments/knapen_AOT/AOT_stimuli/rescaled_final/0442_fw.mp4	0.0	287.9870319366455	1.0084869861602783
63	270.5990836620331	pulse	0	t		61.0	2.5	/experiments/knapen_AOT/AOT_stimuli/rescaled_final/0442_fw.mp4	0.0	288.570778131485	
63	271.0238244533539	movie	1		275	61.0	2.5	/experiments/knapen_AOT/AOT_stimuli/rescaled_final/0442_fw.mp4	0.0	288.9955189228058	2.49200439453125
63	272.19726395606995	pulse	1	t		61.0	2.5	/experiments/knapen_AOT/AOT_stimuli/rescaled_final/0442_fw.mp4	0.0	290.16895842552185	
63	273.51582884788513	fix_post	2		12	61.0	2.5	/experiments/knapen_AOT/AOT_stimuli/rescaled_final/0442_fw.mp4	0.0	291.48752331733704	0.10002827644348145
64	273.6158571243286	fix_pre	0		120	62.0	2.5	blank	1.0	291.5875515937805	1.0002198219299316
64	273.7994558811188	pulse	0	t		62.0	2.5	blank	1.0	291.7711503505707	
64	274.61607694625854	movie	1		300	62.0	2.5	blank	1.0	292.58777141571045	2.5003368854522705
64	275.3996436595917	pulse	1	t		62.0	2.5	blank	1.0	293.3713381290436	
64	276.99993109703064	pulse	1	t		62.0	2.5	blank	1.0	294.97162556648254	
64	277.1164138317108	fix_post	2		12	62.0	2.5	blank	1.0	295.0881083011627	0.10000967979431152
65	277.2164235115051	fix_pre	0		120	63.0	2.5	/experiments/knapen_AOT/AOT_stimuli/rescaled_final/0049_fw.mp4	0.0	295.18811798095703	1.0084733963012695
65	278.2248969078064	movie	1		287	63.0	2.5	/experiments/knapen_AOT/AOT_stimuli/rescaled_final/0049_fw.mp4	0.0	296.1965913772583	2.4920992851257324
65	278.59884333610535	pulse	1	t		63.0	2.5	/experiments/knapen_AOT/AOT_stimuli/rescaled_final/0049_fw.mp4	0.0	296.57053780555725	
65	280.1983160972595	pulse	1	t		63.0	2.5	/experiments/knapen_AOT/AOT_stimuli/rescaled_final/0049_fw.mp4	0.0	298.1700105667114	
65	280.71699619293213	fix_post	2		12	63.0	2.5	/experiments/knapen_AOT/AOT_stimuli/rescaled_final/0049_fw.mp4	0.0	298.68869066238403	0.09998798370361328
66	280.81698417663574	fix_pre	0		119	64.0	2.5	/experiments/knapen_AOT/AOT_stimuli/rescaled_final/1081_rv.mp4	0.0	298.78867864608765	1.0001261234283447
66	281.80061054229736	pulse	0	t		64.0	2.5	/experiments/knapen_AOT/AOT_stimuli/rescaled_final/1081_rv.mp4	0.0	299.77230501174927	
66	281.8171103000641	movie	1		281	64.0	2.5	/experiments/knapen_AOT/AOT_stimuli/rescaled_final/1081_rv.mp4	0.0	299.788804769516	2.5003676414489746
66	283.3994994163513	pulse	1	t		64.0	2.5	/experiments/knapen_AOT/AOT_stimuli/rescaled_final/1081_rv.mp4	0.0	301.3711938858032	
66	284.31747794151306	fix_post	2		12	64.0	2.5	/experiments/knapen_AOT/AOT_stimuli/rescaled_final/1081_rv.mp4	0.0	302.28917241096497	0.10008382797241211
67	284.4175617694855	fix_pre	0		120	65.0	2.5	/experiments/knapen_AOT/AOT_stimuli/rescaled_final/2080_fw.mp4	0.0	302.3892562389374	1.0086512565612793
67	285.00115609169006	pulse	0	t		65.0	2.5	/experiments/knapen_AOT/AOT_stimuli/rescaled_final/2080_fw.mp4	0.0	302.97285056114197	
67	285.42621302604675	movie	1		284	65.0	2.5	/experiments/knapen_AOT/AOT_stimuli/rescaled_final/2080_fw.mp4	0.0	303.39790749549866	2.4918203353881836
67	286.6003038883209	pulse	1	t		65.0	2.5	/experiments/knapen_AOT/AOT_stimuli/rescaled_final/2080_fw.mp4	0.0	304.5719983577728	
67	287.91803336143494	fix_post	2		12	65.0	2.5	/experiments/knapen_AOT/AOT_stimuli/rescaled_final/2080_fw.mp4	0.0	305.88972783088684	0.09999251365661621
68	288.01802587509155	fix_pre	0		120	66.0	2.5	/experiments/knapen_AOT/AOT_stimuli/rescaled_final/0968_rv.mp4	0.0	305.98972034454346	1.0087265968322754
68	288.2015845775604	pulse	0	t		66.0	2.5	/experiments/knapen_AOT/AOT_stimuli/rescaled_final/0968_rv.mp4	0.0	306.17327904701233	
68	289.0267524719238	movie	1		261	66.0	2.5	/experiments/knapen_AOT/AOT_stimuli/rescaled_final/0968_rv.mp4	0.0	306.99844694137573	2.4920101165771484
68	289.8020443916321	pulse	1	t		66.0	2.5	/experiments/knapen_AOT/AOT_stimuli/rescaled_final/0968_rv.mp4	0.0	307.773738861084	
68	291.4000287055969	pulse	1	t		66.0	2.5	/experiments/knapen_AOT/AOT_stimuli/rescaled_final/0968_rv.mp4	0.0	309.3717231750488	
68	291.518762588501	fix_post	2		12	66.0	2.5	/experiments/knapen_AOT/AOT_stimuli/rescaled_final/0968_rv.mp4	0.0	309.4904570579529	0.09981441497802734
69	291.618577003479	fix_pre	0		120	67.0	2.5	/experiments/knapen_AOT/AOT_stimuli/rescaled_final/1549_rv.mp4	0.0	309.5902714729309	1.0086102485656738
69	292.6271872520447	movie	1		262	67.0	2.5	/experiments/knapen_AOT/AOT_stimuli/rescaled_final/1549_rv.mp4	0.0	310.5988817214966	2.491905450820923
69	293.0027611255646	pulse	1	t		67.0	2.5	/experiments/knapen_AOT/AOT_stimuli/rescaled_final/1549_rv.mp4	0.0	310.9744555950165	
69	294.6027445793152	pulse	1	t		67.0	2.5	/experiments/knapen_AOT/AOT_stimuli/rescaled_final/1549_rv.mp4	0.0	312.5744390487671	
69	295.1190927028656	fix_post	2		12	67.0	2.5	/experiments/knapen_AOT/AOT_stimuli/rescaled_final/1549_rv.mp4	0.0	313.0907871723175	0.10013937950134277
70	295.21923208236694	fix_pre	0		118	68.0	2.5	/experiments/knapen_AOT/AOT_stimuli/rescaled_final/0863_rv.mp4	0.0	313.19092655181885	0.991753339767456
70	296.19446086883545	pulse	0	t		68.0	2.5	/experiments/knapen_AOT/AOT_stimuli/rescaled_final/0863_rv.mp4	0.0	314.16615533828735	
70	296.2109854221344	movie	1		268	68.0	2.5	/experiments/knapen_AOT/AOT_stimuli/rescaled_final/0863_rv.mp4	0.0	314.1826798915863	2.5007991790771484
70	297.8035261631012	pulse	1	t		68.0	2.5	/experiments/knapen_AOT/AOT_stimuli/rescaled_final/0863_rv.mp4	0.0	315.7752206325531	
70	298.71178460121155	fix_post	2		12	68.0	2.5	/experiments/knapen_AOT/AOT_stimuli/rescaled_final/0863_rv.mp4	0.0	316.68347907066345	0.09956622123718262
71	298.81135082244873	fix_pre	0		120	69.0	2.5	/experiments/knapen_AOT/AOT_stimuli/rescaled_final/0421_fw.mp4	0.0	316.78304529190063	1.0085439682006836
71	299.3949456214905	pulse	0	t		69.0	2.5	/experiments/knapen_AOT/AOT_stimuli/rescaled_final/0421_fw.mp4	0.0	317.3666400909424	
71	299.8198947906494	movie	1		257	69.0	2.5	/experiments/knapen_AOT/AOT_stimuli/rescaled_final/0421_fw.mp4	0.0	317.7915892601013	2.4921181201934814
71	300.99561953544617	pulse	1	t		69.0	2.5	/experiments/knapen_AOT/AOT_stimuli/rescaled_final/0421_fw.mp4	0.0	318.96731400489807	
71	302.3120129108429	fix_post	2		12	69.0	2.5	/experiments/knapen_AOT/AOT_stimuli/rescaled_final/0421_fw.mp4	0.0	320.2837073802948	0.10020685195922852
72	302.4122197628021	fix_pre	0		120	70.0	2.5	blank	1.0	320.383914232254	0.9997954368591309
72	302.5954258441925	pulse	0	t		70.0	2.5	blank	1.0	320.5671203136444	
72	303.41201519966125	movie	1		300	70.0	2.5	blank	1.0	321.38370966911316	2.500380039215088
72	304.19584488868713	pulse	1	t		70.0	2.5	blank	1.0	322.16753935813904	
72	305.79594898223877	pulse	1	t		70.0	2.5	blank	1.0	323.7676434516907	
72	305.91239523887634	fix_post	2		12	70.0	2.5	blank	1.0	323.88408970832825	0.10012555122375488
73	306.0125207901001	fix_pre	0		120	71.0	2.5	/experiments/knapen_AOT/AOT_stimuli/rescaled_final/2010_rv.mp4	0.0	323.984215259552	1.0083897113800049
73	307.0209105014801	movie	1		268	71.0	2.5	/experiments/knapen_AOT/AOT_stimuli/rescaled_final/2010_rv.mp4	0.0	324.992604970932	2.4923770427703857
73	307.3953604698181	pulse	1	t		71.0	2.5	/experiments/knapen_AOT/AOT_stimuli/rescaled_final/2010_rv.mp4	0.0	325.36705493927	
73	308.9960503578186	pulse	1	t		71.0	2.5	/experiments/knapen_AOT/AOT_stimuli/rescaled_final/2010_rv.mp4	0.0	326.9677448272705	
73	309.5132875442505	fix_post	2		12	71.0	2.5	/experiments/knapen_AOT/AOT_stimuli/rescaled_final/2010_rv.mp4	0.0	327.4849820137024	0.0997917652130127
74	309.6130793094635	fix_pre	0		119	72.0	2.5	/experiments/knapen_AOT/AOT_stimuli/rescaled_final/1727_rv.mp4	0.0	327.5847737789154	1.008500576019287
74	310.5966486930847	pulse	0	t		72.0	2.5	/experiments/knapen_AOT/AOT_stimuli/rescaled_final/1727_rv.mp4	0.0	328.5683431625366	
74	310.6215798854828	movie	1		266	72.0	2.5	/experiments/knapen_AOT/AOT_stimuli/rescaled_final/1727_rv.mp4	0.0	328.5932743549347	2.492053270339966
74	312.1966860294342	pulse	1	t		72.0	2.5	/experiments/knapen_AOT/AOT_stimuli/rescaled_final/1727_rv.mp4	0.0	330.1683804988861	
74	313.11363315582275	fix_post	2		12	72.0	2.5	/experiments/knapen_AOT/AOT_stimuli/rescaled_final/1727_rv.mp4	0.0	331.08532762527466	0.0999746322631836
75	313.21360778808594	fix_pre	0		120	73.0	2.5	/experiments/knapen_AOT/AOT_stimuli/rescaled_final/2094_rv.mp4	0.0	331.18530225753784	1.0084879398345947
75	313.79717445373535	pulse	0	t		73.0	2.5	/experiments/knapen_AOT/AOT_stimuli/rescaled_final/2094_rv.mp4	0.0	331.76886892318726	
75	314.22209572792053	movie	1		282	73.0	2.5	/experiments/knapen_AOT/AOT_stimuli/rescaled_final/2094_rv.mp4	0.0	332.19379019737244	2.4920008182525635
75	315.3955202102661	pulse	1	t		73.0	2.5	/experiments/knapen_AOT/AOT_stimuli/rescaled_final/2094_rv.mp4	0.0	333.367214679718	
75	316.7140965461731	fix_post	2		12	73.0	2.5	/experiments/knapen_AOT/AOT_stimuli/rescaled_final/2094_rv.mp4	0.0	334.685791015625	0.09996390342712402
76	316.8140604496002	fix_pre	0		120	74.0	2.5	/experiments/knapen_AOT/AOT_stimuli/rescaled_final/1245_fw.mp4	0.0	334.7857549190521	1.0085172653198242
76	316.9975664615631	pulse	0	t		74.0	2.5	/experiments/knapen_AOT/AOT_stimuli/rescaled_final/1245_fw.mp4	0.0	334.969260931015	
76	317.82257771492004	movie	1		279	74.0	2.5	/experiments/knapen_AOT/AOT_stimuli/rescaled_final/1245_fw.mp4	0.0	335.79427218437195	2.492042303085327
76	318.59571599960327	pulse	1	t		74.0	2.5	/experiments/knapen_AOT/AOT_stimuli/rescaled_final/1245_fw.mp4	0.0	336.5674104690552	
76	320.19860553741455	pulse	1	t		74.0	2.5	/experiments/knapen_AOT/AOT_stimuli/rescaled_final/1245_fw.mp4	0.0	338.17030000686646	
76	320.31462001800537	fix_post	2		12	74.0	2.5	/experiments/knapen_AOT/AOT_stimuli/rescaled_final/1245_fw.mp4	0.0	338.2863144874573	0.0999457836151123
77	320.4145658016205	fix_pre	0		120	75.0	2.5	/experiments/knapen_AOT/AOT_stimuli/rescaled_final/0274_fw.mp4	0.0	338.3862602710724	1.0085256099700928
77	321.4230914115906	movie	1		270	75.0	2.5	/experiments/knapen_AOT/AOT_stimuli/rescaled_final/0274_fw.mp4	0.0	339.3947858810425	2.4922375679016113
77	321.7986786365509	pulse	1	t		75.0	2.5	/experiments/knapen_AOT/AOT_stimuli/rescaled_final/0274_fw.mp4	0.0	339.7703731060028	
77	323.3968424797058	pulse	1	t		75.0	2.5	/experiments/knapen_AOT/AOT_stimuli/rescaled_final/0274_fw.mp4	0.0	341.3685369491577	
77	323.9153289794922	fix_post	2		12	75.0	2.5	/experiments/knapen_AOT/AOT_stimuli/rescaled_final/0274_fw.mp4	0.0	341.8870234489441	0.0997781753540039
78	324.0151071548462	fix_pre	0		119	76.0	2.5	/experiments/knapen_AOT/AOT_stimuli/rescaled_final/1882_fw.mp4	0.0	341.9868016242981	1.0002672672271729
78	324.99884557724	pulse	0	t		76.0	2.5	/experiments/knapen_AOT/AOT_stimuli/rescaled_final/1882_fw.mp4	0.0	342.9705400466919	
78	325.01537442207336	movie	1		275	76.0	2.5	/experiments/knapen_AOT/AOT_stimuli/rescaled_final/1882_fw.mp4	0.0	342.98706889152527	2.5004501342773438
78	326.59953355789185	pulse	1	t		76.0	2.5	/experiments/knapen_AOT/AOT_stimuli/rescaled_final/1882_fw.mp4	0.0	344.57122802734375	
78	327.5158245563507	fix_post	2		12	76.0	2.5	/experiments/knapen_AOT/AOT_stimuli/rescaled_final/1882_fw.mp4	0.0	345.4875190258026	0.09990668296813965
79	327.61573123931885	fix_pre	0		120	77.0	2.5	blank	1.0	345.58742570877075	1.000101089477539
79	328.1994438171387	pulse	0	t		77.0	2.5	blank	1.0	346.1711382865906	
79	328.6158323287964	movie	1		300	77.0	2.5	blank	1.0	346.5875267982483	2.5003950595855713
79	329.7995240688324	pulse	1	t		77.0	2.5	blank	1.0	347.7712185382843	
79	331.11622738838196	fix_post	2		12	77.0	2.5	blank	1.0	349.08792185783386	0.09998488426208496
80	331.21621227264404	fix_pre	0		120	78.0	2.5	/experiments/knapen_AOT/AOT_stimuli/rescaled_final/2030_rv.mp4	0.0	349.18790674209595	1.008491039276123
80	331.399742603302	pulse	0	t		78.0	2.5	/experiments/knapen_AOT/AOT_stimuli/rescaled_final/2030_rv.mp4	0.0	349.3714370727539	
80	332.22470331192017	movie	1		284	78.0	2.5	/experiments/knapen_AOT/AOT_stimuli/rescaled_final/2030_rv.mp4	0.0	350.19639778137207	2.492414951324463
80	332.99822878837585	pulse	1	t		78.0	2.5	/experiments/knapen_AOT/AOT_stimuli/rescaled_final/2030_rv.mp4	0.0	350.96992325782776	
80	334.598459482193	pulse	1	t		78.0	2.5	/experiments/knapen_AOT/AOT_stimuli/rescaled_final/2030_rv.mp4	0.0	352.5701539516449	
80	334.71711826324463	fix_post	2		12	78.0	2.5	/experiments/knapen_AOT/AOT_stimuli/rescaled_final/2030_rv.mp4	0.0	352.68881273269653	0.09960579872131348
81	334.81672406196594	fix_pre	0		120	79.0	2.5	/experiments/knapen_AOT/AOT_stimuli/rescaled_final/1190_fw.mp4	0.0	352.78841853141785	1.008498191833496
81	335.82522225379944	movie	1		274	79.0	2.5	/experiments/knapen_AOT/AOT_stimuli/rescaled_final/1190_fw.mp4	0.0	353.79691672325134	2.4922845363616943
81	336.1987359523773	pulse	1	t		79.0	2.5	/experiments/knapen_AOT/AOT_stimuli/rescaled_final/1190_fw.mp4	0.0	354.1704304218292	
81	337.7983570098877	pulse	1	t		79.0	2.5	/experiments/knapen_AOT/AOT_stimuli/rescaled_final/1190_fw.mp4	0.0	355.7700514793396	
81	338.31750679016113	fix_post	2		12	79.0	2.5	/experiments/knapen_AOT/AOT_stimuli/rescaled_final/1190_fw.mp4	0.0	356.28920125961304	0.09998822212219238
82	338.4174950122833	fix_pre	0		119	80.0	2.5	/experiments/knapen_AOT/AOT_stimuli/rescaled_final/0095_rv.mp4	0.0	356.38918948173523	0.9999644756317139
82	339.4009909629822	pulse	0	t		80.0	2.5	/experiments/knapen_AOT/AOT_stimuli/rescaled_final/0095_rv.mp4	0.0	357.3726854324341	
82	339.41745948791504	movie	1		263	80.0	2.5	/experiments/knapen_AOT/AOT_stimuli/rescaled_final/0095_rv.mp4	0.0	357.38915395736694	2.5005452632904053
82	340.99981236457825	pulse	1	t		80.0	2.5	/experiments/knapen_AOT/AOT_stimuli/rescaled_final/0095_rv.mp4	0.0	358.97150683403015	
82	341.91800475120544	fix_post	2		12	80.0	2.5	/experiments/knapen_AOT/AOT_stimuli/rescaled_final/0095_rv.mp4	0.0	359.88969922065735	0.09981036186218262
83	342.0178151130676	fix_pre	0		120	81.0	2.5	/experiments/knapen_AOT/AOT_stimuli/rescaled_final/1967_fw.mp4	0.0	359.98950958251953	1.008958101272583
83	342.6015853881836	pulse	0	t		81.0	2.5	/experiments/knapen_AOT/AOT_stimuli/rescaled_final/1967_fw.mp4	0.0	360.5732798576355	
83	343.0267732143402	movie	1		260	81.0	2.5	/experiments/knapen_AOT/AOT_stimuli/rescaled_final/1967_fw.mp4	0.0	360.9984676837921	2.491727590560913
83	344.19978070259094	pulse	1	t		81.0	2.5	/experiments/knapen_AOT/AOT_stimuli/rescaled_final/1967_fw.mp4	0.0	362.17147517204285	
83	345.5185008049011	fix_post	2		12	81.0	2.5	/experiments/knapen_AOT/AOT_stimuli/rescaled_final/1967_fw.mp4	0.0	363.490195274353	0.09989428520202637
84	345.61839509010315	fix_pre	0		119	82.0	2.5	blank	1.0	363.59008955955505	1.0001108646392822
84	345.8018958568573	pulse	0	t		82.0	2.5	blank	1.0	363.7735903263092	
84	346.61850595474243	movie	1		300	82.0	2.5	blank	1.0	364.59020042419434	2.500370502471924
84	347.3952624797821	pulse	1	t		82.0	2.5	blank	1.0	365.366956949234	
84	349.002610206604	pulse	1	t		82.0	2.5	blank	1.0	366.9743046760559	
84	349.11887645721436	fix_post	2		12	82.0	2.5	blank	1.0	367.09057092666626	0.10005378723144531
85	349.2189302444458	fix_pre	0		120	83.0	2.5	/experiments/knapen_AOT/AOT_stimuli/rescaled_final/0983_rv.mp4	0.0	367.1906247138977	1.0084714889526367
85	350.22740173339844	movie	1		270	83.0	2.5	/experiments/knapen_AOT/AOT_stimuli/rescaled_final/0983_rv.mp4	0.0	368.19909620285034	2.492220163345337
85	350.60209798812866	pulse	1	t		83.0	2.5	/experiments/knapen_AOT/AOT_stimuli/rescaled_final/0983_rv.mp4	0.0	368.57379245758057	
85	352.19512844085693	pulse	1	t		83.0	2.5	/experiments/knapen_AOT/AOT_stimuli/rescaled_final/0983_rv.mp4	0.0	370.16682291030884	
85	352.7196218967438	fix_post	2		12	83.0	2.5	/experiments/knapen_AOT/AOT_stimuli/rescaled_final/0983_rv.mp4	0.0	370.6913163661957	0.12481474876403809
87	352.8444366455078	stim	0		1712					370.8161311149597	14.268841981887817
87	353.79495334625244	pulse	0	t						371.76664781570435	
87	355.3950865268707	pulse	0	t						373.36678099632263	
87	356.9952745437622	pulse	0	t						374.9669690132141	
87	358.5956048965454	pulse	0	t						376.5672993659973	
87	360.19573736190796	pulse	0	t						378.16743183135986	
87	361.7959952354431	pulse	0	t						379.767689704895	
87	363.3965640068054	pulse	0	t						381.3682584762573	
87	364.99662804603577	pulse	0	t						382.96832251548767	
87	366.5967216491699	pulse	0	t						384.5684161186218	
