trial_nr	onset	event_type	phase	response	nr_frames	movie_index	movie_duration	movie_file	blank	onset_abs	duration
0	0.2083580493927002	stim	0		6124					82.8418800830841	51.074252128601074
0	51.274511098861694	response	0	space						133.9080331325531	
1	51.282610177993774	stim	0		4901					133.91613221168518	40.8520028591156
1	92.12229800224304	pulse	0	t						174.75582003593445	
1	92.13461303710938	stim	1		1714					174.76813507080078	14.297951936721802
1	93.72253608703613	pulse	1	t						176.35605812072754	
1	95.3153920173645	pulse	1	t						177.9489140510559	
1	96.91558003425598	pulse	1	t						179.5491020679474	
1	98.5156180858612	pulse	1	t						181.1491401195526	
1	100.1159610748291	pulse	1	t						182.7494831085205	
1	101.71526312828064	pulse	1	t						184.34878516197205	
1	103.31550312042236	pulse	1	t						185.94902515411377	
1	104.91573095321655	pulse	1	t						187.54925298690796	
2	106.43256497383118	fix_pre	0		11	0.0	2.5	/experiments/knapen_AOT/AOT_stimuli/rescaled_final/1790_rv.mp4	0.0	189.06608700752258	0.11676716804504395
2	106.51615405082703	pulse	0	t		0.0	2.5	/experiments/knapen_AOT/AOT_stimuli/rescaled_final/1790_rv.mp4	0.0	189.14967608451843	
2	106.54933214187622	movie	1		239	0.0	2.5	/experiments/knapen_AOT/AOT_stimuli/rescaled_final/1790_rv.mp4	0.0	189.18285417556763	2.4835970401763916
2	108.11777806282043	pulse	1	t		0.0	2.5	/experiments/knapen_AOT/AOT_stimuli/rescaled_final/1790_rv.mp4	0.0	190.75130009651184	
2	109.03292918205261	fix_post	2		12	0.0	2.5	/experiments/knapen_AOT/AOT_stimuli/rescaled_final/1790_rv.mp4	0.0	191.66645121574402	0.09999799728393555
3	109.13292717933655	fix_pre	0		120	1.0	2.5	/experiments/knapen_AOT/AOT_stimuli/rescaled_final/0539_rv.mp4	0.0	191.76644921302795	1.0001699924468994
3	109.71656703948975	pulse	0	t		1.0	2.5	/experiments/knapen_AOT/AOT_stimuli/rescaled_final/0539_rv.mp4	0.0	192.35008907318115	
3	110.13309717178345	movie	1		244	1.0	2.5	/experiments/knapen_AOT/AOT_stimuli/rescaled_final/0539_rv.mp4	0.0	192.76661920547485	2.500365972518921
3	111.31680798530579	pulse	1	t		1.0	2.5	/experiments/knapen_AOT/AOT_stimuli/rescaled_final/0539_rv.mp4	0.0	193.9503300189972	
3	112.63346314430237	fix_post	2		12	1.0	2.5	/experiments/knapen_AOT/AOT_stimuli/rescaled_final/0539_rv.mp4	0.0	195.26698517799377	0.10005402565002441
4	112.73351716995239	fix_pre	0		120	2.0	2.5	/experiments/knapen_AOT/AOT_stimuli/rescaled_final/0792_fw.mp4	0.0	195.3670392036438	1.000108003616333
4	112.9171199798584	pulse	0	t		2.0	2.5	/experiments/knapen_AOT/AOT_stimuli/rescaled_final/0792_fw.mp4	0.0	195.5506420135498	
4	113.73362517356873	movie	1		243	2.0	2.5	/experiments/knapen_AOT/AOT_stimuli/rescaled_final/0792_fw.mp4	0.0	196.36714720726013	2.5003550052642822
4	114.51729702949524	pulse	1	t		2.0	2.5	/experiments/knapen_AOT/AOT_stimuli/rescaled_final/0792_fw.mp4	0.0	197.15081906318665	
4	116.11753702163696	pulse	1	t		2.0	2.5	/experiments/knapen_AOT/AOT_stimuli/rescaled_final/0792_fw.mp4	0.0	198.75105905532837	
4	116.23398017883301	fix_post	2		12	2.0	2.5	/experiments/knapen_AOT/AOT_stimuli/rescaled_final/0792_fw.mp4	0.0	198.8675022125244	0.10001397132873535
5	116.33399415016174	fix_pre	0		120	3.0	2.5	/experiments/knapen_AOT/AOT_stimuli/rescaled_final/0786_fw.mp4	0.0	198.96751618385315	1.0001888275146484
5	117.33418297767639	movie	1		244	3.0	2.5	/experiments/knapen_AOT/AOT_stimuli/rescaled_final/0786_fw.mp4	0.0	199.9677050113678	2.5003340244293213
5	117.71837711334229	pulse	1	t		3.0	2.5	/experiments/knapen_AOT/AOT_stimuli/rescaled_final/0786_fw.mp4	0.0	200.3518991470337	
5	119.31807708740234	pulse	1	t		3.0	2.5	/experiments/knapen_AOT/AOT_stimuli/rescaled_final/0786_fw.mp4	0.0	201.95159912109375	
5	119.83451700210571	fix_post	2		12	3.0	2.5	/experiments/knapen_AOT/AOT_stimuli/rescaled_final/0786_fw.mp4	0.0	202.46803903579712	0.10005307197570801
6	119.93457007408142	fix_pre	0		119	4.0	2.5	/experiments/knapen_AOT/AOT_stimuli/rescaled_final/1640_rv.mp4	0.0	202.56809210777283	0.9918038845062256
6	120.91827702522278	pulse	0	t		4.0	2.5	/experiments/knapen_AOT/AOT_stimuli/rescaled_final/1640_rv.mp4	0.0	203.55179905891418	
6	120.92637395858765	movie	1		244	4.0	2.5	/experiments/knapen_AOT/AOT_stimuli/rescaled_final/1640_rv.mp4	0.0	203.55989599227905	2.508690118789673
6	122.51980113983154	pulse	1	t		4.0	2.5	/experiments/knapen_AOT/AOT_stimuli/rescaled_final/1640_rv.mp4	0.0	205.15332317352295	
6	123.43506407737732	fix_post	2		12	4.0	2.5	/experiments/knapen_AOT/AOT_stimuli/rescaled_final/1640_rv.mp4	0.0	206.06858611106873	0.10006403923034668
7	123.53512811660767	fix_pre	0		120	5.0	2.5	/experiments/knapen_AOT/AOT_stimuli/rescaled_final/0100_fw.mp4	0.0	206.16865015029907	1.000126838684082
7	124.11865711212158	pulse	0	t		5.0	2.5	/experiments/knapen_AOT/AOT_stimuli/rescaled_final/0100_fw.mp4	0.0	206.752179145813	
7	124.53525495529175	movie	1		245	5.0	2.5	/experiments/knapen_AOT/AOT_stimuli/rescaled_final/0100_fw.mp4	0.0	207.16877698898315	2.5004451274871826
7	125.71902704238892	pulse	1	t		5.0	2.5	/experiments/knapen_AOT/AOT_stimuli/rescaled_final/0100_fw.mp4	0.0	208.35254907608032	
7	127.03570008277893	fix_post	2		12	5.0	2.5	/experiments/knapen_AOT/AOT_stimuli/rescaled_final/0100_fw.mp4	0.0	209.66922211647034	0.09996795654296875
8	127.1356680393219	fix_pre	0		120	6.0	2.5	blank	1.0	209.7691900730133	1.0001001358032227
8	127.3192880153656	pulse	0	t		6.0	2.5	blank	1.0	209.952810049057	
8	128.13576817512512	movie	1		297	6.0	2.5	blank	1.0	210.76929020881653	2.500403881072998
8	128.91948413848877	pulse	1	t		6.0	2.5	blank	1.0	211.55300617218018	
8	130.51966214179993	pulse	1	t		6.0	2.5	blank	1.0	213.15318417549133	
8	130.63617205619812	fix_post	2		12	6.0	2.5	blank	1.0	213.26969408988953	0.0999760627746582
9	130.73614811897278	fix_pre	0		120	7.0	2.5	/experiments/knapen_AOT/AOT_stimuli/rescaled_final/0197_fw.mp4	0.0	213.36967015266418	1.0001580715179443
9	131.73630619049072	movie	1		243	7.0	2.5	/experiments/knapen_AOT/AOT_stimuli/rescaled_final/0197_fw.mp4	0.0	214.36982822418213	2.492065906524658
9	132.12057518959045	pulse	1	t		7.0	2.5	/experiments/knapen_AOT/AOT_stimuli/rescaled_final/0197_fw.mp4	0.0	214.75409722328186	
9	133.7202479839325	pulse	1	t		7.0	2.5	/experiments/knapen_AOT/AOT_stimuli/rescaled_final/0197_fw.mp4	0.0	216.3537700176239	
9	134.22837209701538	fix_post	2		12	7.0	2.5	/experiments/knapen_AOT/AOT_stimuli/rescaled_final/0197_fw.mp4	0.0	216.8618941307068	0.1000070571899414
10	134.32837915420532	fix_pre	0		120	8.0	2.5	/experiments/knapen_AOT/AOT_stimuli/rescaled_final/1612_fw.mp4	0.0	216.96190118789673	1.0001378059387207
10	135.3204801082611	pulse	0	t		8.0	2.5	/experiments/knapen_AOT/AOT_stimuli/rescaled_final/1612_fw.mp4	0.0	217.95400214195251	
10	135.32851696014404	movie	1		245	8.0	2.5	/experiments/knapen_AOT/AOT_stimuli/rescaled_final/1612_fw.mp4	0.0	217.96203899383545	2.5087780952453613
10	136.92132115364075	pulse	1	t		8.0	2.5	/experiments/knapen_AOT/AOT_stimuli/rescaled_final/1612_fw.mp4	0.0	219.55484318733215	
10	137.8372950553894	fix_post	2		12	8.0	2.5	/experiments/knapen_AOT/AOT_stimuli/rescaled_final/1612_fw.mp4	0.0	220.4708170890808	0.09998798370361328
11	137.93728303909302	fix_pre	0		120	9.0	2.5	/experiments/knapen_AOT/AOT_stimuli/rescaled_final/0796_rv.mp4	0.0	220.57080507278442	1.0001230239868164
11	138.52083110809326	pulse	0	t		9.0	2.5	/experiments/knapen_AOT/AOT_stimuli/rescaled_final/0796_rv.mp4	0.0	221.15435314178467	
11	138.93740606307983	movie	1		243	9.0	2.5	/experiments/knapen_AOT/AOT_stimuli/rescaled_final/0796_rv.mp4	0.0	221.57092809677124	2.5003669261932373
11	140.12125897407532	pulse	1	t		9.0	2.5	/experiments/knapen_AOT/AOT_stimuli/rescaled_final/0796_rv.mp4	0.0	222.75478100776672	
11	141.43777298927307	fix_post	2		12	9.0	2.5	/experiments/knapen_AOT/AOT_stimuli/rescaled_final/0796_rv.mp4	0.0	224.07129502296448	0.10013198852539062
12	141.53790497779846	fix_pre	0		120	10.0	2.5	/experiments/knapen_AOT/AOT_stimuli/rescaled_final/1067_rv.mp4	0.0	224.17142701148987	1.0000782012939453
12	141.72142004966736	pulse	0	t		10.0	2.5	/experiments/knapen_AOT/AOT_stimuli/rescaled_final/1067_rv.mp4	0.0	224.35494208335876	
12	142.5379831790924	movie	1		244	10.0	2.5	/experiments/knapen_AOT/AOT_stimuli/rescaled_final/1067_rv.mp4	0.0	225.1715052127838	2.5003349781036377
12	143.32158517837524	pulse	1	t		10.0	2.5	/experiments/knapen_AOT/AOT_stimuli/rescaled_final/1067_rv.mp4	0.0	225.95510721206665	
12	144.92168712615967	pulse	1	t		10.0	2.5	/experiments/knapen_AOT/AOT_stimuli/rescaled_final/1067_rv.mp4	0.0	227.55520915985107	
12	145.03831815719604	fix_post	2		12	10.0	2.5	/experiments/knapen_AOT/AOT_stimuli/rescaled_final/1067_rv.mp4	0.0	227.67184019088745	0.10004687309265137
13	145.1383650302887	fix_pre	0		120	11.0	2.5	/experiments/knapen_AOT/AOT_stimuli/rescaled_final/0828_fw.mp4	0.0	227.7718870639801	1.0001039505004883
13	146.13846898078918	movie	1		243	11.0	2.5	/experiments/knapen_AOT/AOT_stimuli/rescaled_final/0828_fw.mp4	0.0	228.7719910144806	2.4920361042022705
13	146.52241396903992	pulse	1	t		11.0	2.5	/experiments/knapen_AOT/AOT_stimuli/rescaled_final/0828_fw.mp4	0.0	229.15593600273132	
13	148.12236905097961	pulse	1	t		11.0	2.5	/experiments/knapen_AOT/AOT_stimuli/rescaled_final/0828_fw.mp4	0.0	230.75589108467102	
13	148.63050508499146	fix_post	2		12	11.0	2.5	/experiments/knapen_AOT/AOT_stimuli/rescaled_final/0828_fw.mp4	0.0	231.26402711868286	0.10003089904785156
14	148.7305359840393	fix_pre	0		120	12.0	2.5	/experiments/knapen_AOT/AOT_stimuli/rescaled_final/0344_fw.mp4	0.0	231.3640580177307	1.0001180171966553
14	149.72258496284485	pulse	0	t		12.0	2.5	/experiments/knapen_AOT/AOT_stimuli/rescaled_final/0344_fw.mp4	0.0	232.35610699653625	
14	149.73065400123596	movie	1		245	12.0	2.5	/experiments/knapen_AOT/AOT_stimuli/rescaled_final/0344_fw.mp4	0.0	232.36417603492737	2.508716106414795
14	151.32720804214478	pulse	1	t		12.0	2.5	/experiments/knapen_AOT/AOT_stimuli/rescaled_final/0344_fw.mp4	0.0	233.96073007583618	
14	152.23937010765076	fix_post	2		12	12.0	2.5	/experiments/knapen_AOT/AOT_stimuli/rescaled_final/0344_fw.mp4	0.0	234.87289214134216	0.10005402565002441
15	152.33942413330078	fix_pre	0		120	13.0	2.5	blank	1.0	234.9729461669922	1.0001099109649658
15	152.92301511764526	pulse	0	t		13.0	2.5	blank	1.0	235.55653715133667	
15	153.33953404426575	movie	1		300	13.0	2.5	blank	1.0	235.97305607795715	2.5004169940948486
15	154.51576018333435	pulse	1	t		13.0	2.5	blank	1.0	237.14928221702576	
15	155.8399510383606	fix_post	2		12	13.0	2.5	blank	1.0	238.473473072052	0.1000361442565918
16	155.9399871826172	fix_pre	0		120	14.0	2.5	/experiments/knapen_AOT/AOT_stimuli/rescaled_final/0352_fw.mp4	0.0	238.5735092163086	1.0001068115234375
16	156.1160180568695	pulse	0	t		14.0	2.5	/experiments/knapen_AOT/AOT_stimuli/rescaled_final/0352_fw.mp4	0.0	238.7495400905609	
16	156.94009399414062	movie	1		244	14.0	2.5	/experiments/knapen_AOT/AOT_stimuli/rescaled_final/0352_fw.mp4	0.0	239.57361602783203	2.5003750324249268
16	157.71639895439148	pulse	1	t		14.0	2.5	/experiments/knapen_AOT/AOT_stimuli/rescaled_final/0352_fw.mp4	0.0	240.34992098808289	
16	159.32404112815857	pulse	1	t		14.0	2.5	/experiments/knapen_AOT/AOT_stimuli/rescaled_final/0352_fw.mp4	0.0	241.95756316184998	
16	159.44046902656555	fix_post	2		12	14.0	2.5	/experiments/knapen_AOT/AOT_stimuli/rescaled_final/0352_fw.mp4	0.0	242.07399106025696	0.1000220775604248
17	159.54049110412598	fix_pre	0		120	15.0	2.5	/experiments/knapen_AOT/AOT_stimuli/rescaled_final/1355_fw.mp4	0.0	242.17401313781738	1.0001029968261719
17	160.54059410095215	movie	1		243	15.0	2.5	/experiments/knapen_AOT/AOT_stimuli/rescaled_final/1355_fw.mp4	0.0	243.17411613464355	2.4920618534088135
17	160.91584515571594	pulse	1	t		15.0	2.5	/experiments/knapen_AOT/AOT_stimuli/rescaled_final/1355_fw.mp4	0.0	243.54936718940735	
17	162.5162010192871	pulse	1	t		15.0	2.5	/experiments/knapen_AOT/AOT_stimuli/rescaled_final/1355_fw.mp4	0.0	245.14972305297852	
17	163.03265595436096	fix_post	2		12	15.0	2.5	/experiments/knapen_AOT/AOT_stimuli/rescaled_final/1355_fw.mp4	0.0	245.66617798805237	0.10001111030578613
18	163.13266706466675	fix_pre	0		119	16.0	2.5	/experiments/knapen_AOT/AOT_stimuli/rescaled_final/1521_rv.mp4	0.0	245.76618909835815	0.991826057434082
18	164.11633396148682	pulse	0	t		16.0	2.5	/experiments/knapen_AOT/AOT_stimuli/rescaled_final/1521_rv.mp4	0.0	246.74985599517822	
18	164.12449312210083	movie	1		246	16.0	2.5	/experiments/knapen_AOT/AOT_stimuli/rescaled_final/1521_rv.mp4	0.0	246.75801515579224	2.5086829662323
18	165.7178680896759	pulse	1	t		16.0	2.5	/experiments/knapen_AOT/AOT_stimuli/rescaled_final/1521_rv.mp4	0.0	248.3513901233673	
18	166.63317608833313	fix_post	2		12	16.0	2.5	/experiments/knapen_AOT/AOT_stimuli/rescaled_final/1521_rv.mp4	0.0	249.26669812202454	0.10002708435058594
19	166.73320317268372	fix_pre	0		120	17.0	2.5	/experiments/knapen_AOT/AOT_stimuli/rescaled_final/1055_rv.mp4	0.0	249.36672520637512	1.0001599788665771
19	167.31676197052002	pulse	0	t		17.0	2.5	/experiments/knapen_AOT/AOT_stimuli/rescaled_final/1055_rv.mp4	0.0	249.95028400421143	
19	167.7333631515503	movie	1		243	17.0	2.5	/experiments/knapen_AOT/AOT_stimuli/rescaled_final/1055_rv.mp4	0.0	250.3668851852417	2.50036883354187
19	168.91719102859497	pulse	1	t		17.0	2.5	/experiments/knapen_AOT/AOT_stimuli/rescaled_final/1055_rv.mp4	0.0	251.55071306228638	
19	170.23373198509216	fix_post	2		12	17.0	2.5	/experiments/knapen_AOT/AOT_stimuli/rescaled_final/1055_rv.mp4	0.0	252.86725401878357	0.10002708435058594
20	170.33375906944275	fix_pre	0		120	18.0	2.5	/experiments/knapen_AOT/AOT_stimuli/rescaled_final/1750_fw.mp4	0.0	252.96728110313416	1.0001459121704102
20	170.5173749923706	pulse	0	t		18.0	2.5	/experiments/knapen_AOT/AOT_stimuli/rescaled_final/1750_fw.mp4	0.0	253.150897026062	
20	171.33390498161316	movie	1		245	18.0	2.5	/experiments/knapen_AOT/AOT_stimuli/rescaled_final/1750_fw.mp4	0.0	253.96742701530457	2.5003790855407715
20	172.11754202842712	pulse	1	t		18.0	2.5	/experiments/knapen_AOT/AOT_stimuli/rescaled_final/1750_fw.mp4	0.0	254.75106406211853	
20	173.71783304214478	pulse	1	t		18.0	2.5	/experiments/knapen_AOT/AOT_stimuli/rescaled_final/1750_fw.mp4	0.0	256.3513550758362	
20	173.83428406715393	fix_post	2		12	18.0	2.5	/experiments/knapen_AOT/AOT_stimuli/rescaled_final/1750_fw.mp4	0.0	256.46780610084534	0.1000220775604248
21	173.93430614471436	fix_pre	0		120	19.0	2.5	blank	1.0	256.56782817840576	1.000119924545288
21	174.93442606925964	movie	1		299	19.0	2.5	blank	1.0	257.56794810295105	2.492110013961792
21	175.3180661201477	pulse	1	t		19.0	2.5	blank	1.0	257.9515881538391	
21	176.9183909893036	pulse	1	t		19.0	2.5	blank	1.0	259.551913022995	
21	177.42653608322144	fix_post	2		12	19.0	2.5	blank	1.0	260.06005811691284	0.09996891021728516
22	177.52650499343872	fix_pre	0		120	20.0	2.5	/experiments/knapen_AOT/AOT_stimuli/rescaled_final/1884_rv.mp4	0.0	260.1600270271301	1.000171184539795
22	178.51851201057434	pulse	0	t		20.0	2.5	/experiments/knapen_AOT/AOT_stimuli/rescaled_final/1884_rv.mp4	0.0	261.15203404426575	
22	178.52667617797852	movie	1		245	20.0	2.5	/experiments/knapen_AOT/AOT_stimuli/rescaled_final/1884_rv.mp4	0.0	261.1601982116699	2.5087878704071045
22	180.11933302879333	pulse	1	t		20.0	2.5	/experiments/knapen_AOT/AOT_stimuli/rescaled_final/1884_rv.mp4	0.0	262.75285506248474	
22	181.03546404838562	fix_post	2		12	20.0	2.5	/experiments/knapen_AOT/AOT_stimuli/rescaled_final/1884_rv.mp4	0.0	263.668986082077	0.09989213943481445
23	181.13535618782043	fix_pre	0		120	21.0	2.5	/experiments/knapen_AOT/AOT_stimuli/rescaled_final/0216_fw.mp4	0.0	263.76887822151184	1.0001699924468994
23	181.71901512145996	pulse	0	t		21.0	2.5	/experiments/knapen_AOT/AOT_stimuli/rescaled_final/0216_fw.mp4	0.0	264.35253715515137	
23	182.13552618026733	movie	1		244	21.0	2.5	/experiments/knapen_AOT/AOT_stimuli/rescaled_final/0216_fw.mp4	0.0	264.76904821395874	2.5003559589385986
23	183.31926918029785	pulse	1	t		21.0	2.5	/experiments/knapen_AOT/AOT_stimuli/rescaled_final/0216_fw.mp4	0.0	265.95279121398926	
23	184.63588213920593	fix_post	2		12	21.0	2.5	/experiments/knapen_AOT/AOT_stimuli/rescaled_final/0216_fw.mp4	0.0	267.26940417289734	0.10001587867736816
24	184.7358980178833	fix_pre	0		120	22.0	2.5	/experiments/knapen_AOT/AOT_stimuli/rescaled_final/1255_rv.mp4	0.0	267.3694200515747	1.0001780986785889
24	184.91952896118164	pulse	0	t		22.0	2.5	/experiments/knapen_AOT/AOT_stimuli/rescaled_final/1255_rv.mp4	0.0	267.55305099487305	
24	185.7360761165619	movie	1		239	22.0	2.5	/experiments/knapen_AOT/AOT_stimuli/rescaled_final/1255_rv.mp4	0.0	268.3695981502533	2.500393867492676
24	186.51976013183594	pulse	1	t		22.0	2.5	/experiments/knapen_AOT/AOT_stimuli/rescaled_final/1255_rv.mp4	0.0	269.15328216552734	
24	188.11982917785645	pulse	1	t		22.0	2.5	/experiments/knapen_AOT/AOT_stimuli/rescaled_final/1255_rv.mp4	0.0	270.75335121154785	
24	188.23646998405457	fix_post	2		12	22.0	2.5	/experiments/knapen_AOT/AOT_stimuli/rescaled_final/1255_rv.mp4	0.0	270.869992017746	0.10008502006530762
25	188.33655500411987	fix_pre	0		120	23.0	2.5	/experiments/knapen_AOT/AOT_stimuli/rescaled_final/1135_fw.mp4	0.0	270.9700770378113	1.0000419616699219
25	189.3365969657898	movie	1		244	23.0	2.5	/experiments/knapen_AOT/AOT_stimuli/rescaled_final/1135_fw.mp4	0.0	271.9701189994812	2.492077112197876
25	189.72107005119324	pulse	1	t		23.0	2.5	/experiments/knapen_AOT/AOT_stimuli/rescaled_final/1135_fw.mp4	0.0	272.35459208488464	
25	191.32045197486877	pulse	1	t		23.0	2.5	/experiments/knapen_AOT/AOT_stimuli/rescaled_final/1135_fw.mp4	0.0	273.9539740085602	
25	191.82867407798767	fix_post	2		12	23.0	2.5	/experiments/knapen_AOT/AOT_stimuli/rescaled_final/1135_fw.mp4	0.0	274.4621961116791	0.09998488426208496
26	191.92865896224976	fix_pre	0		120	24.0	2.5	/experiments/knapen_AOT/AOT_stimuli/rescaled_final/1477_rv.mp4	0.0	274.56218099594116	1.0001530647277832
26	192.92062616348267	pulse	0	t		24.0	2.5	/experiments/knapen_AOT/AOT_stimuli/rescaled_final/1477_rv.mp4	0.0	275.5541481971741	
26	192.92881202697754	movie	1		245	24.0	2.5	/experiments/knapen_AOT/AOT_stimuli/rescaled_final/1477_rv.mp4	0.0	275.56233406066895	2.5087411403656006
26	194.52227807044983	pulse	1	t		24.0	2.5	/experiments/knapen_AOT/AOT_stimuli/rescaled_final/1477_rv.mp4	0.0	277.15580010414124	
26	195.43755316734314	fix_post	2		12	24.0	2.5	/experiments/knapen_AOT/AOT_stimuli/rescaled_final/1477_rv.mp4	0.0	278.07107520103455	0.0999748706817627
27	195.5375280380249	fix_pre	0		120	25.0	2.5	/experiments/knapen_AOT/AOT_stimuli/rescaled_final/0200_rv.mp4	0.0	278.1710500717163	1.0001580715179443
27	196.12110209465027	pulse	0	t		25.0	2.5	/experiments/knapen_AOT/AOT_stimuli/rescaled_final/0200_rv.mp4	0.0	278.7546241283417	
27	196.53768610954285	movie	1		246	25.0	2.5	/experiments/knapen_AOT/AOT_stimuli/rescaled_final/0200_rv.mp4	0.0	279.17120814323425	2.500385046005249
27	197.72140502929688	pulse	1	t		25.0	2.5	/experiments/knapen_AOT/AOT_stimuli/rescaled_final/0200_rv.mp4	0.0	280.3549270629883	
27	199.0380711555481	fix_post	2		12	25.0	2.5	/experiments/knapen_AOT/AOT_stimuli/rescaled_final/0200_rv.mp4	0.0	281.6715931892395	0.09996199607849121
28	199.1380331516266	fix_pre	0		120	26.0	2.5	/experiments/knapen_AOT/AOT_stimuli/rescaled_final/1974_fw.mp4	0.0	281.771555185318	1.000169038772583
28	199.32165217399597	pulse	0	t		26.0	2.5	/experiments/knapen_AOT/AOT_stimuli/rescaled_final/1974_fw.mp4	0.0	281.9551742076874	
28	200.13820219039917	movie	1		243	26.0	2.5	/experiments/knapen_AOT/AOT_stimuli/rescaled_final/1974_fw.mp4	0.0	282.7717242240906	2.5003747940063477
28	200.92181515693665	pulse	1	t		26.0	2.5	/experiments/knapen_AOT/AOT_stimuli/rescaled_final/1974_fw.mp4	0.0	283.55533719062805	
28	202.52259802818298	pulse	1	t		26.0	2.5	/experiments/knapen_AOT/AOT_stimuli/rescaled_final/1974_fw.mp4	0.0	285.1561200618744	
28	202.63857698440552	fix_post	2		12	26.0	2.5	/experiments/knapen_AOT/AOT_stimuli/rescaled_final/1974_fw.mp4	0.0	285.2720990180969	0.10002803802490234
29	202.73860502243042	fix_pre	0		120	27.0	2.5	/experiments/knapen_AOT/AOT_stimuli/rescaled_final/0802_fw.mp4	0.0	285.3721270561218	1.000133991241455
29	203.73873901367188	movie	1		243	27.0	2.5	/experiments/knapen_AOT/AOT_stimuli/rescaled_final/0802_fw.mp4	0.0	286.3722610473633	2.492089033126831
29	204.12306714057922	pulse	1	t		27.0	2.5	/experiments/knapen_AOT/AOT_stimuli/rescaled_final/0802_fw.mp4	0.0	286.75658917427063	
29	205.7226619720459	pulse	1	t		27.0	2.5	/experiments/knapen_AOT/AOT_stimuli/rescaled_final/0802_fw.mp4	0.0	288.3561840057373	
29	206.2308280467987	fix_post	2		12	27.0	2.5	/experiments/knapen_AOT/AOT_stimuli/rescaled_final/0802_fw.mp4	0.0	288.8643500804901	0.09994196891784668
30	206.33077001571655	fix_pre	0		120	28.0	2.5	blank	1.0	288.96429204940796	1.0001921653747559
30	207.32283115386963	pulse	0	t		28.0	2.5	blank	1.0	289.95635318756104	
30	207.3309621810913	movie	1		301	28.0	2.5	blank	1.0	289.9644842147827	2.508725881576538
30	208.9155740737915	pulse	1	t		28.0	2.5	blank	1.0	291.5490961074829	
30	209.83968806266785	fix_post	2		12	28.0	2.5	blank	1.0	292.47321009635925	0.09998798370361328
31	209.93967604637146	fix_pre	0		120	29.0	2.5	/experiments/knapen_AOT/AOT_stimuli/rescaled_final/1995_rv.mp4	0.0	292.57319808006287	1.0001530647277832
31	210.5158121585846	pulse	0	t		29.0	2.5	/experiments/knapen_AOT/AOT_stimuli/rescaled_final/1995_rv.mp4	0.0	293.149334192276	
31	210.93982911109924	movie	1		245	29.0	2.5	/experiments/knapen_AOT/AOT_stimuli/rescaled_final/1995_rv.mp4	0.0	293.57335114479065	2.500372886657715
31	212.115571975708	pulse	1	t		29.0	2.5	/experiments/knapen_AOT/AOT_stimuli/rescaled_final/1995_rv.mp4	0.0	294.7490940093994	
31	213.44020199775696	fix_post	2		12	29.0	2.5	/experiments/knapen_AOT/AOT_stimuli/rescaled_final/1995_rv.mp4	0.0	296.07372403144836	0.10006117820739746
32	213.54026317596436	fix_pre	0		120	30.0	2.5	/experiments/knapen_AOT/AOT_stimuli/rescaled_final/2089_fw.mp4	0.0	296.17378520965576	1.0001368522644043
32	213.71626210212708	pulse	0	t		30.0	2.5	/experiments/knapen_AOT/AOT_stimuli/rescaled_final/2089_fw.mp4	0.0	296.3497841358185	
32	214.54040002822876	movie	1		243	30.0	2.5	/experiments/knapen_AOT/AOT_stimuli/rescaled_final/2089_fw.mp4	0.0	297.17392206192017	2.5003600120544434
32	215.31567907333374	pulse	1	t		30.0	2.5	/experiments/knapen_AOT/AOT_stimuli/rescaled_final/2089_fw.mp4	0.0	297.94920110702515	
32	216.91597199440002	pulse	1	t		30.0	2.5	/experiments/knapen_AOT/AOT_stimuli/rescaled_final/2089_fw.mp4	0.0	299.54949402809143	
32	217.0407600402832	fix_post	2		12	30.0	2.5	/experiments/knapen_AOT/AOT_stimuli/rescaled_final/2089_fw.mp4	0.0	299.6742820739746	0.10001897811889648
33	217.1407790184021	fix_pre	0		120	31.0	2.5	/experiments/knapen_AOT/AOT_stimuli/rescaled_final/1252_fw.mp4	0.0	299.7743010520935	1.0001349449157715
33	218.14091396331787	movie	1		242	31.0	2.5	/experiments/knapen_AOT/AOT_stimuli/rescaled_final/1252_fw.mp4	0.0	300.7744359970093	2.492159128189087
33	218.51620316505432	pulse	1	t		31.0	2.5	/experiments/knapen_AOT/AOT_stimuli/rescaled_final/1252_fw.mp4	0.0	301.1497251987457	
33	220.11650896072388	pulse	1	t		31.0	2.5	/experiments/knapen_AOT/AOT_stimuli/rescaled_final/1252_fw.mp4	0.0	302.7500309944153	
33	220.63307309150696	fix_post	2		12	31.0	2.5	/experiments/knapen_AOT/AOT_stimuli/rescaled_final/1252_fw.mp4	0.0	303.26659512519836	0.09992003440856934
34	220.73299312591553	fix_pre	0		119	32.0	2.5	/experiments/knapen_AOT/AOT_stimuli/rescaled_final/0728_rv.mp4	0.0	303.36651515960693	0.9917850494384766
34	221.71659398078918	pulse	0	t		32.0	2.5	/experiments/knapen_AOT/AOT_stimuli/rescaled_final/0728_rv.mp4	0.0	304.3501160144806	
34	221.724778175354	movie	1		245	32.0	2.5	/experiments/knapen_AOT/AOT_stimuli/rescaled_final/0728_rv.mp4	0.0	304.3583002090454	2.5086829662323
34	223.31762099266052	pulse	1	t		32.0	2.5	/experiments/knapen_AOT/AOT_stimuli/rescaled_final/0728_rv.mp4	0.0	305.95114302635193	
34	224.2334611415863	fix_post	2		12	32.0	2.5	/experiments/knapen_AOT/AOT_stimuli/rescaled_final/0728_rv.mp4	0.0	306.8669831752777	0.1000368595123291
35	224.33349800109863	fix_pre	0		120	33.0	2.5	/experiments/knapen_AOT/AOT_stimuli/rescaled_final/1507_rv.mp4	0.0	306.96702003479004	1.000128984451294
35	224.9171121120453	pulse	0	t		33.0	2.5	/experiments/knapen_AOT/AOT_stimuli/rescaled_final/1507_rv.mp4	0.0	307.5506341457367	
35	225.33362698554993	movie	1		246	33.0	2.5	/experiments/knapen_AOT/AOT_stimuli/rescaled_final/1507_rv.mp4	0.0	307.96714901924133	2.500378131866455
35	226.5174970626831	pulse	1	t		33.0	2.5	/experiments/knapen_AOT/AOT_stimuli/rescaled_final/1507_rv.mp4	0.0	309.1510190963745	
35	227.83400511741638	fix_post	2		12	33.0	2.5	/experiments/knapen_AOT/AOT_stimuli/rescaled_final/1507_rv.mp4	0.0	310.4675271511078	0.10004591941833496
36	227.93405103683472	fix_pre	0		120	34.0	2.5	/experiments/knapen_AOT/AOT_stimuli/rescaled_final/0731_fw.mp4	0.0	310.5675730705261	1.0001380443572998
36	228.1175971031189	pulse	0	t		34.0	2.5	/experiments/knapen_AOT/AOT_stimuli/rescaled_final/0731_fw.mp4	0.0	310.7511191368103	
36	228.93418908119202	movie	1		245	34.0	2.5	/experiments/knapen_AOT/AOT_stimuli/rescaled_final/0731_fw.mp4	0.0	311.5677111148834	2.500369071960449
36	229.7178030014038	pulse	1	t		34.0	2.5	/experiments/knapen_AOT/AOT_stimuli/rescaled_final/0731_fw.mp4	0.0	312.3513250350952	
36	231.31805205345154	pulse	1	t		34.0	2.5	/experiments/knapen_AOT/AOT_stimuli/rescaled_final/0731_fw.mp4	0.0	313.95157408714294	
36	231.43455815315247	fix_post	2		12	34.0	2.5	/experiments/knapen_AOT/AOT_stimuli/rescaled_final/0731_fw.mp4	0.0	314.0680801868439	0.10002493858337402
37	231.53458309173584	fix_pre	0		119	35.0	2.5	blank	1.0	314.16810512542725	0.9918930530548096
37	232.52647614479065	movie	1		300	35.0	2.5	blank	1.0	315.15999817848206	2.500286817550659
37	232.9182801246643	pulse	1	t		35.0	2.5	blank	1.0	315.5518021583557	
37	234.51859712600708	pulse	1	t		35.0	2.5	blank	1.0	317.1521191596985	
37	235.0267629623413	fix_post	2		12	35.0	2.5	blank	1.0	317.6602849960327	0.10012316703796387
38	235.12688612937927	fix_pre	0		120	36.0	2.5	/experiments/knapen_AOT/AOT_stimuli/rescaled_final/1147_fw.mp4	0.0	317.7604081630707	1.0000560283660889
38	236.11879801750183	pulse	0	t		36.0	2.5	/experiments/knapen_AOT/AOT_stimuli/rescaled_final/1147_fw.mp4	0.0	318.75232005119324	
38	236.12694215774536	movie	1		244	36.0	2.5	/experiments/knapen_AOT/AOT_stimuli/rescaled_final/1147_fw.mp4	0.0	318.76046419143677	2.5086920261383057
38	237.7194001674652	pulse	1	t		36.0	2.5	/experiments/knapen_AOT/AOT_stimuli/rescaled_final/1147_fw.mp4	0.0	320.3529222011566	
38	238.63563418388367	fix_post	2		12	36.0	2.5	/experiments/knapen_AOT/AOT_stimuli/rescaled_final/1147_fw.mp4	0.0	321.2691562175751	0.1000218391418457
39	238.7356560230255	fix_pre	0		120	37.0	2.5	/experiments/knapen_AOT/AOT_stimuli/rescaled_final/1147_rv.mp4	0.0	321.3691780567169	1.0001730918884277
39	239.31938815116882	pulse	0	t		37.0	2.5	/experiments/knapen_AOT/AOT_stimuli/rescaled_final/1147_rv.mp4	0.0	321.95291018486023	
39	239.73582911491394	movie	1		243	37.0	2.5	/experiments/knapen_AOT/AOT_stimuli/rescaled_final/1147_rv.mp4	0.0	322.36935114860535	2.5003199577331543
39	240.91961407661438	pulse	1	t		37.0	2.5	/experiments/knapen_AOT/AOT_stimuli/rescaled_final/1147_rv.mp4	0.0	323.5531361103058	
39	242.2361490726471	fix_post	2		12	37.0	2.5	/experiments/knapen_AOT/AOT_stimuli/rescaled_final/1147_rv.mp4	0.0	324.8696711063385	0.10003900527954102
40	242.33618807792664	fix_pre	0		117	38.0	2.5	/experiments/knapen_AOT/AOT_stimuli/rescaled_final/1147_fw.mp4	0.0	324.96971011161804	1.0001680850982666
40	242.51969718933105	pulse	0	t		38.0	2.5	/experiments/knapen_AOT/AOT_stimuli/rescaled_final/1147_fw.mp4	0.0	325.15321922302246	
40	243.3363561630249	movie	1		243	38.0	2.5	/experiments/knapen_AOT/AOT_stimuli/rescaled_final/1147_fw.mp4	0.0	325.9698781967163	2.5003578662872314
40	244.1200611591339	pulse	1	t		38.0	2.5	/experiments/knapen_AOT/AOT_stimuli/rescaled_final/1147_fw.mp4	0.0	326.7535831928253	
40	245.7199900150299	pulse	1	t		38.0	2.5	/experiments/knapen_AOT/AOT_stimuli/rescaled_final/1147_fw.mp4	0.0	328.3535120487213	
40	245.83671402931213	fix_post	2		12	38.0	2.5	/experiments/knapen_AOT/AOT_stimuli/rescaled_final/1147_fw.mp4	0.0	328.47023606300354	0.10002398490905762
41	245.9367380142212	fix_pre	0		120	39.0	2.5	/experiments/knapen_AOT/AOT_stimuli/rescaled_final/0731_rv.mp4	0.0	328.5702600479126	1.0001201629638672
41	246.93685817718506	movie	1		245	39.0	2.5	/experiments/knapen_AOT/AOT_stimuli/rescaled_final/0731_rv.mp4	0.0	329.57038021087646	2.492102861404419
41	247.3211691379547	pulse	1	t		39.0	2.5	/experiments/knapen_AOT/AOT_stimuli/rescaled_final/0731_rv.mp4	0.0	329.9546911716461	
41	248.92071413993835	pulse	1	t		39.0	2.5	/experiments/knapen_AOT/AOT_stimuli/rescaled_final/0731_rv.mp4	0.0	331.55423617362976	
41	249.42896103858948	fix_post	2		12	39.0	2.5	/experiments/knapen_AOT/AOT_stimuli/rescaled_final/0731_rv.mp4	0.0	332.0624830722809	0.09995913505554199
42	249.52892017364502	fix_pre	0		120	40.0	2.5	blank	1.0	332.1624422073364	1.0001459121704102
42	250.52092218399048	pulse	0	t		40.0	2.5	blank	1.0	333.1544442176819	
42	250.52906608581543	movie	1		301	40.0	2.5	blank	1.0	333.16258811950684	2.5087509155273438
42	252.121356010437	pulse	1	t		40.0	2.5	blank	1.0	334.7548780441284	
42	253.03781700134277	fix_post	2		12	40.0	2.5	blank	1.0	335.6713390350342	0.10004615783691406
43	253.1378631591797	fix_pre	0		120	41.0	2.5	/experiments/knapen_AOT/AOT_stimuli/rescaled_final/0843_rv.mp4	0.0	335.7713851928711	1.0000758171081543
43	253.72154903411865	pulse	0	t		41.0	2.5	/experiments/knapen_AOT/AOT_stimuli/rescaled_final/0843_rv.mp4	0.0	336.35507106781006	
43	254.13793897628784	movie	1		245	41.0	2.5	/experiments/knapen_AOT/AOT_stimuli/rescaled_final/0843_rv.mp4	0.0	336.77146100997925	2.500397205352783
43	255.32179999351501	pulse	1	t		41.0	2.5	/experiments/knapen_AOT/AOT_stimuli/rescaled_final/0843_rv.mp4	0.0	337.9553220272064	
43	256.6383361816406	fix_post	2		12	41.0	2.5	/experiments/knapen_AOT/AOT_stimuli/rescaled_final/0843_rv.mp4	0.0	339.27185821533203	0.09999489784240723
44	256.73833107948303	fix_pre	0		120	42.0	2.5	/experiments/knapen_AOT/AOT_stimuli/rescaled_final/1969_rv.mp4	0.0	339.37185311317444	1.0001559257507324
44	256.92187905311584	pulse	0	t		42.0	2.5	/experiments/knapen_AOT/AOT_stimuli/rescaled_final/1969_rv.mp4	0.0	339.55540108680725	
44	257.73848700523376	movie	1		244	42.0	2.5	/experiments/knapen_AOT/AOT_stimuli/rescaled_final/1969_rv.mp4	0.0	340.37200903892517	2.500383138656616
44	258.52214217185974	pulse	1	t		42.0	2.5	/experiments/knapen_AOT/AOT_stimuli/rescaled_final/1969_rv.mp4	0.0	341.15566420555115	
44	260.1224491596222	pulse	1	t		42.0	2.5	/experiments/knapen_AOT/AOT_stimuli/rescaled_final/1969_rv.mp4	0.0	342.7559711933136	
44	260.2388701438904	fix_post	2		12	42.0	2.5	/experiments/knapen_AOT/AOT_stimuli/rescaled_final/1969_rv.mp4	0.0	342.8723921775818	0.10005593299865723
45	260.33892607688904	fix_pre	0		120	43.0	2.5	/experiments/knapen_AOT/AOT_stimuli/rescaled_final/0407_fw.mp4	0.0	342.97244811058044	1.0000920295715332
45	261.33901810646057	movie	1		243	43.0	2.5	/experiments/knapen_AOT/AOT_stimuli/rescaled_final/0407_fw.mp4	0.0	343.972540140152	2.492060899734497
45	261.72314500808716	pulse	1	t		43.0	2.5	/experiments/knapen_AOT/AOT_stimuli/rescaled_final/0407_fw.mp4	0.0	344.35666704177856	
45	263.3156270980835	pulse	1	t		43.0	2.5	/experiments/knapen_AOT/AOT_stimuli/rescaled_final/0407_fw.mp4	0.0	345.9491491317749	
45	263.83107900619507	fix_post	2		12	43.0	2.5	/experiments/knapen_AOT/AOT_stimuli/rescaled_final/0407_fw.mp4	0.0	346.4646010398865	0.09998011589050293
46	263.93105912208557	fix_pre	0		120	44.0	2.5	/experiments/knapen_AOT/AOT_stimuli/rescaled_final/1323_rv.mp4	0.0	346.564581155777	1.000196933746338
46	264.9155809879303	pulse	0	t		44.0	2.5	/experiments/knapen_AOT/AOT_stimuli/rescaled_final/1323_rv.mp4	0.0	347.5491030216217	
46	264.9312560558319	movie	1		244	44.0	2.5	/experiments/knapen_AOT/AOT_stimuli/rescaled_final/1323_rv.mp4	0.0	347.5647780895233	2.5087459087371826
46	266.52382016181946	pulse	1	t		44.0	2.5	/experiments/knapen_AOT/AOT_stimuli/rescaled_final/1323_rv.mp4	0.0	349.15734219551086	
46	267.4400019645691	fix_post	2		12	44.0	2.5	/experiments/knapen_AOT/AOT_stimuli/rescaled_final/1323_rv.mp4	0.0	350.0735239982605	0.09999203681945801
47	267.53999400138855	fix_pre	0		120	45.0	2.5	/experiments/knapen_AOT/AOT_stimuli/rescaled_final/1979_fw.mp4	0.0	350.17351603507996	1.0002140998840332
47	268.11528396606445	pulse	0	t		45.0	2.5	/experiments/knapen_AOT/AOT_stimuli/rescaled_final/1979_fw.mp4	0.0	350.74880599975586	
47	268.5402081012726	movie	1		243	45.0	2.5	/experiments/knapen_AOT/AOT_stimuli/rescaled_final/1979_fw.mp4	0.0	351.173730134964	2.500269889831543
47	269.7159490585327	pulse	1	t		45.0	2.5	/experiments/knapen_AOT/AOT_stimuli/rescaled_final/1979_fw.mp4	0.0	352.3494710922241	
47	271.0404779911041	fix_post	2		12	45.0	2.5	/experiments/knapen_AOT/AOT_stimuli/rescaled_final/1979_fw.mp4	0.0	353.67400002479553	0.10000300407409668
48	271.1404809951782	fix_pre	0		120	46.0	2.5	/experiments/knapen_AOT/AOT_stimuli/rescaled_final/1640_rv.mp4	0.0	353.77400302886963	1.0001859664916992
48	271.31571412086487	pulse	0	t		46.0	2.5	/experiments/knapen_AOT/AOT_stimuli/rescaled_final/1640_rv.mp4	0.0	353.9492361545563	
48	272.1406669616699	movie	1		243	46.0	2.5	/experiments/knapen_AOT/AOT_stimuli/rescaled_final/1640_rv.mp4	0.0	354.7741889953613	2.5004570484161377
48	272.9160170555115	pulse	1	t		46.0	2.5	/experiments/knapen_AOT/AOT_stimuli/rescaled_final/1640_rv.mp4	0.0	355.5495390892029	
48	274.51622700691223	pulse	1	t		46.0	2.5	/experiments/knapen_AOT/AOT_stimuli/rescaled_final/1640_rv.mp4	0.0	357.14974904060364	
48	274.64112401008606	fix_post	2		12	46.0	2.5	/experiments/knapen_AOT/AOT_stimuli/rescaled_final/1640_rv.mp4	0.0	357.27464604377747	0.09988713264465332
49	274.7410111427307	fix_pre	0		119	47.0	2.5	/experiments/knapen_AOT/AOT_stimuli/rescaled_final/1351_rv.mp4	0.0	357.3745331764221	0.991818904876709
49	275.7328300476074	movie	1		244	47.0	2.5	/experiments/knapen_AOT/AOT_stimuli/rescaled_final/1351_rv.mp4	0.0	358.3663520812988	2.500420093536377
49	276.11764001846313	pulse	1	t		47.0	2.5	/experiments/knapen_AOT/AOT_stimuli/rescaled_final/1351_rv.mp4	0.0	358.75116205215454	
49	277.7167100906372	pulse	1	t		47.0	2.5	/experiments/knapen_AOT/AOT_stimuli/rescaled_final/1351_rv.mp4	0.0	360.3502321243286	
49	278.2332501411438	fix_post	2		12	47.0	2.5	/experiments/knapen_AOT/AOT_stimuli/rescaled_final/1351_rv.mp4	0.0	360.8667721748352	0.09996294975280762
50	278.3332130908966	fix_pre	0		119	48.0	2.5	blank	1.0	360.966735124588	0.9918150901794434
50	279.3169140815735	pulse	0	t		48.0	2.5	blank	1.0	361.9504361152649	
50	279.32502818107605	movie	1		301	48.0	2.5	blank	1.0	361.95855021476746	2.5087649822235107
50	280.917179107666	pulse	1	t		48.0	2.5	blank	1.0	363.5507011413574	
50	281.83379316329956	fix_post	2		12	48.0	2.5	blank	1.0	364.46731519699097	0.10000181198120117
51	281.93379497528076	fix_pre	0		120	49.0	2.5	/experiments/knapen_AOT/AOT_stimuli/rescaled_final/1611_fw.mp4	0.0	364.56731700897217	1.0001380443572998
51	282.5174160003662	pulse	0	t		49.0	2.5	/experiments/knapen_AOT/AOT_stimuli/rescaled_final/1611_fw.mp4	0.0	365.1509380340576	
51	282.93393301963806	movie	1		244	49.0	2.5	/experiments/knapen_AOT/AOT_stimuli/rescaled_final/1611_fw.mp4	0.0	365.56745505332947	2.500432014465332
51	284.11773109436035	pulse	1	t		49.0	2.5	/experiments/knapen_AOT/AOT_stimuli/rescaled_final/1611_fw.mp4	0.0	366.75125312805176	
51	285.4343650341034	fix_post	2		12	49.0	2.5	/experiments/knapen_AOT/AOT_stimuli/rescaled_final/1611_fw.mp4	0.0	368.0678870677948	0.09995293617248535
52	285.5343179702759	fix_pre	0		120	50.0	2.5	/experiments/knapen_AOT/AOT_stimuli/rescaled_final/0518_rv.mp4	0.0	368.1678400039673	1.0001389980316162
52	285.7178599834442	pulse	0	t		50.0	2.5	/experiments/knapen_AOT/AOT_stimuli/rescaled_final/0518_rv.mp4	0.0	368.3513820171356	
52	286.5344569683075	movie	1		244	50.0	2.5	/experiments/knapen_AOT/AOT_stimuli/rescaled_final/0518_rv.mp4	0.0	369.1679790019989	2.500364065170288
52	287.31815814971924	pulse	1	t		50.0	2.5	/experiments/knapen_AOT/AOT_stimuli/rescaled_final/0518_rv.mp4	0.0	369.95168018341064	
52	288.91850996017456	pulse	1	t		50.0	2.5	/experiments/knapen_AOT/AOT_stimuli/rescaled_final/0518_rv.mp4	0.0	371.55203199386597	
52	289.0348210334778	fix_post	2		12	50.0	2.5	/experiments/knapen_AOT/AOT_stimuli/rescaled_final/0518_rv.mp4	0.0	371.6683430671692	0.10002493858337402
53	289.13484597206116	fix_pre	0		120	51.0	2.5	/experiments/knapen_AOT/AOT_stimuli/rescaled_final/1940_rv.mp4	0.0	371.76836800575256	1.000148057937622
53	290.1349940299988	movie	1		243	51.0	2.5	/experiments/knapen_AOT/AOT_stimuli/rescaled_final/1940_rv.mp4	0.0	372.7685160636902	2.492042064666748
53	290.5193769931793	pulse	1	t		51.0	2.5	/experiments/knapen_AOT/AOT_stimuli/rescaled_final/1940_rv.mp4	0.0	373.1528990268707	
53	292.11879205703735	pulse	1	t		51.0	2.5	/experiments/knapen_AOT/AOT_stimuli/rescaled_final/1940_rv.mp4	0.0	374.75231409072876	
53	292.6270360946655	fix_post	2		12	51.0	2.5	/experiments/knapen_AOT/AOT_stimuli/rescaled_final/1940_rv.mp4	0.0	375.26055812835693	0.10000395774841309
54	292.72704005241394	fix_pre	0		120	52.0	2.5	/experiments/knapen_AOT/AOT_stimuli/rescaled_final/2089_rv.mp4	0.0	375.36056208610535	1.0001649856567383
54	293.71915912628174	pulse	0	t		52.0	2.5	/experiments/knapen_AOT/AOT_stimuli/rescaled_final/2089_rv.mp4	0.0	376.35268115997314	
54	293.7272050380707	movie	1		244	52.0	2.5	/experiments/knapen_AOT/AOT_stimuli/rescaled_final/2089_rv.mp4	0.0	376.3607270717621	2.5087029933929443
54	295.31977701187134	pulse	1	t		52.0	2.5	/experiments/knapen_AOT/AOT_stimuli/rescaled_final/2089_rv.mp4	0.0	377.95329904556274	
54	296.2359080314636	fix_post	2		12	52.0	2.5	/experiments/knapen_AOT/AOT_stimuli/rescaled_final/2089_rv.mp4	0.0	378.86943006515503	0.09999299049377441
55	296.3359010219574	fix_pre	0		120	53.0	2.5	/experiments/knapen_AOT/AOT_stimuli/rescaled_final/0710_rv.mp4	0.0	378.9694230556488	1.0001771450042725
55	296.9196081161499	pulse	0	t		53.0	2.5	/experiments/knapen_AOT/AOT_stimuli/rescaled_final/0710_rv.mp4	0.0	379.5531301498413	
55	297.33607816696167	movie	1		244	53.0	2.5	/experiments/knapen_AOT/AOT_stimuli/rescaled_final/0710_rv.mp4	0.0	379.9696002006531	2.5003788471221924
55	298.515988111496	pulse	1	t		53.0	2.5	/experiments/knapen_AOT/AOT_stimuli/rescaled_final/0710_rv.mp4	0.0	381.1495101451874	
55	299.83645701408386	fix_post	2		12	53.0	2.5	/experiments/knapen_AOT/AOT_stimuli/rescaled_final/0710_rv.mp4	0.0	382.46997904777527	0.10009002685546875
56	299.93654704093933	fix_pre	0		120	54.0	2.5	/experiments/knapen_AOT/AOT_stimuli/rescaled_final/0136_rv.mp4	0.0	382.57006907463074	1.0000591278076172
56	300.1201219558716	pulse	0	t		54.0	2.5	/experiments/knapen_AOT/AOT_stimuli/rescaled_final/0136_rv.mp4	0.0	382.753643989563	
56	300.93660616874695	movie	1		243	54.0	2.5	/experiments/knapen_AOT/AOT_stimuli/rescaled_final/0136_rv.mp4	0.0	383.57012820243835	2.5003838539123535
56	301.72035217285156	pulse	1	t		54.0	2.5	/experiments/knapen_AOT/AOT_stimuli/rescaled_final/0136_rv.mp4	0.0	384.35387420654297	
56	303.3203880786896	pulse	1	t		54.0	2.5	/experiments/knapen_AOT/AOT_stimuli/rescaled_final/0136_rv.mp4	0.0	385.953910112381	
56	303.4369900226593	fix_post	2		12	54.0	2.5	/experiments/knapen_AOT/AOT_stimuli/rescaled_final/0136_rv.mp4	0.0	386.0705120563507	0.10007810592651367
57	303.5370681285858	fix_pre	0		117	55.0	2.5	blank	1.0	386.1705901622772	1.0001368522644043
57	304.5372049808502	movie	1		299	55.0	2.5	blank	1.0	387.1707270145416	2.492002010345459
57	304.92071318626404	pulse	1	t		55.0	2.5	blank	1.0	387.55423521995544	
57	306.5209619998932	pulse	1	t		55.0	2.5	blank	1.0	389.1544840335846	
57	307.0292069911957	fix_post	2		12	55.0	2.5	blank	1.0	389.6627290248871	0.09999608993530273
58	307.129203081131	fix_pre	0		120	56.0	2.5	/experiments/knapen_AOT/AOT_stimuli/rescaled_final/1759_rv.mp4	0.0	389.7627251148224	1.0001380443572998
58	308.12127113342285	pulse	0	t		56.0	2.5	/experiments/knapen_AOT/AOT_stimuli/rescaled_final/1759_rv.mp4	0.0	390.75479316711426	
58	308.1293411254883	movie	1		245	56.0	2.5	/experiments/knapen_AOT/AOT_stimuli/rescaled_final/1759_rv.mp4	0.0	390.7628631591797	2.5087058544158936
58	309.7228190898895	pulse	1	t		56.0	2.5	/experiments/knapen_AOT/AOT_stimuli/rescaled_final/1759_rv.mp4	0.0	392.35634112358093	
58	310.6380469799042	fix_post	2		12	56.0	2.5	/experiments/knapen_AOT/AOT_stimuli/rescaled_final/1759_rv.mp4	0.0	393.2715690135956	0.10003113746643066
59	310.7380781173706	fix_pre	0		120	57.0	2.5	/experiments/knapen_AOT/AOT_stimuli/rescaled_final/1371_rv.mp4	0.0	393.371600151062	1.0002310276031494
59	311.3216760158539	pulse	0	t		57.0	2.5	/experiments/knapen_AOT/AOT_stimuli/rescaled_final/1371_rv.mp4	0.0	393.9551980495453	
59	311.73830914497375	movie	1		243	57.0	2.5	/experiments/knapen_AOT/AOT_stimuli/rescaled_final/1371_rv.mp4	0.0	394.37183117866516	2.5002999305725098
59	312.922003030777	pulse	1	t		57.0	2.5	/experiments/knapen_AOT/AOT_stimuli/rescaled_final/1371_rv.mp4	0.0	395.5555250644684	
59	314.23860907554626	fix_post	2		12	57.0	2.5	/experiments/knapen_AOT/AOT_stimuli/rescaled_final/1371_rv.mp4	0.0	396.87213110923767	0.100006103515625
60	314.3386151790619	fix_pre	0		120	58.0	2.5	/experiments/knapen_AOT/AOT_stimuli/rescaled_final/2014_fw.mp4	0.0	396.9721372127533	1.0001699924468994
60	314.52228116989136	pulse	0	t		58.0	2.5	/experiments/knapen_AOT/AOT_stimuli/rescaled_final/2014_fw.mp4	0.0	397.15580320358276	
60	315.3387851715088	movie	1		246	58.0	2.5	/experiments/knapen_AOT/AOT_stimuli/rescaled_final/2014_fw.mp4	0.0	397.9723072052002	2.500372886657715
60	316.1224670410156	pulse	1	t		58.0	2.5	/experiments/knapen_AOT/AOT_stimuli/rescaled_final/2014_fw.mp4	0.0	398.75598907470703	
60	317.72264313697815	pulse	1	t		58.0	2.5	/experiments/knapen_AOT/AOT_stimuli/rescaled_final/2014_fw.mp4	0.0	400.35616517066956	
60	317.8391580581665	fix_post	2		12	58.0	2.5	/experiments/knapen_AOT/AOT_stimuli/rescaled_final/2014_fw.mp4	0.0	400.4726800918579	0.10000491142272949
61	317.93916296958923	fix_pre	0		120	59.0	2.5	/experiments/knapen_AOT/AOT_stimuli/rescaled_final/2179_rv.mp4	0.0	400.57268500328064	1.0001301765441895
61	318.9392931461334	movie	1		243	59.0	2.5	/experiments/knapen_AOT/AOT_stimuli/rescaled_final/2179_rv.mp4	0.0	401.57281517982483	2.4920408725738525
61	319.3240261077881	pulse	1	t		59.0	2.5	/experiments/knapen_AOT/AOT_stimuli/rescaled_final/2179_rv.mp4	0.0	401.9575481414795	
61	320.91596698760986	pulse	1	t		59.0	2.5	/experiments/knapen_AOT/AOT_stimuli/rescaled_final/2179_rv.mp4	0.0	403.54948902130127	
61	321.4313340187073	fix_post	2		12	59.0	2.5	/experiments/knapen_AOT/AOT_stimuli/rescaled_final/2179_rv.mp4	0.0	404.0648560523987	0.10001611709594727
62	321.5313501358032	fix_pre	0		120	60.0	2.5	/experiments/knapen_AOT/AOT_stimuli/rescaled_final/1611_rv.mp4	0.0	404.16487216949463	1.000147819519043
62	322.51593112945557	pulse	0	t		60.0	2.5	/experiments/knapen_AOT/AOT_stimuli/rescaled_final/1611_rv.mp4	0.0	405.149453163147	
62	322.53149795532227	movie	1		244	60.0	2.5	/experiments/knapen_AOT/AOT_stimuli/rescaled_final/1611_rv.mp4	0.0	405.1650199890137	2.5087661743164062
62	324.12813115119934	pulse	1	t		60.0	2.5	/experiments/knapen_AOT/AOT_stimuli/rescaled_final/1611_rv.mp4	0.0	406.76165318489075	
62	325.0402641296387	fix_post	2		12	60.0	2.5	/experiments/knapen_AOT/AOT_stimuli/rescaled_final/1611_rv.mp4	0.0	407.6737861633301	0.09995698928833008
63	325.140221118927	fix_pre	0		120	61.0	2.5	/experiments/knapen_AOT/AOT_stimuli/rescaled_final/1039_fw.mp4	0.0	407.7737431526184	1.0001459121704102
63	325.71641302108765	pulse	0	t		61.0	2.5	/experiments/knapen_AOT/AOT_stimuli/rescaled_final/1039_fw.mp4	0.0	408.34993505477905	
63	326.1403670310974	movie	1		244	61.0	2.5	/experiments/knapen_AOT/AOT_stimuli/rescaled_final/1039_fw.mp4	0.0	408.7738890647888	2.5003881454467773
63	327.3163900375366	pulse	1	t		61.0	2.5	/experiments/knapen_AOT/AOT_stimuli/rescaled_final/1039_fw.mp4	0.0	409.949912071228	
63	328.6407551765442	fix_post	2		12	61.0	2.5	/experiments/knapen_AOT/AOT_stimuli/rescaled_final/1039_fw.mp4	0.0	411.2742772102356	0.10003900527954102
64	328.74079418182373	fix_pre	0		120	62.0	2.5	blank	1.0	411.37431621551514	1.0000989437103271
64	328.91600704193115	pulse	0	t		62.0	2.5	blank	1.0	411.54952907562256	
64	329.74089312553406	movie	1		300	62.0	2.5	blank	1.0	412.37441515922546	2.50042986869812
64	330.51618909835815	pulse	1	t		62.0	2.5	blank	1.0	413.14971113204956	
64	332.1165771484375	pulse	1	t		62.0	2.5	blank	1.0	414.7500991821289	
64	332.2413229942322	fix_post	2		12	62.0	2.5	blank	1.0	414.8748450279236	0.09999608993530273
65	332.3413190841675	fix_pre	0		120	63.0	2.5	/experiments/knapen_AOT/AOT_stimuli/rescaled_final/0930_rv.mp4	0.0	414.9748411178589	1.0001530647277832
65	333.34147214889526	movie	1		242	63.0	2.5	/experiments/knapen_AOT/AOT_stimuli/rescaled_final/0930_rv.mp4	0.0	415.97499418258667	2.4920389652252197
65	333.7166690826416	pulse	1	t		63.0	2.5	/experiments/knapen_AOT/AOT_stimuli/rescaled_final/0930_rv.mp4	0.0	416.350191116333	
65	335.31699895858765	pulse	1	t		63.0	2.5	/experiments/knapen_AOT/AOT_stimuli/rescaled_final/0930_rv.mp4	0.0	417.95052099227905	
65	335.8335111141205	fix_post	2		12	63.0	2.5	/experiments/knapen_AOT/AOT_stimuli/rescaled_final/0930_rv.mp4	0.0	418.4670331478119	0.0999908447265625
66	335.93350195884705	fix_pre	0		119	64.0	2.5	/experiments/knapen_AOT/AOT_stimuli/rescaled_final/1438_fw.mp4	0.0	418.56702399253845	0.9918160438537598
66	336.91722416877747	pulse	0	t		64.0	2.5	/experiments/knapen_AOT/AOT_stimuli/rescaled_final/1438_fw.mp4	0.0	419.5507462024689	
66	336.9253180027008	movie	1		245	64.0	2.5	/experiments/knapen_AOT/AOT_stimuli/rescaled_final/1438_fw.mp4	0.0	419.5588400363922	2.5087311267852783
66	338.51864218711853	pulse	1	t		64.0	2.5	/experiments/knapen_AOT/AOT_stimuli/rescaled_final/1438_fw.mp4	0.0	421.15216422080994	
66	339.4340491294861	fix_post	2		12	64.0	2.5	/experiments/knapen_AOT/AOT_stimuli/rescaled_final/1438_fw.mp4	0.0	422.0675711631775	0.10007405281066895
67	339.53412318229675	fix_pre	0		120	65.0	2.5	/experiments/knapen_AOT/AOT_stimuli/rescaled_final/0792_rv.mp4	0.0	422.16764521598816	1.000108003616333
67	340.11770606040955	pulse	0	t		65.0	2.5	/experiments/knapen_AOT/AOT_stimuli/rescaled_final/0792_rv.mp4	0.0	422.75122809410095	
67	340.5342311859131	movie	1		244	65.0	2.5	/experiments/knapen_AOT/AOT_stimuli/rescaled_final/0792_rv.mp4	0.0	423.1677532196045	2.500342845916748
67	341.71796917915344	pulse	1	t		65.0	2.5	/experiments/knapen_AOT/AOT_stimuli/rescaled_final/0792_rv.mp4	0.0	424.35149121284485	
67	343.03457403182983	fix_post	2		12	65.0	2.5	/experiments/knapen_AOT/AOT_stimuli/rescaled_final/0792_rv.mp4	0.0	425.66809606552124	0.10002398490905762
68	343.1345980167389	fix_pre	0		120	66.0	2.5	/experiments/knapen_AOT/AOT_stimuli/rescaled_final/1558_fw.mp4	0.0	425.7681200504303	1.0001659393310547
68	343.31826305389404	pulse	0	t		66.0	2.5	/experiments/knapen_AOT/AOT_stimuli/rescaled_final/1558_fw.mp4	0.0	425.95178508758545	
68	344.13476395606995	movie	1		245	66.0	2.5	/experiments/knapen_AOT/AOT_stimuli/rescaled_final/1558_fw.mp4	0.0	426.76828598976135	2.500373125076294
68	344.91850113868713	pulse	1	t		66.0	2.5	/experiments/knapen_AOT/AOT_stimuli/rescaled_final/1558_fw.mp4	0.0	427.55202317237854	
68	346.5162191390991	pulse	1	t		66.0	2.5	/experiments/knapen_AOT/AOT_stimuli/rescaled_final/1558_fw.mp4	0.0	429.1497411727905	
68	346.63513708114624	fix_post	2		12	66.0	2.5	/experiments/knapen_AOT/AOT_stimuli/rescaled_final/1558_fw.mp4	0.0	429.26865911483765	0.0999600887298584
69	346.7350971698761	fix_pre	0		120	67.0	2.5	/experiments/knapen_AOT/AOT_stimuli/rescaled_final/0246_rv.mp4	0.0	429.3686192035675	1.000173807144165
69	347.73527097702026	movie	1		243	67.0	2.5	/experiments/knapen_AOT/AOT_stimuli/rescaled_final/0246_rv.mp4	0.0	430.36879301071167	2.4921340942382812
69	348.1194500923157	pulse	1	t		67.0	2.5	/experiments/knapen_AOT/AOT_stimuli/rescaled_final/0246_rv.mp4	0.0	430.7529721260071	
69	349.71925616264343	pulse	1	t		67.0	2.5	/experiments/knapen_AOT/AOT_stimuli/rescaled_final/0246_rv.mp4	0.0	432.35277819633484	
69	350.22740507125854	fix_post	2		12	67.0	2.5	/experiments/knapen_AOT/AOT_stimuli/rescaled_final/0246_rv.mp4	0.0	432.86092710494995	0.09993696212768555
70	350.32734203338623	fix_pre	0		120	68.0	2.5	/experiments/knapen_AOT/AOT_stimuli/rescaled_final/1836_rv.mp4	0.0	432.96086406707764	1.0001299381256104
70	351.3194420337677	pulse	0	t		68.0	2.5	/experiments/knapen_AOT/AOT_stimuli/rescaled_final/1836_rv.mp4	0.0	433.9529640674591	
70	351.32747197151184	movie	1		245	68.0	2.5	/experiments/knapen_AOT/AOT_stimuli/rescaled_final/1836_rv.mp4	0.0	433.96099400520325	2.5087950229644775
70	352.9200530052185	pulse	1	t		68.0	2.5	/experiments/knapen_AOT/AOT_stimuli/rescaled_final/1836_rv.mp4	0.0	435.5535750389099	
70	353.8362669944763	fix_post	2		12	68.0	2.5	/experiments/knapen_AOT/AOT_stimuli/rescaled_final/1836_rv.mp4	0.0	436.4697890281677	0.09992098808288574
71	353.9361879825592	fix_pre	0		120	69.0	2.5	/experiments/knapen_AOT/AOT_stimuli/rescaled_final/2017_fw.mp4	0.0	436.5697100162506	1.0001881122589111
71	354.51976704597473	pulse	0	t		69.0	2.5	/experiments/knapen_AOT/AOT_stimuli/rescaled_final/2017_fw.mp4	0.0	437.15328907966614	
71	354.9363760948181	movie	1		245	69.0	2.5	/experiments/knapen_AOT/AOT_stimuli/rescaled_final/2017_fw.mp4	0.0	437.5698981285095	2.500369071960449
71	356.1200940608978	pulse	1	t		69.0	2.5	/experiments/knapen_AOT/AOT_stimuli/rescaled_final/2017_fw.mp4	0.0	438.75361609458923	
71	357.43674516677856	fix_post	2		12	69.0	2.5	/experiments/knapen_AOT/AOT_stimuli/rescaled_final/2017_fw.mp4	0.0	440.07026720046997	0.10000085830688477
72	357.53674602508545	fix_pre	0		120	70.0	2.5	blank	1.0	440.17026805877686	1.0001609325408936
72	357.7204291820526	pulse	0	t		70.0	2.5	blank	1.0	440.353951215744	
72	358.53690695762634	movie	1		300	70.0	2.5	blank	1.0	441.17042899131775	2.500408172607422
72	359.3206021785736	pulse	1	t		70.0	2.5	blank	1.0	441.954124212265	
72	360.9206941127777	pulse	1	t		70.0	2.5	blank	1.0	443.5542161464691	
72	361.03731513023376	fix_post	2		12	70.0	2.5	blank	1.0	443.67083716392517	0.09995388984680176
73	361.13726902008057	fix_pre	0		120	71.0	2.5	/experiments/knapen_AOT/AOT_stimuli/rescaled_final/1410_fw.mp4	0.0	443.770791053772	1.0001890659332275
73	362.1374580860138	movie	1		243	71.0	2.5	/experiments/knapen_AOT/AOT_stimuli/rescaled_final/1410_fw.mp4	0.0	444.7709801197052	2.4920129776000977
73	362.5213351249695	pulse	1	t		71.0	2.5	/experiments/knapen_AOT/AOT_stimuli/rescaled_final/1410_fw.mp4	0.0	445.1548571586609	
73	364.12123107910156	pulse	1	t		71.0	2.5	/experiments/knapen_AOT/AOT_stimuli/rescaled_final/1410_fw.mp4	0.0	446.75475311279297	
73	364.6294710636139	fix_post	2		10	71.0	2.5	/experiments/knapen_AOT/AOT_stimuli/rescaled_final/1410_fw.mp4	0.0	447.2629930973053	0.10002493858337402
74	364.72949600219727	fix_pre	0		120	72.0	2.5	/experiments/knapen_AOT/AOT_stimuli/rescaled_final/0796_rv.mp4	0.0	447.3630180358887	1.0001420974731445
74	365.7215850353241	pulse	0	t		72.0	2.5	/experiments/knapen_AOT/AOT_stimuli/rescaled_final/0796_rv.mp4	0.0	448.3551070690155	
74	365.7296380996704	movie	1		244	72.0	2.5	/experiments/knapen_AOT/AOT_stimuli/rescaled_final/0796_rv.mp4	0.0	448.3631601333618	2.5087149143218994
74	367.32238507270813	pulse	1	t		72.0	2.5	/experiments/knapen_AOT/AOT_stimuli/rescaled_final/0796_rv.mp4	0.0	449.95590710639954	
74	368.2383530139923	fix_post	2		12	72.0	2.5	/experiments/knapen_AOT/AOT_stimuli/rescaled_final/0796_rv.mp4	0.0	450.8718750476837	0.1000821590423584
75	368.33843517303467	fix_pre	0		120	73.0	2.5	/experiments/knapen_AOT/AOT_stimuli/rescaled_final/0105_rv.mp4	0.0	450.9719572067261	1.0000839233398438
75	368.92201805114746	pulse	0	t		73.0	2.5	/experiments/knapen_AOT/AOT_stimuli/rescaled_final/0105_rv.mp4	0.0	451.55554008483887	
75	369.3385190963745	movie	1		244	73.0	2.5	/experiments/knapen_AOT/AOT_stimuli/rescaled_final/0105_rv.mp4	0.0	451.9720411300659	2.5003669261932373
75	370.5154800415039	pulse	1	t		73.0	2.5	/experiments/knapen_AOT/AOT_stimuli/rescaled_final/0105_rv.mp4	0.0	453.1490020751953	
75	371.83888602256775	fix_post	2		12	73.0	2.5	/experiments/knapen_AOT/AOT_stimuli/rescaled_final/0105_rv.mp4	0.0	454.47240805625916	0.10003304481506348
76	371.9389190673828	fix_pre	0		120	74.0	2.5	/experiments/knapen_AOT/AOT_stimuli/rescaled_final/1252_rv.mp4	0.0	454.5724411010742	1.0001249313354492
76	372.1225481033325	pulse	0	t		74.0	2.5	/experiments/knapen_AOT/AOT_stimuli/rescaled_final/1252_rv.mp4	0.0	454.7560701370239	
76	372.93904399871826	movie	1		243	74.0	2.5	/experiments/knapen_AOT/AOT_stimuli/rescaled_final/1252_rv.mp4	0.0	455.57256603240967	2.50039005279541
76	373.7227680683136	pulse	1	t		74.0	2.5	/experiments/knapen_AOT/AOT_stimuli/rescaled_final/1252_rv.mp4	0.0	456.356290102005	
76	375.3231041431427	pulse	1	t		74.0	2.5	/experiments/knapen_AOT/AOT_stimuli/rescaled_final/1252_rv.mp4	0.0	457.9566261768341	
76	375.4394340515137	fix_post	2		12	74.0	2.5	/experiments/knapen_AOT/AOT_stimuli/rescaled_final/1252_rv.mp4	0.0	458.0729560852051	0.10000801086425781
77	375.53944206237793	fix_pre	0		120	75.0	2.5	blank	1.0	458.17296409606934	1.0001349449157715
77	376.5395770072937	movie	1		299	75.0	2.5	blank	1.0	459.1730990409851	2.4920711517333984
77	376.91554713249207	pulse	1	t		75.0	2.5	blank	1.0	459.5490691661835	
77	378.5159420967102	pulse	1	t		75.0	2.5	blank	1.0	461.1494641304016	
77	379.0316481590271	fix_post	2		12	75.0	2.5	blank	1.0	461.6651701927185	0.10002493858337402
78	379.1316730976105	fix_pre	0		120	76.0	2.5	/experiments/knapen_AOT/AOT_stimuli/rescaled_final/1531_rv.mp4	0.0	461.7651951313019	1.0001258850097656
78	380.1161000728607	pulse	0	t		76.0	2.5	/experiments/knapen_AOT/AOT_stimuli/rescaled_final/1531_rv.mp4	0.0	462.7496221065521	
78	380.13179898262024	movie	1		246	76.0	2.5	/experiments/knapen_AOT/AOT_stimuli/rescaled_final/1531_rv.mp4	0.0	462.76532101631165	2.508679151535034
78	381.71570014953613	pulse	1	t		76.0	2.5	/experiments/knapen_AOT/AOT_stimuli/rescaled_final/1531_rv.mp4	0.0	464.34922218322754	
78	382.6404781341553	fix_post	2		12	76.0	2.5	/experiments/knapen_AOT/AOT_stimuli/rescaled_final/1531_rv.mp4	0.0	465.2740001678467	0.10002684593200684
79	382.7405049800873	fix_pre	0		120	77.0	2.5	/experiments/knapen_AOT/AOT_stimuli/rescaled_final/0891_fw.mp4	0.0	465.3740270137787	1.000150203704834
79	383.31571316719055	pulse	0	t		77.0	2.5	/experiments/knapen_AOT/AOT_stimuli/rescaled_final/0891_fw.mp4	0.0	465.94923520088196	
79	383.7406551837921	movie	1		243	77.0	2.5	/experiments/knapen_AOT/AOT_stimuli/rescaled_final/0891_fw.mp4	0.0	466.3741772174835	2.5003738403320312
79	384.9166271686554	pulse	1	t		77.0	2.5	/experiments/knapen_AOT/AOT_stimuli/rescaled_final/0891_fw.mp4	0.0	467.5501492023468	
79	386.24102902412415	fix_post	2		12	77.0	2.5	/experiments/knapen_AOT/AOT_stimuli/rescaled_final/0891_fw.mp4	0.0	468.87455105781555	0.10003900527954102
80	386.3410680294037	fix_pre	0		120	78.0	2.5	/experiments/knapen_AOT/AOT_stimuli/rescaled_final/0736_rv.mp4	0.0	468.9745900630951	1.0001530647277832
80	386.5164740085602	pulse	0	t		78.0	2.5	/experiments/knapen_AOT/AOT_stimuli/rescaled_final/0736_rv.mp4	0.0	469.1499960422516	
80	387.34122109413147	movie	1		245	78.0	2.5	/experiments/knapen_AOT/AOT_stimuli/rescaled_final/0736_rv.mp4	0.0	469.9747431278229	2.5003418922424316
80	388.1165201663971	pulse	1	t		78.0	2.5	/experiments/knapen_AOT/AOT_stimuli/rescaled_final/0736_rv.mp4	0.0	470.7500422000885	
80	389.71675395965576	pulse	1	t		78.0	2.5	/experiments/knapen_AOT/AOT_stimuli/rescaled_final/0736_rv.mp4	0.0	472.35027599334717	
80	389.8415629863739	fix_post	2		12	78.0	2.5	/experiments/knapen_AOT/AOT_stimuli/rescaled_final/0736_rv.mp4	0.0	472.4750850200653	0.09999608993530273
81	389.9415590763092	fix_pre	0		119	79.0	2.5	/experiments/knapen_AOT/AOT_stimuli/rescaled_final/0495_fw.mp4	0.0	472.5750811100006	0.9918680191040039
81	390.9334270954132	movie	1		245	79.0	2.5	/experiments/knapen_AOT/AOT_stimuli/rescaled_final/0495_fw.mp4	0.0	473.5669491291046	2.5003879070281982
81	391.3176670074463	pulse	1	t		79.0	2.5	/experiments/knapen_AOT/AOT_stimuli/rescaled_final/0495_fw.mp4	0.0	473.9511890411377	
81	392.9172201156616	pulse	1	t		79.0	2.5	/experiments/knapen_AOT/AOT_stimuli/rescaled_final/0495_fw.mp4	0.0	475.550742149353	
81	393.4338150024414	fix_post	2		12	79.0	2.5	/experiments/knapen_AOT/AOT_stimuli/rescaled_final/0495_fw.mp4	0.0	476.0673370361328	0.10004997253417969
82	393.5338649749756	fix_pre	0		119	80.0	2.5	/experiments/knapen_AOT/AOT_stimuli/rescaled_final/1598_fw.mp4	0.0	476.167387008667	0.9917261600494385
82	394.5174961090088	pulse	0	t		80.0	2.5	/experiments/knapen_AOT/AOT_stimuli/rescaled_final/1598_fw.mp4	0.0	477.1510181427002	
82	394.525591135025	movie	1		246	80.0	2.5	/experiments/knapen_AOT/AOT_stimuli/rescaled_final/1598_fw.mp4	0.0	477.15911316871643	2.5087368488311768
82	396.1181859970093	pulse	1	t		80.0	2.5	/experiments/knapen_AOT/AOT_stimuli/rescaled_final/1598_fw.mp4	0.0	478.7517080307007	
82	397.0343279838562	fix_post	2		12	80.0	2.5	/experiments/knapen_AOT/AOT_stimuli/rescaled_final/1598_fw.mp4	0.0	479.6678500175476	0.0999910831451416
83	397.13431906700134	fix_pre	0		120	81.0	2.5	/experiments/knapen_AOT/AOT_stimuli/rescaled_final/0105_rv.mp4	0.0	479.76784110069275	1.0001959800720215
83	397.71796011924744	pulse	0	t		81.0	2.5	/experiments/knapen_AOT/AOT_stimuli/rescaled_final/0105_rv.mp4	0.0	480.35148215293884	
83	398.13451504707336	movie	1		244	81.0	2.5	/experiments/knapen_AOT/AOT_stimuli/rescaled_final/0105_rv.mp4	0.0	480.76803708076477	2.500373125076294
83	399.3183000087738	pulse	1	t		81.0	2.5	/experiments/knapen_AOT/AOT_stimuli/rescaled_final/0105_rv.mp4	0.0	481.9518220424652	
83	400.63488817214966	fix_post	2		12	81.0	2.5	/experiments/knapen_AOT/AOT_stimuli/rescaled_final/0105_rv.mp4	0.0	483.26841020584106	0.09997200965881348
84	400.7348601818085	fix_pre	0		120	82.0	2.5	blank	1.0	483.3683822154999	1.0001449584960938
84	400.91842317581177	pulse	0	t		82.0	2.5	blank	1.0	483.5519452095032	
84	401.73500514030457	movie	1		300	82.0	2.5	blank	1.0	484.368527173996	2.5003578662872314
84	402.5186200141907	pulse	1	t		82.0	2.5	blank	1.0	485.1521420478821	
84	404.11893010139465	pulse	1	t		82.0	2.5	blank	1.0	486.75245213508606	
84	404.2353630065918	fix_post	2		12	82.0	2.5	blank	1.0	486.8688850402832	0.10004115104675293
85	404.33540415763855	fix_pre	0		120	83.0	2.5	/experiments/knapen_AOT/AOT_stimuli/rescaled_final/1190_fw.mp4	0.0	486.96892619132996	1.0001559257507324
85	405.3355600833893	movie	1		244	83.0	2.5	/experiments/knapen_AOT/AOT_stimuli/rescaled_final/1190_fw.mp4	0.0	487.9690821170807	2.492033004760742
85	405.719514131546	pulse	1	t		83.0	2.5	/experiments/knapen_AOT/AOT_stimuli/rescaled_final/1190_fw.mp4	0.0	488.3530361652374	
85	407.31947207450867	pulse	1	t		83.0	2.5	/experiments/knapen_AOT/AOT_stimuli/rescaled_final/1190_fw.mp4	0.0	489.9529941082001	
85	407.82759308815	fix_post	2		12	83.0	2.5	/experiments/knapen_AOT/AOT_stimuli/rescaled_final/1190_fw.mp4	0.0	490.46111512184143	0.10003399848937988
87	407.9276270866394	stim	0		1716					490.5611491203308	14.302201986312866
87	408.91963815689087	pulse	0	t						491.5531601905823	
87	410.51983404159546	pulse	0	t						493.15335607528687	
87	412.1200931072235	pulse	0	t						494.7536151409149	
87	413.7204110622406	pulse	0	t						496.353933095932	
87	415.32053303718567	pulse	0	t						497.9540550708771	
87	416.9207651615143	pulse	0	t						499.5542871952057	
87	418.5211021900177	pulse	0	t						501.1546242237091	
87	420.12131810188293	pulse	0	t						502.75484013557434	
87	421.72157406806946	pulse	0	t						504.35509610176086	
