trial_nr	onset	event_type	phase	response	nr_frames	movie_index	movie_duration	movie_file	blank	onset_abs	duration
0	0.20822405815124512	stim	0		68					22.92896819114685	0.5666608810424805
0	0.7667548656463623	response	0	space						23.487498998641968	
1	0.7748849391937256	stim	0		3502					23.49562907218933	29.19768500328064
1	29.962440967559814	pulse	0	t						52.68318510055542	
1	29.972569942474365	stim	1		1716					52.69331407546997	14.300504922866821
1	31.55481195449829	pulse	1	t						54.2755560874939	
1	33.1550018787384	pulse	1	t						55.87574601173401	
1	34.75513792037964	pulse	1	t						57.475882053375244	
1	36.355401039123535	pulse	1	t						59.07614517211914	
1	37.95568299293518	pulse	1	t						60.676427125930786	
1	39.5559458732605	pulse	1	t						62.2766900062561	
1	41.156038999557495	pulse	1	t						63.8767831325531	
1	42.75640892982483	pulse	1	t						65.47715306282043	
2	44.27307486534119	fix_pre	0		11	0.0	2.5	/experiments/knapen_AOT/AOT_stimuli/rescaled_final/0115_fw.mp4	0.0	66.99381899833679	0.10015702247619629
2	44.356574058532715	pulse	0	t		0.0	2.5	/experiments/knapen_AOT/AOT_stimuli/rescaled_final/0115_fw.mp4	0.0	67.07731819152832	
2	44.37323188781738	movie	1		244	0.0	2.5	/experiments/knapen_AOT/AOT_stimuli/rescaled_final/0115_fw.mp4	0.0	67.09397602081299	2.5002100467681885
2	45.961590051651	pulse	1	t		0.0	2.5	/experiments/knapen_AOT/AOT_stimuli/rescaled_final/0115_fw.mp4	0.0	68.6823341846466	
2	46.87344193458557	fix_post	2		12	0.0	2.5	/experiments/knapen_AOT/AOT_stimuli/rescaled_final/0115_fw.mp4	0.0	69.59418606758118	0.09999895095825195
3	46.97344088554382	fix_pre	0		120	1.0	2.5	/experiments/knapen_AOT/AOT_stimuli/rescaled_final/2048_fw.mp4	0.0	69.69418501853943	1.0001420974731445
3	47.55715298652649	pulse	0	t		1.0	2.5	/experiments/knapen_AOT/AOT_stimuli/rescaled_final/2048_fw.mp4	0.0	70.2778971195221	
3	47.97358298301697	movie	1		243	1.0	2.5	/experiments/knapen_AOT/AOT_stimuli/rescaled_final/2048_fw.mp4	0.0	70.69432711601257	2.5003769397735596
3	49.15740990638733	pulse	1	t		1.0	2.5	/experiments/knapen_AOT/AOT_stimuli/rescaled_final/2048_fw.mp4	0.0	71.87815403938293	
3	50.47395992279053	fix_post	2		12	1.0	2.5	/experiments/knapen_AOT/AOT_stimuli/rescaled_final/2048_fw.mp4	0.0	73.19470405578613	0.10007309913635254
4	50.57403302192688	fix_pre	0		120	2.0	2.5	/experiments/knapen_AOT/AOT_stimuli/rescaled_final/0766_fw.mp4	0.0	73.29477715492249	1.000126838684082
4	50.757606983184814	pulse	0	t		2.0	2.5	/experiments/knapen_AOT/AOT_stimuli/rescaled_final/0766_fw.mp4	0.0	73.47835111618042	
4	51.57415986061096	movie	1		245	2.0	2.5	/experiments/knapen_AOT/AOT_stimuli/rescaled_final/0766_fw.mp4	0.0	74.29490399360657	2.5003490447998047
4	52.35792684555054	pulse	1	t		2.0	2.5	/experiments/knapen_AOT/AOT_stimuli/rescaled_final/0766_fw.mp4	0.0	75.07867097854614	
4	53.955925941467285	pulse	1	t		2.0	2.5	/experiments/knapen_AOT/AOT_stimuli/rescaled_final/0766_fw.mp4	0.0	76.67667007446289	
4	54.07450890541077	fix_post	2		12	2.0	2.5	/experiments/knapen_AOT/AOT_stimuli/rescaled_final/0766_fw.mp4	0.0	76.79525303840637	0.10004305839538574
5	54.17455196380615	fix_pre	0		120	3.0	2.5	/experiments/knapen_AOT/AOT_stimuli/rescaled_final/0259_rv.mp4	0.0	76.89529609680176	1.0001161098480225
5	55.174668073654175	movie	1		243	3.0	2.5	/experiments/knapen_AOT/AOT_stimuli/rescaled_final/0259_rv.mp4	0.0	77.89541220664978	2.492048978805542
5	55.558876037597656	pulse	1	t		3.0	2.5	/experiments/knapen_AOT/AOT_stimuli/rescaled_final/0259_rv.mp4	0.0	78.27962017059326	
5	57.158565044403076	pulse	1	t		3.0	2.5	/experiments/knapen_AOT/AOT_stimuli/rescaled_final/0259_rv.mp4	0.0	79.87930917739868	
5	57.66671705245972	fix_post	2		12	3.0	2.5	/experiments/knapen_AOT/AOT_stimuli/rescaled_final/0259_rv.mp4	0.0	80.38746118545532	0.1000058650970459
6	57.76672291755676	fix_pre	0		120	4.0	2.5	/experiments/knapen_AOT/AOT_stimuli/rescaled_final/0174_rv.mp4	0.0	80.48746705055237	1.0001821517944336
6	58.758728981018066	pulse	0	t		4.0	2.5	/experiments/knapen_AOT/AOT_stimuli/rescaled_final/0174_rv.mp4	0.0	81.47947311401367	
6	58.766905069351196	movie	1		245	4.0	2.5	/experiments/knapen_AOT/AOT_stimuli/rescaled_final/0174_rv.mp4	0.0	81.4876492023468	2.5087008476257324
6	60.36077284812927	pulse	1	t		4.0	2.5	/experiments/knapen_AOT/AOT_stimuli/rescaled_final/0174_rv.mp4	0.0	83.08151698112488	
6	61.27560591697693	fix_post	2		12	4.0	2.5	/experiments/knapen_AOT/AOT_stimuli/rescaled_final/0174_rv.mp4	0.0	83.99635004997253	0.10000300407409668
7	61.375608921051025	fix_pre	0		120	5.0	2.5	/experiments/knapen_AOT/AOT_stimuli/rescaled_final/0693_rv.mp4	0.0	84.09635305404663	1.0001509189605713
7	61.959229946136475	pulse	0	t		5.0	2.5	/experiments/knapen_AOT/AOT_stimuli/rescaled_final/0693_rv.mp4	0.0	84.67997407913208	
7	62.3757598400116	movie	1		243	5.0	2.5	/experiments/knapen_AOT/AOT_stimuli/rescaled_final/0693_rv.mp4	0.0	85.0965039730072	2.500380039215088
7	63.5525689125061	pulse	1	t		5.0	2.5	/experiments/knapen_AOT/AOT_stimuli/rescaled_final/0693_rv.mp4	0.0	86.27331304550171	
7	64.87613987922668	fix_post	2		12	5.0	2.5	/experiments/knapen_AOT/AOT_stimuli/rescaled_final/0693_rv.mp4	0.0	87.59688401222229	0.1000220775604248
8	64.97616195678711	fix_pre	0		120	6.0	2.5	/experiments/knapen_AOT/AOT_stimuli/rescaled_final/2094_rv.mp4	0.0	87.69690608978271	1.0002069473266602
8	65.15242791175842	pulse	0	t		6.0	2.5	/experiments/knapen_AOT/AOT_stimuli/rescaled_final/2094_rv.mp4	0.0	87.87317204475403	
8	65.97636890411377	movie	1		244	6.0	2.5	/experiments/knapen_AOT/AOT_stimuli/rescaled_final/2094_rv.mp4	0.0	88.69711303710938	2.50032114982605
8	66.75252199172974	pulse	1	t		6.0	2.5	/experiments/knapen_AOT/AOT_stimuli/rescaled_final/2094_rv.mp4	0.0	89.47326612472534	
8	68.36016201972961	pulse	1	t		6.0	2.5	/experiments/knapen_AOT/AOT_stimuli/rescaled_final/2094_rv.mp4	0.0	91.08090615272522	
8	68.47669005393982	fix_post	2		12	6.0	2.5	/experiments/knapen_AOT/AOT_stimuli/rescaled_final/2094_rv.mp4	0.0	91.19743418693542	0.10002589225769043
9	68.57671594619751	fix_pre	0		119	7.0	2.5	blank	1.0	91.29746007919312	0.9917991161346436
9	69.56851506233215	movie	1		300	7.0	2.5	blank	1.0	92.28925919532776	2.5003697872161865
9	69.95216798782349	pulse	1	t		7.0	2.5	blank	1.0	92.67291212081909	
9	71.55227088928223	pulse	1	t		7.0	2.5	blank	1.0	94.27301502227783	
9	72.06888484954834	fix_post	2		12	7.0	2.5	blank	1.0	94.78962898254395	0.10002899169921875
10	72.16891384124756	fix_pre	0		119	8.0	2.5	/experiments/knapen_AOT/AOT_stimuli/rescaled_final/1215_fw.mp4	0.0	94.88965797424316	0.9918050765991211
10	73.1526129245758	pulse	0	t		8.0	2.5	/experiments/knapen_AOT/AOT_stimuli/rescaled_final/1215_fw.mp4	0.0	95.87335705757141	
10	73.16071891784668	movie	1		246	8.0	2.5	/experiments/knapen_AOT/AOT_stimuli/rescaled_final/1215_fw.mp4	0.0	95.88146305084229	2.5087239742279053
10	74.75339007377625	pulse	1	t		8.0	2.5	/experiments/knapen_AOT/AOT_stimuli/rescaled_final/1215_fw.mp4	0.0	97.47413420677185	
10	75.66944289207458	fix_post	2		12	8.0	2.5	/experiments/knapen_AOT/AOT_stimuli/rescaled_final/1215_fw.mp4	0.0	98.39018702507019	0.0999901294708252
11	75.76943302154541	fix_pre	0		120	9.0	2.5	/experiments/knapen_AOT/AOT_stimuli/rescaled_final/0148_fw.mp4	0.0	98.49017715454102	1.0001659393310547
11	76.35298705101013	pulse	0	t		9.0	2.5	/experiments/knapen_AOT/AOT_stimuli/rescaled_final/0148_fw.mp4	0.0	99.07373118400574	
11	76.76959896087646	movie	1		242	9.0	2.5	/experiments/knapen_AOT/AOT_stimuli/rescaled_final/0148_fw.mp4	0.0	99.49034309387207	2.500335931777954
11	77.95345902442932	pulse	1	t		9.0	2.5	/experiments/knapen_AOT/AOT_stimuli/rescaled_final/0148_fw.mp4	0.0	100.67420315742493	
11	79.26993489265442	fix_post	2		12	9.0	2.5	/experiments/knapen_AOT/AOT_stimuli/rescaled_final/0148_fw.mp4	0.0	101.99067902565002	0.10002994537353516
12	79.36996483802795	fix_pre	0		120	10.0	2.5	/experiments/knapen_AOT/AOT_stimuli/rescaled_final/1736_fw.mp4	0.0	102.09070897102356	1.0001590251922607
12	79.55348587036133	pulse	0	t		10.0	2.5	/experiments/knapen_AOT/AOT_stimuli/rescaled_final/1736_fw.mp4	0.0	102.27423000335693	
12	80.37012386322021	movie	1		243	10.0	2.5	/experiments/knapen_AOT/AOT_stimuli/rescaled_final/1736_fw.mp4	0.0	103.09086799621582	2.500343084335327
12	81.15384793281555	pulse	1	t		10.0	2.5	/experiments/knapen_AOT/AOT_stimuli/rescaled_final/1736_fw.mp4	0.0	103.87459206581116	
12	82.75401997566223	pulse	1	t		10.0	2.5	/experiments/knapen_AOT/AOT_stimuli/rescaled_final/1736_fw.mp4	0.0	105.47476410865784	
12	82.87046694755554	fix_post	2		12	10.0	2.5	/experiments/knapen_AOT/AOT_stimuli/rescaled_final/1736_fw.mp4	0.0	105.59121108055115	0.10003495216369629
13	82.97050189971924	fix_pre	0		120	11.0	2.5	/experiments/knapen_AOT/AOT_stimuli/rescaled_final/0272_fw.mp4	0.0	105.69124603271484	1.000157117843628
13	83.97065901756287	movie	1		243	11.0	2.5	/experiments/knapen_AOT/AOT_stimuli/rescaled_final/0272_fw.mp4	0.0	106.69140315055847	2.492029905319214
13	84.35484504699707	pulse	1	t		11.0	2.5	/experiments/knapen_AOT/AOT_stimuli/rescaled_final/0272_fw.mp4	0.0	107.07558917999268	
13	85.9545168876648	pulse	1	t		11.0	2.5	/experiments/knapen_AOT/AOT_stimuli/rescaled_final/0272_fw.mp4	0.0	108.6752610206604	
13	86.46268892288208	fix_post	2		12	11.0	2.5	/experiments/knapen_AOT/AOT_stimuli/rescaled_final/0272_fw.mp4	0.0	109.18343305587769	0.09999608993530273
14	86.56268501281738	fix_pre	0		120	12.0	2.5	blank	1.0	109.28342914581299	1.0001578330993652
14	87.55477905273438	pulse	0	t		12.0	2.5	blank	1.0	110.27552318572998	
14	87.56284284591675	movie	1		301	12.0	2.5	blank	1.0	110.28358697891235	2.5087201595306396
14	89.15499687194824	pulse	1	t		12.0	2.5	blank	1.0	111.87574100494385	
14	90.07156300544739	fix_post	2		12	12.0	2.5	blank	1.0	112.792307138443	0.10000491142272949
15	90.17156791687012	fix_pre	0		120	13.0	2.5	/experiments/knapen_AOT/AOT_stimuli/rescaled_final/0741_rv.mp4	0.0	112.89231204986572	1.000157117843628
15	90.75524592399597	pulse	0	t		13.0	2.5	/experiments/knapen_AOT/AOT_stimuli/rescaled_final/0741_rv.mp4	0.0	113.47599005699158	
15	91.17172503471375	movie	1		245	13.0	2.5	/experiments/knapen_AOT/AOT_stimuli/rescaled_final/0741_rv.mp4	0.0	113.89246916770935	2.5003509521484375
15	92.35565996170044	pulse	1	t		13.0	2.5	/experiments/knapen_AOT/AOT_stimuli/rescaled_final/0741_rv.mp4	0.0	115.07640409469604	
15	93.67207598686218	fix_post	2		12	13.0	2.5	/experiments/knapen_AOT/AOT_stimuli/rescaled_final/0741_rv.mp4	0.0	116.39282011985779	0.10009193420410156
16	93.77216792106628	fix_pre	0		120	14.0	2.5	/experiments/knapen_AOT/AOT_stimuli/rescaled_final/0621_rv.mp4	0.0	116.49291205406189	1.0001070499420166
16	93.9557888507843	pulse	0	t		14.0	2.5	/experiments/knapen_AOT/AOT_stimuli/rescaled_final/0621_rv.mp4	0.0	116.67653298377991	
16	94.7722749710083	movie	1		243	14.0	2.5	/experiments/knapen_AOT/AOT_stimuli/rescaled_final/0621_rv.mp4	0.0	117.4930191040039	2.50034499168396
16	95.55601096153259	pulse	1	t		14.0	2.5	/experiments/knapen_AOT/AOT_stimuli/rescaled_final/0621_rv.mp4	0.0	118.2767550945282	
16	97.15623998641968	pulse	1	t		14.0	2.5	/experiments/knapen_AOT/AOT_stimuli/rescaled_final/0621_rv.mp4	0.0	119.87698411941528	
16	97.27261996269226	fix_post	2		12	14.0	2.5	/experiments/knapen_AOT/AOT_stimuli/rescaled_final/0621_rv.mp4	0.0	119.99336409568787	0.1000359058380127
17	97.37265586853027	fix_pre	0		120	15.0	2.5	/experiments/knapen_AOT/AOT_stimuli/rescaled_final/1548_fw.mp4	0.0	120.09340000152588	1.0001471042633057
17	98.37280297279358	movie	1		243	15.0	2.5	/experiments/knapen_AOT/AOT_stimuli/rescaled_final/1548_fw.mp4	0.0	121.09354710578918	2.492042064666748
17	98.75697493553162	pulse	1	t		15.0	2.5	/experiments/knapen_AOT/AOT_stimuli/rescaled_final/1548_fw.mp4	0.0	121.47771906852722	
17	100.35660791397095	pulse	1	t		15.0	2.5	/experiments/knapen_AOT/AOT_stimuli/rescaled_final/1548_fw.mp4	0.0	123.07735204696655	
17	100.86484503746033	fix_post	2		12	15.0	2.5	/experiments/knapen_AOT/AOT_stimuli/rescaled_final/1548_fw.mp4	0.0	123.58558917045593	0.10001587867736816
18	100.9648609161377	fix_pre	0		120	16.0	2.5	/experiments/knapen_AOT/AOT_stimuli/rescaled_final/0391_rv.mp4	0.0	123.6856050491333	1.0001180171966553
18	101.95702695846558	pulse	0	t		16.0	2.5	/experiments/knapen_AOT/AOT_stimuli/rescaled_final/0391_rv.mp4	0.0	124.67777109146118	
18	101.96497893333435	movie	1		247	16.0	2.5	/experiments/knapen_AOT/AOT_stimuli/rescaled_final/0391_rv.mp4	0.0	124.68572306632996	2.508760929107666
18	103.55824089050293	pulse	1	t		16.0	2.5	/experiments/knapen_AOT/AOT_stimuli/rescaled_final/0391_rv.mp4	0.0	126.27898502349854	
18	104.47373986244202	fix_post	2		12	16.0	2.5	/experiments/knapen_AOT/AOT_stimuli/rescaled_final/0391_rv.mp4	0.0	127.19448399543762	0.10002303123474121
19	104.57376289367676	fix_pre	0		120	17.0	2.5	/experiments/knapen_AOT/AOT_stimuli/rescaled_final/1367_fw.mp4	0.0	127.29450702667236	1.0001251697540283
19	105.15732407569885	pulse	0	t		17.0	2.5	/experiments/knapen_AOT/AOT_stimuli/rescaled_final/1367_fw.mp4	0.0	127.87806820869446	
19	105.57388806343079	movie	1		244	17.0	2.5	/experiments/knapen_AOT/AOT_stimuli/rescaled_final/1367_fw.mp4	0.0	128.2946321964264	2.5003910064697266
19	106.757817029953	pulse	1	t		17.0	2.5	/experiments/knapen_AOT/AOT_stimuli/rescaled_final/1367_fw.mp4	0.0	129.4785611629486	
19	108.07427906990051	fix_post	2		12	17.0	2.5	/experiments/knapen_AOT/AOT_stimuli/rescaled_final/1367_fw.mp4	0.0	130.79502320289612	0.1000208854675293
20	108.17429995536804	fix_pre	0		120	18.0	2.5	/experiments/knapen_AOT/AOT_stimuli/rescaled_final/0765_rv.mp4	0.0	130.89504408836365	1.000166893005371
20	108.35788106918335	pulse	0	t		18.0	2.5	/experiments/knapen_AOT/AOT_stimuli/rescaled_final/0765_rv.mp4	0.0	131.07862520217896	
20	109.17446684837341	movie	1		246	18.0	2.5	/experiments/knapen_AOT/AOT_stimuli/rescaled_final/0765_rv.mp4	0.0	131.89521098136902	2.500317096710205
20	109.95816802978516	pulse	1	t		18.0	2.5	/experiments/knapen_AOT/AOT_stimuli/rescaled_final/0765_rv.mp4	0.0	132.67891216278076	
20	111.55844688415527	pulse	1	t		18.0	2.5	/experiments/knapen_AOT/AOT_stimuli/rescaled_final/0765_rv.mp4	0.0	134.27919101715088	
20	111.67478394508362	fix_post	2		12	18.0	2.5	/experiments/knapen_AOT/AOT_stimuli/rescaled_final/0765_rv.mp4	0.0	134.39552807807922	0.10000300407409668
21	111.77478694915771	fix_pre	0		120	19.0	2.5	blank	1.0	134.49553108215332	1.0001640319824219
21	112.77495098114014	movie	1		299	19.0	2.5	blank	1.0	135.49569511413574	2.4920389652252197
21	113.15864896774292	pulse	1	t		19.0	2.5	blank	1.0	135.87939310073853	
21	114.75886487960815	pulse	1	t		19.0	2.5	blank	1.0	137.47960901260376	
21	115.26698994636536	fix_post	2		12	19.0	2.5	blank	1.0	137.98773407936096	0.0999898910522461
22	115.3669798374176	fix_pre	0		120	20.0	2.5	/experiments/knapen_AOT/AOT_stimuli/rescaled_final/0029_fw.mp4	0.0	138.0877239704132	1.0001630783081055
22	116.35153794288635	pulse	0	t		20.0	2.5	/experiments/knapen_AOT/AOT_stimuli/rescaled_final/0029_fw.mp4	0.0	139.07228207588196	
22	116.36714291572571	movie	1		246	20.0	2.5	/experiments/knapen_AOT/AOT_stimuli/rescaled_final/0029_fw.mp4	0.0	139.0878870487213	2.5087151527404785
22	117.959725856781	pulse	1	t		20.0	2.5	/experiments/knapen_AOT/AOT_stimuli/rescaled_final/0029_fw.mp4	0.0	140.6804699897766	
22	118.87585806846619	fix_post	2		12	20.0	2.5	/experiments/knapen_AOT/AOT_stimuli/rescaled_final/0029_fw.mp4	0.0	141.5966022014618	0.10000991821289062
23	118.97586798667908	fix_pre	0		120	21.0	2.5	/experiments/knapen_AOT/AOT_stimuli/rescaled_final/0235_fw.mp4	0.0	141.69661211967468	1.0001790523529053
23	119.5519049167633	pulse	0	t		21.0	2.5	/experiments/knapen_AOT/AOT_stimuli/rescaled_final/0235_fw.mp4	0.0	142.2726490497589	
23	119.97604703903198	movie	1		245	21.0	2.5	/experiments/knapen_AOT/AOT_stimuli/rescaled_final/0235_fw.mp4	0.0	142.6967911720276	2.5003750324249268
23	121.15204191207886	pulse	1	t		21.0	2.5	/experiments/knapen_AOT/AOT_stimuli/rescaled_final/0235_fw.mp4	0.0	143.87278604507446	
23	122.47642207145691	fix_post	2		12	21.0	2.5	/experiments/knapen_AOT/AOT_stimuli/rescaled_final/0235_fw.mp4	0.0	145.19716620445251	0.10001182556152344
24	122.57643389701843	fix_pre	0		120	22.0	2.5	/experiments/knapen_AOT/AOT_stimuli/rescaled_final/1194_fw.mp4	0.0	145.29717803001404	1.0001189708709717
24	122.75179696083069	pulse	0	t		22.0	2.5	/experiments/knapen_AOT/AOT_stimuli/rescaled_final/1194_fw.mp4	0.0	145.4725410938263	
24	123.5765528678894	movie	1		247	22.0	2.5	/experiments/knapen_AOT/AOT_stimuli/rescaled_final/1194_fw.mp4	0.0	146.297297000885	2.5003740787506104
24	124.35186195373535	pulse	1	t		22.0	2.5	/experiments/knapen_AOT/AOT_stimuli/rescaled_final/1194_fw.mp4	0.0	147.07260608673096	
24	125.95216584205627	pulse	1	t		22.0	2.5	/experiments/knapen_AOT/AOT_stimuli/rescaled_final/1194_fw.mp4	0.0	148.67290997505188	
24	126.07692694664001	fix_post	2		12	22.0	2.5	/experiments/knapen_AOT/AOT_stimuli/rescaled_final/1194_fw.mp4	0.0	148.79767107963562	0.10001111030578613
25	126.1769380569458	fix_pre	0		119	23.0	2.5	/experiments/knapen_AOT/AOT_stimuli/rescaled_final/0013_rv.mp4	0.0	148.8976821899414	0.9918298721313477
25	127.16876792907715	movie	1		244	23.0	2.5	/experiments/knapen_AOT/AOT_stimuli/rescaled_final/0013_rv.mp4	0.0	149.88951206207275	2.5003700256347656
25	127.55295586585999	pulse	1	t		23.0	2.5	/experiments/knapen_AOT/AOT_stimuli/rescaled_final/0013_rv.mp4	0.0	150.2736999988556	
25	129.15258884429932	pulse	1	t		23.0	2.5	/experiments/knapen_AOT/AOT_stimuli/rescaled_final/0013_rv.mp4	0.0	151.87333297729492	
25	129.6691379547119	fix_post	2		12	23.0	2.5	/experiments/knapen_AOT/AOT_stimuli/rescaled_final/0013_rv.mp4	0.0	152.38988208770752	0.10004591941833496
26	129.76918387413025	fix_pre	0		119	24.0	2.5	/experiments/knapen_AOT/AOT_stimuli/rescaled_final/0357_rv.mp4	0.0	152.48992800712585	0.9917490482330322
26	130.75288605690002	pulse	0	t		24.0	2.5	/experiments/knapen_AOT/AOT_stimuli/rescaled_final/0357_rv.mp4	0.0	153.47363018989563	
26	130.76093292236328	movie	1		246	24.0	2.5	/experiments/knapen_AOT/AOT_stimuli/rescaled_final/0357_rv.mp4	0.0	153.4816770553589	2.508759021759033
26	132.35356092453003	pulse	1	t		24.0	2.5	/experiments/knapen_AOT/AOT_stimuli/rescaled_final/0357_rv.mp4	0.0	155.07430505752563	
26	133.26969194412231	fix_post	2		12	24.0	2.5	/experiments/knapen_AOT/AOT_stimuli/rescaled_final/0357_rv.mp4	0.0	155.99043607711792	0.10009503364562988
27	133.36978697776794	fix_pre	0		120	25.0	2.5	/experiments/knapen_AOT/AOT_stimuli/rescaled_final/0663_fw.mp4	0.0	156.09053111076355	1.0000410079956055
27	133.95320892333984	pulse	0	t		25.0	2.5	/experiments/knapen_AOT/AOT_stimuli/rescaled_final/0663_fw.mp4	0.0	156.67395305633545	
27	134.36982798576355	movie	1		241	25.0	2.5	/experiments/knapen_AOT/AOT_stimuli/rescaled_final/0663_fw.mp4	0.0	157.09057211875916	2.500375986099243
27	135.55362105369568	pulse	1	t		25.0	2.5	/experiments/knapen_AOT/AOT_stimuli/rescaled_final/0663_fw.mp4	0.0	158.27436518669128	
27	136.8702039718628	fix_post	2		12	25.0	2.5	/experiments/knapen_AOT/AOT_stimuli/rescaled_final/0663_fw.mp4	0.0	159.5909481048584	0.10005307197570801
28	136.9702570438385	fix_pre	0		120	26.0	2.5	blank	1.0	159.6910011768341	1.0001230239868164
28	137.15386486053467	pulse	0	t		26.0	2.5	blank	1.0	159.87460899353027	
28	137.97038006782532	movie	1		300	26.0	2.5	blank	1.0	160.69112420082092	2.500431776046753
28	138.75404691696167	pulse	1	t		26.0	2.5	blank	1.0	161.47479104995728	
28	140.35419607162476	pulse	1	t		26.0	2.5	blank	1.0	163.07494020462036	
28	140.47081184387207	fix_post	2		12	26.0	2.5	blank	1.0	163.19155597686768	0.09993410110473633
29	140.5707459449768	fix_pre	0		120	27.0	2.5	/experiments/knapen_AOT/AOT_stimuli/rescaled_final/0977_rv.mp4	0.0	163.2914900779724	1.0001709461212158
29	141.57091689109802	movie	1		244	27.0	2.5	/experiments/knapen_AOT/AOT_stimuli/rescaled_final/0977_rv.mp4	0.0	164.29166102409363	2.492047071456909
29	141.9551088809967	pulse	1	t		27.0	2.5	/experiments/knapen_AOT/AOT_stimuli/rescaled_final/0977_rv.mp4	0.0	164.6758530139923	
29	143.55480790138245	pulse	1	t		27.0	2.5	/experiments/knapen_AOT/AOT_stimuli/rescaled_final/0977_rv.mp4	0.0	166.27555203437805	
29	144.06296396255493	fix_post	2		12	27.0	2.5	/experiments/knapen_AOT/AOT_stimuli/rescaled_final/0977_rv.mp4	0.0	166.78370809555054	0.0999910831451416
30	144.16295504570007	fix_pre	0		120	28.0	2.5	/experiments/knapen_AOT/AOT_stimuli/rescaled_final/0491_rv.mp4	0.0	166.88369917869568	1.0001518726348877
30	145.15502405166626	pulse	0	t		28.0	2.5	/experiments/knapen_AOT/AOT_stimuli/rescaled_final/0491_rv.mp4	0.0	167.87576818466187	
30	145.16310691833496	movie	1		245	28.0	2.5	/experiments/knapen_AOT/AOT_stimuli/rescaled_final/0491_rv.mp4	0.0	167.88385105133057	2.508697986602783
30	146.75685501098633	pulse	1	t		28.0	2.5	/experiments/knapen_AOT/AOT_stimuli/rescaled_final/0491_rv.mp4	0.0	169.47759914398193	
30	147.67180490493774	fix_post	2		12	28.0	2.5	/experiments/knapen_AOT/AOT_stimuli/rescaled_final/0491_rv.mp4	0.0	170.39254903793335	0.10007500648498535
31	147.77187991142273	fix_pre	0		120	29.0	2.5	/experiments/knapen_AOT/AOT_stimuli/rescaled_final/1479_rv.mp4	0.0	170.49262404441833	1.0001180171966553
31	148.35556387901306	pulse	0	t		29.0	2.5	/experiments/knapen_AOT/AOT_stimuli/rescaled_final/1479_rv.mp4	0.0	171.07630801200867	
31	148.77199792861938	movie	1		244	29.0	2.5	/experiments/knapen_AOT/AOT_stimuli/rescaled_final/1479_rv.mp4	0.0	171.492742061615	2.5003459453582764
31	149.95584392547607	pulse	1	t		29.0	2.5	/experiments/knapen_AOT/AOT_stimuli/rescaled_final/1479_rv.mp4	0.0	172.67658805847168	
31	151.27234387397766	fix_post	2		12	29.0	2.5	/experiments/knapen_AOT/AOT_stimuli/rescaled_final/1479_rv.mp4	0.0	173.99308800697327	0.10007309913635254
32	151.372416973114	fix_pre	0		120	30.0	2.5	/experiments/knapen_AOT/AOT_stimuli/rescaled_final/0065_fw.mp4	0.0	174.09316110610962	1.0001230239868164
32	151.55597805976868	pulse	0	t		30.0	2.5	/experiments/knapen_AOT/AOT_stimuli/rescaled_final/0065_fw.mp4	0.0	174.27672219276428	
32	152.37253999710083	movie	1		244	30.0	2.5	/experiments/knapen_AOT/AOT_stimuli/rescaled_final/0065_fw.mp4	0.0	175.09328413009644	2.5003468990325928
32	153.15613794326782	pulse	1	t		30.0	2.5	/experiments/knapen_AOT/AOT_stimuli/rescaled_final/0065_fw.mp4	0.0	175.87688207626343	
32	154.75657486915588	pulse	1	t		30.0	2.5	/experiments/knapen_AOT/AOT_stimuli/rescaled_final/0065_fw.mp4	0.0	177.4773190021515	
32	154.87288689613342	fix_post	2		12	30.0	2.5	/experiments/knapen_AOT/AOT_stimuli/rescaled_final/0065_fw.mp4	0.0	177.59363102912903	0.1000981330871582
33	154.97298502922058	fix_pre	0		120	31.0	2.5	/experiments/knapen_AOT/AOT_stimuli/rescaled_final/0769_rv.mp4	0.0	177.6937291622162	1.0000739097595215
33	155.9730589389801	movie	1		244	31.0	2.5	/experiments/knapen_AOT/AOT_stimuli/rescaled_final/0769_rv.mp4	0.0	178.6938030719757	2.4920260906219482
33	156.35775685310364	pulse	1	t		31.0	2.5	/experiments/knapen_AOT/AOT_stimuli/rescaled_final/0769_rv.mp4	0.0	179.07850098609924	
33	157.95687699317932	pulse	1	t		31.0	2.5	/experiments/knapen_AOT/AOT_stimuli/rescaled_final/0769_rv.mp4	0.0	180.67762112617493	
33	158.46508502960205	fix_post	2		12	31.0	2.5	/experiments/knapen_AOT/AOT_stimuli/rescaled_final/0769_rv.mp4	0.0	181.18582916259766	0.10002899169921875
34	158.56511402130127	fix_pre	0		120	32.0	2.5	/experiments/knapen_AOT/AOT_stimuli/rescaled_final/0621_fw.mp4	0.0	181.28585815429688	1.0001418590545654
34	159.55718994140625	pulse	0	t		32.0	2.5	/experiments/knapen_AOT/AOT_stimuli/rescaled_final/0621_fw.mp4	0.0	182.27793407440186	
34	159.56525588035583	movie	1		245	32.0	2.5	/experiments/knapen_AOT/AOT_stimuli/rescaled_final/0621_fw.mp4	0.0	182.28600001335144	2.5087170600891113
34	161.1588020324707	pulse	1	t		32.0	2.5	/experiments/knapen_AOT/AOT_stimuli/rescaled_final/0621_fw.mp4	0.0	183.8795461654663	
34	162.07397294044495	fix_post	2		12	32.0	2.5	/experiments/knapen_AOT/AOT_stimuli/rescaled_final/0621_fw.mp4	0.0	184.79471707344055	0.09999608993530273
35	162.17396903038025	fix_pre	0		120	33.0	2.5	/experiments/knapen_AOT/AOT_stimuli/rescaled_final/1124_rv.mp4	0.0	184.89471316337585	1.0001468658447266
35	162.75771498680115	pulse	0	t		33.0	2.5	/experiments/knapen_AOT/AOT_stimuli/rescaled_final/1124_rv.mp4	0.0	185.47845911979675	
35	163.17411589622498	movie	1		247	33.0	2.5	/experiments/knapen_AOT/AOT_stimuli/rescaled_final/1124_rv.mp4	0.0	185.89486002922058	2.5003809928894043
35	164.35789799690247	pulse	1	t		33.0	2.5	/experiments/knapen_AOT/AOT_stimuli/rescaled_final/1124_rv.mp4	0.0	187.07864212989807	
35	165.67449688911438	fix_post	2		12	33.0	2.5	/experiments/knapen_AOT/AOT_stimuli/rescaled_final/1124_rv.mp4	0.0	188.39524102210999	0.100006103515625
36	165.77450299263	fix_pre	0		120	34.0	2.5	/experiments/knapen_AOT/AOT_stimuli/rescaled_final/2013_fw.mp4	0.0	188.4952471256256	1.0002100467681885
36	165.9580328464508	pulse	0	t		34.0	2.5	/experiments/knapen_AOT/AOT_stimuli/rescaled_final/2013_fw.mp4	0.0	188.6787769794464	
36	166.7747130393982	movie	1		244	34.0	2.5	/experiments/knapen_AOT/AOT_stimuli/rescaled_final/2013_fw.mp4	0.0	189.4954571723938	2.500316858291626
36	167.55833196640015	pulse	1	t		34.0	2.5	/experiments/knapen_AOT/AOT_stimuli/rescaled_final/2013_fw.mp4	0.0	190.27907609939575	
36	169.1586308479309	pulse	1	t		34.0	2.5	/experiments/knapen_AOT/AOT_stimuli/rescaled_final/2013_fw.mp4	0.0	191.8793749809265	
36	169.27502989768982	fix_post	2		12	34.0	2.5	/experiments/knapen_AOT/AOT_stimuli/rescaled_final/2013_fw.mp4	0.0	191.99577403068542	0.1000831127166748
37	169.3751130104065	fix_pre	0		120	35.0	2.5	blank	1.0	192.0958571434021	1.0000879764556885
37	170.37520098686218	movie	1		299	35.0	2.5	blank	1.0	193.0959451198578	2.4920530319213867
37	170.75887203216553	pulse	1	t		35.0	2.5	blank	1.0	193.47961616516113	
37	172.35898804664612	pulse	1	t		35.0	2.5	blank	1.0	195.07973217964172	
37	172.86725401878357	fix_post	2		12	35.0	2.5	blank	1.0	195.58799815177917	0.10004591941833496
38	172.9672999382019	fix_pre	0		120	36.0	2.5	/experiments/knapen_AOT/AOT_stimuli/rescaled_final/1005_fw.mp4	0.0	195.6880440711975	1.0001370906829834
38	173.95931386947632	pulse	0	t		36.0	2.5	/experiments/knapen_AOT/AOT_stimuli/rescaled_final/1005_fw.mp4	0.0	196.68005800247192	
38	173.9674370288849	movie	1		245	36.0	2.5	/experiments/knapen_AOT/AOT_stimuli/rescaled_final/1005_fw.mp4	0.0	196.6881811618805	2.5087549686431885
38	175.56002688407898	pulse	1	t		36.0	2.5	/experiments/knapen_AOT/AOT_stimuli/rescaled_final/1005_fw.mp4	0.0	198.28077101707458	
38	176.47619199752808	fix_post	2		12	36.0	2.5	/experiments/knapen_AOT/AOT_stimuli/rescaled_final/1005_fw.mp4	0.0	199.19693613052368	0.09992289543151855
39	176.5761148929596	fix_pre	0		120	37.0	2.5	/experiments/knapen_AOT/AOT_stimuli/rescaled_final/1873_rv.mp4	0.0	199.2968590259552	1.000154972076416
39	177.15139293670654	pulse	0	t		37.0	2.5	/experiments/knapen_AOT/AOT_stimuli/rescaled_final/1873_rv.mp4	0.0	199.87213706970215	
39	177.576269865036	movie	1		244	37.0	2.5	/experiments/knapen_AOT/AOT_stimuli/rescaled_final/1873_rv.mp4	0.0	200.29701399803162	2.500397205352783
39	178.7521688938141	pulse	1	t		37.0	2.5	/experiments/knapen_AOT/AOT_stimuli/rescaled_final/1873_rv.mp4	0.0	201.4729130268097	
39	180.0766670703888	fix_post	2		12	37.0	2.5	/experiments/knapen_AOT/AOT_stimuli/rescaled_final/1873_rv.mp4	0.0	202.7974112033844	0.0999917984008789
40	180.17665886878967	fix_pre	0		120	38.0	2.5	/experiments/knapen_AOT/AOT_stimuli/rescaled_final/1437_fw.mp4	0.0	202.89740300178528	1.00018310546875
40	180.351881980896	pulse	0	t		38.0	2.5	/experiments/knapen_AOT/AOT_stimuli/rescaled_final/1437_fw.mp4	0.0	203.0726261138916	
40	181.17684197425842	movie	1		244	38.0	2.5	/experiments/knapen_AOT/AOT_stimuli/rescaled_final/1437_fw.mp4	0.0	203.89758610725403	2.5003840923309326
40	181.95208287239075	pulse	1	t		38.0	2.5	/experiments/knapen_AOT/AOT_stimuli/rescaled_final/1437_fw.mp4	0.0	204.67282700538635	
40	183.55249190330505	pulse	1	t		38.0	2.5	/experiments/knapen_AOT/AOT_stimuli/rescaled_final/1437_fw.mp4	0.0	206.27323603630066	
40	183.67722606658936	fix_post	2		12	38.0	2.5	/experiments/knapen_AOT/AOT_stimuli/rescaled_final/1437_fw.mp4	0.0	206.39797019958496	0.09999895095825195
41	183.7772250175476	fix_pre	0		120	39.0	2.5	/experiments/knapen_AOT/AOT_stimuli/rescaled_final/0652_rv.mp4	0.0	206.4979691505432	1.0001099109649658
41	184.77733492851257	movie	1		243	39.0	2.5	/experiments/knapen_AOT/AOT_stimuli/rescaled_final/0652_rv.mp4	0.0	207.49807906150818	2.492047071456909
41	185.15269088745117	pulse	1	t		39.0	2.5	/experiments/knapen_AOT/AOT_stimuli/rescaled_final/0652_rv.mp4	0.0	207.87343502044678	
41	186.75291085243225	pulse	1	t		39.0	2.5	/experiments/knapen_AOT/AOT_stimuli/rescaled_final/0652_rv.mp4	0.0	209.47365498542786	
41	187.26938199996948	fix_post	2		12	39.0	2.5	/experiments/knapen_AOT/AOT_stimuli/rescaled_final/0652_rv.mp4	0.0	209.9901261329651	0.10001802444458008
42	187.36940002441406	fix_pre	0		119	40.0	2.5	/experiments/knapen_AOT/AOT_stimuli/rescaled_final/1357_fw.mp4	0.0	210.09014415740967	0.9918699264526367
42	188.35302805900574	pulse	0	t		40.0	2.5	/experiments/knapen_AOT/AOT_stimuli/rescaled_final/1357_fw.mp4	0.0	211.07377219200134	
42	188.3612699508667	movie	1		245	40.0	2.5	/experiments/knapen_AOT/AOT_stimuli/rescaled_final/1357_fw.mp4	0.0	211.0820140838623	2.5086419582366943
42	189.9538538455963	pulse	1	t		40.0	2.5	/experiments/knapen_AOT/AOT_stimuli/rescaled_final/1357_fw.mp4	0.0	212.67459797859192	
42	190.8699119091034	fix_post	2		12	40.0	2.5	/experiments/knapen_AOT/AOT_stimuli/rescaled_final/1357_fw.mp4	0.0	213.590656042099	0.10001802444458008
43	190.96992993354797	fix_pre	0		120	41.0	2.5	/experiments/knapen_AOT/AOT_stimuli/rescaled_final/0982_fw.mp4	0.0	213.69067406654358	1.0001780986785889
43	191.55368089675903	pulse	0	t		41.0	2.5	/experiments/knapen_AOT/AOT_stimuli/rescaled_final/0982_fw.mp4	0.0	214.27442502975464	
43	191.97010803222656	movie	1		244	41.0	2.5	/experiments/knapen_AOT/AOT_stimuli/rescaled_final/0982_fw.mp4	0.0	214.69085216522217	2.5003459453582764
43	193.1539888381958	pulse	1	t		41.0	2.5	/experiments/knapen_AOT/AOT_stimuli/rescaled_final/0982_fw.mp4	0.0	215.8747329711914	
43	194.47045397758484	fix_post	2		10	41.0	2.5	/experiments/knapen_AOT/AOT_stimuli/rescaled_final/0982_fw.mp4	0.0	217.19119811058044	0.1000370979309082
44	194.57049107551575	fix_pre	0		120	42.0	2.5	blank	1.0	217.29123520851135	1.0001649856567383
44	194.75402402877808	pulse	0	t		42.0	2.5	blank	1.0	217.47476816177368	
44	195.57065606117249	movie	1		300	42.0	2.5	blank	1.0	218.2914001941681	2.5003387928009033
44	196.3542778491974	pulse	1	t		42.0	2.5	blank	1.0	219.075021982193	
44	197.9545919895172	pulse	1	t		42.0	2.5	blank	1.0	220.67533612251282	
44	198.0709948539734	fix_post	2		11	42.0	2.5	blank	1.0	220.791738986969	0.09170103073120117
45	198.1626958847046	fix_pre	0		120	43.0	2.5	/experiments/knapen_AOT/AOT_stimuli/rescaled_final/1319_fw.mp4	0.0	220.8834400177002	1.0001461505889893
45	199.16284203529358	movie	1		246	43.0	2.5	/experiments/knapen_AOT/AOT_stimuli/rescaled_final/1319_fw.mp4	0.0	221.88358616828918	2.5003769397735596
45	199.5548610687256	pulse	1	t		43.0	2.5	/experiments/knapen_AOT/AOT_stimuli/rescaled_final/1319_fw.mp4	0.0	222.2756052017212	
45	201.1550509929657	pulse	1	t		43.0	2.5	/experiments/knapen_AOT/AOT_stimuli/rescaled_final/1319_fw.mp4	0.0	223.8757951259613	
45	201.66321897506714	fix_post	2		12	43.0	2.5	/experiments/knapen_AOT/AOT_stimuli/rescaled_final/1319_fw.mp4	0.0	224.38396310806274	0.10003089904785156
46	201.763249874115	fix_pre	0		120	44.0	2.5	/experiments/knapen_AOT/AOT_stimuli/rescaled_final/1238_fw.mp4	0.0	224.4839940071106	1.000154972076416
46	202.7551989555359	pulse	0	t		44.0	2.5	/experiments/knapen_AOT/AOT_stimuli/rescaled_final/1238_fw.mp4	0.0	225.4759430885315	
46	202.7634048461914	movie	1		245	44.0	2.5	/experiments/knapen_AOT/AOT_stimuli/rescaled_final/1238_fw.mp4	0.0	225.484148979187	2.508662223815918
46	204.35617089271545	pulse	1	t		44.0	2.5	/experiments/knapen_AOT/AOT_stimuli/rescaled_final/1238_fw.mp4	0.0	227.07691502571106	
46	205.27206707000732	fix_post	2		12	44.0	2.5	/experiments/knapen_AOT/AOT_stimuli/rescaled_final/1238_fw.mp4	0.0	227.99281120300293	0.1000218391418457
47	205.37208890914917	fix_pre	0		120	45.0	2.5	/experiments/knapen_AOT/AOT_stimuli/rescaled_final/1114_rv.mp4	0.0	228.09283304214478	1.0001800060272217
47	205.95578289031982	pulse	0	t		45.0	2.5	/experiments/knapen_AOT/AOT_stimuli/rescaled_final/1114_rv.mp4	0.0	228.67652702331543	
47	206.3722689151764	movie	1		243	45.0	2.5	/experiments/knapen_AOT/AOT_stimuli/rescaled_final/1114_rv.mp4	0.0	229.093013048172	2.5003271102905273
47	207.5561020374298	pulse	1	t		45.0	2.5	/experiments/knapen_AOT/AOT_stimuli/rescaled_final/1114_rv.mp4	0.0	230.27684617042542	
47	208.87259602546692	fix_post	2		12	45.0	2.5	/experiments/knapen_AOT/AOT_stimuli/rescaled_final/1114_rv.mp4	0.0	231.59334015846252	0.1000509262084961
48	208.97264695167542	fix_pre	0		120	46.0	2.5	/experiments/knapen_AOT/AOT_stimuli/rescaled_final/1714_fw.mp4	0.0	231.69339108467102	1.0001330375671387
48	209.15612387657166	pulse	0	t		46.0	2.5	/experiments/knapen_AOT/AOT_stimuli/rescaled_final/1714_fw.mp4	0.0	231.87686800956726	
48	209.97277998924255	movie	1		243	46.0	2.5	/experiments/knapen_AOT/AOT_stimuli/rescaled_final/1714_fw.mp4	0.0	232.69352412223816	2.5003609657287598
48	210.75641894340515	pulse	1	t		46.0	2.5	/experiments/knapen_AOT/AOT_stimuli/rescaled_final/1714_fw.mp4	0.0	233.47716307640076	
48	212.35689401626587	pulse	1	t		46.0	2.5	/experiments/knapen_AOT/AOT_stimuli/rescaled_final/1714_fw.mp4	0.0	235.07763814926147	
48	212.4731409549713	fix_post	2		11	46.0	2.5	/experiments/knapen_AOT/AOT_stimuli/rescaled_final/1714_fw.mp4	0.0	235.19388508796692	0.09171295166015625
49	212.56485390663147	fix_pre	0		120	47.0	2.5	blank	1.0	235.28559803962708	1.0001111030578613
49	213.56496500968933	movie	1		300	47.0	2.5	blank	1.0	236.28570914268494	2.5004160404205322
49	213.95694303512573	pulse	1	t		47.0	2.5	blank	1.0	236.67768716812134	
49	215.55714988708496	pulse	1	t		47.0	2.5	blank	1.0	238.27789402008057	
49	216.06538105010986	fix_post	2		12	47.0	2.5	blank	1.0	238.78612518310547	0.10000491142272949
50	216.1653859615326	fix_pre	0		120	48.0	2.5	/experiments/knapen_AOT/AOT_stimuli/rescaled_final/1843_rv.mp4	0.0	238.8861300945282	1.0001449584960938
50	217.15738701820374	pulse	0	t		48.0	2.5	/experiments/knapen_AOT/AOT_stimuli/rescaled_final/1843_rv.mp4	0.0	239.87813115119934	
50	217.1655309200287	movie	1		245	48.0	2.5	/experiments/knapen_AOT/AOT_stimuli/rescaled_final/1843_rv.mp4	0.0	239.8862750530243	2.508711099624634
50	218.7582540512085	pulse	1	t		48.0	2.5	/experiments/knapen_AOT/AOT_stimuli/rescaled_final/1843_rv.mp4	0.0	241.4789981842041	
50	219.67424201965332	fix_post	2		12	48.0	2.5	/experiments/knapen_AOT/AOT_stimuli/rescaled_final/1843_rv.mp4	0.0	242.39498615264893	0.10003185272216797
51	219.7742738723755	fix_pre	0		120	49.0	2.5	/experiments/knapen_AOT/AOT_stimuli/rescaled_final/0868_fw.mp4	0.0	242.4950180053711	1.0001420974731445
51	220.3578839302063	pulse	0	t		49.0	2.5	/experiments/knapen_AOT/AOT_stimuli/rescaled_final/0868_fw.mp4	0.0	243.0786280632019	
51	220.77441596984863	movie	1		244	49.0	2.5	/experiments/knapen_AOT/AOT_stimuli/rescaled_final/0868_fw.mp4	0.0	243.49516010284424	2.50039005279541
51	221.95814394950867	pulse	1	t		49.0	2.5	/experiments/knapen_AOT/AOT_stimuli/rescaled_final/0868_fw.mp4	0.0	244.67888808250427	
51	223.27480602264404	fix_post	2		12	49.0	2.5	/experiments/knapen_AOT/AOT_stimuli/rescaled_final/0868_fw.mp4	0.0	245.99555015563965	0.10004281997680664
52	223.37484884262085	fix_pre	0		120	50.0	2.5	/experiments/knapen_AOT/AOT_stimuli/rescaled_final/0148_rv.mp4	0.0	246.09559297561646	1.000075101852417
52	223.55837392807007	pulse	0	t		50.0	2.5	/experiments/knapen_AOT/AOT_stimuli/rescaled_final/0148_rv.mp4	0.0	246.27911806106567	
52	224.37492394447327	movie	1		244	50.0	2.5	/experiments/knapen_AOT/AOT_stimuli/rescaled_final/0148_rv.mp4	0.0	247.09566807746887	2.5003750324249268
52	225.1585340499878	pulse	1	t		50.0	2.5	/experiments/knapen_AOT/AOT_stimuli/rescaled_final/0148_rv.mp4	0.0	247.8792781829834	
52	226.76098895072937	pulse	1	t		50.0	2.5	/experiments/knapen_AOT/AOT_stimuli/rescaled_final/0148_rv.mp4	0.0	249.48173308372498	
52	226.8752989768982	fix_post	2		12	50.0	2.5	/experiments/knapen_AOT/AOT_stimuli/rescaled_final/0148_rv.mp4	0.0	249.5960431098938	0.1000220775604248
53	226.97532105445862	fix_pre	0		120	51.0	2.5	/experiments/knapen_AOT/AOT_stimuli/rescaled_final/0765_fw.mp4	0.0	249.69606518745422	1.0001449584960938
53	227.9754660129547	movie	1		246	51.0	2.5	/experiments/knapen_AOT/AOT_stimuli/rescaled_final/0765_fw.mp4	0.0	250.69621014595032	2.4920618534088135
53	228.36035799980164	pulse	1	t		51.0	2.5	/experiments/knapen_AOT/AOT_stimuli/rescaled_final/0765_fw.mp4	0.0	251.08110213279724	
53	229.9520618915558	pulse	1	t		51.0	2.5	/experiments/knapen_AOT/AOT_stimuli/rescaled_final/0765_fw.mp4	0.0	252.6728060245514	
53	230.46752786636353	fix_post	2		12	51.0	2.5	/experiments/knapen_AOT/AOT_stimuli/rescaled_final/0765_fw.mp4	0.0	253.18827199935913	0.09998798370361328
54	230.56751585006714	fix_pre	0		120	52.0	2.5	/experiments/knapen_AOT/AOT_stimuli/rescaled_final/0818_fw.mp4	0.0	253.28825998306274	1.0001671314239502
54	231.55199193954468	pulse	0	t		52.0	2.5	/experiments/knapen_AOT/AOT_stimuli/rescaled_final/0818_fw.mp4	0.0	254.27273607254028	
54	231.5676829814911	movie	1		244	52.0	2.5	/experiments/knapen_AOT/AOT_stimuli/rescaled_final/0818_fw.mp4	0.0	254.2884271144867	2.5086798667907715
54	233.16121697425842	pulse	1	t		52.0	2.5	/experiments/knapen_AOT/AOT_stimuli/rescaled_final/0818_fw.mp4	0.0	255.88196110725403	
54	234.07636284828186	fix_post	2		12	52.0	2.5	/experiments/knapen_AOT/AOT_stimuli/rescaled_final/0818_fw.mp4	0.0	256.79710698127747	0.10001707077026367
55	234.17637991905212	fix_pre	0		120	53.0	2.5	/experiments/knapen_AOT/AOT_stimuli/rescaled_final/1398_rv.mp4	0.0	256.89712405204773	1.000154972076416
55	234.75247192382812	pulse	0	t		53.0	2.5	/experiments/knapen_AOT/AOT_stimuli/rescaled_final/1398_rv.mp4	0.0	257.47321605682373	
55	235.17653489112854	movie	1		245	53.0	2.5	/experiments/knapen_AOT/AOT_stimuli/rescaled_final/1398_rv.mp4	0.0	257.89727902412415	2.5003581047058105
55	236.3526258468628	pulse	1	t		53.0	2.5	/experiments/knapen_AOT/AOT_stimuli/rescaled_final/1398_rv.mp4	0.0	259.0733699798584	
55	237.67689299583435	fix_post	2		12	53.0	2.5	/experiments/knapen_AOT/AOT_stimuli/rescaled_final/1398_rv.mp4	0.0	260.39763712882996	0.10003900527954102
56	237.7769320011139	fix_pre	0		120	54.0	2.5	/experiments/knapen_AOT/AOT_stimuli/rescaled_final/0857_fw.mp4	0.0	260.4976761341095	1.000154972076416
56	237.9521598815918	pulse	0	t		54.0	2.5	/experiments/knapen_AOT/AOT_stimuli/rescaled_final/0857_fw.mp4	0.0	260.6729040145874	
56	238.7770869731903	movie	1		244	54.0	2.5	/experiments/knapen_AOT/AOT_stimuli/rescaled_final/0857_fw.mp4	0.0	261.4978311061859	2.5003409385681152
56	239.55235600471497	pulse	1	t		54.0	2.5	/experiments/knapen_AOT/AOT_stimuli/rescaled_final/0857_fw.mp4	0.0	262.27310013771057	
56	241.15259504318237	pulse	1	t		54.0	2.5	/experiments/knapen_AOT/AOT_stimuli/rescaled_final/0857_fw.mp4	0.0	263.873339176178	
56	241.27742791175842	fix_post	2		12	54.0	2.5	/experiments/knapen_AOT/AOT_stimuli/rescaled_final/0857_fw.mp4	0.0	263.998172044754	0.10008597373962402
57	241.37751388549805	fix_pre	0		119	55.0	2.5	/experiments/knapen_AOT/AOT_stimuli/rescaled_final/1987_rv.mp4	0.0	264.09825801849365	0.9917681217193604
57	242.3692820072174	movie	1		244	55.0	2.5	/experiments/knapen_AOT/AOT_stimuli/rescaled_final/1987_rv.mp4	0.0	265.090026140213	2.5003628730773926
57	242.7537829875946	pulse	1	t		55.0	2.5	/experiments/knapen_AOT/AOT_stimuli/rescaled_final/1987_rv.mp4	0.0	265.4745271205902	
57	244.35307788848877	pulse	1	t		55.0	2.5	/experiments/knapen_AOT/AOT_stimuli/rescaled_final/1987_rv.mp4	0.0	267.0738220214844	
57	244.8696448802948	fix_post	2		12	55.0	2.5	/experiments/knapen_AOT/AOT_stimuli/rescaled_final/1987_rv.mp4	0.0	267.5903890132904	0.10006904602050781
58	244.9697139263153	fix_pre	0		119	56.0	2.5	blank	1.0	267.6904580593109	0.9917819499969482
58	245.95341205596924	pulse	0	t		56.0	2.5	blank	1.0	268.67415618896484	
58	245.96149587631226	movie	1		301	56.0	2.5	blank	1.0	268.68224000930786	2.508725166320801
58	247.55360794067383	pulse	1	t		56.0	2.5	blank	1.0	270.27435207366943	
58	248.47022104263306	fix_post	2		12	56.0	2.5	blank	1.0	271.19096517562866	0.10000991821289062
59	248.57023096084595	fix_pre	0		120	57.0	2.5	/experiments/knapen_AOT/AOT_stimuli/rescaled_final/1541_rv.mp4	0.0	271.29097509384155	1.0001220703125
59	249.1538028717041	pulse	0	t		57.0	2.5	/experiments/knapen_AOT/AOT_stimuli/rescaled_final/1541_rv.mp4	0.0	271.8745470046997	
59	249.57035303115845	movie	1		245	57.0	2.5	/experiments/knapen_AOT/AOT_stimuli/rescaled_final/1541_rv.mp4	0.0	272.29109716415405	2.5003609657287598
59	250.75414395332336	pulse	1	t		57.0	2.5	/experiments/knapen_AOT/AOT_stimuli/rescaled_final/1541_rv.mp4	0.0	273.47488808631897	
59	252.0707139968872	fix_post	2		12	57.0	2.5	/experiments/knapen_AOT/AOT_stimuli/rescaled_final/1541_rv.mp4	0.0	274.7914581298828	0.10004305839538574
60	252.1707570552826	fix_pre	0		120	58.0	2.5	/experiments/knapen_AOT/AOT_stimuli/rescaled_final/0544_rv.mp4	0.0	274.8915011882782	1.0001189708709717
60	252.35430097579956	pulse	0	t		58.0	2.5	/experiments/knapen_AOT/AOT_stimuli/rescaled_final/0544_rv.mp4	0.0	275.07504510879517	
60	253.17087602615356	movie	1		241	58.0	2.5	/experiments/knapen_AOT/AOT_stimuli/rescaled_final/0544_rv.mp4	0.0	275.89162015914917	2.500396966934204
60	253.95458889007568	pulse	1	t		58.0	2.5	/experiments/knapen_AOT/AOT_stimuli/rescaled_final/0544_rv.mp4	0.0	276.6753330230713	
60	255.55235290527344	pulse	1	t		58.0	2.5	/experiments/knapen_AOT/AOT_stimuli/rescaled_final/0544_rv.mp4	0.0	278.27309703826904	
60	255.67127299308777	fix_post	2		12	58.0	2.5	/experiments/knapen_AOT/AOT_stimuli/rescaled_final/0544_rv.mp4	0.0	278.3920171260834	0.10000896453857422
61	255.77128195762634	fix_pre	0		120	59.0	2.5	/experiments/knapen_AOT/AOT_stimuli/rescaled_final/2007_rv.mp4	0.0	278.49202609062195	1.0001718997955322
61	256.7714538574219	movie	1		243	59.0	2.5	/experiments/knapen_AOT/AOT_stimuli/rescaled_final/2007_rv.mp4	0.0	279.4921979904175	2.49202299118042
61	257.15938901901245	pulse	1	t		59.0	2.5	/experiments/knapen_AOT/AOT_stimuli/rescaled_final/2007_rv.mp4	0.0	279.88013315200806	
61	258.75527691841125	pulse	1	t		59.0	2.5	/experiments/knapen_AOT/AOT_stimuli/rescaled_final/2007_rv.mp4	0.0	281.47602105140686	
61	259.2634768486023	fix_post	2		12	59.0	2.5	/experiments/knapen_AOT/AOT_stimuli/rescaled_final/2007_rv.mp4	0.0	281.9842209815979	0.10001015663146973
62	259.36348700523376	fix_pre	0		120	60.0	2.5	/experiments/knapen_AOT/AOT_stimuli/rescaled_final/1124_fw.mp4	0.0	282.08423113822937	1.0001530647277832
62	260.35549807548523	pulse	0	t		60.0	2.5	/experiments/knapen_AOT/AOT_stimuli/rescaled_final/1124_fw.mp4	0.0	283.07624220848083	
62	260.36364006996155	movie	1		246	60.0	2.5	/experiments/knapen_AOT/AOT_stimuli/rescaled_final/1124_fw.mp4	0.0	283.08438420295715	2.5086889266967773
62	261.9561929702759	pulse	1	t		60.0	2.5	/experiments/knapen_AOT/AOT_stimuli/rescaled_final/1124_fw.mp4	0.0	284.6769371032715	
62	262.8723289966583	fix_post	2		12	60.0	2.5	/experiments/knapen_AOT/AOT_stimuli/rescaled_final/1124_fw.mp4	0.0	285.59307312965393	0.10005307197570801
63	262.97238206863403	fix_pre	0		120	61.0	2.5	/experiments/knapen_AOT/AOT_stimuli/rescaled_final/0389_rv.mp4	0.0	285.69312620162964	1.0001368522644043
63	263.5559799671173	pulse	0	t		61.0	2.5	/experiments/knapen_AOT/AOT_stimuli/rescaled_final/0389_rv.mp4	0.0	286.2767241001129	
63	263.97251892089844	movie	1		245	61.0	2.5	/experiments/knapen_AOT/AOT_stimuli/rescaled_final/0389_rv.mp4	0.0	286.69326305389404	2.5003910064697266
63	265.15629601478577	pulse	1	t		61.0	2.5	/experiments/knapen_AOT/AOT_stimuli/rescaled_final/0389_rv.mp4	0.0	287.8770401477814	
63	266.47290992736816	fix_post	2		12	61.0	2.5	/experiments/knapen_AOT/AOT_stimuli/rescaled_final/0389_rv.mp4	0.0	289.19365406036377	0.09995913505554199
64	266.5728690624237	fix_pre	0		120	62.0	2.5	/experiments/knapen_AOT/AOT_stimuli/rescaled_final/1256_rv.mp4	0.0	289.2936131954193	1.000168800354004
64	266.756551027298	pulse	0	t		62.0	2.5	/experiments/knapen_AOT/AOT_stimuli/rescaled_final/1256_rv.mp4	0.0	289.4772951602936	
64	267.5730378627777	movie	1		246	62.0	2.5	/experiments/knapen_AOT/AOT_stimuli/rescaled_final/1256_rv.mp4	0.0	290.2937819957733	2.500357151031494
64	268.35678601264954	pulse	1	t		62.0	2.5	/experiments/knapen_AOT/AOT_stimuli/rescaled_final/1256_rv.mp4	0.0	291.07753014564514	
64	269.956955909729	pulse	1	t		62.0	2.5	/experiments/knapen_AOT/AOT_stimuli/rescaled_final/1256_rv.mp4	0.0	292.6777000427246	
64	270.0733950138092	fix_post	2		12	62.0	2.5	/experiments/knapen_AOT/AOT_stimuli/rescaled_final/1256_rv.mp4	0.0	292.7941391468048	0.10001301765441895
65	270.1734080314636	fix_pre	0		120	63.0	2.5	blank	1.0	292.89415216445923	1.0001859664916992
65	271.1735939979553	movie	1		299	63.0	2.5	blank	1.0	293.8943381309509	2.4920270442962646
65	271.55714893341064	pulse	1	t		63.0	2.5	blank	1.0	294.27789306640625	
65	273.1573688983917	pulse	1	t		63.0	2.5	blank	1.0	295.87811303138733	
65	273.6656210422516	fix_post	2		12	63.0	2.5	blank	1.0	296.3863651752472	0.10009598731994629
66	273.76571702957153	fix_pre	0		120	64.0	2.5	/experiments/knapen_AOT/AOT_stimuli/rescaled_final/0115_rv.mp4	0.0	296.48646116256714	1.0000548362731934
66	274.75775504112244	pulse	0	t		64.0	2.5	/experiments/knapen_AOT/AOT_stimuli/rescaled_final/0115_rv.mp4	0.0	297.47849917411804	
66	274.7657718658447	movie	1		247	64.0	2.5	/experiments/knapen_AOT/AOT_stimuli/rescaled_final/0115_rv.mp4	0.0	297.48651599884033	2.508725166320801
66	276.35834288597107	pulse	1	t		64.0	2.5	/experiments/knapen_AOT/AOT_stimuli/rescaled_final/0115_rv.mp4	0.0	299.0790870189667	
66	277.2744970321655	fix_post	2		12	64.0	2.5	/experiments/knapen_AOT/AOT_stimuli/rescaled_final/0115_rv.mp4	0.0	299.99524116516113	0.10000491142272949
67	277.37450194358826	fix_pre	0		120	65.0	2.5	/experiments/knapen_AOT/AOT_stimuli/rescaled_final/0389_fw.mp4	0.0	300.09524607658386	1.0001599788665771
67	277.9580578804016	pulse	0	t		65.0	2.5	/experiments/knapen_AOT/AOT_stimuli/rescaled_final/0389_fw.mp4	0.0	300.6788020133972	
67	278.37466192245483	movie	1		246	65.0	2.5	/experiments/knapen_AOT/AOT_stimuli/rescaled_final/0389_fw.mp4	0.0	301.09540605545044	2.5003421306610107
67	279.558443069458	pulse	1	t		65.0	2.5	/experiments/knapen_AOT/AOT_stimuli/rescaled_final/0389_fw.mp4	0.0	302.2791872024536	
67	280.87500405311584	fix_post	2		12	65.0	2.5	/experiments/knapen_AOT/AOT_stimuli/rescaled_final/0389_fw.mp4	0.0	303.59574818611145	0.10004901885986328
68	280.9750530719757	fix_pre	0		120	66.0	2.5	/experiments/knapen_AOT/AOT_stimuli/rescaled_final/1998_rv.mp4	0.0	303.6957972049713	1.0001637935638428
68	281.15871500968933	pulse	0	t		66.0	2.5	/experiments/knapen_AOT/AOT_stimuli/rescaled_final/1998_rv.mp4	0.0	303.87945914268494	
68	281.97521686553955	movie	1		243	66.0	2.5	/experiments/knapen_AOT/AOT_stimuli/rescaled_final/1998_rv.mp4	0.0	304.69596099853516	2.500354051589966
68	282.7589509487152	pulse	1	t		66.0	2.5	/experiments/knapen_AOT/AOT_stimuli/rescaled_final/1998_rv.mp4	0.0	305.4796950817108	
68	284.3589880466461	pulse	1	t		66.0	2.5	/experiments/knapen_AOT/AOT_stimuli/rescaled_final/1998_rv.mp4	0.0	307.0797321796417	
68	284.4755709171295	fix_post	2		12	66.0	2.5	/experiments/knapen_AOT/AOT_stimuli/rescaled_final/1998_rv.mp4	0.0	307.1963150501251	0.10005998611450195
69	284.575630903244	fix_pre	0		120	67.0	2.5	/experiments/knapen_AOT/AOT_stimuli/rescaled_final/0765_fw.mp4	0.0	307.2963750362396	1.0001399517059326
69	285.57577085494995	movie	1		246	67.0	2.5	/experiments/knapen_AOT/AOT_stimuli/rescaled_final/0765_fw.mp4	0.0	308.29651498794556	2.4919960498809814
69	285.9606149196625	pulse	1	t		67.0	2.5	/experiments/knapen_AOT/AOT_stimuli/rescaled_final/0765_fw.mp4	0.0	308.6813590526581	
69	287.5522439479828	pulse	1	t		67.0	2.5	/experiments/knapen_AOT/AOT_stimuli/rescaled_final/0765_fw.mp4	0.0	310.2729880809784	
69	288.06776690483093	fix_post	2		12	67.0	2.5	/experiments/knapen_AOT/AOT_stimuli/rescaled_final/0765_fw.mp4	0.0	310.78851103782654	0.10000014305114746
70	288.1677670478821	fix_pre	0		120	68.0	2.5	blank	1.0	310.8885111808777	1.000152826309204
70	289.1523139476776	pulse	0	t		68.0	2.5	blank	1.0	311.8730580806732	
70	289.1679198741913	movie	1		301	68.0	2.5	blank	1.0	311.8886640071869	2.5087220668792725
70	290.75244307518005	pulse	1	t		68.0	2.5	blank	1.0	313.47318720817566	
70	291.67664194107056	fix_post	2		12	68.0	2.5	blank	1.0	314.39738607406616	0.1000211238861084
71	291.77666306495667	fix_pre	0		120	69.0	2.5	/experiments/knapen_AOT/AOT_stimuli/rescaled_final/1514_rv.mp4	0.0	314.49740719795227	1.000128984451294
71	292.3518898487091	pulse	0	t		69.0	2.5	/experiments/knapen_AOT/AOT_stimuli/rescaled_final/1514_rv.mp4	0.0	315.0726339817047	
71	292.77679204940796	movie	1		244	69.0	2.5	/experiments/knapen_AOT/AOT_stimuli/rescaled_final/1514_rv.mp4	0.0	315.49753618240356	2.5004208087921143
71	293.95270586013794	pulse	1	t		69.0	2.5	/experiments/knapen_AOT/AOT_stimuli/rescaled_final/1514_rv.mp4	0.0	316.67344999313354	
71	295.2772128582001	fix_post	2		12	69.0	2.5	/experiments/knapen_AOT/AOT_stimuli/rescaled_final/1514_rv.mp4	0.0	317.9979569911957	0.10000014305114746
72	295.3772130012512	fix_pre	0		120	70.0	2.5	/experiments/knapen_AOT/AOT_stimuli/rescaled_final/1706_rv.mp4	0.0	318.0979571342468	1.0001518726348877
72	295.55242395401	pulse	0	t		70.0	2.5	/experiments/knapen_AOT/AOT_stimuli/rescaled_final/1706_rv.mp4	0.0	318.2731680870056	
72	296.3773648738861	movie	1		244	70.0	2.5	/experiments/knapen_AOT/AOT_stimuli/rescaled_final/1706_rv.mp4	0.0	319.0981090068817	2.5003271102905273
72	297.1527509689331	pulse	1	t		70.0	2.5	/experiments/knapen_AOT/AOT_stimuli/rescaled_final/1706_rv.mp4	0.0	319.8734951019287	
72	298.75295400619507	pulse	1	t		70.0	2.5	/experiments/knapen_AOT/AOT_stimuli/rescaled_final/1706_rv.mp4	0.0	321.4736981391907	
72	298.87769198417664	fix_post	2		12	70.0	2.5	/experiments/knapen_AOT/AOT_stimuli/rescaled_final/1706_rv.mp4	0.0	321.59843611717224	0.10004687309265137
73	298.9777388572693	fix_pre	0		119	71.0	2.5	/experiments/knapen_AOT/AOT_stimuli/rescaled_final/2119_rv.mp4	0.0	321.6984829902649	0.9918160438537598
73	299.96955490112305	movie	1		249	71.0	2.5	/experiments/knapen_AOT/AOT_stimuli/rescaled_final/2119_rv.mp4	0.0	322.69029903411865	2.50034499168396
73	300.35363602638245	pulse	1	t		71.0	2.5	/experiments/knapen_AOT/AOT_stimuli/rescaled_final/2119_rv.mp4	0.0	323.07438015937805	
73	301.9534080028534	pulse	1	t		71.0	2.5	/experiments/knapen_AOT/AOT_stimuli/rescaled_final/2119_rv.mp4	0.0	324.674152135849	
73	302.469899892807	fix_post	2		12	71.0	2.5	/experiments/knapen_AOT/AOT_stimuli/rescaled_final/2119_rv.mp4	0.0	325.1906440258026	0.10002303123474121
74	302.56992292404175	fix_pre	0		119	72.0	2.5	/experiments/knapen_AOT/AOT_stimuli/rescaled_final/1526_fw.mp4	0.0	325.29066705703735	0.9918129444122314
74	303.55374097824097	pulse	0	t		72.0	2.5	/experiments/knapen_AOT/AOT_stimuli/rescaled_final/1526_fw.mp4	0.0	326.2744851112366	
74	303.561735868454	movie	1		246	72.0	2.5	/experiments/knapen_AOT/AOT_stimuli/rescaled_final/1526_fw.mp4	0.0	326.2824800014496	2.5087130069732666
74	305.15425395965576	pulse	1	t		72.0	2.5	/experiments/knapen_AOT/AOT_stimuli/rescaled_final/1526_fw.mp4	0.0	327.87499809265137	
74	306.07044887542725	fix_post	2		12	72.0	2.5	/experiments/knapen_AOT/AOT_stimuli/rescaled_final/1526_fw.mp4	0.0	328.79119300842285	0.10006403923034668
75	306.1705129146576	fix_pre	0		120	73.0	2.5	/experiments/knapen_AOT/AOT_stimuli/rescaled_final/0888_fw.mp4	0.0	328.8912570476532	1.0001399517059326
75	306.7541620731354	pulse	0	t		73.0	2.5	/experiments/knapen_AOT/AOT_stimuli/rescaled_final/0888_fw.mp4	0.0	329.474906206131	
75	307.1706528663635	movie	1		244	73.0	2.5	/experiments/knapen_AOT/AOT_stimuli/rescaled_final/0888_fw.mp4	0.0	329.89139699935913	2.500331163406372
75	308.35439705848694	pulse	1	t		73.0	2.5	/experiments/knapen_AOT/AOT_stimuli/rescaled_final/0888_fw.mp4	0.0	331.07514119148254	
75	309.6709840297699	fix_post	2		12	73.0	2.5	/experiments/knapen_AOT/AOT_stimuli/rescaled_final/0888_fw.mp4	0.0	332.3917281627655	0.09999394416809082
76	309.770977973938	fix_pre	0		120	74.0	2.5	/experiments/knapen_AOT/AOT_stimuli/rescaled_final/0834_rv.mp4	0.0	332.4917221069336	1.0001740455627441
76	309.9545750617981	pulse	0	t		74.0	2.5	/experiments/knapen_AOT/AOT_stimuli/rescaled_final/0834_rv.mp4	0.0	332.6753191947937	
76	310.77115201950073	movie	1		244	74.0	2.5	/experiments/knapen_AOT/AOT_stimuli/rescaled_final/0834_rv.mp4	0.0	333.49189615249634	2.5003609657287598
76	311.5549750328064	pulse	1	t		74.0	2.5	/experiments/knapen_AOT/AOT_stimuli/rescaled_final/0834_rv.mp4	0.0	334.275719165802	
76	313.15515398979187	pulse	1	t		74.0	2.5	/experiments/knapen_AOT/AOT_stimuli/rescaled_final/0834_rv.mp4	0.0	335.8758981227875	
76	313.2715129852295	fix_post	2		12	74.0	2.5	/experiments/knapen_AOT/AOT_stimuli/rescaled_final/0834_rv.mp4	0.0	335.9922571182251	0.10001397132873535
77	313.3715269565582	fix_pre	0		120	75.0	2.5	blank	1.0	336.09227108955383	1.0001580715179443
77	314.3716850280762	movie	1		296	75.0	2.5	blank	1.0	337.0924291610718	2.492034912109375
77	314.7552709579468	pulse	1	t		75.0	2.5	blank	1.0	337.4760150909424	
77	316.3555428981781	pulse	1	t		75.0	2.5	blank	1.0	339.0762870311737	
77	316.86371994018555	fix_post	2		12	75.0	2.5	blank	1.0	339.58446407318115	0.10003209114074707
78	316.9637520313263	fix_pre	0		120	76.0	2.5	/experiments/knapen_AOT/AOT_stimuli/rescaled_final/1973_fw.mp4	0.0	339.6844961643219	1.000114917755127
78	317.95583295822144	pulse	0	t		76.0	2.5	/experiments/knapen_AOT/AOT_stimuli/rescaled_final/1973_fw.mp4	0.0	340.67657709121704	
78	317.9638669490814	movie	1		246	76.0	2.5	/experiments/knapen_AOT/AOT_stimuli/rescaled_final/1973_fw.mp4	0.0	340.684611082077	2.5087289810180664
78	319.5566120147705	pulse	1	t		76.0	2.5	/experiments/knapen_AOT/AOT_stimuli/rescaled_final/1973_fw.mp4	0.0	342.2773561477661	
78	320.4725959300995	fix_post	2		12	76.0	2.5	/experiments/knapen_AOT/AOT_stimuli/rescaled_final/1973_fw.mp4	0.0	343.1933400630951	0.10000991821289062
79	320.5726058483124	fix_pre	0		120	77.0	2.5	/experiments/knapen_AOT/AOT_stimuli/rescaled_final/1357_rv.mp4	0.0	343.293349981308	1.0001850128173828
79	321.1562440395355	pulse	0	t		77.0	2.5	/experiments/knapen_AOT/AOT_stimuli/rescaled_final/1357_rv.mp4	0.0	343.8769881725311	
79	321.57279086112976	movie	1		244	77.0	2.5	/experiments/knapen_AOT/AOT_stimuli/rescaled_final/1357_rv.mp4	0.0	344.29353499412537	2.5003411769866943
79	322.7565670013428	pulse	1	t		77.0	2.5	/experiments/knapen_AOT/AOT_stimuli/rescaled_final/1357_rv.mp4	0.0	345.4773111343384	
79	324.07313203811646	fix_post	2		12	77.0	2.5	/experiments/knapen_AOT/AOT_stimuli/rescaled_final/1357_rv.mp4	0.0	346.79387617111206	0.10011601448059082
80	324.17324805259705	fix_pre	0		120	78.0	2.5	/experiments/knapen_AOT/AOT_stimuli/rescaled_final/2148_fw.mp4	0.0	346.89399218559265	1.0000498294830322
80	324.35667395591736	pulse	0	t		78.0	2.5	/experiments/knapen_AOT/AOT_stimuli/rescaled_final/2148_fw.mp4	0.0	347.07741808891296	
80	325.1732978820801	movie	1		243	78.0	2.5	/experiments/knapen_AOT/AOT_stimuli/rescaled_final/2148_fw.mp4	0.0	347.8940420150757	2.500401020050049
80	325.95725202560425	pulse	1	t		78.0	2.5	/experiments/knapen_AOT/AOT_stimuli/rescaled_final/2148_fw.mp4	0.0	348.67799615859985	
80	327.5573389530182	pulse	1	t		78.0	2.5	/experiments/knapen_AOT/AOT_stimuli/rescaled_final/2148_fw.mp4	0.0	350.2780830860138	
80	327.6736989021301	fix_post	2		12	78.0	2.5	/experiments/knapen_AOT/AOT_stimuli/rescaled_final/2148_fw.mp4	0.0	350.39444303512573	0.09999608993530273
81	327.77369499206543	fix_pre	0		120	79.0	2.5	/experiments/knapen_AOT/AOT_stimuli/rescaled_final/2098_rv.mp4	0.0	350.49443912506104	1.0001459121704102
81	328.77384090423584	movie	1		246	79.0	2.5	/experiments/knapen_AOT/AOT_stimuli/rescaled_final/2098_rv.mp4	0.0	351.49458503723145	2.500349998474121
81	329.1580240726471	pulse	1	t		79.0	2.5	/experiments/knapen_AOT/AOT_stimuli/rescaled_final/2098_rv.mp4	0.0	351.8787682056427	
81	330.75763297080994	pulse	1	t		79.0	2.5	/experiments/knapen_AOT/AOT_stimuli/rescaled_final/2098_rv.mp4	0.0	353.47837710380554	
81	331.27419090270996	fix_post	2		11	79.0	2.5	/experiments/knapen_AOT/AOT_stimuli/rescaled_final/2098_rv.mp4	0.0	353.99493503570557	0.09172201156616211
82	331.3659129142761	fix_pre	0		120	80.0	2.5	/experiments/knapen_AOT/AOT_stimuli/rescaled_final/0769_fw.mp4	0.0	354.08665704727173	1.0001461505889893
82	332.35789585113525	pulse	0	t		80.0	2.5	/experiments/knapen_AOT/AOT_stimuli/rescaled_final/0769_fw.mp4	0.0	355.07863998413086	
82	332.3660590648651	movie	1		246	80.0	2.5	/experiments/knapen_AOT/AOT_stimuli/rescaled_final/0769_fw.mp4	0.0	355.0868031978607	2.5086967945098877
82	333.958860874176	pulse	1	t		80.0	2.5	/experiments/knapen_AOT/AOT_stimuli/rescaled_final/0769_fw.mp4	0.0	356.67960500717163	
82	334.874755859375	fix_post	2		12	80.0	2.5	/experiments/knapen_AOT/AOT_stimuli/rescaled_final/0769_fw.mp4	0.0	357.5954999923706	0.10004305839538574
83	334.9747989177704	fix_pre	0		120	81.0	2.5	/experiments/knapen_AOT/AOT_stimuli/rescaled_final/1026_rv.mp4	0.0	357.695543050766	1.0001399517059326
83	335.5583498477936	pulse	0	t		81.0	2.5	/experiments/knapen_AOT/AOT_stimuli/rescaled_final/1026_rv.mp4	0.0	358.2790939807892	
83	335.9749388694763	movie	1		245	81.0	2.5	/experiments/knapen_AOT/AOT_stimuli/rescaled_final/1026_rv.mp4	0.0	358.6956830024719	2.5003299713134766
83	337.15865087509155	pulse	1	t		81.0	2.5	/experiments/knapen_AOT/AOT_stimuli/rescaled_final/1026_rv.mp4	0.0	359.87939500808716	
83	338.4752688407898	fix_post	2		12	81.0	2.5	/experiments/knapen_AOT/AOT_stimuli/rescaled_final/1026_rv.mp4	0.0	361.1960129737854	0.10002708435058594
84	338.5752959251404	fix_pre	0		120	82.0	2.5	blank	1.0	361.296040058136	1.0001640319824219
84	338.7588429450989	pulse	0	t		82.0	2.5	blank	1.0	361.4795870780945	
84	339.5754599571228	movie	1		300	82.0	2.5	blank	1.0	362.2962040901184	2.500399112701416
84	340.3590898513794	pulse	1	t		82.0	2.5	blank	1.0	363.079833984375	
84	341.9593870639801	pulse	1	t		82.0	2.5	blank	1.0	364.6801311969757	
84	342.0758590698242	fix_post	2		12	82.0	2.5	blank	1.0	364.7966032028198	0.09996294975280762
85	342.175822019577	fix_pre	0		120	83.0	2.5	/experiments/knapen_AOT/AOT_stimuli/rescaled_final/0578_fw.mp4	0.0	364.89656615257263	1.0001850128173828
85	343.1760070323944	movie	1		243	83.0	2.5	/experiments/knapen_AOT/AOT_stimuli/rescaled_final/0578_fw.mp4	0.0	365.89675116539	2.492033004760742
85	343.5602140426636	pulse	1	t		83.0	2.5	/experiments/knapen_AOT/AOT_stimuli/rescaled_final/0578_fw.mp4	0.0	366.2809581756592	
85	345.1524999141693	pulse	1	t		83.0	2.5	/experiments/knapen_AOT/AOT_stimuli/rescaled_final/0578_fw.mp4	0.0	367.8732440471649	
85	345.66804003715515	fix_post	2		12	83.0	2.5	/experiments/knapen_AOT/AOT_stimuli/rescaled_final/0578_fw.mp4	0.0	368.38878417015076	0.09999799728393555
87	345.7680380344391	stim	0		1716					368.4887821674347	14.302313804626465
87	346.7528488636017	pulse	0	t						369.4735929965973	
87	348.3529648780823	pulse	0	t						371.0737090110779	
87	349.9531569480896	pulse	0	t						372.6739010810852	
87	351.5525588989258	pulse	0	t						374.2733030319214	
87	353.15258598327637	pulse	0	t						375.873330116272	
87	354.75283789634705	pulse	0	t						377.47358202934265	
87	356.3530640602112	pulse	0	t						379.0738081932068	
87	357.9533989429474	pulse	0	t						380.674143075943	
87	359.5537099838257	pulse	0	t						382.2744541168213	
