trial_nr	onset	event_type	phase	response	nr_frames	movie_index	movie_duration	movie_file	blank	onset_abs	duration
0	0.17494797706604004	stim	0		17					24.895450592041016	0.1499779224395752
0	0.31685829162597656	response	0	space						25.037360906600952	
1	0.32492589950561523	stim	0		4638					25.04542851448059	38.666435956954956
1	38.97883176803589	pulse	0	t						63.699334383010864	
1	38.99136185646057	stim	1		1715					63.71186447143555	14.29979395866394
1	40.57272148132324	pulse	1	t						65.29322409629822	
1	42.173075437545776	pulse	1	t						66.89357805252075	
1	43.781667709350586	pulse	1	t						68.50217032432556	
1	45.373515605926514	pulse	1	t						70.09401822090149	
1	46.97372388839722	pulse	1	t						71.69422650337219	
1	48.5740110874176	pulse	1	t						73.29451370239258	
1	50.17420554161072	pulse	1	t						74.8947081565857	
1	51.774513721466064	pulse	1	t						76.49501633644104	
2	53.29115581512451	fix_pre	0		6	0.0	2.5	/experiments/knapen_AOT/AOT_stimuli/rescaled_final/1558_fw.mp4	0.0	78.01165843009949	0.14179587364196777
2	53.374842405319214	pulse	0	t		0.0	2.5	/experiments/knapen_AOT/AOT_stimuli/rescaled_final/1558_fw.mp4	0.0	78.09534502029419	
2	53.43295168876648	movie	1		295	0.0	2.5	/experiments/knapen_AOT/AOT_stimuli/rescaled_final/1558_fw.mp4	0.0	78.15345430374146	2.475275754928589
2	54.970680713653564	pulse	1	t		0.0	2.5	/experiments/knapen_AOT/AOT_stimuli/rescaled_final/1558_fw.mp4	0.0	79.69118332862854	
2	55.90822744369507	fix_post	2		12	0.0	2.5	/experiments/knapen_AOT/AOT_stimuli/rescaled_final/1558_fw.mp4	0.0	80.62873005867004	0.10002493858337402
3	56.00825238227844	fix_pre	0		120	1.0	2.5	/experiments/knapen_AOT/AOT_stimuli/rescaled_final/0110_fw.mp4	0.0	80.72875499725342	1.0001943111419678
3	56.57510185241699	pulse	0	t		1.0	2.5	/experiments/knapen_AOT/AOT_stimuli/rescaled_final/0110_fw.mp4	0.0	81.29560446739197	
3	57.00844669342041	movie	1		298	1.0	2.5	/experiments/knapen_AOT/AOT_stimuli/rescaled_final/0110_fw.mp4	0.0	81.72894930839539	2.500349760055542
3	58.17215180397034	pulse	1	t		1.0	2.5	/experiments/knapen_AOT/AOT_stimuli/rescaled_final/0110_fw.mp4	0.0	82.89265441894531	
3	59.50879645347595	fix_post	2		12	1.0	2.5	/experiments/knapen_AOT/AOT_stimuli/rescaled_final/0110_fw.mp4	0.0	84.22929906845093	0.10012507438659668
4	59.60892152786255	fix_pre	0		120	2.0	2.5	/experiments/knapen_AOT/AOT_stimuli/rescaled_final/2130_fw.mp4	0.0	84.32942414283752	0.999981164932251
4	59.77575182914734	pulse	0	t		2.0	2.5	/experiments/knapen_AOT/AOT_stimuli/rescaled_final/2130_fw.mp4	0.0	84.49625444412231	
4	60.6089026927948	movie	1		298	2.0	2.5	/experiments/knapen_AOT/AOT_stimuli/rescaled_final/2130_fw.mp4	0.0	85.32940530776978	2.500379800796509
4	61.37305307388306	pulse	1	t		2.0	2.5	/experiments/knapen_AOT/AOT_stimuli/rescaled_final/2130_fw.mp4	0.0	86.09355568885803	
4	62.972373723983765	pulse	1	t		2.0	2.5	/experiments/knapen_AOT/AOT_stimuli/rescaled_final/2130_fw.mp4	0.0	87.69287633895874	
4	63.10928249359131	fix_post	2		12	2.0	2.5	/experiments/knapen_AOT/AOT_stimuli/rescaled_final/2130_fw.mp4	0.0	87.82978510856628	0.10004854202270508
5	63.209331035614014	fix_pre	0		120	3.0	2.5	/experiments/knapen_AOT/AOT_stimuli/rescaled_final/1227_rv.mp4	0.0	87.92983365058899	1.0085036754608154
5	64.21783471107483	movie	1		296	3.0	2.5	/experiments/knapen_AOT/AOT_stimuli/rescaled_final/1227_rv.mp4	0.0	88.9383373260498	2.492039680480957
5	64.57379794120789	pulse	1	t		3.0	2.5	/experiments/knapen_AOT/AOT_stimuli/rescaled_final/1227_rv.mp4	0.0	89.29430055618286	
5	66.17300033569336	pulse	1	t		3.0	2.5	/experiments/knapen_AOT/AOT_stimuli/rescaled_final/1227_rv.mp4	0.0	90.89350295066833	
5	66.70987439155579	fix_post	2		12	3.0	2.5	/experiments/knapen_AOT/AOT_stimuli/rescaled_final/1227_rv.mp4	0.0	91.43037700653076	0.10001039505004883
6	66.80988478660583	fix_pre	0		117	4.0	2.5	/experiments/knapen_AOT/AOT_stimuli/rescaled_final/0869_fw.mp4	0.0	91.53038740158081	0.983461856842041
6	67.77689409255981	pulse	0	t		4.0	2.5	/experiments/knapen_AOT/AOT_stimuli/rescaled_final/0869_fw.mp4	0.0	92.49739670753479	
6	67.79334664344788	movie	1		299	4.0	2.5	/experiments/knapen_AOT/AOT_stimuli/rescaled_final/0869_fw.mp4	0.0	92.51384925842285	2.500380277633667
6	69.37357950210571	pulse	1	t		4.0	2.5	/experiments/knapen_AOT/AOT_stimuli/rescaled_final/0869_fw.mp4	0.0	94.09408211708069	
6	70.29372692108154	fix_post	2		12	4.0	2.5	/experiments/knapen_AOT/AOT_stimuli/rescaled_final/0869_fw.mp4	0.0	95.01422953605652	0.10001158714294434
7	70.39373850822449	fix_pre	0		120	5.0	2.5	/experiments/knapen_AOT/AOT_stimuli/rescaled_final/1059_fw.mp4	0.0	95.11424112319946	1.0001451969146729
7	70.97739505767822	pulse	0	t		5.0	2.5	/experiments/knapen_AOT/AOT_stimuli/rescaled_final/1059_fw.mp4	0.0	95.6978976726532	
7	71.39388370513916	movie	1		291	5.0	2.5	/experiments/knapen_AOT/AOT_stimuli/rescaled_final/1059_fw.mp4	0.0	96.11438632011414	2.500391960144043
7	72.57342314720154	pulse	1	t		5.0	2.5	/experiments/knapen_AOT/AOT_stimuli/rescaled_final/1059_fw.mp4	0.0	97.29392576217651	
7	73.8942756652832	fix_post	2		12	5.0	2.5	/experiments/knapen_AOT/AOT_stimuli/rescaled_final/1059_fw.mp4	0.0	98.61477828025818	0.10004258155822754
8	73.99431824684143	fix_pre	0		120	6.0	2.5	/experiments/knapen_AOT/AOT_stimuli/rescaled_final/2038_fw.mp4	0.0	98.7148208618164	1.0003540515899658
8	74.17793917655945	pulse	0	t		6.0	2.5	/experiments/knapen_AOT/AOT_stimuli/rescaled_final/2038_fw.mp4	0.0	98.89844179153442	
8	74.9946722984314	movie	1		294	6.0	2.5	/experiments/knapen_AOT/AOT_stimuli/rescaled_final/2038_fw.mp4	0.0	99.71517491340637	2.5001940727233887
8	75.77361941337585	pulse	1	t		6.0	2.5	/experiments/knapen_AOT/AOT_stimuli/rescaled_final/2038_fw.mp4	0.0	100.49412202835083	
8	77.37399697303772	pulse	1	t		6.0	2.5	/experiments/knapen_AOT/AOT_stimuli/rescaled_final/2038_fw.mp4	0.0	102.0944995880127	
8	77.49486637115479	fix_post	2		12	6.0	2.5	/experiments/knapen_AOT/AOT_stimuli/rescaled_final/2038_fw.mp4	0.0	102.21536898612976	0.09999585151672363
9	77.59486222267151	fix_pre	0		120	7.0	2.5	blank	1.0	102.31536483764648	1.0001099109649658
9	78.59497213363647	movie	1		299	7.0	2.5	blank	1.0	103.31547474861145	2.4920480251312256
9	78.97047352790833	pulse	1	t		7.0	2.5	blank	1.0	103.6909761428833	
9	80.57061624526978	pulse	1	t		7.0	2.5	blank	1.0	105.29111886024475	
9	81.0870201587677	fix_post	2		12	7.0	2.5	blank	1.0	105.80752277374268	0.10002541542053223
10	81.18704557418823	fix_pre	0		119	8.0	2.5	/experiments/knapen_AOT/AOT_stimuli/rescaled_final/1382_rv.mp4	0.0	105.90754818916321	1.0001752376556396
10	82.17078924179077	pulse	0	t		8.0	2.5	/experiments/knapen_AOT/AOT_stimuli/rescaled_final/1382_rv.mp4	0.0	106.89129185676575	
10	82.18722081184387	movie	1		293	8.0	2.5	/experiments/knapen_AOT/AOT_stimuli/rescaled_final/1382_rv.mp4	0.0	106.90772342681885	2.5003268718719482
10	83.77109599113464	pulse	1	t		8.0	2.5	/experiments/knapen_AOT/AOT_stimuli/rescaled_final/1382_rv.mp4	0.0	108.49159860610962	
10	84.68754768371582	fix_post	2		12	8.0	2.5	/experiments/knapen_AOT/AOT_stimuli/rescaled_final/1382_rv.mp4	0.0	109.4080502986908	0.10002636909484863
11	84.78757405281067	fix_pre	0		120	9.0	2.5	/experiments/knapen_AOT/AOT_stimuli/rescaled_final/0949_rv.mp4	0.0	109.50807666778564	1.0168225765228271
11	85.37117910385132	pulse	0	t		9.0	2.5	/experiments/knapen_AOT/AOT_stimuli/rescaled_final/0949_rv.mp4	0.0	110.0916817188263	
11	85.8043966293335	movie	1		286	9.0	2.5	/experiments/knapen_AOT/AOT_stimuli/rescaled_final/0949_rv.mp4	0.0	110.52489924430847	2.4837050437927246
11	86.97140669822693	pulse	1	t		9.0	2.5	/experiments/knapen_AOT/AOT_stimuli/rescaled_final/0949_rv.mp4	0.0	111.6919093132019	
11	88.28810167312622	fix_post	2		12	9.0	2.5	/experiments/knapen_AOT/AOT_stimuli/rescaled_final/0949_rv.mp4	0.0	113.0086042881012	0.09999918937683105
12	88.38810086250305	fix_pre	0		120	10.0	2.5	/experiments/knapen_AOT/AOT_stimuli/rescaled_final/1642_fw.mp4	0.0	113.10860347747803	1.0084953308105469
12	88.57165908813477	pulse	0	t		10.0	2.5	/experiments/knapen_AOT/AOT_stimuli/rescaled_final/1642_fw.mp4	0.0	113.29216170310974	
12	89.3965961933136	movie	1		285	10.0	2.5	/experiments/knapen_AOT/AOT_stimuli/rescaled_final/1642_fw.mp4	0.0	114.11709880828857	2.4920437335968018
12	90.17185306549072	pulse	1	t		10.0	2.5	/experiments/knapen_AOT/AOT_stimuli/rescaled_final/1642_fw.mp4	0.0	114.8923556804657	
12	91.77206778526306	pulse	1	t		10.0	2.5	/experiments/knapen_AOT/AOT_stimuli/rescaled_final/1642_fw.mp4	0.0	116.49257040023804	
12	91.8886399269104	fix_post	2		12	10.0	2.5	/experiments/knapen_AOT/AOT_stimuli/rescaled_final/1642_fw.mp4	0.0	116.60914254188538	0.10002756118774414
13	91.98866748809814	fix_pre	0		120	11.0	2.5	/experiments/knapen_AOT/AOT_stimuli/rescaled_final/1622_rv.mp4	0.0	116.70917010307312	1.0251994132995605
13	93.0138669013977	movie	1		282	11.0	2.5	/experiments/knapen_AOT/AOT_stimuli/rescaled_final/1622_rv.mp4	0.0	117.73436951637268	2.4753103256225586
13	93.37270212173462	pulse	1	t		11.0	2.5	/experiments/knapen_AOT/AOT_stimuli/rescaled_final/1622_rv.mp4	0.0	118.0932047367096	
13	94.97280025482178	pulse	1	t		11.0	2.5	/experiments/knapen_AOT/AOT_stimuli/rescaled_final/1622_rv.mp4	0.0	119.69330286979675	
13	95.48917722702026	fix_post	2		12	11.0	2.5	/experiments/knapen_AOT/AOT_stimuli/rescaled_final/1622_rv.mp4	0.0	120.20967984199524	0.10003137588500977
14	95.58920860290527	fix_pre	0		119	12.0	2.5	blank	1.0	120.30971121788025	0.9918272495269775
14	96.57284808158875	pulse	0	t		12.0	2.5	blank	1.0	121.29335069656372	
14	96.58103585243225	movie	1		301	12.0	2.5	blank	1.0	121.30153846740723	2.50870418548584
14	98.17313075065613	pulse	1	t		12.0	2.5	blank	1.0	122.8936333656311	
14	99.08974003791809	fix_post	2		12	12.0	2.5	blank	1.0	123.81024265289307	0.10000967979431152
15	99.1897497177124	fix_pre	0		120	13.0	2.5	/experiments/knapen_AOT/AOT_stimuli/rescaled_final/2130_rv.mp4	0.0	123.91025233268738	1.0169413089752197
15	99.77336740493774	pulse	0	t		13.0	2.5	/experiments/knapen_AOT/AOT_stimuli/rescaled_final/2130_rv.mp4	0.0	124.49387001991272	
15	100.20669102668762	movie	1		259	13.0	2.5	/experiments/knapen_AOT/AOT_stimuli/rescaled_final/2130_rv.mp4	0.0	124.9271936416626	2.483588933944702
15	101.37158370018005	pulse	1	t		13.0	2.5	/experiments/knapen_AOT/AOT_stimuli/rescaled_final/2130_rv.mp4	0.0	126.09208631515503	
15	102.69027996063232	fix_post	2		12	13.0	2.5	/experiments/knapen_AOT/AOT_stimuli/rescaled_final/2130_rv.mp4	0.0	127.4107825756073	0.10001969337463379
16	102.79029965400696	fix_pre	0		120	14.0	2.5	/experiments/knapen_AOT/AOT_stimuli/rescaled_final/2008_fw.mp4	0.0	127.51080226898193	1.0168321132659912
16	102.97390913963318	pulse	0	t		14.0	2.5	/experiments/knapen_AOT/AOT_stimuli/rescaled_final/2008_fw.mp4	0.0	127.69441175460815	
16	103.80713176727295	movie	1		272	14.0	2.5	/experiments/knapen_AOT/AOT_stimuli/rescaled_final/2008_fw.mp4	0.0	128.52763438224792	2.483707904815674
16	104.57205080986023	pulse	1	t		14.0	2.5	/experiments/knapen_AOT/AOT_stimuli/rescaled_final/2008_fw.mp4	0.0	129.2925534248352	
16	106.1721842288971	pulse	1	t		14.0	2.5	/experiments/knapen_AOT/AOT_stimuli/rescaled_final/2008_fw.mp4	0.0	130.89268684387207	
16	106.29083967208862	fix_post	2		12	14.0	2.5	/experiments/knapen_AOT/AOT_stimuli/rescaled_final/2008_fw.mp4	0.0	131.0113422870636	0.10001277923583984
17	106.39085245132446	fix_pre	0		120	15.0	2.5	/experiments/knapen_AOT/AOT_stimuli/rescaled_final/0527_fw.mp4	0.0	131.11135506629944	1.0251564979553223
17	107.41600894927979	movie	1		261	15.0	2.5	/experiments/knapen_AOT/AOT_stimuli/rescaled_final/0527_fw.mp4	0.0	132.13651156425476	2.4753808975219727
17	107.7753312587738	pulse	1	t		15.0	2.5	/experiments/knapen_AOT/AOT_stimuli/rescaled_final/0527_fw.mp4	0.0	132.49583387374878	
17	109.37284016609192	pulse	1	t		15.0	2.5	/experiments/knapen_AOT/AOT_stimuli/rescaled_final/0527_fw.mp4	0.0	134.0933427810669	
17	109.89138984680176	fix_post	2		12	15.0	2.5	/experiments/knapen_AOT/AOT_stimuli/rescaled_final/0527_fw.mp4	0.0	134.61189246177673	0.09998703002929688
18	109.99137687683105	fix_pre	0		119	16.0	2.5	/experiments/knapen_AOT/AOT_stimuli/rescaled_final/1298_fw.mp4	0.0	134.71187949180603	1.0252091884613037
18	110.97513246536255	pulse	0	t		16.0	2.5	/experiments/knapen_AOT/AOT_stimuli/rescaled_final/1298_fw.mp4	0.0	135.69563508033752	
18	111.01658606529236	movie	1		267	16.0	2.5	/experiments/knapen_AOT/AOT_stimuli/rescaled_final/1298_fw.mp4	0.0	135.73708868026733	2.4753293991088867
18	112.57379102706909	pulse	1	t		16.0	2.5	/experiments/knapen_AOT/AOT_stimuli/rescaled_final/1298_fw.mp4	0.0	137.29429364204407	
18	113.49191546440125	fix_post	2		12	16.0	2.5	/experiments/knapen_AOT/AOT_stimuli/rescaled_final/1298_fw.mp4	0.0	138.21241807937622	0.09999966621398926
19	113.59191513061523	fix_pre	0		120	17.0	2.5	/experiments/knapen_AOT/AOT_stimuli/rescaled_final/1160_fw.mp4	0.0	138.3124177455902	1.0252177715301514
19	114.17554092407227	pulse	0	t		17.0	2.5	/experiments/knapen_AOT/AOT_stimuli/rescaled_final/1160_fw.mp4	0.0	138.89604353904724	
19	114.61713290214539	movie	1		270	17.0	2.5	/experiments/knapen_AOT/AOT_stimuli/rescaled_final/1160_fw.mp4	0.0	139.33763551712036	2.4753036499023438
19	115.7739851474762	pulse	1	t		17.0	2.5	/experiments/knapen_AOT/AOT_stimuli/rescaled_final/1160_fw.mp4	0.0	140.49448776245117	
19	117.09243655204773	fix_post	2		12	17.0	2.5	/experiments/knapen_AOT/AOT_stimuli/rescaled_final/1160_fw.mp4	0.0	141.8129391670227	0.10840988159179688
20	117.20084643363953	fix_pre	0		119	18.0	2.5	/experiments/knapen_AOT/AOT_stimuli/rescaled_final/2008_rv.mp4	0.0	141.9213490486145	1.016822338104248
20	117.37599229812622	pulse	0	t		18.0	2.5	/experiments/knapen_AOT/AOT_stimuli/rescaled_final/2008_rv.mp4	0.0	142.0964949131012	
20	118.21766877174377	movie	1		253	18.0	2.5	/experiments/knapen_AOT/AOT_stimuli/rescaled_final/2008_rv.mp4	0.0	142.93817138671875	2.475353240966797
20	118.97426152229309	pulse	1	t		18.0	2.5	/experiments/knapen_AOT/AOT_stimuli/rescaled_final/2008_rv.mp4	0.0	143.69476413726807	
20	120.57478642463684	pulse	1	t		18.0	2.5	/experiments/knapen_AOT/AOT_stimuli/rescaled_final/2008_rv.mp4	0.0	145.29528903961182	
20	120.69302201271057	fix_post	2		12	18.0	2.5	/experiments/knapen_AOT/AOT_stimuli/rescaled_final/2008_rv.mp4	0.0	145.41352462768555	0.0999751091003418
21	120.79299712181091	fix_pre	0		120	19.0	2.5	/experiments/knapen_AOT/AOT_stimuli/rescaled_final/1732_rv.mp4	0.0	145.5134997367859	1.0252227783203125
21	121.81821990013123	movie	1		261	19.0	2.5	/experiments/knapen_AOT/AOT_stimuli/rescaled_final/1732_rv.mp4	0.0	146.5387225151062	2.4753143787384033
21	122.17638897895813	pulse	1	t		19.0	2.5	/experiments/knapen_AOT/AOT_stimuli/rescaled_final/1732_rv.mp4	0.0	146.8968915939331	
21	123.77496337890625	pulse	1	t		19.0	2.5	/experiments/knapen_AOT/AOT_stimuli/rescaled_final/1732_rv.mp4	0.0	148.49546599388123	
21	124.29353427886963	fix_post	2		12	19.0	2.5	/experiments/knapen_AOT/AOT_stimuli/rescaled_final/1732_rv.mp4	0.0	149.0140368938446	0.1000967025756836
22	124.39363098144531	fix_pre	0		119	20.0	2.5	blank	1.0	149.1141335964203	0.9917230606079102
22	125.3772292137146	pulse	0	t		20.0	2.5	blank	1.0	150.09773182868958	
22	125.38535404205322	movie	1		301	20.0	2.5	blank	1.0	150.1058566570282	2.508716583251953
22	126.97751522064209	pulse	1	t		20.0	2.5	blank	1.0	151.69801783561707	
22	127.89407062530518	fix_post	2		12	20.0	2.5	blank	1.0	152.61457324028015	0.10001254081726074
23	127.99408316612244	fix_pre	0		120	21.0	2.5	/experiments/knapen_AOT/AOT_stimuli/rescaled_final/1138_rv.mp4	0.0	152.7145857810974	1.0252397060394287
23	128.577867269516	pulse	0	t		21.0	2.5	/experiments/knapen_AOT/AOT_stimuli/rescaled_final/1138_rv.mp4	0.0	153.29836988449097	
23	129.01932287216187	movie	1		269	21.0	2.5	/experiments/knapen_AOT/AOT_stimuli/rescaled_final/1138_rv.mp4	0.0	153.73982548713684	2.4752936363220215
23	130.17668461799622	pulse	1	t		21.0	2.5	/experiments/knapen_AOT/AOT_stimuli/rescaled_final/1138_rv.mp4	0.0	154.8971872329712	
23	131.4946165084839	fix_post	2		12	21.0	2.5	/experiments/knapen_AOT/AOT_stimuli/rescaled_final/1138_rv.mp4	0.0	156.21511912345886	0.10001754760742188
24	131.5946340560913	fix_pre	0		120	22.0	2.5	/experiments/knapen_AOT/AOT_stimuli/rescaled_final/2165_rv.mp4	0.0	156.31513667106628	1.025179386138916
24	131.77852654457092	pulse	0	t		22.0	2.5	/experiments/knapen_AOT/AOT_stimuli/rescaled_final/2165_rv.mp4	0.0	156.4990291595459	
24	132.61981344223022	movie	1		264	22.0	2.5	/experiments/knapen_AOT/AOT_stimuli/rescaled_final/2165_rv.mp4	0.0	157.3403160572052	2.4753401279449463
24	133.37042045593262	pulse	1	t		22.0	2.5	/experiments/knapen_AOT/AOT_stimuli/rescaled_final/2165_rv.mp4	0.0	158.0909230709076	
24	134.97037053108215	pulse	1	t		22.0	2.5	/experiments/knapen_AOT/AOT_stimuli/rescaled_final/2165_rv.mp4	0.0	159.69087314605713	
24	135.09515357017517	fix_post	2		12	22.0	2.5	/experiments/knapen_AOT/AOT_stimuli/rescaled_final/2165_rv.mp4	0.0	159.81565618515015	0.10004377365112305
25	135.1951973438263	fix_pre	0		120	23.0	2.5	/experiments/knapen_AOT/AOT_stimuli/rescaled_final/1535_fw.mp4	0.0	159.91569995880127	1.0251438617706299
25	136.22034120559692	movie	1		269	23.0	2.5	/experiments/knapen_AOT/AOT_stimuli/rescaled_final/1535_fw.mp4	0.0	160.9408438205719	2.4753661155700684
25	136.57937288284302	pulse	1	t		23.0	2.5	/experiments/knapen_AOT/AOT_stimuli/rescaled_final/1535_fw.mp4	0.0	161.299875497818	
25	138.17089200019836	pulse	1	t		23.0	2.5	/experiments/knapen_AOT/AOT_stimuli/rescaled_final/1535_fw.mp4	0.0	162.89139461517334	
25	138.695707321167	fix_post	2		12	23.0	2.5	/experiments/knapen_AOT/AOT_stimuli/rescaled_final/1535_fw.mp4	0.0	163.41620993614197	0.10001492500305176
26	138.79572224617004	fix_pre	0		118	24.0	2.5	/experiments/knapen_AOT/AOT_stimuli/rescaled_final/2114_rv.mp4	0.0	163.51622486114502	1.000169277191162
26	139.77136087417603	pulse	0	t		24.0	2.5	/experiments/knapen_AOT/AOT_stimuli/rescaled_final/2114_rv.mp4	0.0	164.491863489151	
26	139.7958915233612	movie	1		260	24.0	2.5	/experiments/knapen_AOT/AOT_stimuli/rescaled_final/2114_rv.mp4	0.0	164.51639413833618	2.4921796321868896
26	141.3713252544403	pulse	1	t		24.0	2.5	/experiments/knapen_AOT/AOT_stimuli/rescaled_final/2114_rv.mp4	0.0	166.09182786941528	
26	142.2880711555481	fix_post	2		12	24.0	2.5	/experiments/knapen_AOT/AOT_stimuli/rescaled_final/2114_rv.mp4	0.0	167.00857377052307	0.09987354278564453
27	142.38794469833374	fix_pre	0		120	25.0	2.5	/experiments/knapen_AOT/AOT_stimuli/rescaled_final/0046_rv.mp4	0.0	167.10844731330872	1.0169355869293213
27	142.9716498851776	pulse	0	t		25.0	2.5	/experiments/knapen_AOT/AOT_stimuli/rescaled_final/0046_rv.mp4	0.0	167.6921525001526	
27	143.40488028526306	movie	1		281	25.0	2.5	/experiments/knapen_AOT/AOT_stimuli/rescaled_final/0046_rv.mp4	0.0	168.12538290023804	2.483637571334839
27	144.57017302513123	pulse	1	t		25.0	2.5	/experiments/knapen_AOT/AOT_stimuli/rescaled_final/0046_rv.mp4	0.0	169.2906756401062	
27	145.8885178565979	fix_post	2		12	25.0	2.5	/experiments/knapen_AOT/AOT_stimuli/rescaled_final/0046_rv.mp4	0.0	170.60902047157288	0.0999746322631836
28	145.98849248886108	fix_pre	0		120	26.0	2.5	/experiments/knapen_AOT/AOT_stimuli/rescaled_final/0961_fw.mp4	0.0	170.70899510383606	1.0251414775848389
28	146.1722195148468	pulse	0	t		26.0	2.5	/experiments/knapen_AOT/AOT_stimuli/rescaled_final/0961_fw.mp4	0.0	170.89272212982178	
28	147.01363396644592	movie	1		261	26.0	2.5	/experiments/knapen_AOT/AOT_stimuli/rescaled_final/0961_fw.mp4	0.0	171.7341365814209	2.4753823280334473
28	147.77238130569458	pulse	1	t		26.0	2.5	/experiments/knapen_AOT/AOT_stimuli/rescaled_final/0961_fw.mp4	0.0	172.49288392066956	
28	149.37041234970093	pulse	1	t		26.0	2.5	/experiments/knapen_AOT/AOT_stimuli/rescaled_final/0961_fw.mp4	0.0	174.0909149646759	
28	149.48901629447937	fix_post	2		12	26.0	2.5	/experiments/knapen_AOT/AOT_stimuli/rescaled_final/0961_fw.mp4	0.0	174.20951890945435	0.10002255439758301
29	149.58903884887695	fix_pre	0		120	27.0	2.5	/experiments/knapen_AOT/AOT_stimuli/rescaled_final/0083_fw.mp4	0.0	174.30954146385193	1.0251266956329346
29	150.6141655445099	movie	1		279	27.0	2.5	/experiments/knapen_AOT/AOT_stimuli/rescaled_final/0083_fw.mp4	0.0	175.33466815948486	2.475360155105591
29	150.97137928009033	pulse	1	t		27.0	2.5	/experiments/knapen_AOT/AOT_stimuli/rescaled_final/0083_fw.mp4	0.0	175.6918818950653	
29	152.57211899757385	pulse	1	t		27.0	2.5	/experiments/knapen_AOT/AOT_stimuli/rescaled_final/0083_fw.mp4	0.0	177.29262161254883	
29	153.08952569961548	fix_post	2		12	27.0	2.5	/experiments/knapen_AOT/AOT_stimuli/rescaled_final/0083_fw.mp4	0.0	177.81002831459045	0.10005021095275879
30	153.18957591056824	fix_pre	0		119	28.0	2.5	blank	1.0	177.9100785255432	0.991840124130249
30	154.17321038246155	pulse	0	t		28.0	2.5	blank	1.0	178.89371299743652	
30	154.1814160346985	movie	1		301	28.0	2.5	blank	1.0	178.90191864967346	2.5086514949798584
30	155.7734818458557	pulse	1	t		28.0	2.5	blank	1.0	180.4939844608307	
30	156.69006752967834	fix_post	2		12	28.0	2.5	blank	1.0	181.41057014465332	0.1001746654510498
31	156.7902421951294	fix_pre	0		120	29.0	2.5	/experiments/knapen_AOT/AOT_stimuli/rescaled_final/1191_fw.mp4	0.0	181.51074481010437	1.0250661373138428
31	157.37378573417664	pulse	0	t		29.0	2.5	/experiments/knapen_AOT/AOT_stimuli/rescaled_final/1191_fw.mp4	0.0	182.0942883491516	
31	157.81530833244324	movie	1		262	29.0	2.5	/experiments/knapen_AOT/AOT_stimuli/rescaled_final/1191_fw.mp4	0.0	182.5358109474182	2.475308418273926
31	158.97318816184998	pulse	1	t		29.0	2.5	/experiments/knapen_AOT/AOT_stimuli/rescaled_final/1191_fw.mp4	0.0	183.69369077682495	
31	160.29061675071716	fix_post	2		12	29.0	2.5	/experiments/knapen_AOT/AOT_stimuli/rescaled_final/1191_fw.mp4	0.0	185.01111936569214	0.10003089904785156
32	160.39064764976501	fix_pre	0		120	30.0	2.5	/experiments/knapen_AOT/AOT_stimuli/rescaled_final/0866_fw.mp4	0.0	185.11115026474	1.0251860618591309
32	160.57416796684265	pulse	0	t		30.0	2.5	/experiments/knapen_AOT/AOT_stimuli/rescaled_final/0866_fw.mp4	0.0	185.29467058181763	
32	161.41583371162415	movie	1		270	30.0	2.5	/experiments/knapen_AOT/AOT_stimuli/rescaled_final/0866_fw.mp4	0.0	186.13633632659912	2.475322961807251
32	162.1721396446228	pulse	1	t		30.0	2.5	/experiments/knapen_AOT/AOT_stimuli/rescaled_final/0866_fw.mp4	0.0	186.89264225959778	
32	163.77298092842102	pulse	1	t		30.0	2.5	/experiments/knapen_AOT/AOT_stimuli/rescaled_final/0866_fw.mp4	0.0	188.493483543396	
32	163.8911566734314	fix_post	2		12	30.0	2.5	/experiments/knapen_AOT/AOT_stimuli/rescaled_final/0866_fw.mp4	0.0	188.61165928840637	0.10003662109375
33	163.99119329452515	fix_pre	0		120	31.0	2.5	/experiments/knapen_AOT/AOT_stimuli/rescaled_final/1528_fw.mp4	0.0	188.71169590950012	1.0167677402496338
33	165.00796103477478	movie	1		267	31.0	2.5	/experiments/knapen_AOT/AOT_stimuli/rescaled_final/1528_fw.mp4	0.0	189.72846364974976	2.4837241172790527
33	165.375230550766	pulse	1	t		31.0	2.5	/experiments/knapen_AOT/AOT_stimuli/rescaled_final/1528_fw.mp4	0.0	190.09573316574097	
33	166.97336196899414	pulse	1	t		31.0	2.5	/experiments/knapen_AOT/AOT_stimuli/rescaled_final/1528_fw.mp4	0.0	191.69386458396912	
33	167.49168515205383	fix_post	2		12	31.0	2.5	/experiments/knapen_AOT/AOT_stimuli/rescaled_final/1528_fw.mp4	0.0	192.2121877670288	0.10004019737243652
34	167.59172534942627	fix_pre	0		119	32.0	2.5	/experiments/knapen_AOT/AOT_stimuli/rescaled_final/0598_fw.mp4	0.0	192.31222796440125	1.0085182189941406
34	168.57565474510193	pulse	0	t		32.0	2.5	/experiments/knapen_AOT/AOT_stimuli/rescaled_final/0598_fw.mp4	0.0	193.2961573600769	
34	168.6002435684204	movie	1		257	32.0	2.5	/experiments/knapen_AOT/AOT_stimuli/rescaled_final/0598_fw.mp4	0.0	193.32074618339539	2.4919841289520264
34	170.17387318611145	pulse	1	t		32.0	2.5	/experiments/knapen_AOT/AOT_stimuli/rescaled_final/0598_fw.mp4	0.0	194.89437580108643	
34	171.09222769737244	fix_post	2		12	32.0	2.5	/experiments/knapen_AOT/AOT_stimuli/rescaled_final/0598_fw.mp4	0.0	195.8127303123474	0.10001850128173828
35	171.19224619865417	fix_pre	0		120	33.0	2.5	/experiments/knapen_AOT/AOT_stimuli/rescaled_final/0030_fw.mp4	0.0	195.91274881362915	1.0169029235839844
35	171.77616953849792	pulse	0	t		33.0	2.5	/experiments/knapen_AOT/AOT_stimuli/rescaled_final/0030_fw.mp4	0.0	196.4966721534729	
35	172.20914912223816	movie	1		276	33.0	2.5	/experiments/knapen_AOT/AOT_stimuli/rescaled_final/0030_fw.mp4	0.0	196.92965173721313	2.4836270809173584
35	173.37401843070984	pulse	1	t		33.0	2.5	/experiments/knapen_AOT/AOT_stimuli/rescaled_final/0030_fw.mp4	0.0	198.09452104568481	
35	174.69277620315552	fix_post	2		12	33.0	2.5	/experiments/knapen_AOT/AOT_stimuli/rescaled_final/0030_fw.mp4	0.0	199.4132788181305	0.10001945495605469
36	174.79279565811157	fix_pre	0		120	34.0	2.5	/experiments/knapen_AOT/AOT_stimuli/rescaled_final/1006_rv.mp4	0.0	199.51329827308655	1.025177001953125
36	174.97640919685364	pulse	0	t		34.0	2.5	/experiments/knapen_AOT/AOT_stimuli/rescaled_final/1006_rv.mp4	0.0	199.6969118118286	
36	175.8179726600647	movie	1		275	34.0	2.5	/experiments/knapen_AOT/AOT_stimuli/rescaled_final/1006_rv.mp4	0.0	200.53847527503967	2.4753167629241943
36	176.57587337493896	pulse	1	t		34.0	2.5	/experiments/knapen_AOT/AOT_stimuli/rescaled_final/1006_rv.mp4	0.0	201.29637598991394	
36	178.172349691391	pulse	1	t		34.0	2.5	/experiments/knapen_AOT/AOT_stimuli/rescaled_final/1006_rv.mp4	0.0	202.89285230636597	
36	178.2932894229889	fix_post	2		12	34.0	2.5	/experiments/knapen_AOT/AOT_stimuli/rescaled_final/1006_rv.mp4	0.0	203.01379203796387	0.10000753402709961
37	178.393296957016	fix_pre	0		120	35.0	2.5	blank	1.0	203.11379957199097	1.000182867050171
37	179.39347982406616	movie	1		300	35.0	2.5	blank	1.0	204.11398243904114	2.5003955364227295
37	179.77700066566467	pulse	1	t		35.0	2.5	blank	1.0	204.49750328063965	
37	181.37728476524353	pulse	1	t		35.0	2.5	blank	1.0	206.0977873802185	
37	181.8938753604889	fix_post	2		12	35.0	2.5	blank	1.0	206.61437797546387	0.10009002685546875
38	181.99396538734436	fix_pre	0		119	36.0	2.5	/experiments/knapen_AOT/AOT_stimuli/rescaled_final/1395_rv.mp4	0.0	206.71446800231934	1.0167546272277832
38	182.97782039642334	pulse	0	t		36.0	2.5	/experiments/knapen_AOT/AOT_stimuli/rescaled_final/1395_rv.mp4	0.0	207.69832301139832	
38	183.01072001457214	movie	1		279	36.0	2.5	/experiments/knapen_AOT/AOT_stimuli/rescaled_final/1395_rv.mp4	0.0	207.73122262954712	2.4836604595184326
38	184.57363891601562	pulse	1	t		36.0	2.5	/experiments/knapen_AOT/AOT_stimuli/rescaled_final/1395_rv.mp4	0.0	209.2941415309906	
38	185.49438047409058	fix_post	2		12	36.0	2.5	/experiments/knapen_AOT/AOT_stimuli/rescaled_final/1395_rv.mp4	0.0	210.21488308906555	0.10001397132873535
39	185.5943944454193	fix_pre	0		120	37.0	2.5	/experiments/knapen_AOT/AOT_stimuli/rescaled_final/0530_fw.mp4	0.0	210.3148970603943	1.0252704620361328
39	186.17027378082275	pulse	0	t		37.0	2.5	/experiments/knapen_AOT/AOT_stimuli/rescaled_final/0530_fw.mp4	0.0	210.89077639579773	
39	186.61966490745544	movie	1		289	37.0	2.5	/experiments/knapen_AOT/AOT_stimuli/rescaled_final/0530_fw.mp4	0.0	211.34016752243042	2.4752824306488037
39	187.7747826576233	pulse	1	t		37.0	2.5	/experiments/knapen_AOT/AOT_stimuli/rescaled_final/0530_fw.mp4	0.0	212.49528527259827	
39	189.09494733810425	fix_post	2		12	37.0	2.5	/experiments/knapen_AOT/AOT_stimuli/rescaled_final/0530_fw.mp4	0.0	213.81544995307922	0.09998583793640137
40	189.19493317604065	fix_pre	0		120	38.0	2.5	/experiments/knapen_AOT/AOT_stimuli/rescaled_final/1642_rv.mp4	0.0	213.91543579101562	1.0084996223449707
40	189.3702256679535	pulse	0	t		38.0	2.5	/experiments/knapen_AOT/AOT_stimuli/rescaled_final/1642_rv.mp4	0.0	214.09072828292847	
40	190.20343279838562	movie	1		285	38.0	2.5	/experiments/knapen_AOT/AOT_stimuli/rescaled_final/1642_rv.mp4	0.0	214.9239354133606	2.4920220375061035
40	190.97032356262207	pulse	1	t		38.0	2.5	/experiments/knapen_AOT/AOT_stimuli/rescaled_final/1642_rv.mp4	0.0	215.69082617759705	
40	192.5706136226654	pulse	1	t		38.0	2.5	/experiments/knapen_AOT/AOT_stimuli/rescaled_final/1642_rv.mp4	0.0	217.29111623764038	
40	192.69545483589172	fix_post	2		12	38.0	2.5	/experiments/knapen_AOT/AOT_stimuli/rescaled_final/1642_rv.mp4	0.0	217.4159574508667	0.10001230239868164
41	192.7954671382904	fix_pre	0		120	39.0	2.5	/experiments/knapen_AOT/AOT_stimuli/rescaled_final/1568_fw.mp4	0.0	217.51596975326538	1.0252158641815186
41	193.82068300247192	movie	1		286	39.0	2.5	/experiments/knapen_AOT/AOT_stimuli/rescaled_final/1568_fw.mp4	0.0	218.5411856174469	2.4753382205963135
41	194.17098426818848	pulse	1	t		39.0	2.5	/experiments/knapen_AOT/AOT_stimuli/rescaled_final/1568_fw.mp4	0.0	218.89148688316345	
41	195.77105855941772	pulse	1	t		39.0	2.5	/experiments/knapen_AOT/AOT_stimuli/rescaled_final/1568_fw.mp4	0.0	220.4915611743927	
41	196.29602122306824	fix_post	2		12	39.0	2.5	/experiments/knapen_AOT/AOT_stimuli/rescaled_final/1568_fw.mp4	0.0	221.0165238380432	0.09999918937683105
42	196.39602041244507	fix_pre	0		118	40.0	2.5	blank	1.0	221.11652302742004	0.9834785461425781
42	197.37139701843262	pulse	0	t		40.0	2.5	blank	1.0	222.0918996334076	
42	197.37949895858765	movie	1		301	40.0	2.5	blank	1.0	222.10000157356262	2.508751630783081
42	198.97160983085632	pulse	1	t		40.0	2.5	blank	1.0	223.6921124458313	
42	199.88825058937073	fix_post	2		12	40.0	2.5	blank	1.0	224.6087532043457	0.1000666618347168
43	199.98831725120544	fix_pre	0		120	41.0	2.5	/experiments/knapen_AOT/AOT_stimuli/rescaled_final/0034_rv.mp4	0.0	224.70881986618042	1.033452033996582
43	200.572012424469	pulse	0	t		41.0	2.5	/experiments/knapen_AOT/AOT_stimuli/rescaled_final/0034_rv.mp4	0.0	225.29251503944397	
43	201.02176928520203	movie	1		248	41.0	2.5	/experiments/knapen_AOT/AOT_stimuli/rescaled_final/0034_rv.mp4	0.0	225.742271900177	2.467003583908081
43	202.17224860191345	pulse	1	t		41.0	2.5	/experiments/knapen_AOT/AOT_stimuli/rescaled_final/0034_rv.mp4	0.0	226.89275121688843	
43	203.4887728691101	fix_post	2		12	41.0	2.5	/experiments/knapen_AOT/AOT_stimuli/rescaled_final/0034_rv.mp4	0.0	228.20927548408508	0.10000967979431152
44	203.58878254890442	fix_pre	0		120	42.0	2.5	/experiments/knapen_AOT/AOT_stimuli/rescaled_final/1057_rv.mp4	0.0	228.3092851638794	1.025216817855835
44	203.772451877594	pulse	0	t		42.0	2.5	/experiments/knapen_AOT/AOT_stimuli/rescaled_final/1057_rv.mp4	0.0	228.49295449256897	
44	204.61399936676025	movie	1		275	42.0	2.5	/experiments/knapen_AOT/AOT_stimuli/rescaled_final/1057_rv.mp4	0.0	229.33450198173523	2.475315570831299
44	205.37146615982056	pulse	1	t		42.0	2.5	/experiments/knapen_AOT/AOT_stimuli/rescaled_final/1057_rv.mp4	0.0	230.09196877479553	
44	206.97084403038025	pulse	1	t		42.0	2.5	/experiments/knapen_AOT/AOT_stimuli/rescaled_final/1057_rv.mp4	0.0	231.69134664535522	
44	207.08931493759155	fix_post	2		12	42.0	2.5	/experiments/knapen_AOT/AOT_stimuli/rescaled_final/1057_rv.mp4	0.0	231.80981755256653	0.10006356239318848
45	207.18937849998474	fix_pre	0		120	43.0	2.5	/experiments/knapen_AOT/AOT_stimuli/rescaled_final/2030_fw.mp4	0.0	231.90988111495972	1.01680588722229
45	208.20618438720703	movie	1		254	43.0	2.5	/experiments/knapen_AOT/AOT_stimuli/rescaled_final/2030_fw.mp4	0.0	232.926687002182	2.4836814403533936
45	208.57348704338074	pulse	1	t		43.0	2.5	/experiments/knapen_AOT/AOT_stimuli/rescaled_final/2030_fw.mp4	0.0	233.2939896583557	
45	210.17258310317993	pulse	1	t		43.0	2.5	/experiments/knapen_AOT/AOT_stimuli/rescaled_final/2030_fw.mp4	0.0	234.8930857181549	
45	210.68986582756042	fix_post	2		12	43.0	2.5	/experiments/knapen_AOT/AOT_stimuli/rescaled_final/2030_fw.mp4	0.0	235.4103684425354	0.10001277923583984
46	210.78987860679626	fix_pre	0		119	44.0	2.5	/experiments/knapen_AOT/AOT_stimuli/rescaled_final/1035_fw.mp4	0.0	235.51038122177124	1.0084872245788574
46	211.77362179756165	pulse	0	t		44.0	2.5	/experiments/knapen_AOT/AOT_stimuli/rescaled_final/1035_fw.mp4	0.0	236.49412441253662	
46	211.79836583137512	movie	1		266	44.0	2.5	/experiments/knapen_AOT/AOT_stimuli/rescaled_final/1035_fw.mp4	0.0	236.5188684463501	2.4920313358306885
46	213.37210607528687	pulse	1	t		44.0	2.5	/experiments/knapen_AOT/AOT_stimuli/rescaled_final/1035_fw.mp4	0.0	238.09260869026184	
46	214.2903971672058	fix_post	2		12	44.0	2.5	/experiments/knapen_AOT/AOT_stimuli/rescaled_final/1035_fw.mp4	0.0	239.0108997821808	0.10004472732543945
47	214.39044189453125	fix_pre	0		120	45.0	2.5	/experiments/knapen_AOT/AOT_stimuli/rescaled_final/0943_rv.mp4	0.0	239.11094450950623	1.0168075561523438
47	214.97417759895325	pulse	0	t		45.0	2.5	/experiments/knapen_AOT/AOT_stimuli/rescaled_final/0943_rv.mp4	0.0	239.69468021392822	
47	215.4072494506836	movie	1		271	45.0	2.5	/experiments/knapen_AOT/AOT_stimuli/rescaled_final/0943_rv.mp4	0.0	240.12775206565857	2.4836959838867188
47	216.57210278511047	pulse	1	t		45.0	2.5	/experiments/knapen_AOT/AOT_stimuli/rescaled_final/0943_rv.mp4	0.0	241.29260540008545	
47	217.8909454345703	fix_post	2		12	45.0	2.5	/experiments/knapen_AOT/AOT_stimuli/rescaled_final/0943_rv.mp4	0.0	242.6114480495453	0.10000181198120117
48	217.9909472465515	fix_pre	0		120	46.0	2.5	/experiments/knapen_AOT/AOT_stimuli/rescaled_final/1951_fw.mp4	0.0	242.7114498615265	1.0168545246124268
48	218.17456984519958	pulse	0	t		46.0	2.5	/experiments/knapen_AOT/AOT_stimuli/rescaled_final/1951_fw.mp4	0.0	242.89507246017456	
48	219.00780177116394	movie	1		182	46.0	2.5	/experiments/knapen_AOT/AOT_stimuli/rescaled_final/1951_fw.mp4	0.0	243.72830438613892	2.483665943145752
48	219.77248549461365	pulse	1	t		46.0	2.5	/experiments/knapen_AOT/AOT_stimuli/rescaled_final/1951_fw.mp4	0.0	244.49298810958862	
48	221.37348651885986	pulse	1	t		46.0	2.5	/experiments/knapen_AOT/AOT_stimuli/rescaled_final/1951_fw.mp4	0.0	246.09398913383484	
48	221.4914677143097	fix_post	2		12	46.0	2.5	/experiments/knapen_AOT/AOT_stimuli/rescaled_final/1951_fw.mp4	0.0	246.21197032928467	0.10005450248718262
49	221.59152221679688	fix_pre	0		120	47.0	2.5	blank	1.0	246.31202483177185	1.0001256465911865
49	222.59164786338806	movie	1		300	47.0	2.5	blank	1.0	247.31215047836304	2.5003623962402344
49	222.97523140907288	pulse	1	t		47.0	2.5	blank	1.0	247.69573402404785	
49	224.57553958892822	pulse	1	t		47.0	2.5	blank	1.0	249.2960422039032	
49	225.0920102596283	fix_post	2		12	47.0	2.5	blank	1.0	249.81251287460327	0.10003328323364258
50	225.19204354286194	fix_pre	0		119	48.0	2.5	/experiments/knapen_AOT/AOT_stimuli/rescaled_final/1854_rv.mp4	0.0	249.9125461578369	1.0169527530670166
50	226.17574048042297	pulse	0	t		48.0	2.5	/experiments/knapen_AOT/AOT_stimuli/rescaled_final/1854_rv.mp4	0.0	250.89624309539795	
50	226.20899629592896	movie	1		280	48.0	2.5	/experiments/knapen_AOT/AOT_stimuli/rescaled_final/1854_rv.mp4	0.0	250.92949891090393	2.4835898876190186
50	227.7743866443634	pulse	1	t		48.0	2.5	/experiments/knapen_AOT/AOT_stimuli/rescaled_final/1854_rv.mp4	0.0	252.49488925933838	
50	228.69258618354797	fix_post	2		12	48.0	2.5	/experiments/knapen_AOT/AOT_stimuli/rescaled_final/1854_rv.mp4	0.0	253.41308879852295	0.10014986991882324
51	228.7927360534668	fix_pre	0		120	49.0	2.5	/experiments/knapen_AOT/AOT_stimuli/rescaled_final/0102_fw.mp4	0.0	253.51323866844177	1.0250468254089355
51	229.37628650665283	pulse	0	t		49.0	2.5	/experiments/knapen_AOT/AOT_stimuli/rescaled_final/0102_fw.mp4	0.0	254.0967891216278	
51	229.81778287887573	movie	1		281	49.0	2.5	/experiments/knapen_AOT/AOT_stimuli/rescaled_final/0102_fw.mp4	0.0	254.5382854938507	2.4753150939941406
51	230.974369764328	pulse	1	t		49.0	2.5	/experiments/knapen_AOT/AOT_stimuli/rescaled_final/0102_fw.mp4	0.0	255.69487237930298	
51	232.29309797286987	fix_post	2		12	49.0	2.5	/experiments/knapen_AOT/AOT_stimuli/rescaled_final/0102_fw.mp4	0.0	257.01360058784485	0.10001564025878906
52	232.39311361312866	fix_pre	0		120	50.0	2.5	/experiments/knapen_AOT/AOT_stimuli/rescaled_final/1298_rv.mp4	0.0	257.11361622810364	1.0251951217651367
52	232.5767116546631	pulse	0	t		50.0	2.5	/experiments/knapen_AOT/AOT_stimuli/rescaled_final/1298_rv.mp4	0.0	257.29721426963806	
52	233.4183087348938	movie	1		281	50.0	2.5	/experiments/knapen_AOT/AOT_stimuli/rescaled_final/1298_rv.mp4	0.0	258.1388113498688	2.4753379821777344
52	234.17480397224426	pulse	1	t		50.0	2.5	/experiments/knapen_AOT/AOT_stimuli/rescaled_final/1298_rv.mp4	0.0	258.89530658721924	
52	235.77512335777283	pulse	1	t		50.0	2.5	/experiments/knapen_AOT/AOT_stimuli/rescaled_final/1298_rv.mp4	0.0	260.4956259727478	
52	235.89364671707153	fix_post	2		12	50.0	2.5	/experiments/knapen_AOT/AOT_stimuli/rescaled_final/1298_rv.mp4	0.0	260.6141493320465	0.10002708435058594
53	235.99367380142212	fix_pre	0		120	51.0	2.5	/experiments/knapen_AOT/AOT_stimuli/rescaled_final/0633_rv.mp4	0.0	260.7141764163971	1.016787052154541
53	237.01046085357666	movie	1		278	51.0	2.5	/experiments/knapen_AOT/AOT_stimuli/rescaled_final/0633_rv.mp4	0.0	261.73096346855164	2.483722686767578
53	237.37579727172852	pulse	1	t		51.0	2.5	/experiments/knapen_AOT/AOT_stimuli/rescaled_final/0633_rv.mp4	0.0	262.0962998867035	
53	238.97557926177979	pulse	1	t		51.0	2.5	/experiments/knapen_AOT/AOT_stimuli/rescaled_final/0633_rv.mp4	0.0	263.69608187675476	
53	239.49418354034424	fix_post	2		12	51.0	2.5	/experiments/knapen_AOT/AOT_stimuli/rescaled_final/0633_rv.mp4	0.0	264.2146861553192	0.10004973411560059
54	239.59423327445984	fix_pre	0		118	52.0	2.5	/experiments/knapen_AOT/AOT_stimuli/rescaled_final/1908_fw.mp4	0.0	264.3147358894348	1.0252685546875
54	240.57834100723267	pulse	0	t		52.0	2.5	/experiments/knapen_AOT/AOT_stimuli/rescaled_final/1908_fw.mp4	0.0	265.29884362220764	
54	240.61950182914734	movie	1		282	52.0	2.5	/experiments/knapen_AOT/AOT_stimuli/rescaled_final/1908_fw.mp4	0.0	265.3400044441223	2.4752278327941895
54	242.17657351493835	pulse	1	t		52.0	2.5	/experiments/knapen_AOT/AOT_stimuli/rescaled_final/1908_fw.mp4	0.0	266.89707612991333	
54	243.09472966194153	fix_post	2		12	52.0	2.5	/experiments/knapen_AOT/AOT_stimuli/rescaled_final/1908_fw.mp4	0.0	267.8152322769165	0.10001778602600098
55	243.19474744796753	fix_pre	0		120	53.0	2.5	/experiments/knapen_AOT/AOT_stimuli/rescaled_final/2145_rv.mp4	0.0	267.9152500629425	1.0168225765228271
55	243.77846693992615	pulse	0	t		53.0	2.5	/experiments/knapen_AOT/AOT_stimuli/rescaled_final/2145_rv.mp4	0.0	268.4989695549011	
55	244.21157002449036	movie	1		280	53.0	2.5	/experiments/knapen_AOT/AOT_stimuli/rescaled_final/2145_rv.mp4	0.0	268.93207263946533	2.483691453933716
55	245.3765730857849	pulse	1	t		53.0	2.5	/experiments/knapen_AOT/AOT_stimuli/rescaled_final/2145_rv.mp4	0.0	270.0970757007599	
55	246.69526147842407	fix_post	2		12	53.0	2.5	/experiments/knapen_AOT/AOT_stimuli/rescaled_final/2145_rv.mp4	0.0	271.41576409339905	0.10001897811889648
56	246.79528045654297	fix_pre	0		120	54.0	2.5	blank	1.0	271.51578307151794	1.0001444816589355
56	246.97093510627747	pulse	0	t		54.0	2.5	blank	1.0	271.69143772125244	
56	247.7954249382019	movie	1		300	54.0	2.5	blank	1.0	272.5159275531769	2.5004045963287354
56	248.57115077972412	pulse	1	t		54.0	2.5	blank	1.0	273.2916533946991	
56	250.1710889339447	pulse	1	t		54.0	2.5	blank	1.0	274.8915915489197	
56	250.29582953453064	fix_post	2		12	54.0	2.5	blank	1.0	275.0163321495056	0.10006022453308105
57	250.39588975906372	fix_pre	0		120	55.0	2.5	/experiments/knapen_AOT/AOT_stimuli/rescaled_final/1211_rv.mp4	0.0	275.1163923740387	1.016751766204834
57	251.41264152526855	movie	1		280	55.0	2.5	/experiments/knapen_AOT/AOT_stimuli/rescaled_final/1211_rv.mp4	0.0	276.13314414024353	2.4836971759796143
57	251.77151370048523	pulse	1	t		55.0	2.5	/experiments/knapen_AOT/AOT_stimuli/rescaled_final/1211_rv.mp4	0.0	276.4920163154602	
57	253.37152791023254	pulse	1	t		55.0	2.5	/experiments/knapen_AOT/AOT_stimuli/rescaled_final/1211_rv.mp4	0.0	278.0920305252075	
57	253.89633870124817	fix_post	2		12	55.0	2.5	/experiments/knapen_AOT/AOT_stimuli/rescaled_final/1211_rv.mp4	0.0	278.61684131622314	0.10003161430358887
58	253.99637031555176	fix_pre	0		118	56.0	2.5	/experiments/knapen_AOT/AOT_stimuli/rescaled_final/2130_rv.mp4	0.0	278.71687293052673	1.000169038772583
58	254.97182273864746	pulse	0	t		56.0	2.5	/experiments/knapen_AOT/AOT_stimuli/rescaled_final/2130_rv.mp4	0.0	279.69232535362244	
58	254.99653935432434	movie	1		280	56.0	2.5	/experiments/knapen_AOT/AOT_stimuli/rescaled_final/2130_rv.mp4	0.0	279.7170419692993	2.492018222808838
58	256.5715162754059	pulse	1	t		56.0	2.5	/experiments/knapen_AOT/AOT_stimuli/rescaled_final/2130_rv.mp4	0.0	281.29201889038086	
58	257.4885575771332	fix_post	2		12	56.0	2.5	/experiments/knapen_AOT/AOT_stimuli/rescaled_final/2130_rv.mp4	0.0	282.20906019210815	0.1000518798828125
59	257.588609457016	fix_pre	0		120	57.0	2.5	/experiments/knapen_AOT/AOT_stimuli/rescaled_final/0844_rv.mp4	0.0	282.30911207199097	1.0168218612670898
59	258.1722116470337	pulse	0	t		57.0	2.5	/experiments/knapen_AOT/AOT_stimuli/rescaled_final/0844_rv.mp4	0.0	282.89271426200867	
59	258.6054313182831	movie	1		285	57.0	2.5	/experiments/knapen_AOT/AOT_stimuli/rescaled_final/0844_rv.mp4	0.0	283.32593393325806	2.483658790588379
59	259.7726972103119	pulse	1	t		57.0	2.5	/experiments/knapen_AOT/AOT_stimuli/rescaled_final/0844_rv.mp4	0.0	284.49319982528687	
59	261.08909010887146	fix_post	2		12	57.0	2.5	/experiments/knapen_AOT/AOT_stimuli/rescaled_final/0844_rv.mp4	0.0	285.80959272384644	0.10002326965332031
60	261.1891133785248	fix_pre	0		120	58.0	2.5	/experiments/knapen_AOT/AOT_stimuli/rescaled_final/1547_fw.mp4	0.0	285.90961599349976	1.0251967906951904
60	261.3729667663574	pulse	0	t		58.0	2.5	/experiments/knapen_AOT/AOT_stimuli/rescaled_final/1547_fw.mp4	0.0	286.0934693813324	
60	262.21431016921997	movie	1		279	58.0	2.5	/experiments/knapen_AOT/AOT_stimuli/rescaled_final/1547_fw.mp4	0.0	286.93481278419495	2.4753217697143555
60	262.97102904319763	pulse	1	t		58.0	2.5	/experiments/knapen_AOT/AOT_stimuli/rescaled_final/1547_fw.mp4	0.0	287.6915316581726	
60	264.5710275173187	pulse	1	t		58.0	2.5	/experiments/knapen_AOT/AOT_stimuli/rescaled_final/1547_fw.mp4	0.0	289.2915301322937	
60	264.6896319389343	fix_post	2		12	58.0	2.5	/experiments/knapen_AOT/AOT_stimuli/rescaled_final/1547_fw.mp4	0.0	289.4101345539093	0.10004830360412598
61	264.78968024253845	fix_pre	0		120	59.0	2.5	/experiments/knapen_AOT/AOT_stimuli/rescaled_final/1880_fw.mp4	0.0	289.5101828575134	1.0252106189727783
61	265.81489086151123	movie	1		284	59.0	2.5	/experiments/knapen_AOT/AOT_stimuli/rescaled_final/1880_fw.mp4	0.0	290.5353934764862	2.4752848148345947
61	266.1715610027313	pulse	1	t		59.0	2.5	/experiments/knapen_AOT/AOT_stimuli/rescaled_final/1880_fw.mp4	0.0	290.8920636177063	
61	267.77150297164917	pulse	1	t		59.0	2.5	/experiments/knapen_AOT/AOT_stimuli/rescaled_final/1880_fw.mp4	0.0	292.49200558662415	
61	268.2901756763458	fix_post	2		12	59.0	2.5	/experiments/knapen_AOT/AOT_stimuli/rescaled_final/1880_fw.mp4	0.0	293.0106782913208	0.10001420974731445
62	268.39018988609314	fix_pre	0		119	60.0	2.5	/experiments/knapen_AOT/AOT_stimuli/rescaled_final/1298_rv.mp4	0.0	293.1106925010681	1.0168302059173584
62	269.37386655807495	pulse	0	t		60.0	2.5	/experiments/knapen_AOT/AOT_stimuli/rescaled_final/1298_rv.mp4	0.0	294.0943691730499	
62	269.4070200920105	movie	1		281	60.0	2.5	/experiments/knapen_AOT/AOT_stimuli/rescaled_final/1298_rv.mp4	0.0	294.1275227069855	2.483696699142456
62	270.9724967479706	pulse	1	t		60.0	2.5	/experiments/knapen_AOT/AOT_stimuli/rescaled_final/1298_rv.mp4	0.0	295.69299936294556	
62	271.89071679115295	fix_post	2		12	60.0	2.5	/experiments/knapen_AOT/AOT_stimuli/rescaled_final/1298_rv.mp4	0.0	296.61121940612793	0.1000216007232666
63	271.9907383918762	fix_pre	0		120	61.0	2.5	blank	1.0	296.7112410068512	1.000164270401001
63	272.57438492774963	pulse	0	t		61.0	2.5	blank	1.0	297.2948875427246	
63	272.9909026622772	movie	1		300	61.0	2.5	blank	1.0	297.7114052772522	2.500380039215088
63	274.1745915412903	pulse	1	t		61.0	2.5	blank	1.0	298.89509415626526	
63	275.4912827014923	fix_post	2		12	61.0	2.5	blank	1.0	300.2117853164673	0.10003161430358887
64	275.5913143157959	fix_pre	0		120	62.0	2.5	/experiments/knapen_AOT/AOT_stimuli/rescaled_final/0981_rv.mp4	0.0	300.3118169307709	1.0251657962799072
64	275.77482438087463	pulse	0	t		62.0	2.5	/experiments/knapen_AOT/AOT_stimuli/rescaled_final/0981_rv.mp4	0.0	300.4953269958496	
64	276.6164801120758	movie	1		278	62.0	2.5	/experiments/knapen_AOT/AOT_stimuli/rescaled_final/0981_rv.mp4	0.0	301.3369827270508	2.475339412689209
64	277.37310814857483	pulse	1	t		62.0	2.5	/experiments/knapen_AOT/AOT_stimuli/rescaled_final/0981_rv.mp4	0.0	302.0936107635498	
64	278.9733386039734	pulse	1	t		62.0	2.5	/experiments/knapen_AOT/AOT_stimuli/rescaled_final/0981_rv.mp4	0.0	303.69384121894836	
64	279.091819524765	fix_post	2		12	62.0	2.5	/experiments/knapen_AOT/AOT_stimuli/rescaled_final/0981_rv.mp4	0.0	303.81232213974	0.1000204086303711
65	279.1918399333954	fix_pre	0		120	63.0	2.5	/experiments/knapen_AOT/AOT_stimuli/rescaled_final/1281_fw.mp4	0.0	303.91234254837036	1.0168125629425049
65	280.2086524963379	movie	1		281	63.0	2.5	/experiments/knapen_AOT/AOT_stimuli/rescaled_final/1281_fw.mp4	0.0	304.92915511131287	2.4837071895599365
65	280.5757827758789	pulse	1	t		63.0	2.5	/experiments/knapen_AOT/AOT_stimuli/rescaled_final/1281_fw.mp4	0.0	305.2962853908539	
65	282.1735224723816	pulse	1	t		63.0	2.5	/experiments/knapen_AOT/AOT_stimuli/rescaled_final/1281_fw.mp4	0.0	306.89402508735657	
65	282.6923596858978	fix_post	2		12	63.0	2.5	/experiments/knapen_AOT/AOT_stimuli/rescaled_final/1281_fw.mp4	0.0	307.4128623008728	0.09999322891235352
66	282.7923529148102	fix_pre	0		119	64.0	2.5	/experiments/knapen_AOT/AOT_stimuli/rescaled_final/0527_fw.mp4	0.0	307.51285552978516	1.0169312953948975
66	283.7760498523712	pulse	0	t		64.0	2.5	/experiments/knapen_AOT/AOT_stimuli/rescaled_final/0527_fw.mp4	0.0	308.4965524673462	
66	283.8092842102051	movie	1		289	64.0	2.5	/experiments/knapen_AOT/AOT_stimuli/rescaled_final/0527_fw.mp4	0.0	308.52978682518005	2.4836275577545166
66	285.3747248649597	pulse	1	t		64.0	2.5	/experiments/knapen_AOT/AOT_stimuli/rescaled_final/0527_fw.mp4	0.0	310.0952274799347	
66	286.2929117679596	fix_post	2		12	64.0	2.5	/experiments/knapen_AOT/AOT_stimuli/rescaled_final/0527_fw.mp4	0.0	311.01341438293457	0.1001589298248291
67	286.3930706977844	fix_pre	0		120	65.0	2.5	/experiments/knapen_AOT/AOT_stimuli/rescaled_final/0423_fw.mp4	0.0	311.1135733127594	1.0250310897827148
67	286.97662472724915	pulse	0	t		65.0	2.5	/experiments/knapen_AOT/AOT_stimuli/rescaled_final/0423_fw.mp4	0.0	311.6971273422241	
67	287.41810178756714	movie	1		287	65.0	2.5	/experiments/knapen_AOT/AOT_stimuli/rescaled_final/0423_fw.mp4	0.0	312.1386044025421	2.475322961807251
67	288.57478308677673	pulse	1	t		65.0	2.5	/experiments/knapen_AOT/AOT_stimuli/rescaled_final/0423_fw.mp4	0.0	313.2952857017517	
67	289.8934247493744	fix_post	2		12	65.0	2.5	/experiments/knapen_AOT/AOT_stimuli/rescaled_final/0423_fw.mp4	0.0	314.61392736434937	0.10002923011779785
68	289.9934539794922	fix_pre	0		120	66.0	2.5	/experiments/knapen_AOT/AOT_stimuli/rescaled_final/0525_rv.mp4	0.0	314.71395659446716	1.0167908668518066
68	290.1772003173828	pulse	0	t		66.0	2.5	/experiments/knapen_AOT/AOT_stimuli/rescaled_final/0525_rv.mp4	0.0	314.8977029323578	
68	291.010244846344	movie	1		279	66.0	2.5	/experiments/knapen_AOT/AOT_stimuli/rescaled_final/0525_rv.mp4	0.0	315.73074746131897	2.4837191104888916
68	291.77526021003723	pulse	1	t		66.0	2.5	/experiments/knapen_AOT/AOT_stimuli/rescaled_final/0525_rv.mp4	0.0	316.4957628250122	
68	293.37732458114624	pulse	1	t		66.0	2.5	/experiments/knapen_AOT/AOT_stimuli/rescaled_final/0525_rv.mp4	0.0	318.0978271961212	
68	293.4939639568329	fix_post	2		12	66.0	2.5	/experiments/knapen_AOT/AOT_stimuli/rescaled_final/0525_rv.mp4	0.0	318.21446657180786	0.1000828742980957
69	293.594046831131	fix_pre	0		120	67.0	2.5	/experiments/knapen_AOT/AOT_stimuli/rescaled_final/2152_rv.mp4	0.0	318.31454944610596	1.0251681804656982
69	294.6192150115967	movie	1		285	67.0	2.5	/experiments/knapen_AOT/AOT_stimuli/rescaled_final/2152_rv.mp4	0.0	319.33971762657166	2.4753050804138184
69	294.9763135910034	pulse	1	t		67.0	2.5	/experiments/knapen_AOT/AOT_stimuli/rescaled_final/2152_rv.mp4	0.0	319.6968162059784	
69	296.5758912563324	pulse	1	t		67.0	2.5	/experiments/knapen_AOT/AOT_stimuli/rescaled_final/2152_rv.mp4	0.0	321.2963938713074	
69	297.0945200920105	fix_post	2		12	67.0	2.5	/experiments/knapen_AOT/AOT_stimuli/rescaled_final/2152_rv.mp4	0.0	321.8150227069855	0.09999799728393555
70	297.19451808929443	fix_pre	0		119	68.0	2.5	/experiments/knapen_AOT/AOT_stimuli/rescaled_final/0816_rv.mp4	0.0	321.9150207042694	1.0168359279632568
70	298.178245306015	pulse	0	t		68.0	2.5	/experiments/knapen_AOT/AOT_stimuli/rescaled_final/0816_rv.mp4	0.0	322.89874792099	
70	298.2113540172577	movie	1		286	68.0	2.5	/experiments/knapen_AOT/AOT_stimuli/rescaled_final/0816_rv.mp4	0.0	322.93185663223267	2.4837028980255127
70	299.7767970561981	pulse	1	t		68.0	2.5	/experiments/knapen_AOT/AOT_stimuli/rescaled_final/0816_rv.mp4	0.0	324.4972996711731	
70	300.6950569152832	fix_post	2		12	68.0	2.5	/experiments/knapen_AOT/AOT_stimuli/rescaled_final/0816_rv.mp4	0.0	325.4155595302582	0.1000065803527832
71	300.795063495636	fix_pre	0		120	69.0	2.5	/experiments/knapen_AOT/AOT_stimuli/rescaled_final/0961_rv.mp4	0.0	325.51556611061096	1.0085206031799316
71	301.37871623039246	pulse	0	t		69.0	2.5	/experiments/knapen_AOT/AOT_stimuli/rescaled_final/0961_rv.mp4	0.0	326.09921884536743	
71	301.8035840988159	movie	1		286	69.0	2.5	/experiments/knapen_AOT/AOT_stimuli/rescaled_final/0961_rv.mp4	0.0	326.5240867137909	2.4920008182525635
71	302.97682881355286	pulse	1	t		69.0	2.5	/experiments/knapen_AOT/AOT_stimuli/rescaled_final/0961_rv.mp4	0.0	327.69733142852783	
71	304.2955849170685	fix_post	2		12	69.0	2.5	/experiments/knapen_AOT/AOT_stimuli/rescaled_final/0961_rv.mp4	0.0	329.01608753204346	0.10000205039978027
72	304.39558696746826	fix_pre	0		120	70.0	2.5	blank	1.0	329.11608958244324	1.0001580715179443
72	304.57186341285706	pulse	0	t		70.0	2.5	blank	1.0	329.29236602783203	
72	305.3957450389862	movie	1		300	70.0	2.5	blank	1.0	330.1162476539612	2.5003862380981445
72	306.17126536369324	pulse	1	t		70.0	2.5	blank	1.0	330.8917679786682	
72	307.7713146209717	pulse	1	t		70.0	2.5	blank	1.0	332.49181723594666	
72	307.89613127708435	fix_post	2		12	70.0	2.5	blank	1.0	332.6166338920593	0.10001850128173828
73	307.9961497783661	fix_pre	0		120	71.0	2.5	/experiments/knapen_AOT/AOT_stimuli/rescaled_final/1232_rv.mp4	0.0	332.71665239334106	1.0084950923919678
73	309.00464487075806	movie	1		288	71.0	2.5	/experiments/knapen_AOT/AOT_stimuli/rescaled_final/1232_rv.mp4	0.0	333.72514748573303	2.492021322250366
73	309.37174820899963	pulse	1	t		71.0	2.5	/experiments/knapen_AOT/AOT_stimuli/rescaled_final/1232_rv.mp4	0.0	334.0922508239746	
73	310.9718141555786	pulse	1	t		71.0	2.5	/experiments/knapen_AOT/AOT_stimuli/rescaled_final/1232_rv.mp4	0.0	335.6923167705536	
73	311.4966661930084	fix_post	2		12	71.0	2.5	/experiments/knapen_AOT/AOT_stimuli/rescaled_final/1232_rv.mp4	0.0	336.2171688079834	0.10015559196472168
74	311.59682178497314	fix_pre	0		118	72.0	2.5	/experiments/knapen_AOT/AOT_stimuli/rescaled_final/0654_rv.mp4	0.0	336.3173243999481	0.9917070865631104
74	312.57228541374207	pulse	0	t		72.0	2.5	/experiments/knapen_AOT/AOT_stimuli/rescaled_final/0654_rv.mp4	0.0	337.29278802871704	
74	312.58852887153625	movie	1		286	72.0	2.5	/experiments/knapen_AOT/AOT_stimuli/rescaled_final/0654_rv.mp4	0.0	337.30903148651123	2.5003859996795654
74	314.1723048686981	pulse	1	t		72.0	2.5	/experiments/knapen_AOT/AOT_stimuli/rescaled_final/0654_rv.mp4	0.0	338.8928074836731	
74	315.0889148712158	fix_post	2		12	72.0	2.5	/experiments/knapen_AOT/AOT_stimuli/rescaled_final/0654_rv.mp4	0.0	339.8094174861908	0.09997868537902832
75	315.18889355659485	fix_pre	0		120	73.0	2.5	/experiments/knapen_AOT/AOT_stimuli/rescaled_final/0865_rv.mp4	0.0	339.9093961715698	1.0085172653198242
75	315.7725238800049	pulse	0	t		73.0	2.5	/experiments/knapen_AOT/AOT_stimuli/rescaled_final/0865_rv.mp4	0.0	340.49302649497986	
75	316.1974108219147	movie	1		284	73.0	2.5	/experiments/knapen_AOT/AOT_stimuli/rescaled_final/0865_rv.mp4	0.0	340.91791343688965	2.492002010345459
75	317.37152576446533	pulse	1	t		73.0	2.5	/experiments/knapen_AOT/AOT_stimuli/rescaled_final/0865_rv.mp4	0.0	342.0920283794403	
75	318.68941283226013	fix_post	2		12	73.0	2.5	/experiments/knapen_AOT/AOT_stimuli/rescaled_final/0865_rv.mp4	0.0	343.4099154472351	0.10002827644348145
76	318.7894411087036	fix_pre	0		120	74.0	2.5	/experiments/knapen_AOT/AOT_stimuli/rescaled_final/0229_fw.mp4	0.0	343.5099437236786	1.0085299015045166
76	318.97335171699524	pulse	0	t		74.0	2.5	/experiments/knapen_AOT/AOT_stimuli/rescaled_final/0229_fw.mp4	0.0	343.6938543319702	
76	319.79797101020813	movie	1		278	74.0	2.5	/experiments/knapen_AOT/AOT_stimuli/rescaled_final/0229_fw.mp4	0.0	344.5184736251831	2.492079973220825
76	320.57337737083435	pulse	1	t		74.0	2.5	/experiments/knapen_AOT/AOT_stimuli/rescaled_final/0229_fw.mp4	0.0	345.2938799858093	
76	322.171692609787	pulse	1	t		74.0	2.5	/experiments/knapen_AOT/AOT_stimuli/rescaled_final/0229_fw.mp4	0.0	346.89219522476196	
76	322.29005098342896	fix_post	2		12	74.0	2.5	/experiments/knapen_AOT/AOT_stimuli/rescaled_final/0229_fw.mp4	0.0	347.01055359840393	0.09992575645446777
77	322.3899767398834	fix_pre	0		120	75.0	2.5	/experiments/knapen_AOT/AOT_stimuli/rescaled_final/1803_rv.mp4	0.0	347.1104793548584	1.008500337600708
77	323.39847707748413	movie	1		280	75.0	2.5	/experiments/knapen_AOT/AOT_stimuli/rescaled_final/1803_rv.mp4	0.0	348.1189796924591	2.4919979572296143
77	323.7719557285309	pulse	1	t		75.0	2.5	/experiments/knapen_AOT/AOT_stimuli/rescaled_final/1803_rv.mp4	0.0	348.49245834350586	
77	325.37211418151855	pulse	1	t		75.0	2.5	/experiments/knapen_AOT/AOT_stimuli/rescaled_final/1803_rv.mp4	0.0	350.09261679649353	
77	325.89047503471375	fix_post	2		12	75.0	2.5	/experiments/knapen_AOT/AOT_stimuli/rescaled_final/1803_rv.mp4	0.0	350.6109776496887	0.1000521183013916
78	325.99052715301514	fix_pre	0		119	76.0	2.5	blank	1.0	350.7110297679901	0.9919247627258301
78	326.97415566444397	pulse	0	t		76.0	2.5	blank	1.0	351.69465827941895	
78	326.98245191574097	movie	1		301	76.0	2.5	blank	1.0	351.70295453071594	2.508589506149292
78	328.5744242668152	pulse	1	t		76.0	2.5	blank	1.0	353.29492688179016	
78	329.49104142189026	fix_post	2		12	76.0	2.5	blank	1.0	354.21154403686523	0.1000213623046875
79	329.59106278419495	fix_pre	0		120	77.0	2.5	/experiments/knapen_AOT/AOT_stimuli/rescaled_final/1448_fw.mp4	0.0	354.3115653991699	1.0084569454193115
79	330.17473673820496	pulse	0	t		77.0	2.5	/experiments/knapen_AOT/AOT_stimuli/rescaled_final/1448_fw.mp4	0.0	354.89523935317993	
79	330.59951972961426	movie	1		270	77.0	2.5	/experiments/knapen_AOT/AOT_stimuli/rescaled_final/1448_fw.mp4	0.0	355.32002234458923	2.492203950881958
79	331.775137424469	pulse	1	t		77.0	2.5	/experiments/knapen_AOT/AOT_stimuli/rescaled_final/1448_fw.mp4	0.0	356.49564003944397	
79	333.0917236804962	fix_post	2		12	77.0	2.5	/experiments/knapen_AOT/AOT_stimuli/rescaled_final/1448_fw.mp4	0.0	357.8122262954712	0.09987521171569824
80	333.1915988922119	fix_pre	0		120	78.0	2.5	/experiments/knapen_AOT/AOT_stimuli/rescaled_final/0253_fw.mp4	0.0	357.9121015071869	1.0085270404815674
80	333.3752009868622	pulse	0	t		78.0	2.5	/experiments/knapen_AOT/AOT_stimuli/rescaled_final/0253_fw.mp4	0.0	358.09570360183716	
80	334.2001259326935	movie	1		279	78.0	2.5	/experiments/knapen_AOT/AOT_stimuli/rescaled_final/0253_fw.mp4	0.0	358.92062854766846	2.4921445846557617
80	334.9736747741699	pulse	1	t		78.0	2.5	/experiments/knapen_AOT/AOT_stimuli/rescaled_final/0253_fw.mp4	0.0	359.6941773891449	
80	336.57364559173584	pulse	1	t		78.0	2.5	/experiments/knapen_AOT/AOT_stimuli/rescaled_final/0253_fw.mp4	0.0	361.2941482067108	
80	336.69227051734924	fix_post	2		12	78.0	2.5	/experiments/knapen_AOT/AOT_stimuli/rescaled_final/0253_fw.mp4	0.0	361.4127731323242	0.09992194175720215
81	336.79219245910645	fix_pre	0		120	79.0	2.5	/experiments/knapen_AOT/AOT_stimuli/rescaled_final/1463_rv.mp4	0.0	361.5126950740814	1.0084412097930908
81	337.80063366889954	movie	1		277	79.0	2.5	/experiments/knapen_AOT/AOT_stimuli/rescaled_final/1463_rv.mp4	0.0	362.5211362838745	2.4920356273651123
81	338.173969745636	pulse	1	t		79.0	2.5	/experiments/knapen_AOT/AOT_stimuli/rescaled_final/1463_rv.mp4	0.0	362.89447236061096	
81	339.7752995491028	pulse	1	t		79.0	2.5	/experiments/knapen_AOT/AOT_stimuli/rescaled_final/1463_rv.mp4	0.0	364.49580216407776	
81	340.29266929626465	fix_post	2		12	79.0	2.5	/experiments/knapen_AOT/AOT_stimuli/rescaled_final/1463_rv.mp4	0.0	365.0131719112396	0.10002756118774414
82	340.3926968574524	fix_pre	0		119	80.0	2.5	/experiments/knapen_AOT/AOT_stimuli/rescaled_final/1695_fw.mp4	0.0	365.11319947242737	1.0003151893615723
82	341.376588344574	pulse	0	t		80.0	2.5	/experiments/knapen_AOT/AOT_stimuli/rescaled_final/1695_fw.mp4	0.0	366.09709095954895	
82	341.39301204681396	movie	1		274	80.0	2.5	/experiments/knapen_AOT/AOT_stimuli/rescaled_final/1695_fw.mp4	0.0	366.11351466178894	2.5004117488861084
82	342.97485160827637	pulse	1	t		80.0	2.5	/experiments/knapen_AOT/AOT_stimuli/rescaled_final/1695_fw.mp4	0.0	367.69535422325134	
82	343.8934237957001	fix_post	2		12	80.0	2.5	/experiments/knapen_AOT/AOT_stimuli/rescaled_final/1695_fw.mp4	0.0	368.61392641067505	0.09980463981628418
83	343.99322843551636	fix_pre	0		120	81.0	2.5	/experiments/knapen_AOT/AOT_stimuli/rescaled_final/0834_fw.mp4	0.0	368.71373105049133	1.008497714996338
83	344.5771131515503	pulse	0	t		81.0	2.5	/experiments/knapen_AOT/AOT_stimuli/rescaled_final/0834_fw.mp4	0.0	369.29761576652527	
83	345.0017261505127	movie	1		289	81.0	2.5	/experiments/knapen_AOT/AOT_stimuli/rescaled_final/0834_fw.mp4	0.0	369.72222876548767	2.492044687271118
83	346.1753444671631	pulse	1	t		81.0	2.5	/experiments/knapen_AOT/AOT_stimuli/rescaled_final/0834_fw.mp4	0.0	370.89584708213806	
83	347.4937708377838	fix_post	2		12	81.0	2.5	/experiments/knapen_AOT/AOT_stimuli/rescaled_final/0834_fw.mp4	0.0	372.2142734527588	0.10001587867736816
84	347.5937867164612	fix_pre	0		120	82.0	2.5	blank	1.0	372.31428933143616	1.000150203704834
84	347.7773931026459	pulse	0	t		82.0	2.5	blank	1.0	372.49789571762085	
84	348.593936920166	movie	1		300	82.0	2.5	blank	1.0	373.314439535141	2.50034499168396
84	349.3779294490814	pulse	1	t		82.0	2.5	blank	1.0	374.0984320640564	
84	350.9778106212616	pulse	1	t		82.0	2.5	blank	1.0	375.6983132362366	
84	351.09428191185	fix_post	2		12	82.0	2.5	blank	1.0	375.81478452682495	0.09998369216918945
85	351.19426560401917	fix_pre	0		120	83.0	2.5	/experiments/knapen_AOT/AOT_stimuli/rescaled_final/0712_fw.mp4	0.0	375.91476821899414	1.0085365772247314
85	352.2028021812439	movie	1		276	83.0	2.5	/experiments/knapen_AOT/AOT_stimuli/rescaled_final/0712_fw.mp4	0.0	376.9233047962189	2.4922289848327637
85	352.5764865875244	pulse	1	t		83.0	2.5	/experiments/knapen_AOT/AOT_stimuli/rescaled_final/0712_fw.mp4	0.0	377.2969892024994	
85	354.17634534835815	pulse	1	t		83.0	2.5	/experiments/knapen_AOT/AOT_stimuli/rescaled_final/0712_fw.mp4	0.0	378.89684796333313	
85	354.69503116607666	fix_post	2		12	83.0	2.5	/experiments/knapen_AOT/AOT_stimuli/rescaled_final/0712_fw.mp4	0.0	379.41553378105164	0.10821700096130371
87	354.80324816703796	stim	0		1715					379.52375078201294	14.293761730194092
87	355.7706632614136	pulse	0	t						380.49116587638855	
87	357.37064933776855	pulse	0	t						382.09115195274353	
87	358.97071504592896	pulse	0	t						383.69121766090393	
87	360.57093811035156	pulse	0	t						385.29144072532654	
87	362.17117834091187	pulse	0	t						386.89168095588684	
87	363.7714419364929	pulse	0	t						388.4919445514679	
87	365.3717248439789	pulse	0	t						390.09222745895386	
87	366.97188234329224	pulse	0	t						391.6923849582672	
87	368.5722107887268	pulse	0	t						393.2927134037018	
