trial_nr	onset	event_type	phase	response	nr_frames	movie_index	movie_duration	movie_file	blank	onset_abs	duration
0	0.16652393341064453	stim	0		12					16.5866916179657	0.099884033203125
0	0.2582695484161377	response	0	space						16.67843723297119	
1	0.26640796661376953	stim	0		4624					16.686575651168823	38.55216073989868
1	38.80390787124634	pulse	0	t						55.22407555580139	
1	38.81856870651245	stim	1		1714					55.238736391067505	14.297525882720947
1	40.397672176361084	pulse	1	t						56.81783986091614	
1	41.997905015945435	pulse	1	t						58.41807270050049	
1	43.59822964668274	pulse	1	t						60.01839733123779	
1	45.19846820831299	pulse	1	t						61.61863589286804	
1	46.798619747161865	pulse	1	t						63.21878743171692	
1	48.39886808395386	pulse	1	t						64.81903576850891	
1	49.99914598464966	pulse	1	t						66.41931366920471	
1	51.599382400512695	pulse	1	t						68.01955008506775	
2	53.1160945892334	fix_pre	0		11	0.0	2.5	/experiments/Knapen_AOT/AOT_stimuli/rescaled_final/0023_rv.mp4	0.0	69.53626227378845	0.10840582847595215
2	53.1998188495636	pulse	0	t		0.0	2.5	/experiments/Knapen_AOT/AOT_stimuli/rescaled_final/0023_rv.mp4	0.0	69.61998653411865	
2	53.22450041770935	movie	1		294	0.0	2.5	/experiments/Knapen_AOT/AOT_stimuli/rescaled_final/0023_rv.mp4	0.0	69.6446681022644	2.4920003414154053
2	54.79820728302002	pulse	1	t		0.0	2.5	/experiments/Knapen_AOT/AOT_stimuli/rescaled_final/0023_rv.mp4	0.0	71.21837496757507	
2	55.716500759124756	fix_post	2		12	0.0	2.5	/experiments/Knapen_AOT/AOT_stimuli/rescaled_final/0023_rv.mp4	0.0	72.13666844367981	0.0999603271484375
3	55.81646108627319	fix_pre	0		120	1.0	2.5	/experiments/Knapen_AOT/AOT_stimuli/rescaled_final/1163_fw.mp4	0.0	72.23662877082825	1.0085914134979248
3	56.40015006065369	pulse	0	t		1.0	2.5	/experiments/Knapen_AOT/AOT_stimuli/rescaled_final/1163_fw.mp4	0.0	72.82031774520874	
3	56.82505249977112	movie	1		294	1.0	2.5	/experiments/Knapen_AOT/AOT_stimuli/rescaled_final/1163_fw.mp4	0.0	73.24522018432617	2.4919557571411133
3	57.99867248535156	pulse	1	t		1.0	2.5	/experiments/Knapen_AOT/AOT_stimuli/rescaled_final/1163_fw.mp4	0.0	74.41884016990662	
3	59.31700825691223	fix_post	2		12	1.0	2.5	/experiments/Knapen_AOT/AOT_stimuli/rescaled_final/1163_fw.mp4	0.0	75.73717594146729	0.10002446174621582
4	59.41703271865845	fix_pre	0		120	2.0	2.5	/experiments/Knapen_AOT/AOT_stimuli/rescaled_final/0170_rv.mp4	0.0	75.8372004032135	1.008521318435669
4	59.6011061668396	pulse	0	t		2.0	2.5	/experiments/Knapen_AOT/AOT_stimuli/rescaled_final/0170_rv.mp4	0.0	76.02127385139465	
4	60.425554037094116	movie	1		279	2.0	2.5	/experiments/Knapen_AOT/AOT_stimuli/rescaled_final/0170_rv.mp4	0.0	76.84572172164917	2.492009162902832
4	61.19878602027893	pulse	1	t		2.0	2.5	/experiments/Knapen_AOT/AOT_stimuli/rescaled_final/0170_rv.mp4	0.0	77.61895370483398	
4	62.80125045776367	pulse	1	t		2.0	2.5	/experiments/Knapen_AOT/AOT_stimuli/rescaled_final/0170_rv.mp4	0.0	79.22141814231873	
4	62.91756319999695	fix_post	2		12	2.0	2.5	/experiments/Knapen_AOT/AOT_stimuli/rescaled_final/0170_rv.mp4	0.0	79.337730884552	0.09999442100524902
5	63.0175576210022	fix_pre	0		120	3.0	2.5	/experiments/Knapen_AOT/AOT_stimuli/rescaled_final/1353_rv.mp4	0.0	79.43772530555725	1.0085525512695312
5	64.02611017227173	movie	1		287	3.0	2.5	/experiments/Knapen_AOT/AOT_stimuli/rescaled_final/1353_rv.mp4	0.0	80.44627785682678	2.491959810256958
5	64.39322209358215	pulse	1	t		3.0	2.5	/experiments/Knapen_AOT/AOT_stimuli/rescaled_final/1353_rv.mp4	0.0	80.8133897781372	
5	65.9932165145874	pulse	1	t		3.0	2.5	/experiments/Knapen_AOT/AOT_stimuli/rescaled_final/1353_rv.mp4	0.0	82.41338419914246	
5	66.51806998252869	fix_post	2		12	3.0	2.5	/experiments/Knapen_AOT/AOT_stimuli/rescaled_final/1353_rv.mp4	0.0	82.93823766708374	0.10002303123474121
6	66.61809301376343	fix_pre	0		118	4.0	2.5	/experiments/Knapen_AOT/AOT_stimuli/rescaled_final/1729_fw.mp4	0.0	83.03826069831848	0.9919412136077881
6	67.59353256225586	pulse	0	t		4.0	2.5	/experiments/Knapen_AOT/AOT_stimuli/rescaled_final/1729_fw.mp4	0.0	84.01370024681091	
6	67.61003422737122	movie	1		288	4.0	2.5	/experiments/Knapen_AOT/AOT_stimuli/rescaled_final/1729_fw.mp4	0.0	84.03020191192627	2.50038480758667
6	69.1938853263855	pulse	1	t		4.0	2.5	/experiments/Knapen_AOT/AOT_stimuli/rescaled_final/1729_fw.mp4	0.0	85.61405301094055	
6	70.11041903495789	fix_post	2		12	4.0	2.5	/experiments/Knapen_AOT/AOT_stimuli/rescaled_final/1729_fw.mp4	0.0	86.53058671951294	0.09989261627197266
7	70.21031165122986	fix_pre	0		120	5.0	2.5	/experiments/Knapen_AOT/AOT_stimuli/rescaled_final/0600_fw.mp4	0.0	86.63047933578491	1.0085010528564453
7	70.79403114318848	pulse	0	t		5.0	2.5	/experiments/Knapen_AOT/AOT_stimuli/rescaled_final/0600_fw.mp4	0.0	87.21419882774353	
7	71.2188127040863	movie	1		293	5.0	2.5	/experiments/Knapen_AOT/AOT_stimuli/rescaled_final/0600_fw.mp4	0.0	87.63898038864136	2.492034912109375
7	72.39419221878052	pulse	1	t		5.0	2.5	/experiments/Knapen_AOT/AOT_stimuli/rescaled_final/0600_fw.mp4	0.0	88.81435990333557	
7	73.71084761619568	fix_post	2		12	5.0	2.5	/experiments/Knapen_AOT/AOT_stimuli/rescaled_final/0600_fw.mp4	0.0	90.13101530075073	0.10003185272216797
8	73.81087946891785	fix_pre	0		120	6.0	2.5	/experiments/Knapen_AOT/AOT_stimuli/rescaled_final/0906_fw.mp4	0.0	90.2310471534729	1.0085177421569824
8	73.99442267417908	pulse	0	t		6.0	2.5	/experiments/Knapen_AOT/AOT_stimuli/rescaled_final/0906_fw.mp4	0.0	90.41459035873413	
8	74.81939721107483	movie	1		289	6.0	2.5	/experiments/Knapen_AOT/AOT_stimuli/rescaled_final/0906_fw.mp4	0.0	91.23956489562988	2.4919769763946533
8	75.59466290473938	pulse	1	t		6.0	2.5	/experiments/Knapen_AOT/AOT_stimuli/rescaled_final/0906_fw.mp4	0.0	92.01483058929443	
8	77.19488835334778	pulse	1	t		6.0	2.5	/experiments/Knapen_AOT/AOT_stimuli/rescaled_final/0906_fw.mp4	0.0	93.61505603790283	
8	77.31137418746948	fix_post	2		12	6.0	2.5	/experiments/Knapen_AOT/AOT_stimuli/rescaled_final/0906_fw.mp4	0.0	93.73154187202454	0.10002636909484863
9	77.41140055656433	fix_pre	0		120	7.0	2.5	blank	1.0	93.83156824111938	1.0001249313354492
9	78.41152548789978	movie	1		300	7.0	2.5	blank	1.0	94.83169317245483	2.5005812644958496
9	78.79513502120972	pulse	1	t		7.0	2.5	blank	1.0	95.21530270576477	
9	80.39547991752625	pulse	1	t		7.0	2.5	blank	1.0	96.8156476020813	
9	80.91210675239563	fix_post	2		12	7.0	2.5	blank	1.0	97.33227443695068	0.09986090660095215
10	81.01196765899658	fix_pre	0		119	8.0	2.5	/experiments/Knapen_AOT/AOT_stimuli/rescaled_final/0568_fw.mp4	0.0	97.43213534355164	1.0001249313354492
10	81.99565720558167	pulse	0	t		8.0	2.5	/experiments/Knapen_AOT/AOT_stimuli/rescaled_final/0568_fw.mp4	0.0	98.41582489013672	
10	82.01209259033203	movie	1		288	8.0	2.5	/experiments/Knapen_AOT/AOT_stimuli/rescaled_final/0568_fw.mp4	0.0	98.43226027488708	2.5003654956817627
10	83.59468793869019	pulse	1	t		8.0	2.5	/experiments/Knapen_AOT/AOT_stimuli/rescaled_final/0568_fw.mp4	0.0	100.01485562324524	
10	84.5124580860138	fix_post	2		12	8.0	2.5	/experiments/Knapen_AOT/AOT_stimuli/rescaled_final/0568_fw.mp4	0.0	100.93262577056885	0.09999942779541016
11	84.6124575138092	fix_pre	0		120	9.0	2.5	/experiments/Knapen_AOT/AOT_stimuli/rescaled_final/0079_rv.mp4	0.0	101.03262519836426	1.0085499286651611
11	85.19611835479736	pulse	0	t		9.0	2.5	/experiments/Knapen_AOT/AOT_stimuli/rescaled_final/0079_rv.mp4	0.0	101.61628603935242	
11	85.62100744247437	movie	1		284	9.0	2.5	/experiments/Knapen_AOT/AOT_stimuli/rescaled_final/0079_rv.mp4	0.0	102.04117512702942	2.492000102996826
11	86.79437351226807	pulse	1	t		9.0	2.5	/experiments/Knapen_AOT/AOT_stimuli/rescaled_final/0079_rv.mp4	0.0	103.21454119682312	
11	88.11300754547119	fix_post	2		12	9.0	2.5	/experiments/Knapen_AOT/AOT_stimuli/rescaled_final/0079_rv.mp4	0.0	104.53317523002625	0.10005545616149902
12	88.21306300163269	fix_pre	0		120	10.0	2.5	/experiments/Knapen_AOT/AOT_stimuli/rescaled_final/0906_rv.mp4	0.0	104.63323068618774	1.0084657669067383
12	88.39663505554199	pulse	0	t		10.0	2.5	/experiments/Knapen_AOT/AOT_stimuli/rescaled_final/0906_rv.mp4	0.0	104.81680274009705	
12	89.22152876853943	movie	1		287	10.0	2.5	/experiments/Knapen_AOT/AOT_stimuli/rescaled_final/0906_rv.mp4	0.0	105.64169645309448	2.4920296669006348
12	89.99495196342468	pulse	1	t		10.0	2.5	/experiments/Knapen_AOT/AOT_stimuli/rescaled_final/0906_rv.mp4	0.0	106.41511964797974	
12	91.59526801109314	pulse	1	t		10.0	2.5	/experiments/Knapen_AOT/AOT_stimuli/rescaled_final/0906_rv.mp4	0.0	108.0154356956482	
12	91.71355843544006	fix_post	2		12	10.0	2.5	/experiments/Knapen_AOT/AOT_stimuli/rescaled_final/0906_rv.mp4	0.0	108.13372611999512	0.10002446174621582
13	91.81358289718628	fix_pre	0		120	11.0	2.5	/experiments/Knapen_AOT/AOT_stimuli/rescaled_final/0266_fw.mp4	0.0	108.23375058174133	1.0084640979766846
13	92.82204699516296	movie	1		288	11.0	2.5	/experiments/Knapen_AOT/AOT_stimuli/rescaled_final/0266_fw.mp4	0.0	109.24221467971802	2.4920639991760254
13	93.19578814506531	pulse	1	t		11.0	2.5	/experiments/Knapen_AOT/AOT_stimuli/rescaled_final/0266_fw.mp4	0.0	109.61595582962036	
13	94.79567575454712	pulse	1	t		11.0	2.5	/experiments/Knapen_AOT/AOT_stimuli/rescaled_final/0266_fw.mp4	0.0	111.21584343910217	
13	95.31411099433899	fix_post	2		12	11.0	2.5	/experiments/Knapen_AOT/AOT_stimuli/rescaled_final/0266_fw.mp4	0.0	111.73427867889404	0.0999758243560791
14	95.41408681869507	fix_pre	0		119	12.0	2.5	/experiments/Knapen_AOT/AOT_stimuli/rescaled_final/1486_fw.mp4	0.0	111.83425450325012	1.0001630783081055
14	96.39780902862549	pulse	0	t		12.0	2.5	/experiments/Knapen_AOT/AOT_stimuli/rescaled_final/1486_fw.mp4	0.0	112.81797671318054	
14	96.41424989700317	movie	1		293	12.0	2.5	/experiments/Knapen_AOT/AOT_stimuli/rescaled_final/1486_fw.mp4	0.0	112.83441758155823	2.500380277633667
14	97.9964873790741	pulse	1	t		12.0	2.5	/experiments/Knapen_AOT/AOT_stimuli/rescaled_final/1486_fw.mp4	0.0	114.41665506362915	
14	98.91463017463684	fix_post	2		12	12.0	2.5	/experiments/Knapen_AOT/AOT_stimuli/rescaled_final/1486_fw.mp4	0.0	115.3347978591919	0.09999418258666992
15	99.01462435722351	fix_pre	0		120	13.0	2.5	blank	1.0	115.43479204177856	1.0001673698425293
15	99.59834027290344	pulse	0	t		13.0	2.5	blank	1.0	116.0185079574585	
15	100.01479172706604	movie	1		300	13.0	2.5	blank	1.0	116.4349594116211	2.5003890991210938
15	101.1985387802124	pulse	1	t		13.0	2.5	blank	1.0	117.61870646476746	
15	102.51518082618713	fix_post	2		12	13.0	2.5	blank	1.0	118.93534851074219	0.10000157356262207
16	102.61518239974976	fix_pre	0		120	14.0	2.5	/experiments/Knapen_AOT/AOT_stimuli/rescaled_final/0931_fw.mp4	0.0	119.03535008430481	1.0084776878356934
16	102.79876589775085	pulse	0	t		14.0	2.5	/experiments/Knapen_AOT/AOT_stimuli/rescaled_final/0931_fw.mp4	0.0	119.21893358230591	
16	103.62366008758545	movie	1		284	14.0	2.5	/experiments/Knapen_AOT/AOT_stimuli/rescaled_final/0931_fw.mp4	0.0	120.0438277721405	2.492053270339966
16	104.39692807197571	pulse	1	t		14.0	2.5	/experiments/Knapen_AOT/AOT_stimuli/rescaled_final/0931_fw.mp4	0.0	120.81709575653076	
16	105.99795389175415	pulse	1	t		14.0	2.5	/experiments/Knapen_AOT/AOT_stimuli/rescaled_final/0931_fw.mp4	0.0	122.4181215763092	
16	106.11571335792542	fix_post	2		12	14.0	2.5	/experiments/Knapen_AOT/AOT_stimuli/rescaled_final/0931_fw.mp4	0.0	122.53588104248047	0.0999898910522461
17	106.21570324897766	fix_pre	0		120	15.0	2.5	/experiments/Knapen_AOT/AOT_stimuli/rescaled_final/1627_fw.mp4	0.0	122.63587093353271	1.0085108280181885
17	107.22421407699585	movie	1		289	15.0	2.5	/experiments/Knapen_AOT/AOT_stimuli/rescaled_final/1627_fw.mp4	0.0	123.6443817615509	2.4921770095825195
17	107.5981810092926	pulse	1	t		15.0	2.5	/experiments/Knapen_AOT/AOT_stimuli/rescaled_final/1627_fw.mp4	0.0	124.01834869384766	
17	109.19756436347961	pulse	1	t		15.0	2.5	/experiments/Knapen_AOT/AOT_stimuli/rescaled_final/1627_fw.mp4	0.0	125.61773204803467	
17	109.71639108657837	fix_post	2		12	15.0	2.5	/experiments/Knapen_AOT/AOT_stimuli/rescaled_final/1627_fw.mp4	0.0	126.13655877113342	0.09996533393859863
18	109.81635642051697	fix_pre	0		119	16.0	2.5	/experiments/Knapen_AOT/AOT_stimuli/rescaled_final/0714_rv.mp4	0.0	126.23652410507202	1.0000479221343994
18	110.80028867721558	pulse	0	t		16.0	2.5	/experiments/Knapen_AOT/AOT_stimuli/rescaled_final/0714_rv.mp4	0.0	127.22045636177063	
18	110.81640434265137	movie	1		280	16.0	2.5	/experiments/Knapen_AOT/AOT_stimuli/rescaled_final/0714_rv.mp4	0.0	127.23657202720642	2.5003695487976074
18	112.39865803718567	pulse	1	t		16.0	2.5	/experiments/Knapen_AOT/AOT_stimuli/rescaled_final/0714_rv.mp4	0.0	128.81882572174072	
18	113.31677389144897	fix_post	2		12	16.0	2.5	/experiments/Knapen_AOT/AOT_stimuli/rescaled_final/0714_rv.mp4	0.0	129.73694157600403	0.10002493858337402
19	113.41679883003235	fix_pre	0		120	17.0	2.5	/experiments/Knapen_AOT/AOT_stimuli/rescaled_final/0348_rv.mp4	0.0	129.8369665145874	1.0085279941558838
19	113.9926609992981	pulse	0	t		17.0	2.5	/experiments/Knapen_AOT/AOT_stimuli/rescaled_final/0348_rv.mp4	0.0	130.41282868385315	
19	114.42532682418823	movie	1		291	17.0	2.5	/experiments/Knapen_AOT/AOT_stimuli/rescaled_final/0348_rv.mp4	0.0	130.8454945087433	2.4919888973236084
19	115.5925281047821	pulse	1	t		17.0	2.5	/experiments/Knapen_AOT/AOT_stimuli/rescaled_final/0348_rv.mp4	0.0	132.01269578933716	
19	116.91731572151184	fix_post	2		12	17.0	2.5	/experiments/Knapen_AOT/AOT_stimuli/rescaled_final/0348_rv.mp4	0.0	133.3374834060669	0.10006570816040039
20	117.01738142967224	fix_pre	0		120	18.0	2.5	/experiments/Knapen_AOT/AOT_stimuli/rescaled_final/0931_rv.mp4	0.0	133.4375491142273	1.0085258483886719
20	117.19258189201355	pulse	0	t		18.0	2.5	/experiments/Knapen_AOT/AOT_stimuli/rescaled_final/0931_rv.mp4	0.0	133.6127495765686	
20	118.02590727806091	movie	1		287	18.0	2.5	/experiments/Knapen_AOT/AOT_stimuli/rescaled_final/0931_rv.mp4	0.0	134.44607496261597	2.4919395446777344
20	118.79285931587219	pulse	1	t		18.0	2.5	/experiments/Knapen_AOT/AOT_stimuli/rescaled_final/0931_rv.mp4	0.0	135.21302700042725	
20	120.3930549621582	pulse	1	t		18.0	2.5	/experiments/Knapen_AOT/AOT_stimuli/rescaled_final/0931_rv.mp4	0.0	136.81322264671326	
20	120.51784682273865	fix_post	2		12	18.0	2.5	/experiments/Knapen_AOT/AOT_stimuli/rescaled_final/0931_rv.mp4	0.0	136.9380145072937	0.10003995895385742
21	120.6178867816925	fix_pre	0		120	19.0	2.5	/experiments/Knapen_AOT/AOT_stimuli/rescaled_final/0482_rv.mp4	0.0	137.03805446624756	1.008467674255371
21	121.62635445594788	movie	1		286	19.0	2.5	/experiments/Knapen_AOT/AOT_stimuli/rescaled_final/0482_rv.mp4	0.0	138.04652214050293	2.492037057876587
21	121.99346971511841	pulse	1	t		19.0	2.5	/experiments/Knapen_AOT/AOT_stimuli/rescaled_final/0482_rv.mp4	0.0	138.41363739967346	
21	123.59363770484924	pulse	1	t		19.0	2.5	/experiments/Knapen_AOT/AOT_stimuli/rescaled_final/0482_rv.mp4	0.0	140.0138053894043	
21	124.11839151382446	fix_post	2		12	19.0	2.5	/experiments/Knapen_AOT/AOT_stimuli/rescaled_final/0482_rv.mp4	0.0	140.53855919837952	0.10019540786743164
22	124.2185869216919	fix_pre	0		118	20.0	2.5	blank	1.0	140.63875460624695	0.9833166599273682
22	125.19377732276917	pulse	0	t		20.0	2.5	blank	1.0	141.61394500732422	
22	125.20190358161926	movie	1		301	20.0	2.5	blank	1.0	141.62207126617432	2.508702039718628
22	126.79404377937317	pulse	1	t		20.0	2.5	blank	1.0	143.21421146392822	
22	127.71060562133789	fix_post	2		12	20.0	2.5	blank	1.0	144.13077330589294	0.1000213623046875
23	127.81062698364258	fix_pre	0		120	21.0	2.5	/experiments/Knapen_AOT/AOT_stimuli/rescaled_final/0688_rv.mp4	0.0	144.23079466819763	1.0084893703460693
23	128.39425349235535	pulse	0	t		21.0	2.5	/experiments/Knapen_AOT/AOT_stimuli/rescaled_final/0688_rv.mp4	0.0	144.8144211769104	
23	128.81911635398865	movie	1		294	21.0	2.5	/experiments/Knapen_AOT/AOT_stimuli/rescaled_final/0688_rv.mp4	0.0	145.2392840385437	2.4920263290405273
23	129.99259567260742	pulse	1	t		21.0	2.5	/experiments/Knapen_AOT/AOT_stimuli/rescaled_final/0688_rv.mp4	0.0	146.41276335716248	
23	131.31114268302917	fix_post	2		12	21.0	2.5	/experiments/Knapen_AOT/AOT_stimuli/rescaled_final/0688_rv.mp4	0.0	147.73131036758423	0.10000491142272949
24	131.4111475944519	fix_pre	0		120	22.0	2.5	/experiments/Knapen_AOT/AOT_stimuli/rescaled_final/0666_rv.mp4	0.0	147.83131527900696	1.008509635925293
24	131.59465503692627	pulse	0	t		22.0	2.5	/experiments/Knapen_AOT/AOT_stimuli/rescaled_final/0666_rv.mp4	0.0	148.01482272148132	
24	132.4196572303772	movie	1		298	22.0	2.5	/experiments/Knapen_AOT/AOT_stimuli/rescaled_final/0666_rv.mp4	0.0	148.83982491493225	2.4920120239257812
24	133.19489288330078	pulse	1	t		22.0	2.5	/experiments/Knapen_AOT/AOT_stimuli/rescaled_final/0666_rv.mp4	0.0	149.61506056785583	
24	134.7951180934906	pulse	1	t		22.0	2.5	/experiments/Knapen_AOT/AOT_stimuli/rescaled_final/0666_rv.mp4	0.0	151.21528577804565	
24	134.91166925430298	fix_post	2		12	22.0	2.5	/experiments/Knapen_AOT/AOT_stimuli/rescaled_final/0666_rv.mp4	0.0	151.33183693885803	0.10001730918884277
25	135.01168656349182	fix_pre	0		120	23.0	2.5	/experiments/Knapen_AOT/AOT_stimuli/rescaled_final/2169_fw.mp4	0.0	151.43185424804688	1.0085663795471191
25	136.02025294303894	movie	1		292	23.0	2.5	/experiments/Knapen_AOT/AOT_stimuli/rescaled_final/2169_fw.mp4	0.0	152.440420627594	2.4919660091400146
25	136.39305877685547	pulse	1	t		23.0	2.5	/experiments/Knapen_AOT/AOT_stimuli/rescaled_final/2169_fw.mp4	0.0	152.81322646141052	
25	137.99557328224182	pulse	1	t		23.0	2.5	/experiments/Knapen_AOT/AOT_stimuli/rescaled_final/2169_fw.mp4	0.0	154.41574096679688	
25	138.51221895217896	fix_post	2		12	23.0	2.5	/experiments/Knapen_AOT/AOT_stimuli/rescaled_final/2169_fw.mp4	0.0	154.932386636734	0.10000061988830566
26	138.61221957206726	fix_pre	0		119	24.0	2.5	/experiments/Knapen_AOT/AOT_stimuli/rescaled_final/1662_rv.mp4	0.0	155.03238725662231	1.000171422958374
26	139.59584403038025	pulse	0	t		24.0	2.5	/experiments/Knapen_AOT/AOT_stimuli/rescaled_final/1662_rv.mp4	0.0	156.0160117149353	
26	139.61239099502563	movie	1		298	24.0	2.5	/experiments/Knapen_AOT/AOT_stimuli/rescaled_final/1662_rv.mp4	0.0	156.0325586795807	2.5003883838653564
26	141.19615197181702	pulse	1	t		24.0	2.5	/experiments/Knapen_AOT/AOT_stimuli/rescaled_final/1662_rv.mp4	0.0	157.61631965637207	
26	142.112779378891	fix_post	2		12	24.0	2.5	/experiments/Knapen_AOT/AOT_stimuli/rescaled_final/1662_rv.mp4	0.0	158.53294706344604	0.10001611709594727
27	142.21279549598694	fix_pre	0		120	25.0	2.5	/experiments/Knapen_AOT/AOT_stimuli/rescaled_final/1183_fw.mp4	0.0	158.632963180542	1.0085599422454834
27	142.7964186668396	pulse	0	t		25.0	2.5	/experiments/Knapen_AOT/AOT_stimuli/rescaled_final/1183_fw.mp4	0.0	159.21658635139465	
27	143.22135543823242	movie	1		293	25.0	2.5	/experiments/Knapen_AOT/AOT_stimuli/rescaled_final/1183_fw.mp4	0.0	159.64152312278748	2.491931438446045
27	144.39395475387573	pulse	1	t		25.0	2.5	/experiments/Knapen_AOT/AOT_stimuli/rescaled_final/1183_fw.mp4	0.0	160.8141224384308	
27	145.71328687667847	fix_post	2		12	25.0	2.5	/experiments/Knapen_AOT/AOT_stimuli/rescaled_final/1183_fw.mp4	0.0	162.13345456123352	0.10001254081726074
28	145.81329941749573	fix_pre	0		120	26.0	2.5	/experiments/Knapen_AOT/AOT_stimuli/rescaled_final/1061_fw.mp4	0.0	162.23346710205078	1.0085430145263672
28	145.99684047698975	pulse	0	t		26.0	2.5	/experiments/Knapen_AOT/AOT_stimuli/rescaled_final/1061_fw.mp4	0.0	162.4170081615448	
28	146.8218424320221	movie	1		291	26.0	2.5	/experiments/Knapen_AOT/AOT_stimuli/rescaled_final/1061_fw.mp4	0.0	163.24201011657715	2.492006301879883
28	147.59529328346252	pulse	1	t		26.0	2.5	/experiments/Knapen_AOT/AOT_stimuli/rescaled_final/1061_fw.mp4	0.0	164.01546096801758	
28	149.19547843933105	pulse	1	t		26.0	2.5	/experiments/Knapen_AOT/AOT_stimuli/rescaled_final/1061_fw.mp4	0.0	165.6156461238861	
28	149.31384873390198	fix_post	2		12	26.0	2.5	/experiments/Knapen_AOT/AOT_stimuli/rescaled_final/1061_fw.mp4	0.0	165.73401641845703	0.10004186630249023
29	149.41389060020447	fix_pre	0		120	27.0	2.5	/experiments/Knapen_AOT/AOT_stimuli/rescaled_final/0278_fw.mp4	0.0	165.83405828475952	1.0084757804870605
29	150.42236638069153	movie	1		287	27.0	2.5	/experiments/Knapen_AOT/AOT_stimuli/rescaled_final/0278_fw.mp4	0.0	166.84253406524658	2.492044448852539
29	150.79598188400269	pulse	1	t		27.0	2.5	/experiments/Knapen_AOT/AOT_stimuli/rescaled_final/0278_fw.mp4	0.0	167.21614956855774	
29	152.39602875709534	pulse	1	t		27.0	2.5	/experiments/Knapen_AOT/AOT_stimuli/rescaled_final/0278_fw.mp4	0.0	168.8161964416504	
29	152.91441082954407	fix_post	2		12	27.0	2.5	/experiments/Knapen_AOT/AOT_stimuli/rescaled_final/0278_fw.mp4	0.0	169.33457851409912	0.1000068187713623
30	153.01441764831543	fix_pre	0		119	28.0	2.5	blank	1.0	169.43458533287048	0.991814136505127
30	153.99813652038574	pulse	0	t		28.0	2.5	blank	1.0	170.4183042049408	
30	154.00623178482056	movie	1		301	28.0	2.5	blank	1.0	170.4263994693756	2.5087151527404785
30	155.5983579158783	pulse	1	t		28.0	2.5	blank	1.0	172.01852560043335	
30	156.51494693756104	fix_post	2		12	28.0	2.5	blank	1.0	172.9351146221161	0.10003018379211426
31	156.61497712135315	fix_pre	0		120	29.0	2.5	/experiments/Knapen_AOT/AOT_stimuli/rescaled_final/0266_fw.mp4	0.0	173.0351448059082	1.0084950923919678
31	157.19865250587463	pulse	0	t		29.0	2.5	/experiments/Knapen_AOT/AOT_stimuli/rescaled_final/0266_fw.mp4	0.0	173.6188201904297	
31	157.62347221374512	movie	1		284	29.0	2.5	/experiments/Knapen_AOT/AOT_stimuli/rescaled_final/0266_fw.mp4	0.0	174.04363989830017	2.4920098781585693
31	158.7969675064087	pulse	1	t		29.0	2.5	/experiments/Knapen_AOT/AOT_stimuli/rescaled_final/0266_fw.mp4	0.0	175.21713519096375	
31	160.1154820919037	fix_post	2		12	29.0	2.5	/experiments/Knapen_AOT/AOT_stimuli/rescaled_final/0266_fw.mp4	0.0	176.53564977645874	0.10002732276916504
32	160.21550941467285	fix_pre	0		120	30.0	2.5	/experiments/Knapen_AOT/AOT_stimuli/rescaled_final/0379_fw.mp4	0.0	176.6356770992279	1.0085313320159912
32	160.39911317825317	pulse	0	t		30.0	2.5	/experiments/Knapen_AOT/AOT_stimuli/rescaled_final/0379_fw.mp4	0.0	176.81928086280823	
32	161.22404074668884	movie	1		282	30.0	2.5	/experiments/Knapen_AOT/AOT_stimuli/rescaled_final/0379_fw.mp4	0.0	177.6442084312439	2.492032766342163
32	161.99736166000366	pulse	1	t		30.0	2.5	/experiments/Knapen_AOT/AOT_stimuli/rescaled_final/0379_fw.mp4	0.0	178.41752934455872	
32	163.59756684303284	pulse	1	t		30.0	2.5	/experiments/Knapen_AOT/AOT_stimuli/rescaled_final/0379_fw.mp4	0.0	180.0177345275879	
32	163.716073513031	fix_post	2		12	30.0	2.5	/experiments/Knapen_AOT/AOT_stimuli/rescaled_final/0379_fw.mp4	0.0	180.13624119758606	0.09999251365661621
33	163.81606602668762	fix_pre	0		120	31.0	2.5	/experiments/Knapen_AOT/AOT_stimuli/rescaled_final/0029_fw.mp4	0.0	180.23623371124268	1.0085170269012451
33	164.82458305358887	movie	1		284	31.0	2.5	/experiments/Knapen_AOT/AOT_stimuli/rescaled_final/0029_fw.mp4	0.0	181.24475073814392	2.491999626159668
33	165.1985399723053	pulse	1	t		31.0	2.5	/experiments/Knapen_AOT/AOT_stimuli/rescaled_final/0029_fw.mp4	0.0	181.61870765686035	
33	166.797758102417	pulse	1	t		31.0	2.5	/experiments/Knapen_AOT/AOT_stimuli/rescaled_final/0029_fw.mp4	0.0	183.21792578697205	
33	167.31658267974854	fix_post	2		12	31.0	2.5	/experiments/Knapen_AOT/AOT_stimuli/rescaled_final/0029_fw.mp4	0.0	183.7367503643036	0.09998464584350586
34	167.41656732559204	fix_pre	0		119	32.0	2.5	/experiments/Knapen_AOT/AOT_stimuli/rescaled_final/1536_rv.mp4	0.0	183.8367350101471	1.0001482963562012
34	168.40025544166565	pulse	0	t		32.0	2.5	/experiments/Knapen_AOT/AOT_stimuli/rescaled_final/1536_rv.mp4	0.0	184.8204231262207	
34	168.41671562194824	movie	1		284	32.0	2.5	/experiments/Knapen_AOT/AOT_stimuli/rescaled_final/1536_rv.mp4	0.0	184.8368833065033	2.5003933906555176
34	169.99910831451416	pulse	1	t		32.0	2.5	/experiments/Knapen_AOT/AOT_stimuli/rescaled_final/1536_rv.mp4	0.0	186.4192759990692	
34	170.91710901260376	fix_post	2		12	32.0	2.5	/experiments/Knapen_AOT/AOT_stimuli/rescaled_final/1536_rv.mp4	0.0	187.3372766971588	0.10003066062927246
35	171.01713967323303	fix_pre	0		120	33.0	2.5	/experiments/Knapen_AOT/AOT_stimuli/rescaled_final/2169_rv.mp4	0.0	187.4373073577881	1.0084986686706543
35	171.59290862083435	pulse	0	t		33.0	2.5	/experiments/Knapen_AOT/AOT_stimuli/rescaled_final/2169_rv.mp4	0.0	188.0130763053894	
35	172.0256383419037	movie	1		282	33.0	2.5	/experiments/Knapen_AOT/AOT_stimuli/rescaled_final/2169_rv.mp4	0.0	188.44580602645874	2.4920132160186768
35	173.19321489334106	pulse	1	t		33.0	2.5	/experiments/Knapen_AOT/AOT_stimuli/rescaled_final/2169_rv.mp4	0.0	189.61338257789612	
35	174.51765155792236	fix_post	2		12	33.0	2.5	/experiments/Knapen_AOT/AOT_stimuli/rescaled_final/2169_rv.mp4	0.0	190.93781924247742	0.1000206470489502
36	174.6176722049713	fix_pre	0		120	34.0	2.5	blank	1.0	191.03783988952637	1.0001308917999268
36	174.79301118850708	pulse	0	t		34.0	2.5	blank	1.0	191.21317887306213	
36	175.61780309677124	movie	1		300	34.0	2.5	blank	1.0	192.0379707813263	2.500366687774658
36	176.39315509796143	pulse	1	t		34.0	2.5	blank	1.0	192.81332278251648	
36	177.9934401512146	pulse	1	t		34.0	2.5	blank	1.0	194.41360783576965	
36	178.1181697845459	fix_post	2		12	34.0	2.5	blank	1.0	194.53833746910095	0.10001635551452637
37	178.21818614006042	fix_pre	0		120	35.0	2.5	/experiments/Knapen_AOT/AOT_stimuli/rescaled_final/1658_rv.mp4	0.0	194.63835382461548	1.008509874343872
37	179.2266960144043	movie	1		280	35.0	2.5	/experiments/Knapen_AOT/AOT_stimuli/rescaled_final/1658_rv.mp4	0.0	195.64686369895935	2.492018938064575
37	179.59375476837158	pulse	1	t		35.0	2.5	/experiments/Knapen_AOT/AOT_stimuli/rescaled_final/1658_rv.mp4	0.0	196.01392245292664	
37	181.19390535354614	pulse	1	t		35.0	2.5	/experiments/Knapen_AOT/AOT_stimuli/rescaled_final/1658_rv.mp4	0.0	197.6140730381012	
37	181.71871495246887	fix_post	2		12	35.0	2.5	/experiments/Knapen_AOT/AOT_stimuli/rescaled_final/1658_rv.mp4	0.0	198.13888263702393	0.10007953643798828
38	181.81879448890686	fix_pre	0		118	36.0	2.5	/experiments/Knapen_AOT/AOT_stimuli/rescaled_final/1578_fw.mp4	0.0	198.2389621734619	0.9917786121368408
38	182.7940948009491	pulse	0	t		36.0	2.5	/experiments/Knapen_AOT/AOT_stimuli/rescaled_final/1578_fw.mp4	0.0	199.21426248550415	
38	182.8105731010437	movie	1		274	36.0	2.5	/experiments/Knapen_AOT/AOT_stimuli/rescaled_final/1578_fw.mp4	0.0	199.23074078559875	2.500607490539551
38	184.3929307460785	pulse	1	t		36.0	2.5	/experiments/Knapen_AOT/AOT_stimuli/rescaled_final/1578_fw.mp4	0.0	200.81309843063354	
38	185.31118059158325	fix_post	2		12	36.0	2.5	/experiments/Knapen_AOT/AOT_stimuli/rescaled_final/1578_fw.mp4	0.0	201.7313482761383	0.0998234748840332
39	185.41100406646729	fix_pre	0		120	37.0	2.5	/experiments/Knapen_AOT/AOT_stimuli/rescaled_final/1627_rv.mp4	0.0	201.83117175102234	1.0084736347198486
39	185.99460244178772	pulse	0	t		37.0	2.5	/experiments/Knapen_AOT/AOT_stimuli/rescaled_final/1627_rv.mp4	0.0	202.41477012634277	
39	186.41947770118713	movie	1		280	37.0	2.5	/experiments/Knapen_AOT/AOT_stimuli/rescaled_final/1627_rv.mp4	0.0	202.8396453857422	2.491997003555298
39	187.59325098991394	pulse	1	t		37.0	2.5	/experiments/Knapen_AOT/AOT_stimuli/rescaled_final/1627_rv.mp4	0.0	204.013418674469	
39	188.91147470474243	fix_post	2		12	37.0	2.5	/experiments/Knapen_AOT/AOT_stimuli/rescaled_final/1627_rv.mp4	0.0	205.33164238929749	0.10002875328063965
40	189.01150345802307	fix_pre	0		120	38.0	2.5	/experiments/Knapen_AOT/AOT_stimuli/rescaled_final/0706_fw.mp4	0.0	205.43167114257812	1.008554458618164
40	189.19515013694763	pulse	0	t		38.0	2.5	/experiments/Knapen_AOT/AOT_stimuli/rescaled_final/0706_fw.mp4	0.0	205.61531782150269	
40	190.02005791664124	movie	1		286	38.0	2.5	/experiments/Knapen_AOT/AOT_stimuli/rescaled_final/0706_fw.mp4	0.0	206.4402256011963	2.491955041885376
40	190.79335117340088	pulse	1	t		38.0	2.5	/experiments/Knapen_AOT/AOT_stimuli/rescaled_final/0706_fw.mp4	0.0	207.21351885795593	
40	192.39397716522217	pulse	1	t		38.0	2.5	/experiments/Knapen_AOT/AOT_stimuli/rescaled_final/0706_fw.mp4	0.0	208.81414484977722	
40	192.5120129585266	fix_post	2		12	38.0	2.5	/experiments/Knapen_AOT/AOT_stimuli/rescaled_final/0706_fw.mp4	0.0	208.93218064308167	0.10008788108825684
41	192.61210083961487	fix_pre	0		120	39.0	2.5	/experiments/Knapen_AOT/AOT_stimuli/rescaled_final/0808_fw.mp4	0.0	209.03226852416992	1.008455514907837
41	193.6205563545227	movie	1		290	39.0	2.5	/experiments/Knapen_AOT/AOT_stimuli/rescaled_final/0808_fw.mp4	0.0	210.04072403907776	2.4920029640197754
41	193.9944622516632	pulse	1	t		39.0	2.5	/experiments/Knapen_AOT/AOT_stimuli/rescaled_final/0808_fw.mp4	0.0	210.41462993621826	
41	195.59411239624023	pulse	1	t		39.0	2.5	/experiments/Knapen_AOT/AOT_stimuli/rescaled_final/0808_fw.mp4	0.0	212.0142800807953	
41	196.11255931854248	fix_post	2		12	39.0	2.5	/experiments/Knapen_AOT/AOT_stimuli/rescaled_final/0808_fw.mp4	0.0	212.53272700309753	0.10002446174621582
42	196.2125837802887	fix_pre	0		119	40.0	2.5	blank	1.0	212.63275146484375	0.9918382167816162
42	197.1962513923645	pulse	0	t		40.0	2.5	blank	1.0	213.61641907691956	
42	197.2044219970703	movie	1		301	40.0	2.5	blank	1.0	213.62458968162537	2.5086896419525146
42	198.796489238739	pulse	1	t		40.0	2.5	blank	1.0	215.21665692329407	
42	199.71311163902283	fix_post	2		12	40.0	2.5	blank	1.0	216.13327932357788	0.10001540184020996
43	199.81312704086304	fix_pre	0		120	41.0	2.5	/experiments/Knapen_AOT/AOT_stimuli/rescaled_final/1287_fw.mp4	0.0	216.2332947254181	1.0085842609405518
43	200.3970582485199	pulse	0	t		41.0	2.5	/experiments/Knapen_AOT/AOT_stimuli/rescaled_final/1287_fw.mp4	0.0	216.81722593307495	
43	200.8217113018036	movie	1		287	41.0	2.5	/experiments/Knapen_AOT/AOT_stimuli/rescaled_final/1287_fw.mp4	0.0	217.24187898635864	2.4919557571411133
43	201.99538278579712	pulse	1	t		41.0	2.5	/experiments/Knapen_AOT/AOT_stimuli/rescaled_final/1287_fw.mp4	0.0	218.41555047035217	
43	203.3136670589447	fix_post	2		12	41.0	2.5	/experiments/Knapen_AOT/AOT_stimuli/rescaled_final/1287_fw.mp4	0.0	219.73383474349976	0.10001969337463379
44	203.41368675231934	fix_pre	0		120	42.0	2.5	/experiments/Knapen_AOT/AOT_stimuli/rescaled_final/0932_fw.mp4	0.0	219.8338544368744	1.0084688663482666
44	203.59745573997498	pulse	0	t		42.0	2.5	/experiments/Knapen_AOT/AOT_stimuli/rescaled_final/0932_fw.mp4	0.0	220.01762342453003	
44	204.4221556186676	movie	1		287	42.0	2.5	/experiments/Knapen_AOT/AOT_stimuli/rescaled_final/0932_fw.mp4	0.0	220.84232330322266	2.492185592651367
44	205.19542121887207	pulse	1	t		42.0	2.5	/experiments/Knapen_AOT/AOT_stimuli/rescaled_final/0932_fw.mp4	0.0	221.61558890342712	
44	206.7970793247223	pulse	1	t		42.0	2.5	/experiments/Knapen_AOT/AOT_stimuli/rescaled_final/0932_fw.mp4	0.0	223.21724700927734	
44	206.91434121131897	fix_post	2		12	42.0	2.5	/experiments/Knapen_AOT/AOT_stimuli/rescaled_final/0932_fw.mp4	0.0	223.33450889587402	0.09985208511352539
45	207.0141932964325	fix_pre	0		120	43.0	2.5	/experiments/Knapen_AOT/AOT_stimuli/rescaled_final/1795_fw.mp4	0.0	223.43436098098755	1.008521556854248
45	208.02271485328674	movie	1		280	43.0	2.5	/experiments/Knapen_AOT/AOT_stimuli/rescaled_final/1795_fw.mp4	0.0	224.4428825378418	2.4920177459716797
45	208.3961842060089	pulse	1	t		43.0	2.5	/experiments/Knapen_AOT/AOT_stimuli/rescaled_final/1795_fw.mp4	0.0	224.81635189056396	
45	209.99650502204895	pulse	1	t		43.0	2.5	/experiments/Knapen_AOT/AOT_stimuli/rescaled_final/1795_fw.mp4	0.0	226.416672706604	
45	210.51473259925842	fix_post	2		12	43.0	2.5	/experiments/Knapen_AOT/AOT_stimuli/rescaled_final/1795_fw.mp4	0.0	226.93490028381348	0.10003328323364258
46	210.61476588249207	fix_pre	0		119	44.0	2.5	/experiments/Knapen_AOT/AOT_stimuli/rescaled_final/0588_fw.mp4	0.0	227.03493356704712	1.0003008842468262
46	211.59874200820923	pulse	0	t		44.0	2.5	/experiments/Knapen_AOT/AOT_stimuli/rescaled_final/0588_fw.mp4	0.0	228.01890969276428	
46	211.6150667667389	movie	1		290	44.0	2.5	/experiments/Knapen_AOT/AOT_stimuli/rescaled_final/0588_fw.mp4	0.0	228.03523445129395	2.5002200603485107
46	213.1971914768219	pulse	1	t		44.0	2.5	/experiments/Knapen_AOT/AOT_stimuli/rescaled_final/0588_fw.mp4	0.0	229.61735916137695	
46	214.1152868270874	fix_post	2		12	44.0	2.5	/experiments/Knapen_AOT/AOT_stimuli/rescaled_final/0588_fw.mp4	0.0	230.53545451164246	0.1000373363494873
47	214.2153241634369	fix_pre	0		120	45.0	2.5	/experiments/Knapen_AOT/AOT_stimuli/rescaled_final/0695_rv.mp4	0.0	230.63549184799194	1.00846266746521
47	214.79927015304565	pulse	0	t		45.0	2.5	/experiments/Knapen_AOT/AOT_stimuli/rescaled_final/0695_rv.mp4	0.0	231.2194378376007	
47	215.2237868309021	movie	1		270	45.0	2.5	/experiments/Knapen_AOT/AOT_stimuli/rescaled_final/0695_rv.mp4	0.0	231.64395451545715	2.49202561378479
47	216.39737558364868	pulse	1	t		45.0	2.5	/experiments/Knapen_AOT/AOT_stimuli/rescaled_final/0695_rv.mp4	0.0	232.81754326820374	
47	217.7158124446869	fix_post	2		12	45.0	2.5	/experiments/Knapen_AOT/AOT_stimuli/rescaled_final/0695_rv.mp4	0.0	234.13598012924194	0.10002684593200684
48	217.8158392906189	fix_pre	0		120	46.0	2.5	/experiments/Knapen_AOT/AOT_stimuli/rescaled_final/1436_rv.mp4	0.0	234.23600697517395	1.0084998607635498
48	217.99938464164734	pulse	0	t		46.0	2.5	/experiments/Knapen_AOT/AOT_stimuli/rescaled_final/1436_rv.mp4	0.0	234.4195523262024	
48	218.82433915138245	movie	1		282	46.0	2.5	/experiments/Knapen_AOT/AOT_stimuli/rescaled_final/1436_rv.mp4	0.0	235.2445068359375	2.4920010566711426
48	219.59811520576477	pulse	1	t		46.0	2.5	/experiments/Knapen_AOT/AOT_stimuli/rescaled_final/1436_rv.mp4	0.0	236.01828289031982	
48	221.19819116592407	pulse	1	t		46.0	2.5	/experiments/Knapen_AOT/AOT_stimuli/rescaled_final/1436_rv.mp4	0.0	237.61835885047913	
48	221.3163402080536	fix_post	2		12	46.0	2.5	/experiments/Knapen_AOT/AOT_stimuli/rescaled_final/1436_rv.mp4	0.0	237.73650789260864	0.10004162788391113
49	221.4163818359375	fix_pre	0		120	47.0	2.5	/experiments/Knapen_AOT/AOT_stimuli/rescaled_final/1264_fw.mp4	0.0	237.83654952049255	1.0084755420684814
49	222.42485737800598	movie	1		287	47.0	2.5	/experiments/Knapen_AOT/AOT_stimuli/rescaled_final/1264_fw.mp4	0.0	238.84502506256104	2.4920222759246826
49	222.79830503463745	pulse	1	t		47.0	2.5	/experiments/Knapen_AOT/AOT_stimuli/rescaled_final/1264_fw.mp4	0.0	239.2184727191925	
49	224.39842462539673	pulse	1	t		47.0	2.5	/experiments/Knapen_AOT/AOT_stimuli/rescaled_final/1264_fw.mp4	0.0	240.81859230995178	
49	224.91687965393066	fix_post	2		12	47.0	2.5	/experiments/Knapen_AOT/AOT_stimuli/rescaled_final/1264_fw.mp4	0.0	241.33704733848572	0.10002803802490234
50	225.01690769195557	fix_pre	0		119	48.0	2.5	blank	1.0	241.43707537651062	0.9919490814208984
50	226.00070714950562	pulse	0	t		48.0	2.5	blank	1.0	242.42087483406067	
50	226.00885677337646	movie	1		301	48.0	2.5	blank	1.0	242.42902445793152	2.508777379989624
50	227.59333729743958	pulse	1	t		48.0	2.5	blank	1.0	244.01350498199463	
50	228.5176341533661	fix_post	2		12	48.0	2.5	blank	1.0	244.93780183792114	0.09990453720092773
51	228.61753869056702	fix_pre	0		120	49.0	2.5	/experiments/Knapen_AOT/AOT_stimuli/rescaled_final/1503_rv.mp4	0.0	245.03770637512207	1.008439064025879
51	229.20154523849487	pulse	0	t		49.0	2.5	/experiments/Knapen_AOT/AOT_stimuli/rescaled_final/1503_rv.mp4	0.0	245.62171292304993	
51	229.6259777545929	movie	1		281	49.0	2.5	/experiments/Knapen_AOT/AOT_stimuli/rescaled_final/1503_rv.mp4	0.0	246.04614543914795	2.4919912815093994
51	230.7995846271515	pulse	1	t		49.0	2.5	/experiments/Knapen_AOT/AOT_stimuli/rescaled_final/1503_rv.mp4	0.0	247.21975231170654	
51	232.1179690361023	fix_post	2		12	49.0	2.5	/experiments/Knapen_AOT/AOT_stimuli/rescaled_final/1503_rv.mp4	0.0	248.53813672065735	0.10004758834838867
52	232.21801662445068	fix_pre	0		120	50.0	2.5	/experiments/Knapen_AOT/AOT_stimuli/rescaled_final/2112_rv.mp4	0.0	248.63818430900574	1.0085787773132324
52	232.39345908164978	pulse	0	t		50.0	2.5	/experiments/Knapen_AOT/AOT_stimuli/rescaled_final/2112_rv.mp4	0.0	248.81362676620483	
52	233.22659540176392	movie	1		280	50.0	2.5	/experiments/Knapen_AOT/AOT_stimuli/rescaled_final/2112_rv.mp4	0.0	249.64676308631897	2.491910696029663
52	233.99350452423096	pulse	1	t		50.0	2.5	/experiments/Knapen_AOT/AOT_stimuli/rescaled_final/2112_rv.mp4	0.0	250.413672208786	
52	235.5938115119934	pulse	1	t		50.0	2.5	/experiments/Knapen_AOT/AOT_stimuli/rescaled_final/2112_rv.mp4	0.0	252.01397919654846	
52	235.71850609779358	fix_post	2		12	50.0	2.5	/experiments/Knapen_AOT/AOT_stimuli/rescaled_final/2112_rv.mp4	0.0	252.13867378234863	0.10006356239318848
53	235.81856966018677	fix_pre	0		120	51.0	2.5	/experiments/Knapen_AOT/AOT_stimuli/rescaled_final/0561_rv.mp4	0.0	252.23873734474182	1.0084638595581055
53	236.82703351974487	movie	1		284	51.0	2.5	/experiments/Knapen_AOT/AOT_stimuli/rescaled_final/0561_rv.mp4	0.0	253.24720120429993	2.4920265674591064
53	237.19396924972534	pulse	1	t		51.0	2.5	/experiments/Knapen_AOT/AOT_stimuli/rescaled_final/0561_rv.mp4	0.0	253.6141369342804	
53	238.7943947315216	pulse	1	t		51.0	2.5	/experiments/Knapen_AOT/AOT_stimuli/rescaled_final/0561_rv.mp4	0.0	255.21456241607666	
53	239.31906008720398	fix_post	2		12	51.0	2.5	/experiments/Knapen_AOT/AOT_stimuli/rescaled_final/0561_rv.mp4	0.0	255.73922777175903	0.10006928443908691
54	239.41912937164307	fix_pre	0		118	52.0	2.5	/experiments/Knapen_AOT/AOT_stimuli/rescaled_final/1436_fw.mp4	0.0	255.83929705619812	0.9918186664581299
54	240.39459943771362	pulse	0	t		52.0	2.5	/experiments/Knapen_AOT/AOT_stimuli/rescaled_final/1436_fw.mp4	0.0	256.8147671222687	
54	240.4109480381012	movie	1		285	52.0	2.5	/experiments/Knapen_AOT/AOT_stimuli/rescaled_final/1436_fw.mp4	0.0	256.83111572265625	2.500326633453369
54	241.99346089363098	pulse	1	t		52.0	2.5	/experiments/Knapen_AOT/AOT_stimuli/rescaled_final/1436_fw.mp4	0.0	258.41362857818604	
54	242.91127467155457	fix_post	2		12	52.0	2.5	/experiments/Knapen_AOT/AOT_stimuli/rescaled_final/1436_fw.mp4	0.0	259.3314423561096	0.10008978843688965
55	243.01136445999146	fix_pre	0		120	53.0	2.5	/experiments/Knapen_AOT/AOT_stimuli/rescaled_final/0630_rv.mp4	0.0	259.4315321445465	1.0084073543548584
55	243.59516525268555	pulse	0	t		53.0	2.5	/experiments/Knapen_AOT/AOT_stimuli/rescaled_final/0630_rv.mp4	0.0	260.0153329372406	
55	244.0197718143463	movie	1		295	53.0	2.5	/experiments/Knapen_AOT/AOT_stimuli/rescaled_final/0630_rv.mp4	0.0	260.43993949890137	2.4920146465301514
55	245.19518613815308	pulse	1	t		53.0	2.5	/experiments/Knapen_AOT/AOT_stimuli/rescaled_final/0630_rv.mp4	0.0	261.61535382270813	
55	246.51178646087646	fix_post	2		12	53.0	2.5	/experiments/Knapen_AOT/AOT_stimuli/rescaled_final/0630_rv.mp4	0.0	262.9319541454315	0.10000777244567871
56	246.61179423332214	fix_pre	0		120	54.0	2.5	/experiments/Knapen_AOT/AOT_stimuli/rescaled_final/1650_fw.mp4	0.0	263.0319619178772	1.0085556507110596
56	246.79533624649048	pulse	0	t		54.0	2.5	/experiments/Knapen_AOT/AOT_stimuli/rescaled_final/1650_fw.mp4	0.0	263.21550393104553	
56	247.6203498840332	movie	1		296	54.0	2.5	/experiments/Knapen_AOT/AOT_stimuli/rescaled_final/1650_fw.mp4	0.0	264.04051756858826	2.4919681549072266
56	248.3955316543579	pulse	1	t		54.0	2.5	/experiments/Knapen_AOT/AOT_stimuli/rescaled_final/1650_fw.mp4	0.0	264.81569933891296	
56	249.99574780464172	pulse	1	t		54.0	2.5	/experiments/Knapen_AOT/AOT_stimuli/rescaled_final/1650_fw.mp4	0.0	266.4159154891968	
56	250.11231803894043	fix_post	2		12	54.0	2.5	/experiments/Knapen_AOT/AOT_stimuli/rescaled_final/1650_fw.mp4	0.0	266.5324857234955	0.10006308555603027
57	250.21238112449646	fix_pre	0		120	55.0	2.5	/experiments/Knapen_AOT/AOT_stimuli/rescaled_final/2047_rv.mp4	0.0	266.6325488090515	1.0085129737854004
57	251.22089409828186	movie	1		295	55.0	2.5	/experiments/Knapen_AOT/AOT_stimuli/rescaled_final/2047_rv.mp4	0.0	267.6410617828369	2.491941213607788
57	251.59542608261108	pulse	1	t		55.0	2.5	/experiments/Knapen_AOT/AOT_stimuli/rescaled_final/2047_rv.mp4	0.0	268.01559376716614	
57	253.19623637199402	pulse	1	t		55.0	2.5	/experiments/Knapen_AOT/AOT_stimuli/rescaled_final/2047_rv.mp4	0.0	269.6164040565491	
57	253.71283531188965	fix_post	2		12	55.0	2.5	/experiments/Knapen_AOT/AOT_stimuli/rescaled_final/2047_rv.mp4	0.0	270.1330029964447	0.10006237030029297
58	253.81289768218994	fix_pre	0		119	56.0	2.5	blank	1.0	270.233065366745	0.9918198585510254
58	254.79652786254883	pulse	0	t		56.0	2.5	blank	1.0	271.2166955471039	
58	254.80471754074097	movie	1		301	56.0	2.5	blank	1.0	271.224885225296	2.508707284927368
58	256.3968942165375	pulse	1	t		56.0	2.5	blank	1.0	272.81706190109253	
58	257.31342482566833	fix_post	2		12	56.0	2.5	blank	1.0	273.7335925102234	0.10001778602600098
59	257.41344261169434	fix_pre	0		120	57.0	2.5	/experiments/Knapen_AOT/AOT_stimuli/rescaled_final/1834_rv.mp4	0.0	273.8336102962494	1.0085279941558838
59	257.9971067905426	pulse	0	t		57.0	2.5	/experiments/Knapen_AOT/AOT_stimuli/rescaled_final/1834_rv.mp4	0.0	274.41727447509766	
59	258.4219706058502	movie	1		279	57.0	2.5	/experiments/Knapen_AOT/AOT_stimuli/rescaled_final/1834_rv.mp4	0.0	274.8421382904053	2.492021083831787
59	259.59570121765137	pulse	1	t		57.0	2.5	/experiments/Knapen_AOT/AOT_stimuli/rescaled_final/1834_rv.mp4	0.0	276.0158689022064	
59	260.913991689682	fix_post	2		12	57.0	2.5	/experiments/Knapen_AOT/AOT_stimuli/rescaled_final/1834_rv.mp4	0.0	277.33415937423706	0.10004663467407227
60	261.0140383243561	fix_pre	0		120	58.0	2.5	/experiments/Knapen_AOT/AOT_stimuli/rescaled_final/0561_rv.mp4	0.0	277.43420600891113	1.008446216583252
60	261.19762325286865	pulse	0	t		58.0	2.5	/experiments/Knapen_AOT/AOT_stimuli/rescaled_final/0561_rv.mp4	0.0	277.6177909374237	
60	262.02248454093933	movie	1		287	58.0	2.5	/experiments/Knapen_AOT/AOT_stimuli/rescaled_final/0561_rv.mp4	0.0	278.4426522254944	2.4920568466186523
60	262.79598355293274	pulse	1	t		58.0	2.5	/experiments/Knapen_AOT/AOT_stimuli/rescaled_final/0561_rv.mp4	0.0	279.2161512374878	
60	264.3983142375946	pulse	1	t		58.0	2.5	/experiments/Knapen_AOT/AOT_stimuli/rescaled_final/0561_rv.mp4	0.0	280.81848192214966	
60	264.514541387558	fix_post	2		12	58.0	2.5	/experiments/Knapen_AOT/AOT_stimuli/rescaled_final/0561_rv.mp4	0.0	280.93470907211304	0.10008049011230469
61	264.6146218776703	fix_pre	0		120	59.0	2.5	/experiments/Knapen_AOT/AOT_stimuli/rescaled_final/1534_fw.mp4	0.0	281.03478956222534	1.0084176063537598
61	265.62303948402405	movie	1		282	59.0	2.5	/experiments/Knapen_AOT/AOT_stimuli/rescaled_final/1534_fw.mp4	0.0	282.0432071685791	2.4920709133148193
61	265.9967758655548	pulse	1	t		59.0	2.5	/experiments/Knapen_AOT/AOT_stimuli/rescaled_final/1534_fw.mp4	0.0	282.41694355010986	
61	267.59661746025085	pulse	1	t		59.0	2.5	/experiments/Knapen_AOT/AOT_stimuli/rescaled_final/1534_fw.mp4	0.0	284.0167851448059	
61	268.11511039733887	fix_post	2		12	59.0	2.5	/experiments/Knapen_AOT/AOT_stimuli/rescaled_final/1534_fw.mp4	0.0	284.5352780818939	0.09996438026428223
62	268.21507477760315	fix_pre	0		119	60.0	2.5	/experiments/Knapen_AOT/AOT_stimuli/rescaled_final/0979_rv.mp4	0.0	284.6352424621582	1.000133991241455
62	269.19881987571716	pulse	0	t		60.0	2.5	/experiments/Knapen_AOT/AOT_stimuli/rescaled_final/0979_rv.mp4	0.0	285.6189875602722	
62	269.2152087688446	movie	1		285	60.0	2.5	/experiments/Knapen_AOT/AOT_stimuli/rescaled_final/0979_rv.mp4	0.0	285.63537645339966	2.500394344329834
62	270.7977662086487	pulse	1	t		60.0	2.5	/experiments/Knapen_AOT/AOT_stimuli/rescaled_final/0979_rv.mp4	0.0	287.21793389320374	
62	271.71560311317444	fix_post	2		12	60.0	2.5	/experiments/Knapen_AOT/AOT_stimuli/rescaled_final/0979_rv.mp4	0.0	288.1357707977295	0.10003471374511719
63	271.81563782691956	fix_pre	0		120	61.0	2.5	/experiments/Knapen_AOT/AOT_stimuli/rescaled_final/0672_rv.mp4	0.0	288.2358055114746	1.0084717273712158
63	272.3992967605591	pulse	0	t		61.0	2.5	/experiments/Knapen_AOT/AOT_stimuli/rescaled_final/0672_rv.mp4	0.0	288.81946444511414	
63	272.82410955429077	movie	1		286	61.0	2.5	/experiments/Knapen_AOT/AOT_stimuli/rescaled_final/0672_rv.mp4	0.0	289.2442772388458	2.4920244216918945
63	273.9976143836975	pulse	1	t		61.0	2.5	/experiments/Knapen_AOT/AOT_stimuli/rescaled_final/0672_rv.mp4	0.0	290.41778206825256	
63	275.31613397598267	fix_post	2		12	61.0	2.5	/experiments/Knapen_AOT/AOT_stimuli/rescaled_final/0672_rv.mp4	0.0	291.7363016605377	0.10000395774841309
64	275.4161379337311	fix_pre	0		120	62.0	2.5	blank	1.0	291.83630561828613	1.000159740447998
64	275.60000133514404	pulse	0	t		62.0	2.5	blank	1.0	292.0201690196991	
64	276.4162976741791	movie	1		300	62.0	2.5	blank	1.0	292.83646535873413	2.500369071960449
64	277.2000036239624	pulse	1	t		62.0	2.5	blank	1.0	293.62017130851746	
64	278.7925171852112	pulse	1	t		62.0	2.5	blank	1.0	295.21268486976624	
64	278.9166667461395	fix_post	2		12	62.0	2.5	blank	1.0	295.3368344306946	0.10007715225219727
65	279.0167438983917	fix_pre	0		120	63.0	2.5	/experiments/Knapen_AOT/AOT_stimuli/rescaled_final/1049_fw.mp4	0.0	295.4369115829468	1.0084822177886963
65	280.0252261161804	movie	1		279	63.0	2.5	/experiments/Knapen_AOT/AOT_stimuli/rescaled_final/1049_fw.mp4	0.0	296.4453938007355	2.4919869899749756
65	280.3993172645569	pulse	1	t		63.0	2.5	/experiments/Knapen_AOT/AOT_stimuli/rescaled_final/1049_fw.mp4	0.0	296.81948494911194	
65	281.99901390075684	pulse	1	t		63.0	2.5	/experiments/Knapen_AOT/AOT_stimuli/rescaled_final/1049_fw.mp4	0.0	298.4191815853119	
65	282.5172131061554	fix_post	2		12	63.0	2.5	/experiments/Knapen_AOT/AOT_stimuli/rescaled_final/1049_fw.mp4	0.0	298.93738079071045	0.10001802444458008
66	282.6172311306	fix_pre	0		118	64.0	2.5	/experiments/Knapen_AOT/AOT_stimuli/rescaled_final/0726_fw.mp4	0.0	299.03739881515503	0.991811990737915
66	283.5928063392639	pulse	0	t		64.0	2.5	/experiments/Knapen_AOT/AOT_stimuli/rescaled_final/0726_fw.mp4	0.0	300.01297402381897	
66	283.6090431213379	movie	1		288	64.0	2.5	/experiments/Knapen_AOT/AOT_stimuli/rescaled_final/0726_fw.mp4	0.0	300.02921080589294	2.500382661819458
66	285.19301557540894	pulse	1	t		64.0	2.5	/experiments/Knapen_AOT/AOT_stimuli/rescaled_final/0726_fw.mp4	0.0	301.613183259964	
66	286.10942578315735	fix_post	2		12	64.0	2.5	/experiments/Knapen_AOT/AOT_stimuli/rescaled_final/0726_fw.mp4	0.0	302.5295934677124	0.10001444816589355
67	286.20944023132324	fix_pre	0		120	65.0	2.5	/experiments/Knapen_AOT/AOT_stimuli/rescaled_final/1782_rv.mp4	0.0	302.6296079158783	1.0085289478302002
67	286.79325580596924	pulse	0	t		65.0	2.5	/experiments/Knapen_AOT/AOT_stimuli/rescaled_final/1782_rv.mp4	0.0	303.2134234905243	
67	287.21796917915344	movie	1		276	65.0	2.5	/experiments/Knapen_AOT/AOT_stimuli/rescaled_final/1782_rv.mp4	0.0	303.6381368637085	2.4920732975006104
67	288.39295530319214	pulse	1	t		65.0	2.5	/experiments/Knapen_AOT/AOT_stimuli/rescaled_final/1782_rv.mp4	0.0	304.8131229877472	
67	289.71004247665405	fix_post	2		12	65.0	2.5	/experiments/Knapen_AOT/AOT_stimuli/rescaled_final/1782_rv.mp4	0.0	306.1302101612091	0.09996557235717773
68	289.81000804901123	fix_pre	0		120	66.0	2.5	/experiments/Knapen_AOT/AOT_stimuli/rescaled_final/0342_rv.mp4	0.0	306.2301757335663	1.008514642715454
68	289.99360942840576	pulse	0	t		66.0	2.5	/experiments/Knapen_AOT/AOT_stimuli/rescaled_final/0342_rv.mp4	0.0	306.4137771129608	
68	290.8185226917267	movie	1		271	66.0	2.5	/experiments/Knapen_AOT/AOT_stimuli/rescaled_final/0342_rv.mp4	0.0	307.23869037628174	2.4919865131378174
68	291.5944561958313	pulse	1	t		66.0	2.5	/experiments/Knapen_AOT/AOT_stimuli/rescaled_final/0342_rv.mp4	0.0	308.01462388038635	
68	293.1931891441345	pulse	1	t		66.0	2.5	/experiments/Knapen_AOT/AOT_stimuli/rescaled_final/0342_rv.mp4	0.0	309.6133568286896	
68	293.3105092048645	fix_post	2		12	66.0	2.5	/experiments/Knapen_AOT/AOT_stimuli/rescaled_final/0342_rv.mp4	0.0	309.73067688941956	0.10002017021179199
69	293.4105293750763	fix_pre	0		120	67.0	2.5	/experiments/Knapen_AOT/AOT_stimuli/rescaled_final/1749_rv.mp4	0.0	309.83069705963135	1.0084843635559082
69	294.4190137386322	movie	1		289	67.0	2.5	/experiments/Knapen_AOT/AOT_stimuli/rescaled_final/1749_rv.mp4	0.0	310.83918142318726	2.492032051086426
69	294.79431343078613	pulse	1	t		67.0	2.5	/experiments/Knapen_AOT/AOT_stimuli/rescaled_final/1749_rv.mp4	0.0	311.2144811153412	
69	296.39450573921204	pulse	1	t		67.0	2.5	/experiments/Knapen_AOT/AOT_stimuli/rescaled_final/1749_rv.mp4	0.0	312.8146734237671	
69	296.9110457897186	fix_post	2		12	67.0	2.5	/experiments/Knapen_AOT/AOT_stimuli/rescaled_final/1749_rv.mp4	0.0	313.3312134742737	0.10001301765441895
70	297.01105880737305	fix_pre	0		119	68.0	2.5	/experiments/Knapen_AOT/AOT_stimuli/rescaled_final/1450_rv.mp4	0.0	313.4312264919281	1.0002586841583252
70	297.99482679367065	pulse	0	t		68.0	2.5	/experiments/Knapen_AOT/AOT_stimuli/rescaled_final/1450_rv.mp4	0.0	314.4149944782257	
70	298.0113174915314	movie	1		291	68.0	2.5	/experiments/Knapen_AOT/AOT_stimuli/rescaled_final/1450_rv.mp4	0.0	314.4314851760864	2.500235080718994
70	299.60110902786255	pulse	1	t		68.0	2.5	/experiments/Knapen_AOT/AOT_stimuli/rescaled_final/1450_rv.mp4	0.0	316.0212767124176	
70	300.51155257225037	fix_post	2		12	68.0	2.5	/experiments/Knapen_AOT/AOT_stimuli/rescaled_final/1450_rv.mp4	0.0	316.9317202568054	0.10008478164672852
71	300.6116373538971	fix_pre	0		120	69.0	2.5	/experiments/Knapen_AOT/AOT_stimuli/rescaled_final/0405_fw.mp4	0.0	317.03180503845215	1.008420705795288
71	301.19514179229736	pulse	0	t		69.0	2.5	/experiments/Knapen_AOT/AOT_stimuli/rescaled_final/0405_fw.mp4	0.0	317.6153094768524	
71	301.6200580596924	movie	1		292	69.0	2.5	/experiments/Knapen_AOT/AOT_stimuli/rescaled_final/0405_fw.mp4	0.0	318.04022574424744	2.4920172691345215
71	302.79288840293884	pulse	1	t		69.0	2.5	/experiments/Knapen_AOT/AOT_stimuli/rescaled_final/0405_fw.mp4	0.0	319.2130560874939	
71	304.1120753288269	fix_post	2		12	69.0	2.5	/experiments/Knapen_AOT/AOT_stimuli/rescaled_final/0405_fw.mp4	0.0	320.53224301338196	0.10003066062927246
72	304.2121059894562	fix_pre	0		120	70.0	2.5	blank	1.0	320.63227367401123	1.0001661777496338
72	304.39565682411194	pulse	0	t		70.0	2.5	blank	1.0	320.815824508667	
72	305.2122721672058	movie	1		300	70.0	2.5	blank	1.0	321.63243985176086	2.500368118286133
72	305.99595522880554	pulse	1	t		70.0	2.5	blank	1.0	322.4161229133606	
72	307.5961923599243	pulse	1	t		70.0	2.5	blank	1.0	324.01636004447937	
72	307.71264028549194	fix_post	2		12	70.0	2.5	blank	1.0	324.132807970047	0.09999322891235352
73	307.8126335144043	fix_pre	0		120	71.0	2.5	/experiments/Knapen_AOT/AOT_stimuli/rescaled_final/1348_fw.mp4	0.0	324.23280119895935	1.008580207824707
73	308.821213722229	movie	1		295	71.0	2.5	/experiments/Knapen_AOT/AOT_stimuli/rescaled_final/1348_fw.mp4	0.0	325.24138140678406	2.4919583797454834
73	309.1948993206024	pulse	1	t		71.0	2.5	/experiments/Knapen_AOT/AOT_stimuli/rescaled_final/1348_fw.mp4	0.0	325.61506700515747	
73	310.7966740131378	pulse	1	t		71.0	2.5	/experiments/Knapen_AOT/AOT_stimuli/rescaled_final/1348_fw.mp4	0.0	327.21684169769287	
73	311.3131721019745	fix_post	2		12	71.0	2.5	/experiments/Knapen_AOT/AOT_stimuli/rescaled_final/1348_fw.mp4	0.0	327.73333978652954	0.10001635551452637
74	311.413188457489	fix_pre	0		119	72.0	2.5	/experiments/Knapen_AOT/AOT_stimuli/rescaled_final/1297_rv.mp4	0.0	327.83335614204407	1.0001964569091797
74	312.39707922935486	pulse	0	t		72.0	2.5	/experiments/Knapen_AOT/AOT_stimuli/rescaled_final/1297_rv.mp4	0.0	328.8172469139099	
74	312.4133849143982	movie	1		295	72.0	2.5	/experiments/Knapen_AOT/AOT_stimuli/rescaled_final/1297_rv.mp4	0.0	328.83355259895325	2.500359296798706
74	313.993195772171	pulse	1	t		72.0	2.5	/experiments/Knapen_AOT/AOT_stimuli/rescaled_final/1297_rv.mp4	0.0	330.4133634567261	
74	314.9137442111969	fix_post	2		12	72.0	2.5	/experiments/Knapen_AOT/AOT_stimuli/rescaled_final/1297_rv.mp4	0.0	331.33391189575195	0.09999203681945801
75	315.01373624801636	fix_pre	0		120	73.0	2.5	/experiments/Knapen_AOT/AOT_stimuli/rescaled_final/0375_fw.mp4	0.0	331.4339039325714	1.0085585117340088
75	315.59732365608215	pulse	0	t		73.0	2.5	/experiments/Knapen_AOT/AOT_stimuli/rescaled_final/0375_fw.mp4	0.0	332.0174913406372	
75	316.02229475975037	movie	1		296	73.0	2.5	/experiments/Knapen_AOT/AOT_stimuli/rescaled_final/0375_fw.mp4	0.0	332.4424624443054	2.4919819831848145
75	317.1932611465454	pulse	1	t		73.0	2.5	/experiments/Knapen_AOT/AOT_stimuli/rescaled_final/0375_fw.mp4	0.0	333.61342883110046	
75	318.5142767429352	fix_post	2		12	73.0	2.5	/experiments/Knapen_AOT/AOT_stimuli/rescaled_final/0375_fw.mp4	0.0	334.93444442749023	0.10002660751342773
76	318.6143033504486	fix_pre	0		120	74.0	2.5	/experiments/Knapen_AOT/AOT_stimuli/rescaled_final/1922_rv.mp4	0.0	335.03447103500366	1.0001087188720703
76	318.7978799343109	pulse	0	t		74.0	2.5	/experiments/Knapen_AOT/AOT_stimuli/rescaled_final/1922_rv.mp4	0.0	335.21804761886597	
76	319.6144120693207	movie	1		293	74.0	2.5	/experiments/Knapen_AOT/AOT_stimuli/rescaled_final/1922_rv.mp4	0.0	336.03457975387573	2.500394105911255
76	320.39380383491516	pulse	1	t		74.0	2.5	/experiments/Knapen_AOT/AOT_stimuli/rescaled_final/1922_rv.mp4	0.0	336.8139715194702	
76	321.99402713775635	pulse	1	t		74.0	2.5	/experiments/Knapen_AOT/AOT_stimuli/rescaled_final/1922_rv.mp4	0.0	338.4141948223114	
76	322.11480617523193	fix_post	2		12	74.0	2.5	/experiments/Knapen_AOT/AOT_stimuli/rescaled_final/1922_rv.mp4	0.0	338.534973859787	0.10002660751342773
77	322.21483278274536	fix_pre	0		120	75.0	2.5	blank	1.0	338.6350004673004	1.0001287460327148
77	323.2149615287781	movie	1		300	75.0	2.5	blank	1.0	339.63512921333313	2.5004470348358154
77	323.598525762558	pulse	1	t		75.0	2.5	blank	1.0	340.01869344711304	
77	325.19883155822754	pulse	1	t		75.0	2.5	blank	1.0	341.6189992427826	
77	325.7154085636139	fix_post	2		12	75.0	2.5	blank	1.0	342.13557624816895	0.10001349449157715
78	325.81542205810547	fix_pre	0		119	76.0	2.5	/experiments/Knapen_AOT/AOT_stimuli/rescaled_final/0383_fw.mp4	0.0	342.2355897426605	1.0001487731933594
78	326.79916310310364	pulse	0	t		76.0	2.5	/experiments/Knapen_AOT/AOT_stimuli/rescaled_final/0383_fw.mp4	0.0	343.2193307876587	
78	326.8155708312988	movie	1		287	76.0	2.5	/experiments/Knapen_AOT/AOT_stimuli/rescaled_final/0383_fw.mp4	0.0	343.2357385158539	2.5003714561462402
78	328.39785981178284	pulse	1	t		76.0	2.5	/experiments/Knapen_AOT/AOT_stimuli/rescaled_final/0383_fw.mp4	0.0	344.8180274963379	
78	329.31594228744507	fix_post	2		12	76.0	2.5	/experiments/Knapen_AOT/AOT_stimuli/rescaled_final/0383_fw.mp4	0.0	345.7361099720001	0.09999847412109375
79	329.41594076156616	fix_pre	0		120	77.0	2.5	/experiments/Knapen_AOT/AOT_stimuli/rescaled_final/0236_rv.mp4	0.0	345.8361084461212	1.0085067749023438
79	329.9996817111969	pulse	0	t		77.0	2.5	/experiments/Knapen_AOT/AOT_stimuli/rescaled_final/0236_rv.mp4	0.0	346.41984939575195	
79	330.4244475364685	movie	1		292	77.0	2.5	/experiments/Knapen_AOT/AOT_stimuli/rescaled_final/0236_rv.mp4	0.0	346.84461522102356	2.492032527923584
79	331.59800910949707	pulse	1	t		77.0	2.5	/experiments/Knapen_AOT/AOT_stimuli/rescaled_final/0236_rv.mp4	0.0	348.0181767940521	
79	332.9164800643921	fix_post	2		12	77.0	2.5	/experiments/Knapen_AOT/AOT_stimuli/rescaled_final/0236_rv.mp4	0.0	349.33664774894714	0.09999823570251465
80	333.0164783000946	fix_pre	0		120	78.0	2.5	/experiments/Knapen_AOT/AOT_stimuli/rescaled_final/1633_fw.mp4	0.0	349.43664598464966	1.0085830688476562
80	333.1941683292389	pulse	0	t		78.0	2.5	/experiments/Knapen_AOT/AOT_stimuli/rescaled_final/1633_fw.mp4	0.0	349.61433601379395	
80	334.02506136894226	movie	1		279	78.0	2.5	/experiments/Knapen_AOT/AOT_stimuli/rescaled_final/1633_fw.mp4	0.0	350.4452290534973	2.491997480392456
80	334.7984275817871	pulse	1	t		78.0	2.5	/experiments/Knapen_AOT/AOT_stimuli/rescaled_final/1633_fw.mp4	0.0	351.21859526634216	
80	336.3986487388611	pulse	1	t		78.0	2.5	/experiments/Knapen_AOT/AOT_stimuli/rescaled_final/1633_fw.mp4	0.0	352.81881642341614	
80	336.5170588493347	fix_post	2		12	78.0	2.5	/experiments/Knapen_AOT/AOT_stimuli/rescaled_final/1633_fw.mp4	0.0	352.93722653388977	0.09996342658996582
81	336.6170222759247	fix_pre	0		120	79.0	2.5	/experiments/Knapen_AOT/AOT_stimuli/rescaled_final/1749_rv.mp4	0.0	353.03718996047974	1.008491039276123
81	337.6255133152008	movie	1		277	79.0	2.5	/experiments/Knapen_AOT/AOT_stimuli/rescaled_final/1749_rv.mp4	0.0	354.04568099975586	2.491980791091919
81	337.99959444999695	pulse	1	t		79.0	2.5	/experiments/Knapen_AOT/AOT_stimuli/rescaled_final/1749_rv.mp4	0.0	354.419762134552	
81	339.59932136535645	pulse	1	t		79.0	2.5	/experiments/Knapen_AOT/AOT_stimuli/rescaled_final/1749_rv.mp4	0.0	356.0194890499115	
81	340.1174941062927	fix_post	2		12	79.0	2.5	/experiments/Knapen_AOT/AOT_stimuli/rescaled_final/1749_rv.mp4	0.0	356.5376617908478	0.10020828247070312
82	340.2177023887634	fix_pre	0		118	80.0	2.5	/experiments/Knapen_AOT/AOT_stimuli/rescaled_final/1529_fw.mp4	0.0	356.6378700733185	0.9916908740997314
82	341.193466424942	pulse	0	t		80.0	2.5	/experiments/Knapen_AOT/AOT_stimuli/rescaled_final/1529_fw.mp4	0.0	357.61363410949707	
82	341.20939326286316	movie	1		281	80.0	2.5	/experiments/Knapen_AOT/AOT_stimuli/rescaled_final/1529_fw.mp4	0.0	357.6295609474182	2.500405788421631
82	342.79323506355286	pulse	1	t		80.0	2.5	/experiments/Knapen_AOT/AOT_stimuli/rescaled_final/1529_fw.mp4	0.0	359.2134027481079	
82	343.7097990512848	fix_post	2		12	80.0	2.5	/experiments/Knapen_AOT/AOT_stimuli/rescaled_final/1529_fw.mp4	0.0	360.12996673583984	0.09996461868286133
83	343.80976366996765	fix_pre	0		120	81.0	2.5	/experiments/Knapen_AOT/AOT_stimuli/rescaled_final/2124_rv.mp4	0.0	360.2299313545227	1.0084621906280518
83	344.3933868408203	pulse	0	t		81.0	2.5	/experiments/Knapen_AOT/AOT_stimuli/rescaled_final/2124_rv.mp4	0.0	360.81355452537537	
83	344.8182258605957	movie	1		285	81.0	2.5	/experiments/Knapen_AOT/AOT_stimuli/rescaled_final/2124_rv.mp4	0.0	361.23839354515076	2.4920787811279297
83	345.99399304389954	pulse	1	t		81.0	2.5	/experiments/Knapen_AOT/AOT_stimuli/rescaled_final/2124_rv.mp4	0.0	362.4141607284546	
83	347.31030464172363	fix_post	2		12	81.0	2.5	/experiments/Knapen_AOT/AOT_stimuli/rescaled_final/2124_rv.mp4	0.0	363.7304723262787	0.10001015663146973
84	347.4103147983551	fix_pre	0		120	82.0	2.5	/experiments/Knapen_AOT/AOT_stimuli/rescaled_final/0600_fw.mp4	0.0	363.83048248291016	1.0085124969482422
84	347.59418296813965	pulse	0	t		82.0	2.5	/experiments/Knapen_AOT/AOT_stimuli/rescaled_final/0600_fw.mp4	0.0	364.0143506526947	
84	348.41882729530334	movie	1		282	82.0	2.5	/experiments/Knapen_AOT/AOT_stimuli/rescaled_final/0600_fw.mp4	0.0	364.8389949798584	2.49198579788208
84	349.1941752433777	pulse	1	t		82.0	2.5	/experiments/Knapen_AOT/AOT_stimuli/rescaled_final/0600_fw.mp4	0.0	365.61434292793274	
84	350.7943060398102	pulse	1	t		82.0	2.5	/experiments/Knapen_AOT/AOT_stimuli/rescaled_final/0600_fw.mp4	0.0	367.21447372436523	
84	350.9108130931854	fix_post	2		12	82.0	2.5	/experiments/Knapen_AOT/AOT_stimuli/rescaled_final/0600_fw.mp4	0.0	367.3309807777405	0.10003852844238281
85	351.0108516216278	fix_pre	0		120	83.0	2.5	blank	1.0	367.43101930618286	1.0001566410064697
85	352.0110082626343	movie	1		300	83.0	2.5	blank	1.0	368.43117594718933	2.500359296798706
85	352.3946852684021	pulse	1	t		83.0	2.5	blank	1.0	368.81485295295715	
85	353.99495363235474	pulse	1	t		83.0	2.5	blank	1.0	370.4151213169098	
85	354.511367559433	fix_post	2		12	83.0	2.5	blank	1.0	370.93153524398804	0.1000065803527832
87	354.61137413978577	stim	0		1715					371.0315418243408	14.29382586479187
87	355.59545946121216	pulse	0	t						372.0156271457672	
87	357.19550824165344	pulse	0	t						373.6156759262085	
87	358.79575657844543	pulse	0	t						375.2159242630005	
87	360.39638471603394	pulse	0	t						376.816552400589	
87	361.99619460105896	pulse	0	t						378.416362285614	
87	363.5965073108673	pulse	0	t						380.01667499542236	
87	365.19674348831177	pulse	0	t						381.6169111728668	
87	366.7973117828369	pulse	0	t						383.21747946739197	
87	368.3972897529602	pulse	0	t						384.81745743751526	
