trial_nr	onset	event_type	phase	response	nr_frames	movie_index	movie_duration	movie_file	blank	onset_abs	duration
0	0.20823001861572266	stim	0		4					20.771831035614014	0.03330183029174805
0	0.23348784446716309	response	0	space						20.797088861465454	
1	0.2415318489074707	stim	0		4719					20.80513286590576	39.34302997589111
1	39.56994390487671	pulse	0	t						60.133544921875	
1	39.584561824798584	stim	1		1715					60.148162841796875	14.298310995101929
1	41.16454887390137	pulse	1	t						61.72814989089966	
1	42.764703035354614	pulse	1	t						63.328304052352905	
1	44.36491799354553	pulse	1	t						64.92851901054382	
1	45.965287923812866	pulse	1	t						66.52888894081116	
1	47.5654239654541	pulse	1	t						68.12902498245239	
1	49.16560697555542	pulse	1	t						69.72920799255371	
1	50.76584601402283	pulse	1	t						71.32944703102112	
1	52.35772085189819	pulse	1	t						72.92132186889648	
2	53.88287281990051	fix_pre	0		10	0.0	2.5	/experiments/knapen_AOT/AOT_stimuli/rescaled_final/1911_rv.mp4	0.0	74.4464738368988	0.08331799507141113
2	53.95800995826721	pulse	0	t		0.0	2.5	/experiments/knapen_AOT/AOT_stimuli/rescaled_final/1911_rv.mp4	0.0	74.5216109752655	
2	53.966190814971924	movie	1		241	0.0	2.5	/experiments/knapen_AOT/AOT_stimuli/rescaled_final/1911_rv.mp4	0.0	74.52979183197021	2.508774995803833
2	55.559123039245605	pulse	1	t		0.0	2.5	/experiments/knapen_AOT/AOT_stimuli/rescaled_final/1911_rv.mp4	0.0	76.1227240562439	
2	56.47496581077576	fix_post	2		12	0.0	2.5	/experiments/knapen_AOT/AOT_stimuli/rescaled_final/1911_rv.mp4	0.0	77.03856682777405	0.10004806518554688
3	56.575013875961304	fix_pre	0		120	1.0	2.5	/experiments/knapen_AOT/AOT_stimuli/rescaled_final/1179_rv.mp4	0.0	77.1386148929596	1.0000410079956055
3	57.15846490859985	pulse	0	t		1.0	2.5	/experiments/knapen_AOT/AOT_stimuli/rescaled_final/1179_rv.mp4	0.0	77.72206592559814	
3	57.57505488395691	movie	1		243	1.0	2.5	/experiments/knapen_AOT/AOT_stimuli/rescaled_final/1179_rv.mp4	0.0	78.1386559009552	2.500515937805176
3	58.75885796546936	pulse	1	t		1.0	2.5	/experiments/knapen_AOT/AOT_stimuli/rescaled_final/1179_rv.mp4	0.0	79.32245898246765	
3	60.075570821762085	fix_post	2		12	1.0	2.5	/experiments/knapen_AOT/AOT_stimuli/rescaled_final/1179_rv.mp4	0.0	80.63917183876038	0.0999000072479248
4	60.17547082901001	fix_pre	0		120	2.0	2.5	/experiments/knapen_AOT/AOT_stimuli/rescaled_final/0992_rv.mp4	0.0	80.7390718460083	1.0001530647277832
4	60.35899996757507	pulse	0	t		2.0	2.5	/experiments/knapen_AOT/AOT_stimuli/rescaled_final/0992_rv.mp4	0.0	80.92260098457336	
4	61.17562389373779	movie	1		242	2.0	2.5	/experiments/knapen_AOT/AOT_stimuli/rescaled_final/0992_rv.mp4	0.0	81.73922491073608	2.50040602684021
4	61.95919394493103	pulse	1	t		2.0	2.5	/experiments/knapen_AOT/AOT_stimuli/rescaled_final/0992_rv.mp4	0.0	82.52279496192932	
4	63.55948281288147	pulse	1	t		2.0	2.5	/experiments/knapen_AOT/AOT_stimuli/rescaled_final/0992_rv.mp4	0.0	84.12308382987976	
4	63.676029920578	fix_post	2		12	2.0	2.5	/experiments/knapen_AOT/AOT_stimuli/rescaled_final/0992_rv.mp4	0.0	84.2396309375763	0.09995698928833008
5	63.77598690986633	fix_pre	0		120	3.0	2.5	/experiments/knapen_AOT/AOT_stimuli/rescaled_final/0948_rv.mp4	0.0	84.33958792686462	1.0001599788665771
5	64.77614688873291	movie	1		241	3.0	2.5	/experiments/knapen_AOT/AOT_stimuli/rescaled_final/0948_rv.mp4	0.0	85.3397479057312	2.4921181201934814
5	65.16039800643921	pulse	1	t		3.0	2.5	/experiments/knapen_AOT/AOT_stimuli/rescaled_final/0948_rv.mp4	0.0	85.7239990234375	
5	66.76000189781189	pulse	1	t		3.0	2.5	/experiments/knapen_AOT/AOT_stimuli/rescaled_final/0948_rv.mp4	0.0	87.32360291481018	
5	67.26826500892639	fix_post	2		12	3.0	2.5	/experiments/knapen_AOT/AOT_stimuli/rescaled_final/0948_rv.mp4	0.0	87.83186602592468	0.09994888305664062
6	67.36821389198303	fix_pre	0		120	4.0	2.5	/experiments/knapen_AOT/AOT_stimuli/rescaled_final/0097_fw.mp4	0.0	87.93181490898132	1.0001051425933838
6	68.36022591590881	pulse	0	t		4.0	2.5	/experiments/knapen_AOT/AOT_stimuli/rescaled_final/0097_fw.mp4	0.0	88.9238269329071	
6	68.36831903457642	movie	1		246	4.0	2.5	/experiments/knapen_AOT/AOT_stimuli/rescaled_final/0097_fw.mp4	0.0	88.9319200515747	2.508734941482544
6	69.96235489845276	pulse	1	t		4.0	2.5	/experiments/knapen_AOT/AOT_stimuli/rescaled_final/0097_fw.mp4	0.0	90.52595591545105	
6	70.87705397605896	fix_post	2		12	4.0	2.5	/experiments/knapen_AOT/AOT_stimuli/rescaled_final/0097_fw.mp4	0.0	91.44065499305725	0.10003495216369629
7	70.97708892822266	fix_pre	0		120	5.0	2.5	/experiments/knapen_AOT/AOT_stimuli/rescaled_final/1079_fw.mp4	0.0	91.54068994522095	1.0001630783081055
7	71.56070590019226	pulse	0	t		5.0	2.5	/experiments/knapen_AOT/AOT_stimuli/rescaled_final/1079_fw.mp4	0.0	92.12430691719055	
7	71.97725200653076	movie	1		242	5.0	2.5	/experiments/knapen_AOT/AOT_stimuli/rescaled_final/1079_fw.mp4	0.0	92.54085302352905	2.5004630088806152
7	73.16105389595032	pulse	1	t		5.0	2.5	/experiments/knapen_AOT/AOT_stimuli/rescaled_final/1079_fw.mp4	0.0	93.72465491294861	
7	74.47771501541138	fix_post	2		12	5.0	2.5	/experiments/knapen_AOT/AOT_stimuli/rescaled_final/1079_fw.mp4	0.0	95.04131603240967	0.09991884231567383
8	74.57763385772705	fix_pre	0		120	6.0	2.5	/experiments/knapen_AOT/AOT_stimuli/rescaled_final/0329_fw.mp4	0.0	95.14123487472534	1.0001800060272217
8	74.76112198829651	pulse	0	t		6.0	2.5	/experiments/knapen_AOT/AOT_stimuli/rescaled_final/0329_fw.mp4	0.0	95.3247230052948	
8	75.57781386375427	movie	1		242	6.0	2.5	/experiments/knapen_AOT/AOT_stimuli/rescaled_final/0329_fw.mp4	0.0	96.14141488075256	2.5004520416259766
8	76.36135387420654	pulse	1	t		6.0	2.5	/experiments/knapen_AOT/AOT_stimuli/rescaled_final/0329_fw.mp4	0.0	96.92495489120483	
8	77.96215486526489	pulse	1	t		6.0	2.5	/experiments/knapen_AOT/AOT_stimuli/rescaled_final/0329_fw.mp4	0.0	98.52575588226318	
8	78.07826590538025	fix_post	2		12	6.0	2.5	/experiments/knapen_AOT/AOT_stimuli/rescaled_final/0329_fw.mp4	0.0	98.64186692237854	0.0998539924621582
9	78.17811989784241	fix_pre	0		120	7.0	2.5	blank	1.0	98.7417209148407	1.0001609325408936
9	79.1782808303833	movie	1		299	7.0	2.5	blank	1.0	99.74188184738159	2.492033004760742
9	79.56194996833801	pulse	1	t		7.0	2.5	blank	1.0	100.1255509853363	
9	81.16215991973877	pulse	1	t		7.0	2.5	blank	1.0	101.72576093673706	
9	81.67031383514404	fix_post	2		12	7.0	2.5	blank	1.0	102.23391485214233	0.10004305839538574
10	81.77035689353943	fix_pre	0		120	8.0	2.5	/experiments/knapen_AOT/AOT_stimuli/rescaled_final/1926_rv.mp4	0.0	102.33395791053772	1.000216007232666
10	82.76235485076904	pulse	0	t		8.0	2.5	/experiments/knapen_AOT/AOT_stimuli/rescaled_final/1926_rv.mp4	0.0	103.32595586776733	
10	82.7705729007721	movie	1		246	8.0	2.5	/experiments/knapen_AOT/AOT_stimuli/rescaled_final/1926_rv.mp4	0.0	103.33417391777039	2.508647918701172
10	84.36389899253845	pulse	1	t		8.0	2.5	/experiments/knapen_AOT/AOT_stimuli/rescaled_final/1926_rv.mp4	0.0	104.92750000953674	
10	85.27922081947327	fix_post	2		12	8.0	2.5	/experiments/knapen_AOT/AOT_stimuli/rescaled_final/1926_rv.mp4	0.0	105.84282183647156	0.09997200965881348
11	85.37919282913208	fix_pre	0		120	9.0	2.5	/experiments/knapen_AOT/AOT_stimuli/rescaled_final/1934_rv.mp4	0.0	105.94279384613037	1.0001630783081055
11	85.96287894248962	pulse	0	t		9.0	2.5	/experiments/knapen_AOT/AOT_stimuli/rescaled_final/1934_rv.mp4	0.0	106.52647995948792	
11	86.37935590744019	movie	1		242	9.0	2.5	/experiments/knapen_AOT/AOT_stimuli/rescaled_final/1934_rv.mp4	0.0	106.94295692443848	2.5005171298980713
11	87.56314587593079	pulse	1	t		9.0	2.5	/experiments/knapen_AOT/AOT_stimuli/rescaled_final/1934_rv.mp4	0.0	108.12674689292908	
11	88.87987303733826	fix_post	2		12	9.0	2.5	/experiments/knapen_AOT/AOT_stimuli/rescaled_final/1934_rv.mp4	0.0	109.44347405433655	0.09993481636047363
12	88.97980785369873	fix_pre	0		120	10.0	2.5	/experiments/knapen_AOT/AOT_stimuli/rescaled_final/1365_rv.mp4	0.0	109.54340887069702	1.0001680850982666
12	89.16332483291626	pulse	0	t		10.0	2.5	/experiments/knapen_AOT/AOT_stimuli/rescaled_final/1365_rv.mp4	0.0	109.72692584991455	
12	89.979975938797	movie	1		243	10.0	2.5	/experiments/knapen_AOT/AOT_stimuli/rescaled_final/1365_rv.mp4	0.0	110.54357695579529	2.5003390312194824
12	90.76348996162415	pulse	1	t		10.0	2.5	/experiments/knapen_AOT/AOT_stimuli/rescaled_final/1365_rv.mp4	0.0	111.32709097862244	
12	92.3642029762268	pulse	1	t		10.0	2.5	/experiments/knapen_AOT/AOT_stimuli/rescaled_final/1365_rv.mp4	0.0	112.9278039932251	
12	92.48031497001648	fix_post	2		12	10.0	2.5	/experiments/knapen_AOT/AOT_stimuli/rescaled_final/1365_rv.mp4	0.0	113.04391598701477	0.0999598503112793
13	92.58027482032776	fix_pre	0		120	11.0	2.5	/experiments/knapen_AOT/AOT_stimuli/rescaled_final/0624_rv.mp4	0.0	113.14387583732605	1.0001521110534668
13	93.58042693138123	movie	1		241	11.0	2.5	/experiments/knapen_AOT/AOT_stimuli/rescaled_final/0624_rv.mp4	0.0	114.14402794837952	2.4921278953552246
13	93.9684829711914	pulse	1	t		11.0	2.5	/experiments/knapen_AOT/AOT_stimuli/rescaled_final/0624_rv.mp4	0.0	114.5320839881897	
13	95.56425499916077	pulse	1	t		11.0	2.5	/experiments/knapen_AOT/AOT_stimuli/rescaled_final/0624_rv.mp4	0.0	116.12785601615906	
13	96.07255482673645	fix_post	2		12	11.0	2.5	/experiments/knapen_AOT/AOT_stimuli/rescaled_final/0624_rv.mp4	0.0	116.63615584373474	0.10000014305114746
14	96.1725549697876	fix_pre	0		120	12.0	2.5	blank	1.0	116.73615598678589	1.0001270771026611
14	97.16445684432983	pulse	0	t		12.0	2.5	blank	1.0	117.72805786132812	
14	97.17268204689026	movie	1		301	12.0	2.5	blank	1.0	117.73628306388855	2.5086538791656494
14	98.76485300064087	pulse	1	t		12.0	2.5	blank	1.0	119.32845401763916	
14	99.68133592605591	fix_post	2		12	12.0	2.5	blank	1.0	120.2449369430542	0.10002803802490234
15	99.78136396408081	fix_pre	0		120	13.0	2.5	/experiments/knapen_AOT/AOT_stimuli/rescaled_final/1467_rv.mp4	0.0	120.3449649810791	1.000195026397705
15	100.36504292488098	pulse	0	t		13.0	2.5	/experiments/knapen_AOT/AOT_stimuli/rescaled_final/1467_rv.mp4	0.0	120.92864394187927	
15	100.78155899047852	movie	1		242	13.0	2.5	/experiments/knapen_AOT/AOT_stimuli/rescaled_final/1467_rv.mp4	0.0	121.3451600074768	2.5004689693450928
15	101.96541595458984	pulse	1	t		13.0	2.5	/experiments/knapen_AOT/AOT_stimuli/rescaled_final/1467_rv.mp4	0.0	122.52901697158813	
15	103.28202795982361	fix_post	2		12	13.0	2.5	/experiments/knapen_AOT/AOT_stimuli/rescaled_final/1467_rv.mp4	0.0	123.8456289768219	0.09994292259216309
16	103.38197088241577	fix_pre	0		120	14.0	2.5	/experiments/knapen_AOT/AOT_stimuli/rescaled_final/1141_rv.mp4	0.0	123.94557189941406	1.000115156173706
16	103.5654308795929	pulse	0	t		14.0	2.5	/experiments/knapen_AOT/AOT_stimuli/rescaled_final/1141_rv.mp4	0.0	124.12903189659119	
16	104.38208603858948	movie	1		241	14.0	2.5	/experiments/knapen_AOT/AOT_stimuli/rescaled_final/1141_rv.mp4	0.0	124.94568705558777	2.5180578231811523
16	105.16575598716736	pulse	1	t		14.0	2.5	/experiments/knapen_AOT/AOT_stimuli/rescaled_final/1141_rv.mp4	0.0	125.72935700416565	
16	106.76565194129944	pulse	1	t		14.0	2.5	/experiments/knapen_AOT/AOT_stimuli/rescaled_final/1141_rv.mp4	0.0	127.32925295829773	
16	106.90014386177063	fix_post	2		10	14.0	2.5	/experiments/knapen_AOT/AOT_stimuli/rescaled_final/1141_rv.mp4	0.0	127.46374487876892	0.08228302001953125
17	106.98242688179016	fix_pre	0		120	15.0	2.5	/experiments/knapen_AOT/AOT_stimuli/rescaled_final/1697_fw.mp4	0.0	127.54602789878845	1.0001699924468994
17	107.98259687423706	movie	1		241	15.0	2.5	/experiments/knapen_AOT/AOT_stimuli/rescaled_final/1697_fw.mp4	0.0	128.54619789123535	2.492171049118042
17	108.36679601669312	pulse	1	t		15.0	2.5	/experiments/knapen_AOT/AOT_stimuli/rescaled_final/1697_fw.mp4	0.0	128.9303970336914	
17	109.95916390419006	pulse	1	t		15.0	2.5	/experiments/knapen_AOT/AOT_stimuli/rescaled_final/1697_fw.mp4	0.0	130.52276492118835	
17	110.4747679233551	fix_post	2		12	15.0	2.5	/experiments/knapen_AOT/AOT_stimuli/rescaled_final/1697_fw.mp4	0.0	131.0383689403534	0.09995293617248535
18	110.57472085952759	fix_pre	0		120	16.0	2.5	/experiments/knapen_AOT/AOT_stimuli/rescaled_final/1038_rv.mp4	0.0	131.13832187652588	1.0001230239868164
18	111.55923104286194	pulse	0	t		16.0	2.5	/experiments/knapen_AOT/AOT_stimuli/rescaled_final/1038_rv.mp4	0.0	132.12283205986023	
18	111.5748438835144	movie	1		243	16.0	2.5	/experiments/knapen_AOT/AOT_stimuli/rescaled_final/1038_rv.mp4	0.0	132.1384449005127	2.508780002593994
18	113.15874695777893	pulse	1	t		16.0	2.5	/experiments/knapen_AOT/AOT_stimuli/rescaled_final/1038_rv.mp4	0.0	133.72234797477722	
18	114.0836238861084	fix_post	2		12	16.0	2.5	/experiments/knapen_AOT/AOT_stimuli/rescaled_final/1038_rv.mp4	0.0	134.6472249031067	0.09989404678344727
19	114.18351793289185	fix_pre	0		120	17.0	2.5	/experiments/knapen_AOT/AOT_stimuli/rescaled_final/0334_rv.mp4	0.0	134.74711894989014	1.0001959800720215
19	114.75876998901367	pulse	0	t		17.0	2.5	/experiments/knapen_AOT/AOT_stimuli/rescaled_final/0334_rv.mp4	0.0	135.32237100601196	
19	115.18371391296387	movie	1		244	17.0	2.5	/experiments/knapen_AOT/AOT_stimuli/rescaled_final/0334_rv.mp4	0.0	135.74731492996216	2.500373125076294
19	116.35941791534424	pulse	1	t		17.0	2.5	/experiments/knapen_AOT/AOT_stimuli/rescaled_final/0334_rv.mp4	0.0	136.92301893234253	
19	117.68408703804016	fix_post	2		12	17.0	2.5	/experiments/knapen_AOT/AOT_stimuli/rescaled_final/0334_rv.mp4	0.0	138.24768805503845	0.09997296333312988
20	117.78406000137329	fix_pre	0		120	18.0	2.5	/experiments/knapen_AOT/AOT_stimuli/rescaled_final/1641_fw.mp4	0.0	138.34766101837158	1.0002069473266602
20	117.959401845932	pulse	0	t		18.0	2.5	/experiments/knapen_AOT/AOT_stimuli/rescaled_final/1641_fw.mp4	0.0	138.5230028629303	
20	118.78426694869995	movie	1		242	18.0	2.5	/experiments/knapen_AOT/AOT_stimuli/rescaled_final/1641_fw.mp4	0.0	139.34786796569824	2.5004079341888428
20	119.55946683883667	pulse	1	t		18.0	2.5	/experiments/knapen_AOT/AOT_stimuli/rescaled_final/1641_fw.mp4	0.0	140.12306785583496	
20	121.15967297554016	pulse	1	t		18.0	2.5	/experiments/knapen_AOT/AOT_stimuli/rescaled_final/1641_fw.mp4	0.0	141.72327399253845	
20	121.2846748828888	fix_post	2		11	18.0	2.5	/experiments/knapen_AOT/AOT_stimuli/rescaled_final/1641_fw.mp4	0.0	141.84827589988708	0.09158015251159668
21	121.37625503540039	fix_pre	0		120	19.0	2.5	/experiments/knapen_AOT/AOT_stimuli/rescaled_final/1369_rv.mp4	0.0	141.93985605239868	1.0001389980316162
21	122.376394033432	movie	1		242	19.0	2.5	/experiments/knapen_AOT/AOT_stimuli/rescaled_final/1369_rv.mp4	0.0	142.9399950504303	2.5004918575286865
21	122.76060795783997	pulse	1	t		19.0	2.5	/experiments/knapen_AOT/AOT_stimuli/rescaled_final/1369_rv.mp4	0.0	143.32420897483826	
21	124.36019897460938	pulse	1	t		19.0	2.5	/experiments/knapen_AOT/AOT_stimuli/rescaled_final/1369_rv.mp4	0.0	144.92379999160767	
21	124.8768858909607	fix_post	2		12	19.0	2.5	/experiments/knapen_AOT/AOT_stimuli/rescaled_final/1369_rv.mp4	0.0	145.44048690795898	0.09994912147521973
22	124.97683501243591	fix_pre	0		119	20.0	2.5	/experiments/knapen_AOT/AOT_stimuli/rescaled_final/1001_fw.mp4	0.0	145.5404360294342	0.991818904876709
22	125.96044301986694	pulse	0	t		20.0	2.5	/experiments/knapen_AOT/AOT_stimuli/rescaled_final/1001_fw.mp4	0.0	146.52404403686523	
22	125.96865391731262	movie	1		244	20.0	2.5	/experiments/knapen_AOT/AOT_stimuli/rescaled_final/1001_fw.mp4	0.0	146.5322549343109	2.5086541175842285
22	127.56115889549255	pulse	1	t		20.0	2.5	/experiments/knapen_AOT/AOT_stimuli/rescaled_final/1001_fw.mp4	0.0	148.12475991249084	
22	128.47730803489685	fix_post	2		12	20.0	2.5	/experiments/knapen_AOT/AOT_stimuli/rescaled_final/1001_fw.mp4	0.0	149.04090905189514	0.10001087188720703
23	128.57731890678406	fix_pre	0		120	21.0	2.5	blank	1.0	149.14091992378235	1.0001881122589111
23	129.160964012146	pulse	0	t		21.0	2.5	blank	1.0	149.7245650291443	
23	129.57750701904297	movie	1		300	21.0	2.5	blank	1.0	150.14110803604126	2.500363826751709
23	130.76119995117188	pulse	1	t		21.0	2.5	blank	1.0	151.32480096817017	
23	132.07787084579468	fix_post	2		12	21.0	2.5	blank	1.0	152.64147186279297	0.10005617141723633
24	132.1779270172119	fix_pre	0		120	22.0	2.5	/experiments/knapen_AOT/AOT_stimuli/rescaled_final/0677_rv.mp4	0.0	152.7415280342102	1.000105857849121
24	132.36140203475952	pulse	0	t		22.0	2.5	/experiments/knapen_AOT/AOT_stimuli/rescaled_final/0677_rv.mp4	0.0	152.9250030517578	
24	133.17803287506104	movie	1		242	22.0	2.5	/experiments/knapen_AOT/AOT_stimuli/rescaled_final/0677_rv.mp4	0.0	153.74163389205933	2.5004589557647705
24	133.96165585517883	pulse	1	t		22.0	2.5	/experiments/knapen_AOT/AOT_stimuli/rescaled_final/0677_rv.mp4	0.0	154.52525687217712	
24	135.5617220401764	pulse	1	t		22.0	2.5	/experiments/knapen_AOT/AOT_stimuli/rescaled_final/0677_rv.mp4	0.0	156.12532305717468	
24	135.6784918308258	fix_post	2		12	22.0	2.5	/experiments/knapen_AOT/AOT_stimuli/rescaled_final/0677_rv.mp4	0.0	156.2420928478241	0.1000051498413086
25	135.77849698066711	fix_pre	0		120	23.0	2.5	/experiments/knapen_AOT/AOT_stimuli/rescaled_final/1514_fw.mp4	0.0	156.3420979976654	1.00010085105896
25	136.77859783172607	movie	1		241	23.0	2.5	/experiments/knapen_AOT/AOT_stimuli/rescaled_final/1514_fw.mp4	0.0	157.34219884872437	2.4920620918273926
25	137.16292190551758	pulse	1	t		23.0	2.5	/experiments/knapen_AOT/AOT_stimuli/rescaled_final/1514_fw.mp4	0.0	157.72652292251587	
25	138.7624478340149	pulse	1	t		23.0	2.5	/experiments/knapen_AOT/AOT_stimuli/rescaled_final/1514_fw.mp4	0.0	159.32604885101318	
25	139.27065992355347	fix_post	2		12	23.0	2.5	/experiments/knapen_AOT/AOT_stimuli/rescaled_final/1514_fw.mp4	0.0	159.83426094055176	0.10002708435058594
26	139.37068700790405	fix_pre	0		120	24.0	2.5	/experiments/knapen_AOT/AOT_stimuli/rescaled_final/1133_fw.mp4	0.0	159.93428802490234	1.0000510215759277
26	140.36261296272278	pulse	0	t		24.0	2.5	/experiments/knapen_AOT/AOT_stimuli/rescaled_final/1133_fw.mp4	0.0	160.92621397972107	
26	140.37073802947998	movie	1		243	24.0	2.5	/experiments/knapen_AOT/AOT_stimuli/rescaled_final/1133_fw.mp4	0.0	160.93433904647827	2.5088329315185547
26	141.9641978740692	pulse	1	t		24.0	2.5	/experiments/knapen_AOT/AOT_stimuli/rescaled_final/1133_fw.mp4	0.0	162.5277988910675	
26	142.87957096099854	fix_post	2		12	24.0	2.5	/experiments/knapen_AOT/AOT_stimuli/rescaled_final/1133_fw.mp4	0.0	163.44317197799683	0.09989285469055176
27	142.9794638156891	fix_pre	0		120	25.0	2.5	/experiments/knapen_AOT/AOT_stimuli/rescaled_final/0871_rv.mp4	0.0	163.54306483268738	1.0001721382141113
27	143.56307196617126	pulse	0	t		25.0	2.5	/experiments/knapen_AOT/AOT_stimuli/rescaled_final/0871_rv.mp4	0.0	164.12667298316956	
27	143.9796359539032	movie	1		243	25.0	2.5	/experiments/knapen_AOT/AOT_stimuli/rescaled_final/0871_rv.mp4	0.0	164.5432369709015	2.500493049621582
27	145.1634600162506	pulse	1	t		25.0	2.5	/experiments/knapen_AOT/AOT_stimuli/rescaled_final/0871_rv.mp4	0.0	165.7270610332489	
27	146.48012900352478	fix_post	2		12	25.0	2.5	/experiments/knapen_AOT/AOT_stimuli/rescaled_final/0871_rv.mp4	0.0	167.04373002052307	0.09990191459655762
28	146.58003091812134	fix_pre	0		120	26.0	2.5	blank	1.0	167.14363193511963	1.0001909732818604
28	146.7635588645935	pulse	0	t		26.0	2.5	blank	1.0	167.3271598815918	
28	147.5802218914032	movie	1		300	26.0	2.5	blank	1.0	168.1438229084015	2.5003371238708496
28	148.36390686035156	pulse	1	t		26.0	2.5	blank	1.0	168.92750787734985	
28	149.964035987854	pulse	1	t		26.0	2.5	blank	1.0	170.5276370048523	
28	150.08055901527405	fix_post	2		12	26.0	2.5	blank	1.0	170.64416003227234	0.10004901885986328
29	150.1806080341339	fix_pre	0		120	27.0	2.5	/experiments/knapen_AOT/AOT_stimuli/rescaled_final/1785_rv.mp4	0.0	170.7442090511322	1.0001258850097656
29	151.18073391914368	movie	1		241	27.0	2.5	/experiments/knapen_AOT/AOT_stimuli/rescaled_final/1785_rv.mp4	0.0	171.74433493614197	2.492185115814209
29	151.56561088562012	pulse	1	t		27.0	2.5	/experiments/knapen_AOT/AOT_stimuli/rescaled_final/1785_rv.mp4	0.0	172.1292119026184	
29	153.16450881958008	pulse	1	t		27.0	2.5	/experiments/knapen_AOT/AOT_stimuli/rescaled_final/1785_rv.mp4	0.0	173.72810983657837	
29	153.67291903495789	fix_post	2		12	27.0	2.5	/experiments/knapen_AOT/AOT_stimuli/rescaled_final/1785_rv.mp4	0.0	174.23652005195618	0.09986400604248047
30	153.77278304100037	fix_pre	0		120	28.0	2.5	/experiments/knapen_AOT/AOT_stimuli/rescaled_final/1406_fw.mp4	0.0	174.33638405799866	1.0001389980316162
30	154.76480388641357	pulse	0	t		28.0	2.5	/experiments/knapen_AOT/AOT_stimuli/rescaled_final/1406_fw.mp4	0.0	175.32840490341187	
30	154.77292203903198	movie	1		243	28.0	2.5	/experiments/knapen_AOT/AOT_stimuli/rescaled_final/1406_fw.mp4	0.0	175.33652305603027	2.508730888366699
30	156.3656198978424	pulse	1	t		28.0	2.5	/experiments/knapen_AOT/AOT_stimuli/rescaled_final/1406_fw.mp4	0.0	176.9292209148407	
30	157.28165292739868	fix_post	2		12	28.0	2.5	/experiments/knapen_AOT/AOT_stimuli/rescaled_final/1406_fw.mp4	0.0	177.84525394439697	0.09998893737792969
31	157.3816418647766	fix_pre	0		120	29.0	2.5	/experiments/knapen_AOT/AOT_stimuli/rescaled_final/0748_fw.mp4	0.0	177.9452428817749	1.0001730918884277
31	157.9652578830719	pulse	0	t		29.0	2.5	/experiments/knapen_AOT/AOT_stimuli/rescaled_final/0748_fw.mp4	0.0	178.5288589000702	
31	158.38181495666504	movie	1		244	29.0	2.5	/experiments/knapen_AOT/AOT_stimuli/rescaled_final/0748_fw.mp4	0.0	178.94541597366333	2.5003809928894043
31	159.55851483345032	pulse	1	t		29.0	2.5	/experiments/knapen_AOT/AOT_stimuli/rescaled_final/0748_fw.mp4	0.0	180.1221158504486	
31	160.88219594955444	fix_post	2		12	29.0	2.5	/experiments/knapen_AOT/AOT_stimuli/rescaled_final/0748_fw.mp4	0.0	181.44579696655273	0.09999394416809082
32	160.98218989372253	fix_pre	0		120	30.0	2.5	/experiments/knapen_AOT/AOT_stimuli/rescaled_final/1054_fw.mp4	0.0	181.54579091072083	1.0001311302185059
32	161.158185005188	pulse	0	t		30.0	2.5	/experiments/knapen_AOT/AOT_stimuli/rescaled_final/1054_fw.mp4	0.0	181.72178602218628	
32	161.98232102394104	movie	1		242	30.0	2.5	/experiments/knapen_AOT/AOT_stimuli/rescaled_final/1054_fw.mp4	0.0	182.54592204093933	2.5005459785461426
32	162.75866603851318	pulse	1	t		30.0	2.5	/experiments/knapen_AOT/AOT_stimuli/rescaled_final/1054_fw.mp4	0.0	183.32226705551147	
32	164.36619782447815	pulse	1	t		30.0	2.5	/experiments/knapen_AOT/AOT_stimuli/rescaled_final/1054_fw.mp4	0.0	184.92979884147644	
32	164.48286700248718	fix_post	2		12	30.0	2.5	/experiments/knapen_AOT/AOT_stimuli/rescaled_final/1054_fw.mp4	0.0	185.04646801948547	0.0998988151550293
33	164.5827658176422	fix_pre	0		120	31.0	2.5	/experiments/knapen_AOT/AOT_stimuli/rescaled_final/1499_rv.mp4	0.0	185.1463668346405	1.0001301765441895
33	165.5828959941864	movie	1		242	31.0	2.5	/experiments/knapen_AOT/AOT_stimuli/rescaled_final/1499_rv.mp4	0.0	186.1464970111847	2.492032051086426
33	165.96692395210266	pulse	1	t		31.0	2.5	/experiments/knapen_AOT/AOT_stimuli/rescaled_final/1499_rv.mp4	0.0	186.53052496910095	
33	167.55855298042297	pulse	1	t		31.0	2.5	/experiments/knapen_AOT/AOT_stimuli/rescaled_final/1499_rv.mp4	0.0	188.12215399742126	
33	168.07492804527283	fix_post	2		12	31.0	2.5	/experiments/knapen_AOT/AOT_stimuli/rescaled_final/1499_rv.mp4	0.0	188.63852906227112	0.10000276565551758
34	168.17493081092834	fix_pre	0		119	32.0	2.5	/experiments/knapen_AOT/AOT_stimuli/rescaled_final/0199_rv.mp4	0.0	188.73853182792664	0.9918291568756104
34	169.1585328578949	pulse	0	t		32.0	2.5	/experiments/knapen_AOT/AOT_stimuli/rescaled_final/0199_rv.mp4	0.0	189.7221338748932	
34	169.16675996780396	movie	1		240	32.0	2.5	/experiments/knapen_AOT/AOT_stimuli/rescaled_final/0199_rv.mp4	0.0	189.73036098480225	2.5086960792541504
34	170.76000881195068	pulse	1	t		32.0	2.5	/experiments/knapen_AOT/AOT_stimuli/rescaled_final/0199_rv.mp4	0.0	191.32360982894897	
34	171.6754560470581	fix_post	2		12	32.0	2.5	/experiments/knapen_AOT/AOT_stimuli/rescaled_final/0199_rv.mp4	0.0	192.2390570640564	0.10010981559753418
35	171.77556586265564	fix_pre	0		120	33.0	2.5	blank	1.0	192.33916687965393	1.0000519752502441
35	172.3591558933258	pulse	0	t		33.0	2.5	blank	1.0	192.9227569103241	
35	172.77561783790588	movie	1		300	33.0	2.5	blank	1.0	193.33921885490417	2.500378131866455
35	173.95930099487305	pulse	1	t		33.0	2.5	blank	1.0	194.52290201187134	
35	175.27599596977234	fix_post	2		12	33.0	2.5	blank	1.0	195.83959698677063	0.10001993179321289
36	175.37601590156555	fix_pre	0		120	34.0	2.5	/experiments/knapen_AOT/AOT_stimuli/rescaled_final/0350_rv.mp4	0.0	195.93961691856384	1.0001411437988281
36	175.55951690673828	pulse	0	t		34.0	2.5	/experiments/knapen_AOT/AOT_stimuli/rescaled_final/0350_rv.mp4	0.0	196.12311792373657	
36	176.37615704536438	movie	1		242	34.0	2.5	/experiments/knapen_AOT/AOT_stimuli/rescaled_final/0350_rv.mp4	0.0	196.93975806236267	2.5004968643188477
36	177.1598219871521	pulse	1	t		34.0	2.5	/experiments/knapen_AOT/AOT_stimuli/rescaled_final/0350_rv.mp4	0.0	197.7234230041504	
36	178.75984501838684	pulse	1	t		34.0	2.5	/experiments/knapen_AOT/AOT_stimuli/rescaled_final/0350_rv.mp4	0.0	199.32344603538513	
36	178.87665390968323	fix_post	2		12	34.0	2.5	/experiments/knapen_AOT/AOT_stimuli/rescaled_final/0350_rv.mp4	0.0	199.44025492668152	0.09990501403808594
37	178.9765589237213	fix_pre	0		120	35.0	2.5	/experiments/knapen_AOT/AOT_stimuli/rescaled_final/0297_rv.mp4	0.0	199.5401599407196	1.000180959701538
37	179.97673988342285	movie	1		241	35.0	2.5	/experiments/knapen_AOT/AOT_stimuli/rescaled_final/0297_rv.mp4	0.0	200.54034090042114	2.4920499324798584
37	180.36098384857178	pulse	1	t		35.0	2.5	/experiments/knapen_AOT/AOT_stimuli/rescaled_final/0297_rv.mp4	0.0	200.92458486557007	
37	181.96043491363525	pulse	1	t		35.0	2.5	/experiments/knapen_AOT/AOT_stimuli/rescaled_final/0297_rv.mp4	0.0	202.52403593063354	
37	182.4687898159027	fix_post	2		12	35.0	2.5	/experiments/knapen_AOT/AOT_stimuli/rescaled_final/0297_rv.mp4	0.0	203.032390832901	0.09998703002929688
38	182.568776845932	fix_pre	0		120	36.0	2.5	/experiments/knapen_AOT/AOT_stimuli/rescaled_final/1003_fw.mp4	0.0	203.1323778629303	1.000128984451294
38	183.56077790260315	pulse	0	t		36.0	2.5	/experiments/knapen_AOT/AOT_stimuli/rescaled_final/1003_fw.mp4	0.0	204.12437891960144	
38	183.5689058303833	movie	1		244	36.0	2.5	/experiments/knapen_AOT/AOT_stimuli/rescaled_final/1003_fw.mp4	0.0	204.1325068473816	2.508733034133911
38	185.1615128517151	pulse	1	t		36.0	2.5	/experiments/knapen_AOT/AOT_stimuli/rescaled_final/1003_fw.mp4	0.0	205.72511386871338	
38	186.0776388645172	fix_post	2		12	36.0	2.5	/experiments/knapen_AOT/AOT_stimuli/rescaled_final/1003_fw.mp4	0.0	206.6412398815155	0.100006103515625
39	186.17764496803284	fix_pre	0		120	37.0	2.5	/experiments/knapen_AOT/AOT_stimuli/rescaled_final/1255_fw.mp4	0.0	206.74124598503113	1.0001220703125
39	186.76134300231934	pulse	0	t		37.0	2.5	/experiments/knapen_AOT/AOT_stimuli/rescaled_final/1255_fw.mp4	0.0	207.32494401931763	
39	187.17776703834534	movie	1		242	37.0	2.5	/experiments/knapen_AOT/AOT_stimuli/rescaled_final/1255_fw.mp4	0.0	207.74136805534363	2.5005099773406982
39	188.36150288581848	pulse	1	t		37.0	2.5	/experiments/knapen_AOT/AOT_stimuli/rescaled_final/1255_fw.mp4	0.0	208.92510390281677	
39	189.67827701568604	fix_post	2		12	37.0	2.5	/experiments/knapen_AOT/AOT_stimuli/rescaled_final/1255_fw.mp4	0.0	210.24187803268433	0.09989595413208008
40	189.77817296981812	fix_pre	0		120	38.0	2.5	/experiments/knapen_AOT/AOT_stimuli/rescaled_final/1922_fw.mp4	0.0	210.3417739868164	1.0001280307769775
40	189.96161699295044	pulse	0	t		38.0	2.5	/experiments/knapen_AOT/AOT_stimuli/rescaled_final/1922_fw.mp4	0.0	210.52521800994873	
40	190.7783010005951	movie	1		242	38.0	2.5	/experiments/knapen_AOT/AOT_stimuli/rescaled_final/1922_fw.mp4	0.0	211.34190201759338	2.500525951385498
40	191.56207990646362	pulse	1	t		38.0	2.5	/experiments/knapen_AOT/AOT_stimuli/rescaled_final/1922_fw.mp4	0.0	212.1256809234619	
40	193.16287183761597	pulse	1	t		38.0	2.5	/experiments/knapen_AOT/AOT_stimuli/rescaled_final/1922_fw.mp4	0.0	213.72647285461426	
40	193.2788269519806	fix_post	2		12	38.0	2.5	/experiments/knapen_AOT/AOT_stimuli/rescaled_final/1922_fw.mp4	0.0	213.84242796897888	0.09988999366760254
41	193.3787169456482	fix_pre	0		120	39.0	2.5	/experiments/knapen_AOT/AOT_stimuli/rescaled_final/1368_fw.mp4	0.0	213.94231796264648	1.0001349449157715
41	194.37885189056396	movie	1		241	39.0	2.5	/experiments/knapen_AOT/AOT_stimuli/rescaled_final/1368_fw.mp4	0.0	214.94245290756226	2.4921090602874756
41	194.76294088363647	pulse	1	t		39.0	2.5	/experiments/knapen_AOT/AOT_stimuli/rescaled_final/1368_fw.mp4	0.0	215.32654190063477	
41	196.3627369403839	pulse	1	t		39.0	2.5	/experiments/knapen_AOT/AOT_stimuli/rescaled_final/1368_fw.mp4	0.0	216.9263379573822	
41	196.87096095085144	fix_post	2		12	39.0	2.5	/experiments/knapen_AOT/AOT_stimuli/rescaled_final/1368_fw.mp4	0.0	217.43456196784973	0.09992098808288574
42	196.97088193893433	fix_pre	0		120	40.0	2.5	/experiments/knapen_AOT/AOT_stimuli/rescaled_final/0507_rv.mp4	0.0	217.53448295593262	1.0001928806304932
42	197.96303987503052	pulse	0	t		40.0	2.5	/experiments/knapen_AOT/AOT_stimuli/rescaled_final/0507_rv.mp4	0.0	218.5266408920288	
42	197.97107481956482	movie	1		243	40.0	2.5	/experiments/knapen_AOT/AOT_stimuli/rescaled_final/0507_rv.mp4	0.0	218.5346758365631	2.5087320804595947
42	199.56342387199402	pulse	1	t		40.0	2.5	/experiments/knapen_AOT/AOT_stimuli/rescaled_final/0507_rv.mp4	0.0	220.1270248889923	
42	200.4798069000244	fix_post	2		12	40.0	2.5	/experiments/knapen_AOT/AOT_stimuli/rescaled_final/0507_rv.mp4	0.0	221.0434079170227	0.100006103515625
43	200.57981300354004	fix_pre	0		120	41.0	2.5	/experiments/knapen_AOT/AOT_stimuli/rescaled_final/1960_fw.mp4	0.0	221.14341402053833	1.0001418590545654
43	201.16337394714355	pulse	0	t		41.0	2.5	/experiments/knapen_AOT/AOT_stimuli/rescaled_final/1960_fw.mp4	0.0	221.72697496414185	
43	201.5799548625946	movie	1		242	41.0	2.5	/experiments/knapen_AOT/AOT_stimuli/rescaled_final/1960_fw.mp4	0.0	222.1435558795929	2.5003950595855713
43	202.763680934906	pulse	1	t		41.0	2.5	/experiments/knapen_AOT/AOT_stimuli/rescaled_final/1960_fw.mp4	0.0	223.3272819519043	
43	204.08034992218018	fix_post	2		12	41.0	2.5	/experiments/knapen_AOT/AOT_stimuli/rescaled_final/1960_fw.mp4	0.0	224.64395093917847	0.09993505477905273
44	204.18028497695923	fix_pre	0		120	42.0	2.5	blank	1.0	224.74388599395752	1.0001499652862549
44	204.36383986473083	pulse	0	t		42.0	2.5	blank	1.0	224.92744088172913	
44	205.18043494224548	movie	1		300	42.0	2.5	blank	1.0	225.74403595924377	2.5004489421844482
44	205.96419286727905	pulse	1	t		42.0	2.5	blank	1.0	226.52779388427734	
44	207.5644028186798	pulse	1	t		42.0	2.5	blank	1.0	228.1280038356781	
44	207.68088388442993	fix_post	2		12	42.0	2.5	blank	1.0	228.24448490142822	0.09998607635498047
45	207.7808699607849	fix_pre	0		120	43.0	2.5	/experiments/knapen_AOT/AOT_stimuli/rescaled_final/2078_fw.mp4	0.0	228.3444709777832	1.0001740455627441
45	208.78104400634766	movie	1		241	43.0	2.5	/experiments/knapen_AOT/AOT_stimuli/rescaled_final/2078_fw.mp4	0.0	229.34464502334595	2.4921369552612305
45	209.16511487960815	pulse	1	t		43.0	2.5	/experiments/knapen_AOT/AOT_stimuli/rescaled_final/2078_fw.mp4	0.0	229.72871589660645	
45	210.76478004455566	pulse	1	t		43.0	2.5	/experiments/knapen_AOT/AOT_stimuli/rescaled_final/2078_fw.mp4	0.0	231.32838106155396	
45	211.2731809616089	fix_post	2		12	43.0	2.5	/experiments/knapen_AOT/AOT_stimuli/rescaled_final/2078_fw.mp4	0.0	231.83678197860718	0.09991693496704102
46	211.37309789657593	fix_pre	0		120	44.0	2.5	/experiments/knapen_AOT/AOT_stimuli/rescaled_final/2104_fw.mp4	0.0	231.93669891357422	1.0001800060272217
46	212.36515283584595	pulse	0	t		44.0	2.5	/experiments/knapen_AOT/AOT_stimuli/rescaled_final/2104_fw.mp4	0.0	232.92875385284424	
46	212.37327790260315	movie	1		244	44.0	2.5	/experiments/knapen_AOT/AOT_stimuli/rescaled_final/2104_fw.mp4	0.0	232.93687891960144	2.508669137954712
46	213.96635484695435	pulse	1	t		44.0	2.5	/experiments/knapen_AOT/AOT_stimuli/rescaled_final/2104_fw.mp4	0.0	234.52995586395264	
46	214.88194704055786	fix_post	2		12	44.0	2.5	/experiments/knapen_AOT/AOT_stimuli/rescaled_final/2104_fw.mp4	0.0	235.44554805755615	0.09999585151672363
47	214.98194289207458	fix_pre	0		120	45.0	2.5	/experiments/knapen_AOT/AOT_stimuli/rescaled_final/0132_rv.mp4	0.0	235.54554390907288	1.000154972076416
47	215.56546592712402	pulse	0	t		45.0	2.5	/experiments/knapen_AOT/AOT_stimuli/rescaled_final/0132_rv.mp4	0.0	236.12906694412231	
47	215.982097864151	movie	1		243	45.0	2.5	/experiments/knapen_AOT/AOT_stimuli/rescaled_final/0132_rv.mp4	0.0	236.5456988811493	2.5004141330718994
47	217.1658580303192	pulse	1	t		45.0	2.5	/experiments/knapen_AOT/AOT_stimuli/rescaled_final/0132_rv.mp4	0.0	237.7294590473175	
47	218.4825119972229	fix_post	2		12	45.0	2.5	/experiments/knapen_AOT/AOT_stimuli/rescaled_final/0132_rv.mp4	0.0	239.0461130142212	0.09999299049377441
48	218.58250498771667	fix_pre	0		120	46.0	2.5	/experiments/knapen_AOT/AOT_stimuli/rescaled_final/2056_rv.mp4	0.0	239.14610600471497	1.0001108646392822
48	218.76601195335388	pulse	0	t		46.0	2.5	/experiments/knapen_AOT/AOT_stimuli/rescaled_final/2056_rv.mp4	0.0	239.32961297035217	
48	219.58261585235596	movie	1		242	46.0	2.5	/experiments/knapen_AOT/AOT_stimuli/rescaled_final/2056_rv.mp4	0.0	240.14621686935425	2.500581979751587
48	220.3589699268341	pulse	1	t		46.0	2.5	/experiments/knapen_AOT/AOT_stimuli/rescaled_final/2056_rv.mp4	0.0	240.9225709438324	
48	221.96780490875244	pulse	1	t		46.0	2.5	/experiments/knapen_AOT/AOT_stimuli/rescaled_final/2056_rv.mp4	0.0	242.53140592575073	
48	222.08319783210754	fix_post	2		12	46.0	2.5	/experiments/knapen_AOT/AOT_stimuli/rescaled_final/2056_rv.mp4	0.0	242.64679884910583	0.09983015060424805
49	222.1830279827118	fix_pre	0		120	47.0	2.5	/experiments/knapen_AOT/AOT_stimuli/rescaled_final/0437_fw.mp4	0.0	242.74662899971008	1.0000998973846436
49	223.18312788009644	movie	1		241	47.0	2.5	/experiments/knapen_AOT/AOT_stimuli/rescaled_final/0437_fw.mp4	0.0	243.74672889709473	2.492197036743164
49	223.5672788619995	pulse	1	t		47.0	2.5	/experiments/knapen_AOT/AOT_stimuli/rescaled_final/0437_fw.mp4	0.0	244.1308798789978	
49	225.15963888168335	pulse	1	t		47.0	2.5	/experiments/knapen_AOT/AOT_stimuli/rescaled_final/0437_fw.mp4	0.0	245.72323989868164	
49	225.6753249168396	fix_post	2		12	47.0	2.5	/experiments/knapen_AOT/AOT_stimuli/rescaled_final/0437_fw.mp4	0.0	246.2389259338379	0.09991002082824707
50	225.77523493766785	fix_pre	0		120	48.0	2.5	/experiments/knapen_AOT/AOT_stimuli/rescaled_final/1711_fw.mp4	0.0	246.33883595466614	1.0000889301300049
50	226.7596788406372	pulse	0	t		48.0	2.5	/experiments/knapen_AOT/AOT_stimuli/rescaled_final/1711_fw.mp4	0.0	247.3232798576355	
50	226.77532386779785	movie	1		244	48.0	2.5	/experiments/knapen_AOT/AOT_stimuli/rescaled_final/1711_fw.mp4	0.0	247.33892488479614	2.5087931156158447
50	228.3591148853302	pulse	1	t		48.0	2.5	/experiments/knapen_AOT/AOT_stimuli/rescaled_final/1711_fw.mp4	0.0	248.9227159023285	
50	229.2841169834137	fix_post	2		12	48.0	2.5	/experiments/knapen_AOT/AOT_stimuli/rescaled_final/1711_fw.mp4	0.0	249.847718000412	0.09995293617248535
51	229.38406991958618	fix_pre	0		120	49.0	2.5	blank	1.0	249.94767093658447	1.0001718997955322
51	229.95927381515503	pulse	0	t		49.0	2.5	blank	1.0	250.52287483215332	
51	230.3842418193817	movie	1		300	49.0	2.5	blank	1.0	250.94784283638	2.5004022121429443
51	231.55957698822021	pulse	1	t		49.0	2.5	blank	1.0	252.1231780052185	
51	232.88464403152466	fix_post	2		12	49.0	2.5	blank	1.0	253.44824504852295	0.09999489784240723
52	232.98463892936707	fix_pre	0		120	50.0	2.5	/experiments/knapen_AOT/AOT_stimuli/rescaled_final/1785_fw.mp4	0.0	253.54823994636536	1.0001399517059326
52	233.15984797477722	pulse	0	t		50.0	2.5	/experiments/knapen_AOT/AOT_stimuli/rescaled_final/1785_fw.mp4	0.0	253.7234489917755	
52	233.984778881073	movie	1		242	50.0	2.5	/experiments/knapen_AOT/AOT_stimuli/rescaled_final/1785_fw.mp4	0.0	254.5483798980713	2.500446081161499
52	234.76008892059326	pulse	1	t		50.0	2.5	/experiments/knapen_AOT/AOT_stimuli/rescaled_final/1785_fw.mp4	0.0	255.32368993759155	
52	236.36030197143555	pulse	1	t		50.0	2.5	/experiments/knapen_AOT/AOT_stimuli/rescaled_final/1785_fw.mp4	0.0	256.92390298843384	
52	236.4852249622345	fix_post	2		12	50.0	2.5	/experiments/knapen_AOT/AOT_stimuli/rescaled_final/1785_fw.mp4	0.0	257.0488259792328	0.0999598503112793
53	236.58518481254578	fix_pre	0		119	51.0	2.5	/experiments/knapen_AOT/AOT_stimuli/rescaled_final/0677_fw.mp4	0.0	257.14878582954407	0.9917581081390381
53	237.57694292068481	movie	1		242	51.0	2.5	/experiments/knapen_AOT/AOT_stimuli/rescaled_final/0677_fw.mp4	0.0	258.1405439376831	2.5152180194854736
53	237.96174383163452	pulse	1	t		51.0	2.5	/experiments/knapen_AOT/AOT_stimuli/rescaled_final/0677_fw.mp4	0.0	258.5253448486328	
53	239.56083989143372	pulse	1	t		51.0	2.5	/experiments/knapen_AOT/AOT_stimuli/rescaled_final/0677_fw.mp4	0.0	260.124440908432	
53	240.0921609401703	fix_post	2		9	51.0	2.5	/experiments/knapen_AOT/AOT_stimuli/rescaled_final/0677_fw.mp4	0.0	260.6557619571686	0.08518409729003906
54	240.17734503746033	fix_pre	0		119	52.0	2.5	/experiments/knapen_AOT/AOT_stimuli/rescaled_final/1090_rv.mp4	0.0	260.7409460544586	0.9918069839477539
54	241.16110181808472	pulse	0	t		52.0	2.5	/experiments/knapen_AOT/AOT_stimuli/rescaled_final/1090_rv.mp4	0.0	261.724702835083	
54	241.16915202140808	movie	1		244	52.0	2.5	/experiments/knapen_AOT/AOT_stimuli/rescaled_final/1090_rv.mp4	0.0	261.7327530384064	2.508759021759033
54	242.76181602478027	pulse	1	t		52.0	2.5	/experiments/knapen_AOT/AOT_stimuli/rescaled_final/1090_rv.mp4	0.0	263.32541704177856	
54	243.67791104316711	fix_post	2		12	52.0	2.5	/experiments/knapen_AOT/AOT_stimuli/rescaled_final/1090_rv.mp4	0.0	264.2415120601654	0.10000181198120117
55	243.77791285514832	fix_pre	0		120	53.0	2.5	/experiments/knapen_AOT/AOT_stimuli/rescaled_final/1132_rv.mp4	0.0	264.3415138721466	1.0001301765441895
55	244.3614959716797	pulse	0	t		53.0	2.5	/experiments/knapen_AOT/AOT_stimuli/rescaled_final/1132_rv.mp4	0.0	264.925096988678	
55	244.7780430316925	movie	1		243	53.0	2.5	/experiments/knapen_AOT/AOT_stimuli/rescaled_final/1132_rv.mp4	0.0	265.3416440486908	2.500515937805176
55	245.96182203292847	pulse	1	t		53.0	2.5	/experiments/knapen_AOT/AOT_stimuli/rescaled_final/1132_rv.mp4	0.0	266.52542304992676	
55	247.27855896949768	fix_post	2		12	53.0	2.5	/experiments/knapen_AOT/AOT_stimuli/rescaled_final/1132_rv.mp4	0.0	267.842159986496	0.09987187385559082
56	247.37843084335327	fix_pre	0		120	54.0	2.5	/experiments/knapen_AOT/AOT_stimuli/rescaled_final/0478_fw.mp4	0.0	267.94203186035156	1.000110149383545
56	247.56205296516418	pulse	0	t		54.0	2.5	/experiments/knapen_AOT/AOT_stimuli/rescaled_final/0478_fw.mp4	0.0	268.1256539821625	
56	248.37854099273682	movie	1		243	54.0	2.5	/experiments/knapen_AOT/AOT_stimuli/rescaled_final/0478_fw.mp4	0.0	268.9421420097351	2.5005438327789307
56	249.1623659133911	pulse	1	t		54.0	2.5	/experiments/knapen_AOT/AOT_stimuli/rescaled_final/0478_fw.mp4	0.0	269.7259669303894	
56	250.76225996017456	pulse	1	t		54.0	2.5	/experiments/knapen_AOT/AOT_stimuli/rescaled_final/0478_fw.mp4	0.0	271.32586097717285	
56	250.87908482551575	fix_post	2		12	54.0	2.5	/experiments/knapen_AOT/AOT_stimuli/rescaled_final/0478_fw.mp4	0.0	271.44268584251404	0.09986400604248047
57	250.97894883155823	fix_pre	0		120	55.0	2.5	blank	1.0	271.5425498485565	1.0002222061157227
57	251.97917103767395	movie	1		299	55.0	2.5	blank	1.0	272.54277205467224	2.4919729232788086
57	252.36275601387024	pulse	1	t		55.0	2.5	blank	1.0	272.92635703086853	
57	253.96298503875732	pulse	1	t		55.0	2.5	blank	1.0	274.5265860557556	
57	254.47114396095276	fix_post	2		12	55.0	2.5	blank	1.0	275.03474497795105	0.10003900527954102
58	254.5711829662323	fix_pre	0		120	56.0	2.5	/experiments/knapen_AOT/AOT_stimuli/rescaled_final/1133_rv.mp4	0.0	275.1347839832306	1.0001189708709717
58	255.56319499015808	pulse	0	t		56.0	2.5	/experiments/knapen_AOT/AOT_stimuli/rescaled_final/1133_rv.mp4	0.0	276.1267960071564	
58	255.57130193710327	movie	1		244	56.0	2.5	/experiments/knapen_AOT/AOT_stimuli/rescaled_final/1133_rv.mp4	0.0	276.13490295410156	2.508769989013672
58	257.1641969680786	pulse	1	t		56.0	2.5	/experiments/knapen_AOT/AOT_stimuli/rescaled_final/1133_rv.mp4	0.0	277.7277979850769	
58	258.08007192611694	fix_post	2		12	56.0	2.5	/experiments/knapen_AOT/AOT_stimuli/rescaled_final/1133_rv.mp4	0.0	278.64367294311523	0.09997010231018066
59	258.1800420284271	fix_pre	0		120	57.0	2.5	/experiments/knapen_AOT/AOT_stimuli/rescaled_final/1132_fw.mp4	0.0	278.7436430454254	1.0001518726348877
59	258.7636938095093	pulse	0	t		57.0	2.5	/experiments/knapen_AOT/AOT_stimuli/rescaled_final/1132_fw.mp4	0.0	279.32729482650757	
59	259.180193901062	movie	1		243	57.0	2.5	/experiments/knapen_AOT/AOT_stimuli/rescaled_final/1132_fw.mp4	0.0	279.7437949180603	2.500458002090454
59	260.3639829158783	pulse	1	t		57.0	2.5	/experiments/knapen_AOT/AOT_stimuli/rescaled_final/1132_fw.mp4	0.0	280.9275839328766	
59	261.68065190315247	fix_post	2		12	57.0	2.5	/experiments/knapen_AOT/AOT_stimuli/rescaled_final/1132_fw.mp4	0.0	282.24425292015076	0.09996294975280762
60	261.7806148529053	fix_pre	0		120	58.0	2.5	/experiments/knapen_AOT/AOT_stimuli/rescaled_final/1153_rv.mp4	0.0	282.34421586990356	1.0001351833343506
60	261.9641900062561	pulse	0	t		58.0	2.5	/experiments/knapen_AOT/AOT_stimuli/rescaled_final/1153_rv.mp4	0.0	282.5277910232544	
60	262.7807500362396	movie	1		243	58.0	2.5	/experiments/knapen_AOT/AOT_stimuli/rescaled_final/1153_rv.mp4	0.0	283.3443510532379	2.5004959106445312
60	263.56438183784485	pulse	1	t		58.0	2.5	/experiments/knapen_AOT/AOT_stimuli/rescaled_final/1153_rv.mp4	0.0	284.12798285484314	
60	265.1643350124359	pulse	1	t		58.0	2.5	/experiments/knapen_AOT/AOT_stimuli/rescaled_final/1153_rv.mp4	0.0	285.7279360294342	
60	265.28124594688416	fix_post	2		12	58.0	2.5	/experiments/knapen_AOT/AOT_stimuli/rescaled_final/1153_rv.mp4	0.0	285.84484696388245	0.09987902641296387
61	265.3811249732971	fix_pre	0		120	59.0	2.5	/experiments/knapen_AOT/AOT_stimuli/rescaled_final/0834_fw.mp4	0.0	285.9447259902954	1.0001139640808105
61	266.38123893737793	movie	1		242	59.0	2.5	/experiments/knapen_AOT/AOT_stimuli/rescaled_final/0834_fw.mp4	0.0	286.9448399543762	2.4920709133148193
61	266.7652099132538	pulse	1	t		59.0	2.5	/experiments/knapen_AOT/AOT_stimuli/rescaled_final/0834_fw.mp4	0.0	287.3288109302521	
61	268.3652069568634	pulse	1	t		59.0	2.5	/experiments/knapen_AOT/AOT_stimuli/rescaled_final/0834_fw.mp4	0.0	288.9288079738617	
61	268.87330985069275	fix_post	2		12	59.0	2.5	/experiments/knapen_AOT/AOT_stimuli/rescaled_final/0834_fw.mp4	0.0	289.43691086769104	0.0999910831451416
62	268.9733009338379	fix_pre	0		120	60.0	2.5	/experiments/knapen_AOT/AOT_stimuli/rescaled_final/1963_rv.mp4	0.0	289.5369019508362	1.0001630783081055
62	269.965292930603	pulse	0	t		60.0	2.5	/experiments/knapen_AOT/AOT_stimuli/rescaled_final/1963_rv.mp4	0.0	290.5288939476013	
62	269.973464012146	movie	1		244	60.0	2.5	/experiments/knapen_AOT/AOT_stimuli/rescaled_final/1963_rv.mp4	0.0	290.5370650291443	2.508749008178711
62	271.5696189403534	pulse	1	t		60.0	2.5	/experiments/knapen_AOT/AOT_stimuli/rescaled_final/1963_rv.mp4	0.0	292.1332199573517	
62	272.4822130203247	fix_post	2		12	60.0	2.5	/experiments/knapen_AOT/AOT_stimuli/rescaled_final/1963_rv.mp4	0.0	293.045814037323	0.0999598503112793
63	272.582172870636	fix_pre	0		120	61.0	2.5	/experiments/knapen_AOT/AOT_stimuli/rescaled_final/0871_rv.mp4	0.0	293.1457738876343	1.0001399517059326
63	273.1659359931946	pulse	0	t		61.0	2.5	/experiments/knapen_AOT/AOT_stimuli/rescaled_final/0871_rv.mp4	0.0	293.72953701019287	
63	273.5823128223419	movie	1		243	61.0	2.5	/experiments/knapen_AOT/AOT_stimuli/rescaled_final/0871_rv.mp4	0.0	294.1459138393402	2.500446081161499
63	274.76623702049255	pulse	1	t		61.0	2.5	/experiments/knapen_AOT/AOT_stimuli/rescaled_final/0871_rv.mp4	0.0	295.32983803749084	
63	276.0827589035034	fix_post	2		12	61.0	2.5	/experiments/knapen_AOT/AOT_stimuli/rescaled_final/0871_rv.mp4	0.0	296.6463599205017	0.09999799728393555
64	276.18275690078735	fix_pre	0		120	62.0	2.5	blank	1.0	296.74635791778564	1.0001959800720215
64	276.3588500022888	pulse	0	t		62.0	2.5	blank	1.0	296.9224510192871	
64	277.1829528808594	movie	1		300	62.0	2.5	blank	1.0	297.74655389785767	2.50028395652771
64	277.9590139389038	pulse	1	t		62.0	2.5	blank	1.0	298.5226149559021	
64	279.5591650009155	pulse	1	t		62.0	2.5	blank	1.0	300.1227660179138	
64	279.6832368373871	fix_post	2		12	62.0	2.5	blank	1.0	300.2468378543854	0.1000070571899414
65	279.783243894577	fix_pre	0		120	63.0	2.5	/experiments/knapen_AOT/AOT_stimuli/rescaled_final/1090_fw.mp4	0.0	300.3468449115753	1.000175952911377
65	280.7834198474884	movie	1		242	63.0	2.5	/experiments/knapen_AOT/AOT_stimuli/rescaled_final/1090_fw.mp4	0.0	301.3470208644867	2.492058038711548
65	281.15870690345764	pulse	1	t		63.0	2.5	/experiments/knapen_AOT/AOT_stimuli/rescaled_final/1090_fw.mp4	0.0	301.72230792045593	
65	282.75899481773376	pulse	1	t		63.0	2.5	/experiments/knapen_AOT/AOT_stimuli/rescaled_final/1090_fw.mp4	0.0	303.32259583473206	
65	283.27547788619995	fix_post	2		12	63.0	2.5	/experiments/knapen_AOT/AOT_stimuli/rescaled_final/1090_fw.mp4	0.0	303.83907890319824	0.09998011589050293
66	283.37545800209045	fix_pre	0		119	64.0	2.5	/experiments/knapen_AOT/AOT_stimuli/rescaled_final/0947_fw.mp4	0.0	303.93905901908875	0.991804838180542
66	284.3591208457947	pulse	0	t		64.0	2.5	/experiments/knapen_AOT/AOT_stimuli/rescaled_final/0947_fw.mp4	0.0	304.92272186279297	
66	284.367262840271	movie	1		244	64.0	2.5	/experiments/knapen_AOT/AOT_stimuli/rescaled_final/0947_fw.mp4	0.0	304.9308638572693	2.5087971687316895
66	285.9597909450531	pulse	1	t		64.0	2.5	/experiments/knapen_AOT/AOT_stimuli/rescaled_final/0947_fw.mp4	0.0	306.5233919620514	
66	286.8760600090027	fix_post	2		12	64.0	2.5	/experiments/knapen_AOT/AOT_stimuli/rescaled_final/0947_fw.mp4	0.0	307.439661026001	0.1000058650970459
67	286.97606587409973	fix_pre	0		120	65.0	2.5	/experiments/knapen_AOT/AOT_stimuli/rescaled_final/1751_fw.mp4	0.0	307.539666891098	1.0001170635223389
67	287.5595610141754	pulse	0	t		65.0	2.5	/experiments/knapen_AOT/AOT_stimuli/rescaled_final/1751_fw.mp4	0.0	308.1231620311737	
67	287.97618293762207	movie	1		243	65.0	2.5	/experiments/knapen_AOT/AOT_stimuli/rescaled_final/1751_fw.mp4	0.0	308.53978395462036	2.500427007675171
67	289.1600158214569	pulse	1	t		65.0	2.5	/experiments/knapen_AOT/AOT_stimuli/rescaled_final/1751_fw.mp4	0.0	309.7236168384552	
67	290.47660994529724	fix_post	2		12	65.0	2.5	/experiments/knapen_AOT/AOT_stimuli/rescaled_final/1751_fw.mp4	0.0	311.04021096229553	0.09998393058776855
68	290.576593875885	fix_pre	0		120	66.0	2.5	/experiments/knapen_AOT/AOT_stimuli/rescaled_final/1402_rv.mp4	0.0	311.1401948928833	1.000157117843628
68	290.76013803482056	pulse	0	t		66.0	2.5	/experiments/knapen_AOT/AOT_stimuli/rescaled_final/1402_rv.mp4	0.0	311.32373905181885	
68	291.57675099372864	movie	1		242	66.0	2.5	/experiments/knapen_AOT/AOT_stimuli/rescaled_final/1402_rv.mp4	0.0	312.14035201072693	2.500455856323242
68	292.36031794548035	pulse	1	t		66.0	2.5	/experiments/knapen_AOT/AOT_stimuli/rescaled_final/1402_rv.mp4	0.0	312.92391896247864	
68	293.96054792404175	pulse	1	t		66.0	2.5	/experiments/knapen_AOT/AOT_stimuli/rescaled_final/1402_rv.mp4	0.0	314.52414894104004	
68	294.0772068500519	fix_post	2		12	66.0	2.5	/experiments/knapen_AOT/AOT_stimuli/rescaled_final/1402_rv.mp4	0.0	314.64080786705017	0.09989118576049805
69	294.1770980358124	fix_pre	0		120	67.0	2.5	/experiments/knapen_AOT/AOT_stimuli/rescaled_final/1280_fw.mp4	0.0	314.74069905281067	1.0001177787780762
69	295.17721581459045	movie	1		242	67.0	2.5	/experiments/knapen_AOT/AOT_stimuli/rescaled_final/1280_fw.mp4	0.0	315.74081683158875	2.492136001586914
69	295.5613009929657	pulse	1	t		67.0	2.5	/experiments/knapen_AOT/AOT_stimuli/rescaled_final/1280_fw.mp4	0.0	316.124902009964	
69	297.16117882728577	pulse	1	t		67.0	2.5	/experiments/knapen_AOT/AOT_stimuli/rescaled_final/1280_fw.mp4	0.0	317.72477984428406	
69	297.66935181617737	fix_post	2		12	67.0	2.5	/experiments/knapen_AOT/AOT_stimuli/rescaled_final/1280_fw.mp4	0.0	318.23295283317566	0.09993100166320801
70	297.7692828178406	fix_pre	0		120	68.0	2.5	blank	1.0	318.33288383483887	1.000136137008667
70	298.76131987571716	pulse	0	t		68.0	2.5	blank	1.0	319.32492089271545	
70	298.76941895484924	movie	1		301	68.0	2.5	blank	1.0	319.33301997184753	2.5087459087371826
70	300.3614909648895	pulse	1	t		68.0	2.5	blank	1.0	320.9250919818878	
70	301.2781648635864	fix_post	2		12	68.0	2.5	blank	1.0	321.8417658805847	0.10002398490905762
71	301.3781888484955	fix_pre	0		117	69.0	2.5	/experiments/knapen_AOT/AOT_stimuli/rescaled_final/0765_fw.mp4	0.0	321.9417898654938	1.0001320838928223
71	301.96172404289246	pulse	0	t		69.0	2.5	/experiments/knapen_AOT/AOT_stimuli/rescaled_final/0765_fw.mp4	0.0	322.52532505989075	
71	302.3783209323883	movie	1		245	69.0	2.5	/experiments/knapen_AOT/AOT_stimuli/rescaled_final/0765_fw.mp4	0.0	322.9419219493866	2.5003769397735596
71	303.56209993362427	pulse	1	t		69.0	2.5	/experiments/knapen_AOT/AOT_stimuli/rescaled_final/0765_fw.mp4	0.0	324.12570095062256	
71	304.87869787216187	fix_post	2		12	69.0	2.5	/experiments/knapen_AOT/AOT_stimuli/rescaled_final/0765_fw.mp4	0.0	325.44229888916016	0.10002708435058594
72	304.97872495651245	fix_pre	0		120	70.0	2.5	/experiments/knapen_AOT/AOT_stimuli/rescaled_final/2093_rv.mp4	0.0	325.54232597351074	1.000128984451294
72	305.16234493255615	pulse	0	t		70.0	2.5	/experiments/knapen_AOT/AOT_stimuli/rescaled_final/2093_rv.mp4	0.0	325.72594594955444	
72	305.97885394096375	movie	1		242	70.0	2.5	/experiments/knapen_AOT/AOT_stimuli/rescaled_final/2093_rv.mp4	0.0	326.54245495796204	2.5004589557647705
72	306.7625148296356	pulse	1	t		70.0	2.5	/experiments/knapen_AOT/AOT_stimuli/rescaled_final/2093_rv.mp4	0.0	327.3261158466339	
72	308.36283802986145	pulse	1	t		70.0	2.5	/experiments/knapen_AOT/AOT_stimuli/rescaled_final/2093_rv.mp4	0.0	328.92643904685974	
72	308.4793128967285	fix_post	2		12	70.0	2.5	/experiments/knapen_AOT/AOT_stimuli/rescaled_final/2093_rv.mp4	0.0	329.0429139137268	0.0998990535736084
73	308.5792119503021	fix_pre	0		120	71.0	2.5	/experiments/knapen_AOT/AOT_stimuli/rescaled_final/1749_fw.mp4	0.0	329.1428129673004	1.0001509189605713
73	309.5793628692627	movie	1		241	71.0	2.5	/experiments/knapen_AOT/AOT_stimuli/rescaled_final/1749_fw.mp4	0.0	330.142963886261	2.492100954055786
73	309.9634299278259	pulse	1	t		71.0	2.5	/experiments/knapen_AOT/AOT_stimuli/rescaled_final/1749_fw.mp4	0.0	330.5270309448242	
73	311.5633318424225	pulse	1	t		71.0	2.5	/experiments/knapen_AOT/AOT_stimuli/rescaled_final/1749_fw.mp4	0.0	332.1269328594208	
73	312.0714638233185	fix_post	2		12	71.0	2.5	/experiments/knapen_AOT/AOT_stimuli/rescaled_final/1749_fw.mp4	0.0	332.6350648403168	0.09996700286865234
74	312.17143082618713	fix_pre	0		120	72.0	2.5	/experiments/knapen_AOT/AOT_stimuli/rescaled_final/0776_rv.mp4	0.0	332.7350318431854	1.0001461505889893
74	313.16341495513916	pulse	0	t		72.0	2.5	/experiments/knapen_AOT/AOT_stimuli/rescaled_final/0776_rv.mp4	0.0	333.72701597213745	
74	313.1715769767761	movie	1		244	72.0	2.5	/experiments/knapen_AOT/AOT_stimuli/rescaled_final/0776_rv.mp4	0.0	333.7351779937744	2.5087358951568604
74	314.76444387435913	pulse	1	t		72.0	2.5	/experiments/knapen_AOT/AOT_stimuli/rescaled_final/0776_rv.mp4	0.0	335.3280448913574	
74	315.680312871933	fix_post	2		12	72.0	2.5	/experiments/knapen_AOT/AOT_stimuli/rescaled_final/0776_rv.mp4	0.0	336.2439138889313	0.09998512268066406
75	315.78029799461365	fix_pre	0		120	73.0	2.5	/experiments/knapen_AOT/AOT_stimuli/rescaled_final/0394_rv.mp4	0.0	336.34389901161194	1.0001490116119385
75	316.3639359474182	pulse	0	t		73.0	2.5	/experiments/knapen_AOT/AOT_stimuli/rescaled_final/0394_rv.mp4	0.0	336.9275369644165	
75	316.7804470062256	movie	1		242	73.0	2.5	/experiments/knapen_AOT/AOT_stimuli/rescaled_final/0394_rv.mp4	0.0	337.3440480232239	2.500476837158203
75	317.96433901786804	pulse	1	t		73.0	2.5	/experiments/knapen_AOT/AOT_stimuli/rescaled_final/0394_rv.mp4	0.0	338.52794003486633	
75	319.2809238433838	fix_post	2		12	73.0	2.5	/experiments/knapen_AOT/AOT_stimuli/rescaled_final/0394_rv.mp4	0.0	339.8445248603821	0.09992098808288574
76	319.3808448314667	fix_pre	0		120	74.0	2.5	/experiments/knapen_AOT/AOT_stimuli/rescaled_final/0186_fw.mp4	0.0	339.94444584846497	1.0002031326293945
76	319.56447887420654	pulse	0	t		74.0	2.5	/experiments/knapen_AOT/AOT_stimuli/rescaled_final/0186_fw.mp4	0.0	340.12807989120483	
76	320.38104796409607	movie	1		243	74.0	2.5	/experiments/knapen_AOT/AOT_stimuli/rescaled_final/0186_fw.mp4	0.0	340.94464898109436	2.5003468990325928
76	321.16461992263794	pulse	1	t		74.0	2.5	/experiments/knapen_AOT/AOT_stimuli/rescaled_final/0186_fw.mp4	0.0	341.72822093963623	
76	322.76493787765503	pulse	1	t		74.0	2.5	/experiments/knapen_AOT/AOT_stimuli/rescaled_final/0186_fw.mp4	0.0	343.3285388946533	
76	322.88139486312866	fix_post	2		12	74.0	2.5	/experiments/knapen_AOT/AOT_stimuli/rescaled_final/0186_fw.mp4	0.0	343.44499588012695	0.09997200965881348
77	322.9813668727875	fix_pre	0		120	75.0	2.5	/experiments/knapen_AOT/AOT_stimuli/rescaled_final/1258_fw.mp4	0.0	343.54496788978577	1.0002000331878662
77	323.98156690597534	movie	1		242	75.0	2.5	/experiments/knapen_AOT/AOT_stimuli/rescaled_final/1258_fw.mp4	0.0	344.54516792297363	2.4920690059661865
77	324.3663728237152	pulse	1	t		75.0	2.5	/experiments/knapen_AOT/AOT_stimuli/rescaled_final/1258_fw.mp4	0.0	344.9299738407135	
77	325.9654040336609	pulse	1	t		75.0	2.5	/experiments/knapen_AOT/AOT_stimuli/rescaled_final/1258_fw.mp4	0.0	346.5290050506592	
77	326.4736359119415	fix_post	2		12	75.0	2.5	/experiments/knapen_AOT/AOT_stimuli/rescaled_final/1258_fw.mp4	0.0	347.0372369289398	0.09998106956481934
78	326.57361698150635	fix_pre	0		120	76.0	2.5	blank	1.0	347.13721799850464	1.0001130104064941
78	327.5655310153961	pulse	0	t		76.0	2.5	blank	1.0	348.1291320323944	
78	327.57372999191284	movie	1		301	76.0	2.5	blank	1.0	348.13733100891113	2.5087568759918213
78	329.1658899784088	pulse	1	t		76.0	2.5	blank	1.0	349.7294909954071	
78	330.08248686790466	fix_post	2		12	76.0	2.5	blank	1.0	350.64608788490295	0.09997296333312988
79	330.1824598312378	fix_pre	0		120	77.0	2.5	/experiments/knapen_AOT/AOT_stimuli/rescaled_final/1499_fw.mp4	0.0	350.7460608482361	1.0001790523529053
79	330.7585458755493	pulse	0	t		77.0	2.5	/experiments/knapen_AOT/AOT_stimuli/rescaled_final/1499_fw.mp4	0.0	351.3221468925476	
79	331.1826388835907	movie	1		243	77.0	2.5	/experiments/knapen_AOT/AOT_stimuli/rescaled_final/1499_fw.mp4	0.0	351.746239900589	2.5003490447998047
79	332.3592019081116	pulse	1	t		77.0	2.5	/experiments/knapen_AOT/AOT_stimuli/rescaled_final/1499_fw.mp4	0.0	352.92280292510986	
79	333.6829879283905	fix_post	2		12	77.0	2.5	/experiments/knapen_AOT/AOT_stimuli/rescaled_final/1499_fw.mp4	0.0	354.2465889453888	0.10000896453857422
80	333.7829968929291	fix_pre	0		120	78.0	2.5	/experiments/knapen_AOT/AOT_stimuli/rescaled_final/2093_rv.mp4	0.0	354.34659790992737	1.000136137008667
80	333.9584000110626	pulse	0	t		78.0	2.5	/experiments/knapen_AOT/AOT_stimuli/rescaled_final/2093_rv.mp4	0.0	354.5220010280609	
80	334.78313302993774	movie	1		242	78.0	2.5	/experiments/knapen_AOT/AOT_stimuli/rescaled_final/2093_rv.mp4	0.0	355.34673404693604	2.5004308223724365
80	335.55839800834656	pulse	1	t		78.0	2.5	/experiments/knapen_AOT/AOT_stimuli/rescaled_final/2093_rv.mp4	0.0	356.12199902534485	
80	337.1585919857025	pulse	1	t		78.0	2.5	/experiments/knapen_AOT/AOT_stimuli/rescaled_final/2093_rv.mp4	0.0	357.7221930027008	
80	337.2835638523102	fix_post	2		12	78.0	2.5	/experiments/knapen_AOT/AOT_stimuli/rescaled_final/2093_rv.mp4	0.0	357.8471648693085	0.10003995895385742
81	337.38360381126404	fix_pre	0		120	79.0	2.5	/experiments/knapen_AOT/AOT_stimuli/rescaled_final/1934_rv.mp4	0.0	357.94720482826233	1.0000920295715332
81	338.38369584083557	movie	1		241	79.0	2.5	/experiments/knapen_AOT/AOT_stimuli/rescaled_final/1934_rv.mp4	0.0	358.94729685783386	2.492112159729004
81	338.7589519023895	pulse	1	t		79.0	2.5	/experiments/knapen_AOT/AOT_stimuli/rescaled_final/1934_rv.mp4	0.0	359.3225529193878	
81	340.3592689037323	pulse	1	t		79.0	2.5	/experiments/knapen_AOT/AOT_stimuli/rescaled_final/1934_rv.mp4	0.0	360.9228699207306	
81	340.8758080005646	fix_post	2		12	79.0	2.5	/experiments/knapen_AOT/AOT_stimuli/rescaled_final/1934_rv.mp4	0.0	361.43940901756287	0.09998083114624023
82	340.9757888317108	fix_pre	0		119	80.0	2.5	/experiments/knapen_AOT/AOT_stimuli/rescaled_final/1922_fw.mp4	0.0	361.5393898487091	0.9917540550231934
82	341.9593379497528	pulse	0	t		80.0	2.5	/experiments/knapen_AOT/AOT_stimuli/rescaled_final/1922_fw.mp4	0.0	362.5229389667511	
82	341.967542886734	movie	1		243	80.0	2.5	/experiments/knapen_AOT/AOT_stimuli/rescaled_final/1922_fw.mp4	0.0	362.5311439037323	2.508700132369995
82	343.56069588661194	pulse	1	t		80.0	2.5	/experiments/knapen_AOT/AOT_stimuli/rescaled_final/1922_fw.mp4	0.0	364.12429690361023	
82	344.476243019104	fix_post	2		12	80.0	2.5	/experiments/knapen_AOT/AOT_stimuli/rescaled_final/1922_fw.mp4	0.0	365.0398440361023	0.10001492500305176
83	344.57625794410706	fix_pre	0		120	81.0	2.5	/experiments/knapen_AOT/AOT_stimuli/rescaled_final/0283_fw.mp4	0.0	365.13985896110535	1.000204086303711
83	345.15985083580017	pulse	0	t		81.0	2.5	/experiments/knapen_AOT/AOT_stimuli/rescaled_final/0283_fw.mp4	0.0	365.72345185279846	
83	345.57646203041077	movie	1		243	81.0	2.5	/experiments/knapen_AOT/AOT_stimuli/rescaled_final/0283_fw.mp4	0.0	366.14006304740906	2.5003838539123535
83	346.7601640224457	pulse	1	t		81.0	2.5	/experiments/knapen_AOT/AOT_stimuli/rescaled_final/0283_fw.mp4	0.0	367.32376503944397	
83	348.0768458843231	fix_post	2		12	81.0	2.5	/experiments/knapen_AOT/AOT_stimuli/rescaled_final/0283_fw.mp4	0.0	368.6404469013214	0.10000205039978027
84	348.1768479347229	fix_pre	0		120	82.0	2.5	/experiments/knapen_AOT/AOT_stimuli/rescaled_final/1751_fw.mp4	0.0	368.7404489517212	1.0001599788665771
84	348.3603160381317	pulse	0	t		82.0	2.5	/experiments/knapen_AOT/AOT_stimuli/rescaled_final/1751_fw.mp4	0.0	368.92391705513	
84	349.1770079135895	movie	1		243	82.0	2.5	/experiments/knapen_AOT/AOT_stimuli/rescaled_final/1751_fw.mp4	0.0	369.74060893058777	2.5003390312194824
84	349.9605128765106	pulse	1	t		82.0	2.5	/experiments/knapen_AOT/AOT_stimuli/rescaled_final/1751_fw.mp4	0.0	370.5241138935089	
84	351.5606279373169	pulse	1	t		82.0	2.5	/experiments/knapen_AOT/AOT_stimuli/rescaled_final/1751_fw.mp4	0.0	372.1242289543152	
84	351.67734694480896	fix_post	2		12	82.0	2.5	/experiments/knapen_AOT/AOT_stimuli/rescaled_final/1751_fw.mp4	0.0	372.24094796180725	0.10003399848937988
85	351.77738094329834	fix_pre	0		120	83.0	2.5	blank	1.0	372.34098196029663	1.0001380443572998
85	352.77751898765564	movie	1		299	83.0	2.5	blank	1.0	373.34112000465393	2.4920709133148193
85	353.1610469818115	pulse	1	t		83.0	2.5	blank	1.0	373.7246479988098	
85	354.76125597953796	pulse	1	t		83.0	2.5	blank	1.0	375.32485699653625	
85	355.26958990097046	fix_post	2		12	83.0	2.5	blank	1.0	375.83319091796875	0.10002398490905762
87	355.3696138858795	stim	0		1716					375.9332149028778	14.302164077758789
87	356.361496925354	pulse	0	t						376.9250979423523	
87	357.96173000335693	pulse	0	t						378.5253310203552	
87	359.56208181381226	pulse	0	t						380.12568283081055	
87	361.1622920036316	pulse	0	t						381.7258930206299	
87	362.7624158859253	pulse	0	t						383.3260169029236	
87	364.3627738952637	pulse	0	t						384.92637491226196	
87	365.96299481391907	pulse	0	t						386.52659583091736	
87	367.5632200241089	pulse	0	t						388.1268210411072	
87	369.1633679866791	pulse	0	t						389.72696900367737	
