trial_nr	onset	event_type	phase	response	nr_frames	movie_index	movie_duration	movie_file	blank	onset_abs	duration
0	0.21664714813232422	stim	0		27					21.289067268371582	0.22498798370361328
0	0.43364810943603516	response	0	space						21.506068229675293	
1	0.4416351318359375	stim	0		4729					21.514055252075195	39.427286863327026
1	39.853924036026	pulse	0	t						60.92634415626526	
1	39.868921995162964	stim	1		1715					60.94134211540222	14.297415971755981
1	41.44789409637451	pulse	1	t						62.52031421661377	
1	43.048174142837524	pulse	1	t						64.12059426307678	
1	44.64839005470276	pulse	1	t						65.72081017494202	
1	46.248647928237915	pulse	1	t						67.32106804847717	
1	47.848894119262695	pulse	1	t						68.92131423950195	
1	49.44909405708313	pulse	1	t						70.52151417732239	
1	51.04934597015381	pulse	1	t						72.12176609039307	
1	52.649614095687866	pulse	1	t						73.72203421592712	
2	54.166337966918945	fix_pre	0		9	0.0	2.5	/experiments/knapen_AOT/AOT_stimuli/rescaled_final/0915_fw.mp4	0.0	75.2387580871582	0.10009217262268066
2	54.24985408782959	pulse	0	t		0.0	2.5	/experiments/knapen_AOT/AOT_stimuli/rescaled_final/0915_fw.mp4	0.0	75.32227420806885	
2	54.266430139541626	movie	1		200	0.0	2.5	/experiments/knapen_AOT/AOT_stimuli/rescaled_final/0915_fw.mp4	0.0	75.33885025978088	2.508741855621338
2	55.85200810432434	pulse	1	t		0.0	2.5	/experiments/knapen_AOT/AOT_stimuli/rescaled_final/0915_fw.mp4	0.0	76.9244282245636	
2	56.775171995162964	fix_post	2		11	0.0	2.5	/experiments/knapen_AOT/AOT_stimuli/rescaled_final/0915_fw.mp4	0.0	77.84759211540222	0.09158992767333984
3	56.866761922836304	fix_pre	0		120	1.0	2.5	/experiments/knapen_AOT/AOT_stimuli/rescaled_final/1579_fw.mp4	0.0	77.93918204307556	1.000150203704834
3	57.4504029750824	pulse	0	t		1.0	2.5	/experiments/knapen_AOT/AOT_stimuli/rescaled_final/1579_fw.mp4	0.0	78.52282309532166	
3	57.86691212654114	movie	1		221	1.0	2.5	/experiments/knapen_AOT/AOT_stimuli/rescaled_final/1579_fw.mp4	0.0	78.9393322467804	2.5005719661712646
3	59.050671100616455	pulse	1	t		1.0	2.5	/experiments/knapen_AOT/AOT_stimuli/rescaled_final/1579_fw.mp4	0.0	80.12309122085571	
3	60.3674840927124	fix_post	2		12	1.0	2.5	/experiments/knapen_AOT/AOT_stimuli/rescaled_final/1579_fw.mp4	0.0	81.43990421295166	0.09984588623046875
4	60.46732997894287	fix_pre	0		120	2.0	2.5	/experiments/knapen_AOT/AOT_stimuli/rescaled_final/1323_fw.mp4	0.0	81.53975009918213	1.0000979900360107
4	60.6509211063385	pulse	0	t		2.0	2.5	/experiments/knapen_AOT/AOT_stimuli/rescaled_final/1323_fw.mp4	0.0	81.72334122657776	
4	61.46742796897888	movie	1		215	2.0	2.5	/experiments/knapen_AOT/AOT_stimuli/rescaled_final/1323_fw.mp4	0.0	82.53984808921814	2.5088651180267334
4	62.25104999542236	pulse	1	t		2.0	2.5	/experiments/knapen_AOT/AOT_stimuli/rescaled_final/1323_fw.mp4	0.0	83.32347011566162	
4	63.851118087768555	pulse	1	t		2.0	2.5	/experiments/knapen_AOT/AOT_stimuli/rescaled_final/1323_fw.mp4	0.0	84.92353820800781	
4	63.976293087005615	fix_post	2		11	2.0	2.5	/experiments/knapen_AOT/AOT_stimuli/rescaled_final/1323_fw.mp4	0.0	85.04871320724487	0.0915229320526123
5	64.06781601905823	fix_pre	0		120	3.0	2.5	/experiments/knapen_AOT/AOT_stimuli/rescaled_final/0801_fw.mp4	0.0	85.14023613929749	1.0001449584960938
5	65.06796097755432	movie	1		221	3.0	2.5	/experiments/knapen_AOT/AOT_stimuli/rescaled_final/0801_fw.mp4	0.0	86.14038109779358	2.5005979537963867
5	65.45193314552307	pulse	1	t		3.0	2.5	/experiments/knapen_AOT/AOT_stimuli/rescaled_final/0801_fw.mp4	0.0	86.52435326576233	
5	67.05195093154907	pulse	1	t		3.0	2.5	/experiments/knapen_AOT/AOT_stimuli/rescaled_final/0801_fw.mp4	0.0	88.12437105178833	
5	67.56855893135071	fix_post	2		12	3.0	2.5	/experiments/knapen_AOT/AOT_stimuli/rescaled_final/0801_fw.mp4	0.0	88.64097905158997	0.09982419013977051
6	67.66838312149048	fix_pre	0		119	4.0	2.5	/experiments/knapen_AOT/AOT_stimuli/rescaled_final/0357_rv.mp4	0.0	88.74080324172974	0.9918098449707031
6	68.65200996398926	pulse	0	t		4.0	2.5	/experiments/knapen_AOT/AOT_stimuli/rescaled_final/0357_rv.mp4	0.0	89.72443008422852	
6	68.66019296646118	movie	1		226	4.0	2.5	/experiments/knapen_AOT/AOT_stimuli/rescaled_final/0357_rv.mp4	0.0	89.73261308670044	2.508740186691284
6	70.25279712677002	pulse	1	t		4.0	2.5	/experiments/knapen_AOT/AOT_stimuli/rescaled_final/0357_rv.mp4	0.0	91.32521724700928	
6	71.16893315315247	fix_post	2		12	4.0	2.5	/experiments/knapen_AOT/AOT_stimuli/rescaled_final/0357_rv.mp4	0.0	92.24135327339172	0.09997797012329102
7	71.26891112327576	fix_pre	0		120	5.0	2.5	blank	1.0	92.34133124351501	1.0001249313354492
7	71.85251092910767	pulse	0	t		5.0	2.5	blank	1.0	92.92493104934692	
7	72.2690360546112	movie	1		300	5.0	2.5	blank	1.0	93.34145617485046	2.5003910064697266
7	73.4528751373291	pulse	1	t		5.0	2.5	blank	1.0	94.52529525756836	
7	74.76942706108093	fix_post	2		12	5.0	2.5	blank	1.0	95.84184718132019	0.10001397132873535
8	74.86944103240967	fix_pre	0		120	6.0	2.5	/experiments/knapen_AOT/AOT_stimuli/rescaled_final/1524_fw.mp4	0.0	95.94186115264893	1.000135898590088
8	75.05306792259216	pulse	0	t		6.0	2.5	/experiments/knapen_AOT/AOT_stimuli/rescaled_final/1524_fw.mp4	0.0	96.12548804283142	
8	75.86957693099976	movie	1		222	6.0	2.5	/experiments/knapen_AOT/AOT_stimuli/rescaled_final/1524_fw.mp4	0.0	96.94199705123901	2.5172832012176514
8	76.65324306488037	pulse	1	t		6.0	2.5	/experiments/knapen_AOT/AOT_stimuli/rescaled_final/1524_fw.mp4	0.0	97.72566318511963	
8	78.25332713127136	pulse	1	t		6.0	2.5	/experiments/knapen_AOT/AOT_stimuli/rescaled_final/1524_fw.mp4	0.0	99.32574725151062	
8	78.38686013221741	fix_post	2		9	6.0	2.5	/experiments/knapen_AOT/AOT_stimuli/rescaled_final/1524_fw.mp4	0.0	99.45928025245667	0.07475686073303223
9	78.46161699295044	fix_pre	0		120	7.0	2.5	/experiments/knapen_AOT/AOT_stimuli/rescaled_final/1601_fw.mp4	0.0	99.5340371131897	1.000175952911377
9	79.46179294586182	movie	1		213	7.0	2.5	/experiments/knapen_AOT/AOT_stimuli/rescaled_final/1601_fw.mp4	0.0	100.53421306610107	2.508941173553467
9	79.88824009895325	pulse	1	t		7.0	2.5	/experiments/knapen_AOT/AOT_stimuli/rescaled_final/1601_fw.mp4	0.0	100.9606602191925	
9	81.44659805297852	pulse	1	t		7.0	2.5	/experiments/knapen_AOT/AOT_stimuli/rescaled_final/1601_fw.mp4	0.0	102.51901817321777	
9	81.97073411941528	fix_post	2		11	7.0	2.5	/experiments/knapen_AOT/AOT_stimuli/rescaled_final/1601_fw.mp4	0.0	103.04315423965454	0.09145903587341309
10	82.0621931552887	fix_pre	0		120	8.0	2.5	/experiments/knapen_AOT/AOT_stimuli/rescaled_final/2137_rv.mp4	0.0	103.13461327552795	1.0002119541168213
10	83.04665303230286	pulse	0	t		8.0	2.5	/experiments/knapen_AOT/AOT_stimuli/rescaled_final/2137_rv.mp4	0.0	104.11907315254211	
10	83.06240510940552	movie	1		205	8.0	2.5	/experiments/knapen_AOT/AOT_stimuli/rescaled_final/2137_rv.mp4	0.0	104.13482522964478	2.508626937866211
10	84.65793299674988	pulse	1	t		8.0	2.5	/experiments/knapen_AOT/AOT_stimuli/rescaled_final/2137_rv.mp4	0.0	105.73035311698914	
10	85.57103204727173	fix_post	2		12	8.0	2.5	/experiments/knapen_AOT/AOT_stimuli/rescaled_final/2137_rv.mp4	0.0	106.64345216751099	0.10001802444458008
11	85.67105007171631	fix_pre	0		120	9.0	2.5	/experiments/knapen_AOT/AOT_stimuli/rescaled_final/0577_fw.mp4	0.0	106.74347019195557	1.0001418590545654
11	86.24714612960815	pulse	0	t		9.0	2.5	/experiments/knapen_AOT/AOT_stimuli/rescaled_final/0577_fw.mp4	0.0	107.31956624984741	
11	86.67119193077087	movie	1		242	9.0	2.5	/experiments/knapen_AOT/AOT_stimuli/rescaled_final/0577_fw.mp4	0.0	107.74361205101013	2.5006520748138428
11	87.84689998626709	pulse	1	t		9.0	2.5	/experiments/knapen_AOT/AOT_stimuli/rescaled_final/0577_fw.mp4	0.0	108.91932010650635	
11	89.17184400558472	fix_post	2		12	9.0	2.5	/experiments/knapen_AOT/AOT_stimuli/rescaled_final/0577_fw.mp4	0.0	110.24426412582397	0.0997171401977539
12	89.27156114578247	fix_pre	0		120	10.0	2.5	/experiments/knapen_AOT/AOT_stimuli/rescaled_final/0482_rv.mp4	0.0	110.34398126602173	1.0002248287200928
12	89.44685697555542	pulse	0	t		10.0	2.5	/experiments/knapen_AOT/AOT_stimuli/rescaled_final/0482_rv.mp4	0.0	110.51927709579468	
12	90.27178597450256	movie	1		242	10.0	2.5	/experiments/knapen_AOT/AOT_stimuli/rescaled_final/0482_rv.mp4	0.0	111.34420609474182	2.500494956970215
12	91.0469901561737	pulse	1	t		10.0	2.5	/experiments/knapen_AOT/AOT_stimuli/rescaled_final/0482_rv.mp4	0.0	112.11941027641296	
12	92.64732098579407	pulse	1	t		10.0	2.5	/experiments/knapen_AOT/AOT_stimuli/rescaled_final/0482_rv.mp4	0.0	113.71974110603333	
12	92.77228093147278	fix_post	2		12	10.0	2.5	/experiments/knapen_AOT/AOT_stimuli/rescaled_final/0482_rv.mp4	0.0	113.84470105171204	0.09984707832336426
13	92.87212800979614	fix_pre	0		119	11.0	2.5	/experiments/knapen_AOT/AOT_stimuli/rescaled_final/1896_rv.mp4	0.0	113.9445481300354	0.9918079376220703
13	93.86393594741821	movie	1		243	11.0	2.5	/experiments/knapen_AOT/AOT_stimuli/rescaled_final/1896_rv.mp4	0.0	114.93635606765747	2.500507116317749
13	94.24810695648193	pulse	1	t		11.0	2.5	/experiments/knapen_AOT/AOT_stimuli/rescaled_final/1896_rv.mp4	0.0	115.32052707672119	
13	95.84788513183594	pulse	1	t		11.0	2.5	/experiments/knapen_AOT/AOT_stimuli/rescaled_final/1896_rv.mp4	0.0	116.9203052520752	
13	96.36444306373596	fix_post	2		12	11.0	2.5	/experiments/knapen_AOT/AOT_stimuli/rescaled_final/1896_rv.mp4	0.0	117.43686318397522	0.09988188743591309
14	96.46432495117188	fix_pre	0		119	12.0	2.5	blank	1.0	117.53674507141113	0.9918780326843262
14	97.44802594184875	pulse	0	t		12.0	2.5	blank	1.0	118.52044606208801	
14	97.4562029838562	movie	1		301	12.0	2.5	blank	1.0	118.52862310409546	2.508629083633423
14	99.04816102981567	pulse	1	t		12.0	2.5	blank	1.0	120.12058115005493	
14	99.96483206748962	fix_post	2		12	12.0	2.5	blank	1.0	121.03725218772888	0.10001087188720703
15	100.06484293937683	fix_pre	0		120	13.0	2.5	/experiments/knapen_AOT/AOT_stimuli/rescaled_final/1001_rv.mp4	0.0	121.13726305961609	1.0001511573791504
15	100.64842414855957	pulse	0	t		13.0	2.5	/experiments/knapen_AOT/AOT_stimuli/rescaled_final/1001_rv.mp4	0.0	121.72084426879883	
15	101.06499409675598	movie	1		243	13.0	2.5	/experiments/knapen_AOT/AOT_stimuli/rescaled_final/1001_rv.mp4	0.0	122.13741421699524	2.5005688667297363
15	102.24888610839844	pulse	1	t		13.0	2.5	/experiments/knapen_AOT/AOT_stimuli/rescaled_final/1001_rv.mp4	0.0	123.3213062286377	
15	103.56556296348572	fix_post	2		12	13.0	2.5	/experiments/knapen_AOT/AOT_stimuli/rescaled_final/1001_rv.mp4	0.0	124.63798308372498	0.099822998046875
16	103.66538596153259	fix_pre	0		120	14.0	2.5	/experiments/knapen_AOT/AOT_stimuli/rescaled_final/2036_fw.mp4	0.0	124.73780608177185	1.0001471042633057
16	103.84904098510742	pulse	0	t		14.0	2.5	/experiments/knapen_AOT/AOT_stimuli/rescaled_final/2036_fw.mp4	0.0	124.92146110534668	
16	104.6655330657959	movie	1		244	14.0	2.5	/experiments/knapen_AOT/AOT_stimuli/rescaled_final/2036_fw.mp4	0.0	125.73795318603516	2.500380039215088
16	105.44941711425781	pulse	1	t		14.0	2.5	/experiments/knapen_AOT/AOT_stimuli/rescaled_final/2036_fw.mp4	0.0	126.52183723449707	
16	107.04922199249268	pulse	1	t		14.0	2.5	/experiments/knapen_AOT/AOT_stimuli/rescaled_final/2036_fw.mp4	0.0	128.12164211273193	
16	107.16591310501099	fix_post	2		12	14.0	2.5	/experiments/knapen_AOT/AOT_stimuli/rescaled_final/2036_fw.mp4	0.0	128.23833322525024	0.10000991821289062
17	107.26592302322388	fix_pre	0		120	15.0	2.5	/experiments/knapen_AOT/AOT_stimuli/rescaled_final/0827_rv.mp4	0.0	128.33834314346313	1.0001559257507324
17	108.26607894897461	movie	1		243	15.0	2.5	/experiments/knapen_AOT/AOT_stimuli/rescaled_final/0827_rv.mp4	0.0	129.33849906921387	2.49202299118042
17	108.65030813217163	pulse	1	t		15.0	2.5	/experiments/knapen_AOT/AOT_stimuli/rescaled_final/0827_rv.mp4	0.0	129.7227282524109	
17	110.24988102912903	pulse	1	t		15.0	2.5	/experiments/knapen_AOT/AOT_stimuli/rescaled_final/0827_rv.mp4	0.0	131.3223011493683	
17	110.75810194015503	fix_post	2		12	15.0	2.5	/experiments/knapen_AOT/AOT_stimuli/rescaled_final/0827_rv.mp4	0.0	131.8305220603943	0.10003113746643066
18	110.85813307762146	fix_pre	0		120	16.0	2.5	/experiments/knapen_AOT/AOT_stimuli/rescaled_final/0110_rv.mp4	0.0	131.93055319786072	1.0001699924468994
18	111.8501341342926	pulse	0	t		16.0	2.5	/experiments/knapen_AOT/AOT_stimuli/rescaled_final/0110_rv.mp4	0.0	132.92255425453186	
18	111.85830307006836	movie	1		243	16.0	2.5	/experiments/knapen_AOT/AOT_stimuli/rescaled_final/0110_rv.mp4	0.0	132.93072319030762	2.508737087249756
18	113.45091795921326	pulse	1	t		16.0	2.5	/experiments/knapen_AOT/AOT_stimuli/rescaled_final/0110_rv.mp4	0.0	134.52333807945251	
18	114.36704015731812	fix_post	2		12	16.0	2.5	/experiments/knapen_AOT/AOT_stimuli/rescaled_final/0110_rv.mp4	0.0	135.43946027755737	0.09998178482055664
19	114.46702194213867	fix_pre	0		120	17.0	2.5	/experiments/knapen_AOT/AOT_stimuli/rescaled_final/1601_rv.mp4	0.0	135.53944206237793	1.0001451969146729
19	115.0506489276886	pulse	0	t		17.0	2.5	/experiments/knapen_AOT/AOT_stimuli/rescaled_final/1601_rv.mp4	0.0	136.12306904792786	
19	115.46716713905334	movie	1		242	17.0	2.5	/experiments/knapen_AOT/AOT_stimuli/rescaled_final/1601_rv.mp4	0.0	136.5395872592926	2.5004990100860596
19	116.65092706680298	pulse	1	t		17.0	2.5	/experiments/knapen_AOT/AOT_stimuli/rescaled_final/1601_rv.mp4	0.0	137.72334718704224	
19	117.9676661491394	fix_post	2		12	17.0	2.5	/experiments/knapen_AOT/AOT_stimuli/rescaled_final/1601_rv.mp4	0.0	139.04008626937866	0.0998678207397461
20	118.06753396987915	fix_pre	0		120	18.0	2.5	/experiments/knapen_AOT/AOT_stimuli/rescaled_final/0550_rv.mp4	0.0	139.1399540901184	1.0001599788665771
20	118.25107192993164	pulse	0	t		18.0	2.5	/experiments/knapen_AOT/AOT_stimuli/rescaled_final/0550_rv.mp4	0.0	139.3234920501709	
20	119.06769394874573	movie	1		246	18.0	2.5	/experiments/knapen_AOT/AOT_stimuli/rescaled_final/0550_rv.mp4	0.0	140.14011406898499	2.500413179397583
20	119.85148501396179	pulse	1	t		18.0	2.5	/experiments/knapen_AOT/AOT_stimuli/rescaled_final/0550_rv.mp4	0.0	140.92390513420105	
20	121.4516589641571	pulse	1	t		18.0	2.5	/experiments/knapen_AOT/AOT_stimuli/rescaled_final/0550_rv.mp4	0.0	142.52407908439636	
20	121.56810712814331	fix_post	2		12	18.0	2.5	/experiments/knapen_AOT/AOT_stimuli/rescaled_final/0550_rv.mp4	0.0	142.64052724838257	0.09998679161071777
21	121.66809391975403	fix_pre	0		120	19.0	2.5	/experiments/knapen_AOT/AOT_stimuli/rescaled_final/0150_rv.mp4	0.0	142.7405140399933	1.000129222869873
21	122.6682231426239	movie	1		241	19.0	2.5	/experiments/knapen_AOT/AOT_stimuli/rescaled_final/0150_rv.mp4	0.0	143.74064326286316	2.4920599460601807
21	123.05253410339355	pulse	1	t		19.0	2.5	/experiments/knapen_AOT/AOT_stimuli/rescaled_final/0150_rv.mp4	0.0	144.1249542236328	
21	124.65202713012695	pulse	1	t		19.0	2.5	/experiments/knapen_AOT/AOT_stimuli/rescaled_final/0150_rv.mp4	0.0	145.7244472503662	
21	125.16028308868408	fix_post	2		12	19.0	2.5	/experiments/knapen_AOT/AOT_stimuli/rescaled_final/0150_rv.mp4	0.0	146.23270320892334	0.10004401206970215
22	125.26032710075378	fix_pre	0		120	20.0	2.5	/experiments/knapen_AOT/AOT_stimuli/rescaled_final/1413_rv.mp4	0.0	146.33274722099304	1.000154972076416
22	126.25236511230469	pulse	0	t		20.0	2.5	/experiments/knapen_AOT/AOT_stimuli/rescaled_final/1413_rv.mp4	0.0	147.32478523254395	
22	126.2604820728302	movie	1		246	20.0	2.5	/experiments/knapen_AOT/AOT_stimuli/rescaled_final/1413_rv.mp4	0.0	147.33290219306946	2.5086889266967773
22	127.85302805900574	pulse	1	t		20.0	2.5	/experiments/knapen_AOT/AOT_stimuli/rescaled_final/1413_rv.mp4	0.0	148.925448179245	
22	128.76917099952698	fix_post	2		12	20.0	2.5	/experiments/knapen_AOT/AOT_stimuli/rescaled_final/1413_rv.mp4	0.0	149.84159111976624	0.10003209114074707
23	128.86920309066772	fix_pre	0		120	21.0	2.5	blank	1.0	149.94162321090698	1.000105857849121
23	129.4528090953827	pulse	0	t		21.0	2.5	blank	1.0	150.52522921562195	
23	129.86930894851685	movie	1		300	21.0	2.5	blank	1.0	150.9417290687561	2.5003700256347656
23	131.05294704437256	pulse	1	t		21.0	2.5	blank	1.0	152.12536716461182	
23	132.3696789741516	fix_post	2		12	21.0	2.5	blank	1.0	153.44209909439087	0.10002398490905762
24	132.46970295906067	fix_pre	0		120	22.0	2.5	/experiments/knapen_AOT/AOT_stimuli/rescaled_final/1276_rv.mp4	0.0	153.54212307929993	1.0001530647277832
24	132.6533579826355	pulse	0	t		22.0	2.5	/experiments/knapen_AOT/AOT_stimuli/rescaled_final/1276_rv.mp4	0.0	153.72577810287476	
24	133.46985602378845	movie	1		244	22.0	2.5	/experiments/knapen_AOT/AOT_stimuli/rescaled_final/1276_rv.mp4	0.0	154.5422761440277	2.5003390312194824
24	134.25368404388428	pulse	1	t		22.0	2.5	/experiments/knapen_AOT/AOT_stimuli/rescaled_final/1276_rv.mp4	0.0	155.32610416412354	
24	135.85380792617798	pulse	1	t		22.0	2.5	/experiments/knapen_AOT/AOT_stimuli/rescaled_final/1276_rv.mp4	0.0	156.92622804641724	
24	135.97019505500793	fix_post	2		12	22.0	2.5	/experiments/knapen_AOT/AOT_stimuli/rescaled_final/1276_rv.mp4	0.0	157.0426151752472	0.10005307197570801
25	136.07024812698364	fix_pre	0		120	23.0	2.5	/experiments/knapen_AOT/AOT_stimuli/rescaled_final/1186_fw.mp4	0.0	157.1426682472229	1.0001599788665771
25	137.07040810585022	movie	1		242	23.0	2.5	/experiments/knapen_AOT/AOT_stimuli/rescaled_final/1186_fw.mp4	0.0	158.14282822608948	2.49200701713562
25	137.45442008972168	pulse	1	t		23.0	2.5	/experiments/knapen_AOT/AOT_stimuli/rescaled_final/1186_fw.mp4	0.0	158.52684020996094	
25	139.05418610572815	pulse	1	t		23.0	2.5	/experiments/knapen_AOT/AOT_stimuli/rescaled_final/1186_fw.mp4	0.0	160.1266062259674	
25	139.56241512298584	fix_post	2		12	23.0	2.5	/experiments/knapen_AOT/AOT_stimuli/rescaled_final/1186_fw.mp4	0.0	160.6348352432251	0.10003185272216797
26	139.662446975708	fix_pre	0		120	24.0	2.5	/experiments/knapen_AOT/AOT_stimuli/rescaled_final/0245_rv.mp4	0.0	160.73486709594727	1.0000979900360107
26	140.64782810211182	pulse	0	t		24.0	2.5	/experiments/knapen_AOT/AOT_stimuli/rescaled_final/0245_rv.mp4	0.0	161.72024822235107	
26	140.66254496574402	movie	1		242	24.0	2.5	/experiments/knapen_AOT/AOT_stimuli/rescaled_final/0245_rv.mp4	0.0	161.73496508598328	2.5088109970092773
26	142.2464039325714	pulse	1	t		24.0	2.5	/experiments/knapen_AOT/AOT_stimuli/rescaled_final/0245_rv.mp4	0.0	163.31882405281067	
26	143.1713559627533	fix_post	2		12	24.0	2.5	/experiments/knapen_AOT/AOT_stimuli/rescaled_final/0245_rv.mp4	0.0	164.24377608299255	0.09993505477905273
27	143.27129101753235	fix_pre	0		120	25.0	2.5	/experiments/knapen_AOT/AOT_stimuli/rescaled_final/2107_rv.mp4	0.0	164.3437111377716	1.0001709461212158
27	143.847510099411	pulse	0	t		25.0	2.5	/experiments/knapen_AOT/AOT_stimuli/rescaled_final/2107_rv.mp4	0.0	164.91993021965027	
27	144.27146196365356	movie	1		246	25.0	2.5	/experiments/knapen_AOT/AOT_stimuli/rescaled_final/2107_rv.mp4	0.0	165.34388208389282	2.5003600120544434
27	145.4481019973755	pulse	1	t		25.0	2.5	/experiments/knapen_AOT/AOT_stimuli/rescaled_final/2107_rv.mp4	0.0	166.52052211761475	
27	146.771821975708	fix_post	2		12	25.0	2.5	/experiments/knapen_AOT/AOT_stimuli/rescaled_final/2107_rv.mp4	0.0	167.84424209594727	0.1000070571899414
28	146.87182903289795	fix_pre	0		120	26.0	2.5	/experiments/knapen_AOT/AOT_stimuli/rescaled_final/0320_rv.mp4	0.0	167.9442491531372	1.0001909732818604
28	147.04700708389282	pulse	0	t		26.0	2.5	/experiments/knapen_AOT/AOT_stimuli/rescaled_final/0320_rv.mp4	0.0	168.11942720413208	
28	147.8720200061798	movie	1		243	26.0	2.5	/experiments/knapen_AOT/AOT_stimuli/rescaled_final/0320_rv.mp4	0.0	168.94444012641907	2.5005581378936768
28	148.64742708206177	pulse	1	t		26.0	2.5	/experiments/knapen_AOT/AOT_stimuli/rescaled_final/0320_rv.mp4	0.0	169.71984720230103	
28	150.2475941181183	pulse	1	t		26.0	2.5	/experiments/knapen_AOT/AOT_stimuli/rescaled_final/0320_rv.mp4	0.0	171.32001423835754	
28	150.3725781440735	fix_post	2		12	26.0	2.5	/experiments/knapen_AOT/AOT_stimuli/rescaled_final/0320_rv.mp4	0.0	171.44499826431274	0.0998067855834961
29	150.47238492965698	fix_pre	0		120	27.0	2.5	/experiments/knapen_AOT/AOT_stimuli/rescaled_final/1253_rv.mp4	0.0	171.54480504989624	1.0001771450042725
29	151.47256207466125	movie	1		242	27.0	2.5	/experiments/knapen_AOT/AOT_stimuli/rescaled_final/1253_rv.mp4	0.0	172.5449821949005	2.500485897064209
29	151.84793615341187	pulse	1	t		27.0	2.5	/experiments/knapen_AOT/AOT_stimuli/rescaled_final/1253_rv.mp4	0.0	172.92035627365112	
29	153.44804096221924	pulse	1	t		27.0	2.5	/experiments/knapen_AOT/AOT_stimuli/rescaled_final/1253_rv.mp4	0.0	174.5204610824585	
29	153.97304797172546	fix_post	2		12	27.0	2.5	/experiments/knapen_AOT/AOT_stimuli/rescaled_final/1253_rv.mp4	0.0	175.04546809196472	0.09987306594848633
30	154.07292103767395	fix_pre	0		118	28.0	2.5	blank	1.0	175.1453411579132	0.9835190773010254
30	155.04823994636536	pulse	0	t		28.0	2.5	blank	1.0	176.12066006660461	
30	155.05644011497498	movie	1		301	28.0	2.5	blank	1.0	176.12886023521423	2.5086798667907715
30	156.64859199523926	pulse	1	t		28.0	2.5	blank	1.0	177.72101211547852	
30	157.56511998176575	fix_post	2		12	28.0	2.5	blank	1.0	178.637540102005	0.09997200965881348
31	157.66509199142456	fix_pre	0		120	29.0	2.5	/experiments/knapen_AOT/AOT_stimuli/rescaled_final/0495_rv.mp4	0.0	178.73751211166382	1.0001399517059326
31	158.2488510608673	pulse	0	t		29.0	2.5	/experiments/knapen_AOT/AOT_stimuli/rescaled_final/0495_rv.mp4	0.0	179.32127118110657	
31	158.6652319431305	movie	1		244	29.0	2.5	/experiments/knapen_AOT/AOT_stimuli/rescaled_final/0495_rv.mp4	0.0	179.73765206336975	2.500432014465332
31	159.8490071296692	pulse	1	t		29.0	2.5	/experiments/knapen_AOT/AOT_stimuli/rescaled_final/0495_rv.mp4	0.0	180.92142724990845	
31	161.16566395759583	fix_post	2		12	29.0	2.5	/experiments/knapen_AOT/AOT_stimuli/rescaled_final/0495_rv.mp4	0.0	182.23808407783508	0.10003018379211426
32	161.26569414138794	fix_pre	0		120	30.0	2.5	/experiments/knapen_AOT/AOT_stimuli/rescaled_final/0127_rv.mp4	0.0	182.3381142616272	1.0001018047332764
32	161.44917607307434	pulse	0	t		30.0	2.5	/experiments/knapen_AOT/AOT_stimuli/rescaled_final/0127_rv.mp4	0.0	182.5215961933136	
32	162.26579594612122	movie	1		243	30.0	2.5	/experiments/knapen_AOT/AOT_stimuli/rescaled_final/0127_rv.mp4	0.0	183.33821606636047	2.500375986099243
32	163.0531361103058	pulse	1	t		30.0	2.5	/experiments/knapen_AOT/AOT_stimuli/rescaled_final/0127_rv.mp4	0.0	184.12555623054504	
32	164.64963102340698	pulse	1	t		30.0	2.5	/experiments/knapen_AOT/AOT_stimuli/rescaled_final/0127_rv.mp4	0.0	185.72205114364624	
32	164.76617193222046	fix_post	2		12	30.0	2.5	/experiments/knapen_AOT/AOT_stimuli/rescaled_final/0127_rv.mp4	0.0	185.83859205245972	0.10001420974731445
33	164.86618614196777	fix_pre	0		120	31.0	2.5	/experiments/knapen_AOT/AOT_stimuli/rescaled_final/1186_rv.mp4	0.0	185.93860626220703	1.0001788139343262
33	165.8663649559021	movie	1		242	31.0	2.5	/experiments/knapen_AOT/AOT_stimuli/rescaled_final/1186_rv.mp4	0.0	186.93878507614136	2.492072105407715
33	166.25066494941711	pulse	1	t		31.0	2.5	/experiments/knapen_AOT/AOT_stimuli/rescaled_final/1186_rv.mp4	0.0	187.32308506965637	
33	167.8501169681549	pulse	1	t		31.0	2.5	/experiments/knapen_AOT/AOT_stimuli/rescaled_final/1186_rv.mp4	0.0	188.92253708839417	
33	168.35843706130981	fix_post	2		12	31.0	2.5	/experiments/knapen_AOT/AOT_stimuli/rescaled_final/1186_rv.mp4	0.0	189.43085718154907	0.0999600887298584
34	168.45839715003967	fix_pre	0		120	32.0	2.5	/experiments/knapen_AOT/AOT_stimuli/rescaled_final/2137_fw.mp4	0.0	189.53081727027893	1.000166893005371
34	169.45042300224304	pulse	0	t		32.0	2.5	/experiments/knapen_AOT/AOT_stimuli/rescaled_final/2137_fw.mp4	0.0	190.5228431224823	
34	169.45856404304504	movie	1		245	32.0	2.5	/experiments/knapen_AOT/AOT_stimuli/rescaled_final/2137_fw.mp4	0.0	190.5309841632843	2.5087029933929443
34	171.05178213119507	pulse	1	t		32.0	2.5	/experiments/knapen_AOT/AOT_stimuli/rescaled_final/2137_fw.mp4	0.0	192.12420225143433	
34	171.967267036438	fix_post	2		12	32.0	2.5	/experiments/knapen_AOT/AOT_stimuli/rescaled_final/2137_fw.mp4	0.0	193.03968715667725	0.10001611709594727
35	172.06728315353394	fix_pre	0		120	33.0	2.5	/experiments/knapen_AOT/AOT_stimuli/rescaled_final/1919_rv.mp4	0.0	193.1397032737732	1.0001659393310547
35	172.6509771347046	pulse	0	t		33.0	2.5	/experiments/knapen_AOT/AOT_stimuli/rescaled_final/1919_rv.mp4	0.0	193.72339725494385	
35	173.067449092865	movie	1		243	33.0	2.5	/experiments/knapen_AOT/AOT_stimuli/rescaled_final/1919_rv.mp4	0.0	194.13986921310425	2.500342845916748
35	174.25113892555237	pulse	1	t		33.0	2.5	/experiments/knapen_AOT/AOT_stimuli/rescaled_final/1919_rv.mp4	0.0	195.32355904579163	
35	175.56779193878174	fix_post	2		12	33.0	2.5	/experiments/knapen_AOT/AOT_stimuli/rescaled_final/1919_rv.mp4	0.0	196.640212059021	0.10001611709594727
36	175.66780805587769	fix_pre	0		120	34.0	2.5	blank	1.0	196.74022817611694	1.0001540184020996
36	175.85131907463074	pulse	0	t		34.0	2.5	blank	1.0	196.92373919487	
36	176.66796207427979	movie	1		300	34.0	2.5	blank	1.0	197.74038219451904	2.5003910064697266
36	177.4516839981079	pulse	1	t		34.0	2.5	blank	1.0	198.52410411834717	
36	179.05193996429443	pulse	1	t		34.0	2.5	blank	1.0	200.1243600845337	
36	179.1683530807495	fix_post	2		12	34.0	2.5	blank	1.0	200.24077320098877	0.09998106956481934
37	179.26833415031433	fix_pre	0		120	35.0	2.5	/experiments/knapen_AOT/AOT_stimuli/rescaled_final/0482_fw.mp4	0.0	200.3407542705536	1.000227928161621
37	180.26856207847595	movie	1		241	35.0	2.5	/experiments/knapen_AOT/AOT_stimuli/rescaled_final/0482_fw.mp4	0.0	201.3409821987152	2.4920449256896973
37	180.6528890132904	pulse	1	t		35.0	2.5	/experiments/knapen_AOT/AOT_stimuli/rescaled_final/0482_fw.mp4	0.0	201.72530913352966	
37	182.25234413146973	pulse	1	t		35.0	2.5	/experiments/knapen_AOT/AOT_stimuli/rescaled_final/0482_fw.mp4	0.0	203.32476425170898	
37	182.76060700416565	fix_post	2		12	35.0	2.5	/experiments/knapen_AOT/AOT_stimuli/rescaled_final/0482_fw.mp4	0.0	203.8330271244049	0.0999610424041748
38	182.86056804656982	fix_pre	0		120	36.0	2.5	/experiments/knapen_AOT/AOT_stimuli/rescaled_final/1542_rv.mp4	0.0	203.93298816680908	1.0001718997955322
38	183.85255002975464	pulse	0	t		36.0	2.5	/experiments/knapen_AOT/AOT_stimuli/rescaled_final/1542_rv.mp4	0.0	204.9249701499939	
38	183.86073994636536	movie	1		244	36.0	2.5	/experiments/knapen_AOT/AOT_stimuli/rescaled_final/1542_rv.mp4	0.0	204.93316006660461	2.508786201477051
38	185.45355892181396	pulse	1	t		36.0	2.5	/experiments/knapen_AOT/AOT_stimuli/rescaled_final/1542_rv.mp4	0.0	206.52597904205322	
38	186.3695261478424	fix_post	2		12	36.0	2.5	/experiments/knapen_AOT/AOT_stimuli/rescaled_final/1542_rv.mp4	0.0	207.44194626808167	0.09987783432006836
39	186.46940398216248	fix_pre	0		120	37.0	2.5	/experiments/knapen_AOT/AOT_stimuli/rescaled_final/0879_fw.mp4	0.0	207.54182410240173	1.0001580715179443
39	187.05302596092224	pulse	0	t		37.0	2.5	/experiments/knapen_AOT/AOT_stimuli/rescaled_final/0879_fw.mp4	0.0	208.1254460811615	
39	187.46956205368042	movie	1		244	37.0	2.5	/experiments/knapen_AOT/AOT_stimuli/rescaled_final/0879_fw.mp4	0.0	208.54198217391968	2.500364065170288
39	188.6533980369568	pulse	1	t		37.0	2.5	/experiments/knapen_AOT/AOT_stimuli/rescaled_final/0879_fw.mp4	0.0	209.72581815719604	
39	189.9699261188507	fix_post	2		12	37.0	2.5	/experiments/knapen_AOT/AOT_stimuli/rescaled_final/0879_fw.mp4	0.0	211.04234623908997	0.10001683235168457
40	190.0699429512024	fix_pre	0		120	38.0	2.5	/experiments/knapen_AOT/AOT_stimuli/rescaled_final/0798_fw.mp4	0.0	211.14236307144165	1.000162124633789
40	190.25350999832153	pulse	0	t		38.0	2.5	/experiments/knapen_AOT/AOT_stimuli/rescaled_final/0798_fw.mp4	0.0	211.3259301185608	
40	191.07010507583618	movie	1		243	38.0	2.5	/experiments/knapen_AOT/AOT_stimuli/rescaled_final/0798_fw.mp4	0.0	212.14252519607544	2.5003468990325928
40	191.8537859916687	pulse	1	t		38.0	2.5	/experiments/knapen_AOT/AOT_stimuli/rescaled_final/0798_fw.mp4	0.0	212.92620611190796	
40	193.45432114601135	pulse	1	t		38.0	2.5	/experiments/knapen_AOT/AOT_stimuli/rescaled_final/0798_fw.mp4	0.0	214.5267412662506	
40	193.57045197486877	fix_post	2		12	38.0	2.5	/experiments/knapen_AOT/AOT_stimuli/rescaled_final/0798_fw.mp4	0.0	214.64287209510803	0.10005807876586914
41	193.67051005363464	fix_pre	0		120	39.0	2.5	/experiments/knapen_AOT/AOT_stimuli/rescaled_final/1931_fw.mp4	0.0	214.7429301738739	1.0001609325408936
41	194.67067098617554	movie	1		242	39.0	2.5	/experiments/knapen_AOT/AOT_stimuli/rescaled_final/1931_fw.mp4	0.0	215.7430911064148	2.4920010566711426
41	195.05475997924805	pulse	1	t		39.0	2.5	/experiments/knapen_AOT/AOT_stimuli/rescaled_final/1931_fw.mp4	0.0	216.1271800994873	
41	196.6471710205078	pulse	1	t		39.0	2.5	/experiments/knapen_AOT/AOT_stimuli/rescaled_final/1931_fw.mp4	0.0	217.71959114074707	
41	197.16267204284668	fix_post	2		12	39.0	2.5	/experiments/knapen_AOT/AOT_stimuli/rescaled_final/1931_fw.mp4	0.0	218.23509216308594	0.10003995895385742
42	197.26271200180054	fix_pre	0		120	40.0	2.5	blank	1.0	218.3351321220398	1.0001590251922607
42	198.247230052948	pulse	0	t		40.0	2.5	blank	1.0	219.31965017318726	
42	198.2628710269928	movie	1		301	40.0	2.5	blank	1.0	219.33529114723206	2.508686065673828
42	199.84743809700012	pulse	1	t		40.0	2.5	blank	1.0	220.91985821723938	
42	200.77155709266663	fix_post	2		12	40.0	2.5	blank	1.0	221.84397721290588	0.09998893737792969
43	200.87154603004456	fix_pre	0		120	41.0	2.5	/experiments/knapen_AOT/AOT_stimuli/rescaled_final/0674_fw.mp4	0.0	221.9439661502838	1.00018310546875
43	201.44782304763794	pulse	0	t		41.0	2.5	/experiments/knapen_AOT/AOT_stimuli/rescaled_final/0674_fw.mp4	0.0	222.5202431678772	
43	201.8717291355133	movie	1		242	41.0	2.5	/experiments/knapen_AOT/AOT_stimuli/rescaled_final/0674_fw.mp4	0.0	222.94414925575256	2.5003299713134766
43	203.04776096343994	pulse	1	t		41.0	2.5	/experiments/knapen_AOT/AOT_stimuli/rescaled_final/0674_fw.mp4	0.0	224.1201810836792	
43	204.37205910682678	fix_post	2		12	41.0	2.5	/experiments/knapen_AOT/AOT_stimuli/rescaled_final/0674_fw.mp4	0.0	225.44447922706604	0.10005497932434082
44	204.47211408615112	fix_pre	0		120	42.0	2.5	/experiments/knapen_AOT/AOT_stimuli/rescaled_final/1920_fw.mp4	0.0	225.54453420639038	1.0001778602600098
44	204.6473319530487	pulse	0	t		42.0	2.5	/experiments/knapen_AOT/AOT_stimuli/rescaled_final/1920_fw.mp4	0.0	225.71975207328796	
44	205.47229194641113	movie	1		242	42.0	2.5	/experiments/knapen_AOT/AOT_stimuli/rescaled_final/1920_fw.mp4	0.0	226.5447120666504	2.500469207763672
44	206.25128698349	pulse	1	t		42.0	2.5	/experiments/knapen_AOT/AOT_stimuli/rescaled_final/1920_fw.mp4	0.0	227.32370710372925	
44	207.84803009033203	pulse	1	t		42.0	2.5	/experiments/knapen_AOT/AOT_stimuli/rescaled_final/1920_fw.mp4	0.0	228.9204502105713	
44	207.9727611541748	fix_post	2		12	42.0	2.5	/experiments/knapen_AOT/AOT_stimuli/rescaled_final/1920_fw.mp4	0.0	229.04518127441406	0.09988880157470703
45	208.0726499557495	fix_pre	0		119	43.0	2.5	/experiments/knapen_AOT/AOT_stimuli/rescaled_final/1733_rv.mp4	0.0	229.14507007598877	0.9918131828308105
45	209.06446313858032	movie	1		242	43.0	2.5	/experiments/knapen_AOT/AOT_stimuli/rescaled_final/1733_rv.mp4	0.0	230.13688325881958	2.50050687789917
45	209.44882798194885	pulse	1	t		43.0	2.5	/experiments/knapen_AOT/AOT_stimuli/rescaled_final/1733_rv.mp4	0.0	230.5212481021881	
45	211.04836201667786	pulse	1	t		43.0	2.5	/experiments/knapen_AOT/AOT_stimuli/rescaled_final/1733_rv.mp4	0.0	232.12078213691711	
45	211.5649700164795	fix_post	2		12	43.0	2.5	/experiments/knapen_AOT/AOT_stimuli/rescaled_final/1733_rv.mp4	0.0	232.63739013671875	0.09987306594848633
46	211.66484308242798	fix_pre	0		119	44.0	2.5	/experiments/knapen_AOT/AOT_stimuli/rescaled_final/1183_fw.mp4	0.0	232.73726320266724	0.9918498992919922
46	212.64849996566772	pulse	0	t		44.0	2.5	/experiments/knapen_AOT/AOT_stimuli/rescaled_final/1183_fw.mp4	0.0	233.72092008590698	
46	212.65669298171997	movie	1		244	44.0	2.5	/experiments/knapen_AOT/AOT_stimuli/rescaled_final/1183_fw.mp4	0.0	233.72911310195923	2.5087549686431885
46	214.2536780834198	pulse	1	t		44.0	2.5	/experiments/knapen_AOT/AOT_stimuli/rescaled_final/1183_fw.mp4	0.0	235.32609820365906	
46	215.16544795036316	fix_post	2		12	44.0	2.5	/experiments/knapen_AOT/AOT_stimuli/rescaled_final/1183_fw.mp4	0.0	236.23786807060242	0.09998917579650879
47	215.26543712615967	fix_pre	0		120	45.0	2.5	/experiments/knapen_AOT/AOT_stimuli/rescaled_final/1413_fw.mp4	0.0	236.33785724639893	1.0001089572906494
47	215.84897804260254	pulse	0	t		45.0	2.5	/experiments/knapen_AOT/AOT_stimuli/rescaled_final/1413_fw.mp4	0.0	236.9213981628418	
47	216.26554608345032	movie	1		245	45.0	2.5	/experiments/knapen_AOT/AOT_stimuli/rescaled_final/1413_fw.mp4	0.0	237.33796620368958	2.5003418922424316
47	217.44934606552124	pulse	1	t		45.0	2.5	/experiments/knapen_AOT/AOT_stimuli/rescaled_final/1413_fw.mp4	0.0	238.5217661857605	
47	218.76588797569275	fix_post	2		12	45.0	2.5	/experiments/knapen_AOT/AOT_stimuli/rescaled_final/1413_fw.mp4	0.0	239.838308095932	0.10005497932434082
48	218.8659429550171	fix_pre	0		120	46.0	2.5	/experiments/knapen_AOT/AOT_stimuli/rescaled_final/1444_fw.mp4	0.0	239.93836307525635	1.0001320838928223
48	219.04961514472961	pulse	0	t		46.0	2.5	/experiments/knapen_AOT/AOT_stimuli/rescaled_final/1444_fw.mp4	0.0	240.12203526496887	
48	219.8660750389099	movie	1		243	46.0	2.5	/experiments/knapen_AOT/AOT_stimuli/rescaled_final/1444_fw.mp4	0.0	240.93849515914917	2.5003631114959717
48	220.6497459411621	pulse	1	t		46.0	2.5	/experiments/knapen_AOT/AOT_stimuli/rescaled_final/1444_fw.mp4	0.0	241.72216606140137	
48	222.24969792366028	pulse	1	t		46.0	2.5	/experiments/knapen_AOT/AOT_stimuli/rescaled_final/1444_fw.mp4	0.0	243.32211804389954	
48	222.36643815040588	fix_post	2		12	46.0	2.5	/experiments/knapen_AOT/AOT_stimuli/rescaled_final/1444_fw.mp4	0.0	243.43885827064514	0.1000359058380127
49	222.4664740562439	fix_pre	0		120	47.0	2.5	/experiments/knapen_AOT/AOT_stimuli/rescaled_final/0357_fw.mp4	0.0	243.53889417648315	1.0001330375671387
49	223.46660709381104	movie	1		243	47.0	2.5	/experiments/knapen_AOT/AOT_stimuli/rescaled_final/0357_fw.mp4	0.0	244.5390272140503	2.492037057876587
49	223.85072898864746	pulse	1	t		47.0	2.5	/experiments/knapen_AOT/AOT_stimuli/rescaled_final/0357_fw.mp4	0.0	244.92314910888672	
49	225.45053601264954	pulse	1	t		47.0	2.5	/experiments/knapen_AOT/AOT_stimuli/rescaled_final/0357_fw.mp4	0.0	246.5229561328888	
49	225.95864415168762	fix_post	2		12	47.0	2.5	/experiments/knapen_AOT/AOT_stimuli/rescaled_final/0357_fw.mp4	0.0	247.03106427192688	0.10004377365112305
50	226.05868792533875	fix_pre	0		120	48.0	2.5	blank	1.0	247.131108045578	1.0001111030578613
50	227.05073499679565	pulse	0	t		48.0	2.5	blank	1.0	248.1231551170349	
50	227.0587990283966	movie	1		301	48.0	2.5	blank	1.0	248.13121914863586	2.5087380409240723
50	228.65091514587402	pulse	1	t		48.0	2.5	blank	1.0	249.72333526611328	
50	229.56753706932068	fix_post	2		12	48.0	2.5	blank	1.0	250.63995718955994	0.10005402565002441
51	229.6675910949707	fix_pre	0		120	49.0	2.5	/experiments/knapen_AOT/AOT_stimuli/rescaled_final/1849_rv.mp4	0.0	250.74001121520996	1.0000848770141602
51	230.251079082489	pulse	0	t		49.0	2.5	/experiments/knapen_AOT/AOT_stimuli/rescaled_final/1849_rv.mp4	0.0	251.32349920272827	
51	230.66767597198486	movie	1		243	49.0	2.5	/experiments/knapen_AOT/AOT_stimuli/rescaled_final/1849_rv.mp4	0.0	251.74009609222412	2.5003650188446045
51	231.85160398483276	pulse	1	t		49.0	2.5	/experiments/knapen_AOT/AOT_stimuli/rescaled_final/1849_rv.mp4	0.0	252.92402410507202	
51	233.16804099082947	fix_post	2		12	49.0	2.5	/experiments/knapen_AOT/AOT_stimuli/rescaled_final/1849_rv.mp4	0.0	254.24046111106873	0.10002303123474121
52	233.2680640220642	fix_pre	0		120	50.0	2.5	/experiments/knapen_AOT/AOT_stimuli/rescaled_final/0127_fw.mp4	0.0	254.34048414230347	1.0002031326293945
52	233.45175409317017	pulse	0	t		50.0	2.5	/experiments/knapen_AOT/AOT_stimuli/rescaled_final/0127_fw.mp4	0.0	254.52417421340942	
52	234.2682671546936	movie	1		242	50.0	2.5	/experiments/knapen_AOT/AOT_stimuli/rescaled_final/0127_fw.mp4	0.0	255.34068727493286	2.5005970001220703
52	235.0519630908966	pulse	1	t		50.0	2.5	/experiments/knapen_AOT/AOT_stimuli/rescaled_final/0127_fw.mp4	0.0	256.12438321113586	
52	236.65344095230103	pulse	1	t		50.0	2.5	/experiments/knapen_AOT/AOT_stimuli/rescaled_final/0127_fw.mp4	0.0	257.7258610725403	
52	236.76886415481567	fix_post	2		12	50.0	2.5	/experiments/knapen_AOT/AOT_stimuli/rescaled_final/0127_fw.mp4	0.0	257.84128427505493	0.09974980354309082
53	236.86861395835876	fix_pre	0		120	51.0	2.5	/experiments/knapen_AOT/AOT_stimuli/rescaled_final/1792_fw.mp4	0.0	257.941034078598	1.0001471042633057
53	237.86876106262207	movie	1		243	51.0	2.5	/experiments/knapen_AOT/AOT_stimuli/rescaled_final/1792_fw.mp4	0.0	258.9411811828613	2.492050886154175
53	238.25266814231873	pulse	1	t		51.0	2.5	/experiments/knapen_AOT/AOT_stimuli/rescaled_final/1792_fw.mp4	0.0	259.325088262558	
53	239.85640692710876	pulse	1	t		51.0	2.5	/experiments/knapen_AOT/AOT_stimuli/rescaled_final/1792_fw.mp4	0.0	260.928827047348	
53	240.36081194877625	fix_post	2		12	51.0	2.5	/experiments/knapen_AOT/AOT_stimuli/rescaled_final/1792_fw.mp4	0.0	261.4332320690155	0.09999299049377441
54	240.46080493927002	fix_pre	0		120	52.0	2.5	/experiments/knapen_AOT/AOT_stimuli/rescaled_final/0015_rv.mp4	0.0	261.5332250595093	1.0001351833343506
54	241.4529299736023	pulse	0	t		52.0	2.5	/experiments/knapen_AOT/AOT_stimuli/rescaled_final/0015_rv.mp4	0.0	262.52535009384155	
54	241.46094012260437	movie	1		245	52.0	2.5	/experiments/knapen_AOT/AOT_stimuli/rescaled_final/0015_rv.mp4	0.0	262.5333602428436	2.508737802505493
54	243.05452704429626	pulse	1	t		52.0	2.5	/experiments/knapen_AOT/AOT_stimuli/rescaled_final/0015_rv.mp4	0.0	264.1269471645355	
54	243.96967792510986	fix_post	2		12	52.0	2.5	/experiments/knapen_AOT/AOT_stimuli/rescaled_final/0015_rv.mp4	0.0	265.0420980453491	0.10000920295715332
55	244.06968712806702	fix_pre	0		120	53.0	2.5	/experiments/knapen_AOT/AOT_stimuli/rescaled_final/0110_rv.mp4	0.0	265.1421072483063	1.0001440048217773
55	244.6532599925995	pulse	0	t		53.0	2.5	/experiments/knapen_AOT/AOT_stimuli/rescaled_final/0110_rv.mp4	0.0	265.72568011283875	
55	245.0698311328888	movie	1		243	53.0	2.5	/experiments/knapen_AOT/AOT_stimuli/rescaled_final/0110_rv.mp4	0.0	266.14225125312805	2.500379800796509
55	246.24658608436584	pulse	1	t		53.0	2.5	/experiments/knapen_AOT/AOT_stimuli/rescaled_final/0110_rv.mp4	0.0	267.3190062046051	
55	247.5702109336853	fix_post	2		12	53.0	2.5	/experiments/knapen_AOT/AOT_stimuli/rescaled_final/0110_rv.mp4	0.0	268.64263105392456	0.10000920295715332
56	247.67022013664246	fix_pre	0		120	54.0	2.5	blank	1.0	268.7426402568817	1.0002357959747314
56	247.85387015342712	pulse	0	t		54.0	2.5	blank	1.0	268.9262902736664	
56	248.6704559326172	movie	1		300	54.0	2.5	blank	1.0	269.74287605285645	2.500282049179077
56	249.44660997390747	pulse	1	t		54.0	2.5	blank	1.0	270.51903009414673	
56	251.04675698280334	pulse	1	t		54.0	2.5	blank	1.0	272.1191771030426	
56	251.17073798179626	fix_post	2		12	54.0	2.5	blank	1.0	272.2431581020355	0.10003995895385742
57	251.27077794075012	fix_pre	0		120	55.0	2.5	/experiments/knapen_AOT/AOT_stimuli/rescaled_final/1171_fw.mp4	0.0	272.3431980609894	1.0001320838928223
57	252.27091002464294	movie	1		242	55.0	2.5	/experiments/knapen_AOT/AOT_stimuli/rescaled_final/1171_fw.mp4	0.0	273.3433301448822	2.4920239448547363
57	252.655620098114	pulse	1	t		55.0	2.5	/experiments/knapen_AOT/AOT_stimuli/rescaled_final/1171_fw.mp4	0.0	273.72804021835327	
57	254.24733805656433	pulse	1	t		55.0	2.5	/experiments/knapen_AOT/AOT_stimuli/rescaled_final/1171_fw.mp4	0.0	275.3197581768036	
57	254.76293396949768	fix_post	2		12	55.0	2.5	/experiments/knapen_AOT/AOT_stimuli/rescaled_final/1171_fw.mp4	0.0	275.83535408973694	0.10005307197570801
58	254.8629870414734	fix_pre	0		119	56.0	2.5	/experiments/knapen_AOT/AOT_stimuli/rescaled_final/0827_fw.mp4	0.0	275.93540716171265	0.9918229579925537
58	255.8468849658966	pulse	0	t		56.0	2.5	/experiments/knapen_AOT/AOT_stimuli/rescaled_final/0827_fw.mp4	0.0	276.91930508613586	
58	255.85480999946594	movie	1		246	56.0	2.5	/experiments/knapen_AOT/AOT_stimuli/rescaled_final/0827_fw.mp4	0.0	276.9272301197052	2.5086801052093506
58	257.4483160972595	pulse	1	t		56.0	2.5	/experiments/knapen_AOT/AOT_stimuli/rescaled_final/0827_fw.mp4	0.0	278.5207362174988	
58	258.3634901046753	fix_post	2		12	56.0	2.5	/experiments/knapen_AOT/AOT_stimuli/rescaled_final/0827_fw.mp4	0.0	279.43591022491455	0.1000058650970459
59	258.46349596977234	fix_pre	0		120	57.0	2.5	/experiments/knapen_AOT/AOT_stimuli/rescaled_final/0757_rv.mp4	0.0	279.5359160900116	1.000180959701538
59	259.04704213142395	pulse	0	t		57.0	2.5	/experiments/knapen_AOT/AOT_stimuli/rescaled_final/0757_rv.mp4	0.0	280.1194622516632	
59	259.4636769294739	movie	1		245	57.0	2.5	/experiments/knapen_AOT/AOT_stimuli/rescaled_final/0757_rv.mp4	0.0	280.53609704971313	2.500359058380127
59	260.6474850177765	pulse	1	t		57.0	2.5	/experiments/knapen_AOT/AOT_stimuli/rescaled_final/0757_rv.mp4	0.0	281.71990513801575	
59	261.964035987854	fix_post	2		12	57.0	2.5	/experiments/knapen_AOT/AOT_stimuli/rescaled_final/0757_rv.mp4	0.0	283.03645610809326	0.10004401206970215
60	262.0640799999237	fix_pre	0		120	58.0	2.5	/experiments/knapen_AOT/AOT_stimuli/rescaled_final/0674_rv.mp4	0.0	283.13650012016296	1.0000929832458496
60	262.24765610694885	pulse	0	t		58.0	2.5	/experiments/knapen_AOT/AOT_stimuli/rescaled_final/0674_rv.mp4	0.0	283.3200762271881	
60	263.06417298316956	movie	1		239	58.0	2.5	/experiments/knapen_AOT/AOT_stimuli/rescaled_final/0674_rv.mp4	0.0	284.1365931034088	2.492203950881958
60	263.8479039669037	pulse	1	t		58.0	2.5	/experiments/knapen_AOT/AOT_stimuli/rescaled_final/0674_rv.mp4	0.0	284.92032408714294	
60	265.4480230808258	pulse	1	t		58.0	2.5	/experiments/knapen_AOT/AOT_stimuli/rescaled_final/0674_rv.mp4	0.0	286.52044320106506	
60	265.5563769340515	fix_post	2		13	58.0	2.5	/experiments/knapen_AOT/AOT_stimuli/rescaled_final/0674_rv.mp4	0.0	286.62879705429077	0.10819506645202637
61	265.66457200050354	fix_pre	0		120	59.0	2.5	/experiments/knapen_AOT/AOT_stimuli/rescaled_final/0271_fw.mp4	0.0	286.7369921207428	1.0002140998840332
61	266.6647861003876	movie	1		243	59.0	2.5	/experiments/knapen_AOT/AOT_stimuli/rescaled_final/0271_fw.mp4	0.0	287.73720622062683	2.49194598197937
61	267.04903292655945	pulse	1	t		59.0	2.5	/experiments/knapen_AOT/AOT_stimuli/rescaled_final/0271_fw.mp4	0.0	288.1214530467987	
61	268.64856600761414	pulse	1	t		59.0	2.5	/experiments/knapen_AOT/AOT_stimuli/rescaled_final/0271_fw.mp4	0.0	289.7209861278534	
61	269.15673208236694	fix_post	2		12	59.0	2.5	/experiments/knapen_AOT/AOT_stimuli/rescaled_final/0271_fw.mp4	0.0	290.2291522026062	0.1000368595123291
62	269.2567689418793	fix_pre	0		120	60.0	2.5	/experiments/knapen_AOT/AOT_stimuli/rescaled_final/1323_rv.mp4	0.0	290.32918906211853	1.0001580715179443
62	270.24876713752747	pulse	0	t		60.0	2.5	/experiments/knapen_AOT/AOT_stimuli/rescaled_final/1323_rv.mp4	0.0	291.3211872577667	
62	270.2569270133972	movie	1		244	60.0	2.5	/experiments/knapen_AOT/AOT_stimuli/rescaled_final/1323_rv.mp4	0.0	291.3293471336365	2.5087270736694336
62	271.84957098960876	pulse	1	t		60.0	2.5	/experiments/knapen_AOT/AOT_stimuli/rescaled_final/1323_rv.mp4	0.0	292.921991109848	
62	272.76565408706665	fix_post	2		12	60.0	2.5	/experiments/knapen_AOT/AOT_stimuli/rescaled_final/1323_rv.mp4	0.0	293.8380742073059	0.09997987747192383
63	272.8656339645386	fix_pre	0		120	61.0	2.5	blank	1.0	293.93805408477783	1.0001859664916992
63	273.4492509365082	pulse	0	t		61.0	2.5	blank	1.0	294.52167105674744	
63	273.8658199310303	movie	1		300	61.0	2.5	blank	1.0	294.93824005126953	2.500343084335327
63	275.04951000213623	pulse	1	t		61.0	2.5	blank	1.0	296.1219301223755	
63	276.3661630153656	fix_post	2		12	61.0	2.5	blank	1.0	297.43858313560486	0.10001897811889648
64	276.4661819934845	fix_pre	0		120	62.0	2.5	/experiments/knapen_AOT/AOT_stimuli/rescaled_final/1259_fw.mp4	0.0	297.53860211372375	1.0001890659332275
64	276.6497120857239	pulse	0	t		62.0	2.5	/experiments/knapen_AOT/AOT_stimuli/rescaled_final/1259_fw.mp4	0.0	297.72213220596313	
64	277.4663710594177	movie	1		244	62.0	2.5	/experiments/knapen_AOT/AOT_stimuli/rescaled_final/1259_fw.mp4	0.0	298.538791179657	2.500325918197632
64	278.2499511241913	pulse	1	t		62.0	2.5	/experiments/knapen_AOT/AOT_stimuli/rescaled_final/1259_fw.mp4	0.0	299.32237124443054	
64	279.85019612312317	pulse	1	t		62.0	2.5	/experiments/knapen_AOT/AOT_stimuli/rescaled_final/1259_fw.mp4	0.0	300.9226162433624	
64	279.96669697761536	fix_post	2		12	62.0	2.5	/experiments/knapen_AOT/AOT_stimuli/rescaled_final/1259_fw.mp4	0.0	301.0391170978546	0.10001707077026367
65	280.0667140483856	fix_pre	0		120	63.0	2.5	/experiments/knapen_AOT/AOT_stimuli/rescaled_final/2031_rv.mp4	0.0	301.1391341686249	1.0001370906829834
65	281.0668511390686	movie	1		241	63.0	2.5	/experiments/knapen_AOT/AOT_stimuli/rescaled_final/2031_rv.mp4	0.0	302.13927125930786	2.4920167922973633
65	281.4510009288788	pulse	1	t		63.0	2.5	/experiments/knapen_AOT/AOT_stimuli/rescaled_final/2031_rv.mp4	0.0	302.52342104911804	
65	283.05071806907654	pulse	1	t		63.0	2.5	/experiments/knapen_AOT/AOT_stimuli/rescaled_final/2031_rv.mp4	0.0	304.1231381893158	
65	283.55886793136597	fix_post	2		12	63.0	2.5	/experiments/knapen_AOT/AOT_stimuli/rescaled_final/2031_rv.mp4	0.0	304.6312880516052	0.10004019737243652
66	283.6589081287384	fix_pre	0		120	64.0	2.5	/experiments/knapen_AOT/AOT_stimuli/rescaled_final/1942_fw.mp4	0.0	304.73132824897766	1.0001628398895264
66	284.6509020328522	pulse	0	t		64.0	2.5	/experiments/knapen_AOT/AOT_stimuli/rescaled_final/1942_fw.mp4	0.0	305.72332215309143	
66	284.65907096862793	movie	1		244	64.0	2.5	/experiments/knapen_AOT/AOT_stimuli/rescaled_final/1942_fw.mp4	0.0	305.7314910888672	2.508725166320801
66	286.25156593322754	pulse	1	t		64.0	2.5	/experiments/knapen_AOT/AOT_stimuli/rescaled_final/1942_fw.mp4	0.0	307.3239860534668	
66	287.16779613494873	fix_post	2		12	64.0	2.5	/experiments/knapen_AOT/AOT_stimuli/rescaled_final/1942_fw.mp4	0.0	308.240216255188	0.09999990463256836
67	287.2677960395813	fix_pre	0		120	65.0	2.5	/experiments/knapen_AOT/AOT_stimuli/rescaled_final/0340_rv.mp4	0.0	308.34021615982056	1.0001420974731445
67	287.851469039917	pulse	0	t		65.0	2.5	/experiments/knapen_AOT/AOT_stimuli/rescaled_final/0340_rv.mp4	0.0	308.92388916015625	
67	288.26793813705444	movie	1		244	65.0	2.5	/experiments/knapen_AOT/AOT_stimuli/rescaled_final/0340_rv.mp4	0.0	309.3403582572937	2.5003819465637207
67	289.45175409317017	pulse	1	t		65.0	2.5	/experiments/knapen_AOT/AOT_stimuli/rescaled_final/0340_rv.mp4	0.0	310.5241742134094	
67	290.76832008361816	fix_post	2		12	65.0	2.5	/experiments/knapen_AOT/AOT_stimuli/rescaled_final/0340_rv.mp4	0.0	311.8407402038574	0.10001206398010254
68	290.86833214759827	fix_pre	0		120	66.0	2.5	/experiments/knapen_AOT/AOT_stimuli/rescaled_final/1057_fw.mp4	0.0	311.9407522678375	1.0001609325408936
68	291.0518989562988	pulse	0	t		66.0	2.5	/experiments/knapen_AOT/AOT_stimuli/rescaled_final/1057_fw.mp4	0.0	312.1243190765381	
68	291.86849308013916	movie	1		243	66.0	2.5	/experiments/knapen_AOT/AOT_stimuli/rescaled_final/1057_fw.mp4	0.0	312.9409132003784	2.5003249645233154
68	292.65209102630615	pulse	1	t		66.0	2.5	/experiments/knapen_AOT/AOT_stimuli/rescaled_final/1057_fw.mp4	0.0	313.7245111465454	
68	294.25671005249023	pulse	1	t		66.0	2.5	/experiments/knapen_AOT/AOT_stimuli/rescaled_final/1057_fw.mp4	0.0	315.3291301727295	
68	294.3688180446625	fix_post	2		12	66.0	2.5	/experiments/knapen_AOT/AOT_stimuli/rescaled_final/1057_fw.mp4	0.0	315.44123816490173	0.10006499290466309
69	294.46888303756714	fix_pre	0		119	67.0	2.5	/experiments/knapen_AOT/AOT_stimuli/rescaled_final/1437_fw.mp4	0.0	315.5413031578064	0.9918179512023926
69	295.46070098876953	movie	1		243	67.0	2.5	/experiments/knapen_AOT/AOT_stimuli/rescaled_final/1437_fw.mp4	0.0	316.5331211090088	2.5003161430358887
69	295.8526780605316	pulse	1	t		67.0	2.5	/experiments/knapen_AOT/AOT_stimuli/rescaled_final/1437_fw.mp4	0.0	316.9250981807709	
69	297.45289492607117	pulse	1	t		67.0	2.5	/experiments/knapen_AOT/AOT_stimuli/rescaled_final/1437_fw.mp4	0.0	318.5253150463104	
69	297.9610171318054	fix_post	2		12	67.0	2.5	/experiments/knapen_AOT/AOT_stimuli/rescaled_final/1437_fw.mp4	0.0	319.0334372520447	0.10009598731994629
70	298.06111311912537	fix_pre	0		120	68.0	2.5	/experiments/knapen_AOT/AOT_stimuli/rescaled_final/1919_rv.mp4	0.0	319.1335332393646	1.000166893005371
70	299.05307698249817	pulse	0	t		68.0	2.5	/experiments/knapen_AOT/AOT_stimuli/rescaled_final/1919_rv.mp4	0.0	320.1254971027374	
70	299.06128001213074	movie	1		246	68.0	2.5	/experiments/knapen_AOT/AOT_stimuli/rescaled_final/1919_rv.mp4	0.0	320.13370013237	2.5086560249328613
70	300.6546080112457	pulse	1	t		68.0	2.5	/experiments/knapen_AOT/AOT_stimuli/rescaled_final/1919_rv.mp4	0.0	321.727028131485	
70	301.5699360370636	fix_post	2		12	68.0	2.5	/experiments/knapen_AOT/AOT_stimuli/rescaled_final/1919_rv.mp4	0.0	322.64235615730286	0.09999895095825195
71	301.66993498802185	fix_pre	0		120	69.0	2.5	/experiments/knapen_AOT/AOT_stimuli/rescaled_final/1259_rv.mp4	0.0	322.7423551082611	1.0002291202545166
71	302.25718212127686	pulse	0	t		69.0	2.5	/experiments/knapen_AOT/AOT_stimuli/rescaled_final/1259_rv.mp4	0.0	323.3296022415161	
71	302.67016410827637	movie	1		244	69.0	2.5	/experiments/knapen_AOT/AOT_stimuli/rescaled_final/1259_rv.mp4	0.0	323.7425842285156	2.5003139972686768
71	303.8493139743805	pulse	1	t		69.0	2.5	/experiments/knapen_AOT/AOT_stimuli/rescaled_final/1259_rv.mp4	0.0	324.92173409461975	
71	305.17047810554504	fix_post	2		12	69.0	2.5	/experiments/knapen_AOT/AOT_stimuli/rescaled_final/1259_rv.mp4	0.0	326.2428982257843	0.10001301765441895
72	305.27049112319946	fix_pre	0		120	70.0	2.5	blank	1.0	326.3429112434387	1.0001378059387207
72	305.4540870189667	pulse	0	t		70.0	2.5	blank	1.0	326.52650713920593	
72	306.2706289291382	movie	1		300	70.0	2.5	blank	1.0	327.34304904937744	2.500368118286133
72	307.0544009208679	pulse	1	t		70.0	2.5	blank	1.0	328.1268210411072	
72	308.6546161174774	pulse	1	t		70.0	2.5	blank	1.0	329.7270362377167	
72	308.7709970474243	fix_post	2		12	70.0	2.5	blank	1.0	329.8434171676636	0.10001111030578613
73	308.8710081577301	fix_pre	0		120	71.0	2.5	/experiments/knapen_AOT/AOT_stimuli/rescaled_final/0550_fw.mp4	0.0	329.94342827796936	1.0001637935638428
73	309.87117195129395	movie	1		245	71.0	2.5	/experiments/knapen_AOT/AOT_stimuli/rescaled_final/0550_fw.mp4	0.0	330.9435920715332	2.492016077041626
73	310.2552900314331	pulse	1	t		71.0	2.5	/experiments/knapen_AOT/AOT_stimuli/rescaled_final/0550_fw.mp4	0.0	331.32771015167236	
73	311.84778094291687	pulse	1	t		71.0	2.5	/experiments/knapen_AOT/AOT_stimuli/rescaled_final/0550_fw.mp4	0.0	332.9202010631561	
73	312.36318802833557	fix_post	2		12	71.0	2.5	/experiments/knapen_AOT/AOT_stimuli/rescaled_final/0550_fw.mp4	0.0	333.43560814857483	0.1000509262084961
74	312.46323895454407	fix_pre	0		120	72.0	2.5	/experiments/knapen_AOT/AOT_stimuli/rescaled_final/2041_fw.mp4	0.0	333.5356590747833	1.000190019607544
74	313.44781613349915	pulse	0	t		72.0	2.5	/experiments/knapen_AOT/AOT_stimuli/rescaled_final/2041_fw.mp4	0.0	334.5202362537384	
74	313.4634289741516	movie	1		244	72.0	2.5	/experiments/knapen_AOT/AOT_stimuli/rescaled_final/2041_fw.mp4	0.0	334.53584909439087	2.508634090423584
74	315.05578207969666	pulse	1	t		72.0	2.5	/experiments/knapen_AOT/AOT_stimuli/rescaled_final/2041_fw.mp4	0.0	336.1282021999359	
74	315.9720630645752	fix_post	2		12	72.0	2.5	/experiments/knapen_AOT/AOT_stimuli/rescaled_final/2041_fw.mp4	0.0	337.04448318481445	0.10002303123474121
75	316.07208609580994	fix_pre	0		120	73.0	2.5	/experiments/knapen_AOT/AOT_stimuli/rescaled_final/0567_fw.mp4	0.0	337.1445062160492	1.0001449584960938
75	316.64813899993896	pulse	0	t		73.0	2.5	/experiments/knapen_AOT/AOT_stimuli/rescaled_final/0567_fw.mp4	0.0	337.7205591201782	
75	317.07223105430603	movie	1		244	73.0	2.5	/experiments/knapen_AOT/AOT_stimuli/rescaled_final/0567_fw.mp4	0.0	338.1446511745453	2.5003650188446045
75	318.2483320236206	pulse	1	t		73.0	2.5	/experiments/knapen_AOT/AOT_stimuli/rescaled_final/0567_fw.mp4	0.0	339.32075214385986	
75	319.57259607315063	fix_post	2		12	73.0	2.5	/experiments/knapen_AOT/AOT_stimuli/rescaled_final/0567_fw.mp4	0.0	340.6450161933899	0.10006999969482422
76	319.67266607284546	fix_pre	0		120	74.0	2.5	/experiments/knapen_AOT/AOT_stimuli/rescaled_final/1427_fw.mp4	0.0	340.7450861930847	1.0001070499420166
76	319.84777903556824	pulse	0	t		74.0	2.5	/experiments/knapen_AOT/AOT_stimuli/rescaled_final/1427_fw.mp4	0.0	340.9201991558075	
76	320.6727731227875	movie	1		248	74.0	2.5	/experiments/knapen_AOT/AOT_stimuli/rescaled_final/1427_fw.mp4	0.0	341.74519324302673	2.50036883354187
76	321.4480149745941	pulse	1	t		74.0	2.5	/experiments/knapen_AOT/AOT_stimuli/rescaled_final/1427_fw.mp4	0.0	342.5204350948334	
76	323.04847407341003	pulse	1	t		74.0	2.5	/experiments/knapen_AOT/AOT_stimuli/rescaled_final/1427_fw.mp4	0.0	344.1208941936493	
76	323.17314195632935	fix_post	2		12	74.0	2.5	/experiments/knapen_AOT/AOT_stimuli/rescaled_final/1427_fw.mp4	0.0	344.2455620765686	0.10004019737243652
77	323.2731821537018	fix_pre	0		119	75.0	2.5	/experiments/knapen_AOT/AOT_stimuli/rescaled_final/0803_fw.mp4	0.0	344.34560227394104	0.9918339252471924
77	324.265016078949	movie	1		243	75.0	2.5	/experiments/knapen_AOT/AOT_stimuli/rescaled_final/0803_fw.mp4	0.0	345.33743619918823	2.500324010848999
77	324.6488411426544	pulse	1	t		75.0	2.5	/experiments/knapen_AOT/AOT_stimuli/rescaled_final/0803_fw.mp4	0.0	345.7212612628937	
77	326.24894094467163	pulse	1	t		75.0	2.5	/experiments/knapen_AOT/AOT_stimuli/rescaled_final/0803_fw.mp4	0.0	347.3213610649109	
77	326.765340089798	fix_post	2		12	75.0	2.5	/experiments/knapen_AOT/AOT_stimuli/rescaled_final/0803_fw.mp4	0.0	347.83776021003723	0.10004305839538574
78	326.86538314819336	fix_pre	0		116	76.0	2.5	/experiments/knapen_AOT/AOT_stimuli/rescaled_final/1265_fw.mp4	0.0	347.9378032684326	0.9918069839477539
78	327.848974943161	pulse	0	t		76.0	2.5	/experiments/knapen_AOT/AOT_stimuli/rescaled_final/1265_fw.mp4	0.0	348.92139506340027	
78	327.8571901321411	movie	1		244	76.0	2.5	/experiments/knapen_AOT/AOT_stimuli/rescaled_final/1265_fw.mp4	0.0	348.92961025238037	2.5086758136749268
78	329.45374512672424	pulse	1	t		76.0	2.5	/experiments/knapen_AOT/AOT_stimuli/rescaled_final/1265_fw.mp4	0.0	350.5261652469635	
78	330.36586594581604	fix_post	2		12	76.0	2.5	/experiments/knapen_AOT/AOT_stimuli/rescaled_final/1265_fw.mp4	0.0	351.4382860660553	0.10002303123474121
79	330.4658889770508	fix_pre	0		120	77.0	2.5	blank	1.0	351.53830909729004	1.0001640319824219
79	331.0496520996094	pulse	0	t		77.0	2.5	blank	1.0	352.12207221984863	
79	331.4660530090332	movie	1		300	77.0	2.5	blank	1.0	352.53847312927246	2.5004050731658936
79	332.64987206459045	pulse	1	t		77.0	2.5	blank	1.0	353.7222921848297	
79	333.9664580821991	fix_post	2		12	77.0	2.5	blank	1.0	355.03887820243835	0.1000819206237793
80	334.0665400028229	fix_pre	0		120	78.0	2.5	/experiments/knapen_AOT/AOT_stimuli/rescaled_final/2137_fw.mp4	0.0	355.13896012306213	1.0000691413879395
80	334.2499620914459	pulse	0	t		78.0	2.5	/experiments/knapen_AOT/AOT_stimuli/rescaled_final/2137_fw.mp4	0.0	355.3223822116852	
80	335.0666091442108	movie	1		244	78.0	2.5	/experiments/knapen_AOT/AOT_stimuli/rescaled_final/2137_fw.mp4	0.0	356.1390292644501	2.5003509521484375
80	335.8502061367035	pulse	1	t		78.0	2.5	/experiments/knapen_AOT/AOT_stimuli/rescaled_final/2137_fw.mp4	0.0	356.92262625694275	
80	337.45039892196655	pulse	1	t		78.0	2.5	/experiments/knapen_AOT/AOT_stimuli/rescaled_final/2137_fw.mp4	0.0	358.5228190422058	
80	337.56696009635925	fix_post	2		12	78.0	2.5	/experiments/knapen_AOT/AOT_stimuli/rescaled_final/2137_fw.mp4	0.0	358.6393802165985	0.10002589225769043
81	337.66698598861694	fix_pre	0		119	79.0	2.5	/experiments/knapen_AOT/AOT_stimuli/rescaled_final/2107_fw.mp4	0.0	358.7394061088562	0.9918539524078369
81	338.6588399410248	movie	1		248	79.0	2.5	/experiments/knapen_AOT/AOT_stimuli/rescaled_final/2107_fw.mp4	0.0	359.73126006126404	2.500293016433716
81	339.0507929325104	pulse	1	t		79.0	2.5	/experiments/knapen_AOT/AOT_stimuli/rescaled_final/2107_fw.mp4	0.0	360.12321305274963	
81	340.6509599685669	pulse	1	t		79.0	2.5	/experiments/knapen_AOT/AOT_stimuli/rescaled_final/2107_fw.mp4	0.0	361.72338008880615	
81	341.1591329574585	fix_post	2		12	79.0	2.5	/experiments/knapen_AOT/AOT_stimuli/rescaled_final/2107_fw.mp4	0.0	362.23155307769775	0.1000521183013916
82	341.2591850757599	fix_pre	0		120	80.0	2.5	/experiments/knapen_AOT/AOT_stimuli/rescaled_final/1692_rv.mp4	0.0	362.33160519599915	1.0001540184020996
82	342.2511761188507	pulse	0	t		80.0	2.5	/experiments/knapen_AOT/AOT_stimuli/rescaled_final/1692_rv.mp4	0.0	363.32359623908997	
82	342.259339094162	movie	1		244	80.0	2.5	/experiments/knapen_AOT/AOT_stimuli/rescaled_final/1692_rv.mp4	0.0	363.33175921440125	2.5086569786071777
82	343.8525640964508	pulse	1	t		80.0	2.5	/experiments/knapen_AOT/AOT_stimuli/rescaled_final/1692_rv.mp4	0.0	364.92498421669006	
82	344.76799607276917	fix_post	2		12	80.0	2.5	/experiments/knapen_AOT/AOT_stimuli/rescaled_final/1692_rv.mp4	0.0	365.8404161930084	0.10004186630249023
83	344.86803793907166	fix_pre	0		120	81.0	2.5	/experiments/knapen_AOT/AOT_stimuli/rescaled_final/1671_rv.mp4	0.0	365.9404580593109	1.000150203704834
83	345.4517641067505	pulse	0	t		81.0	2.5	/experiments/knapen_AOT/AOT_stimuli/rescaled_final/1671_rv.mp4	0.0	366.52418422698975	
83	345.8681881427765	movie	1		244	81.0	2.5	/experiments/knapen_AOT/AOT_stimuli/rescaled_final/1671_rv.mp4	0.0	366.94060826301575	2.5004448890686035
83	347.0520601272583	pulse	1	t		81.0	2.5	/experiments/knapen_AOT/AOT_stimuli/rescaled_final/1671_rv.mp4	0.0	368.12448024749756	
83	348.3686330318451	fix_post	2		12	81.0	2.5	/experiments/knapen_AOT/AOT_stimuli/rescaled_final/1671_rv.mp4	0.0	369.44105315208435	0.09994101524353027
84	348.4685740470886	fix_pre	0		120	82.0	2.5	blank	1.0	369.5409941673279	1.0001709461212158
84	348.6520800590515	pulse	0	t		82.0	2.5	blank	1.0	369.72450017929077	
84	349.46874499320984	movie	1		300	82.0	2.5	blank	1.0	370.5411651134491	2.500365972518921
84	350.2523810863495	pulse	1	t		82.0	2.5	blank	1.0	371.32480120658875	
84	351.8527319431305	pulse	1	t		82.0	2.5	blank	1.0	372.92515206336975	
84	351.96911096572876	fix_post	2		12	82.0	2.5	blank	1.0	373.041531085968	0.10000395774841309
85	352.0691149234772	fix_pre	0		120	83.0	2.5	/experiments/knapen_AOT/AOT_stimuli/rescaled_final/1186_rv.mp4	0.0	373.14153504371643	1.0001890659332275
85	353.0693039894104	movie	1		245	83.0	2.5	/experiments/knapen_AOT/AOT_stimuli/rescaled_final/1186_rv.mp4	0.0	374.14172410964966	2.491978168487549
85	353.45736813545227	pulse	1	t		83.0	2.5	/experiments/knapen_AOT/AOT_stimuli/rescaled_final/1186_rv.mp4	0.0	374.5297882556915	
85	355.0531370639801	pulse	1	t		83.0	2.5	/experiments/knapen_AOT/AOT_stimuli/rescaled_final/1186_rv.mp4	0.0	376.12555718421936	
85	355.56128215789795	fix_post	2		12	83.0	2.5	/experiments/knapen_AOT/AOT_stimuli/rescaled_final/1186_rv.mp4	0.0	376.6337022781372	0.10006093978881836
87	355.66134309768677	stim	0		1716					376.733763217926	14.302173852920532
87	356.6533601284027	pulse	0	t						377.72578024864197	
87	358.25358510017395	pulse	0	t						379.3260052204132	
87	359.8538439273834	pulse	0	t						380.9262640476227	
87	361.4540550708771	pulse	0	t						382.52647519111633	
87	363.04698395729065	pulse	0	t						384.1194040775299	
87	364.6472201347351	pulse	0	t						385.71964025497437	
87	366.2474751472473	pulse	0	t						387.3198952674866	
87	367.8476960659027	pulse	0	t						388.92011618614197	
87	369.4479229450226	pulse	0	t						390.52034306526184	
