trial_nr	onset	event_type	phase	response	nr_frames	movie_index	movie_duration	movie_file	blank	onset_abs	duration
0	0.14145970344543457	stim	0		75					20.31861639022827	0.62497878074646
0	0.7583572864532471	response	0	space						20.935513973236084	
1	0.7664384841918945	stim	0		4623					20.94359517097473	38.53915977478027
1	39.29581618309021	pulse	0	t						59.47297286987305	
1	39.30559825897217	stim	1		1715					59.482754945755005	14.302148818969727
1	40.88939118385315	pulse	1	t						61.066547870635986	
1	42.489601850509644	pulse	1	t						62.66675853729248	
1	44.089871883392334	pulse	1	t						64.26702857017517	
1	45.690104484558105	pulse	1	t						65.86726117134094	
1	47.2903847694397	pulse	1	t						67.46754145622253	
1	48.89053130149841	pulse	1	t						69.06768798828125	
1	50.49084734916687	pulse	1	t						70.6680040359497	
1	52.09118342399597	pulse	1	t						72.26834011077881	
2	53.607747077941895	fix_pre	0		11	0.0	2.5	/experiments/Knapen_AOT/AOT_stimuli/rescaled_final/0100_rv.mp4	0.0	73.78490376472473	0.10837030410766602
2	53.691269636154175	pulse	0	t		0.0	2.5	/experiments/Knapen_AOT/AOT_stimuli/rescaled_final/0100_rv.mp4	0.0	73.86842632293701	
2	53.71611738204956	movie	1		290	0.0	2.5	/experiments/Knapen_AOT/AOT_stimuli/rescaled_final/0100_rv.mp4	0.0	73.8932740688324	2.4921793937683105
2	55.28980994224548	pulse	1	t		0.0	2.5	/experiments/Knapen_AOT/AOT_stimuli/rescaled_final/0100_rv.mp4	0.0	75.46696662902832	
2	56.20829677581787	fix_post	2		12	0.0	2.5	/experiments/Knapen_AOT/AOT_stimuli/rescaled_final/0100_rv.mp4	0.0	76.38545346260071	0.09985947608947754
3	56.30815625190735	fix_pre	0		120	1.0	2.5	/experiments/Knapen_AOT/AOT_stimuli/rescaled_final/2014_rv.mp4	0.0	76.48531293869019	1.0084834098815918
3	56.89179491996765	pulse	0	t		1.0	2.5	/experiments/Knapen_AOT/AOT_stimuli/rescaled_final/2014_rv.mp4	0.0	77.06895160675049	
3	57.31663966178894	movie	1		291	1.0	2.5	/experiments/Knapen_AOT/AOT_stimuli/rescaled_final/2014_rv.mp4	0.0	77.49379634857178	2.4922358989715576
3	58.489808797836304	pulse	1	t		1.0	2.5	/experiments/Knapen_AOT/AOT_stimuli/rescaled_final/2014_rv.mp4	0.0	78.66696548461914	
3	59.8088755607605	fix_post	2		12	1.0	2.5	/experiments/Knapen_AOT/AOT_stimuli/rescaled_final/2014_rv.mp4	0.0	79.98603224754333	0.09980463981628418
4	59.90868020057678	fix_pre	0		120	2.0	2.5	/experiments/Knapen_AOT/AOT_stimuli/rescaled_final/2055_fw.mp4	0.0	80.08583688735962	1.0085158348083496
4	60.09224987030029	pulse	0	t		2.0	2.5	/experiments/Knapen_AOT/AOT_stimuli/rescaled_final/2055_fw.mp4	0.0	80.26940655708313	
4	60.91719603538513	movie	1		281	2.0	2.5	/experiments/Knapen_AOT/AOT_stimuli/rescaled_final/2055_fw.mp4	0.0	81.09435272216797	2.49200439453125
4	61.69053411483765	pulse	1	t		2.0	2.5	/experiments/Knapen_AOT/AOT_stimuli/rescaled_final/2055_fw.mp4	0.0	81.86769080162048	
4	63.29100275039673	pulse	1	t		2.0	2.5	/experiments/Knapen_AOT/AOT_stimuli/rescaled_final/2055_fw.mp4	0.0	83.46815943717957	
4	63.40920042991638	fix_post	2		12	2.0	2.5	/experiments/Knapen_AOT/AOT_stimuli/rescaled_final/2055_fw.mp4	0.0	83.58635711669922	0.10006475448608398
5	63.509265184402466	fix_pre	0		120	3.0	2.5	/experiments/Knapen_AOT/AOT_stimuli/rescaled_final/0896_rv.mp4	0.0	83.6864218711853	1.0084571838378906
5	64.51772236824036	movie	1		280	3.0	2.5	/experiments/Knapen_AOT/AOT_stimuli/rescaled_final/0896_rv.mp4	0.0	84.6948790550232	2.4920313358306885
5	64.88506603240967	pulse	1	t		3.0	2.5	/experiments/Knapen_AOT/AOT_stimuli/rescaled_final/0896_rv.mp4	0.0	85.0622227191925	
5	66.4849648475647	pulse	1	t		3.0	2.5	/experiments/Knapen_AOT/AOT_stimuli/rescaled_final/0896_rv.mp4	0.0	86.66212153434753	
5	67.00975370407104	fix_post	2		12	3.0	2.5	/experiments/Knapen_AOT/AOT_stimuli/rescaled_final/0896_rv.mp4	0.0	87.18691039085388	0.10004615783691406
6	67.10979986190796	fix_pre	0		118	4.0	2.5	/experiments/Knapen_AOT/AOT_stimuli/rescaled_final/0435_rv.mp4	0.0	87.2869565486908	0.9918210506439209
6	68.0852882862091	pulse	0	t		4.0	2.5	/experiments/Knapen_AOT/AOT_stimuli/rescaled_final/0435_rv.mp4	0.0	88.26244497299194	
6	68.10162091255188	movie	1		287	4.0	2.5	/experiments/Knapen_AOT/AOT_stimuli/rescaled_final/0435_rv.mp4	0.0	88.27877759933472	2.5003693103790283
6	69.68545126914978	pulse	1	t		4.0	2.5	/experiments/Knapen_AOT/AOT_stimuli/rescaled_final/0435_rv.mp4	0.0	89.86260795593262	
6	70.60199022293091	fix_post	2		12	4.0	2.5	/experiments/Knapen_AOT/AOT_stimuli/rescaled_final/0435_rv.mp4	0.0	90.77914690971375	0.10000157356262207
7	70.70199179649353	fix_pre	0		120	5.0	2.5	blank	1.0	90.87914848327637	1.00018310546875
7	71.28561854362488	pulse	0	t		5.0	2.5	blank	1.0	91.46277523040771	
7	71.70217490196228	movie	1		300	5.0	2.5	blank	1.0	91.87933158874512	2.5003914833068848
7	72.88584804534912	pulse	1	t		5.0	2.5	blank	1.0	93.06300473213196	
7	74.20256638526917	fix_post	2		12	5.0	2.5	blank	1.0	94.379723072052	0.10001158714294434
8	74.30257797241211	fix_pre	0		120	6.0	2.5	/experiments/Knapen_AOT/AOT_stimuli/rescaled_final/0027_rv.mp4	0.0	94.47973465919495	1.0085017681121826
8	74.48612928390503	pulse	0	t		6.0	2.5	/experiments/Knapen_AOT/AOT_stimuli/rescaled_final/0027_rv.mp4	0.0	94.66328597068787	
8	75.31107974052429	movie	1		289	6.0	2.5	/experiments/Knapen_AOT/AOT_stimuli/rescaled_final/0027_rv.mp4	0.0	95.48823642730713	2.491966724395752
8	76.08630752563477	pulse	1	t		6.0	2.5	/experiments/Knapen_AOT/AOT_stimuli/rescaled_final/0027_rv.mp4	0.0	96.2634642124176	
8	77.68664050102234	pulse	1	t		6.0	2.5	/experiments/Knapen_AOT/AOT_stimuli/rescaled_final/0027_rv.mp4	0.0	97.86379718780518	
8	77.80304646492004	fix_post	2		12	6.0	2.5	/experiments/Knapen_AOT/AOT_stimuli/rescaled_final/0027_rv.mp4	0.0	97.98020315170288	0.10002565383911133
9	77.90307211875916	fix_pre	0		120	7.0	2.5	/experiments/Knapen_AOT/AOT_stimuli/rescaled_final/1668_rv.mp4	0.0	98.08022880554199	1.008512258529663
9	78.91158437728882	movie	1		286	7.0	2.5	/experiments/Knapen_AOT/AOT_stimuli/rescaled_final/1668_rv.mp4	0.0	99.08874106407166	2.4919910430908203
9	79.28540968894958	pulse	1	t		7.0	2.5	/experiments/Knapen_AOT/AOT_stimuli/rescaled_final/1668_rv.mp4	0.0	99.46256637573242	
9	80.88704252243042	pulse	1	t		7.0	2.5	/experiments/Knapen_AOT/AOT_stimuli/rescaled_final/1668_rv.mp4	0.0	101.06419920921326	
9	81.40357542037964	fix_post	2		12	7.0	2.5	/experiments/Knapen_AOT/AOT_stimuli/rescaled_final/1668_rv.mp4	0.0	101.58073210716248	0.10003328323364258
10	81.50360870361328	fix_pre	0		119	8.0	2.5	/experiments/Knapen_AOT/AOT_stimuli/rescaled_final/0587_fw.mp4	0.0	101.68076539039612	1.0001885890960693
10	82.48730397224426	pulse	0	t		8.0	2.5	/experiments/Knapen_AOT/AOT_stimuli/rescaled_final/0587_fw.mp4	0.0	102.6644606590271	
10	82.50379729270935	movie	1		291	8.0	2.5	/experiments/Knapen_AOT/AOT_stimuli/rescaled_final/0587_fw.mp4	0.0	102.68095397949219	2.50034499168396
10	84.08609127998352	pulse	1	t		8.0	2.5	/experiments/Knapen_AOT/AOT_stimuli/rescaled_final/0587_fw.mp4	0.0	104.26324796676636	
10	85.00414228439331	fix_post	2		12	8.0	2.5	/experiments/Knapen_AOT/AOT_stimuli/rescaled_final/0587_fw.mp4	0.0	105.18129897117615	0.10001897811889648
11	85.1041612625122	fix_pre	0		120	9.0	2.5	/experiments/Knapen_AOT/AOT_stimuli/rescaled_final/0041_rv.mp4	0.0	105.28131794929504	1.0084750652313232
11	85.68804025650024	pulse	0	t		9.0	2.5	/experiments/Knapen_AOT/AOT_stimuli/rescaled_final/0041_rv.mp4	0.0	105.86519694328308	
11	86.11263632774353	movie	1		284	9.0	2.5	/experiments/Knapen_AOT/AOT_stimuli/rescaled_final/0041_rv.mp4	0.0	106.28979301452637	2.492020845413208
11	87.28700137138367	pulse	1	t		9.0	2.5	/experiments/Knapen_AOT/AOT_stimuli/rescaled_final/0041_rv.mp4	0.0	107.4641580581665	
11	88.60465717315674	fix_post	2		12	9.0	2.5	/experiments/Knapen_AOT/AOT_stimuli/rescaled_final/0041_rv.mp4	0.0	108.78181385993958	0.10003376007080078
12	88.70469093322754	fix_pre	0		120	10.0	2.5	/experiments/Knapen_AOT/AOT_stimuli/rescaled_final/2012_fw.mp4	0.0	108.88184762001038	1.0085337162017822
12	88.88826060295105	pulse	0	t		10.0	2.5	/experiments/Knapen_AOT/AOT_stimuli/rescaled_final/2012_fw.mp4	0.0	109.06541728973389	
12	89.71322464942932	movie	1		283	10.0	2.5	/experiments/Knapen_AOT/AOT_stimuli/rescaled_final/2012_fw.mp4	0.0	109.89038133621216	2.492039442062378
12	90.48859906196594	pulse	1	t		10.0	2.5	/experiments/Knapen_AOT/AOT_stimuli/rescaled_final/2012_fw.mp4	0.0	110.66575574874878	
12	92.0866768360138	pulse	1	t		10.0	2.5	/experiments/Knapen_AOT/AOT_stimuli/rescaled_final/2012_fw.mp4	0.0	112.26383352279663	
12	92.2052640914917	fix_post	2		12	10.0	2.5	/experiments/Knapen_AOT/AOT_stimuli/rescaled_final/2012_fw.mp4	0.0	112.38242077827454	0.10001015663146973
13	92.30527424812317	fix_pre	0		120	11.0	2.5	/experiments/Knapen_AOT/AOT_stimuli/rescaled_final/0008_fw.mp4	0.0	112.482430934906	1.008491039276123
13	93.31376528739929	movie	1		289	11.0	2.5	/experiments/Knapen_AOT/AOT_stimuli/rescaled_final/0008_fw.mp4	0.0	113.49092197418213	2.491994857788086
13	93.68696022033691	pulse	1	t		11.0	2.5	/experiments/Knapen_AOT/AOT_stimuli/rescaled_final/0008_fw.mp4	0.0	113.86411690711975	
13	95.28718042373657	pulse	1	t		11.0	2.5	/experiments/Knapen_AOT/AOT_stimuli/rescaled_final/0008_fw.mp4	0.0	115.46433711051941	
13	95.80576014518738	fix_post	2		12	11.0	2.5	/experiments/Knapen_AOT/AOT_stimuli/rescaled_final/0008_fw.mp4	0.0	115.98291683197021	0.10000419616699219
14	95.90576434135437	fix_pre	0		119	12.0	2.5	/experiments/Knapen_AOT/AOT_stimuli/rescaled_final/1530_fw.mp4	0.0	116.0829210281372	1.0001599788665771
14	96.88946104049683	pulse	0	t		12.0	2.5	/experiments/Knapen_AOT/AOT_stimuli/rescaled_final/1530_fw.mp4	0.0	117.06661772727966	
14	96.90592432022095	movie	1		281	12.0	2.5	/experiments/Knapen_AOT/AOT_stimuli/rescaled_final/1530_fw.mp4	0.0	117.08308100700378	2.5003583431243896
14	98.48836612701416	pulse	1	t		12.0	2.5	/experiments/Knapen_AOT/AOT_stimuli/rescaled_final/1530_fw.mp4	0.0	118.665522813797	
14	99.40628266334534	fix_post	2		12	12.0	2.5	/experiments/Knapen_AOT/AOT_stimuli/rescaled_final/1530_fw.mp4	0.0	119.58343935012817	0.10004401206970215
15	99.50632667541504	fix_pre	0		120	13.0	2.5	blank	1.0	119.68348336219788	1.0002038478851318
15	100.0899498462677	pulse	0	t		13.0	2.5	blank	1.0	120.26710653305054	
15	100.50653052330017	movie	1		300	13.0	2.5	blank	1.0	120.68368721008301	2.500298500061035
15	101.69021368026733	pulse	1	t		13.0	2.5	blank	1.0	121.86737036705017	
15	103.0068290233612	fix_post	2		12	13.0	2.5	blank	1.0	123.18398571014404	0.10002732276916504
16	103.10685634613037	fix_pre	0		120	14.0	2.5	/experiments/Knapen_AOT/AOT_stimuli/rescaled_final/0916_rv.mp4	0.0	123.28401303291321	1.008591651916504
16	103.2904052734375	pulse	0	t		14.0	2.5	/experiments/Knapen_AOT/AOT_stimuli/rescaled_final/0916_rv.mp4	0.0	123.46756196022034	
16	104.11544799804688	movie	1		284	14.0	2.5	/experiments/Knapen_AOT/AOT_stimuli/rescaled_final/0916_rv.mp4	0.0	124.29260468482971	2.4919850826263428
16	104.88864326477051	pulse	1	t		14.0	2.5	/experiments/Knapen_AOT/AOT_stimuli/rescaled_final/0916_rv.mp4	0.0	125.06579995155334	
16	106.4887490272522	pulse	1	t		14.0	2.5	/experiments/Knapen_AOT/AOT_stimuli/rescaled_final/0916_rv.mp4	0.0	126.66590571403503	
16	106.60743308067322	fix_post	2		12	14.0	2.5	/experiments/Knapen_AOT/AOT_stimuli/rescaled_final/0916_rv.mp4	0.0	126.78458976745605	0.10004401206970215
17	106.70747709274292	fix_pre	0		120	15.0	2.5	/experiments/Knapen_AOT/AOT_stimuli/rescaled_final/1483_rv.mp4	0.0	126.88463377952576	1.0084724426269531
17	107.71594953536987	movie	1		287	15.0	2.5	/experiments/Knapen_AOT/AOT_stimuli/rescaled_final/1483_rv.mp4	0.0	127.89310622215271	2.491990804672241
17	108.09094643592834	pulse	1	t		15.0	2.5	/experiments/Knapen_AOT/AOT_stimuli/rescaled_final/1483_rv.mp4	0.0	128.26810312271118	
17	109.68935227394104	pulse	1	t		15.0	2.5	/experiments/Knapen_AOT/AOT_stimuli/rescaled_final/1483_rv.mp4	0.0	129.86650896072388	
17	110.20794034004211	fix_post	2		12	15.0	2.5	/experiments/Knapen_AOT/AOT_stimuli/rescaled_final/1483_rv.mp4	0.0	130.38509702682495	0.10001921653747559
18	110.30795955657959	fix_pre	0		119	16.0	2.5	/experiments/Knapen_AOT/AOT_stimuli/rescaled_final/1715_fw.mp4	0.0	130.48511624336243	1.0001556873321533
18	111.29163670539856	pulse	0	t		16.0	2.5	/experiments/Knapen_AOT/AOT_stimuli/rescaled_final/1715_fw.mp4	0.0	131.4687933921814	
18	111.30811524391174	movie	1		290	16.0	2.5	/experiments/Knapen_AOT/AOT_stimuli/rescaled_final/1715_fw.mp4	0.0	131.48527193069458	2.5003864765167236
18	112.89042830467224	pulse	1	t		16.0	2.5	/experiments/Knapen_AOT/AOT_stimuli/rescaled_final/1715_fw.mp4	0.0	133.06758499145508	
18	113.80850172042847	fix_post	2		12	16.0	2.5	/experiments/Knapen_AOT/AOT_stimuli/rescaled_final/1715_fw.mp4	0.0	133.9856584072113	0.09998798370361328
19	113.90848970413208	fix_pre	0		120	17.0	2.5	/experiments/Knapen_AOT/AOT_stimuli/rescaled_final/1670_rv.mp4	0.0	134.08564639091492	1.008514165878296
19	114.49210500717163	pulse	0	t		17.0	2.5	/experiments/Knapen_AOT/AOT_stimuli/rescaled_final/1670_rv.mp4	0.0	134.66926169395447	
19	114.91700387001038	movie	1		283	17.0	2.5	/experiments/Knapen_AOT/AOT_stimuli/rescaled_final/1670_rv.mp4	0.0	135.0941605567932	2.4920129776000977
19	116.09038925170898	pulse	1	t		17.0	2.5	/experiments/Knapen_AOT/AOT_stimuli/rescaled_final/1670_rv.mp4	0.0	136.26754593849182	
19	117.40901684761047	fix_post	2		12	17.0	2.5	/experiments/Knapen_AOT/AOT_stimuli/rescaled_final/1670_rv.mp4	0.0	137.5861735343933	0.10001993179321289
20	117.50903677940369	fix_pre	0		120	18.0	2.5	/experiments/Knapen_AOT/AOT_stimuli/rescaled_final/1177_rv.mp4	0.0	137.68619346618652	1.0085444450378418
20	117.69266271591187	pulse	0	t		18.0	2.5	/experiments/Knapen_AOT/AOT_stimuli/rescaled_final/1177_rv.mp4	0.0	137.8698194026947	
20	118.51758122444153	movie	1		273	18.0	2.5	/experiments/Knapen_AOT/AOT_stimuli/rescaled_final/1177_rv.mp4	0.0	138.69473791122437	2.4920432567596436
20	119.29106283187866	pulse	1	t		18.0	2.5	/experiments/Knapen_AOT/AOT_stimuli/rescaled_final/1177_rv.mp4	0.0	139.4682195186615	
20	120.89169239997864	pulse	1	t		18.0	2.5	/experiments/Knapen_AOT/AOT_stimuli/rescaled_final/1177_rv.mp4	0.0	141.06884908676147	
20	121.00962448120117	fix_post	2		12	18.0	2.5	/experiments/Knapen_AOT/AOT_stimuli/rescaled_final/1177_rv.mp4	0.0	141.186781167984	0.09994196891784668
21	121.10956645011902	fix_pre	0		120	19.0	2.5	/experiments/Knapen_AOT/AOT_stimuli/rescaled_final/0288_fw.mp4	0.0	141.28672313690186	1.0085029602050781
21	122.1180694103241	movie	1		288	19.0	2.5	/experiments/Knapen_AOT/AOT_stimuli/rescaled_final/0288_fw.mp4	0.0	142.29522609710693	2.4920806884765625
21	122.48548698425293	pulse	1	t		19.0	2.5	/experiments/Knapen_AOT/AOT_stimuli/rescaled_final/0288_fw.mp4	0.0	142.66264367103577	
21	124.08537817001343	pulse	1	t		19.0	2.5	/experiments/Knapen_AOT/AOT_stimuli/rescaled_final/0288_fw.mp4	0.0	144.26253485679626	
21	124.61015009880066	fix_post	2		12	19.0	2.5	/experiments/Knapen_AOT/AOT_stimuli/rescaled_final/0288_fw.mp4	0.0	144.7873067855835	0.09995841979980469
22	124.71010851860046	fix_pre	0		118	20.0	2.5	/experiments/Knapen_AOT/AOT_stimuli/rescaled_final/1887_fw.mp4	0.0	144.8872652053833	0.9918198585510254
22	125.6854498386383	pulse	0	t		20.0	2.5	/experiments/Knapen_AOT/AOT_stimuli/rescaled_final/1887_fw.mp4	0.0	145.86260652542114	
22	125.70192837715149	movie	1		287	20.0	2.5	/experiments/Knapen_AOT/AOT_stimuli/rescaled_final/1887_fw.mp4	0.0	145.87908506393433	2.5003726482391357
22	127.28573274612427	pulse	1	t		20.0	2.5	/experiments/Knapen_AOT/AOT_stimuli/rescaled_final/1887_fw.mp4	0.0	147.4628894329071	
22	128.20230102539062	fix_post	2		12	20.0	2.5	/experiments/Knapen_AOT/AOT_stimuli/rescaled_final/1887_fw.mp4	0.0	148.37945771217346	0.10001873970031738
23	128.30231976509094	fix_pre	0		120	21.0	2.5	blank	1.0	148.47947645187378	1.0001351833343506
23	128.885968208313	pulse	0	t		21.0	2.5	blank	1.0	149.06312489509583	
23	129.3024549484253	movie	1		300	21.0	2.5	blank	1.0	149.47961163520813	2.500408411026001
23	130.48648881912231	pulse	1	t		21.0	2.5	blank	1.0	150.66364550590515	
23	131.8028633594513	fix_post	2		12	21.0	2.5	blank	1.0	151.98002004623413	0.10003042221069336
24	131.902893781662	fix_pre	0		120	22.0	2.5	/experiments/Knapen_AOT/AOT_stimuli/rescaled_final/1472_fw.mp4	0.0	152.08005046844482	1.0085384845733643
24	132.08645224571228	pulse	0	t		22.0	2.5	/experiments/Knapen_AOT/AOT_stimuli/rescaled_final/1472_fw.mp4	0.0	152.26360893249512	
24	132.91143226623535	movie	1		274	22.0	2.5	/experiments/Knapen_AOT/AOT_stimuli/rescaled_final/1472_fw.mp4	0.0	153.0885889530182	2.4919393062591553
24	133.68704676628113	pulse	1	t		22.0	2.5	/experiments/Knapen_AOT/AOT_stimuli/rescaled_final/1472_fw.mp4	0.0	153.86420345306396	
24	135.28693914413452	pulse	1	t		22.0	2.5	/experiments/Knapen_AOT/AOT_stimuli/rescaled_final/1472_fw.mp4	0.0	155.46409583091736	
24	135.4033715724945	fix_post	2		12	22.0	2.5	/experiments/Knapen_AOT/AOT_stimuli/rescaled_final/1472_fw.mp4	0.0	155.58052825927734	0.10002660751342773
25	135.50339818000793	fix_pre	0		120	23.0	2.5	/experiments/Knapen_AOT/AOT_stimuli/rescaled_final/1595_fw.mp4	0.0	155.68055486679077	1.008528470993042
25	136.51192665100098	movie	1		285	23.0	2.5	/experiments/Knapen_AOT/AOT_stimuli/rescaled_final/1595_fw.mp4	0.0	156.6890833377838	2.492048740386963
25	136.88575077056885	pulse	1	t		23.0	2.5	/experiments/Knapen_AOT/AOT_stimuli/rescaled_final/1595_fw.mp4	0.0	157.06290745735168	
25	138.48552227020264	pulse	1	t		23.0	2.5	/experiments/Knapen_AOT/AOT_stimuli/rescaled_final/1595_fw.mp4	0.0	158.66267895698547	
25	139.00397539138794	fix_post	2		12	23.0	2.5	/experiments/Knapen_AOT/AOT_stimuli/rescaled_final/1595_fw.mp4	0.0	159.18113207817078	0.0999901294708252
26	139.10396552085876	fix_pre	0		119	24.0	2.5	/experiments/Knapen_AOT/AOT_stimuli/rescaled_final/0008_rv.mp4	0.0	159.2811222076416	1.0001232624053955
26	140.08761930465698	pulse	0	t		24.0	2.5	/experiments/Knapen_AOT/AOT_stimuli/rescaled_final/0008_rv.mp4	0.0	160.26477599143982	
26	140.10408878326416	movie	1		290	24.0	2.5	/experiments/Knapen_AOT/AOT_stimuli/rescaled_final/0008_rv.mp4	0.0	160.281245470047	2.5003743171691895
26	141.6861755847931	pulse	1	t		24.0	2.5	/experiments/Knapen_AOT/AOT_stimuli/rescaled_final/0008_rv.mp4	0.0	161.86333227157593	
26	142.60446310043335	fix_post	2		12	24.0	2.5	/experiments/Knapen_AOT/AOT_stimuli/rescaled_final/0008_rv.mp4	0.0	162.7816197872162	0.10003495216369629
27	142.70449805259705	fix_pre	0		120	25.0	2.5	/experiments/Knapen_AOT/AOT_stimuli/rescaled_final/1400_fw.mp4	0.0	162.88165473937988	1.0084915161132812
27	143.28816866874695	pulse	0	t		25.0	2.5	/experiments/Knapen_AOT/AOT_stimuli/rescaled_final/1400_fw.mp4	0.0	163.46532535552979	
27	143.71298956871033	movie	1		293	25.0	2.5	/experiments/Knapen_AOT/AOT_stimuli/rescaled_final/1400_fw.mp4	0.0	163.89014625549316	2.4920618534088135
27	144.886492729187	pulse	1	t		25.0	2.5	/experiments/Knapen_AOT/AOT_stimuli/rescaled_final/1400_fw.mp4	0.0	165.06364941596985	
27	146.20505142211914	fix_post	2		12	25.0	2.5	/experiments/Knapen_AOT/AOT_stimuli/rescaled_final/1400_fw.mp4	0.0	166.38220810890198	0.09997177124023438
28	146.30502319335938	fix_pre	0		120	26.0	2.5	/experiments/Knapen_AOT/AOT_stimuli/rescaled_final/1213_rv.mp4	0.0	166.4821798801422	1.0085644721984863
28	146.48862838745117	pulse	0	t		26.0	2.5	/experiments/Knapen_AOT/AOT_stimuli/rescaled_final/1213_rv.mp4	0.0	166.665785074234	
28	147.31358766555786	movie	1		278	26.0	2.5	/experiments/Knapen_AOT/AOT_stimuli/rescaled_final/1213_rv.mp4	0.0	167.4907443523407	2.491950273513794
28	148.08680033683777	pulse	1	t		26.0	2.5	/experiments/Knapen_AOT/AOT_stimuli/rescaled_final/1213_rv.mp4	0.0	168.2639570236206	
28	149.68729496002197	pulse	1	t		26.0	2.5	/experiments/Knapen_AOT/AOT_stimuli/rescaled_final/1213_rv.mp4	0.0	169.8644516468048	
28	149.80553793907166	fix_post	2		12	26.0	2.5	/experiments/Knapen_AOT/AOT_stimuli/rescaled_final/1213_rv.mp4	0.0	169.9826946258545	0.10000443458557129
29	149.90554237365723	fix_pre	0		120	27.0	2.5	/experiments/Knapen_AOT/AOT_stimuli/rescaled_final/0956_fw.mp4	0.0	170.08269906044006	1.0085172653198242
29	150.91405963897705	movie	1		289	27.0	2.5	/experiments/Knapen_AOT/AOT_stimuli/rescaled_final/0956_fw.mp4	0.0	171.0912163257599	2.4920597076416016
29	151.28751516342163	pulse	1	t		27.0	2.5	/experiments/Knapen_AOT/AOT_stimuli/rescaled_final/0956_fw.mp4	0.0	171.46467185020447	
29	152.88728523254395	pulse	1	t		27.0	2.5	/experiments/Knapen_AOT/AOT_stimuli/rescaled_final/0956_fw.mp4	0.0	173.06444191932678	
29	153.40611934661865	fix_post	2		12	27.0	2.5	/experiments/Knapen_AOT/AOT_stimuli/rescaled_final/0956_fw.mp4	0.0	173.5832760334015	0.10014033317565918
30	153.5062596797943	fix_pre	0		119	28.0	2.5	blank	1.0	173.68341636657715	0.9916951656341553
30	154.49014329910278	pulse	0	t		28.0	2.5	blank	1.0	174.66729998588562	
30	154.49795484542847	movie	1		301	28.0	2.5	blank	1.0	174.6751115322113	2.508664846420288
30	156.0901985168457	pulse	1	t		28.0	2.5	blank	1.0	176.26735520362854	
30	157.00661969184875	fix_post	2		12	28.0	2.5	blank	1.0	177.1837763786316	0.10005021095275879
31	157.1066699028015	fix_pre	0		120	29.0	2.5	/experiments/Knapen_AOT/AOT_stimuli/rescaled_final/0552_fw.mp4	0.0	177.28382658958435	1.0086331367492676
31	157.69031238555908	pulse	0	t		29.0	2.5	/experiments/Knapen_AOT/AOT_stimuli/rescaled_final/0552_fw.mp4	0.0	177.86746907234192	
31	158.11530303955078	movie	1		281	29.0	2.5	/experiments/Knapen_AOT/AOT_stimuli/rescaled_final/0552_fw.mp4	0.0	178.29245972633362	2.491915702819824
31	159.29026889801025	pulse	1	t		29.0	2.5	/experiments/Knapen_AOT/AOT_stimuli/rescaled_final/0552_fw.mp4	0.0	179.4674255847931	
31	160.6072187423706	fix_post	2		12	29.0	2.5	/experiments/Knapen_AOT/AOT_stimuli/rescaled_final/0552_fw.mp4	0.0	180.78437542915344	0.10003376007080078
32	160.7072525024414	fix_pre	0		120	30.0	2.5	/experiments/Knapen_AOT/AOT_stimuli/rescaled_final/1064_rv.mp4	0.0	180.88440918922424	1.0084452629089355
32	160.8907449245453	pulse	0	t		30.0	2.5	/experiments/Knapen_AOT/AOT_stimuli/rescaled_final/1064_rv.mp4	0.0	181.06790161132812	
32	161.71569776535034	movie	1		281	30.0	2.5	/experiments/Knapen_AOT/AOT_stimuli/rescaled_final/1064_rv.mp4	0.0	181.89285445213318	2.4920084476470947
32	162.48888516426086	pulse	1	t		30.0	2.5	/experiments/Knapen_AOT/AOT_stimuli/rescaled_final/1064_rv.mp4	0.0	182.6660418510437	
32	164.08934330940247	pulse	1	t		30.0	2.5	/experiments/Knapen_AOT/AOT_stimuli/rescaled_final/1064_rv.mp4	0.0	184.2664999961853	
32	164.20770621299744	fix_post	2		12	30.0	2.5	/experiments/Knapen_AOT/AOT_stimuli/rescaled_final/1064_rv.mp4	0.0	184.38486289978027	0.10002279281616211
33	164.3077290058136	fix_pre	0		120	31.0	2.5	/experiments/Knapen_AOT/AOT_stimuli/rescaled_final/1638_fw.mp4	0.0	184.48488569259644	1.0084784030914307
33	165.31620740890503	movie	1		286	31.0	2.5	/experiments/Knapen_AOT/AOT_stimuli/rescaled_final/1638_fw.mp4	0.0	185.49336409568787	2.492116928100586
33	165.69001269340515	pulse	1	t		31.0	2.5	/experiments/Knapen_AOT/AOT_stimuli/rescaled_final/1638_fw.mp4	0.0	185.867169380188	
33	167.28982543945312	pulse	1	t		31.0	2.5	/experiments/Knapen_AOT/AOT_stimuli/rescaled_final/1638_fw.mp4	0.0	187.46698212623596	
33	167.80832433700562	fix_post	2		12	31.0	2.5	/experiments/Knapen_AOT/AOT_stimuli/rescaled_final/1638_fw.mp4	0.0	187.98548102378845	0.09996557235717773
34	167.9082899093628	fix_pre	0		119	32.0	2.5	/experiments/Knapen_AOT/AOT_stimuli/rescaled_final/1162_fw.mp4	0.0	188.08544659614563	1.000115156173706
34	168.8920681476593	pulse	0	t		32.0	2.5	/experiments/Knapen_AOT/AOT_stimuli/rescaled_final/1162_fw.mp4	0.0	189.06922483444214	
34	168.9084050655365	movie	1		284	32.0	2.5	/experiments/Knapen_AOT/AOT_stimuli/rescaled_final/1162_fw.mp4	0.0	189.08556175231934	2.500382900238037
34	170.49067401885986	pulse	1	t		32.0	2.5	/experiments/Knapen_AOT/AOT_stimuli/rescaled_final/1162_fw.mp4	0.0	190.6678307056427	
34	171.40878796577454	fix_post	2		12	32.0	2.5	/experiments/Knapen_AOT/AOT_stimuli/rescaled_final/1162_fw.mp4	0.0	191.58594465255737	0.10002756118774414
35	171.50881552696228	fix_pre	0		120	33.0	2.5	/experiments/Knapen_AOT/AOT_stimuli/rescaled_final/1091_rv.mp4	0.0	191.68597221374512	1.0084736347198486
35	172.08530282974243	pulse	0	t		33.0	2.5	/experiments/Knapen_AOT/AOT_stimuli/rescaled_final/1091_rv.mp4	0.0	192.26245951652527	
35	172.51728916168213	movie	1		279	33.0	2.5	/experiments/Knapen_AOT/AOT_stimuli/rescaled_final/1091_rv.mp4	0.0	192.69444584846497	2.4922471046447754
35	173.69061613082886	pulse	1	t		33.0	2.5	/experiments/Knapen_AOT/AOT_stimuli/rescaled_final/1091_rv.mp4	0.0	193.8677728176117	
35	175.0095362663269	fix_post	2		12	33.0	2.5	/experiments/Knapen_AOT/AOT_stimuli/rescaled_final/1091_rv.mp4	0.0	195.18669295310974	0.09984874725341797
36	175.10938501358032	fix_pre	0		120	34.0	2.5	/experiments/Knapen_AOT/AOT_stimuli/rescaled_final/1405_fw.mp4	0.0	195.28654170036316	1.008561611175537
36	175.28465008735657	pulse	0	t		34.0	2.5	/experiments/Knapen_AOT/AOT_stimuli/rescaled_final/1405_fw.mp4	0.0	195.4618067741394	
36	176.11794662475586	movie	1		283	34.0	2.5	/experiments/Knapen_AOT/AOT_stimuli/rescaled_final/1405_fw.mp4	0.0	196.2951033115387	2.4919307231903076
36	176.884770154953	pulse	1	t		34.0	2.5	/experiments/Knapen_AOT/AOT_stimuli/rescaled_final/1405_fw.mp4	0.0	197.06192684173584	
36	178.48513913154602	pulse	1	t		34.0	2.5	/experiments/Knapen_AOT/AOT_stimuli/rescaled_final/1405_fw.mp4	0.0	198.66229581832886	
36	178.60987734794617	fix_post	2		12	34.0	2.5	/experiments/Knapen_AOT/AOT_stimuli/rescaled_final/1405_fw.mp4	0.0	198.787034034729	0.10001635551452637
37	178.7098937034607	fix_pre	0		120	35.0	2.5	blank	1.0	198.88705039024353	1.000154972076416
37	179.7100486755371	movie	1		300	35.0	2.5	blank	1.0	199.88720536231995	2.500431776046753
37	180.08537411689758	pulse	1	t		35.0	2.5	blank	1.0	200.26253080368042	
37	181.6855504512787	pulse	1	t		35.0	2.5	blank	1.0	201.86270713806152	
37	182.21048045158386	fix_post	2		12	35.0	2.5	blank	1.0	202.3876371383667	0.09998941421508789
38	182.31046986579895	fix_pre	0		118	36.0	2.5	/experiments/Knapen_AOT/AOT_stimuli/rescaled_final/0047_fw.mp4	0.0	202.4876265525818	1.0001451969146729
38	183.2858054637909	pulse	0	t		36.0	2.5	/experiments/Knapen_AOT/AOT_stimuli/rescaled_final/0047_fw.mp4	0.0	203.46296215057373	
38	183.31061506271362	movie	1		278	36.0	2.5	/experiments/Knapen_AOT/AOT_stimuli/rescaled_final/0047_fw.mp4	0.0	203.48777174949646	2.4920482635498047
38	184.88610100746155	pulse	1	t		36.0	2.5	/experiments/Knapen_AOT/AOT_stimuli/rescaled_final/0047_fw.mp4	0.0	205.06325769424438	
38	185.80266332626343	fix_post	2		12	36.0	2.5	/experiments/Knapen_AOT/AOT_stimuli/rescaled_final/0047_fw.mp4	0.0	205.97982001304626	0.09996438026428223
39	185.9026277065277	fix_pre	0		120	37.0	2.5	/experiments/Knapen_AOT/AOT_stimuli/rescaled_final/0805_fw.mp4	0.0	206.07978439331055	1.0085036754608154
39	186.48631072044373	pulse	0	t		37.0	2.5	/experiments/Knapen_AOT/AOT_stimuli/rescaled_final/0805_fw.mp4	0.0	206.66346740722656	
39	186.91113138198853	movie	1		291	37.0	2.5	/experiments/Knapen_AOT/AOT_stimuli/rescaled_final/0805_fw.mp4	0.0	207.08828806877136	2.4920313358306885
39	188.08507180213928	pulse	1	t		37.0	2.5	/experiments/Knapen_AOT/AOT_stimuli/rescaled_final/0805_fw.mp4	0.0	208.26222848892212	
39	189.4031627178192	fix_post	2		12	37.0	2.5	/experiments/Knapen_AOT/AOT_stimuli/rescaled_final/0805_fw.mp4	0.0	209.58031940460205	0.10002970695495605
40	189.50319242477417	fix_pre	0		120	38.0	2.5	/experiments/Knapen_AOT/AOT_stimuli/rescaled_final/0427_rv.mp4	0.0	209.680349111557	1.0084612369537354
40	189.68677639961243	pulse	0	t		38.0	2.5	/experiments/Knapen_AOT/AOT_stimuli/rescaled_final/0427_rv.mp4	0.0	209.86393308639526	
40	190.5116536617279	movie	1		281	38.0	2.5	/experiments/Knapen_AOT/AOT_stimuli/rescaled_final/0427_rv.mp4	0.0	210.68881034851074	2.4920904636383057
40	191.2851152420044	pulse	1	t		38.0	2.5	/experiments/Knapen_AOT/AOT_stimuli/rescaled_final/0427_rv.mp4	0.0	211.46227192878723	
40	192.8855710029602	pulse	1	t		38.0	2.5	/experiments/Knapen_AOT/AOT_stimuli/rescaled_final/0427_rv.mp4	0.0	213.06272768974304	
40	193.0037441253662	fix_post	2		12	38.0	2.5	/experiments/Knapen_AOT/AOT_stimuli/rescaled_final/0427_rv.mp4	0.0	213.18090081214905	0.09998631477355957
41	193.10373044013977	fix_pre	0		120	39.0	2.5	/experiments/Knapen_AOT/AOT_stimuli/rescaled_final/0499_rv.mp4	0.0	213.2808871269226	1.0084950923919678
41	194.11222553253174	movie	1		285	39.0	2.5	/experiments/Knapen_AOT/AOT_stimuli/rescaled_final/0499_rv.mp4	0.0	214.28938221931458	2.492018461227417
41	194.48616862297058	pulse	1	t		39.0	2.5	/experiments/Knapen_AOT/AOT_stimuli/rescaled_final/0499_rv.mp4	0.0	214.66332530975342	
41	196.08556270599365	pulse	1	t		39.0	2.5	/experiments/Knapen_AOT/AOT_stimuli/rescaled_final/0499_rv.mp4	0.0	216.2627193927765	
41	196.60424399375916	fix_post	2		12	39.0	2.5	/experiments/Knapen_AOT/AOT_stimuli/rescaled_final/0499_rv.mp4	0.0	216.781400680542	0.10001754760742188
42	196.70426154136658	fix_pre	0		119	40.0	2.5	/experiments/Knapen_AOT/AOT_stimuli/rescaled_final/1459_fw.mp4	0.0	216.8814182281494	1.0002295970916748
42	197.68805050849915	pulse	0	t		40.0	2.5	/experiments/Knapen_AOT/AOT_stimuli/rescaled_final/1459_fw.mp4	0.0	217.86520719528198	
42	197.70449113845825	movie	1		281	40.0	2.5	/experiments/Knapen_AOT/AOT_stimuli/rescaled_final/1459_fw.mp4	0.0	217.8816478252411	2.500293493270874
42	199.28752422332764	pulse	1	t		40.0	2.5	/experiments/Knapen_AOT/AOT_stimuli/rescaled_final/1459_fw.mp4	0.0	219.46468091011047	
42	200.20478463172913	fix_post	2		12	40.0	2.5	/experiments/Knapen_AOT/AOT_stimuli/rescaled_final/1459_fw.mp4	0.0	220.38194131851196	0.10003280639648438
43	200.3048174381256	fix_pre	0		120	41.0	2.5	blank	1.0	220.48197412490845	1.0001401901245117
43	200.88870310783386	pulse	0	t		41.0	2.5	blank	1.0	221.0658597946167	
43	201.30495762825012	movie	1		300	41.0	2.5	blank	1.0	221.48211431503296	2.500420570373535
43	202.48911023139954	pulse	1	t		41.0	2.5	blank	1.0	222.66626691818237	
43	203.80537819862366	fix_post	2		12	41.0	2.5	blank	1.0	223.9825348854065	0.09996771812438965
44	203.90534591674805	fix_pre	0		120	42.0	2.5	/experiments/Knapen_AOT/AOT_stimuli/rescaled_final/0013_rv.mp4	0.0	224.08250260353088	1.0084960460662842
44	204.08894801139832	pulse	0	t		42.0	2.5	/experiments/Knapen_AOT/AOT_stimuli/rescaled_final/0013_rv.mp4	0.0	224.26610469818115	
44	204.91384196281433	movie	1		282	42.0	2.5	/experiments/Knapen_AOT/AOT_stimuli/rescaled_final/0013_rv.mp4	0.0	225.09099864959717	2.4920551776885986
44	205.68751907348633	pulse	1	t		42.0	2.5	/experiments/Knapen_AOT/AOT_stimuli/rescaled_final/0013_rv.mp4	0.0	225.86467576026917	
44	207.2897024154663	pulse	1	t		42.0	2.5	/experiments/Knapen_AOT/AOT_stimuli/rescaled_final/0013_rv.mp4	0.0	227.46685910224915	
44	207.40589714050293	fix_post	2		12	42.0	2.5	/experiments/Knapen_AOT/AOT_stimuli/rescaled_final/0013_rv.mp4	0.0	227.58305382728577	0.10001039505004883
45	207.50590753555298	fix_pre	0		120	43.0	2.5	/experiments/Knapen_AOT/AOT_stimuli/rescaled_final/0554_fw.mp4	0.0	227.68306422233582	1.008507251739502
45	208.51441478729248	movie	1		272	43.0	2.5	/experiments/Knapen_AOT/AOT_stimuli/rescaled_final/0554_fw.mp4	0.0	228.69157147407532	2.4920334815979004
45	208.88877606391907	pulse	1	t		43.0	2.5	/experiments/Knapen_AOT/AOT_stimuli/rescaled_final/0554_fw.mp4	0.0	229.0659327507019	
45	210.48803067207336	pulse	1	t		43.0	2.5	/experiments/Knapen_AOT/AOT_stimuli/rescaled_final/0554_fw.mp4	0.0	230.6651873588562	
45	211.00644826889038	fix_post	2		12	43.0	2.5	/experiments/Knapen_AOT/AOT_stimuli/rescaled_final/0554_fw.mp4	0.0	231.18360495567322	0.10002017021179199
46	211.10646843910217	fix_pre	0		119	44.0	2.5	/experiments/Knapen_AOT/AOT_stimuli/rescaled_final/0993_fw.mp4	0.0	231.283625125885	1.0001378059387207
46	212.09009838104248	pulse	0	t		44.0	2.5	/experiments/Knapen_AOT/AOT_stimuli/rescaled_final/0993_fw.mp4	0.0	232.26725506782532	
46	212.1066062450409	movie	1		283	44.0	2.5	/experiments/Knapen_AOT/AOT_stimuli/rescaled_final/0993_fw.mp4	0.0	232.28376293182373	2.5003957748413086
46	213.68890023231506	pulse	1	t		44.0	2.5	/experiments/Knapen_AOT/AOT_stimuli/rescaled_final/0993_fw.mp4	0.0	233.8660569190979	
46	214.6070020198822	fix_post	2		12	44.0	2.5	/experiments/Knapen_AOT/AOT_stimuli/rescaled_final/0993_fw.mp4	0.0	234.78415870666504	0.09999513626098633
47	214.7069971561432	fix_pre	0		120	45.0	2.5	/experiments/Knapen_AOT/AOT_stimuli/rescaled_final/0778_rv.mp4	0.0	234.88415384292603	1.0085885524749756
47	215.29066705703735	pulse	0	t		45.0	2.5	/experiments/Knapen_AOT/AOT_stimuli/rescaled_final/0778_rv.mp4	0.0	235.4678237438202	
47	215.71558570861816	movie	1		271	45.0	2.5	/experiments/Knapen_AOT/AOT_stimuli/rescaled_final/0778_rv.mp4	0.0	235.892742395401	2.4919075965881348
47	216.88897609710693	pulse	1	t		45.0	2.5	/experiments/Knapen_AOT/AOT_stimuli/rescaled_final/0778_rv.mp4	0.0	237.06613278388977	
47	218.2074933052063	fix_post	2		12	45.0	2.5	/experiments/Knapen_AOT/AOT_stimuli/rescaled_final/0778_rv.mp4	0.0	238.38464999198914	0.10002923011779785
48	218.3075225353241	fix_pre	0		120	46.0	2.5	/experiments/Knapen_AOT/AOT_stimuli/rescaled_final/1539_rv.mp4	0.0	238.48467922210693	1.0084965229034424
48	218.49111127853394	pulse	0	t		46.0	2.5	/experiments/Knapen_AOT/AOT_stimuli/rescaled_final/1539_rv.mp4	0.0	238.66826796531677	
48	219.31601905822754	movie	1		293	46.0	2.5	/experiments/Knapen_AOT/AOT_stimuli/rescaled_final/1539_rv.mp4	0.0	239.49317574501038	2.4919910430908203
48	220.08953881263733	pulse	1	t		46.0	2.5	/experiments/Knapen_AOT/AOT_stimuli/rescaled_final/1539_rv.mp4	0.0	240.26669549942017	
48	221.68980431556702	pulse	1	t		46.0	2.5	/experiments/Knapen_AOT/AOT_stimuli/rescaled_final/1539_rv.mp4	0.0	241.86696100234985	
48	221.80801010131836	fix_post	2		12	46.0	2.5	/experiments/Knapen_AOT/AOT_stimuli/rescaled_final/1539_rv.mp4	0.0	241.9851667881012	0.10006070137023926
49	221.9080708026886	fix_pre	0		120	47.0	2.5	blank	1.0	242.08522748947144	1.0001449584960938
49	222.9082157611847	movie	1		300	47.0	2.5	blank	1.0	243.08537244796753	2.5003623962402344
49	223.2918577194214	pulse	1	t		47.0	2.5	blank	1.0	243.46901440620422	
49	224.89207768440247	pulse	1	t		47.0	2.5	blank	1.0	245.0692343711853	
49	225.40857815742493	fix_post	2		12	47.0	2.5	blank	1.0	245.58573484420776	0.10005974769592285
50	225.50863790512085	fix_pre	0		119	48.0	2.5	/experiments/Knapen_AOT/AOT_stimuli/rescaled_final/1954_fw.mp4	0.0	245.6857945919037	1.000124216079712
50	226.49233388900757	pulse	0	t		48.0	2.5	/experiments/Knapen_AOT/AOT_stimuli/rescaled_final/1954_fw.mp4	0.0	246.6694905757904	
50	226.50876212120056	movie	1		281	48.0	2.5	/experiments/Knapen_AOT/AOT_stimuli/rescaled_final/1954_fw.mp4	0.0	246.6859188079834	2.500361680984497
50	228.09121870994568	pulse	1	t		48.0	2.5	/experiments/Knapen_AOT/AOT_stimuli/rescaled_final/1954_fw.mp4	0.0	248.26837539672852	
50	229.00912380218506	fix_post	2		12	48.0	2.5	/experiments/Knapen_AOT/AOT_stimuli/rescaled_final/1954_fw.mp4	0.0	249.1862804889679	0.10003232955932617
51	229.10915613174438	fix_pre	0		120	49.0	2.5	/experiments/Knapen_AOT/AOT_stimuli/rescaled_final/0250_rv.mp4	0.0	249.28631281852722	1.00852370262146
51	229.69279861450195	pulse	0	t		49.0	2.5	/experiments/Knapen_AOT/AOT_stimuli/rescaled_final/0250_rv.mp4	0.0	249.8699553012848	
51	230.11767983436584	movie	1		271	49.0	2.5	/experiments/Knapen_AOT/AOT_stimuli/rescaled_final/0250_rv.mp4	0.0	250.29483652114868	2.49202561378479
51	231.29323410987854	pulse	1	t		49.0	2.5	/experiments/Knapen_AOT/AOT_stimuli/rescaled_final/0250_rv.mp4	0.0	251.47039079666138	
51	232.60970544815063	fix_post	2		12	49.0	2.5	/experiments/Knapen_AOT/AOT_stimuli/rescaled_final/0250_rv.mp4	0.0	252.78686213493347	0.09998369216918945
52	232.70968914031982	fix_pre	0		120	50.0	2.5	/experiments/Knapen_AOT/AOT_stimuli/rescaled_final/0761_fw.mp4	0.0	252.88684582710266	1.0084991455078125
52	232.88510131835938	pulse	0	t		50.0	2.5	/experiments/Knapen_AOT/AOT_stimuli/rescaled_final/0761_fw.mp4	0.0	253.0622580051422	
52	233.71818828582764	movie	1		278	50.0	2.5	/experiments/Knapen_AOT/AOT_stimuli/rescaled_final/0761_fw.mp4	0.0	253.89534497261047	2.4920146465301514
52	234.48561334609985	pulse	1	t		50.0	2.5	/experiments/Knapen_AOT/AOT_stimuli/rescaled_final/0761_fw.mp4	0.0	254.6627700328827	
52	236.0853886604309	pulse	1	t		50.0	2.5	/experiments/Knapen_AOT/AOT_stimuli/rescaled_final/0761_fw.mp4	0.0	256.26254534721375	
52	236.2102029323578	fix_post	2		12	50.0	2.5	/experiments/Knapen_AOT/AOT_stimuli/rescaled_final/0761_fw.mp4	0.0	256.3873596191406	0.10003924369812012
53	236.3102421760559	fix_pre	0		120	51.0	2.5	/experiments/Knapen_AOT/AOT_stimuli/rescaled_final/0691_rv.mp4	0.0	256.48739886283875	1.0085017681121826
53	237.3187439441681	movie	1		293	51.0	2.5	/experiments/Knapen_AOT/AOT_stimuli/rescaled_final/0691_rv.mp4	0.0	257.4959006309509	2.492004632949829
53	237.68608617782593	pulse	1	t		51.0	2.5	/experiments/Knapen_AOT/AOT_stimuli/rescaled_final/0691_rv.mp4	0.0	257.86324286460876	
53	239.28590393066406	pulse	1	t		51.0	2.5	/experiments/Knapen_AOT/AOT_stimuli/rescaled_final/0691_rv.mp4	0.0	259.4630606174469	
53	239.81074857711792	fix_post	2		12	51.0	2.5	/experiments/Knapen_AOT/AOT_stimuli/rescaled_final/0691_rv.mp4	0.0	259.98790526390076	0.10001778602600098
54	239.91076636314392	fix_pre	0		118	52.0	2.5	/experiments/Knapen_AOT/AOT_stimuli/rescaled_final/0041_fw.mp4	0.0	260.08792304992676	0.991863489151001
54	240.88619756698608	pulse	0	t		52.0	2.5	/experiments/Knapen_AOT/AOT_stimuli/rescaled_final/0041_fw.mp4	0.0	261.0633542537689	
54	240.90262985229492	movie	1		283	52.0	2.5	/experiments/Knapen_AOT/AOT_stimuli/rescaled_final/0041_fw.mp4	0.0	261.07978653907776	2.500354051589966
54	242.48649168014526	pulse	1	t		52.0	2.5	/experiments/Knapen_AOT/AOT_stimuli/rescaled_final/0041_fw.mp4	0.0	262.6636483669281	
54	243.4029839038849	fix_post	2		12	52.0	2.5	/experiments/Knapen_AOT/AOT_stimuli/rescaled_final/0041_fw.mp4	0.0	263.5801405906677	0.10001254081726074
55	243.50299644470215	fix_pre	0		120	53.0	2.5	/experiments/Knapen_AOT/AOT_stimuli/rescaled_final/0197_rv.mp4	0.0	263.680153131485	1.008467674255371
55	244.08664870262146	pulse	0	t		53.0	2.5	/experiments/Knapen_AOT/AOT_stimuli/rescaled_final/0197_rv.mp4	0.0	264.2638053894043	
55	244.51146411895752	movie	1		280	53.0	2.5	/experiments/Knapen_AOT/AOT_stimuli/rescaled_final/0197_rv.mp4	0.0	264.68862080574036	2.4920401573181152
55	245.68497943878174	pulse	1	t		53.0	2.5	/experiments/Knapen_AOT/AOT_stimuli/rescaled_final/0197_rv.mp4	0.0	265.8621361255646	
55	247.00350427627563	fix_post	2		12	53.0	2.5	/experiments/Knapen_AOT/AOT_stimuli/rescaled_final/0197_rv.mp4	0.0	267.1806609630585	0.10001111030578613
56	247.10351538658142	fix_pre	0		120	54.0	2.5	/experiments/Knapen_AOT/AOT_stimuli/rescaled_final/0331_fw.mp4	0.0	267.28067207336426	1.008681058883667
56	247.28711605072021	pulse	0	t		54.0	2.5	/experiments/Knapen_AOT/AOT_stimuli/rescaled_final/0331_fw.mp4	0.0	267.46427273750305	
56	248.1121964454651	movie	1		271	54.0	2.5	/experiments/Knapen_AOT/AOT_stimuli/rescaled_final/0331_fw.mp4	0.0	268.2893531322479	2.491863965988159
56	248.8876132965088	pulse	1	t		54.0	2.5	/experiments/Knapen_AOT/AOT_stimuli/rescaled_final/0331_fw.mp4	0.0	269.0647699832916	
56	250.48569083213806	pulse	1	t		54.0	2.5	/experiments/Knapen_AOT/AOT_stimuli/rescaled_final/0331_fw.mp4	0.0	270.6628475189209	
56	250.60406041145325	fix_post	2		12	54.0	2.5	/experiments/Knapen_AOT/AOT_stimuli/rescaled_final/0331_fw.mp4	0.0	270.7812170982361	0.10000872611999512
57	250.70406913757324	fix_pre	0		120	55.0	2.5	blank	1.0	270.8812258243561	1.000187873840332
57	251.70425701141357	movie	1		300	55.0	2.5	blank	1.0	271.8814136981964	2.5003151893615723
57	252.08782577514648	pulse	1	t		55.0	2.5	blank	1.0	272.2649824619293	
57	253.6880362033844	pulse	1	t		55.0	2.5	blank	1.0	273.86519289016724	
57	254.20457220077515	fix_post	2		12	55.0	2.5	blank	1.0	274.381728887558	0.10001850128173828
58	254.30459070205688	fix_pre	0		119	56.0	2.5	/experiments/Knapen_AOT/AOT_stimuli/rescaled_final/0988_fw.mp4	0.0	274.4817473888397	1.0085322856903076
58	255.2883801460266	pulse	0	t		56.0	2.5	/experiments/Knapen_AOT/AOT_stimuli/rescaled_final/0988_fw.mp4	0.0	275.46553683280945	
58	255.3131229877472	movie	1		279	56.0	2.5	/experiments/Knapen_AOT/AOT_stimuli/rescaled_final/0988_fw.mp4	0.0	275.49027967453003	2.4920077323913574
58	256.8871338367462	pulse	1	t		56.0	2.5	/experiments/Knapen_AOT/AOT_stimuli/rescaled_final/0988_fw.mp4	0.0	277.06429052352905	
58	257.80513072013855	fix_post	2		12	56.0	2.5	/experiments/Knapen_AOT/AOT_stimuli/rescaled_final/0988_fw.mp4	0.0	277.9822874069214	0.10002708435058594
59	257.90515780448914	fix_pre	0		120	57.0	2.5	/experiments/Knapen_AOT/AOT_stimuli/rescaled_final/0993_rv.mp4	0.0	278.082314491272	1.0085258483886719
59	258.4887533187866	pulse	0	t		57.0	2.5	/experiments/Knapen_AOT/AOT_stimuli/rescaled_final/0993_rv.mp4	0.0	278.66591000556946	
59	258.9136836528778	movie	1		276	57.0	2.5	/experiments/Knapen_AOT/AOT_stimuli/rescaled_final/0993_rv.mp4	0.0	279.09084033966064	2.5004384517669678
59	260.08696007728577	pulse	1	t		57.0	2.5	/experiments/Knapen_AOT/AOT_stimuli/rescaled_final/0993_rv.mp4	0.0	280.2641167640686	
59	261.4141221046448	fix_post	2		11	57.0	2.5	/experiments/Knapen_AOT/AOT_stimuli/rescaled_final/0993_rv.mp4	0.0	281.5912787914276	0.09165406227111816
60	261.5057761669159	fix_pre	0		120	58.0	2.5	/experiments/Knapen_AOT/AOT_stimuli/rescaled_final/0824_rv.mp4	0.0	281.68293285369873	1.008390188217163
60	261.6893026828766	pulse	0	t		58.0	2.5	/experiments/Knapen_AOT/AOT_stimuli/rescaled_final/0824_rv.mp4	0.0	281.8664593696594	
60	262.51416635513306	movie	1		279	58.0	2.5	/experiments/Knapen_AOT/AOT_stimuli/rescaled_final/0824_rv.mp4	0.0	282.6913230419159	2.492033004760742
60	263.28755927085876	pulse	1	t		58.0	2.5	/experiments/Knapen_AOT/AOT_stimuli/rescaled_final/0824_rv.mp4	0.0	283.4647159576416	
60	264.8876917362213	pulse	1	t		58.0	2.5	/experiments/Knapen_AOT/AOT_stimuli/rescaled_final/0824_rv.mp4	0.0	285.06484842300415	
60	265.0061993598938	fix_post	2		12	58.0	2.5	/experiments/Knapen_AOT/AOT_stimuli/rescaled_final/0824_rv.mp4	0.0	285.18335604667664	0.10005807876586914
61	265.10625743865967	fix_pre	0		120	59.0	2.5	/experiments/Knapen_AOT/AOT_stimuli/rescaled_final/1974_rv.mp4	0.0	285.2834141254425	1.0085124969482422
61	266.1147699356079	movie	1		281	59.0	2.5	/experiments/Knapen_AOT/AOT_stimuli/rescaled_final/1974_rv.mp4	0.0	286.29192662239075	2.491971492767334
61	266.4883408546448	pulse	1	t		59.0	2.5	/experiments/Knapen_AOT/AOT_stimuli/rescaled_final/1974_rv.mp4	0.0	286.6654975414276	
61	268.08844208717346	pulse	1	t		59.0	2.5	/experiments/Knapen_AOT/AOT_stimuli/rescaled_final/1974_rv.mp4	0.0	288.2655987739563	
61	268.60674142837524	fix_post	2		12	59.0	2.5	/experiments/Knapen_AOT/AOT_stimuli/rescaled_final/1974_rv.mp4	0.0	288.7838981151581	0.10002803802490234
62	268.70676946640015	fix_pre	0		119	60.0	2.5	/experiments/Knapen_AOT/AOT_stimuli/rescaled_final/1594_rv.mp4	0.0	288.883926153183	1.0002493858337402
62	269.6908037662506	pulse	0	t		60.0	2.5	/experiments/Knapen_AOT/AOT_stimuli/rescaled_final/1594_rv.mp4	0.0	289.86796045303345	
62	269.7070188522339	movie	1		273	60.0	2.5	/experiments/Knapen_AOT/AOT_stimuli/rescaled_final/1594_rv.mp4	0.0	289.8841755390167	2.500312328338623
62	271.28918957710266	pulse	1	t		60.0	2.5	/experiments/Knapen_AOT/AOT_stimuli/rescaled_final/1594_rv.mp4	0.0	291.4663462638855	
62	272.2073311805725	fix_post	2		12	60.0	2.5	/experiments/Knapen_AOT/AOT_stimuli/rescaled_final/1594_rv.mp4	0.0	292.38448786735535	0.09998917579650879
63	272.307320356369	fix_pre	0		120	61.0	2.5	/experiments/Knapen_AOT/AOT_stimuli/rescaled_final/0056_rv.mp4	0.0	292.48447704315186	1.008493423461914
63	272.8909282684326	pulse	0	t		61.0	2.5	/experiments/Knapen_AOT/AOT_stimuli/rescaled_final/0056_rv.mp4	0.0	293.06808495521545	
63	273.31581377983093	movie	1		273	61.0	2.5	/experiments/Knapen_AOT/AOT_stimuli/rescaled_final/0056_rv.mp4	0.0	293.49297046661377	2.4920830726623535
63	274.48936915397644	pulse	1	t		61.0	2.5	/experiments/Knapen_AOT/AOT_stimuli/rescaled_final/0056_rv.mp4	0.0	294.6665258407593	
63	275.8078968524933	fix_post	2		12	61.0	2.5	/experiments/Knapen_AOT/AOT_stimuli/rescaled_final/0056_rv.mp4	0.0	295.9850535392761	0.10003185272216797
64	275.90792870521545	fix_pre	0		120	62.0	2.5	blank	1.0	296.0850853919983	1.0000946521759033
64	276.09147691726685	pulse	0	t		62.0	2.5	blank	1.0	296.2686336040497	
64	276.90802335739136	movie	1		300	62.0	2.5	blank	1.0	297.0851800441742	2.500354766845703
64	277.69166803359985	pulse	1	t		62.0	2.5	blank	1.0	297.8688247203827	
64	279.2921025753021	pulse	1	t		62.0	2.5	blank	1.0	299.46925926208496	
64	279.40837812423706	fix_post	2		12	62.0	2.5	blank	1.0	299.5855348110199	0.10001230239868164
65	279.50839042663574	fix_pre	0		120	63.0	2.5	/experiments/Knapen_AOT/AOT_stimuli/rescaled_final/0656_fw.mp4	0.0	299.6855471134186	1.0085289478302002
65	280.51691937446594	movie	1		283	63.0	2.5	/experiments/Knapen_AOT/AOT_stimuli/rescaled_final/0656_fw.mp4	0.0	300.6940760612488	2.492003917694092
65	280.89209508895874	pulse	1	t		63.0	2.5	/experiments/Knapen_AOT/AOT_stimuli/rescaled_final/0656_fw.mp4	0.0	301.0692517757416	
65	282.4903061389923	pulse	1	t		63.0	2.5	/experiments/Knapen_AOT/AOT_stimuli/rescaled_final/0656_fw.mp4	0.0	302.66746282577515	
65	283.00892329216003	fix_post	2		12	63.0	2.5	/experiments/Knapen_AOT/AOT_stimuli/rescaled_final/0656_fw.mp4	0.0	303.18607997894287	0.10005521774291992
66	283.10897850990295	fix_pre	0		119	64.0	2.5	/experiments/Knapen_AOT/AOT_stimuli/rescaled_final/1816_rv.mp4	0.0	303.2861351966858	1.0001730918884277
66	284.092666387558	pulse	0	t		64.0	2.5	/experiments/Knapen_AOT/AOT_stimuli/rescaled_final/1816_rv.mp4	0.0	304.2698230743408	
66	284.1091516017914	movie	1		288	64.0	2.5	/experiments/Knapen_AOT/AOT_stimuli/rescaled_final/1816_rv.mp4	0.0	304.2863082885742	2.5003035068511963
66	285.6918203830719	pulse	1	t		64.0	2.5	/experiments/Knapen_AOT/AOT_stimuli/rescaled_final/1816_rv.mp4	0.0	305.86897706985474	
66	286.6094551086426	fix_post	2		12	64.0	2.5	/experiments/Knapen_AOT/AOT_stimuli/rescaled_final/1816_rv.mp4	0.0	306.7866117954254	0.10002875328063965
67	286.7094838619232	fix_pre	0		120	65.0	2.5	/experiments/Knapen_AOT/AOT_stimuli/rescaled_final/0199_fw.mp4	0.0	306.88664054870605	1.0085647106170654
67	287.29319977760315	pulse	0	t		65.0	2.5	/experiments/Knapen_AOT/AOT_stimuli/rescaled_final/0199_fw.mp4	0.0	307.470356464386	
67	287.7180485725403	movie	1		278	65.0	2.5	/experiments/Knapen_AOT/AOT_stimuli/rescaled_final/0199_fw.mp4	0.0	307.8952052593231	2.491962432861328
67	288.89163160324097	pulse	1	t		65.0	2.5	/experiments/Knapen_AOT/AOT_stimuli/rescaled_final/0199_fw.mp4	0.0	309.0687882900238	
67	290.2100110054016	fix_post	2		12	65.0	2.5	/experiments/Knapen_AOT/AOT_stimuli/rescaled_final/0199_fw.mp4	0.0	310.38716769218445	0.10001349449157715
68	290.3100244998932	fix_pre	0		120	66.0	2.5	/experiments/Knapen_AOT/AOT_stimuli/rescaled_final/1165_fw.mp4	0.0	310.487181186676	1.0086677074432373
68	290.4855308532715	pulse	0	t		66.0	2.5	/experiments/Knapen_AOT/AOT_stimuli/rescaled_final/1165_fw.mp4	0.0	310.6626875400543	
68	291.3186922073364	movie	1		275	66.0	2.5	/experiments/Knapen_AOT/AOT_stimuli/rescaled_final/1165_fw.mp4	0.0	311.49584889411926	2.491880416870117
68	292.08566331863403	pulse	1	t		66.0	2.5	/experiments/Knapen_AOT/AOT_stimuli/rescaled_final/1165_fw.mp4	0.0	312.26282000541687	
68	293.68574142456055	pulse	1	t		66.0	2.5	/experiments/Knapen_AOT/AOT_stimuli/rescaled_final/1165_fw.mp4	0.0	313.8628981113434	
68	293.81057262420654	fix_post	2		12	66.0	2.5	/experiments/Knapen_AOT/AOT_stimuli/rescaled_final/1165_fw.mp4	0.0	313.9877293109894	0.09999704360961914
69	293.91056966781616	fix_pre	0		120	67.0	2.5	/experiments/Knapen_AOT/AOT_stimuli/rescaled_final/0942_rv.mp4	0.0	314.087726354599	1.008486270904541
69	294.9190559387207	movie	1		290	67.0	2.5	/experiments/Knapen_AOT/AOT_stimuli/rescaled_final/0942_rv.mp4	0.0	315.09621262550354	2.50040340423584
69	295.28604793548584	pulse	1	t		67.0	2.5	/experiments/Knapen_AOT/AOT_stimuli/rescaled_final/0942_rv.mp4	0.0	315.4632046222687	
69	296.88621759414673	pulse	1	t		67.0	2.5	/experiments/Knapen_AOT/AOT_stimuli/rescaled_final/0942_rv.mp4	0.0	317.06337428092957	
69	297.41945934295654	fix_post	2		11	67.0	2.5	/experiments/Knapen_AOT/AOT_stimuli/rescaled_final/0942_rv.mp4	0.0	317.5966160297394	0.09165310859680176
70	297.51111245155334	fix_pre	0		118	68.0	2.5	/experiments/Knapen_AOT/AOT_stimuli/rescaled_final/1728_rv.mp4	0.0	317.6882691383362	0.991858959197998
70	298.4866316318512	pulse	0	t		68.0	2.5	/experiments/Knapen_AOT/AOT_stimuli/rescaled_final/1728_rv.mp4	0.0	318.66378831863403	
70	298.50297141075134	movie	1		290	68.0	2.5	/experiments/Knapen_AOT/AOT_stimuli/rescaled_final/1728_rv.mp4	0.0	318.6801280975342	2.5003254413604736
70	300.08686876296997	pulse	1	t		68.0	2.5	/experiments/Knapen_AOT/AOT_stimuli/rescaled_final/1728_rv.mp4	0.0	320.2640254497528	
70	301.0032968521118	fix_post	2		12	68.0	2.5	/experiments/Knapen_AOT/AOT_stimuli/rescaled_final/1728_rv.mp4	0.0	321.18045353889465	0.10006546974182129
71	301.10336232185364	fix_pre	0		120	69.0	2.5	blank	1.0	321.2805190086365	1.0000946521759033
71	301.6870102882385	pulse	0	t		69.0	2.5	blank	1.0	321.86416697502136	
71	302.10345697402954	movie	1		300	69.0	2.5	blank	1.0	322.2806136608124	2.5003747940063477
71	303.28734970092773	pulse	1	t		69.0	2.5	blank	1.0	323.46450638771057	
71	304.6038317680359	fix_post	2		12	69.0	2.5	blank	1.0	324.7809884548187	0.10010099411010742
72	304.703932762146	fix_pre	0		120	70.0	2.5	/experiments/Knapen_AOT/AOT_stimuli/rescaled_final/2055_fw.mp4	0.0	324.88108944892883	1.0084199905395508
72	304.88737201690674	pulse	0	t		70.0	2.5	/experiments/Knapen_AOT/AOT_stimuli/rescaled_final/2055_fw.mp4	0.0	325.0645287036896	
72	305.71235275268555	movie	1		290	70.0	2.5	/experiments/Knapen_AOT/AOT_stimuli/rescaled_final/2055_fw.mp4	0.0	325.8895094394684	2.49202036857605
72	306.4857940673828	pulse	1	t		70.0	2.5	/experiments/Knapen_AOT/AOT_stimuli/rescaled_final/2055_fw.mp4	0.0	326.66295075416565	
72	308.08601331710815	pulse	1	t		70.0	2.5	/experiments/Knapen_AOT/AOT_stimuli/rescaled_final/2055_fw.mp4	0.0	328.263170003891	
72	308.2043731212616	fix_post	2		12	70.0	2.5	/experiments/Knapen_AOT/AOT_stimuli/rescaled_final/2055_fw.mp4	0.0	328.38152980804443	0.10003018379211426
73	308.3044033050537	fix_pre	0		120	71.0	2.5	/experiments/Knapen_AOT/AOT_stimuli/rescaled_final/1165_rv.mp4	0.0	328.48155999183655	1.0085067749023438
73	309.31291007995605	movie	1		279	71.0	2.5	/experiments/Knapen_AOT/AOT_stimuli/rescaled_final/1165_rv.mp4	0.0	329.4900667667389	2.4920501708984375
73	309.6862895488739	pulse	1	t		71.0	2.5	/experiments/Knapen_AOT/AOT_stimuli/rescaled_final/1165_rv.mp4	0.0	329.86344623565674	
73	311.2863509654999	pulse	1	t		71.0	2.5	/experiments/Knapen_AOT/AOT_stimuli/rescaled_final/1165_rv.mp4	0.0	331.4635076522827	
73	311.8049602508545	fix_post	2		12	71.0	2.5	/experiments/Knapen_AOT/AOT_stimuli/rescaled_final/1165_rv.mp4	0.0	331.98211693763733	0.09999966621398926
74	311.9049599170685	fix_pre	0		119	72.0	2.5	/experiments/Knapen_AOT/AOT_stimuli/rescaled_final/0435_rv.mp4	0.0	332.0821166038513	1.000136375427246
74	312.88861060142517	pulse	0	t		72.0	2.5	/experiments/Knapen_AOT/AOT_stimuli/rescaled_final/0435_rv.mp4	0.0	333.065767288208	
74	312.9050962924957	movie	1		281	72.0	2.5	/experiments/Knapen_AOT/AOT_stimuli/rescaled_final/0435_rv.mp4	0.0	333.08225297927856	2.5003626346588135
74	314.4874675273895	pulse	1	t		72.0	2.5	/experiments/Knapen_AOT/AOT_stimuli/rescaled_final/0435_rv.mp4	0.0	334.66462421417236	
74	315.40545892715454	fix_post	2		12	72.0	2.5	/experiments/Knapen_AOT/AOT_stimuli/rescaled_final/0435_rv.mp4	0.0	335.5826156139374	0.10005354881286621
75	315.5055124759674	fix_pre	0		119	73.0	2.5	/experiments/Knapen_AOT/AOT_stimuli/rescaled_final/2088_rv.mp4	0.0	335.68266916275024	1.008497953414917
75	316.08925437927246	pulse	0	t		73.0	2.5	/experiments/Knapen_AOT/AOT_stimuli/rescaled_final/2088_rv.mp4	0.0	336.2664110660553	
75	316.5140104293823	movie	1		269	73.0	2.5	/experiments/Knapen_AOT/AOT_stimuli/rescaled_final/2088_rv.mp4	0.0	336.69116711616516	2.491987943649292
75	317.6874849796295	pulse	1	t		73.0	2.5	/experiments/Knapen_AOT/AOT_stimuli/rescaled_final/2088_rv.mp4	0.0	337.86464166641235	
75	319.0059983730316	fix_post	2		12	73.0	2.5	/experiments/Knapen_AOT/AOT_stimuli/rescaled_final/2088_rv.mp4	0.0	339.18315505981445	0.1000828742980957
76	319.1060812473297	fix_pre	0		120	74.0	2.5	/experiments/Knapen_AOT/AOT_stimuli/rescaled_final/1394_rv.mp4	0.0	339.28323793411255	1.008439302444458
76	319.2896144390106	pulse	0	t		74.0	2.5	/experiments/Knapen_AOT/AOT_stimuli/rescaled_final/1394_rv.mp4	0.0	339.46677112579346	
76	320.11452054977417	movie	1		279	74.0	2.5	/experiments/Knapen_AOT/AOT_stimuli/rescaled_final/1394_rv.mp4	0.0	340.291677236557	2.491987705230713
76	320.88839960098267	pulse	1	t		74.0	2.5	/experiments/Knapen_AOT/AOT_stimuli/rescaled_final/1394_rv.mp4	0.0	341.0655562877655	
76	322.48780059814453	pulse	1	t		74.0	2.5	/experiments/Knapen_AOT/AOT_stimuli/rescaled_final/1394_rv.mp4	0.0	342.66495728492737	
76	322.6065082550049	fix_post	2		12	74.0	2.5	/experiments/Knapen_AOT/AOT_stimuli/rescaled_final/1394_rv.mp4	0.0	342.7836649417877	0.10002923011779785
77	322.7065374851227	fix_pre	0		120	75.0	2.5	blank	1.0	342.8836941719055	1.000159740447998
77	323.7066972255707	movie	1		300	75.0	2.5	blank	1.0	343.8838539123535	2.500366449356079
77	324.09039092063904	pulse	1	t		75.0	2.5	blank	1.0	344.2675476074219	
77	325.69039940834045	pulse	1	t		75.0	2.5	blank	1.0	345.8675560951233	
77	326.20706367492676	fix_post	2		12	75.0	2.5	blank	1.0	346.3842203617096	0.10003185272216797
78	326.3070955276489	fix_pre	0		119	76.0	2.5	/experiments/Knapen_AOT/AOT_stimuli/rescaled_final/0496_rv.mp4	0.0	346.48425221443176	1.0001497268676758
78	327.2907555103302	pulse	0	t		76.0	2.5	/experiments/Knapen_AOT/AOT_stimuli/rescaled_final/0496_rv.mp4	0.0	347.46791219711304	
78	327.3072452545166	movie	1		292	76.0	2.5	/experiments/Knapen_AOT/AOT_stimuli/rescaled_final/0496_rv.mp4	0.0	347.48440194129944	2.500361919403076
78	328.8889524936676	pulse	1	t		76.0	2.5	/experiments/Knapen_AOT/AOT_stimuli/rescaled_final/0496_rv.mp4	0.0	349.06610918045044	
78	329.8076071739197	fix_post	2		12	76.0	2.5	/experiments/Knapen_AOT/AOT_stimuli/rescaled_final/0496_rv.mp4	0.0	349.9847638607025	0.10001921653747559
79	329.90762639045715	fix_pre	0		120	77.0	2.5	/experiments/Knapen_AOT/AOT_stimuli/rescaled_final/0790_rv.mp4	0.0	350.08478307724	1.0084993839263916
79	330.49130606651306	pulse	0	t		77.0	2.5	/experiments/Knapen_AOT/AOT_stimuli/rescaled_final/0790_rv.mp4	0.0	350.6684627532959	
79	330.91612577438354	movie	1		296	77.0	2.5	/experiments/Knapen_AOT/AOT_stimuli/rescaled_final/0790_rv.mp4	0.0	351.0932824611664	2.492027521133423
79	332.0888719558716	pulse	1	t		77.0	2.5	/experiments/Knapen_AOT/AOT_stimuli/rescaled_final/0790_rv.mp4	0.0	352.2660286426544	
79	333.40815329551697	fix_post	2		12	77.0	2.5	/experiments/Knapen_AOT/AOT_stimuli/rescaled_final/0790_rv.mp4	0.0	353.5853099822998	0.10001325607299805
80	333.50816655158997	fix_pre	0		120	78.0	2.5	/experiments/Knapen_AOT/AOT_stimuli/rescaled_final/1280_rv.mp4	0.0	353.6853232383728	1.0084984302520752
80	333.6917977333069	pulse	0	t		78.0	2.5	/experiments/Knapen_AOT/AOT_stimuli/rescaled_final/1280_rv.mp4	0.0	353.8689544200897	
80	334.51666498184204	movie	1		290	78.0	2.5	/experiments/Knapen_AOT/AOT_stimuli/rescaled_final/1280_rv.mp4	0.0	354.6938216686249	2.492003917694092
80	335.29158997535706	pulse	1	t		78.0	2.5	/experiments/Knapen_AOT/AOT_stimuli/rescaled_final/1280_rv.mp4	0.0	355.4687466621399	
80	336.8877680301666	pulse	1	t		78.0	2.5	/experiments/Knapen_AOT/AOT_stimuli/rescaled_final/1280_rv.mp4	0.0	357.06492471694946	
80	337.00866889953613	fix_post	2		12	78.0	2.5	/experiments/Knapen_AOT/AOT_stimuli/rescaled_final/1280_rv.mp4	0.0	357.18582558631897	0.10001063346862793
81	337.10867953300476	fix_pre	0		120	79.0	2.5	/experiments/Knapen_AOT/AOT_stimuli/rescaled_final/1143_rv.mp4	0.0	357.2858362197876	1.0085573196411133
81	338.1172368526459	movie	1		293	79.0	2.5	/experiments/Knapen_AOT/AOT_stimuli/rescaled_final/1143_rv.mp4	0.0	358.2943935394287	2.4921624660491943
81	338.48860454559326	pulse	1	t		79.0	2.5	/experiments/Knapen_AOT/AOT_stimuli/rescaled_final/1143_rv.mp4	0.0	358.6657612323761	
81	340.08857893943787	pulse	1	t		79.0	2.5	/experiments/Knapen_AOT/AOT_stimuli/rescaled_final/1143_rv.mp4	0.0	360.2657356262207	
81	340.60939931869507	fix_post	2		12	79.0	2.5	/experiments/Knapen_AOT/AOT_stimuli/rescaled_final/1143_rv.mp4	0.0	360.7865560054779	0.09985136985778809
82	340.70925068855286	fix_pre	0		118	80.0	2.5	/experiments/Knapen_AOT/AOT_stimuli/rescaled_final/1850_rv.mp4	0.0	360.8864073753357	0.9918217658996582
82	341.6848487854004	pulse	0	t		80.0	2.5	/experiments/Knapen_AOT/AOT_stimuli/rescaled_final/1850_rv.mp4	0.0	361.8620054721832	
82	341.7010724544525	movie	1		290	80.0	2.5	/experiments/Knapen_AOT/AOT_stimuli/rescaled_final/1850_rv.mp4	0.0	361.87822914123535	2.5003461837768555
82	343.28483152389526	pulse	1	t		80.0	2.5	/experiments/Knapen_AOT/AOT_stimuli/rescaled_final/1850_rv.mp4	0.0	363.4619882106781	
82	344.20141863822937	fix_post	2		12	80.0	2.5	/experiments/Knapen_AOT/AOT_stimuli/rescaled_final/1850_rv.mp4	0.0	364.3785753250122	0.10003304481506348
83	344.30145168304443	fix_pre	0		120	81.0	2.5	/experiments/Knapen_AOT/AOT_stimuli/rescaled_final/0231_fw.mp4	0.0	364.47860836982727	1.0084443092346191
83	344.8849859237671	pulse	0	t		81.0	2.5	/experiments/Knapen_AOT/AOT_stimuli/rescaled_final/0231_fw.mp4	0.0	365.0621426105499	
83	345.30989599227905	movie	1		288	81.0	2.5	/experiments/Knapen_AOT/AOT_stimuli/rescaled_final/0231_fw.mp4	0.0	365.4870526790619	2.5004305839538574
83	346.4854588508606	pulse	1	t		81.0	2.5	/experiments/Knapen_AOT/AOT_stimuli/rescaled_final/0231_fw.mp4	0.0	366.66261553764343	
83	347.8103265762329	fix_post	2		11	81.0	2.5	/experiments/Knapen_AOT/AOT_stimuli/rescaled_final/0231_fw.mp4	0.0	367.98748326301575	0.09187817573547363
84	347.9022047519684	fix_pre	0		120	82.0	2.5	blank	1.0	368.0793614387512	0.999964714050293
84	348.0857536792755	pulse	0	t		82.0	2.5	blank	1.0	368.26291036605835	
84	348.9021694660187	movie	1		300	82.0	2.5	blank	1.0	369.0793261528015	2.500356912612915
84	349.6858720779419	pulse	1	t		82.0	2.5	blank	1.0	369.86302876472473	
84	351.28626346588135	pulse	1	t		82.0	2.5	blank	1.0	371.4634201526642	
84	351.4025263786316	fix_post	2		12	82.0	2.5	blank	1.0	371.57968306541443	0.10001564025878906
85	351.5025420188904	fix_pre	0		120	83.0	2.5	/experiments/Knapen_AOT/AOT_stimuli/rescaled_final/2150_fw.mp4	0.0	371.6796987056732	1.0086114406585693
85	352.51115345954895	movie	1		272	83.0	2.5	/experiments/Knapen_AOT/AOT_stimuli/rescaled_final/2150_fw.mp4	0.0	372.6883101463318	2.4919273853302
85	352.885897397995	pulse	1	t		83.0	2.5	/experiments/Knapen_AOT/AOT_stimuli/rescaled_final/2150_fw.mp4	0.0	373.06305408477783	
85	354.4858355522156	pulse	1	t		83.0	2.5	/experiments/Knapen_AOT/AOT_stimuli/rescaled_final/2150_fw.mp4	0.0	374.6629922389984	
85	355.00308084487915	fix_post	2		12	83.0	2.5	/experiments/Knapen_AOT/AOT_stimuli/rescaled_final/2150_fw.mp4	0.0	375.180237531662	0.09998178482055664
87	355.1030626296997	stim	0		1715					375.28021931648254	14.29386019706726
87	356.0868022441864	pulse	0	t						376.26395893096924	
87	357.68713784217834	pulse	0	t						377.8642945289612	
87	359.28730487823486	pulse	0	t						379.4644615650177	
87	360.88753151893616	pulse	0	t						381.064688205719	
87	362.4877452850342	pulse	0	t						382.664901971817	
87	364.08819365501404	pulse	0	t						384.2653503417969	
87	365.6882269382477	pulse	0	t						385.8653836250305	
87	367.288453578949	pulse	0	t						387.4656102657318	
87	368.8887474536896	pulse	0	t						389.0659041404724	
