trial_nr	onset	event_type	phase	response	nr_frames	movie_index	movie_duration	movie_file	blank	onset_abs	duration
0	0.1082310676574707	stim	0		19					33.48195815086365	0.15835309028625488
0	0.2585430145263672	response	0	space						33.632270097732544	
1	0.2665841579437256	stim	0		4676					33.6403112411499	38.96647095680237
1	39.22714710235596	pulse	0	t						72.60087418556213	
1	39.233055114746094	stim	1		1717					72.60678219795227	14.308334827423096
1	40.82487511634827	pulse	1	t						74.19860219955444	
1	42.4248731136322	pulse	1	t						75.79860019683838	
1	44.024811029434204	pulse	1	t						77.39853811264038	
1	45.62487196922302	pulse	1	t						78.9985990524292	
1	47.22480797767639	pulse	1	t						80.59853506088257	
1	48.82478904724121	pulse	1	t						82.19851613044739	
1	50.42487907409668	pulse	1	t						83.79860615730286	
1	52.02488613128662	pulse	1	t						85.3986132144928	
2	53.54138994216919	fix_pre	0		11	0.0	2.5	/experiments/AOT/AOT_stimuli/rescaled_final/0224_fw.mp4	0.0	86.91511702537537	0.09163808822631836
2	53.624863147735596	pulse	0	t		0.0	2.5	/experiments/AOT/AOT_stimuli/rescaled_final/0224_fw.mp4	0.0	86.99859023094177	
2	53.63302803039551	movie	1		239	0.0	2.5	/experiments/AOT/AOT_stimuli/rescaled_final/0224_fw.mp4	0.0	87.00675511360168	2.5082828998565674
2	55.22445607185364	pulse	1	t		0.0	2.5	/experiments/AOT/AOT_stimuli/rescaled_final/0224_fw.mp4	0.0	88.59818315505981	
2	56.141310930252075	fix_post	2		12	0.0	2.5	/experiments/AOT/AOT_stimuli/rescaled_final/0224_fw.mp4	0.0	89.51503801345825	0.10007619857788086
3	56.241387128829956	fix_pre	0		120	1.0	2.5	/experiments/AOT/AOT_stimuli/rescaled_final/1662_rv.mp4	0.0	89.61511421203613	0.9999527931213379
3	56.82481098175049	pulse	0	t		1.0	2.5	/experiments/AOT/AOT_stimuli/rescaled_final/1662_rv.mp4	0.0	90.19853806495667	
3	57.241339921951294	movie	1		243	1.0	2.5	/experiments/AOT/AOT_stimuli/rescaled_final/1662_rv.mp4	0.0	90.61506700515747	2.500047206878662
3	58.42488694190979	pulse	1	t		1.0	2.5	/experiments/AOT/AOT_stimuli/rescaled_final/1662_rv.mp4	0.0	91.79861402511597	
3	59.741387128829956	fix_post	2		12	1.0	2.5	/experiments/AOT/AOT_stimuli/rescaled_final/1662_rv.mp4	0.0	93.11511421203613	0.09964895248413086
4	59.84103608131409	fix_pre	0		120	2.0	2.5	/experiments/AOT/AOT_stimuli/rescaled_final/0034_rv.mp4	0.0	93.21476316452026	1.0002470016479492
4	60.02485108375549	pulse	0	t		2.0	2.5	/experiments/AOT/AOT_stimuli/rescaled_final/0034_rv.mp4	0.0	93.39857816696167	
4	60.841283082962036	movie	1		243	2.0	2.5	/experiments/AOT/AOT_stimuli/rescaled_final/0034_rv.mp4	0.0	94.21501016616821	2.5002598762512207
4	61.624804973602295	pulse	1	t		2.0	2.5	/experiments/AOT/AOT_stimuli/rescaled_final/0034_rv.mp4	0.0	94.99853205680847	
4	63.22445511817932	pulse	1	t		2.0	2.5	/experiments/AOT/AOT_stimuli/rescaled_final/0034_rv.mp4	0.0	96.5981822013855	
4	63.34154295921326	fix_post	2		12	2.0	2.5	/experiments/AOT/AOT_stimuli/rescaled_final/0034_rv.mp4	0.0	96.71527004241943	0.09970498085021973
5	63.44124794006348	fix_pre	0		120	3.0	2.5	/experiments/AOT/AOT_stimuli/rescaled_final/2159_rv.mp4	0.0	96.81497502326965	1.0001192092895508
5	64.44136714935303	movie	1		245	3.0	2.5	/experiments/AOT/AOT_stimuli/rescaled_final/2159_rv.mp4	0.0	97.8150942325592	2.499849796295166
5	64.82441997528076	pulse	1	t		3.0	2.5	/experiments/AOT/AOT_stimuli/rescaled_final/2159_rv.mp4	0.0	98.19814705848694	
5	66.42481994628906	pulse	1	t		3.0	2.5	/experiments/AOT/AOT_stimuli/rescaled_final/2159_rv.mp4	0.0	99.79854702949524	
5	66.9412169456482	fix_post	2		12	3.0	2.5	/experiments/AOT/AOT_stimuli/rescaled_final/2159_rv.mp4	0.0	100.31494402885437	0.10011720657348633
6	67.04133415222168	fix_pre	0		119	4.0	2.5	/experiments/AOT/AOT_stimuli/rescaled_final/0538_rv.mp4	0.0	100.41506123542786	0.9917058944702148
6	68.02484607696533	pulse	0	t		4.0	2.5	/experiments/AOT/AOT_stimuli/rescaled_final/0538_rv.mp4	0.0	101.39857316017151	
6	68.0330400466919	movie	1		247	4.0	2.5	/experiments/AOT/AOT_stimuli/rescaled_final/0538_rv.mp4	0.0	101.40676712989807	2.508194923400879
6	69.62475800514221	pulse	1	t		4.0	2.5	/experiments/AOT/AOT_stimuli/rescaled_final/0538_rv.mp4	0.0	102.99848508834839	
6	70.54123497009277	fix_post	2		12	4.0	2.5	/experiments/AOT/AOT_stimuli/rescaled_final/0538_rv.mp4	0.0	103.91496205329895	0.09997105598449707
7	70.64120602607727	fix_pre	0		120	5.0	2.5	/experiments/AOT/AOT_stimuli/rescaled_final/1798_rv.mp4	0.0	104.01493310928345	0.9999921321868896
7	71.22479009628296	pulse	0	t		5.0	2.5	/experiments/AOT/AOT_stimuli/rescaled_final/1798_rv.mp4	0.0	104.59851717948914	
7	71.64119815826416	movie	1		243	5.0	2.5	/experiments/AOT/AOT_stimuli/rescaled_final/1798_rv.mp4	0.0	105.01492524147034	2.500030994415283
7	72.82476615905762	pulse	1	t		5.0	2.5	/experiments/AOT/AOT_stimuli/rescaled_final/1798_rv.mp4	0.0	106.1984932422638	
7	74.14122915267944	fix_post	2		12	5.0	2.5	/experiments/AOT/AOT_stimuli/rescaled_final/1798_rv.mp4	0.0	107.51495623588562	0.10001683235168457
8	74.24124598503113	fix_pre	0		120	6.0	2.5	blank	1.0	107.6149730682373	0.9995419979095459
8	74.42476010322571	pulse	0	t		6.0	2.5	blank	1.0	107.79848718643188	
8	75.24078798294067	movie	1		300	6.0	2.5	blank	1.0	108.61451506614685	2.500444173812866
8	76.02472496032715	pulse	1	t		6.0	2.5	blank	1.0	109.39845204353333	
8	77.62468409538269	pulse	1	t		6.0	2.5	blank	1.0	110.99841117858887	
8	77.74123215675354	fix_post	2		12	6.0	2.5	blank	1.0	111.11495923995972	0.10002899169921875
9	77.84126114845276	fix_pre	0		120	7.0	2.5	/experiments/AOT/AOT_stimuli/rescaled_final/0956_rv.mp4	0.0	111.21498823165894	0.9999759197235107
9	78.84123706817627	movie	1		242	7.0	2.5	/experiments/AOT/AOT_stimuli/rescaled_final/0956_rv.mp4	0.0	112.21496415138245	2.4996469020843506
9	79.22440600395203	pulse	1	t		7.0	2.5	/experiments/AOT/AOT_stimuli/rescaled_final/0956_rv.mp4	0.0	112.5981330871582	
9	80.82481598854065	pulse	1	t		7.0	2.5	/experiments/AOT/AOT_stimuli/rescaled_final/0956_rv.mp4	0.0	114.19854307174683	
9	81.34088397026062	fix_post	2		12	7.0	2.5	/experiments/AOT/AOT_stimuli/rescaled_final/0956_rv.mp4	0.0	114.7146110534668	0.10027313232421875
10	81.44115710258484	fix_pre	0		119	8.0	2.5	/experiments/AOT/AOT_stimuli/rescaled_final/0130_fw.mp4	0.0	114.81488418579102	0.9917788505554199
10	82.4247419834137	pulse	0	t		8.0	2.5	/experiments/AOT/AOT_stimuli/rescaled_final/0130_fw.mp4	0.0	115.79846906661987	
10	82.43293595314026	movie	1		246	8.0	2.5	/experiments/AOT/AOT_stimuli/rescaled_final/0130_fw.mp4	0.0	115.80666303634644	2.5082709789276123
10	84.02436804771423	pulse	1	t		8.0	2.5	/experiments/AOT/AOT_stimuli/rescaled_final/0130_fw.mp4	0.0	117.39809513092041	
10	84.94120693206787	fix_post	2		12	8.0	2.5	/experiments/AOT/AOT_stimuli/rescaled_final/0130_fw.mp4	0.0	118.31493401527405	0.10007905960083008
11	85.0412859916687	fix_pre	0		120	9.0	2.5	/experiments/AOT/AOT_stimuli/rescaled_final/2105_fw.mp4	0.0	118.41501307487488	0.9999849796295166
11	85.62430095672607	pulse	0	t		9.0	2.5	/experiments/AOT/AOT_stimuli/rescaled_final/2105_fw.mp4	0.0	118.99802803993225	
11	86.04127097129822	movie	1		243	9.0	2.5	/experiments/AOT/AOT_stimuli/rescaled_final/2105_fw.mp4	0.0	119.4149980545044	2.499528169631958
11	87.22465395927429	pulse	1	t		9.0	2.5	/experiments/AOT/AOT_stimuli/rescaled_final/2105_fw.mp4	0.0	120.59838104248047	
11	88.54079914093018	fix_post	2		12	9.0	2.5	/experiments/AOT/AOT_stimuli/rescaled_final/2105_fw.mp4	0.0	121.91452622413635	0.10039591789245605
12	88.64119505882263	fix_pre	0		120	10.0	2.5	/experiments/AOT/AOT_stimuli/rescaled_final/0842_rv.mp4	0.0	122.01492214202881	0.9999699592590332
12	88.82472109794617	pulse	0	t		10.0	2.5	/experiments/AOT/AOT_stimuli/rescaled_final/0842_rv.mp4	0.0	122.19844818115234	
12	89.64116501808167	movie	1		244	10.0	2.5	/experiments/AOT/AOT_stimuli/rescaled_final/0842_rv.mp4	0.0	123.01489210128784	2.499540090560913
12	90.42466402053833	pulse	1	t		10.0	2.5	/experiments/AOT/AOT_stimuli/rescaled_final/0842_rv.mp4	0.0	123.7983911037445	
12	92.02332210540771	pulse	1	t		10.0	2.5	/experiments/AOT/AOT_stimuli/rescaled_final/0842_rv.mp4	0.0	125.39704918861389	
12	92.14070510864258	fix_post	2		12	10.0	2.5	/experiments/AOT/AOT_stimuli/rescaled_final/0842_rv.mp4	0.0	125.51443219184875	0.1003868579864502
13	92.24109196662903	fix_pre	0		120	11.0	2.5	/experiments/AOT/AOT_stimuli/rescaled_final/0660_rv.mp4	0.0	125.6148190498352	0.9996199607849121
13	93.24071192741394	movie	1		244	11.0	2.5	/experiments/AOT/AOT_stimuli/rescaled_final/0660_rv.mp4	0.0	126.61443901062012	2.500392198562622
13	93.62467813491821	pulse	1	t		11.0	2.5	/experiments/AOT/AOT_stimuli/rescaled_final/0660_rv.mp4	0.0	126.99840521812439	
13	95.2246470451355	pulse	1	t		11.0	2.5	/experiments/AOT/AOT_stimuli/rescaled_final/0660_rv.mp4	0.0	128.59837412834167	
13	95.74110412597656	fix_post	2		12	11.0	2.5	/experiments/AOT/AOT_stimuli/rescaled_final/0660_rv.mp4	0.0	129.11483120918274	0.09999990463256836
14	95.84110403060913	fix_pre	0		119	12.0	2.5	/experiments/AOT/AOT_stimuli/rescaled_final/1877_fw.mp4	0.0	129.2148311138153	0.991771936416626
14	96.82470512390137	pulse	0	t		12.0	2.5	/experiments/AOT/AOT_stimuli/rescaled_final/1877_fw.mp4	0.0	130.19843220710754	
14	96.83287596702576	movie	1		246	12.0	2.5	/experiments/AOT/AOT_stimuli/rescaled_final/1877_fw.mp4	0.0	130.20660305023193	2.507857084274292
14	98.42539405822754	pulse	1	t		12.0	2.5	/experiments/AOT/AOT_stimuli/rescaled_final/1877_fw.mp4	0.0	131.79912114143372	
14	99.34073305130005	fix_post	2		12	12.0	2.5	/experiments/AOT/AOT_stimuli/rescaled_final/1877_fw.mp4	0.0	132.71446013450623	0.09997987747192383
15	99.44071292877197	fix_pre	0		120	13.0	2.5	blank	1.0	132.81444001197815	1.0004050731658936
15	100.02454996109009	pulse	0	t		13.0	2.5	blank	1.0	133.39827704429626	
15	100.44111800193787	movie	1		300	13.0	2.5	blank	1.0	133.81484508514404	2.4999840259552
15	101.62454605102539	pulse	1	t		13.0	2.5	blank	1.0	134.99827313423157	
15	102.94110202789307	fix_post	2		12	13.0	2.5	blank	1.0	136.31482911109924	0.09996199607849121
16	103.04106402397156	fix_pre	0		120	14.0	2.5	/experiments/AOT/AOT_stimuli/rescaled_final/1862_rv.mp4	0.0	136.41479110717773	0.9999880790710449
16	103.22465801239014	pulse	0	t		14.0	2.5	/experiments/AOT/AOT_stimuli/rescaled_final/1862_rv.mp4	0.0	136.5983850955963	
16	104.0410521030426	movie	1		244	14.0	2.5	/experiments/AOT/AOT_stimuli/rescaled_final/1862_rv.mp4	0.0	137.41477918624878	2.500048875808716
16	104.82457613945007	pulse	1	t		14.0	2.5	/experiments/AOT/AOT_stimuli/rescaled_final/1862_rv.mp4	0.0	138.19830322265625	
16	106.42308902740479	pulse	1	t		14.0	2.5	/experiments/AOT/AOT_stimuli/rescaled_final/1862_rv.mp4	0.0	139.79681611061096	
16	106.54110097885132	fix_post	2		12	14.0	2.5	/experiments/AOT/AOT_stimuli/rescaled_final/1862_rv.mp4	0.0	139.9148280620575	0.09992098808288574
17	106.6410219669342	fix_pre	0		120	15.0	2.5	/experiments/AOT/AOT_stimuli/rescaled_final/2166_rv.mp4	0.0	140.01474905014038	1.000040054321289
17	107.6410620212555	movie	1		246	15.0	2.5	/experiments/AOT/AOT_stimuli/rescaled_final/2166_rv.mp4	0.0	141.01478910446167	2.4995710849761963
17	108.0258309841156	pulse	1	t		15.0	2.5	/experiments/AOT/AOT_stimuli/rescaled_final/2166_rv.mp4	0.0	141.39955806732178	
17	109.6244649887085	pulse	1	t		15.0	2.5	/experiments/AOT/AOT_stimuli/rescaled_final/2166_rv.mp4	0.0	142.99819207191467	
17	110.14063310623169	fix_post	2		12	15.0	2.5	/experiments/AOT/AOT_stimuli/rescaled_final/2166_rv.mp4	0.0	143.51436018943787	0.10041999816894531
18	110.24105310440063	fix_pre	0		119	16.0	2.5	/experiments/AOT/AOT_stimuli/rescaled_final/0685_rv.mp4	0.0	143.6147801876068	0.991675853729248
18	111.22455906867981	pulse	0	t		16.0	2.5	/experiments/AOT/AOT_stimuli/rescaled_final/0685_rv.mp4	0.0	144.598286151886	
18	111.23272895812988	movie	1		246	16.0	2.5	/experiments/AOT/AOT_stimuli/rescaled_final/0685_rv.mp4	0.0	144.60645604133606	2.508366107940674
18	112.82406306266785	pulse	1	t		16.0	2.5	/experiments/AOT/AOT_stimuli/rescaled_final/0685_rv.mp4	0.0	146.19779014587402	
18	113.74109506607056	fix_post	2		12	16.0	2.5	/experiments/AOT/AOT_stimuli/rescaled_final/0685_rv.mp4	0.0	147.11482214927673	0.0999910831451416
19	113.8410861492157	fix_pre	0		120	17.0	2.5	/experiments/AOT/AOT_stimuli/rescaled_final/1455_rv.mp4	0.0	147.21481323242188	0.9995288848876953
19	114.42453813552856	pulse	0	t		17.0	2.5	/experiments/AOT/AOT_stimuli/rescaled_final/1455_rv.mp4	0.0	147.79826521873474	
19	114.8406150341034	movie	1		243	17.0	2.5	/experiments/AOT/AOT_stimuli/rescaled_final/1455_rv.mp4	0.0	148.21434211730957	2.4999730587005615
19	116.02460312843323	pulse	1	t		17.0	2.5	/experiments/AOT/AOT_stimuli/rescaled_final/1455_rv.mp4	0.0	149.3983302116394	
19	117.34058809280396	fix_post	2		12	17.0	2.5	/experiments/AOT/AOT_stimuli/rescaled_final/1455_rv.mp4	0.0	150.71431517601013	0.10045385360717773
20	117.44104194641113	fix_pre	0		120	18.0	2.5	/experiments/AOT/AOT_stimuli/rescaled_final/0946_rv.mp4	0.0	150.8147690296173	0.9999401569366455
20	117.62456607818604	pulse	0	t		18.0	2.5	/experiments/AOT/AOT_stimuli/rescaled_final/0946_rv.mp4	0.0	150.9982931613922	
20	118.44098210334778	movie	1		242	18.0	2.5	/experiments/AOT/AOT_stimuli/rescaled_final/0946_rv.mp4	0.0	151.81470918655396	2.5000498294830322
20	119.22455406188965	pulse	1	t		18.0	2.5	/experiments/AOT/AOT_stimuli/rescaled_final/0946_rv.mp4	0.0	152.59828114509583	
20	120.82374215126038	pulse	1	t		18.0	2.5	/experiments/AOT/AOT_stimuli/rescaled_final/0946_rv.mp4	0.0	154.19746923446655	
20	120.94103193283081	fix_post	2		12	18.0	2.5	/experiments/AOT/AOT_stimuli/rescaled_final/0946_rv.mp4	0.0	154.314759016037	0.10003209114074707
21	121.04106402397156	fix_pre	0		120	19.0	2.5	/experiments/AOT/AOT_stimuli/rescaled_final/0435_fw.mp4	0.0	154.41479110717773	0.9995319843292236
21	122.04059600830078	movie	1		243	19.0	2.5	/experiments/AOT/AOT_stimuli/rescaled_final/0435_fw.mp4	0.0	155.41432309150696	2.5004961490631104
21	122.42466115951538	pulse	1	t		19.0	2.5	/experiments/AOT/AOT_stimuli/rescaled_final/0435_fw.mp4	0.0	155.79838824272156	
21	124.02450609207153	pulse	1	t		19.0	2.5	/experiments/AOT/AOT_stimuli/rescaled_final/0435_fw.mp4	0.0	157.3982331752777	
21	124.54109215736389	fix_post	2		12	19.0	2.5	/experiments/AOT/AOT_stimuli/rescaled_final/0435_fw.mp4	0.0	157.91481924057007	0.09998583793640137
22	124.6410779953003	fix_pre	0		119	20.0	2.5	/experiments/AOT/AOT_stimuli/rescaled_final/1632_rv.mp4	0.0	158.01480507850647	0.9915671348571777
22	125.62451505661011	pulse	0	t		20.0	2.5	/experiments/AOT/AOT_stimuli/rescaled_final/1632_rv.mp4	0.0	158.99824213981628	
22	125.63264513015747	movie	1		245	20.0	2.5	/experiments/AOT/AOT_stimuli/rescaled_final/1632_rv.mp4	0.0	159.00637221336365	2.5082828998565674
22	127.22445607185364	pulse	1	t		20.0	2.5	/experiments/AOT/AOT_stimuli/rescaled_final/1632_rv.mp4	0.0	160.59818315505981	
22	128.14092803001404	fix_post	2		12	20.0	2.5	/experiments/AOT/AOT_stimuli/rescaled_final/1632_rv.mp4	0.0	161.51465511322021	0.1000220775604248
23	128.24095010757446	fix_pre	0		120	21.0	2.5	blank	1.0	161.61467719078064	1.0000638961791992
23	128.82450008392334	pulse	0	t		21.0	2.5	blank	1.0	162.19822716712952	
23	129.24101400375366	movie	1		300	21.0	2.5	blank	1.0	162.61474108695984	2.500023126602173
23	130.42449808120728	pulse	1	t		21.0	2.5	blank	1.0	163.79822516441345	
23	131.74103713035583	fix_post	2		12	21.0	2.5	blank	1.0	165.114764213562	0.0999598503112793
24	131.84099698066711	fix_pre	0		120	22.0	2.5	/experiments/AOT/AOT_stimuli/rescaled_final/1741_rv.mp4	0.0	165.2147240638733	0.9999330043792725
24	132.0246820449829	pulse	0	t		22.0	2.5	/experiments/AOT/AOT_stimuli/rescaled_final/1741_rv.mp4	0.0	165.3984091281891	
24	132.8409299850464	movie	1		243	22.0	2.5	/experiments/AOT/AOT_stimuli/rescaled_final/1741_rv.mp4	0.0	166.21465706825256	2.500059127807617
24	133.62448596954346	pulse	1	t		22.0	2.5	/experiments/AOT/AOT_stimuli/rescaled_final/1741_rv.mp4	0.0	166.99821305274963	
24	135.22290515899658	pulse	1	t		22.0	2.5	/experiments/AOT/AOT_stimuli/rescaled_final/1741_rv.mp4	0.0	168.59663224220276	
24	135.340989112854	fix_post	2		12	22.0	2.5	/experiments/AOT/AOT_stimuli/rescaled_final/1741_rv.mp4	0.0	168.71471619606018	0.09995388984680176
25	135.4409430027008	fix_pre	0		120	23.0	2.5	/experiments/AOT/AOT_stimuli/rescaled_final/2122_rv.mp4	0.0	168.81467008590698	0.9999890327453613
25	136.44093203544617	movie	1		243	23.0	2.5	/experiments/AOT/AOT_stimuli/rescaled_final/2122_rv.mp4	0.0	169.81465911865234	2.5000219345092773
25	136.82409715652466	pulse	1	t		23.0	2.5	/experiments/AOT/AOT_stimuli/rescaled_final/2122_rv.mp4	0.0	170.19782423973083	
25	138.4244339466095	pulse	1	t		23.0	2.5	/experiments/AOT/AOT_stimuli/rescaled_final/2122_rv.mp4	0.0	171.79816102981567	
25	138.94095396995544	fix_post	2		12	23.0	2.5	/experiments/AOT/AOT_stimuli/rescaled_final/2122_rv.mp4	0.0	172.31468105316162	0.10008597373962402
26	139.04103994369507	fix_pre	0		119	24.0	2.5	/experiments/AOT/AOT_stimuli/rescaled_final/0298_rv.mp4	0.0	172.41476702690125	0.9916319847106934
26	140.0244481563568	pulse	0	t		24.0	2.5	/experiments/AOT/AOT_stimuli/rescaled_final/0298_rv.mp4	0.0	173.398175239563	
26	140.03267192840576	movie	1		244	24.0	2.5	/experiments/AOT/AOT_stimuli/rescaled_final/0298_rv.mp4	0.0	173.40639901161194	2.508052110671997
26	141.62406396865845	pulse	1	t		24.0	2.5	/experiments/AOT/AOT_stimuli/rescaled_final/0298_rv.mp4	0.0	174.99779105186462	
26	142.54072403907776	fix_post	2		12	24.0	2.5	/experiments/AOT/AOT_stimuli/rescaled_final/0298_rv.mp4	0.0	175.91445112228394	0.10042905807495117
27	142.6411530971527	fix_pre	0		120	25.0	2.5	/experiments/AOT/AOT_stimuli/rescaled_final/1824_fw.mp4	0.0	176.0148801803589	0.9997260570526123
27	143.22469115257263	pulse	0	t		25.0	2.5	/experiments/AOT/AOT_stimuli/rescaled_final/1824_fw.mp4	0.0	176.5984182357788	
27	143.64087915420532	movie	1		245	25.0	2.5	/experiments/AOT/AOT_stimuli/rescaled_final/1824_fw.mp4	0.0	177.0146062374115	2.5000197887420654
27	144.82441306114197	pulse	1	t		25.0	2.5	/experiments/AOT/AOT_stimuli/rescaled_final/1824_fw.mp4	0.0	178.19814014434814	
27	146.1408989429474	fix_post	2		12	25.0	2.5	/experiments/AOT/AOT_stimuli/rescaled_final/1824_fw.mp4	0.0	179.51462602615356	0.10008716583251953
28	146.2409861087799	fix_pre	0		120	26.0	2.5	/experiments/AOT/AOT_stimuli/rescaled_final/2012_rv.mp4	0.0	179.61471319198608	0.9998948574066162
28	146.42439794540405	pulse	0	t		26.0	2.5	/experiments/AOT/AOT_stimuli/rescaled_final/2012_rv.mp4	0.0	179.79812502861023	
28	147.24088096618652	movie	1		244	26.0	2.5	/experiments/AOT/AOT_stimuli/rescaled_final/2012_rv.mp4	0.0	180.6146080493927	2.49997615814209
28	148.02436113357544	pulse	1	t		26.0	2.5	/experiments/AOT/AOT_stimuli/rescaled_final/2012_rv.mp4	0.0	181.39808821678162	
28	149.62306213378906	pulse	1	t		26.0	2.5	/experiments/AOT/AOT_stimuli/rescaled_final/2012_rv.mp4	0.0	182.99678921699524	
28	149.7408571243286	fix_post	2		12	26.0	2.5	/experiments/AOT/AOT_stimuli/rescaled_final/2012_rv.mp4	0.0	183.1145842075348	0.09959602355957031
29	149.84045314788818	fix_pre	0		120	27.0	2.5	blank	1.0	183.21418023109436	1.0004057884216309
29	150.84085893630981	movie	1		300	27.0	2.5	blank	1.0	184.214586019516	2.5000481605529785
29	151.2243549823761	pulse	1	t		27.0	2.5	blank	1.0	184.59808206558228	
29	152.82444596290588	pulse	1	t		27.0	2.5	blank	1.0	186.19817304611206	
29	153.3409070968628	fix_post	2		12	27.0	2.5	blank	1.0	186.71463418006897	0.09994006156921387
30	153.440847158432	fix_pre	0		119	28.0	2.5	/experiments/AOT/AOT_stimuli/rescaled_final/0599_rv.mp4	0.0	186.81457424163818	0.9916949272155762
30	154.4244360923767	pulse	0	t		28.0	2.5	/experiments/AOT/AOT_stimuli/rescaled_final/0599_rv.mp4	0.0	187.79816317558289	
30	154.43254208564758	movie	1		246	28.0	2.5	/experiments/AOT/AOT_stimuli/rescaled_final/0599_rv.mp4	0.0	187.80626916885376	2.5083138942718506
30	156.02547311782837	pulse	1	t		28.0	2.5	/experiments/AOT/AOT_stimuli/rescaled_final/0599_rv.mp4	0.0	189.39920020103455	
30	156.94085597991943	fix_post	2		12	28.0	2.5	/experiments/AOT/AOT_stimuli/rescaled_final/0599_rv.mp4	0.0	190.3145830631256	0.0999751091003418
31	157.04083108901978	fix_pre	0		120	29.0	2.5	/experiments/AOT/AOT_stimuli/rescaled_final/1256_fw.mp4	0.0	190.41455817222595	0.9999918937683105
31	157.62447214126587	pulse	0	t		29.0	2.5	/experiments/AOT/AOT_stimuli/rescaled_final/1256_fw.mp4	0.0	190.99819922447205	
31	158.0408229827881	movie	1		247	29.0	2.5	/experiments/AOT/AOT_stimuli/rescaled_final/1256_fw.mp4	0.0	191.41455006599426	2.500030994415283
31	159.22433304786682	pulse	1	t		29.0	2.5	/experiments/AOT/AOT_stimuli/rescaled_final/1256_fw.mp4	0.0	192.598060131073	
31	160.54085397720337	fix_post	2		12	29.0	2.5	/experiments/AOT/AOT_stimuli/rescaled_final/1256_fw.mp4	0.0	193.91458106040955	0.0999760627746582
32	160.64083003997803	fix_pre	0		120	30.0	2.5	/experiments/AOT/AOT_stimuli/rescaled_final/1632_fw.mp4	0.0	194.0145571231842	0.9999659061431885
32	160.824294090271	pulse	0	t		30.0	2.5	/experiments/AOT/AOT_stimuli/rescaled_final/1632_fw.mp4	0.0	194.19802117347717	
32	161.64079594612122	movie	1		244	30.0	2.5	/experiments/AOT/AOT_stimuli/rescaled_final/1632_fw.mp4	0.0	195.0145230293274	2.500092029571533
32	162.42448592185974	pulse	1	t		30.0	2.5	/experiments/AOT/AOT_stimuli/rescaled_final/1632_fw.mp4	0.0	195.79821300506592	
32	164.02497506141663	pulse	1	t		30.0	2.5	/experiments/AOT/AOT_stimuli/rescaled_final/1632_fw.mp4	0.0	197.3987021446228	
32	164.14088797569275	fix_post	2		12	30.0	2.5	/experiments/AOT/AOT_stimuli/rescaled_final/1632_fw.mp4	0.0	197.51461505889893	0.09986996650695801
33	164.2407579421997	fix_pre	0		120	31.0	2.5	/experiments/AOT/AOT_stimuli/rescaled_final/1369_rv.mp4	0.0	197.61448502540588	1.0000581741333008
33	165.240816116333	movie	1		243	31.0	2.5	/experiments/AOT/AOT_stimuli/rescaled_final/1369_rv.mp4	0.0	198.61454319953918	2.500001907348633
33	165.62405395507812	pulse	1	t		31.0	2.5	/experiments/AOT/AOT_stimuli/rescaled_final/1369_rv.mp4	0.0	198.9977810382843	
33	167.22420811653137	pulse	1	t		31.0	2.5	/experiments/AOT/AOT_stimuli/rescaled_final/1369_rv.mp4	0.0	200.59793519973755	
33	167.74081802368164	fix_post	2		12	31.0	2.5	/experiments/AOT/AOT_stimuli/rescaled_final/1369_rv.mp4	0.0	201.11454510688782	0.09952306747436523
34	167.840341091156	fix_pre	0		119	32.0	2.5	/experiments/AOT/AOT_stimuli/rescaled_final/0858_fw.mp4	0.0	201.21406817436218	0.992063045501709
34	168.82428193092346	pulse	0	t		32.0	2.5	/experiments/AOT/AOT_stimuli/rescaled_final/0858_fw.mp4	0.0	202.19800901412964	
34	168.83240413665771	movie	1		244	32.0	2.5	/experiments/AOT/AOT_stimuli/rescaled_final/0858_fw.mp4	0.0	202.2061312198639	2.5079598426818848
34	170.4239809513092	pulse	1	t		32.0	2.5	/experiments/AOT/AOT_stimuli/rescaled_final/0858_fw.mp4	0.0	203.79770803451538	
34	171.3403639793396	fix_post	2		12	32.0	2.5	/experiments/AOT/AOT_stimuli/rescaled_final/0858_fw.mp4	0.0	204.71409106254578	0.10036301612854004
35	171.44072699546814	fix_pre	0		120	33.0	2.5	blank	1.0	204.81445407867432	1.0000431537628174
35	172.0242760181427	pulse	0	t		33.0	2.5	blank	1.0	205.39800310134888	
35	172.44077014923096	movie	1		300	33.0	2.5	blank	1.0	205.81449723243713	2.4995999336242676
35	173.62425804138184	pulse	1	t		33.0	2.5	blank	1.0	206.997985124588	
35	174.94037008285522	fix_post	2		12	33.0	2.5	blank	1.0	208.3140971660614	0.09997105598449707
36	175.04034113883972	fix_pre	0		120	34.0	2.5	/experiments/AOT/AOT_stimuli/rescaled_final/1026_fw.mp4	0.0	208.4140682220459	1.0003859996795654
36	175.2243411540985	pulse	0	t		34.0	2.5	/experiments/AOT/AOT_stimuli/rescaled_final/1026_fw.mp4	0.0	208.5980682373047	
36	176.0407271385193	movie	1		246	34.0	2.5	/experiments/AOT/AOT_stimuli/rescaled_final/1026_fw.mp4	0.0	209.41445422172546	2.4995880126953125
36	176.8242290019989	pulse	1	t		34.0	2.5	/experiments/AOT/AOT_stimuli/rescaled_final/1026_fw.mp4	0.0	210.19795608520508	
36	178.42295503616333	pulse	1	t		34.0	2.5	/experiments/AOT/AOT_stimuli/rescaled_final/1026_fw.mp4	0.0	211.7966821193695	
36	178.5403151512146	fix_post	2		12	34.0	2.5	/experiments/AOT/AOT_stimuli/rescaled_final/1026_fw.mp4	0.0	211.91404223442078	0.10043787956237793
37	178.64075303077698	fix_pre	0		120	35.0	2.5	/experiments/AOT/AOT_stimuli/rescaled_final/1430_fw.mp4	0.0	212.01448011398315	0.999967098236084
37	179.64072012901306	movie	1		245	35.0	2.5	/experiments/AOT/AOT_stimuli/rescaled_final/1430_fw.mp4	0.0	213.01444721221924	2.4995949268341064
37	180.02353405952454	pulse	1	t		35.0	2.5	/experiments/AOT/AOT_stimuli/rescaled_final/1430_fw.mp4	0.0	213.3972611427307	
37	181.6242799758911	pulse	1	t		35.0	2.5	/experiments/AOT/AOT_stimuli/rescaled_final/1430_fw.mp4	0.0	214.9980070590973	
37	182.14031505584717	fix_post	2		12	35.0	2.5	/experiments/AOT/AOT_stimuli/rescaled_final/1430_fw.mp4	0.0	215.51404213905334	0.10042786598205566
38	182.24074292182922	fix_pre	0		119	36.0	2.5	/experiments/AOT/AOT_stimuli/rescaled_final/0548_fw.mp4	0.0	215.6144700050354	0.991584062576294
38	183.22420501708984	pulse	0	t		36.0	2.5	/experiments/AOT/AOT_stimuli/rescaled_final/0548_fw.mp4	0.0	216.59793210029602	
38	183.23232698440552	movie	1		246	36.0	2.5	/experiments/AOT/AOT_stimuli/rescaled_final/0548_fw.mp4	0.0	216.6060540676117	2.508345127105713
38	184.8237280845642	pulse	1	t		36.0	2.5	/experiments/AOT/AOT_stimuli/rescaled_final/0548_fw.mp4	0.0	218.19745516777039	
38	185.74067211151123	fix_post	2		12	36.0	2.5	/experiments/AOT/AOT_stimuli/rescaled_final/0548_fw.mp4	0.0	219.1143991947174	0.10003495216369629
39	185.84070706367493	fix_pre	0		120	37.0	2.5	/experiments/AOT/AOT_stimuli/rescaled_final/1104_rv.mp4	0.0	219.2144341468811	1.0001220703125
39	186.4242000579834	pulse	0	t		37.0	2.5	/experiments/AOT/AOT_stimuli/rescaled_final/1104_rv.mp4	0.0	219.79792714118958	
39	186.84082913398743	movie	1		243	37.0	2.5	/experiments/AOT/AOT_stimuli/rescaled_final/1104_rv.mp4	0.0	220.2145562171936	2.499871015548706
39	188.02427411079407	pulse	1	t		37.0	2.5	/experiments/AOT/AOT_stimuli/rescaled_final/1104_rv.mp4	0.0	221.39800119400024	
39	189.34070014953613	fix_post	2		12	37.0	2.5	/experiments/AOT/AOT_stimuli/rescaled_final/1104_rv.mp4	0.0	222.7144272327423	0.09997200965881348
40	189.44067215919495	fix_pre	0		120	38.0	2.5	/experiments/AOT/AOT_stimuli/rescaled_final/0546_fw.mp4	0.0	222.81439924240112	0.9999768733978271
40	189.62417006492615	pulse	0	t		38.0	2.5	/experiments/AOT/AOT_stimuli/rescaled_final/0546_fw.mp4	0.0	222.99789714813232	
40	190.44064903259277	movie	1		244	38.0	2.5	/experiments/AOT/AOT_stimuli/rescaled_final/0546_fw.mp4	0.0	223.81437611579895	2.49959397315979
40	191.2241599559784	pulse	1	t		38.0	2.5	/experiments/AOT/AOT_stimuli/rescaled_final/0546_fw.mp4	0.0	224.59788703918457	
40	192.82292008399963	pulse	1	t		38.0	2.5	/experiments/AOT/AOT_stimuli/rescaled_final/0546_fw.mp4	0.0	226.1966471672058	
40	192.94024300575256	fix_post	2		12	38.0	2.5	/experiments/AOT/AOT_stimuli/rescaled_final/0546_fw.mp4	0.0	226.31397008895874	0.10045099258422852
41	193.0406939983368	fix_pre	0		120	39.0	2.5	/experiments/AOT/AOT_stimuli/rescaled_final/0780_fw.mp4	0.0	226.41442108154297	0.9999830722808838
41	194.04067707061768	movie	1		247	39.0	2.5	/experiments/AOT/AOT_stimuli/rescaled_final/0780_fw.mp4	0.0	227.41440415382385	2.4995739459991455
41	194.4237780570984	pulse	1	t		39.0	2.5	/experiments/AOT/AOT_stimuli/rescaled_final/0780_fw.mp4	0.0	227.79750514030457	
41	196.0236940383911	pulse	1	t		39.0	2.5	/experiments/AOT/AOT_stimuli/rescaled_final/0780_fw.mp4	0.0	229.3974211215973	
41	196.54025101661682	fix_post	2		12	39.0	2.5	/experiments/AOT/AOT_stimuli/rescaled_final/0780_fw.mp4	0.0	229.913978099823	0.10000801086425781
42	196.64025902748108	fix_pre	0		119	40.0	2.5	blank	1.0	230.01398611068726	0.9919009208679199
42	197.6238751411438	pulse	0	t		40.0	2.5	blank	1.0	230.99760222434998	
42	197.632159948349	movie	1		301	40.0	2.5	blank	1.0	231.00588703155518	2.5085442066192627
42	199.22406101226807	pulse	1	t		40.0	2.5	blank	1.0	232.59778809547424	
42	200.14070415496826	fix_post	2		12	40.0	2.5	blank	1.0	233.51443123817444	0.09956693649291992
43	200.24027109146118	fix_pre	0		120	41.0	2.5	/experiments/AOT/AOT_stimuli/rescaled_final/0091_fw.mp4	0.0	233.61399817466736	1.0004370212554932
43	200.82409811019897	pulse	0	t		41.0	2.5	/experiments/AOT/AOT_stimuli/rescaled_final/0091_fw.mp4	0.0	234.19782519340515	
43	201.24070811271667	movie	1		247	41.0	2.5	/experiments/AOT/AOT_stimuli/rescaled_final/0091_fw.mp4	0.0	234.61443519592285	2.499910831451416
43	202.4241919517517	pulse	1	t		41.0	2.5	/experiments/AOT/AOT_stimuli/rescaled_final/0091_fw.mp4	0.0	235.79791903495789	
43	203.7406189441681	fix_post	2		12	41.0	2.5	/experiments/AOT/AOT_stimuli/rescaled_final/0091_fw.mp4	0.0	237.11434602737427	0.10005903244018555
44	203.84067797660828	fix_pre	0		120	42.0	2.5	/experiments/AOT/AOT_stimuli/rescaled_final/1554_rv.mp4	0.0	237.21440505981445	0.9999520778656006
44	204.02419900894165	pulse	0	t		42.0	2.5	/experiments/AOT/AOT_stimuli/rescaled_final/1554_rv.mp4	0.0	237.39792609214783	
44	204.84063005447388	movie	1		244	42.0	2.5	/experiments/AOT/AOT_stimuli/rescaled_final/1554_rv.mp4	0.0	238.21435713768005	2.4995529651641846
44	205.62407803535461	pulse	1	t		42.0	2.5	/experiments/AOT/AOT_stimuli/rescaled_final/1554_rv.mp4	0.0	238.9978051185608	
44	207.2228181362152	pulse	1	t		42.0	2.5	/experiments/AOT/AOT_stimuli/rescaled_final/1554_rv.mp4	0.0	240.5965452194214	
44	207.34018301963806	fix_post	2		12	42.0	2.5	/experiments/AOT/AOT_stimuli/rescaled_final/1554_rv.mp4	0.0	240.71391010284424	0.10044002532958984
45	207.44062304496765	fix_pre	0		120	43.0	2.5	/experiments/AOT/AOT_stimuli/rescaled_final/0091_rv.mp4	0.0	240.81435012817383	0.9999589920043945
45	208.44058203697205	movie	1		245	43.0	2.5	/experiments/AOT/AOT_stimuli/rescaled_final/0091_rv.mp4	0.0	241.81430912017822	2.4996509552001953
45	208.82364797592163	pulse	1	t		43.0	2.5	/experiments/AOT/AOT_stimuli/rescaled_final/0091_rv.mp4	0.0	242.1973750591278	
45	210.4240701198578	pulse	1	t		43.0	2.5	/experiments/AOT/AOT_stimuli/rescaled_final/0091_rv.mp4	0.0	243.79779720306396	
45	210.94023299217224	fix_post	2		12	43.0	2.5	/experiments/AOT/AOT_stimuli/rescaled_final/0091_rv.mp4	0.0	244.31396007537842	0.10034298896789551
46	211.04057598114014	fix_pre	0		119	44.0	2.5	/experiments/AOT/AOT_stimuli/rescaled_final/2175_fw.mp4	0.0	244.4143030643463	0.9916939735412598
46	212.02409100532532	pulse	0	t		44.0	2.5	/experiments/AOT/AOT_stimuli/rescaled_final/2175_fw.mp4	0.0	245.3978180885315	
46	212.0322699546814	movie	1		246	44.0	2.5	/experiments/AOT/AOT_stimuli/rescaled_final/2175_fw.mp4	0.0	245.40599703788757	2.508315086364746
46	213.62376809120178	pulse	1	t		44.0	2.5	/experiments/AOT/AOT_stimuli/rescaled_final/2175_fw.mp4	0.0	246.99749517440796	
46	214.54058504104614	fix_post	2		12	44.0	2.5	/experiments/AOT/AOT_stimuli/rescaled_final/2175_fw.mp4	0.0	247.91431212425232	0.10001492500305176
47	214.6405999660492	fix_pre	0		120	45.0	2.5	/experiments/AOT/AOT_stimuli/rescaled_final/1200_rv.mp4	0.0	248.01432704925537	0.9996340274810791
47	215.2241771221161	pulse	0	t		45.0	2.5	/experiments/AOT/AOT_stimuli/rescaled_final/1200_rv.mp4	0.0	248.59790420532227	
47	215.64023399353027	movie	1		243	45.0	2.5	/experiments/AOT/AOT_stimuli/rescaled_final/1200_rv.mp4	0.0	249.01396107673645	2.5003581047058105
47	216.82415103912354	pulse	1	t		45.0	2.5	/experiments/AOT/AOT_stimuli/rescaled_final/1200_rv.mp4	0.0	250.1978781223297	
47	218.14059209823608	fix_post	2		12	45.0	2.5	/experiments/AOT/AOT_stimuli/rescaled_final/1200_rv.mp4	0.0	251.51431918144226	0.09988093376159668
48	218.24047303199768	fix_pre	0		120	46.0	2.5	/experiments/AOT/AOT_stimuli/rescaled_final/0421_rv.mp4	0.0	251.61420011520386	1.0000059604644775
48	218.4240529537201	pulse	0	t		46.0	2.5	/experiments/AOT/AOT_stimuli/rescaled_final/0421_rv.mp4	0.0	251.79778003692627	
48	219.24047899246216	movie	1		244	46.0	2.5	/experiments/AOT/AOT_stimuli/rescaled_final/0421_rv.mp4	0.0	252.61420607566833	2.5000290870666504
48	220.0240170955658	pulse	1	t		46.0	2.5	/experiments/AOT/AOT_stimuli/rescaled_final/0421_rv.mp4	0.0	253.39774417877197	
48	221.62264394760132	pulse	1	t		46.0	2.5	/experiments/AOT/AOT_stimuli/rescaled_final/0421_rv.mp4	0.0	254.9963710308075	
48	221.7405080795288	fix_post	2		12	46.0	2.5	/experiments/AOT/AOT_stimuli/rescaled_final/0421_rv.mp4	0.0	255.11423516273499	0.10006594657897949
49	221.8405740261078	fix_pre	0		120	47.0	2.5	blank	1.0	255.21430110931396	1.0000450611114502
49	222.84061908721924	movie	1		300	47.0	2.5	blank	1.0	256.2143461704254	2.49993896484375
49	223.22405910491943	pulse	1	t		47.0	2.5	blank	1.0	256.5977861881256	
49	224.8240261077881	pulse	1	t		47.0	2.5	blank	1.0	258.19775319099426	
49	225.340558052063	fix_post	2		12	47.0	2.5	blank	1.0	258.71428513526917	0.09986710548400879
50	225.440425157547	fix_pre	0		119	48.0	2.5	/experiments/AOT/AOT_stimuli/rescaled_final/1767_fw.mp4	0.0	258.8141522407532	0.9917187690734863
50	226.42412400245667	pulse	0	t		48.0	2.5	/experiments/AOT/AOT_stimuli/rescaled_final/1767_fw.mp4	0.0	259.79785108566284	
50	226.43214392662048	movie	1		246	48.0	2.5	/experiments/AOT/AOT_stimuli/rescaled_final/1767_fw.mp4	0.0	259.80587100982666	2.5082640647888184
50	228.0238630771637	pulse	1	t		48.0	2.5	/experiments/AOT/AOT_stimuli/rescaled_final/1767_fw.mp4	0.0	261.3975901603699	
50	228.9404079914093	fix_post	2		12	48.0	2.5	/experiments/AOT/AOT_stimuli/rescaled_final/1767_fw.mp4	0.0	262.3141350746155	0.10008811950683594
51	229.04049611091614	fix_pre	0		120	49.0	2.5	/experiments/AOT/AOT_stimuli/rescaled_final/1216_rv.mp4	0.0	262.4142231941223	0.999971866607666
51	229.62404894828796	pulse	0	t		49.0	2.5	/experiments/AOT/AOT_stimuli/rescaled_final/1216_rv.mp4	0.0	262.99777603149414	
51	230.0404679775238	movie	1		243	49.0	2.5	/experiments/AOT/AOT_stimuli/rescaled_final/1216_rv.mp4	0.0	263.41419506073	2.5000550746917725
51	231.22401213645935	pulse	1	t		49.0	2.5	/experiments/AOT/AOT_stimuli/rescaled_final/1216_rv.mp4	0.0	264.5977392196655	
51	232.54052305221558	fix_post	2		12	49.0	2.5	/experiments/AOT/AOT_stimuli/rescaled_final/1216_rv.mp4	0.0	265.91425013542175	0.09995794296264648
52	232.64048099517822	fix_pre	0		120	50.0	2.5	/experiments/AOT/AOT_stimuli/rescaled_final/1072_rv.mp4	0.0	266.0142080783844	0.9999809265136719
52	232.824068069458	pulse	0	t		50.0	2.5	/experiments/AOT/AOT_stimuli/rescaled_final/1072_rv.mp4	0.0	266.1977951526642	
52	233.6404619216919	movie	1		243	50.0	2.5	/experiments/AOT/AOT_stimuli/rescaled_final/1072_rv.mp4	0.0	267.01418900489807	2.500087022781372
52	234.423996925354	pulse	1	t		50.0	2.5	/experiments/AOT/AOT_stimuli/rescaled_final/1072_rv.mp4	0.0	267.7977240085602	
52	236.02235412597656	pulse	1	t		50.0	2.5	/experiments/AOT/AOT_stimuli/rescaled_final/1072_rv.mp4	0.0	269.39608120918274	
52	236.14054894447327	fix_post	2		12	50.0	2.5	/experiments/AOT/AOT_stimuli/rescaled_final/1072_rv.mp4	0.0	269.51427602767944	0.09951114654541016
53	236.24006009101868	fix_pre	0		120	51.0	2.5	/experiments/AOT/AOT_stimuli/rescaled_final/0554_rv.mp4	0.0	269.61378717422485	1.0004808902740479
53	237.24054098129272	movie	1		243	51.0	2.5	/experiments/AOT/AOT_stimuli/rescaled_final/0554_rv.mp4	0.0	270.6142680644989	2.499439001083374
53	237.62348794937134	pulse	1	t		51.0	2.5	/experiments/AOT/AOT_stimuli/rescaled_final/0554_rv.mp4	0.0	270.9972150325775	
53	239.2239329814911	pulse	1	t		51.0	2.5	/experiments/AOT/AOT_stimuli/rescaled_final/0554_rv.mp4	0.0	272.59766006469727	
53	239.7399799823761	fix_post	2		12	51.0	2.5	/experiments/AOT/AOT_stimuli/rescaled_final/0554_rv.mp4	0.0	273.1137070655823	0.10047197341918945
54	239.8404519557953	fix_pre	0		119	52.0	2.5	/experiments/AOT/AOT_stimuli/rescaled_final/1954_fw.mp4	0.0	273.21417903900146	0.991624116897583
54	240.82393503189087	pulse	0	t		52.0	2.5	/experiments/AOT/AOT_stimuli/rescaled_final/1954_fw.mp4	0.0	274.19766211509705	
54	240.83207607269287	movie	1		244	52.0	2.5	/experiments/AOT/AOT_stimuli/rescaled_final/1954_fw.mp4	0.0	274.20580315589905	2.50793194770813
54	242.42389702796936	pulse	1	t		52.0	2.5	/experiments/AOT/AOT_stimuli/rescaled_final/1954_fw.mp4	0.0	275.79762411117554	
54	243.340008020401	fix_post	2		12	52.0	2.5	/experiments/AOT/AOT_stimuli/rescaled_final/1954_fw.mp4	0.0	276.7137351036072	0.10015201568603516
55	243.44016003608704	fix_pre	0		120	53.0	2.5	/experiments/AOT/AOT_stimuli/rescaled_final/0026_rv.mp4	0.0	276.8138871192932	1.0003271102905273
55	244.0239520072937	pulse	0	t		53.0	2.5	/experiments/AOT/AOT_stimuli/rescaled_final/0026_rv.mp4	0.0	277.3976790904999	
55	244.44048714637756	movie	1		244	53.0	2.5	/experiments/AOT/AOT_stimuli/rescaled_final/0026_rv.mp4	0.0	277.81421422958374	2.4999098777770996
55	245.6240029335022	pulse	1	t		53.0	2.5	/experiments/AOT/AOT_stimuli/rescaled_final/0026_rv.mp4	0.0	278.9977300167084	
55	246.94039702415466	fix_post	2		12	53.0	2.5	/experiments/AOT/AOT_stimuli/rescaled_final/0026_rv.mp4	0.0	280.31412410736084	0.10003900527954102
56	247.0404360294342	fix_pre	0		120	54.0	2.5	/experiments/AOT/AOT_stimuli/rescaled_final/0548_fw.mp4	0.0	280.4141631126404	1.0000250339508057
56	247.22398710250854	pulse	0	t		54.0	2.5	/experiments/AOT/AOT_stimuli/rescaled_final/0548_fw.mp4	0.0	280.5977141857147	
56	248.040461063385	movie	1		245	54.0	2.5	/experiments/AOT/AOT_stimuli/rescaled_final/0548_fw.mp4	0.0	281.4141881465912	2.499993085861206
56	248.82393598556519	pulse	1	t		54.0	2.5	/experiments/AOT/AOT_stimuli/rescaled_final/0548_fw.mp4	0.0	282.19766306877136	
56	250.42388701438904	pulse	1	t		54.0	2.5	/experiments/AOT/AOT_stimuli/rescaled_final/0548_fw.mp4	0.0	283.7976140975952	
56	250.54045414924622	fix_post	2		12	54.0	2.5	/experiments/AOT/AOT_stimuli/rescaled_final/0548_fw.mp4	0.0	283.9141812324524	0.10002279281616211
57	250.64047694206238	fix_pre	0		120	55.0	2.5	blank	1.0	284.01420402526855	0.9999830722808838
57	251.64046001434326	movie	1		300	55.0	2.5	blank	1.0	285.01418709754944	2.4996769428253174
57	252.023442029953	pulse	1	t		55.0	2.5	blank	1.0	285.3971691131592	
57	253.6240839958191	pulse	1	t		55.0	2.5	blank	1.0	286.99781107902527	
57	254.14013695716858	fix_post	2		12	55.0	2.5	blank	1.0	287.51386404037476	0.10008001327514648
58	254.24021697044373	fix_pre	0		119	56.0	2.5	/experiments/AOT/AOT_stimuli/rescaled_final/0780_rv.mp4	0.0	287.6139440536499	0.9917700290679932
58	255.22381496429443	pulse	0	t		56.0	2.5	/experiments/AOT/AOT_stimuli/rescaled_final/0780_rv.mp4	0.0	288.5975420475006	
58	255.23198699951172	movie	1		246	56.0	2.5	/experiments/AOT/AOT_stimuli/rescaled_final/0780_rv.mp4	0.0	288.6057140827179	2.50838303565979
58	256.8236219882965	pulse	1	t		56.0	2.5	/experiments/AOT/AOT_stimuli/rescaled_final/0780_rv.mp4	0.0	290.1973490715027	
58	257.7403700351715	fix_post	2		12	56.0	2.5	/experiments/AOT/AOT_stimuli/rescaled_final/0780_rv.mp4	0.0	291.1140971183777	0.09999608993530273
59	257.8403661251068	fix_pre	0		120	57.0	2.5	/experiments/AOT/AOT_stimuli/rescaled_final/1998_fw.mp4	0.0	291.214093208313	0.9996128082275391
59	258.4239270687103	pulse	0	t		57.0	2.5	/experiments/AOT/AOT_stimuli/rescaled_final/1998_fw.mp4	0.0	291.7976541519165	
59	258.83997893333435	movie	1		243	57.0	2.5	/experiments/AOT/AOT_stimuli/rescaled_final/1998_fw.mp4	0.0	292.2137060165405	2.4999871253967285
59	260.0238709449768	pulse	1	t		57.0	2.5	/experiments/AOT/AOT_stimuli/rescaled_final/1998_fw.mp4	0.0	293.397598028183	
59	261.3399660587311	fix_post	2		12	57.0	2.5	/experiments/AOT/AOT_stimuli/rescaled_final/1998_fw.mp4	0.0	294.71369314193726	0.10033106803894043
60	261.44029712677	fix_pre	0		120	58.0	2.5	/experiments/AOT/AOT_stimuli/rescaled_final/0343_rv.mp4	0.0	294.8140242099762	1.000013828277588
60	261.6238269805908	pulse	0	t		58.0	2.5	/experiments/AOT/AOT_stimuli/rescaled_final/0343_rv.mp4	0.0	294.997554063797	
60	262.4403109550476	movie	1		244	58.0	2.5	/experiments/AOT/AOT_stimuli/rescaled_final/0343_rv.mp4	0.0	295.8140380382538	2.500089168548584
60	263.2237539291382	pulse	1	t		58.0	2.5	/experiments/AOT/AOT_stimuli/rescaled_final/0343_rv.mp4	0.0	296.59748101234436	
60	264.82224106788635	pulse	1	t		58.0	2.5	/experiments/AOT/AOT_stimuli/rescaled_final/0343_rv.mp4	0.0	298.19596815109253	
60	264.9404001235962	fix_post	2		12	58.0	2.5	/experiments/AOT/AOT_stimuli/rescaled_final/0343_rv.mp4	0.0	298.31412720680237	0.0995638370513916
61	265.0399639606476	fix_pre	0		120	59.0	2.5	/experiments/AOT/AOT_stimuli/rescaled_final/0674_rv.mp4	0.0	298.41369104385376	1.0003950595855713
61	266.04035902023315	movie	1		245	59.0	2.5	/experiments/AOT/AOT_stimuli/rescaled_final/0674_rv.mp4	0.0	299.41408610343933	2.499553918838501
61	266.42356300354004	pulse	1	t		59.0	2.5	/experiments/AOT/AOT_stimuli/rescaled_final/0674_rv.mp4	0.0	299.7972900867462	
61	268.02375411987305	pulse	1	t		59.0	2.5	/experiments/AOT/AOT_stimuli/rescaled_final/0674_rv.mp4	0.0	301.3974812030792	
61	268.53991293907166	fix_post	2		12	59.0	2.5	/experiments/AOT/AOT_stimuli/rescaled_final/0674_rv.mp4	0.0	301.91364002227783	0.10010218620300293
62	268.64001512527466	fix_pre	0		119	60.0	2.5	/experiments/AOT/AOT_stimuli/rescaled_final/1188_fw.mp4	0.0	302.01374220848083	0.991959810256958
62	269.62376499176025	pulse	0	t		60.0	2.5	/experiments/AOT/AOT_stimuli/rescaled_final/1188_fw.mp4	0.0	302.99749207496643	
62	269.6319749355316	movie	1		247	60.0	2.5	/experiments/AOT/AOT_stimuli/rescaled_final/1188_fw.mp4	0.0	303.0057020187378	2.5082921981811523
62	271.2239501476288	pulse	1	t		60.0	2.5	/experiments/AOT/AOT_stimuli/rescaled_final/1188_fw.mp4	0.0	304.59767723083496	
62	272.14026713371277	fix_post	2		12	60.0	2.5	/experiments/AOT/AOT_stimuli/rescaled_final/1188_fw.mp4	0.0	305.51399421691895	0.09998798370361328
63	272.2402551174164	fix_pre	0		120	61.0	2.5	blank	1.0	305.61398220062256	0.99969482421875
63	272.8237781524658	pulse	0	t		61.0	2.5	blank	1.0	306.197505235672	
63	273.23994994163513	movie	1		300	61.0	2.5	blank	1.0	306.6136770248413	2.5003511905670166
63	274.4237439632416	pulse	1	t		61.0	2.5	blank	1.0	307.79747104644775	
63	275.74030113220215	fix_post	2		12	61.0	2.5	blank	1.0	309.1140282154083	0.09993982315063477
64	275.8402409553528	fix_pre	0		120	62.0	2.5	/experiments/AOT/AOT_stimuli/rescaled_final/0610_rv.mp4	0.0	309.21396803855896	0.9995970726013184
64	276.02373003959656	pulse	0	t		62.0	2.5	/experiments/AOT/AOT_stimuli/rescaled_final/0610_rv.mp4	0.0	309.39745712280273	
64	276.8398380279541	movie	1		244	62.0	2.5	/experiments/AOT/AOT_stimuli/rescaled_final/0610_rv.mp4	0.0	310.2135651111603	2.500433921813965
64	277.62377405166626	pulse	1	t		62.0	2.5	/experiments/AOT/AOT_stimuli/rescaled_final/0610_rv.mp4	0.0	310.99750113487244	
64	279.22257804870605	pulse	1	t		62.0	2.5	/experiments/AOT/AOT_stimuli/rescaled_final/0610_rv.mp4	0.0	312.59630513191223	
64	279.34027194976807	fix_post	2		12	62.0	2.5	/experiments/AOT/AOT_stimuli/rescaled_final/0610_rv.mp4	0.0	312.71399903297424	0.09995007514953613
65	279.4402220249176	fix_pre	0		120	63.0	2.5	/experiments/AOT/AOT_stimuli/rescaled_final/1877_fw.mp4	0.0	312.8139491081238	0.9996049404144287
65	280.43982696533203	movie	1		244	63.0	2.5	/experiments/AOT/AOT_stimuli/rescaled_final/1877_fw.mp4	0.0	313.8135540485382	2.5004730224609375
65	280.8234820365906	pulse	1	t		63.0	2.5	/experiments/AOT/AOT_stimuli/rescaled_final/1877_fw.mp4	0.0	314.19720911979675	
65	282.42378997802734	pulse	1	t		63.0	2.5	/experiments/AOT/AOT_stimuli/rescaled_final/1877_fw.mp4	0.0	315.7975170612335	
65	282.94029998779297	fix_post	2		12	63.0	2.5	/experiments/AOT/AOT_stimuli/rescaled_final/1877_fw.mp4	0.0	316.31402707099915	0.09995794296264648
66	283.0402579307556	fix_pre	0		119	64.0	2.5	/experiments/AOT/AOT_stimuli/rescaled_final/0554_rv.mp4	0.0	316.4139850139618	0.9916751384735107
66	284.02375507354736	pulse	0	t		64.0	2.5	/experiments/AOT/AOT_stimuli/rescaled_final/0554_rv.mp4	0.0	317.39748215675354	
66	284.0319330692291	movie	1		245	64.0	2.5	/experiments/AOT/AOT_stimuli/rescaled_final/0554_rv.mp4	0.0	317.4056601524353	2.508228063583374
66	285.62364506721497	pulse	1	t		64.0	2.5	/experiments/AOT/AOT_stimuli/rescaled_final/0554_rv.mp4	0.0	318.99737215042114	
66	286.5401611328125	fix_post	2		12	64.0	2.5	/experiments/AOT/AOT_stimuli/rescaled_final/0554_rv.mp4	0.0	319.9138882160187	0.10008502006530762
67	286.6402461528778	fix_pre	0		120	65.0	2.5	/experiments/AOT/AOT_stimuli/rescaled_final/1349_rv.mp4	0.0	320.013973236084	0.9999778270721436
67	287.22369599342346	pulse	0	t		65.0	2.5	/experiments/AOT/AOT_stimuli/rescaled_final/1349_rv.mp4	0.0	320.59742307662964	
67	287.64022397994995	movie	1		247	65.0	2.5	/experiments/AOT/AOT_stimuli/rescaled_final/1349_rv.mp4	0.0	321.0139510631561	2.4999301433563232
67	288.82384610176086	pulse	1	t		65.0	2.5	/experiments/AOT/AOT_stimuli/rescaled_final/1349_rv.mp4	0.0	322.19757318496704	
67	290.1401541233063	fix_post	2		12	65.0	2.5	/experiments/AOT/AOT_stimuli/rescaled_final/1349_rv.mp4	0.0	323.51388120651245	0.10004687309265137
68	290.2402009963989	fix_pre	0		120	66.0	2.5	/experiments/AOT/AOT_stimuli/rescaled_final/1928_rv.mp4	0.0	323.6139280796051	1.0000510215759277
68	290.42381405830383	pulse	0	t		66.0	2.5	/experiments/AOT/AOT_stimuli/rescaled_final/1928_rv.mp4	0.0	323.79754114151	
68	291.24025201797485	movie	1		245	66.0	2.5	/experiments/AOT/AOT_stimuli/rescaled_final/1928_rv.mp4	0.0	324.61397910118103	2.4999051094055176
68	292.02368807792664	pulse	1	t		66.0	2.5	/experiments/AOT/AOT_stimuli/rescaled_final/1928_rv.mp4	0.0	325.3974151611328	
68	293.62371611595154	pulse	1	t		66.0	2.5	/experiments/AOT/AOT_stimuli/rescaled_final/1928_rv.mp4	0.0	326.9974431991577	
68	293.74015712738037	fix_post	2		12	66.0	2.5	/experiments/AOT/AOT_stimuli/rescaled_final/1928_rv.mp4	0.0	327.11388421058655	0.10005593299865723
69	293.840213060379	fix_pre	0		120	67.0	2.5	/experiments/AOT/AOT_stimuli/rescaled_final/0429_rv.mp4	0.0	327.2139401435852	0.9999809265136719
69	294.8401939868927	movie	1		244	67.0	2.5	/experiments/AOT/AOT_stimuli/rescaled_final/0429_rv.mp4	0.0	328.2139210700989	2.4995501041412354
69	295.2250020503998	pulse	1	t		67.0	2.5	/experiments/AOT/AOT_stimuli/rescaled_final/0429_rv.mp4	0.0	328.59872913360596	
69	296.82373213768005	pulse	1	t		67.0	2.5	/experiments/AOT/AOT_stimuli/rescaled_final/0429_rv.mp4	0.0	330.19745922088623	
69	297.33974409103394	fix_post	2		12	67.0	2.5	/experiments/AOT/AOT_stimuli/rescaled_final/0429_rv.mp4	0.0	330.7134711742401	0.10041093826293945
70	297.4401550292969	fix_pre	0		119	68.0	2.5	/experiments/AOT/AOT_stimuli/rescaled_final/0026_rv.mp4	0.0	330.81388211250305	0.9917469024658203
70	298.4237070083618	pulse	0	t		68.0	2.5	/experiments/AOT/AOT_stimuli/rescaled_final/0026_rv.mp4	0.0	331.797434091568	
70	298.4319019317627	movie	1		245	68.0	2.5	/experiments/AOT/AOT_stimuli/rescaled_final/0026_rv.mp4	0.0	331.8056290149689	2.5083460807800293
70	300.02500915527344	pulse	1	t		68.0	2.5	/experiments/AOT/AOT_stimuli/rescaled_final/0026_rv.mp4	0.0	333.3987362384796	
70	300.9402480125427	fix_post	2		12	68.0	2.5	/experiments/AOT/AOT_stimuli/rescaled_final/0026_rv.mp4	0.0	334.3139750957489	0.09998703002929688
71	301.040235042572	fix_pre	0		120	69.0	2.5	/experiments/AOT/AOT_stimuli/rescaled_final/1718_rv.mp4	0.0	334.4139621257782	0.9995439052581787
71	301.62361192703247	pulse	0	t		69.0	2.5	/experiments/AOT/AOT_stimuli/rescaled_final/1718_rv.mp4	0.0	334.99733901023865	
71	302.0397789478302	movie	1		246	69.0	2.5	/experiments/AOT/AOT_stimuli/rescaled_final/1718_rv.mp4	0.0	335.4135060310364	2.499927043914795
71	303.22372794151306	pulse	1	t		69.0	2.5	/experiments/AOT/AOT_stimuli/rescaled_final/1718_rv.mp4	0.0	336.59745502471924	
71	304.539705991745	fix_post	2		12	69.0	2.5	/experiments/AOT/AOT_stimuli/rescaled_final/1718_rv.mp4	0.0	337.9134330749512	0.09998393058776855
72	304.63968992233276	fix_pre	0		120	70.0	2.5	blank	1.0	338.01341700553894	1.000458002090454
72	304.82368898391724	pulse	0	t		70.0	2.5	blank	1.0	338.1974160671234	
72	305.6401479244232	movie	1		300	70.0	2.5	blank	1.0	339.0138750076294	2.500002145767212
72	306.4237451553345	pulse	1	t		70.0	2.5	blank	1.0	339.79747223854065	
72	308.0236461162567	pulse	1	t		70.0	2.5	blank	1.0	341.3973731994629	
72	308.14015007019043	fix_post	2		12	70.0	2.5	blank	1.0	341.5138771533966	0.0995938777923584
73	308.2397439479828	fix_pre	0		120	71.0	2.5	/experiments/AOT/AOT_stimuli/rescaled_final/2159_fw.mp4	0.0	341.61347103118896	1.0001370906829834
73	309.23988103866577	movie	1		244	71.0	2.5	/experiments/AOT/AOT_stimuli/rescaled_final/2159_fw.mp4	0.0	342.61360812187195	2.4998910427093506
73	309.6230819225311	pulse	1	t		71.0	2.5	/experiments/AOT/AOT_stimuli/rescaled_final/2159_fw.mp4	0.0	342.9968090057373	
73	311.22359800338745	pulse	1	t		71.0	2.5	/experiments/AOT/AOT_stimuli/rescaled_final/2159_fw.mp4	0.0	344.5973250865936	
73	311.7397720813751	fix_post	2		12	71.0	2.5	/experiments/AOT/AOT_stimuli/rescaled_final/2159_fw.mp4	0.0	345.1134991645813	0.10036206245422363
74	311.84013414382935	fix_pre	0		119	72.0	2.5	/experiments/AOT/AOT_stimuli/rescaled_final/0894_rv.mp4	0.0	345.2138612270355	0.9916548728942871
74	312.8236839771271	pulse	0	t		72.0	2.5	/experiments/AOT/AOT_stimuli/rescaled_final/0894_rv.mp4	0.0	346.19741106033325	
74	312.83178901672363	movie	1		245	72.0	2.5	/experiments/AOT/AOT_stimuli/rescaled_final/0894_rv.mp4	0.0	346.2055160999298	2.508301019668579
74	314.42501997947693	pulse	1	t		72.0	2.5	/experiments/AOT/AOT_stimuli/rescaled_final/0894_rv.mp4	0.0	347.7987470626831	
74	315.3400900363922	fix_post	2		12	72.0	2.5	/experiments/AOT/AOT_stimuli/rescaled_final/0894_rv.mp4	0.0	348.7138171195984	0.09958100318908691
75	315.4396710395813	fix_pre	0		120	73.0	2.5	/experiments/AOT/AOT_stimuli/rescaled_final/1936_rv.mp4	0.0	348.8133981227875	1.0004000663757324
75	316.0235769748688	pulse	0	t		73.0	2.5	/experiments/AOT/AOT_stimuli/rescaled_final/1936_rv.mp4	0.0	349.39730405807495	
75	316.44007110595703	movie	1		247	73.0	2.5	/experiments/AOT/AOT_stimuli/rescaled_final/1936_rv.mp4	0.0	349.8137981891632	2.500077962875366
75	317.6237289905548	pulse	1	t		73.0	2.5	/experiments/AOT/AOT_stimuli/rescaled_final/1936_rv.mp4	0.0	350.997456073761	
75	318.9401490688324	fix_post	2		12	73.0	2.5	/experiments/AOT/AOT_stimuli/rescaled_final/1936_rv.mp4	0.0	352.3138761520386	0.09987401962280273
76	319.0400230884552	fix_pre	0		120	74.0	2.5	/experiments/AOT/AOT_stimuli/rescaled_final/0610_fw.mp4	0.0	352.4137501716614	1.0000529289245605
76	319.22354006767273	pulse	0	t		74.0	2.5	/experiments/AOT/AOT_stimuli/rescaled_final/0610_fw.mp4	0.0	352.5972671508789	
76	320.04007601737976	movie	1		244	74.0	2.5	/experiments/AOT/AOT_stimuli/rescaled_final/0610_fw.mp4	0.0	353.41380310058594	2.499943971633911
76	320.823529958725	pulse	1	t		74.0	2.5	/experiments/AOT/AOT_stimuli/rescaled_final/0610_fw.mp4	0.0	354.19725704193115	
76	322.4319200515747	pulse	1	t		74.0	2.5	/experiments/AOT/AOT_stimuli/rescaled_final/0610_fw.mp4	0.0	355.8056471347809	
76	322.5400199890137	fix_post	2		12	74.0	2.5	/experiments/AOT/AOT_stimuli/rescaled_final/0610_fw.mp4	0.0	355.91374707221985	0.10006904602050781
77	322.6400890350342	fix_pre	0		120	75.0	2.5	blank	1.0	356.01381611824036	0.9999659061431885
77	323.64005494117737	movie	1		300	75.0	2.5	blank	1.0	357.01378202438354	2.4999442100524902
77	324.0235080718994	pulse	1	t		75.0	2.5	blank	1.0	357.3972351551056	
77	325.62359714508057	pulse	1	t		75.0	2.5	blank	1.0	358.99732422828674	
77	326.13999915122986	fix_post	2		12	75.0	2.5	blank	1.0	359.51372623443604	0.10002589225769043
78	326.24002504348755	fix_pre	0		119	76.0	2.5	/experiments/AOT/AOT_stimuli/rescaled_final/1006_rv.mp4	0.0	359.6137521266937	0.9917259216308594
78	327.22361302375793	pulse	0	t		76.0	2.5	/experiments/AOT/AOT_stimuli/rescaled_final/1006_rv.mp4	0.0	360.5973401069641	
78	327.2317509651184	movie	1		248	76.0	2.5	/experiments/AOT/AOT_stimuli/rescaled_final/1006_rv.mp4	0.0	360.6054780483246	2.5083000659942627
78	328.8229761123657	pulse	1	t		76.0	2.5	/experiments/AOT/AOT_stimuli/rescaled_final/1006_rv.mp4	0.0	362.1967031955719	
78	329.74005103111267	fix_post	2		12	76.0	2.5	/experiments/AOT/AOT_stimuli/rescaled_final/1006_rv.mp4	0.0	363.11377811431885	0.09991312026977539
79	329.83996415138245	fix_pre	0		120	77.0	2.5	/experiments/AOT/AOT_stimuli/rescaled_final/1877_rv.mp4	0.0	363.2136912345886	1.0000028610229492
79	330.42342805862427	pulse	0	t		77.0	2.5	/experiments/AOT/AOT_stimuli/rescaled_final/1877_rv.mp4	0.0	363.79715514183044	
79	330.8399670124054	movie	1		247	77.0	2.5	/experiments/AOT/AOT_stimuli/rescaled_final/1877_rv.mp4	0.0	364.2136940956116	2.4995720386505127
79	332.0235800743103	pulse	1	t		77.0	2.5	/experiments/AOT/AOT_stimuli/rescaled_final/1877_rv.mp4	0.0	365.3973071575165	
79	333.3395390510559	fix_post	2		12	77.0	2.5	/experiments/AOT/AOT_stimuli/rescaled_final/1877_rv.mp4	0.0	366.7132661342621	0.10040688514709473
80	333.439945936203	fix_pre	0		120	78.0	2.5	/experiments/AOT/AOT_stimuli/rescaled_final/1991_rv.mp4	0.0	366.8136730194092	0.9999949932098389
80	333.6234619617462	pulse	0	t		78.0	2.5	/experiments/AOT/AOT_stimuli/rescaled_final/1991_rv.mp4	0.0	366.9971890449524	
80	334.43994092941284	movie	1		244	78.0	2.5	/experiments/AOT/AOT_stimuli/rescaled_final/1991_rv.mp4	0.0	367.813668012619	2.4999852180480957
80	335.22349309921265	pulse	1	t		78.0	2.5	/experiments/AOT/AOT_stimuli/rescaled_final/1991_rv.mp4	0.0	368.5972201824188	
80	336.82171607017517	pulse	1	t		78.0	2.5	/experiments/AOT/AOT_stimuli/rescaled_final/1991_rv.mp4	0.0	370.19544315338135	
80	336.93992614746094	fix_post	2		12	78.0	2.5	/experiments/AOT/AOT_stimuli/rescaled_final/1991_rv.mp4	0.0	370.3136532306671	0.09965300559997559
81	337.0395791530609	fix_pre	0		120	79.0	2.5	/experiments/AOT/AOT_stimuli/rescaled_final/1767_fw.mp4	0.0	370.4133062362671	1.0003859996795654
81	338.0399651527405	movie	1		245	79.0	2.5	/experiments/AOT/AOT_stimuli/rescaled_final/1767_fw.mp4	0.0	371.41369223594666	2.499983787536621
81	338.4234049320221	pulse	1	t		79.0	2.5	/experiments/AOT/AOT_stimuli/rescaled_final/1767_fw.mp4	0.0	371.79713201522827	
81	340.0234200954437	pulse	1	t		79.0	2.5	/experiments/AOT/AOT_stimuli/rescaled_final/1767_fw.mp4	0.0	373.3971471786499	
81	340.5399489402771	fix_post	2		12	79.0	2.5	/experiments/AOT/AOT_stimuli/rescaled_final/1767_fw.mp4	0.0	373.9136760234833	0.10003304481506348
82	340.63998198509216	fix_pre	0		119	80.0	2.5	/experiments/AOT/AOT_stimuli/rescaled_final/0423_fw.mp4	0.0	374.01370906829834	0.9917140007019043
82	341.62349009513855	pulse	0	t		80.0	2.5	/experiments/AOT/AOT_stimuli/rescaled_final/0423_fw.mp4	0.0	374.9972171783447	
82	341.63169598579407	movie	1		246	80.0	2.5	/experiments/AOT/AOT_stimuli/rescaled_final/0423_fw.mp4	0.0	375.00542306900024	2.5079410076141357
82	343.2229881286621	pulse	1	t		80.0	2.5	/experiments/AOT/AOT_stimuli/rescaled_final/0423_fw.mp4	0.0	376.5967152118683	
82	344.1396369934082	fix_post	2		12	80.0	2.5	/experiments/AOT/AOT_stimuli/rescaled_final/0423_fw.mp4	0.0	377.5133640766144	0.1003410816192627
83	344.23997807502747	fix_pre	0		120	81.0	2.5	/experiments/AOT/AOT_stimuli/rescaled_final/0597_rv.mp4	0.0	377.61370515823364	0.9999840259552002
83	344.82345604896545	pulse	0	t		81.0	2.5	/experiments/AOT/AOT_stimuli/rescaled_final/0597_rv.mp4	0.0	378.19718313217163	
83	345.23996210098267	movie	1		244	81.0	2.5	/experiments/AOT/AOT_stimuli/rescaled_final/0597_rv.mp4	0.0	378.61368918418884	2.499539852142334
83	346.4234960079193	pulse	1	t		81.0	2.5	/experiments/AOT/AOT_stimuli/rescaled_final/0597_rv.mp4	0.0	379.7972230911255	
83	347.739501953125	fix_post	2		12	81.0	2.5	/experiments/AOT/AOT_stimuli/rescaled_final/0597_rv.mp4	0.0	381.1132290363312	0.1004180908203125
84	347.8399200439453	fix_pre	0		120	82.0	2.5	/experiments/AOT/AOT_stimuli/rescaled_final/0966_fw.mp4	0.0	381.2136471271515	0.999967098236084
84	348.02344512939453	pulse	0	t		82.0	2.5	/experiments/AOT/AOT_stimuli/rescaled_final/0966_fw.mp4	0.0	381.3971722126007	
84	348.8398871421814	movie	1		243	82.0	2.5	/experiments/AOT/AOT_stimuli/rescaled_final/0966_fw.mp4	0.0	382.2136142253876	2.4995908737182617
84	349.6233410835266	pulse	1	t		82.0	2.5	/experiments/AOT/AOT_stimuli/rescaled_final/0966_fw.mp4	0.0	382.9970681667328	
84	351.2236099243164	pulse	1	t		82.0	2.5	/experiments/AOT/AOT_stimuli/rescaled_final/0966_fw.mp4	0.0	384.5973370075226	
84	351.33947801589966	fix_post	2		12	82.0	2.5	/experiments/AOT/AOT_stimuli/rescaled_final/0966_fw.mp4	0.0	384.71320509910583	0.10035490989685059
85	351.4398329257965	fix_pre	0		120	83.0	2.5	blank	1.0	384.8135600090027	1.0001420974731445
85	352.43997502326965	movie	1		300	83.0	2.5	blank	1.0	385.81370210647583	2.4994850158691406
85	352.8234601020813	pulse	1	t		83.0	2.5	blank	1.0	386.1971871852875	
85	354.42329812049866	pulse	1	t		83.0	2.5	blank	1.0	387.79702520370483	
85	354.9394600391388	fix_post	2		12	83.0	2.5	blank	1.0	388.31318712234497	0.10052204132080078
87	355.0399820804596	stim	0		1716					388.41370916366577	14.299907922744751
87	356.02335500717163	pulse	0	t						389.3970820903778	
87	357.6233410835266	pulse	0	t						390.9970681667328	
87	359.22333812713623	pulse	0	t						392.5970652103424	
87	360.8233790397644	pulse	0	t						394.1971061229706	
87	362.42328810691833	pulse	0	t						395.7970151901245	
87	364.02289295196533	pulse	0	t						397.3966200351715	
87	365.6234619617462	pulse	0	t						398.9971890449524	
87	367.22329902648926	pulse	0	t						400.59702610969543	
87	368.8232960700989	pulse	0	t						402.19702315330505	
