trial_nr	onset	event_type	phase	response	nr_frames	movie_index	movie_duration	movie_file	blank	onset_abs	duration
0	0.1667313575744629	stim	0		16					55.566449880599976	0.13306236267089844
0	0.2918839454650879	response	0	space						55.6916024684906	
1	0.29979372024536133	stim	0		4756					55.699512243270874	39.64972710609436
1	39.93945550918579	pulse	0	t						95.3391740322113	
1	39.94952082633972	stim	1		1715					95.34923934936523	14.30002474784851
1	41.5233838558197	pulse	1	t						96.92310237884521	
1	43.123464584350586	pulse	1	t						98.5231831073761	
1	44.72348403930664	pulse	1	t						100.12320256233215	
1	46.3238308429718	pulse	1	t						101.72354936599731	
1	47.923871755599976	pulse	1	t						103.32359027862549	
1	49.52404260635376	pulse	1	t						104.92376112937927	
1	51.12426042556763	pulse	1	t						106.52397894859314	
1	52.72458815574646	pulse	1	t						108.12430667877197	
2	54.24954557418823	fix_pre	0		10	0.0	2.5	/experiments/Knapen_AOT/AOT_stimuli/rescaled_final/1587_rv.mp4	0.0	109.64926409721375	0.10009598731994629
2	54.324774980545044	pulse	0	t		0.0	2.5	/experiments/Knapen_AOT/AOT_stimuli/rescaled_final/1587_rv.mp4	0.0	109.72449350357056	
2	54.34964156150818	movie	1		268	0.0	2.5	/experiments/Knapen_AOT/AOT_stimuli/rescaled_final/1587_rv.mp4	0.0	109.74936008453369	2.4920928478240967
2	55.9250750541687	pulse	1	t		0.0	2.5	/experiments/Knapen_AOT/AOT_stimuli/rescaled_final/1587_rv.mp4	0.0	111.32479357719421	
2	56.841734409332275	fix_post	2		12	0.0	2.5	/experiments/Knapen_AOT/AOT_stimuli/rescaled_final/1587_rv.mp4	0.0	112.24145293235779	0.09992361068725586
3	56.94165802001953	fix_pre	0		120	1.0	2.5	/experiments/Knapen_AOT/AOT_stimuli/rescaled_final/0552_rv.mp4	0.0	112.34137654304504	1.0084459781646729
3	57.52534031867981	pulse	0	t		1.0	2.5	/experiments/Knapen_AOT/AOT_stimuli/rescaled_final/0552_rv.mp4	0.0	112.92505884170532	
3	57.950103998184204	movie	1		264	1.0	2.5	/experiments/Knapen_AOT/AOT_stimuli/rescaled_final/0552_rv.mp4	0.0	113.34982252120972	2.49210786819458
3	59.12591481208801	pulse	1	t		1.0	2.5	/experiments/Knapen_AOT/AOT_stimuli/rescaled_final/0552_rv.mp4	0.0	114.52563333511353	
3	60.442211866378784	fix_post	2		12	1.0	2.5	/experiments/Knapen_AOT/AOT_stimuli/rescaled_final/0552_rv.mp4	0.0	115.8419303894043	0.09996175765991211
4	60.542173624038696	fix_pre	0		120	2.0	2.5	/experiments/Knapen_AOT/AOT_stimuli/rescaled_final/1805_rv.mp4	0.0	115.94189214706421	1.0085229873657227
4	60.725751638412476	pulse	0	t		2.0	2.5	/experiments/Knapen_AOT/AOT_stimuli/rescaled_final/1805_rv.mp4	0.0	116.12547016143799	
4	61.55069661140442	movie	1		266	2.0	2.5	/experiments/Knapen_AOT/AOT_stimuli/rescaled_final/1805_rv.mp4	0.0	116.95041513442993	2.4920475482940674
4	62.324562311172485	pulse	1	t		2.0	2.5	/experiments/Knapen_AOT/AOT_stimuli/rescaled_final/1805_rv.mp4	0.0	117.724280834198	
4	63.924376487731934	pulse	1	t		2.0	2.5	/experiments/Knapen_AOT/AOT_stimuli/rescaled_final/1805_rv.mp4	0.0	119.32409501075745	
4	64.04274415969849	fix_post	2		12	2.0	2.5	/experiments/Knapen_AOT/AOT_stimuli/rescaled_final/1805_rv.mp4	0.0	119.442462682724	0.09995412826538086
5	64.14269828796387	fix_pre	0		120	3.0	2.5	/experiments/Knapen_AOT/AOT_stimuli/rescaled_final/1204_fw.mp4	0.0	119.54241681098938	1.0084960460662842
5	65.15119433403015	movie	1		278	3.0	2.5	/experiments/Knapen_AOT/AOT_stimuli/rescaled_final/1204_fw.mp4	0.0	120.55091285705566	2.4920551776885986
5	65.52477431297302	pulse	1	t		3.0	2.5	/experiments/Knapen_AOT/AOT_stimuli/rescaled_final/1204_fw.mp4	0.0	120.92449283599854	
5	67.12468385696411	pulse	1	t		3.0	2.5	/experiments/Knapen_AOT/AOT_stimuli/rescaled_final/1204_fw.mp4	0.0	122.52440237998962	
5	67.64324951171875	fix_post	2		12	3.0	2.5	/experiments/Knapen_AOT/AOT_stimuli/rescaled_final/1204_fw.mp4	0.0	123.04296803474426	0.10001683235168457
6	67.74326634407043	fix_pre	0		119	4.0	2.5	/experiments/Knapen_AOT/AOT_stimuli/rescaled_final/1865_fw.mp4	0.0	123.14298486709595	1.0001327991485596
6	68.72692084312439	pulse	0	t		4.0	2.5	/experiments/Knapen_AOT/AOT_stimuli/rescaled_final/1865_fw.mp4	0.0	124.1266393661499	
6	68.743399143219	movie	1		281	4.0	2.5	/experiments/Knapen_AOT/AOT_stimuli/rescaled_final/1865_fw.mp4	0.0	124.1431176662445	2.50061297416687
6	70.32564210891724	pulse	1	t		4.0	2.5	/experiments/Knapen_AOT/AOT_stimuli/rescaled_final/1865_fw.mp4	0.0	125.72536063194275	
6	71.24401211738586	fix_post	2		12	4.0	2.5	/experiments/Knapen_AOT/AOT_stimuli/rescaled_final/1865_fw.mp4	0.0	126.64373064041138	0.09975528717041016
7	71.34376740455627	fix_pre	0		120	5.0	2.5	/experiments/Knapen_AOT/AOT_stimuli/rescaled_final/0346_rv.mp4	0.0	126.74348592758179	1.0085110664367676
7	71.92744898796082	pulse	0	t		5.0	2.5	/experiments/Knapen_AOT/AOT_stimuli/rescaled_final/0346_rv.mp4	0.0	127.32716751098633	
7	72.35227847099304	movie	1		272	5.0	2.5	/experiments/Knapen_AOT/AOT_stimuli/rescaled_final/0346_rv.mp4	0.0	127.75199699401855	2.4920403957366943
7	73.52584218978882	pulse	1	t		5.0	2.5	/experiments/Knapen_AOT/AOT_stimuli/rescaled_final/0346_rv.mp4	0.0	128.92556071281433	
7	74.84431886672974	fix_post	2		12	5.0	2.5	/experiments/Knapen_AOT/AOT_stimuli/rescaled_final/0346_rv.mp4	0.0	130.24403738975525	0.10024428367614746
8	74.94456315040588	fix_pre	0		120	6.0	2.5	/experiments/Knapen_AOT/AOT_stimuli/rescaled_final/0006_rv.mp4	0.0	130.3442816734314	1.008265495300293
8	75.12789702415466	pulse	0	t		6.0	2.5	/experiments/Knapen_AOT/AOT_stimuli/rescaled_final/0006_rv.mp4	0.0	130.52761554718018	
8	75.95282864570618	movie	1		282	6.0	2.5	/experiments/Knapen_AOT/AOT_stimuli/rescaled_final/0006_rv.mp4	0.0	131.3525471687317	2.4920144081115723
8	76.72611045837402	pulse	1	t		6.0	2.5	/experiments/Knapen_AOT/AOT_stimuli/rescaled_final/0006_rv.mp4	0.0	132.12582898139954	
8	78.3263852596283	pulse	1	t		6.0	2.5	/experiments/Knapen_AOT/AOT_stimuli/rescaled_final/0006_rv.mp4	0.0	133.7261037826538	
8	78.44484305381775	fix_post	2		12	6.0	2.5	/experiments/Knapen_AOT/AOT_stimuli/rescaled_final/0006_rv.mp4	0.0	133.84456157684326	0.10002398490905762
9	78.5448670387268	fix_pre	0		120	7.0	2.5	blank	1.0	133.94458556175232	1.0001325607299805
9	79.54499959945679	movie	1		300	7.0	2.5	blank	1.0	134.9447181224823	2.5004591941833496
9	79.92861914634705	pulse	1	t		7.0	2.5	blank	1.0	135.32833766937256	
9	81.52890753746033	pulse	1	t		7.0	2.5	blank	1.0	136.92862606048584	
9	82.04545879364014	fix_post	2		12	7.0	2.5	blank	1.0	137.44517731666565	0.09997105598449707
10	82.14542984962463	fix_pre	0		119	8.0	2.5	/experiments/Knapen_AOT/AOT_stimuli/rescaled_final/1728_rv.mp4	0.0	137.54514837265015	1.0001928806304932
10	83.12913131713867	pulse	0	t		8.0	2.5	/experiments/Knapen_AOT/AOT_stimuli/rescaled_final/1728_rv.mp4	0.0	138.52884984016418	
10	83.14562273025513	movie	1		272	8.0	2.5	/experiments/Knapen_AOT/AOT_stimuli/rescaled_final/1728_rv.mp4	0.0	138.54534125328064	2.500422716140747
10	84.72959351539612	pulse	1	t		8.0	2.5	/experiments/Knapen_AOT/AOT_stimuli/rescaled_final/1728_rv.mp4	0.0	140.12931203842163	
10	85.64604544639587	fix_post	2		12	8.0	2.5	/experiments/Knapen_AOT/AOT_stimuli/rescaled_final/1728_rv.mp4	0.0	141.0457639694214	0.09998416900634766
11	85.74602961540222	fix_pre	0		120	9.0	2.5	/experiments/Knapen_AOT/AOT_stimuli/rescaled_final/1966_rv.mp4	0.0	141.14574813842773	1.0084037780761719
11	86.32959628105164	pulse	0	t		9.0	2.5	/experiments/Knapen_AOT/AOT_stimuli/rescaled_final/1966_rv.mp4	0.0	141.72931480407715	
11	86.7544333934784	movie	1		282	9.0	2.5	/experiments/Knapen_AOT/AOT_stimuli/rescaled_final/1966_rv.mp4	0.0	142.1541519165039	2.4920425415039062
11	87.92808365821838	pulse	1	t		9.0	2.5	/experiments/Knapen_AOT/AOT_stimuli/rescaled_final/1966_rv.mp4	0.0	143.3278021812439	
11	89.2464759349823	fix_post	2		12	9.0	2.5	/experiments/Knapen_AOT/AOT_stimuli/rescaled_final/1966_rv.mp4	0.0	144.6461944580078	0.10001683235168457
12	89.34649276733398	fix_pre	0		120	10.0	2.5	/experiments/Knapen_AOT/AOT_stimuli/rescaled_final/2035_fw.mp4	0.0	144.7462112903595	1.0085029602050781
12	89.53006315231323	pulse	0	t		10.0	2.5	/experiments/Knapen_AOT/AOT_stimuli/rescaled_final/2035_fw.mp4	0.0	144.92978167533875	
12	90.35499572753906	movie	1		287	10.0	2.5	/experiments/Knapen_AOT/AOT_stimuli/rescaled_final/2035_fw.mp4	0.0	145.75471425056458	2.492006778717041
12	91.12833619117737	pulse	1	t		10.0	2.5	/experiments/Knapen_AOT/AOT_stimuli/rescaled_final/2035_fw.mp4	0.0	146.52805471420288	
12	92.72865128517151	pulse	1	t		10.0	2.5	/experiments/Knapen_AOT/AOT_stimuli/rescaled_final/2035_fw.mp4	0.0	148.12836980819702	
12	92.8470025062561	fix_post	2		12	10.0	2.5	/experiments/Knapen_AOT/AOT_stimuli/rescaled_final/2035_fw.mp4	0.0	148.24672102928162	0.10019755363464355
13	92.94720005989075	fix_pre	0		120	11.0	2.5	/experiments/Knapen_AOT/AOT_stimuli/rescaled_final/1850_fw.mp4	0.0	148.34691858291626	1.0083653926849365
13	93.95556545257568	movie	1		280	11.0	2.5	/experiments/Knapen_AOT/AOT_stimuli/rescaled_final/1850_fw.mp4	0.0	149.3552839756012	2.491983652114868
13	94.32926988601685	pulse	1	t		11.0	2.5	/experiments/Knapen_AOT/AOT_stimuli/rescaled_final/1850_fw.mp4	0.0	149.72898840904236	
13	95.92896914482117	pulse	1	t		11.0	2.5	/experiments/Knapen_AOT/AOT_stimuli/rescaled_final/1850_fw.mp4	0.0	151.32868766784668	
13	96.44754910469055	fix_post	2		12	11.0	2.5	/experiments/Knapen_AOT/AOT_stimuli/rescaled_final/1850_fw.mp4	0.0	151.84726762771606	0.10004258155822754
14	96.54759168624878	fix_pre	0		119	12.0	2.5	blank	1.0	151.9473102092743	0.9917962551116943
14	97.53152394294739	pulse	0	t		12.0	2.5	blank	1.0	152.9312424659729	
14	97.53938794136047	movie	1		301	12.0	2.5	blank	1.0	152.939106464386	2.508831262588501
14	99.1246018409729	pulse	1	t		12.0	2.5	blank	1.0	154.5243203639984	
14	100.04821920394897	fix_post	2		12	12.0	2.5	blank	1.0	155.4479377269745	0.09987998008728027
15	100.14809918403625	fix_pre	0		120	13.0	2.5	/experiments/Knapen_AOT/AOT_stimuli/rescaled_final/1944_rv.mp4	0.0	155.54781770706177	1.0085549354553223
15	100.72400236129761	pulse	0	t		13.0	2.5	/experiments/Knapen_AOT/AOT_stimuli/rescaled_final/1944_rv.mp4	0.0	156.12372088432312	
15	101.15665411949158	movie	1		285	13.0	2.5	/experiments/Knapen_AOT/AOT_stimuli/rescaled_final/1944_rv.mp4	0.0	156.5563726425171	2.491981029510498
15	102.32410049438477	pulse	1	t		13.0	2.5	/experiments/Knapen_AOT/AOT_stimuli/rescaled_final/1944_rv.mp4	0.0	157.72381901741028	
15	103.64863514900208	fix_post	2		12	13.0	2.5	/experiments/Knapen_AOT/AOT_stimuli/rescaled_final/1944_rv.mp4	0.0	159.0483536720276	0.10002017021179199
16	103.74865531921387	fix_pre	0		120	14.0	2.5	/experiments/Knapen_AOT/AOT_stimuli/rescaled_final/1668_fw.mp4	0.0	159.14837384223938	1.0085036754608154
16	103.92425441741943	pulse	0	t		14.0	2.5	/experiments/Knapen_AOT/AOT_stimuli/rescaled_final/1668_fw.mp4	0.0	159.32397294044495	
16	104.75715899467468	movie	1		274	14.0	2.5	/experiments/Knapen_AOT/AOT_stimuli/rescaled_final/1668_fw.mp4	0.0	160.1568775177002	2.4920175075531006
16	105.52417969703674	pulse	1	t		14.0	2.5	/experiments/Knapen_AOT/AOT_stimuli/rescaled_final/1668_fw.mp4	0.0	160.92389822006226	
16	107.12445449829102	pulse	1	t		14.0	2.5	/experiments/Knapen_AOT/AOT_stimuli/rescaled_final/1668_fw.mp4	0.0	162.52417302131653	
16	107.24917650222778	fix_post	2		12	14.0	2.5	/experiments/Knapen_AOT/AOT_stimuli/rescaled_final/1668_fw.mp4	0.0	162.6488950252533	0.1000206470489502
17	107.34919714927673	fix_pre	0		120	15.0	2.5	/experiments/Knapen_AOT/AOT_stimuli/rescaled_final/0015_rv.mp4	0.0	162.74891567230225	1.0085182189941406
17	108.35771536827087	movie	1		279	15.0	2.5	/experiments/Knapen_AOT/AOT_stimuli/rescaled_final/0015_rv.mp4	0.0	163.7574338912964	2.4920449256896973
17	108.72475624084473	pulse	1	t		15.0	2.5	/experiments/Knapen_AOT/AOT_stimuli/rescaled_final/0015_rv.mp4	0.0	164.12447476387024	
17	110.32484030723572	pulse	1	t		15.0	2.5	/experiments/Knapen_AOT/AOT_stimuli/rescaled_final/0015_rv.mp4	0.0	165.72455883026123	
17	110.84976029396057	fix_post	2		12	15.0	2.5	/experiments/Knapen_AOT/AOT_stimuli/rescaled_final/0015_rv.mp4	0.0	166.24947881698608	0.09997820854187012
18	110.94973850250244	fix_pre	0		118	16.0	2.5	/experiments/Knapen_AOT/AOT_stimuli/rescaled_final/1987_rv.mp4	0.0	166.34945702552795	0.9917879104614258
18	111.92540693283081	pulse	0	t		16.0	2.5	/experiments/Knapen_AOT/AOT_stimuli/rescaled_final/1987_rv.mp4	0.0	167.32512545585632	
18	111.94152641296387	movie	1		289	16.0	2.5	/experiments/Knapen_AOT/AOT_stimuli/rescaled_final/1987_rv.mp4	0.0	167.34124493598938	2.5004117488861084
18	113.52379655838013	pulse	1	t		16.0	2.5	/experiments/Knapen_AOT/AOT_stimuli/rescaled_final/1987_rv.mp4	0.0	168.92351508140564	
18	114.44193816184998	fix_post	2		12	16.0	2.5	/experiments/Knapen_AOT/AOT_stimuli/rescaled_final/1987_rv.mp4	0.0	169.8416566848755	0.09999561309814453
19	114.54193377494812	fix_pre	0		120	17.0	2.5	/experiments/Knapen_AOT/AOT_stimuli/rescaled_final/0199_rv.mp4	0.0	169.94165229797363	1.008568286895752
19	115.12564015388489	pulse	0	t		17.0	2.5	/experiments/Knapen_AOT/AOT_stimuli/rescaled_final/0199_rv.mp4	0.0	170.5253586769104	
19	115.55050206184387	movie	1		287	17.0	2.5	/experiments/Knapen_AOT/AOT_stimuli/rescaled_final/0199_rv.mp4	0.0	170.95022058486938	2.491978883743286
19	116.72404146194458	pulse	1	t		17.0	2.5	/experiments/Knapen_AOT/AOT_stimuli/rescaled_final/0199_rv.mp4	0.0	172.1237599849701	
19	118.04248094558716	fix_post	2		12	17.0	2.5	/experiments/Knapen_AOT/AOT_stimuli/rescaled_final/0199_rv.mp4	0.0	173.44219946861267	0.10000801086425781
20	118.14248895645142	fix_pre	0		120	18.0	2.5	/experiments/Knapen_AOT/AOT_stimuli/rescaled_final/1107_fw.mp4	0.0	173.54220747947693	1.0085175037384033
20	118.32608532905579	pulse	0	t		18.0	2.5	/experiments/Knapen_AOT/AOT_stimuli/rescaled_final/1107_fw.mp4	0.0	173.7258038520813	
20	119.15100646018982	movie	1		279	18.0	2.5	/experiments/Knapen_AOT/AOT_stimuli/rescaled_final/1107_fw.mp4	0.0	174.55072498321533	2.492006301879883
20	119.9240198135376	pulse	1	t		18.0	2.5	/experiments/Knapen_AOT/AOT_stimuli/rescaled_final/1107_fw.mp4	0.0	175.3237383365631	
20	121.52430415153503	pulse	1	t		18.0	2.5	/experiments/Knapen_AOT/AOT_stimuli/rescaled_final/1107_fw.mp4	0.0	176.92402267456055	
20	121.6430127620697	fix_post	2		12	18.0	2.5	/experiments/Knapen_AOT/AOT_stimuli/rescaled_final/1107_fw.mp4	0.0	177.04273128509521	0.10006308555603027
21	121.74307584762573	fix_pre	0		120	19.0	2.5	/experiments/Knapen_AOT/AOT_stimuli/rescaled_final/0228_rv.mp4	0.0	177.14279437065125	1.008467674255371
21	122.7515435218811	movie	1		283	19.0	2.5	/experiments/Knapen_AOT/AOT_stimuli/rescaled_final/0228_rv.mp4	0.0	178.15126204490662	2.492260456085205
21	123.12600612640381	pulse	1	t		19.0	2.5	/experiments/Knapen_AOT/AOT_stimuli/rescaled_final/0228_rv.mp4	0.0	178.52572464942932	
21	124.72505855560303	pulse	1	t		19.0	2.5	/experiments/Knapen_AOT/AOT_stimuli/rescaled_final/0228_rv.mp4	0.0	180.12477707862854	
21	125.24380397796631	fix_post	2		12	19.0	2.5	/experiments/Knapen_AOT/AOT_stimuli/rescaled_final/0228_rv.mp4	0.0	180.64352250099182	0.0997626781463623
22	125.34356665611267	fix_pre	0		119	20.0	2.5	/experiments/Knapen_AOT/AOT_stimuli/rescaled_final/0942_rv.mp4	0.0	180.74328517913818	1.000182867050171
22	126.32731771469116	pulse	0	t		20.0	2.5	/experiments/Knapen_AOT/AOT_stimuli/rescaled_final/0942_rv.mp4	0.0	181.72703623771667	
22	126.34374952316284	movie	1		277	20.0	2.5	/experiments/Knapen_AOT/AOT_stimuli/rescaled_final/0942_rv.mp4	0.0	181.74346804618835	2.5003719329833984
22	127.92597985267639	pulse	1	t		20.0	2.5	/experiments/Knapen_AOT/AOT_stimuli/rescaled_final/0942_rv.mp4	0.0	183.3256983757019	
22	128.84412145614624	fix_post	2		12	20.0	2.5	/experiments/Knapen_AOT/AOT_stimuli/rescaled_final/0942_rv.mp4	0.0	184.24383997917175	0.1000070571899414
23	128.94412851333618	fix_pre	0		120	21.0	2.5	blank	1.0	184.3438470363617	1.0001208782196045
23	129.5280385017395	pulse	0	t		21.0	2.5	blank	1.0	184.92775702476501	
23	129.9442493915558	movie	1		300	21.0	2.5	blank	1.0	185.3439679145813	2.500377655029297
23	131.1282696723938	pulse	1	t		21.0	2.5	blank	1.0	186.5279881954193	
23	132.44462704658508	fix_post	2		12	21.0	2.5	blank	1.0	187.8443455696106	0.1000220775604248
24	132.5446491241455	fix_pre	0		120	22.0	2.5	/experiments/Knapen_AOT/AOT_stimuli/rescaled_final/1400_fw.mp4	0.0	187.94436764717102	1.008540391921997
24	132.7281837463379	pulse	0	t		22.0	2.5	/experiments/Knapen_AOT/AOT_stimuli/rescaled_final/1400_fw.mp4	0.0	188.1279022693634	
24	133.5531895160675	movie	1		288	22.0	2.5	/experiments/Knapen_AOT/AOT_stimuli/rescaled_final/1400_fw.mp4	0.0	188.95290803909302	2.491978406906128
24	134.3268280029297	pulse	1	t		22.0	2.5	/experiments/Knapen_AOT/AOT_stimuli/rescaled_final/1400_fw.mp4	0.0	189.7265465259552	
24	135.92661881446838	pulse	1	t		22.0	2.5	/experiments/Knapen_AOT/AOT_stimuli/rescaled_final/1400_fw.mp4	0.0	191.3263373374939	
24	136.04516792297363	fix_post	2		12	22.0	2.5	/experiments/Knapen_AOT/AOT_stimuli/rescaled_final/1400_fw.mp4	0.0	191.44488644599915	0.10003376007080078
25	136.14520168304443	fix_pre	0		120	23.0	2.5	/experiments/Knapen_AOT/AOT_stimuli/rescaled_final/1017_rv.mp4	0.0	191.54492020606995	1.0084900856018066
25	137.15369176864624	movie	1		284	23.0	2.5	/experiments/Knapen_AOT/AOT_stimuli/rescaled_final/1017_rv.mp4	0.0	192.55341029167175	2.49202561378479
25	137.52716326713562	pulse	1	t		23.0	2.5	/experiments/Knapen_AOT/AOT_stimuli/rescaled_final/1017_rv.mp4	0.0	192.92688179016113	
25	139.12720441818237	pulse	1	t		23.0	2.5	/experiments/Knapen_AOT/AOT_stimuli/rescaled_final/1017_rv.mp4	0.0	194.52692294120789	
25	139.64571738243103	fix_post	2		12	23.0	2.5	/experiments/Knapen_AOT/AOT_stimuli/rescaled_final/1017_rv.mp4	0.0	195.04543590545654	0.10005664825439453
26	139.74577403068542	fix_pre	0		119	24.0	2.5	/experiments/Knapen_AOT/AOT_stimuli/rescaled_final/1849_fw.mp4	0.0	195.14549255371094	1.0001261234283447
26	140.72941136360168	pulse	0	t		24.0	2.5	/experiments/Knapen_AOT/AOT_stimuli/rescaled_final/1849_fw.mp4	0.0	196.1291298866272	
26	140.74590015411377	movie	1		284	24.0	2.5	/experiments/Knapen_AOT/AOT_stimuli/rescaled_final/1849_fw.mp4	0.0	196.14561867713928	2.508720636367798
26	142.32827639579773	pulse	1	t		24.0	2.5	/experiments/Knapen_AOT/AOT_stimuli/rescaled_final/1849_fw.mp4	0.0	197.72799491882324	
26	143.25462079048157	fix_post	2		11	24.0	2.5	/experiments/Knapen_AOT/AOT_stimuli/rescaled_final/1849_fw.mp4	0.0	198.65433931350708	0.09165120124816895
27	143.34627199172974	fix_pre	0		120	25.0	2.5	/experiments/Knapen_AOT/AOT_stimuli/rescaled_final/1686_fw.mp4	0.0	198.74599051475525	1.008502721786499
27	143.92989659309387	pulse	0	t		25.0	2.5	/experiments/Knapen_AOT/AOT_stimuli/rescaled_final/1686_fw.mp4	0.0	199.32961511611938	
27	144.35477471351624	movie	1		284	25.0	2.5	/experiments/Knapen_AOT/AOT_stimuli/rescaled_final/1686_fw.mp4	0.0	199.75449323654175	2.4920270442962646
27	145.52811288833618	pulse	1	t		25.0	2.5	/experiments/Knapen_AOT/AOT_stimuli/rescaled_final/1686_fw.mp4	0.0	200.9278314113617	
27	146.8468017578125	fix_post	2		12	25.0	2.5	/experiments/Knapen_AOT/AOT_stimuli/rescaled_final/1686_fw.mp4	0.0	202.246520280838	0.10001778602600098
28	146.9468195438385	fix_pre	0		120	26.0	2.5	blank	1.0	202.346538066864	1.0003151893615723
28	147.1303825378418	pulse	0	t		26.0	2.5	blank	1.0	202.5301010608673	
28	147.94713473320007	movie	1		300	26.0	2.5	blank	1.0	203.3468532562256	2.500227451324463
28	148.73075985908508	pulse	1	t		26.0	2.5	blank	1.0	204.1304783821106	
28	150.3308620452881	pulse	1	t		26.0	2.5	blank	1.0	205.7305805683136	
28	150.44736218452454	fix_post	2		12	26.0	2.5	blank	1.0	205.84708070755005	0.1000220775604248
29	150.54738426208496	fix_pre	0		120	27.0	2.5	/experiments/Knapen_AOT/AOT_stimuli/rescaled_final/0442_fw.mp4	0.0	205.94710278511047	1.0084688663482666
29	151.55585312843323	movie	1		267	27.0	2.5	/experiments/Knapen_AOT/AOT_stimuli/rescaled_final/0442_fw.mp4	0.0	206.95557165145874	2.4920592308044434
29	151.9298484325409	pulse	1	t		27.0	2.5	/experiments/Knapen_AOT/AOT_stimuli/rescaled_final/0442_fw.mp4	0.0	207.3295669555664	
29	153.53159165382385	pulse	1	t		27.0	2.5	/experiments/Knapen_AOT/AOT_stimuli/rescaled_final/0442_fw.mp4	0.0	208.93131017684937	
29	154.04791235923767	fix_post	2		12	27.0	2.5	/experiments/Knapen_AOT/AOT_stimuli/rescaled_final/0442_fw.mp4	0.0	209.44763088226318	0.09998035430908203
30	154.14789271354675	fix_pre	0		119	28.0	2.5	/experiments/Knapen_AOT/AOT_stimuli/rescaled_final/1766_rv.mp4	0.0	209.54761123657227	1.0002548694610596
30	155.13166427612305	pulse	0	t		28.0	2.5	/experiments/Knapen_AOT/AOT_stimuli/rescaled_final/1766_rv.mp4	0.0	210.53138279914856	
30	155.1481475830078	movie	1		277	28.0	2.5	/experiments/Knapen_AOT/AOT_stimuli/rescaled_final/1766_rv.mp4	0.0	210.54786610603333	2.500300645828247
30	156.73042011260986	pulse	1	t		28.0	2.5	/experiments/Knapen_AOT/AOT_stimuli/rescaled_final/1766_rv.mp4	0.0	212.13013863563538	
30	157.64844822883606	fix_post	2		12	28.0	2.5	/experiments/Knapen_AOT/AOT_stimuli/rescaled_final/1766_rv.mp4	0.0	213.04816675186157	0.10002446174621582
31	157.74847269058228	fix_pre	0		120	29.0	2.5	/experiments/Knapen_AOT/AOT_stimuli/rescaled_final/1390_fw.mp4	0.0	213.1481912136078	1.0084705352783203
31	158.3243899345398	pulse	0	t		29.0	2.5	/experiments/Knapen_AOT/AOT_stimuli/rescaled_final/1390_fw.mp4	0.0	213.7241084575653	
31	158.7569432258606	movie	1		275	29.0	2.5	/experiments/Knapen_AOT/AOT_stimuli/rescaled_final/1390_fw.mp4	0.0	214.1566617488861	2.492013692855835
31	159.92426180839539	pulse	1	t		29.0	2.5	/experiments/Knapen_AOT/AOT_stimuli/rescaled_final/1390_fw.mp4	0.0	215.3239803314209	
31	161.24895691871643	fix_post	2		12	29.0	2.5	/experiments/Knapen_AOT/AOT_stimuli/rescaled_final/1390_fw.mp4	0.0	216.64867544174194	0.10003185272216797
32	161.3489887714386	fix_pre	0		120	30.0	2.5	/experiments/Knapen_AOT/AOT_stimuli/rescaled_final/0376_fw.mp4	0.0	216.7487072944641	1.0085093975067139
32	161.5243911743164	pulse	0	t		30.0	2.5	/experiments/Knapen_AOT/AOT_stimuli/rescaled_final/0376_fw.mp4	0.0	216.92410969734192	
32	162.3574981689453	movie	1		283	30.0	2.5	/experiments/Knapen_AOT/AOT_stimuli/rescaled_final/0376_fw.mp4	0.0	217.75721669197083	2.4920294284820557
32	163.1245093345642	pulse	1	t		30.0	2.5	/experiments/Knapen_AOT/AOT_stimuli/rescaled_final/0376_fw.mp4	0.0	218.52422785758972	
32	164.7247064113617	pulse	1	t		30.0	2.5	/experiments/Knapen_AOT/AOT_stimuli/rescaled_final/0376_fw.mp4	0.0	220.1244249343872	
32	164.84952759742737	fix_post	2		12	30.0	2.5	/experiments/Knapen_AOT/AOT_stimuli/rescaled_final/0376_fw.mp4	0.0	220.24924612045288	0.10000467300415039
33	164.94953227043152	fix_pre	0		120	31.0	2.5	/experiments/Knapen_AOT/AOT_stimuli/rescaled_final/0104_rv.mp4	0.0	220.34925079345703	1.0084803104400635
33	165.95801258087158	movie	1		259	31.0	2.5	/experiments/Knapen_AOT/AOT_stimuli/rescaled_final/0104_rv.mp4	0.0	221.3577311038971	2.492237091064453
33	166.3252077102661	pulse	1	t		31.0	2.5	/experiments/Knapen_AOT/AOT_stimuli/rescaled_final/0104_rv.mp4	0.0	221.72492623329163	
33	167.92432022094727	pulse	1	t		31.0	2.5	/experiments/Knapen_AOT/AOT_stimuli/rescaled_final/0104_rv.mp4	0.0	223.32403874397278	
33	168.45024967193604	fix_post	2		12	31.0	2.5	/experiments/Knapen_AOT/AOT_stimuli/rescaled_final/0104_rv.mp4	0.0	223.84996819496155	0.09986996650695801
34	168.550119638443	fix_pre	0		118	32.0	2.5	/experiments/Knapen_AOT/AOT_stimuli/rescaled_final/0199_rv.mp4	0.0	223.9498381614685	0.9917845726013184
34	169.52545762062073	pulse	0	t		32.0	2.5	/experiments/Knapen_AOT/AOT_stimuli/rescaled_final/0199_rv.mp4	0.0	224.92517614364624	
34	169.5419042110443	movie	1		289	32.0	2.5	/experiments/Knapen_AOT/AOT_stimuli/rescaled_final/0199_rv.mp4	0.0	224.94162273406982	2.5003435611724854
34	171.1248917579651	pulse	1	t		32.0	2.5	/experiments/Knapen_AOT/AOT_stimuli/rescaled_final/0199_rv.mp4	0.0	226.5246102809906	
34	172.0422477722168	fix_post	2		12	32.0	2.5	/experiments/Knapen_AOT/AOT_stimuli/rescaled_final/0199_rv.mp4	0.0	227.4419662952423	0.10006928443908691
35	172.14231705665588	fix_pre	0		120	33.0	2.5	/experiments/Knapen_AOT/AOT_stimuli/rescaled_final/0231_fw.mp4	0.0	227.5420355796814	1.0084874629974365
35	172.72593140602112	pulse	0	t		33.0	2.5	/experiments/Knapen_AOT/AOT_stimuli/rescaled_final/0231_fw.mp4	0.0	228.12564992904663	
35	173.15080451965332	movie	1		285	33.0	2.5	/experiments/Knapen_AOT/AOT_stimuli/rescaled_final/0231_fw.mp4	0.0	228.55052304267883	2.491997003555298
35	174.32629108428955	pulse	1	t		33.0	2.5	/experiments/Knapen_AOT/AOT_stimuli/rescaled_final/0231_fw.mp4	0.0	229.72600960731506	
35	175.64280152320862	fix_post	2		12	33.0	2.5	/experiments/Knapen_AOT/AOT_stimuli/rescaled_final/0231_fw.mp4	0.0	231.04252004623413	0.1000068187713623
36	175.74280834197998	fix_pre	0		120	34.0	2.5	blank	1.0	231.1425268650055	1.000152826309204
36	175.92643213272095	pulse	0	t		34.0	2.5	blank	1.0	231.32615065574646	
36	176.74296116828918	movie	1		300	34.0	2.5	blank	1.0	232.1426796913147	2.500434637069702
36	177.52668356895447	pulse	1	t		34.0	2.5	blank	1.0	232.92640209197998	
36	179.12686610221863	pulse	1	t		34.0	2.5	blank	1.0	234.52658462524414	
36	179.2433958053589	fix_post	2		12	34.0	2.5	blank	1.0	234.6431143283844	0.09998226165771484
37	179.3433780670166	fix_pre	0		120	35.0	2.5	/experiments/Knapen_AOT/AOT_stimuli/rescaled_final/0015_fw.mp4	0.0	234.74309659004211	1.0086016654968262
37	180.35197973251343	movie	1		287	35.0	2.5	/experiments/Knapen_AOT/AOT_stimuli/rescaled_final/0015_fw.mp4	0.0	235.75169825553894	2.491912364959717
37	180.7254979610443	pulse	1	t		35.0	2.5	/experiments/Knapen_AOT/AOT_stimuli/rescaled_final/0015_fw.mp4	0.0	236.12521648406982	
37	182.325581073761	pulse	1	t		35.0	2.5	/experiments/Knapen_AOT/AOT_stimuli/rescaled_final/0015_fw.mp4	0.0	237.7252995967865	
37	182.84389209747314	fix_post	2		12	35.0	2.5	/experiments/Knapen_AOT/AOT_stimuli/rescaled_final/0015_fw.mp4	0.0	238.24361062049866	0.10000872611999512
38	182.94390082359314	fix_pre	0		119	36.0	2.5	/experiments/Knapen_AOT/AOT_stimuli/rescaled_final/1394_fw.mp4	0.0	238.34361934661865	1.0001907348632812
38	183.92756700515747	pulse	0	t		36.0	2.5	/experiments/Knapen_AOT/AOT_stimuli/rescaled_final/1394_fw.mp4	0.0	239.32728552818298	
38	183.94409155845642	movie	1		287	36.0	2.5	/experiments/Knapen_AOT/AOT_stimuli/rescaled_final/1394_fw.mp4	0.0	239.34381008148193	2.5003349781036377
38	185.52639389038086	pulse	1	t		36.0	2.5	/experiments/Knapen_AOT/AOT_stimuli/rescaled_final/1394_fw.mp4	0.0	240.92611241340637	
38	186.44442653656006	fix_post	2		12	36.0	2.5	/experiments/Knapen_AOT/AOT_stimuli/rescaled_final/1394_fw.mp4	0.0	241.84414505958557	0.10000848770141602
39	186.54443502426147	fix_pre	0		120	37.0	2.5	/experiments/Knapen_AOT/AOT_stimuli/rescaled_final/0214_fw.mp4	0.0	241.944153547287	1.0085177421569824
39	187.12808871269226	pulse	0	t		37.0	2.5	/experiments/Knapen_AOT/AOT_stimuli/rescaled_final/0214_fw.mp4	0.0	242.52780723571777	
39	187.55295276641846	movie	1		270	37.0	2.5	/experiments/Knapen_AOT/AOT_stimuli/rescaled_final/0214_fw.mp4	0.0	242.95267128944397	2.492030620574951
39	188.72751569747925	pulse	1	t		37.0	2.5	/experiments/Knapen_AOT/AOT_stimuli/rescaled_final/0214_fw.mp4	0.0	244.12723422050476	
39	190.0449833869934	fix_post	2		12	37.0	2.5	/experiments/Knapen_AOT/AOT_stimuli/rescaled_final/0214_fw.mp4	0.0	245.44470191001892	0.10000109672546387
40	190.14498448371887	fix_pre	0		120	38.0	2.5	/experiments/Knapen_AOT/AOT_stimuli/rescaled_final/1865_fw.mp4	0.0	245.54470300674438	1.008521318435669
40	190.32856249809265	pulse	0	t		38.0	2.5	/experiments/Knapen_AOT/AOT_stimuli/rescaled_final/1865_fw.mp4	0.0	245.72828102111816	
40	191.15350580215454	movie	1		256	38.0	2.5	/experiments/Knapen_AOT/AOT_stimuli/rescaled_final/1865_fw.mp4	0.0	246.55322432518005	2.492007255554199
40	191.92877459526062	pulse	1	t		38.0	2.5	/experiments/Knapen_AOT/AOT_stimuli/rescaled_final/1865_fw.mp4	0.0	247.32849311828613	
40	193.52776312828064	pulse	1	t		38.0	2.5	/experiments/Knapen_AOT/AOT_stimuli/rescaled_final/1865_fw.mp4	0.0	248.92748165130615	
40	193.64551305770874	fix_post	2		12	38.0	2.5	/experiments/Knapen_AOT/AOT_stimuli/rescaled_final/1865_fw.mp4	0.0	249.04523158073425	0.10002923011779785
41	193.74554228782654	fix_pre	0		120	39.0	2.5	/experiments/Knapen_AOT/AOT_stimuli/rescaled_final/1993_rv.mp4	0.0	249.14526081085205	1.0085210800170898
41	194.75406336784363	movie	1		269	39.0	2.5	/experiments/Knapen_AOT/AOT_stimuli/rescaled_final/1993_rv.mp4	0.0	250.15378189086914	2.4920735359191895
41	195.12772679328918	pulse	1	t		39.0	2.5	/experiments/Knapen_AOT/AOT_stimuli/rescaled_final/1993_rv.mp4	0.0	250.5274453163147	
41	196.72764992713928	pulse	1	t		39.0	2.5	/experiments/Knapen_AOT/AOT_stimuli/rescaled_final/1993_rv.mp4	0.0	252.1273684501648	
41	197.24613690376282	fix_post	2		12	39.0	2.5	/experiments/Knapen_AOT/AOT_stimuli/rescaled_final/1993_rv.mp4	0.0	252.64585542678833	0.10002899169921875
42	197.34616589546204	fix_pre	0		119	40.0	2.5	/experiments/Knapen_AOT/AOT_stimuli/rescaled_final/1992_fw.mp4	0.0	252.74588441848755	1.0001299381256104
42	198.3297824859619	pulse	0	t		40.0	2.5	/experiments/Knapen_AOT/AOT_stimuli/rescaled_final/1992_fw.mp4	0.0	253.72950100898743	
42	198.34629583358765	movie	1		284	40.0	2.5	/experiments/Knapen_AOT/AOT_stimuli/rescaled_final/1992_fw.mp4	0.0	253.74601435661316	2.5004501342773438
42	199.9285066127777	pulse	1	t		40.0	2.5	/experiments/Knapen_AOT/AOT_stimuli/rescaled_final/1992_fw.mp4	0.0	255.32822513580322	
42	200.846745967865	fix_post	2		12	40.0	2.5	/experiments/Knapen_AOT/AOT_stimuli/rescaled_final/1992_fw.mp4	0.0	256.2464644908905	0.09986114501953125
43	200.94660711288452	fix_pre	0		120	41.0	2.5	blank	1.0	256.34632563591003	1.0001351833343506
43	201.53024888038635	pulse	0	t		41.0	2.5	blank	1.0	256.92996740341187	
43	201.94674229621887	movie	1		300	41.0	2.5	blank	1.0	257.3464608192444	2.500427722930908
43	203.13067889213562	pulse	1	t		41.0	2.5	blank	1.0	258.53039741516113	
43	204.44717001914978	fix_post	2		12	41.0	2.5	blank	1.0	259.8468885421753	0.09998941421508789
44	204.54715943336487	fix_pre	0		120	42.0	2.5	/experiments/Knapen_AOT/AOT_stimuli/rescaled_final/1552_rv.mp4	0.0	259.9468779563904	1.0084960460662842
44	204.73069977760315	pulse	0	t		42.0	2.5	/experiments/Knapen_AOT/AOT_stimuli/rescaled_final/1552_rv.mp4	0.0	260.13041830062866	
44	205.55565547943115	movie	1		273	42.0	2.5	/experiments/Knapen_AOT/AOT_stimuli/rescaled_final/1552_rv.mp4	0.0	260.95537400245667	2.492025136947632
44	206.32951593399048	pulse	1	t		42.0	2.5	/experiments/Knapen_AOT/AOT_stimuli/rescaled_final/1552_rv.mp4	0.0	261.729234457016	
44	207.9292697906494	pulse	1	t		42.0	2.5	/experiments/Knapen_AOT/AOT_stimuli/rescaled_final/1552_rv.mp4	0.0	263.3289883136749	
44	208.04768061637878	fix_post	2		12	42.0	2.5	/experiments/Knapen_AOT/AOT_stimuli/rescaled_final/1552_rv.mp4	0.0	263.4473991394043	0.10001349449157715
45	208.14769411087036	fix_pre	0		120	43.0	2.5	/experiments/Knapen_AOT/AOT_stimuli/rescaled_final/1176_rv.mp4	0.0	263.5474126338959	1.008542776107788
45	209.15623688697815	movie	1		276	43.0	2.5	/experiments/Knapen_AOT/AOT_stimuli/rescaled_final/1176_rv.mp4	0.0	264.55595541000366	2.492037773132324
45	209.52985882759094	pulse	1	t		43.0	2.5	/experiments/Knapen_AOT/AOT_stimuli/rescaled_final/1176_rv.mp4	0.0	264.92957735061646	
45	211.12369179725647	pulse	1	t		43.0	2.5	/experiments/Knapen_AOT/AOT_stimuli/rescaled_final/1176_rv.mp4	0.0	266.523410320282	
45	211.64827466011047	fix_post	2		12	43.0	2.5	/experiments/Knapen_AOT/AOT_stimuli/rescaled_final/1176_rv.mp4	0.0	267.047993183136	0.09998798370361328
46	211.7482626438141	fix_pre	0		118	44.0	2.5	/experiments/Knapen_AOT/AOT_stimuli/rescaled_final/1993_fw.mp4	0.0	267.1479811668396	0.9918041229248047
46	212.7237892150879	pulse	0	t		44.0	2.5	/experiments/Knapen_AOT/AOT_stimuli/rescaled_final/1993_fw.mp4	0.0	268.1235077381134	
46	212.7400667667389	movie	1		284	44.0	2.5	/experiments/Knapen_AOT/AOT_stimuli/rescaled_final/1993_fw.mp4	0.0	268.1397852897644	2.5003671646118164
46	214.3238410949707	pulse	1	t		44.0	2.5	/experiments/Knapen_AOT/AOT_stimuli/rescaled_final/1993_fw.mp4	0.0	269.7235596179962	
46	215.2404339313507	fix_post	2		12	44.0	2.5	/experiments/Knapen_AOT/AOT_stimuli/rescaled_final/1993_fw.mp4	0.0	270.6401524543762	0.10001707077026367
47	215.34045100212097	fix_pre	0		120	45.0	2.5	/experiments/Knapen_AOT/AOT_stimuli/rescaled_final/2110_fw.mp4	0.0	270.7401695251465	1.008521318435669
47	215.924476146698	pulse	0	t		45.0	2.5	/experiments/Knapen_AOT/AOT_stimuli/rescaled_final/2110_fw.mp4	0.0	271.3241946697235	
47	216.34897232055664	movie	1		281	45.0	2.5	/experiments/Knapen_AOT/AOT_stimuli/rescaled_final/2110_fw.mp4	0.0	271.74869084358215	2.4919910430908203
47	217.52428078651428	pulse	1	t		45.0	2.5	/experiments/Knapen_AOT/AOT_stimuli/rescaled_final/2110_fw.mp4	0.0	272.9239993095398	
47	218.84096336364746	fix_post	2		12	45.0	2.5	/experiments/Knapen_AOT/AOT_stimuli/rescaled_final/2110_fw.mp4	0.0	274.240681886673	0.10001420974731445
48	218.94097757339478	fix_pre	0		104	46.0	2.5	/experiments/Knapen_AOT/AOT_stimuli/rescaled_final/2012_fw.mp4	0.0	274.3406960964203	1.0084950923919678
48	219.1246371269226	pulse	0	t		46.0	2.5	/experiments/Knapen_AOT/AOT_stimuli/rescaled_final/2012_fw.mp4	0.0	274.5243556499481	
48	219.94947266578674	movie	1		274	46.0	2.5	/experiments/Knapen_AOT/AOT_stimuli/rescaled_final/2012_fw.mp4	0.0	275.34919118881226	2.4920334815979004
48	220.7248935699463	pulse	1	t		46.0	2.5	/experiments/Knapen_AOT/AOT_stimuli/rescaled_final/2012_fw.mp4	0.0	276.1246120929718	
48	222.32500863075256	pulse	1	t		46.0	2.5	/experiments/Knapen_AOT/AOT_stimuli/rescaled_final/2012_fw.mp4	0.0	277.7247271537781	
48	222.44150614738464	fix_post	2		12	46.0	2.5	/experiments/Knapen_AOT/AOT_stimuli/rescaled_final/2012_fw.mp4	0.0	277.84122467041016	0.10001873970031738
49	222.54152488708496	fix_pre	0		120	47.0	2.5	/experiments/Knapen_AOT/AOT_stimuli/rescaled_final/1217_fw.mp4	0.0	277.9412434101105	1.0085029602050781
49	223.55002784729004	movie	1		277	47.0	2.5	/experiments/Knapen_AOT/AOT_stimuli/rescaled_final/1217_fw.mp4	0.0	278.94974637031555	2.492083787918091
49	223.92381072044373	pulse	1	t		47.0	2.5	/experiments/Knapen_AOT/AOT_stimuli/rescaled_final/1217_fw.mp4	0.0	279.32352924346924	
49	225.5257909297943	pulse	1	t		47.0	2.5	/experiments/Knapen_AOT/AOT_stimuli/rescaled_final/1217_fw.mp4	0.0	280.9255094528198	
49	226.04211163520813	fix_post	2		12	47.0	2.5	/experiments/Knapen_AOT/AOT_stimuli/rescaled_final/1217_fw.mp4	0.0	281.44183015823364	0.10000252723693848
50	226.14211416244507	fix_pre	0		119	48.0	2.5	blank	1.0	281.5418326854706	0.9917342662811279
50	227.12585139274597	pulse	0	t		48.0	2.5	blank	1.0	282.5255699157715	
50	227.1338484287262	movie	1		301	48.0	2.5	blank	1.0	282.5335669517517	2.508744239807129
50	228.72609639167786	pulse	1	t		48.0	2.5	blank	1.0	284.12581491470337	
50	229.64259266853333	fix_post	2		12	48.0	2.5	blank	1.0	285.04231119155884	0.10006976127624512
51	229.74266242980957	fix_pre	0		120	49.0	2.5	/experiments/Knapen_AOT/AOT_stimuli/rescaled_final/1311_fw.mp4	0.0	285.1423809528351	1.0084123611450195
51	230.32631134986877	pulse	0	t		49.0	2.5	/experiments/Knapen_AOT/AOT_stimuli/rescaled_final/1311_fw.mp4	0.0	285.7260298728943	
51	230.7510747909546	movie	1		271	49.0	2.5	/experiments/Knapen_AOT/AOT_stimuli/rescaled_final/1311_fw.mp4	0.0	286.1507933139801	2.492079496383667
51	231.92465543746948	pulse	1	t		49.0	2.5	/experiments/Knapen_AOT/AOT_stimuli/rescaled_final/1311_fw.mp4	0.0	287.324373960495	
51	233.24315428733826	fix_post	2		12	49.0	2.5	/experiments/Knapen_AOT/AOT_stimuli/rescaled_final/1311_fw.mp4	0.0	288.64287281036377	0.09998035430908203
52	233.34313464164734	fix_pre	0		120	50.0	2.5	/experiments/Knapen_AOT/AOT_stimuli/rescaled_final/1987_fw.mp4	0.0	288.74285316467285	1.0085265636444092
52	233.52672719955444	pulse	0	t		50.0	2.5	/experiments/Knapen_AOT/AOT_stimuli/rescaled_final/1987_fw.mp4	0.0	288.92644572257996	
52	234.35166120529175	movie	1		286	50.0	2.5	/experiments/Knapen_AOT/AOT_stimuli/rescaled_final/1987_fw.mp4	0.0	289.75137972831726	2.4920108318328857
52	235.1255078315735	pulse	1	t		50.0	2.5	/experiments/Knapen_AOT/AOT_stimuli/rescaled_final/1987_fw.mp4	0.0	290.525226354599	
52	236.72570776939392	pulse	1	t		50.0	2.5	/experiments/Knapen_AOT/AOT_stimuli/rescaled_final/1987_fw.mp4	0.0	292.12542629241943	
52	236.84367203712463	fix_post	2		12	50.0	2.5	/experiments/Knapen_AOT/AOT_stimuli/rescaled_final/1987_fw.mp4	0.0	292.24339056015015	0.10001134872436523
53	236.943683385849	fix_pre	0		120	51.0	2.5	/experiments/Knapen_AOT/AOT_stimuli/rescaled_final/1357_fw.mp4	0.0	292.3434019088745	1.008507251739502
53	237.9521906375885	movie	1		274	51.0	2.5	/experiments/Knapen_AOT/AOT_stimuli/rescaled_final/1357_fw.mp4	0.0	293.351909160614	2.4920365810394287
53	238.32764768600464	pulse	1	t		51.0	2.5	/experiments/Knapen_AOT/AOT_stimuli/rescaled_final/1357_fw.mp4	0.0	293.72736620903015	
53	239.9254665374756	pulse	1	t		51.0	2.5	/experiments/Knapen_AOT/AOT_stimuli/rescaled_final/1357_fw.mp4	0.0	295.3251850605011	
53	240.44422721862793	fix_post	2		12	51.0	2.5	/experiments/Knapen_AOT/AOT_stimuli/rescaled_final/1357_fw.mp4	0.0	295.84394574165344	0.10002350807189941
54	240.54425072669983	fix_pre	0		119	52.0	2.5	/experiments/Knapen_AOT/AOT_stimuli/rescaled_final/1107_rv.mp4	0.0	295.94396924972534	1.0001709461212158
54	241.52825236320496	pulse	0	t		52.0	2.5	/experiments/Knapen_AOT/AOT_stimuli/rescaled_final/1107_rv.mp4	0.0	296.92797088623047	
54	241.54442167282104	movie	1		288	52.0	2.5	/experiments/Knapen_AOT/AOT_stimuli/rescaled_final/1107_rv.mp4	0.0	296.94414019584656	2.500356435775757
54	243.12684202194214	pulse	1	t		52.0	2.5	/experiments/Knapen_AOT/AOT_stimuli/rescaled_final/1107_rv.mp4	0.0	298.52656054496765	
54	244.0447781085968	fix_post	2		12	52.0	2.5	/experiments/Knapen_AOT/AOT_stimuli/rescaled_final/1107_rv.mp4	0.0	299.4444966316223	0.10003471374511719
55	244.14481282234192	fix_pre	0		120	53.0	2.5	/experiments/Knapen_AOT/AOT_stimuli/rescaled_final/1050_rv.mp4	0.0	299.54453134536743	1.0084402561187744
55	244.72843098640442	pulse	0	t		53.0	2.5	/experiments/Knapen_AOT/AOT_stimuli/rescaled_final/1050_rv.mp4	0.0	300.12814950942993	
55	245.1532530784607	movie	1		270	53.0	2.5	/experiments/Knapen_AOT/AOT_stimuli/rescaled_final/1050_rv.mp4	0.0	300.5529716014862	2.492048978805542
55	246.3279469013214	pulse	1	t		53.0	2.5	/experiments/Knapen_AOT/AOT_stimuli/rescaled_final/1050_rv.mp4	0.0	301.7276654243469	
55	247.64530205726624	fix_post	2		12	53.0	2.5	/experiments/Knapen_AOT/AOT_stimuli/rescaled_final/1050_rv.mp4	0.0	303.04502058029175	0.10004472732543945
56	247.74534678459167	fix_pre	0		120	54.0	2.5	/experiments/Knapen_AOT/AOT_stimuli/rescaled_final/1619_rv.mp4	0.0	303.1450653076172	1.0085029602050781
56	247.92893934249878	pulse	0	t		54.0	2.5	/experiments/Knapen_AOT/AOT_stimuli/rescaled_final/1619_rv.mp4	0.0	303.3286578655243	
56	248.75384974479675	movie	1		283	54.0	2.5	/experiments/Knapen_AOT/AOT_stimuli/rescaled_final/1619_rv.mp4	0.0	304.15356826782227	2.492002010345459
56	249.52692341804504	pulse	1	t		54.0	2.5	/experiments/Knapen_AOT/AOT_stimuli/rescaled_final/1619_rv.mp4	0.0	304.92664194107056	
56	251.12759256362915	pulse	1	t		54.0	2.5	/experiments/Knapen_AOT/AOT_stimuli/rescaled_final/1619_rv.mp4	0.0	306.52731108665466	
56	251.2458517551422	fix_post	2		12	54.0	2.5	/experiments/Knapen_AOT/AOT_stimuli/rescaled_final/1619_rv.mp4	0.0	306.6455702781677	0.10001134872436523
57	251.34586310386658	fix_pre	0		120	55.0	2.5	blank	1.0	306.7455816268921	1.0001335144042969
57	252.34599661827087	movie	1		300	55.0	2.5	blank	1.0	307.7457151412964	2.5003771781921387
57	252.7296838760376	pulse	1	t		55.0	2.5	blank	1.0	308.1294023990631	
57	254.32990217208862	pulse	1	t		55.0	2.5	blank	1.0	309.72962069511414	
57	254.846373796463	fix_post	2		12	55.0	2.5	blank	1.0	310.2460923194885	0.10005831718444824
58	254.94643211364746	fix_pre	0		119	56.0	2.5	/experiments/Knapen_AOT/AOT_stimuli/rescaled_final/1091_rv.mp4	0.0	310.346150636673	1.000129222869873
58	255.93023777008057	pulse	0	t		56.0	2.5	/experiments/Knapen_AOT/AOT_stimuli/rescaled_final/1091_rv.mp4	0.0	311.3299562931061	
58	255.94656133651733	movie	1		275	56.0	2.5	/experiments/Knapen_AOT/AOT_stimuli/rescaled_final/1091_rv.mp4	0.0	311.34627985954285	2.500359296798706
58	257.52944445610046	pulse	1	t		56.0	2.5	/experiments/Knapen_AOT/AOT_stimuli/rescaled_final/1091_rv.mp4	0.0	312.929162979126	
58	258.44692063331604	fix_post	2		12	56.0	2.5	/experiments/Knapen_AOT/AOT_stimuli/rescaled_final/1091_rv.mp4	0.0	313.84663915634155	0.10002374649047852
59	258.5469443798065	fix_pre	0		120	57.0	2.5	/experiments/Knapen_AOT/AOT_stimuli/rescaled_final/0331_rv.mp4	0.0	313.94666290283203	1.0084986686706543
59	259.1306781768799	pulse	0	t		57.0	2.5	/experiments/Knapen_AOT/AOT_stimuli/rescaled_final/0331_rv.mp4	0.0	314.5303966999054	
59	259.5554430484772	movie	1		291	57.0	2.5	/experiments/Knapen_AOT/AOT_stimuli/rescaled_final/0331_rv.mp4	0.0	314.9551615715027	2.4920318126678467
59	260.7291033267975	pulse	1	t		57.0	2.5	/experiments/Knapen_AOT/AOT_stimuli/rescaled_final/0331_rv.mp4	0.0	316.128821849823	
59	262.047474861145	fix_post	2		12	57.0	2.5	/experiments/Knapen_AOT/AOT_stimuli/rescaled_final/0331_rv.mp4	0.0	317.44719338417053	0.10001230239868164
60	262.1474871635437	fix_pre	0		120	58.0	2.5	/experiments/Knapen_AOT/AOT_stimuli/rescaled_final/1587_fw.mp4	0.0	317.5472056865692	1.0084962844848633
60	262.33122754096985	pulse	0	t		58.0	2.5	/experiments/Knapen_AOT/AOT_stimuli/rescaled_final/1587_fw.mp4	0.0	317.73094606399536	
60	263.15598344802856	movie	1		286	58.0	2.5	/experiments/Knapen_AOT/AOT_stimuli/rescaled_final/1587_fw.mp4	0.0	318.5557019710541	2.4920310974121094
60	263.9295597076416	pulse	1	t		58.0	2.5	/experiments/Knapen_AOT/AOT_stimuli/rescaled_final/1587_fw.mp4	0.0	319.3292782306671	
60	265.52972650527954	pulse	1	t		58.0	2.5	/experiments/Knapen_AOT/AOT_stimuli/rescaled_final/1587_fw.mp4	0.0	320.92944502830505	
60	265.6480145454407	fix_post	2		12	58.0	2.5	/experiments/Knapen_AOT/AOT_stimuli/rescaled_final/1587_fw.mp4	0.0	321.0477330684662	0.10001564025878906
61	265.74803018569946	fix_pre	0		120	59.0	2.5	/experiments/Knapen_AOT/AOT_stimuli/rescaled_final/0026_rv.mp4	0.0	321.147748708725	1.0084893703460693
61	266.75651955604553	movie	1		271	59.0	2.5	/experiments/Knapen_AOT/AOT_stimuli/rescaled_final/0026_rv.mp4	0.0	322.15623807907104	2.4920284748077393
61	267.1310455799103	pulse	1	t		59.0	2.5	/experiments/Knapen_AOT/AOT_stimuli/rescaled_final/0026_rv.mp4	0.0	322.5307641029358	
61	268.73254656791687	pulse	1	t		59.0	2.5	/experiments/Knapen_AOT/AOT_stimuli/rescaled_final/0026_rv.mp4	0.0	324.1322650909424	
61	269.24854803085327	fix_post	2		12	59.0	2.5	/experiments/Knapen_AOT/AOT_stimuli/rescaled_final/0026_rv.mp4	0.0	324.6482665538788	0.10002422332763672
62	269.3485722541809	fix_pre	0		118	60.0	2.5	/experiments/Knapen_AOT/AOT_stimuli/rescaled_final/0755_fw.mp4	0.0	324.7482907772064	0.9919095039367676
62	270.3242003917694	pulse	0	t		60.0	2.5	/experiments/Knapen_AOT/AOT_stimuli/rescaled_final/0755_fw.mp4	0.0	325.7239189147949	
62	270.3404817581177	movie	1		275	60.0	2.5	/experiments/Knapen_AOT/AOT_stimuli/rescaled_final/0755_fw.mp4	0.0	325.7402002811432	2.5002925395965576
62	271.92417573928833	pulse	1	t		60.0	2.5	/experiments/Knapen_AOT/AOT_stimuli/rescaled_final/0755_fw.mp4	0.0	327.32389426231384	
62	272.84077429771423	fix_post	2		12	60.0	2.5	/experiments/Knapen_AOT/AOT_stimuli/rescaled_final/0755_fw.mp4	0.0	328.24049282073975	0.1000068187713623
63	272.9407811164856	fix_pre	0		120	61.0	2.5	/experiments/Knapen_AOT/AOT_stimuli/rescaled_final/0656_rv.mp4	0.0	328.3404996395111	1.0085315704345703
63	273.5244915485382	pulse	0	t		61.0	2.5	/experiments/Knapen_AOT/AOT_stimuli/rescaled_final/0656_rv.mp4	0.0	328.9242100715637	
63	273.94931268692017	movie	1		287	61.0	2.5	/experiments/Knapen_AOT/AOT_stimuli/rescaled_final/0656_rv.mp4	0.0	329.3490312099457	2.4919798374176025
63	275.12499809265137	pulse	1	t		61.0	2.5	/experiments/Knapen_AOT/AOT_stimuli/rescaled_final/0656_rv.mp4	0.0	330.5247166156769	
63	276.44129252433777	fix_post	2		12	61.0	2.5	/experiments/Knapen_AOT/AOT_stimuli/rescaled_final/0656_rv.mp4	0.0	331.8410110473633	0.10003066062927246
64	276.54132318496704	fix_pre	0		120	62.0	2.5	/experiments/Knapen_AOT/AOT_stimuli/rescaled_final/1964_fw.mp4	0.0	331.94104170799255	1.00852632522583
64	276.7249000072479	pulse	0	t		62.0	2.5	/experiments/Knapen_AOT/AOT_stimuli/rescaled_final/1964_fw.mp4	0.0	332.12461853027344	
64	277.54984951019287	movie	1		281	62.0	2.5	/experiments/Knapen_AOT/AOT_stimuli/rescaled_final/1964_fw.mp4	0.0	332.9495680332184	2.4920060634613037
64	278.3251385688782	pulse	1	t		62.0	2.5	/experiments/Knapen_AOT/AOT_stimuli/rescaled_final/1964_fw.mp4	0.0	333.7248570919037	
64	279.92555141448975	pulse	1	t		62.0	2.5	/experiments/Knapen_AOT/AOT_stimuli/rescaled_final/1964_fw.mp4	0.0	335.32526993751526	
64	280.0418555736542	fix_post	2		12	62.0	2.5	/experiments/Knapen_AOT/AOT_stimuli/rescaled_final/1964_fw.mp4	0.0	335.4415740966797	0.10003161430358887
65	280.14188718795776	fix_pre	0		120	63.0	2.5	blank	1.0	335.5416057109833	1.000166654586792
65	281.14205384254456	movie	1		300	63.0	2.5	blank	1.0	336.54177236557007	2.5004656314849854
65	281.52566027641296	pulse	1	t		63.0	2.5	blank	1.0	336.9253787994385	
65	283.125860452652	pulse	1	t		63.0	2.5	blank	1.0	338.5255789756775	
65	283.64251947402954	fix_post	2		12	63.0	2.5	blank	1.0	339.04223799705505	0.09989285469055176
66	283.7424123287201	fix_pre	0		119	64.0	2.5	/experiments/Knapen_AOT/AOT_stimuli/rescaled_final/2082_rv.mp4	0.0	339.1421308517456	1.000178575515747
66	284.7261497974396	pulse	0	t		64.0	2.5	/experiments/Knapen_AOT/AOT_stimuli/rescaled_final/2082_rv.mp4	0.0	340.1258683204651	
66	284.74259090423584	movie	1		284	64.0	2.5	/experiments/Knapen_AOT/AOT_stimuli/rescaled_final/2082_rv.mp4	0.0	340.14230942726135	2.5003459453582764
66	286.3252069950104	pulse	1	t		64.0	2.5	/experiments/Knapen_AOT/AOT_stimuli/rescaled_final/2082_rv.mp4	0.0	341.7249255180359	
66	287.2429368495941	fix_post	2		12	64.0	2.5	/experiments/Knapen_AOT/AOT_stimuli/rescaled_final/2082_rv.mp4	0.0	342.64265537261963	0.1000223159790039
67	287.3429591655731	fix_pre	0		120	65.0	2.5	/experiments/Knapen_AOT/AOT_stimuli/rescaled_final/0199_fw.mp4	0.0	342.74267768859863	1.008476734161377
67	287.92667603492737	pulse	0	t		65.0	2.5	/experiments/Knapen_AOT/AOT_stimuli/rescaled_final/0199_fw.mp4	0.0	343.3263945579529	
67	288.3514358997345	movie	1		275	65.0	2.5	/experiments/Knapen_AOT/AOT_stimuli/rescaled_final/0199_fw.mp4	0.0	343.75115442276	2.492035388946533
67	289.5250470638275	pulse	1	t		65.0	2.5	/experiments/Knapen_AOT/AOT_stimuli/rescaled_final/0199_fw.mp4	0.0	344.924765586853	
67	290.84347128868103	fix_post	2		12	65.0	2.5	/experiments/Knapen_AOT/AOT_stimuli/rescaled_final/0199_fw.mp4	0.0	346.24318981170654	0.10001087188720703
68	290.94348216056824	fix_pre	0		120	66.0	2.5	/experiments/Knapen_AOT/AOT_stimuli/rescaled_final/0738_fw.mp4	0.0	346.34320068359375	1.0085077285766602
68	291.1271302700043	pulse	0	t		66.0	2.5	/experiments/Knapen_AOT/AOT_stimuli/rescaled_final/0738_fw.mp4	0.0	346.5268487930298	
68	291.9519898891449	movie	1		276	66.0	2.5	/experiments/Knapen_AOT/AOT_stimuli/rescaled_final/0738_fw.mp4	0.0	347.3517084121704	2.492023468017578
68	292.72544407844543	pulse	1	t		66.0	2.5	/experiments/Knapen_AOT/AOT_stimuli/rescaled_final/0738_fw.mp4	0.0	348.12516260147095	
68	294.32575035095215	pulse	1	t		66.0	2.5	/experiments/Knapen_AOT/AOT_stimuli/rescaled_final/0738_fw.mp4	0.0	349.72546887397766	
68	294.4440133571625	fix_post	2		12	66.0	2.5	/experiments/Knapen_AOT/AOT_stimuli/rescaled_final/0738_fw.mp4	0.0	349.843731880188	0.10002994537353516
69	294.544043302536	fix_pre	0		120	67.0	2.5	/experiments/Knapen_AOT/AOT_stimuli/rescaled_final/1195_rv.mp4	0.0	349.9437618255615	1.0085270404815674
69	295.5525703430176	movie	1		269	67.0	2.5	/experiments/Knapen_AOT/AOT_stimuli/rescaled_final/1195_rv.mp4	0.0	350.9522888660431	2.491971015930176
69	295.92640709877014	pulse	1	t		67.0	2.5	/experiments/Knapen_AOT/AOT_stimuli/rescaled_final/1195_rv.mp4	0.0	351.32612562179565	
69	297.5264194011688	pulse	1	t		67.0	2.5	/experiments/Knapen_AOT/AOT_stimuli/rescaled_final/1195_rv.mp4	0.0	352.92613792419434	
69	298.04454135894775	fix_post	2		12	67.0	2.5	/experiments/Knapen_AOT/AOT_stimuli/rescaled_final/1195_rv.mp4	0.0	353.44425988197327	0.1000361442565918
70	298.14457750320435	fix_pre	0		119	68.0	2.5	blank	1.0	353.54429602622986	0.991762638092041
70	299.1282525062561	pulse	0	t		68.0	2.5	blank	1.0	354.5279710292816	
70	299.1363401412964	movie	1		301	68.0	2.5	blank	1.0	354.5360586643219	2.5087616443634033
70	300.72851371765137	pulse	1	t		68.0	2.5	blank	1.0	356.1282322406769	
70	301.6451017856598	fix_post	2		12	68.0	2.5	blank	1.0	357.0448203086853	0.10008072853088379
71	301.7451825141907	fix_pre	0		120	69.0	2.5	/experiments/Knapen_AOT/AOT_stimuli/rescaled_final/0371_fw.mp4	0.0	357.1449010372162	1.0084295272827148
71	302.3288776874542	pulse	0	t		69.0	2.5	/experiments/Knapen_AOT/AOT_stimuli/rescaled_final/0371_fw.mp4	0.0	357.72859621047974	
71	302.7536120414734	movie	1		283	69.0	2.5	/experiments/Knapen_AOT/AOT_stimuli/rescaled_final/0371_fw.mp4	0.0	358.1533305644989	2.4920623302459717
71	303.92759799957275	pulse	1	t		69.0	2.5	/experiments/Knapen_AOT/AOT_stimuli/rescaled_final/0371_fw.mp4	0.0	359.32731652259827	
71	305.24567437171936	fix_post	2		12	69.0	2.5	/experiments/Knapen_AOT/AOT_stimuli/rescaled_final/0371_fw.mp4	0.0	360.6453928947449	0.0999760627746582
72	305.345650434494	fix_pre	0		120	70.0	2.5	/experiments/Knapen_AOT/AOT_stimuli/rescaled_final/1552_fw.mp4	0.0	360.74536895751953	1.0085580348968506
72	305.5292475223541	pulse	0	t		70.0	2.5	/experiments/Knapen_AOT/AOT_stimuli/rescaled_final/1552_fw.mp4	0.0	360.92896604537964	
72	306.35420846939087	movie	1		286	70.0	2.5	/experiments/Knapen_AOT/AOT_stimuli/rescaled_final/1552_fw.mp4	0.0	361.7539269924164	2.4919662475585938
72	307.1276476383209	pulse	1	t		70.0	2.5	/experiments/Knapen_AOT/AOT_stimuli/rescaled_final/1552_fw.mp4	0.0	362.52736616134644	
72	308.7284369468689	pulse	1	t		70.0	2.5	/experiments/Knapen_AOT/AOT_stimuli/rescaled_final/1552_fw.mp4	0.0	364.1281554698944	
72	308.84617471694946	fix_post	2		12	70.0	2.5	/experiments/Knapen_AOT/AOT_stimuli/rescaled_final/1552_fw.mp4	0.0	364.245893239975	0.10007858276367188
73	308.94625329971313	fix_pre	0		120	71.0	2.5	/experiments/Knapen_AOT/AOT_stimuli/rescaled_final/0435_fw.mp4	0.0	364.34597182273865	1.0084543228149414
73	309.9547076225281	movie	1		281	71.0	2.5	/experiments/Knapen_AOT/AOT_stimuli/rescaled_final/0435_fw.mp4	0.0	365.3544261455536	2.4920196533203125
73	310.3285849094391	pulse	1	t		71.0	2.5	/experiments/Knapen_AOT/AOT_stimuli/rescaled_final/0435_fw.mp4	0.0	365.7283034324646	
73	311.9283697605133	pulse	1	t		71.0	2.5	/experiments/Knapen_AOT/AOT_stimuli/rescaled_final/0435_fw.mp4	0.0	367.3280882835388	
73	312.4467272758484	fix_post	2		12	71.0	2.5	/experiments/Knapen_AOT/AOT_stimuli/rescaled_final/0435_fw.mp4	0.0	367.8464457988739	0.09999966621398926
74	312.5467269420624	fix_pre	0		119	72.0	2.5	/experiments/Knapen_AOT/AOT_stimuli/rescaled_final/1346_rv.mp4	0.0	367.9464454650879	1.0085384845733643
74	313.5307946205139	pulse	0	t		72.0	2.5	/experiments/Knapen_AOT/AOT_stimuli/rescaled_final/1346_rv.mp4	0.0	368.93051314353943	
74	313.55526542663574	movie	1		283	72.0	2.5	/experiments/Knapen_AOT/AOT_stimuli/rescaled_final/1346_rv.mp4	0.0	368.95498394966125	2.491999864578247
74	315.129763841629	pulse	1	t		72.0	2.5	/experiments/Knapen_AOT/AOT_stimuli/rescaled_final/1346_rv.mp4	0.0	370.52948236465454	
74	316.047265291214	fix_post	2		12	72.0	2.5	/experiments/Knapen_AOT/AOT_stimuli/rescaled_final/1346_rv.mp4	0.0	371.4469838142395	0.1000363826751709
75	316.14730167388916	fix_pre	0		120	73.0	2.5	/experiments/Knapen_AOT/AOT_stimuli/rescaled_final/1694_rv.mp4	0.0	371.5470201969147	1.0085382461547852
75	316.7314269542694	pulse	0	t		73.0	2.5	/experiments/Knapen_AOT/AOT_stimuli/rescaled_final/1694_rv.mp4	0.0	372.1311454772949	
75	317.15583992004395	movie	1		279	73.0	2.5	/experiments/Knapen_AOT/AOT_stimuli/rescaled_final/1694_rv.mp4	0.0	372.55555844306946	2.4919562339782715
75	318.32924461364746	pulse	1	t		73.0	2.5	/experiments/Knapen_AOT/AOT_stimuli/rescaled_final/1694_rv.mp4	0.0	373.728963136673	
75	319.6477961540222	fix_post	2		12	73.0	2.5	/experiments/Knapen_AOT/AOT_stimuli/rescaled_final/1694_rv.mp4	0.0	375.04751467704773	0.10006976127624512
76	319.74786591529846	fix_pre	0		120	74.0	2.5	/experiments/Knapen_AOT/AOT_stimuli/rescaled_final/1575_rv.mp4	0.0	375.147584438324	1.0084686279296875
76	319.93131947517395	pulse	0	t		74.0	2.5	/experiments/Knapen_AOT/AOT_stimuli/rescaled_final/1575_rv.mp4	0.0	375.33103799819946	
76	320.75633454322815	movie	1		266	74.0	2.5	/experiments/Knapen_AOT/AOT_stimuli/rescaled_final/1575_rv.mp4	0.0	376.15605306625366	2.492020845413208
76	321.5301089286804	pulse	1	t		74.0	2.5	/experiments/Knapen_AOT/AOT_stimuli/rescaled_final/1575_rv.mp4	0.0	376.92982745170593	
76	323.1302332878113	pulse	1	t		74.0	2.5	/experiments/Knapen_AOT/AOT_stimuli/rescaled_final/1575_rv.mp4	0.0	378.5299518108368	
76	323.24835538864136	fix_post	2		12	74.0	2.5	/experiments/Knapen_AOT/AOT_stimuli/rescaled_final/1575_rv.mp4	0.0	378.64807391166687	0.10002255439758301
77	323.34837794303894	fix_pre	0		120	75.0	2.5	blank	1.0	378.74809646606445	1.000150203704834
77	324.3485281467438	movie	1		300	75.0	2.5	blank	1.0	379.7482466697693	2.5004138946533203
77	324.72469878196716	pulse	1	t		75.0	2.5	blank	1.0	380.1244173049927	
77	326.3247375488281	pulse	1	t		75.0	2.5	blank	1.0	381.72445607185364	
77	326.8489420413971	fix_post	2		12	75.0	2.5	blank	1.0	382.2486605644226	0.09993934631347656
78	326.94888138771057	fix_pre	0		118	76.0	2.5	/experiments/Knapen_AOT/AOT_stimuli/rescaled_final/1942_rv.mp4	0.0	382.3485999107361	0.991919755935669
78	327.9248869419098	pulse	0	t		76.0	2.5	/experiments/Knapen_AOT/AOT_stimuli/rescaled_final/1942_rv.mp4	0.0	383.3246054649353	
78	327.94080114364624	movie	1		277	76.0	2.5	/experiments/Knapen_AOT/AOT_stimuli/rescaled_final/1942_rv.mp4	0.0	383.34051966667175	2.5003156661987305
78	329.533141374588	pulse	1	t		76.0	2.5	/experiments/Knapen_AOT/AOT_stimuli/rescaled_final/1942_rv.mp4	0.0	384.9328598976135	
78	330.44111680984497	fix_post	2		12	76.0	2.5	/experiments/Knapen_AOT/AOT_stimuli/rescaled_final/1942_rv.mp4	0.0	385.8408353328705	0.10000872611999512
79	330.54112553596497	fix_pre	0		120	77.0	2.5	/experiments/Knapen_AOT/AOT_stimuli/rescaled_final/1169_fw.mp4	0.0	385.9408440589905	1.0084784030914307
79	331.12488293647766	pulse	0	t		77.0	2.5	/experiments/Knapen_AOT/AOT_stimuli/rescaled_final/1169_fw.mp4	0.0	386.5246014595032	
79	331.5496039390564	movie	1		275	77.0	2.5	/experiments/Knapen_AOT/AOT_stimuli/rescaled_final/1169_fw.mp4	0.0	386.9493224620819	2.4920284748077393
79	332.7245681285858	pulse	1	t		77.0	2.5	/experiments/Knapen_AOT/AOT_stimuli/rescaled_final/1169_fw.mp4	0.0	388.1242866516113	
79	334.04163241386414	fix_post	2		12	77.0	2.5	/experiments/Knapen_AOT/AOT_stimuli/rescaled_final/1169_fw.mp4	0.0	389.44135093688965	0.10008907318115234
80	334.1417214870453	fix_pre	0		120	78.0	2.5	/experiments/Knapen_AOT/AOT_stimuli/rescaled_final/1638_fw.mp4	0.0	389.5414400100708	1.008432388305664
80	334.32530450820923	pulse	0	t		78.0	2.5	/experiments/Knapen_AOT/AOT_stimuli/rescaled_final/1638_fw.mp4	0.0	389.72502303123474	
80	335.15015387535095	movie	1		274	78.0	2.5	/experiments/Knapen_AOT/AOT_stimuli/rescaled_final/1638_fw.mp4	0.0	390.54987239837646	2.492037296295166
80	335.92633390426636	pulse	1	t		78.0	2.5	/experiments/Knapen_AOT/AOT_stimuli/rescaled_final/1638_fw.mp4	0.0	391.32605242729187	
80	337.5258004665375	pulse	1	t		78.0	2.5	/experiments/Knapen_AOT/AOT_stimuli/rescaled_final/1638_fw.mp4	0.0	392.925518989563	
80	337.6421911716461	fix_post	2		12	78.0	2.5	/experiments/Knapen_AOT/AOT_stimuli/rescaled_final/1638_fw.mp4	0.0	393.04190969467163	0.10004997253417969
81	337.7422411441803	fix_pre	0		120	79.0	2.5	/experiments/Knapen_AOT/AOT_stimuli/rescaled_final/0228_fw.mp4	0.0	393.1419596672058	1.0084304809570312
81	338.75067162513733	movie	1		269	79.0	2.5	/experiments/Knapen_AOT/AOT_stimuli/rescaled_final/0228_fw.mp4	0.0	394.15039014816284	2.492091655731201
81	339.1244728565216	pulse	1	t		79.0	2.5	/experiments/Knapen_AOT/AOT_stimuli/rescaled_final/0228_fw.mp4	0.0	394.5241913795471	
81	340.7255289554596	pulse	1	t		79.0	2.5	/experiments/Knapen_AOT/AOT_stimuli/rescaled_final/0228_fw.mp4	0.0	396.1252474784851	
81	341.24276328086853	fix_post	2		12	79.0	2.5	/experiments/Knapen_AOT/AOT_stimuli/rescaled_final/0228_fw.mp4	0.0	396.64248180389404	0.10008478164672852
82	341.34284806251526	fix_pre	0		119	80.0	2.5	/experiments/Knapen_AOT/AOT_stimuli/rescaled_final/0778_fw.mp4	0.0	396.74256658554077	1.0000436305999756
82	342.32652401924133	pulse	0	t		80.0	2.5	/experiments/Knapen_AOT/AOT_stimuli/rescaled_final/0778_fw.mp4	0.0	397.72624254226685	
82	342.34289169311523	movie	1		269	80.0	2.5	/experiments/Knapen_AOT/AOT_stimuli/rescaled_final/0778_fw.mp4	0.0	397.74261021614075	2.5003621578216553
82	343.9252932071686	pulse	1	t		80.0	2.5	/experiments/Knapen_AOT/AOT_stimuli/rescaled_final/0778_fw.mp4	0.0	399.3250117301941	
82	344.8432538509369	fix_post	2		12	80.0	2.5	/experiments/Knapen_AOT/AOT_stimuli/rescaled_final/0778_fw.mp4	0.0	400.2429723739624	0.1001732349395752
83	344.94342708587646	fix_pre	0		120	81.0	2.5	/experiments/Knapen_AOT/AOT_stimuli/rescaled_final/0824_fw.mp4	0.0	400.343145608902	1.0083613395690918
83	345.52693939208984	pulse	0	t		81.0	2.5	/experiments/Knapen_AOT/AOT_stimuli/rescaled_final/0824_fw.mp4	0.0	400.92665791511536	
83	345.95178842544556	movie	1		284	81.0	2.5	/experiments/Knapen_AOT/AOT_stimuli/rescaled_final/0824_fw.mp4	0.0	401.35150694847107	2.4920146465301514
83	347.12555027008057	pulse	1	t		81.0	2.5	/experiments/Knapen_AOT/AOT_stimuli/rescaled_final/0824_fw.mp4	0.0	402.5252687931061	
83	348.4438030719757	fix_post	2		12	81.0	2.5	/experiments/Knapen_AOT/AOT_stimuli/rescaled_final/0824_fw.mp4	0.0	403.8435215950012	0.10001730918884277
84	348.54382038116455	fix_pre	0		120	82.0	2.5	/experiments/Knapen_AOT/AOT_stimuli/rescaled_final/0956_rv.mp4	0.0	403.94353890419006	1.0085148811340332
84	348.7273919582367	pulse	0	t		82.0	2.5	/experiments/Knapen_AOT/AOT_stimuli/rescaled_final/0956_rv.mp4	0.0	404.1271104812622	
84	349.5523352622986	movie	1		280	82.0	2.5	/experiments/Knapen_AOT/AOT_stimuli/rescaled_final/0956_rv.mp4	0.0	404.9520537853241	2.492015838623047
84	350.3256480693817	pulse	1	t		82.0	2.5	/experiments/Knapen_AOT/AOT_stimuli/rescaled_final/0956_rv.mp4	0.0	405.7253665924072	
84	351.92623233795166	pulse	1	t		82.0	2.5	/experiments/Knapen_AOT/AOT_stimuli/rescaled_final/0956_rv.mp4	0.0	407.3259508609772	
84	352.04435110092163	fix_post	2		12	82.0	2.5	/experiments/Knapen_AOT/AOT_stimuli/rescaled_final/0956_rv.mp4	0.0	407.44406962394714	0.10000157356262207
85	352.14435267448425	fix_pre	0		120	83.0	2.5	blank	1.0	407.54407119750977	1.0001471042633057
85	353.14449977874756	movie	1		300	83.0	2.5	blank	1.0	408.54421830177307	2.5003862380981445
85	353.52821254730225	pulse	1	t		83.0	2.5	blank	1.0	408.92793107032776	
85	355.12839341163635	pulse	1	t		83.0	2.5	blank	1.0	410.52811193466187	
85	355.6448860168457	fix_post	2		12	83.0	2.5	blank	1.0	411.0446045398712	0.09998464584350586
87	355.7448706626892	stim	0		1715					411.1445891857147	14.293827533721924
87	356.729052066803	pulse	0	t						412.1287705898285	
87	358.32878828048706	pulse	0	t						413.7285068035126	
87	359.92906522750854	pulse	0	t						415.32878375053406	
87	361.5293641090393	pulse	0	t						416.9290826320648	
87	363.1296877861023	pulse	0	t						418.5294063091278	
87	364.7298147678375	pulse	0	t						420.12953329086304	
87	366.3300178050995	pulse	0	t						421.729736328125	
87	367.9304916858673	pulse	0	t						423.3302102088928	
87	369.53060698509216	pulse	0	t						424.9303255081177	
