trial_nr	onset	event_type	phase	response	nr_frames	movie_index	movie_duration	movie_file	blank	onset_abs	duration
0	0.17494630813598633	stim	0		1					21.0660400390625	0.02496504783630371
0	0.19316339492797852	response	0	space						21.084257125854492	
1	0.19991135597229004	stim	0		5065					21.091005086898804	42.215508699417114
1	42.40677499771118	pulse	0	t						63.297868728637695	
1	42.415420055389404	stim	1		1714					63.30651378631592	14.301339626312256
1	44.007019996643066	pulse	1	t						64.89811372756958	
1	45.607192039489746	pulse	1	t						66.49828577041626	
1	47.207281827926636	pulse	1	t						68.09837555885315	
1	48.807533979415894	pulse	1	t						69.69862771034241	
1	50.4080867767334	pulse	1	t						71.29918050765991	
1	52.00790762901306	pulse	1	t						72.89900135993958	
1	53.60812711715698	pulse	1	t						74.4992208480835	
1	55.20839214324951	pulse	1	t						76.09948587417603	
2	56.71675968170166	fix_pre	0		12	0.0	2.5	/experiments/knapen_AOT/AOT_stimuli/rescaled_final/0066_fw.mp4	0.0	77.60785341262817	0.1335923671722412
2	56.808826208114624	pulse	0	t		0.0	2.5	/experiments/knapen_AOT/AOT_stimuli/rescaled_final/0066_fw.mp4	0.0	77.69991993904114	
2	56.8503520488739	movie	1		290	0.0	2.5	/experiments/knapen_AOT/AOT_stimuli/rescaled_final/0066_fw.mp4	0.0	77.74144577980042	2.475433588027954
2	58.40699887275696	pulse	1	t		0.0	2.5	/experiments/knapen_AOT/AOT_stimuli/rescaled_final/0066_fw.mp4	0.0	79.29809260368347	
2	59.325785636901855	fix_post	2		12	0.0	2.5	/experiments/knapen_AOT/AOT_stimuli/rescaled_final/0066_fw.mp4	0.0	80.21687936782837	0.09973406791687012
3	59.425519704818726	fix_pre	0		120	1.0	2.5	/experiments/knapen_AOT/AOT_stimuli/rescaled_final/1156_fw.mp4	0.0	80.31661343574524	1.0085318088531494
3	60.00919961929321	pulse	0	t		1.0	2.5	/experiments/knapen_AOT/AOT_stimuli/rescaled_final/1156_fw.mp4	0.0	80.90029335021973	
3	60.434051513671875	movie	1		276	1.0	2.5	/experiments/knapen_AOT/AOT_stimuli/rescaled_final/1156_fw.mp4	0.0	81.32514524459839	2.492039442062378
3	61.60770058631897	pulse	1	t		1.0	2.5	/experiments/knapen_AOT/AOT_stimuli/rescaled_final/1156_fw.mp4	0.0	82.49879431724548	
3	62.92609095573425	fix_post	2		12	1.0	2.5	/experiments/knapen_AOT/AOT_stimuli/rescaled_final/1156_fw.mp4	0.0	83.81718468666077	0.09998106956481934
4	63.02607202529907	fix_pre	0		120	2.0	2.5	/experiments/knapen_AOT/AOT_stimuli/rescaled_final/1135_rv.mp4	0.0	83.91716575622559	1.0084774494171143
4	63.20978569984436	pulse	0	t		2.0	2.5	/experiments/knapen_AOT/AOT_stimuli/rescaled_final/1135_rv.mp4	0.0	84.10087943077087	
4	64.03454947471619	movie	1		266	2.0	2.5	/experiments/knapen_AOT/AOT_stimuli/rescaled_final/1135_rv.mp4	0.0	84.9256432056427	2.492011785507202
4	64.80791521072388	pulse	1	t		2.0	2.5	/experiments/knapen_AOT/AOT_stimuli/rescaled_final/1135_rv.mp4	0.0	85.69900894165039	
4	66.40786218643188	pulse	1	t		2.0	2.5	/experiments/knapen_AOT/AOT_stimuli/rescaled_final/1135_rv.mp4	0.0	87.2989559173584	
4	66.52656126022339	fix_post	2		12	2.0	2.5	/experiments/knapen_AOT/AOT_stimuli/rescaled_final/1135_rv.mp4	0.0	87.4176549911499	0.10003399848937988
5	66.62659525871277	fix_pre	0		120	3.0	2.5	/experiments/knapen_AOT/AOT_stimuli/rescaled_final/1678_fw.mp4	0.0	87.51768898963928	1.0169658660888672
5	67.64356112480164	movie	1		267	3.0	2.5	/experiments/knapen_AOT/AOT_stimuli/rescaled_final/1678_fw.mp4	0.0	88.53465485572815	2.4837446212768555
5	68.0089373588562	pulse	1	t		3.0	2.5	/experiments/knapen_AOT/AOT_stimuli/rescaled_final/1678_fw.mp4	0.0	88.90003108978271	
5	69.61037254333496	pulse	1	t		3.0	2.5	/experiments/knapen_AOT/AOT_stimuli/rescaled_final/1678_fw.mp4	0.0	90.50146627426147	
5	70.12730574607849	fix_post	2		12	3.0	2.5	/experiments/knapen_AOT/AOT_stimuli/rescaled_final/1678_fw.mp4	0.0	91.018399477005	0.09986305236816406
6	70.22716879844666	fix_pre	0		119	4.0	2.5	/experiments/knapen_AOT/AOT_stimuli/rescaled_final/0793_fw.mp4	0.0	91.11826252937317	1.0001955032348633
6	71.21088981628418	pulse	0	t		4.0	2.5	/experiments/knapen_AOT/AOT_stimuli/rescaled_final/0793_fw.mp4	0.0	92.1019835472107	
6	71.22736430168152	movie	1		275	4.0	2.5	/experiments/knapen_AOT/AOT_stimuli/rescaled_final/0793_fw.mp4	0.0	92.11845803260803	2.5004043579101562
6	72.80957102775574	pulse	1	t		4.0	2.5	/experiments/knapen_AOT/AOT_stimuli/rescaled_final/0793_fw.mp4	0.0	93.70066475868225	
6	73.72776865959167	fix_post	2		12	4.0	2.5	/experiments/knapen_AOT/AOT_stimuli/rescaled_final/0793_fw.mp4	0.0	94.61886239051819	0.10016679763793945
7	73.82793545722961	fix_pre	0		120	5.0	2.5	/experiments/knapen_AOT/AOT_stimuli/rescaled_final/0189_rv.mp4	0.0	94.71902918815613	1.016706943511963
7	74.41130375862122	pulse	0	t		5.0	2.5	/experiments/knapen_AOT/AOT_stimuli/rescaled_final/0189_rv.mp4	0.0	95.30239748954773	
7	74.84464240074158	movie	1		282	5.0	2.5	/experiments/knapen_AOT/AOT_stimuli/rescaled_final/0189_rv.mp4	0.0	95.73573613166809	2.48398494720459
7	76.01023578643799	pulse	1	t		5.0	2.5	/experiments/knapen_AOT/AOT_stimuli/rescaled_final/0189_rv.mp4	0.0	96.9013295173645	
7	77.32862734794617	fix_post	2		12	5.0	2.5	/experiments/knapen_AOT/AOT_stimuli/rescaled_final/0189_rv.mp4	0.0	98.21972107887268	0.0996861457824707
8	77.42831349372864	fix_pre	0		120	6.0	2.5	/experiments/knapen_AOT/AOT_stimuli/rescaled_final/1855_rv.mp4	0.0	98.31940722465515	1.0084044933319092
8	77.61186075210571	pulse	0	t		6.0	2.5	/experiments/knapen_AOT/AOT_stimuli/rescaled_final/1855_rv.mp4	0.0	98.50295448303223	
8	78.43671798706055	movie	1		274	6.0	2.5	/experiments/knapen_AOT/AOT_stimuli/rescaled_final/1855_rv.mp4	0.0	99.32781171798706	2.4923434257507324
8	79.21094131469727	pulse	1	t		6.0	2.5	/experiments/knapen_AOT/AOT_stimuli/rescaled_final/1855_rv.mp4	0.0	100.10203504562378	
8	80.81031560897827	pulse	1	t		6.0	2.5	/experiments/knapen_AOT/AOT_stimuli/rescaled_final/1855_rv.mp4	0.0	101.70140933990479	
8	80.92906141281128	fix_post	2		12	6.0	2.5	/experiments/knapen_AOT/AOT_stimuli/rescaled_final/1855_rv.mp4	0.0	101.8201551437378	0.09977173805236816
9	81.02883315086365	fix_pre	0		120	7.0	2.5	blank	1.0	101.91992688179016	1.0000689029693604
9	82.02890205383301	movie	1		300	7.0	2.5	blank	1.0	102.91999578475952	2.5004360675811768
9	82.40457344055176	pulse	1	t		7.0	2.5	blank	1.0	103.29566717147827	
9	84.00460171699524	pulse	1	t		7.0	2.5	blank	1.0	104.89569544792175	
9	84.52933812141418	fix_post	2		12	7.0	2.5	blank	1.0	105.4204318523407	0.10000824928283691
10	84.62934637069702	fix_pre	0		118	8.0	2.5	/experiments/knapen_AOT/AOT_stimuli/rescaled_final/1438_fw.mp4	0.0	105.52044010162354	0.9917752742767334
10	85.60469627380371	pulse	0	t		8.0	2.5	/experiments/knapen_AOT/AOT_stimuli/rescaled_final/1438_fw.mp4	0.0	106.49579000473022	
10	85.62112164497375	movie	1		277	8.0	2.5	/experiments/knapen_AOT/AOT_stimuli/rescaled_final/1438_fw.mp4	0.0	106.51221537590027	2.500393867492676
10	87.20500230789185	pulse	1	t		8.0	2.5	/experiments/knapen_AOT/AOT_stimuli/rescaled_final/1438_fw.mp4	0.0	108.09609603881836	
10	88.12151551246643	fix_post	2		12	8.0	2.5	/experiments/knapen_AOT/AOT_stimuli/rescaled_final/1438_fw.mp4	0.0	109.01260924339294	0.10030460357666016
11	88.22182011604309	fix_pre	0		120	9.0	2.5	/experiments/knapen_AOT/AOT_stimuli/rescaled_final/2038_fw.mp4	0.0	109.1129138469696	1.0084846019744873
11	88.80508351325989	pulse	0	t		9.0	2.5	/experiments/knapen_AOT/AOT_stimuli/rescaled_final/2038_fw.mp4	0.0	109.6961772441864	
11	89.23030471801758	movie	1		276	9.0	2.5	/experiments/knapen_AOT/AOT_stimuli/rescaled_final/2038_fw.mp4	0.0	110.12139844894409	2.4917778968811035
11	90.40401577949524	pulse	1	t		9.0	2.5	/experiments/knapen_AOT/AOT_stimuli/rescaled_final/2038_fw.mp4	0.0	111.29510951042175	
11	91.72208261489868	fix_post	2		12	9.0	2.5	/experiments/knapen_AOT/AOT_stimuli/rescaled_final/2038_fw.mp4	0.0	112.6131763458252	0.09998416900634766
12	91.82206678390503	fix_pre	0		120	10.0	2.5	/experiments/knapen_AOT/AOT_stimuli/rescaled_final/1639_fw.mp4	0.0	112.71316051483154	1.008629560470581
12	92.00589990615845	pulse	0	t		10.0	2.5	/experiments/knapen_AOT/AOT_stimuli/rescaled_final/1639_fw.mp4	0.0	112.89699363708496	
12	92.83069634437561	movie	1		266	10.0	2.5	/experiments/knapen_AOT/AOT_stimuli/rescaled_final/1639_fw.mp4	0.0	113.72179007530212	2.4919376373291016
12	93.60630989074707	pulse	1	t		10.0	2.5	/experiments/knapen_AOT/AOT_stimuli/rescaled_final/1639_fw.mp4	0.0	114.49740362167358	
12	95.20466113090515	pulse	1	t		10.0	2.5	/experiments/knapen_AOT/AOT_stimuli/rescaled_final/1639_fw.mp4	0.0	116.09575486183167	
12	95.32263398170471	fix_post	2		12	10.0	2.5	/experiments/knapen_AOT/AOT_stimuli/rescaled_final/1639_fw.mp4	0.0	116.21372771263123	0.09993958473205566
13	95.42257356643677	fix_pre	0		120	11.0	2.5	/experiments/knapen_AOT/AOT_stimuli/rescaled_final/0738_rv.mp4	0.0	116.31366729736328	1.008603811264038
13	96.4311773777008	movie	1		272	11.0	2.5	/experiments/knapen_AOT/AOT_stimuli/rescaled_final/0738_rv.mp4	0.0	117.32227110862732	2.492180824279785
13	96.80463027954102	pulse	1	t		11.0	2.5	/experiments/knapen_AOT/AOT_stimuli/rescaled_final/0738_rv.mp4	0.0	117.69572401046753	
13	98.40464448928833	pulse	1	t		11.0	2.5	/experiments/knapen_AOT/AOT_stimuli/rescaled_final/0738_rv.mp4	0.0	119.29573822021484	
13	98.92335820198059	fix_post	2		12	11.0	2.5	/experiments/knapen_AOT/AOT_stimuli/rescaled_final/0738_rv.mp4	0.0	119.8144519329071	0.09981846809387207
14	99.02317667007446	fix_pre	0		119	12.0	2.5	/experiments/knapen_AOT/AOT_stimuli/rescaled_final/0444_fw.mp4	0.0	119.91427040100098	1.0001280307769775
14	100.00705289840698	pulse	0	t		12.0	2.5	/experiments/knapen_AOT/AOT_stimuli/rescaled_final/0444_fw.mp4	0.0	120.8981466293335	
14	100.02330470085144	movie	1		259	12.0	2.5	/experiments/knapen_AOT/AOT_stimuli/rescaled_final/0444_fw.mp4	0.0	120.91439843177795	2.5004281997680664
14	101.60717749595642	pulse	1	t		12.0	2.5	/experiments/knapen_AOT/AOT_stimuli/rescaled_final/0444_fw.mp4	0.0	122.49827122688293	
14	102.5237329006195	fix_post	2		12	12.0	2.5	/experiments/knapen_AOT/AOT_stimuli/rescaled_final/0444_fw.mp4	0.0	123.41482663154602	0.10010528564453125
15	102.62383818626404	fix_pre	0		120	13.0	2.5	blank	1.0	123.51493191719055	1.000032901763916
15	103.2074134349823	pulse	0	t		13.0	2.5	blank	1.0	124.09850716590881	
15	103.62387108802795	movie	1		300	13.0	2.5	blank	1.0	124.51496481895447	2.500305652618408
15	104.80773282051086	pulse	1	t		13.0	2.5	blank	1.0	125.69882655143738	
15	106.12417674064636	fix_post	2		12	13.0	2.5	blank	1.0	127.01527047157288	0.10004043579101562
16	106.22421717643738	fix_pre	0		120	14.0	2.5	/experiments/knapen_AOT/AOT_stimuli/rescaled_final/2019_rv.mp4	0.0	127.11531090736389	1.0086021423339844
16	106.40786290168762	pulse	0	t		14.0	2.5	/experiments/knapen_AOT/AOT_stimuli/rescaled_final/2019_rv.mp4	0.0	127.29895663261414	
16	107.23281931877136	movie	1		265	14.0	2.5	/experiments/knapen_AOT/AOT_stimuli/rescaled_final/2019_rv.mp4	0.0	128.12391304969788	2.4920475482940674
16	108.00609636306763	pulse	1	t		14.0	2.5	/experiments/knapen_AOT/AOT_stimuli/rescaled_final/2019_rv.mp4	0.0	128.89719009399414	
16	109.60613322257996	pulse	1	t		14.0	2.5	/experiments/knapen_AOT/AOT_stimuli/rescaled_final/2019_rv.mp4	0.0	130.49722695350647	
16	109.72486686706543	fix_post	2		12	14.0	2.5	/experiments/knapen_AOT/AOT_stimuli/rescaled_final/2019_rv.mp4	0.0	130.61596059799194	0.09991598129272461
17	109.82478284835815	fix_pre	0		120	15.0	2.5	/experiments/knapen_AOT/AOT_stimuli/rescaled_final/0699_fw.mp4	0.0	130.71587657928467	1.0084969997406006
17	110.83327984809875	movie	1		254	15.0	2.5	/experiments/knapen_AOT/AOT_stimuli/rescaled_final/0699_fw.mp4	0.0	131.72437357902527	2.4919979572296143
17	111.20746397972107	pulse	1	t		15.0	2.5	/experiments/knapen_AOT/AOT_stimuli/rescaled_final/0699_fw.mp4	0.0	132.09855771064758	
17	112.80680179595947	pulse	1	t		15.0	2.5	/experiments/knapen_AOT/AOT_stimuli/rescaled_final/0699_fw.mp4	0.0	133.697895526886	
17	113.32527780532837	fix_post	2		12	15.0	2.5	/experiments/knapen_AOT/AOT_stimuli/rescaled_final/0699_fw.mp4	0.0	134.21637153625488	0.10001826286315918
18	113.42529606819153	fix_pre	0		119	16.0	2.5	/experiments/knapen_AOT/AOT_stimuli/rescaled_final/1022_fw.mp4	0.0	134.31638979911804	1.0001583099365234
18	114.40897154808044	pulse	0	t		16.0	2.5	/experiments/knapen_AOT/AOT_stimuli/rescaled_final/1022_fw.mp4	0.0	135.30006527900696	
18	114.42545437812805	movie	1		272	16.0	2.5	/experiments/knapen_AOT/AOT_stimuli/rescaled_final/1022_fw.mp4	0.0	135.31654810905457	2.500706434249878
18	116.00800251960754	pulse	1	t		16.0	2.5	/experiments/knapen_AOT/AOT_stimuli/rescaled_final/1022_fw.mp4	0.0	136.89909625053406	
18	116.92616081237793	fix_post	2		12	16.0	2.5	/experiments/knapen_AOT/AOT_stimuli/rescaled_final/1022_fw.mp4	0.0	137.81725454330444	0.09975194931030273
19	117.02591276168823	fix_pre	0		120	17.0	2.5	/experiments/knapen_AOT/AOT_stimuli/rescaled_final/0122_fw.mp4	0.0	137.91700649261475	1.0085511207580566
19	117.60956406593323	pulse	0	t		17.0	2.5	/experiments/knapen_AOT/AOT_stimuli/rescaled_final/0122_fw.mp4	0.0	138.50065779685974	
19	118.03446388244629	movie	1		257	17.0	2.5	/experiments/knapen_AOT/AOT_stimuli/rescaled_final/0122_fw.mp4	0.0	138.9255576133728	2.4922807216644287
19	119.20842695236206	pulse	1	t		17.0	2.5	/experiments/knapen_AOT/AOT_stimuli/rescaled_final/0122_fw.mp4	0.0	140.09952068328857	
19	120.52674460411072	fix_post	2		12	17.0	2.5	/experiments/knapen_AOT/AOT_stimuli/rescaled_final/0122_fw.mp4	0.0	141.41783833503723	0.09962153434753418
20	120.62636613845825	fix_pre	0		120	18.0	2.5	/experiments/knapen_AOT/AOT_stimuli/rescaled_final/2077_fw.mp4	0.0	141.51745986938477	1.0085575580596924
20	120.80999088287354	pulse	0	t		18.0	2.5	/experiments/knapen_AOT/AOT_stimuli/rescaled_final/2077_fw.mp4	0.0	141.70108461380005	
20	121.63492369651794	movie	1		277	18.0	2.5	/experiments/knapen_AOT/AOT_stimuli/rescaled_final/2077_fw.mp4	0.0	142.52601742744446	2.4920496940612793
20	122.40822720527649	pulse	1	t		18.0	2.5	/experiments/knapen_AOT/AOT_stimuli/rescaled_final/2077_fw.mp4	0.0	143.299320936203	
20	124.00856065750122	pulse	1	t		18.0	2.5	/experiments/knapen_AOT/AOT_stimuli/rescaled_final/2077_fw.mp4	0.0	144.89965438842773	
20	124.12697339057922	fix_post	2		12	18.0	2.5	/experiments/knapen_AOT/AOT_stimuli/rescaled_final/2077_fw.mp4	0.0	145.01806712150574	0.09993767738342285
21	124.22691106796265	fix_pre	0		120	19.0	2.5	blank	1.0	145.11800479888916	1.0001497268676758
21	125.22706079483032	movie	1		300	19.0	2.5	blank	1.0	146.11815452575684	2.5004665851593018
21	125.61064672470093	pulse	1	t		19.0	2.5	blank	1.0	146.50174045562744	
21	127.21101999282837	pulse	1	t		19.0	2.5	blank	1.0	148.10211372375488	
21	127.72752737998962	fix_post	2		12	19.0	2.5	blank	1.0	148.61862111091614	0.1001276969909668
22	127.82765507698059	fix_pre	0		119	20.0	2.5	/experiments/knapen_AOT/AOT_stimuli/rescaled_final/1665_fw.mp4	0.0	148.7187488079071	0.9999971389770508
22	128.81128644943237	pulse	0	t		20.0	2.5	/experiments/knapen_AOT/AOT_stimuli/rescaled_final/1665_fw.mp4	0.0	149.7023801803589	
22	128.82765221595764	movie	1		277	20.0	2.5	/experiments/knapen_AOT/AOT_stimuli/rescaled_final/1665_fw.mp4	0.0	149.71874594688416	2.500575542449951
22	130.41013383865356	pulse	1	t		20.0	2.5	/experiments/knapen_AOT/AOT_stimuli/rescaled_final/1665_fw.mp4	0.0	151.30122756958008	
22	131.3282277584076	fix_post	2		12	20.0	2.5	/experiments/knapen_AOT/AOT_stimuli/rescaled_final/1665_fw.mp4	0.0	152.2193214893341	0.09981608390808105
23	131.42804384231567	fix_pre	0		120	21.0	2.5	/experiments/knapen_AOT/AOT_stimuli/rescaled_final/1961_fw.mp4	0.0	152.3191375732422	1.008469820022583
23	132.00379371643066	pulse	0	t		21.0	2.5	/experiments/knapen_AOT/AOT_stimuli/rescaled_final/1961_fw.mp4	0.0	152.89488744735718	
23	132.43651366233826	movie	1		280	21.0	2.5	/experiments/knapen_AOT/AOT_stimuli/rescaled_final/1961_fw.mp4	0.0	153.32760739326477	2.492051601409912
23	133.60365295410156	pulse	1	t		21.0	2.5	/experiments/knapen_AOT/AOT_stimuli/rescaled_final/1961_fw.mp4	0.0	154.49474668502808	
23	134.92856526374817	fix_post	2		12	21.0	2.5	/experiments/knapen_AOT/AOT_stimuli/rescaled_final/1961_fw.mp4	0.0	155.81965899467468	0.09997344017028809
24	135.02853870391846	fix_pre	0		120	22.0	2.5	/experiments/knapen_AOT/AOT_stimuli/rescaled_final/0029_fw.mp4	0.0	155.91963243484497	1.0085465908050537
24	135.2039773464203	pulse	0	t		22.0	2.5	/experiments/knapen_AOT/AOT_stimuli/rescaled_final/0029_fw.mp4	0.0	156.0950710773468	
24	136.0370852947235	movie	1		284	22.0	2.5	/experiments/knapen_AOT/AOT_stimuli/rescaled_final/0029_fw.mp4	0.0	156.92817902565002	2.491971969604492
24	136.80412673950195	pulse	1	t		22.0	2.5	/experiments/knapen_AOT/AOT_stimuli/rescaled_final/0029_fw.mp4	0.0	157.69522047042847	
24	138.40430808067322	pulse	1	t		22.0	2.5	/experiments/knapen_AOT/AOT_stimuli/rescaled_final/0029_fw.mp4	0.0	159.29540181159973	
24	138.529057264328	fix_post	2		12	22.0	2.5	/experiments/knapen_AOT/AOT_stimuli/rescaled_final/0029_fw.mp4	0.0	159.42015099525452	0.1000361442565918
25	138.6290934085846	fix_pre	0		120	23.0	2.5	/experiments/knapen_AOT/AOT_stimuli/rescaled_final/1940_rv.mp4	0.0	159.5201871395111	1.0087509155273438
25	139.63784432411194	movie	1		279	23.0	2.5	/experiments/knapen_AOT/AOT_stimuli/rescaled_final/1940_rv.mp4	0.0	160.52893805503845	2.492201566696167
25	140.00475788116455	pulse	1	t		23.0	2.5	/experiments/knapen_AOT/AOT_stimuli/rescaled_final/1940_rv.mp4	0.0	160.89585161209106	
25	141.60473132133484	pulse	1	t		23.0	2.5	/experiments/knapen_AOT/AOT_stimuli/rescaled_final/1940_rv.mp4	0.0	162.49582505226135	
25	142.1300458908081	fix_post	2		12	23.0	2.5	/experiments/knapen_AOT/AOT_stimuli/rescaled_final/1940_rv.mp4	0.0	163.02113962173462	0.09958291053771973
26	142.22962880134583	fix_pre	0		118	24.0	2.5	/experiments/knapen_AOT/AOT_stimuli/rescaled_final/0944_fw.mp4	0.0	163.12072253227234	0.9919073581695557
26	143.20500254631042	pulse	0	t		24.0	2.5	/experiments/knapen_AOT/AOT_stimuli/rescaled_final/0944_fw.mp4	0.0	164.09609627723694	
26	143.22153615951538	movie	1		289	24.0	2.5	/experiments/knapen_AOT/AOT_stimuli/rescaled_final/0944_fw.mp4	0.0	164.1126298904419	2.5003747940063477
26	144.8059561252594	pulse	1	t		24.0	2.5	/experiments/knapen_AOT/AOT_stimuli/rescaled_final/0944_fw.mp4	0.0	165.6970498561859	
26	145.72191095352173	fix_post	2		12	24.0	2.5	/experiments/knapen_AOT/AOT_stimuli/rescaled_final/0944_fw.mp4	0.0	166.61300468444824	0.10005068778991699
27	145.82196164131165	fix_pre	0		120	25.0	2.5	/experiments/knapen_AOT/AOT_stimuli/rescaled_final/1414_rv.mp4	0.0	166.71305537223816	1.0084216594696045
27	146.4054594039917	pulse	0	t		25.0	2.5	/experiments/knapen_AOT/AOT_stimuli/rescaled_final/1414_rv.mp4	0.0	167.2965531349182	
27	146.83038330078125	movie	1		278	25.0	2.5	/experiments/knapen_AOT/AOT_stimuli/rescaled_final/1414_rv.mp4	0.0	167.72147703170776	2.4920332431793213
27	148.00413703918457	pulse	1	t		25.0	2.5	/experiments/knapen_AOT/AOT_stimuli/rescaled_final/1414_rv.mp4	0.0	168.89523077011108	
27	149.32241654396057	fix_post	2		12	25.0	2.5	/experiments/knapen_AOT/AOT_stimuli/rescaled_final/1414_rv.mp4	0.0	170.21351027488708	0.09998154640197754
28	149.42239809036255	fix_pre	0		120	26.0	2.5	blank	1.0	170.31349182128906	1.0001029968261719
28	149.60592818260193	pulse	0	t		26.0	2.5	blank	1.0	170.49702191352844	
28	150.42250108718872	movie	1		300	26.0	2.5	blank	1.0	171.31359481811523	2.5003929138183594
28	151.2061789035797	pulse	1	t		26.0	2.5	blank	1.0	172.09727263450623	
28	152.80642747879028	pulse	1	t		26.0	2.5	blank	1.0	173.6975212097168	
28	152.92289400100708	fix_post	2		12	26.0	2.5	blank	1.0	173.8139877319336	0.10001778602600098
29	153.02291178703308	fix_pre	0		120	27.0	2.5	/experiments/knapen_AOT/AOT_stimuli/rescaled_final/1347_fw.mp4	0.0	173.9140055179596	1.008678913116455
29	154.03159070014954	movie	1		270	27.0	2.5	/experiments/knapen_AOT/AOT_stimuli/rescaled_final/1347_fw.mp4	0.0	174.92268443107605	2.4918253421783447
29	154.40495347976685	pulse	1	t		27.0	2.5	/experiments/knapen_AOT/AOT_stimuli/rescaled_final/1347_fw.mp4	0.0	175.29604721069336	
29	156.00662302970886	pulse	1	t		27.0	2.5	/experiments/knapen_AOT/AOT_stimuli/rescaled_final/1347_fw.mp4	0.0	176.89771676063538	
29	156.52341604232788	fix_post	2		12	27.0	2.5	/experiments/knapen_AOT/AOT_stimuli/rescaled_final/1347_fw.mp4	0.0	177.4145097732544	0.10017228126525879
30	156.62358832359314	fix_pre	0		119	28.0	2.5	/experiments/knapen_AOT/AOT_stimuli/rescaled_final/0185_rv.mp4	0.0	177.51468205451965	1.000040054321289
30	157.60712909698486	pulse	0	t		28.0	2.5	/experiments/knapen_AOT/AOT_stimuli/rescaled_final/0185_rv.mp4	0.0	178.49822282791138	
30	157.62362837791443	movie	1		280	28.0	2.5	/experiments/knapen_AOT/AOT_stimuli/rescaled_final/0185_rv.mp4	0.0	178.51472210884094	2.500347852706909
30	159.20594549179077	pulse	1	t		28.0	2.5	/experiments/knapen_AOT/AOT_stimuli/rescaled_final/0185_rv.mp4	0.0	180.09703922271729	
30	160.12397623062134	fix_post	2		12	28.0	2.5	/experiments/knapen_AOT/AOT_stimuli/rescaled_final/0185_rv.mp4	0.0	181.01506996154785	0.10002255439758301
31	160.22399878501892	fix_pre	0		120	29.0	2.5	/experiments/knapen_AOT/AOT_stimuli/rescaled_final/2103_fw.mp4	0.0	181.11509251594543	1.008648157119751
31	160.80811047554016	pulse	0	t		29.0	2.5	/experiments/knapen_AOT/AOT_stimuli/rescaled_final/2103_fw.mp4	0.0	181.69920420646667	
31	161.23264694213867	movie	1		261	29.0	2.5	/experiments/knapen_AOT/AOT_stimuli/rescaled_final/2103_fw.mp4	0.0	182.12374067306519	2.4920217990875244
31	162.40827703475952	pulse	1	t		29.0	2.5	/experiments/knapen_AOT/AOT_stimuli/rescaled_final/2103_fw.mp4	0.0	183.29937076568604	
31	163.7246687412262	fix_post	2		12	29.0	2.5	/experiments/knapen_AOT/AOT_stimuli/rescaled_final/2103_fw.mp4	0.0	184.6157624721527	0.09986352920532227
32	163.82453227043152	fix_pre	0		120	30.0	2.5	/experiments/knapen_AOT/AOT_stimuli/rescaled_final/1082_fw.mp4	0.0	184.71562600135803	1.0087170600891113
32	164.0080850124359	pulse	0	t		30.0	2.5	/experiments/knapen_AOT/AOT_stimuli/rescaled_final/1082_fw.mp4	0.0	184.89917874336243	
32	164.83324933052063	movie	1		274	30.0	2.5	/experiments/knapen_AOT/AOT_stimuli/rescaled_final/1082_fw.mp4	0.0	185.72434306144714	2.491833209991455
32	165.6064944267273	pulse	1	t		30.0	2.5	/experiments/knapen_AOT/AOT_stimuli/rescaled_final/1082_fw.mp4	0.0	186.4975881576538	
32	167.20677781105042	pulse	1	t		30.0	2.5	/experiments/knapen_AOT/AOT_stimuli/rescaled_final/1082_fw.mp4	0.0	188.09787154197693	
32	167.32508254051208	fix_post	2		12	30.0	2.5	/experiments/knapen_AOT/AOT_stimuli/rescaled_final/1082_fw.mp4	0.0	188.2161762714386	0.0999913215637207
33	167.4250738620758	fix_pre	0		120	31.0	2.5	/experiments/knapen_AOT/AOT_stimuli/rescaled_final/0908_rv.mp4	0.0	188.31616759300232	1.0085115432739258
33	168.43358540534973	movie	1		273	31.0	2.5	/experiments/knapen_AOT/AOT_stimuli/rescaled_final/0908_rv.mp4	0.0	189.32467913627625	2.4922878742218018
33	168.80754590034485	pulse	1	t		31.0	2.5	/experiments/knapen_AOT/AOT_stimuli/rescaled_final/0908_rv.mp4	0.0	189.69863963127136	
33	170.40677070617676	pulse	1	t		31.0	2.5	/experiments/knapen_AOT/AOT_stimuli/rescaled_final/0908_rv.mp4	0.0	191.29786443710327	
33	170.92587327957153	fix_post	2		12	31.0	2.5	/experiments/knapen_AOT/AOT_stimuli/rescaled_final/0908_rv.mp4	0.0	191.81696701049805	0.09974265098571777
34	171.02561593055725	fix_pre	0		119	32.0	2.5	/experiments/knapen_AOT/AOT_stimuli/rescaled_final/2137_rv.mp4	0.0	191.91670966148376	1.0086426734924316
34	172.00929975509644	pulse	0	t		32.0	2.5	/experiments/knapen_AOT/AOT_stimuli/rescaled_final/2137_rv.mp4	0.0	192.90039348602295	
34	172.03425860404968	movie	1		280	32.0	2.5	/experiments/knapen_AOT/AOT_stimuli/rescaled_final/2137_rv.mp4	0.0	192.9253523349762	2.4921696186065674
34	173.60791873931885	pulse	1	t		32.0	2.5	/experiments/knapen_AOT/AOT_stimuli/rescaled_final/2137_rv.mp4	0.0	194.49901247024536	
34	174.52642822265625	fix_post	2		12	32.0	2.5	/experiments/knapen_AOT/AOT_stimuli/rescaled_final/2137_rv.mp4	0.0	195.41752195358276	0.09987187385559082
35	174.62630009651184	fix_pre	0		120	33.0	2.5	/experiments/knapen_AOT/AOT_stimuli/rescaled_final/1522_rv.mp4	0.0	195.51739382743835	1.0083577632904053
35	175.20976972579956	pulse	0	t		33.0	2.5	/experiments/knapen_AOT/AOT_stimuli/rescaled_final/1522_rv.mp4	0.0	196.10086345672607	
35	175.63465785980225	movie	1		269	33.0	2.5	/experiments/knapen_AOT/AOT_stimuli/rescaled_final/1522_rv.mp4	0.0	196.52575159072876	2.4921348094940186
35	176.80827641487122	pulse	1	t		33.0	2.5	/experiments/knapen_AOT/AOT_stimuli/rescaled_final/1522_rv.mp4	0.0	197.69937014579773	
35	178.12679266929626	fix_post	2		12	33.0	2.5	/experiments/knapen_AOT/AOT_stimuli/rescaled_final/1522_rv.mp4	0.0	199.01788640022278	0.09990453720092773
36	178.2266972064972	fix_pre	0		120	34.0	2.5	blank	1.0	199.1177909374237	1.0001394748687744
36	178.41027879714966	pulse	0	t		34.0	2.5	blank	1.0	199.30137252807617	
36	179.22683668136597	movie	1		300	34.0	2.5	blank	1.0	200.11793041229248	2.5004029273986816
36	180.01050472259521	pulse	1	t		34.0	2.5	blank	1.0	200.90159845352173	
36	181.61078763008118	pulse	1	t		34.0	2.5	blank	1.0	202.5018813610077	
36	181.72723960876465	fix_post	2		12	34.0	2.5	blank	1.0	202.61833333969116	0.10000395774841309
37	181.82724356651306	fix_pre	0		120	35.0	2.5	/experiments/knapen_AOT/AOT_stimuli/rescaled_final/0066_rv.mp4	0.0	202.71833729743958	1.0085182189941406
37	182.8357617855072	movie	1		261	35.0	2.5	/experiments/knapen_AOT/AOT_stimuli/rescaled_final/0066_rv.mp4	0.0	203.72685551643372	2.4923698902130127
37	183.20966625213623	pulse	1	t		35.0	2.5	/experiments/knapen_AOT/AOT_stimuli/rescaled_final/0066_rv.mp4	0.0	204.10075998306274	
37	184.80933928489685	pulse	1	t		35.0	2.5	/experiments/knapen_AOT/AOT_stimuli/rescaled_final/0066_rv.mp4	0.0	205.70043301582336	
37	185.32813167572021	fix_post	2		12	35.0	2.5	/experiments/knapen_AOT/AOT_stimuli/rescaled_final/0066_rv.mp4	0.0	206.21922540664673	0.0996544361114502
38	185.42778611183167	fix_pre	0		119	36.0	2.5	/experiments/knapen_AOT/AOT_stimuli/rescaled_final/1356_rv.mp4	0.0	206.31887984275818	1.0004429817199707
38	186.411474943161	pulse	0	t		36.0	2.5	/experiments/knapen_AOT/AOT_stimuli/rescaled_final/1356_rv.mp4	0.0	207.30256867408752	
38	186.42822909355164	movie	1		283	36.0	2.5	/experiments/knapen_AOT/AOT_stimuli/rescaled_final/1356_rv.mp4	0.0	207.31932282447815	2.500241279602051
38	188.01039266586304	pulse	1	t		36.0	2.5	/experiments/knapen_AOT/AOT_stimuli/rescaled_final/1356_rv.mp4	0.0	208.90148639678955	
38	188.9284703731537	fix_post	2		12	36.0	2.5	/experiments/knapen_AOT/AOT_stimuli/rescaled_final/1356_rv.mp4	0.0	209.8195641040802	0.09984779357910156
39	189.0283181667328	fix_pre	0		120	37.0	2.5	/experiments/knapen_AOT/AOT_stimuli/rescaled_final/0900_fw.mp4	0.0	209.9194118976593	1.0086259841918945
39	189.61197328567505	pulse	0	t		37.0	2.5	/experiments/knapen_AOT/AOT_stimuli/rescaled_final/0900_fw.mp4	0.0	210.50306701660156	
39	190.03694415092468	movie	1		283	37.0	2.5	/experiments/knapen_AOT/AOT_stimuli/rescaled_final/0900_fw.mp4	0.0	210.9280378818512	2.491896390914917
39	191.20468854904175	pulse	1	t		37.0	2.5	/experiments/knapen_AOT/AOT_stimuli/rescaled_final/0900_fw.mp4	0.0	212.09578227996826	
39	192.5288405418396	fix_post	2		12	37.0	2.5	/experiments/knapen_AOT/AOT_stimuli/rescaled_final/0900_fw.mp4	0.0	213.4199342727661	0.10007858276367188
40	192.62891912460327	fix_pre	0		120	38.0	2.5	/experiments/knapen_AOT/AOT_stimuli/rescaled_final/2036_rv.mp4	0.0	213.52001285552979	1.0084490776062012
40	192.8042857646942	pulse	0	t		38.0	2.5	/experiments/knapen_AOT/AOT_stimuli/rescaled_final/2036_rv.mp4	0.0	213.69537949562073	
40	193.63736820220947	movie	1		263	38.0	2.5	/experiments/knapen_AOT/AOT_stimuli/rescaled_final/2036_rv.mp4	0.0	214.528461933136	2.4921634197235107
40	194.40437054634094	pulse	1	t		38.0	2.5	/experiments/knapen_AOT/AOT_stimuli/rescaled_final/2036_rv.mp4	0.0	215.29546427726746	
40	196.01338624954224	pulse	1	t		38.0	2.5	/experiments/knapen_AOT/AOT_stimuli/rescaled_final/2036_rv.mp4	0.0	216.90447998046875	
40	196.12953162193298	fix_post	2		12	38.0	2.5	/experiments/knapen_AOT/AOT_stimuli/rescaled_final/2036_rv.mp4	0.0	217.0206253528595	0.09987258911132812
41	196.2294042110443	fix_pre	0		120	39.0	2.5	/experiments/knapen_AOT/AOT_stimuli/rescaled_final/0374_fw.mp4	0.0	217.12049794197083	1.0084960460662842
41	197.2379002571106	movie	1		260	39.0	2.5	/experiments/knapen_AOT/AOT_stimuli/rescaled_final/0374_fw.mp4	0.0	218.1289939880371	2.492223024368286
41	197.6053831577301	pulse	1	t		39.0	2.5	/experiments/knapen_AOT/AOT_stimuli/rescaled_final/0374_fw.mp4	0.0	218.49647688865662	
41	199.20506596565247	pulse	1	t		39.0	2.5	/experiments/knapen_AOT/AOT_stimuli/rescaled_final/0374_fw.mp4	0.0	220.09615969657898	
41	199.73012328147888	fix_post	2		12	39.0	2.5	/experiments/knapen_AOT/AOT_stimuli/rescaled_final/0374_fw.mp4	0.0	220.6212170124054	0.09978127479553223
42	199.8299045562744	fix_pre	0		118	40.0	2.5	/experiments/knapen_AOT/AOT_stimuli/rescaled_final/1156_fw.mp4	0.0	220.72099828720093	0.9918560981750488
42	200.80529284477234	pulse	0	t		40.0	2.5	/experiments/knapen_AOT/AOT_stimuli/rescaled_final/1156_fw.mp4	0.0	221.69638657569885	
42	200.82176065444946	movie	1		288	40.0	2.5	/experiments/knapen_AOT/AOT_stimuli/rescaled_final/1156_fw.mp4	0.0	221.71285438537598	2.5003910064697266
42	202.40415930747986	pulse	1	t		40.0	2.5	/experiments/knapen_AOT/AOT_stimuli/rescaled_final/1156_fw.mp4	0.0	223.29525303840637	
42	203.3221516609192	fix_post	2		12	40.0	2.5	/experiments/knapen_AOT/AOT_stimuli/rescaled_final/1156_fw.mp4	0.0	224.2132453918457	0.10001850128173828
43	203.42217016220093	fix_pre	0		120	41.0	2.5	blank	1.0	224.31326389312744	1.0001156330108643
43	204.00578927993774	pulse	0	t		41.0	2.5	blank	1.0	224.89688301086426	
43	204.4222857952118	movie	1		300	41.0	2.5	blank	1.0	225.3133795261383	2.5003795623779297
43	205.60605597496033	pulse	1	t		41.0	2.5	blank	1.0	226.49714970588684	
43	206.92266535758972	fix_post	2		12	41.0	2.5	blank	1.0	227.81375908851624	0.10024547576904297
44	207.02291083335876	fix_pre	0		120	42.0	2.5	/experiments/knapen_AOT/AOT_stimuli/rescaled_final/1156_rv.mp4	0.0	227.91400456428528	1.0082826614379883
44	207.20629620552063	pulse	0	t		42.0	2.5	/experiments/knapen_AOT/AOT_stimuli/rescaled_final/1156_rv.mp4	0.0	228.09738993644714	
44	208.03119349479675	movie	1		283	42.0	2.5	/experiments/knapen_AOT/AOT_stimuli/rescaled_final/1156_rv.mp4	0.0	228.92228722572327	2.4921135902404785
44	208.80483436584473	pulse	1	t		42.0	2.5	/experiments/knapen_AOT/AOT_stimuli/rescaled_final/1156_rv.mp4	0.0	229.69592809677124	
44	210.40461325645447	pulse	1	t		42.0	2.5	/experiments/knapen_AOT/AOT_stimuli/rescaled_final/1156_rv.mp4	0.0	231.29570698738098	
44	210.52330708503723	fix_post	2		12	42.0	2.5	/experiments/knapen_AOT/AOT_stimuli/rescaled_final/1156_rv.mp4	0.0	231.41440081596375	0.09991717338562012
45	210.62322425842285	fix_pre	0		120	43.0	2.5	/experiments/knapen_AOT/AOT_stimuli/rescaled_final/1283_fw.mp4	0.0	231.51431798934937	1.0085816383361816
45	211.63180589675903	movie	1		277	43.0	2.5	/experiments/knapen_AOT/AOT_stimuli/rescaled_final/1283_fw.mp4	0.0	232.52289962768555	2.4921703338623047
45	212.00692558288574	pulse	1	t		43.0	2.5	/experiments/knapen_AOT/AOT_stimuli/rescaled_final/1283_fw.mp4	0.0	232.89801931381226	
45	213.60566759109497	pulse	1	t		43.0	2.5	/experiments/knapen_AOT/AOT_stimuli/rescaled_final/1283_fw.mp4	0.0	234.49676132202148	
45	214.12397623062134	fix_post	2		12	43.0	2.5	/experiments/knapen_AOT/AOT_stimuli/rescaled_final/1283_fw.mp4	0.0	235.01506996154785	0.09981989860534668
46	214.22379612922668	fix_pre	0		119	44.0	2.5	/experiments/knapen_AOT/AOT_stimuli/rescaled_final/1794_fw.mp4	0.0	235.1148898601532	1.000239610671997
46	215.20759081840515	pulse	0	t		44.0	2.5	/experiments/knapen_AOT/AOT_stimuli/rescaled_final/1794_fw.mp4	0.0	236.09868454933167	
46	215.22403573989868	movie	1		282	44.0	2.5	/experiments/knapen_AOT/AOT_stimuli/rescaled_final/1794_fw.mp4	0.0	236.1151294708252	2.5002517700195312
46	216.8062403202057	pulse	1	t		44.0	2.5	/experiments/knapen_AOT/AOT_stimuli/rescaled_final/1794_fw.mp4	0.0	237.6973340511322	
46	217.7242875099182	fix_post	2		12	44.0	2.5	/experiments/knapen_AOT/AOT_stimuli/rescaled_final/1794_fw.mp4	0.0	238.61538124084473	0.10015702247619629
47	217.8244445323944	fix_pre	0		120	45.0	2.5	/experiments/knapen_AOT/AOT_stimuli/rescaled_final/1665_rv.mp4	0.0	238.71553826332092	1.008436679840088
47	218.40802645683289	pulse	0	t		45.0	2.5	/experiments/knapen_AOT/AOT_stimuli/rescaled_final/1665_rv.mp4	0.0	239.2991201877594	
47	218.8328812122345	movie	1		242	45.0	2.5	/experiments/knapen_AOT/AOT_stimuli/rescaled_final/1665_rv.mp4	0.0	239.723974943161	2.492000102996826
47	220.00620102882385	pulse	1	t		45.0	2.5	/experiments/knapen_AOT/AOT_stimuli/rescaled_final/1665_rv.mp4	0.0	240.89729475975037	
47	221.32488131523132	fix_post	2		12	45.0	2.5	/experiments/knapen_AOT/AOT_stimuli/rescaled_final/1665_rv.mp4	0.0	242.21597504615784	0.10003328323364258
48	221.42491459846497	fix_pre	0		120	46.0	2.5	/experiments/knapen_AOT/AOT_stimuli/rescaled_final/2139_rv.mp4	0.0	242.31600832939148	1.008561372756958
48	221.6084487438202	pulse	0	t		46.0	2.5	/experiments/knapen_AOT/AOT_stimuli/rescaled_final/2139_rv.mp4	0.0	242.4995424747467	
48	222.43347597122192	movie	1		281	46.0	2.5	/experiments/knapen_AOT/AOT_stimuli/rescaled_final/2139_rv.mp4	0.0	243.32456970214844	2.491999864578247
48	223.206440448761	pulse	1	t		46.0	2.5	/experiments/knapen_AOT/AOT_stimuli/rescaled_final/2139_rv.mp4	0.0	244.0975341796875	
48	224.80669903755188	pulse	1	t		46.0	2.5	/experiments/knapen_AOT/AOT_stimuli/rescaled_final/2139_rv.mp4	0.0	245.6977927684784	
48	224.92547583580017	fix_post	2		12	46.0	2.5	/experiments/knapen_AOT/AOT_stimuli/rescaled_final/2139_rv.mp4	0.0	245.81656956672668	0.09996914863586426
49	225.02544498443604	fix_pre	0		120	47.0	2.5	/experiments/knapen_AOT/AOT_stimuli/rescaled_final/1173_rv.mp4	0.0	245.91653871536255	1.0085217952728271
49	226.03396677970886	movie	1		285	47.0	2.5	/experiments/knapen_AOT/AOT_stimuli/rescaled_final/1173_rv.mp4	0.0	246.92506051063538	2.491945743560791
49	226.4078176021576	pulse	1	t		47.0	2.5	/experiments/knapen_AOT/AOT_stimuli/rescaled_final/1173_rv.mp4	0.0	247.2989113330841	
49	228.00717854499817	pulse	1	t		47.0	2.5	/experiments/knapen_AOT/AOT_stimuli/rescaled_final/1173_rv.mp4	0.0	248.89827227592468	
49	228.52591252326965	fix_post	2		12	47.0	2.5	/experiments/knapen_AOT/AOT_stimuli/rescaled_final/1173_rv.mp4	0.0	249.41700625419617	0.10001873970031738
50	228.62593126296997	fix_pre	0		119	48.0	2.5	/experiments/knapen_AOT/AOT_stimuli/rescaled_final/1873_rv.mp4	0.0	249.51702499389648	1.0001740455627441
50	229.61032342910767	pulse	0	t		48.0	2.5	/experiments/knapen_AOT/AOT_stimuli/rescaled_final/1873_rv.mp4	0.0	250.50141716003418	
50	229.62610530853271	movie	1		283	48.0	2.5	/experiments/knapen_AOT/AOT_stimuli/rescaled_final/1873_rv.mp4	0.0	250.51719903945923	2.5006279945373535
50	231.208092212677	pulse	1	t		48.0	2.5	/experiments/knapen_AOT/AOT_stimuli/rescaled_final/1873_rv.mp4	0.0	252.09918594360352	
50	232.12673330307007	fix_post	2		12	48.0	2.5	/experiments/knapen_AOT/AOT_stimuli/rescaled_final/1873_rv.mp4	0.0	253.01782703399658	0.09974932670593262
51	232.226482629776	fix_pre	0		120	49.0	2.5	blank	1.0	253.11757636070251	1.000166893005371
51	232.81021189689636	pulse	0	t		49.0	2.5	blank	1.0	253.70130562782288	
51	233.22664952278137	movie	1		300	49.0	2.5	blank	1.0	254.11774325370789	2.500347137451172
51	234.4104025363922	pulse	1	t		49.0	2.5	blank	1.0	255.30149626731873	
51	235.72699666023254	fix_post	2		12	49.0	2.5	blank	1.0	256.61809039115906	0.10003876686096191
52	235.8270354270935	fix_pre	0		120	50.0	2.5	/experiments/knapen_AOT/AOT_stimuli/rescaled_final/0835_fw.mp4	0.0	256.71812915802	1.008484125137329
52	236.01059365272522	pulse	0	t		50.0	2.5	/experiments/knapen_AOT/AOT_stimuli/rescaled_final/0835_fw.mp4	0.0	256.90168738365173	
52	236.83551955223083	movie	1		282	50.0	2.5	/experiments/knapen_AOT/AOT_stimuli/rescaled_final/0835_fw.mp4	0.0	257.72661328315735	2.492244243621826
52	237.6090440750122	pulse	1	t		50.0	2.5	/experiments/knapen_AOT/AOT_stimuli/rescaled_final/0835_fw.mp4	0.0	258.5001378059387	
52	239.20903301239014	pulse	1	t		50.0	2.5	/experiments/knapen_AOT/AOT_stimuli/rescaled_final/0835_fw.mp4	0.0	260.10012674331665	
52	239.32776379585266	fix_post	2		12	50.0	2.5	/experiments/knapen_AOT/AOT_stimuli/rescaled_final/0835_fw.mp4	0.0	260.2188575267792	0.09983515739440918
53	239.42759895324707	fix_pre	0		120	51.0	2.5	/experiments/knapen_AOT/AOT_stimuli/rescaled_final/1794_fw.mp4	0.0	260.3186926841736	1.0086405277252197
53	240.4362394809723	movie	1		285	51.0	2.5	/experiments/knapen_AOT/AOT_stimuli/rescaled_final/1794_fw.mp4	0.0	261.3273332118988	2.4920456409454346
53	240.8095932006836	pulse	1	t		51.0	2.5	/experiments/knapen_AOT/AOT_stimuli/rescaled_final/1794_fw.mp4	0.0	261.7006869316101	
53	242.4092013835907	pulse	1	t		51.0	2.5	/experiments/knapen_AOT/AOT_stimuli/rescaled_final/1794_fw.mp4	0.0	263.3002951145172	
53	242.92828512191772	fix_post	2		12	51.0	2.5	/experiments/knapen_AOT/AOT_stimuli/rescaled_final/1794_fw.mp4	0.0	263.81937885284424	0.09983396530151367
54	243.02811908721924	fix_pre	0		119	52.0	2.5	/experiments/knapen_AOT/AOT_stimuli/rescaled_final/0296_fw.mp4	0.0	263.91921281814575	1.0002260208129883
54	244.01186275482178	pulse	0	t		52.0	2.5	/experiments/knapen_AOT/AOT_stimuli/rescaled_final/0296_fw.mp4	0.0	264.9029564857483	
54	244.02834510803223	movie	1		285	52.0	2.5	/experiments/knapen_AOT/AOT_stimuli/rescaled_final/0296_fw.mp4	0.0	264.91943883895874	2.5002665519714355
54	245.6108260154724	pulse	1	t		52.0	2.5	/experiments/knapen_AOT/AOT_stimuli/rescaled_final/0296_fw.mp4	0.0	266.5019197463989	
54	246.52861166000366	fix_post	2		12	52.0	2.5	/experiments/knapen_AOT/AOT_stimuli/rescaled_final/0296_fw.mp4	0.0	267.4197053909302	0.10004353523254395
55	246.6286551952362	fix_pre	0		120	53.0	2.5	/experiments/knapen_AOT/AOT_stimuli/rescaled_final/2072_rv.mp4	0.0	267.5197489261627	1.0087170600891113
55	247.21229147911072	pulse	0	t		53.0	2.5	/experiments/knapen_AOT/AOT_stimuli/rescaled_final/2072_rv.mp4	0.0	268.10338521003723	
55	247.63737225532532	movie	1		289	53.0	2.5	/experiments/knapen_AOT/AOT_stimuli/rescaled_final/2072_rv.mp4	0.0	268.52846598625183	2.4917826652526855
55	248.8045516014099	pulse	1	t		53.0	2.5	/experiments/knapen_AOT/AOT_stimuli/rescaled_final/2072_rv.mp4	0.0	269.6956453323364	
55	250.129154920578	fix_post	2		12	53.0	2.5	/experiments/knapen_AOT/AOT_stimuli/rescaled_final/2072_rv.mp4	0.0	271.0202486515045	0.10010886192321777
56	250.22926378250122	fix_pre	0		120	54.0	2.5	/experiments/knapen_AOT/AOT_stimuli/rescaled_final/1741_rv.mp4	0.0	271.12035751342773	1.0083885192871094
56	250.40454006195068	pulse	0	t		54.0	2.5	/experiments/knapen_AOT/AOT_stimuli/rescaled_final/1741_rv.mp4	0.0	271.2956337928772	
56	251.23765230178833	movie	1		277	54.0	2.5	/experiments/knapen_AOT/AOT_stimuli/rescaled_final/1741_rv.mp4	0.0	272.12874603271484	2.492199659347534
56	252.00471901893616	pulse	1	t		54.0	2.5	/experiments/knapen_AOT/AOT_stimuli/rescaled_final/1741_rv.mp4	0.0	272.89581274986267	
56	253.60498714447021	pulse	1	t		54.0	2.5	/experiments/knapen_AOT/AOT_stimuli/rescaled_final/1741_rv.mp4	0.0	274.49608087539673	
56	253.72985196113586	fix_post	2		12	54.0	2.5	/experiments/knapen_AOT/AOT_stimuli/rescaled_final/1741_rv.mp4	0.0	274.6209456920624	0.10009574890136719
57	253.82994771003723	fix_pre	0		120	55.0	2.5	/experiments/knapen_AOT/AOT_stimuli/rescaled_final/1611_rv.mp4	0.0	274.72104144096375	1.0082778930664062
57	254.83822560310364	movie	1		270	55.0	2.5	/experiments/knapen_AOT/AOT_stimuli/rescaled_final/1611_rv.mp4	0.0	275.72931933403015	2.4920337200164795
57	255.20542287826538	pulse	1	t		55.0	2.5	/experiments/knapen_AOT/AOT_stimuli/rescaled_final/1611_rv.mp4	0.0	276.0965166091919	
57	256.80548667907715	pulse	1	t		55.0	2.5	/experiments/knapen_AOT/AOT_stimuli/rescaled_final/1611_rv.mp4	0.0	277.69658041000366	
57	257.3302593231201	fix_post	2		12	55.0	2.5	/experiments/knapen_AOT/AOT_stimuli/rescaled_final/1611_rv.mp4	0.0	278.22135305404663	0.10000419616699219
58	257.4302635192871	fix_pre	0		118	56.0	2.5	blank	1.0	278.3213572502136	0.9835002422332764
58	258.4056363105774	pulse	0	t		56.0	2.5	blank	1.0	279.2967300415039	
58	258.4137637615204	movie	1		301	56.0	2.5	blank	1.0	279.3048574924469	2.508679151535034
58	260.0059292316437	pulse	1	t		56.0	2.5	blank	1.0	280.8970229625702	
58	260.9224429130554	fix_post	2		12	56.0	2.5	blank	1.0	281.81353664398193	0.10006070137023926
59	261.02250361442566	fix_pre	0		120	57.0	2.5	/experiments/knapen_AOT/AOT_stimuli/rescaled_final/1104_rv.mp4	0.0	281.9135973453522	1.00850248336792
59	261.6062572002411	pulse	0	t		57.0	2.5	/experiments/knapen_AOT/AOT_stimuli/rescaled_final/1104_rv.mp4	0.0	282.4973509311676	
59	262.0310060977936	movie	1		274	57.0	2.5	/experiments/knapen_AOT/AOT_stimuli/rescaled_final/1104_rv.mp4	0.0	282.9220998287201	2.4921202659606934
59	263.20647263526917	pulse	1	t		57.0	2.5	/experiments/knapen_AOT/AOT_stimuli/rescaled_final/1104_rv.mp4	0.0	284.0975663661957	
59	264.5231263637543	fix_post	2		12	57.0	2.5	/experiments/knapen_AOT/AOT_stimuli/rescaled_final/1104_rv.mp4	0.0	285.4142200946808	0.10000109672546387
60	264.62312746047974	fix_pre	0		120	58.0	2.5	/experiments/knapen_AOT/AOT_stimuli/rescaled_final/1297_rv.mp4	0.0	285.51422119140625	1.0084757804870605
60	264.8067088127136	pulse	0	t		58.0	2.5	/experiments/knapen_AOT/AOT_stimuli/rescaled_final/1297_rv.mp4	0.0	285.69780254364014	
60	265.6316032409668	movie	1		279	58.0	2.5	/experiments/knapen_AOT/AOT_stimuli/rescaled_final/1297_rv.mp4	0.0	286.5226969718933	2.492074728012085
60	266.40585470199585	pulse	1	t		58.0	2.5	/experiments/knapen_AOT/AOT_stimuli/rescaled_final/1297_rv.mp4	0.0	287.29694843292236	
60	268.005197763443	pulse	1	t		58.0	2.5	/experiments/knapen_AOT/AOT_stimuli/rescaled_final/1297_rv.mp4	0.0	288.8962914943695	
60	268.1236779689789	fix_post	2		12	58.0	2.5	/experiments/knapen_AOT/AOT_stimuli/rescaled_final/1297_rv.mp4	0.0	289.0147716999054	0.10030984878540039
61	268.2239878177643	fix_pre	0		120	59.0	2.5	/experiments/knapen_AOT/AOT_stimuli/rescaled_final/1421_fw.mp4	0.0	289.1150815486908	1.0080487728118896
61	269.2320365905762	movie	1		272	59.0	2.5	/experiments/knapen_AOT/AOT_stimuli/rescaled_final/1421_fw.mp4	0.0	290.1231303215027	2.4920921325683594
61	269.60575914382935	pulse	1	t		59.0	2.5	/experiments/knapen_AOT/AOT_stimuli/rescaled_final/1421_fw.mp4	0.0	290.49685287475586	
61	271.2054147720337	pulse	1	t		59.0	2.5	/experiments/knapen_AOT/AOT_stimuli/rescaled_final/1421_fw.mp4	0.0	292.0965085029602	
61	271.72412872314453	fix_post	2		12	59.0	2.5	/experiments/knapen_AOT/AOT_stimuli/rescaled_final/1421_fw.mp4	0.0	292.61522245407104	0.09996438026428223
62	271.8240931034088	fix_pre	0		119	60.0	2.5	/experiments/knapen_AOT/AOT_stimuli/rescaled_final/0777_fw.mp4	0.0	292.7151868343353	1.0001494884490967
62	272.807888507843	pulse	0	t		60.0	2.5	/experiments/knapen_AOT/AOT_stimuli/rescaled_final/0777_fw.mp4	0.0	293.69898223876953	
62	272.8242425918579	movie	1		286	60.0	2.5	/experiments/knapen_AOT/AOT_stimuli/rescaled_final/0777_fw.mp4	0.0	293.7153363227844	2.5003645420074463
62	274.406307220459	pulse	1	t		60.0	2.5	/experiments/knapen_AOT/AOT_stimuli/rescaled_final/0777_fw.mp4	0.0	295.2974009513855	
62	275.32460713386536	fix_post	2		12	60.0	2.5	/experiments/knapen_AOT/AOT_stimuli/rescaled_final/0777_fw.mp4	0.0	296.21570086479187	0.10003781318664551
63	275.424644947052	fix_pre	0		120	61.0	2.5	blank	1.0	296.3157386779785	1.000145435333252
63	276.0083181858063	pulse	0	t		61.0	2.5	blank	1.0	296.8994119167328	
63	276.42479038238525	movie	1		300	61.0	2.5	blank	1.0	297.31588411331177	2.500357151031494
63	277.60856795310974	pulse	1	t		61.0	2.5	blank	1.0	298.49966168403625	
63	278.92514753341675	fix_post	2		12	61.0	2.5	blank	1.0	299.81624126434326	0.10002779960632324
64	279.02517533302307	fix_pre	0		120	62.0	2.5	/experiments/knapen_AOT/AOT_stimuli/rescaled_final/0169_fw.mp4	0.0	299.9162690639496	1.0085539817810059
64	279.20883679389954	pulse	0	t		62.0	2.5	/experiments/knapen_AOT/AOT_stimuli/rescaled_final/0169_fw.mp4	0.0	300.09993052482605	
64	280.0337293148041	movie	1		271	62.0	2.5	/experiments/knapen_AOT/AOT_stimuli/rescaled_final/0169_fw.mp4	0.0	300.9248230457306	2.4921343326568604
64	280.8091986179352	pulse	1	t		62.0	2.5	/experiments/knapen_AOT/AOT_stimuli/rescaled_final/0169_fw.mp4	0.0	301.7002923488617	
64	282.40854239463806	pulse	1	t		62.0	2.5	/experiments/knapen_AOT/AOT_stimuli/rescaled_final/0169_fw.mp4	0.0	303.2996361255646	
64	282.52586364746094	fix_post	2		12	62.0	2.5	/experiments/knapen_AOT/AOT_stimuli/rescaled_final/0169_fw.mp4	0.0	303.41695737838745	0.0998678207397461
65	282.6257314682007	fix_pre	0		120	63.0	2.5	/experiments/knapen_AOT/AOT_stimuli/rescaled_final/1104_fw.mp4	0.0	303.5168251991272	1.0085279941558838
65	283.63425946235657	movie	1		269	63.0	2.5	/experiments/knapen_AOT/AOT_stimuli/rescaled_final/1104_fw.mp4	0.0	304.5253531932831	2.492335319519043
65	284.00756335258484	pulse	1	t		63.0	2.5	/experiments/knapen_AOT/AOT_stimuli/rescaled_final/1104_fw.mp4	0.0	304.89865708351135	
65	285.6080060005188	pulse	1	t		63.0	2.5	/experiments/knapen_AOT/AOT_stimuli/rescaled_final/1104_fw.mp4	0.0	306.4990997314453	
65	286.1265947818756	fix_post	2		12	63.0	2.5	/experiments/knapen_AOT/AOT_stimuli/rescaled_final/1104_fw.mp4	0.0	307.0176885128021	0.09967350959777832
66	286.2262682914734	fix_pre	0		119	64.0	2.5	/experiments/knapen_AOT/AOT_stimuli/rescaled_final/2127_fw.mp4	0.0	307.1173620223999	1.000331163406372
66	287.2099664211273	pulse	0	t		64.0	2.5	/experiments/knapen_AOT/AOT_stimuli/rescaled_final/2127_fw.mp4	0.0	308.10106015205383	
66	287.22659945487976	movie	1		292	64.0	2.5	/experiments/knapen_AOT/AOT_stimuli/rescaled_final/2127_fw.mp4	0.0	308.1176931858063	2.5001845359802246
66	288.80878353118896	pulse	1	t		64.0	2.5	/experiments/knapen_AOT/AOT_stimuli/rescaled_final/2127_fw.mp4	0.0	309.6998772621155	
66	289.72678399086	fix_post	2		12	64.0	2.5	/experiments/knapen_AOT/AOT_stimuli/rescaled_final/2127_fw.mp4	0.0	310.6178777217865	0.10006403923034668
67	289.82684803009033	fix_pre	0		120	65.0	2.5	/experiments/knapen_AOT/AOT_stimuli/rescaled_final/1758_rv.mp4	0.0	310.71794176101685	1.0084550380706787
67	290.4104161262512	pulse	0	t		65.0	2.5	/experiments/knapen_AOT/AOT_stimuli/rescaled_final/1758_rv.mp4	0.0	311.30150985717773	
67	290.835303068161	movie	1		287	65.0	2.5	/experiments/knapen_AOT/AOT_stimuli/rescaled_final/1758_rv.mp4	0.0	311.7263967990875	2.4921343326568604
67	292.009272813797	pulse	1	t		65.0	2.5	/experiments/knapen_AOT/AOT_stimuli/rescaled_final/1758_rv.mp4	0.0	312.9003665447235	
67	293.32743740081787	fix_post	2		12	65.0	2.5	/experiments/knapen_AOT/AOT_stimuli/rescaled_final/1758_rv.mp4	0.0	314.2185311317444	0.09989142417907715
68	293.42732882499695	fix_pre	0		120	66.0	2.5	/experiments/knapen_AOT/AOT_stimuli/rescaled_final/0321_rv.mp4	0.0	314.31842255592346	1.0087907314300537
68	293.61092233657837	pulse	0	t		66.0	2.5	/experiments/knapen_AOT/AOT_stimuli/rescaled_final/0321_rv.mp4	0.0	314.5020160675049	
68	294.436119556427	movie	1		276	66.0	2.5	/experiments/knapen_AOT/AOT_stimuli/rescaled_final/0321_rv.mp4	0.0	315.3272132873535	2.4918758869171143
68	295.21036887168884	pulse	1	t		66.0	2.5	/experiments/knapen_AOT/AOT_stimuli/rescaled_final/0321_rv.mp4	0.0	316.10146260261536	
68	296.8093876838684	pulse	1	t		66.0	2.5	/experiments/knapen_AOT/AOT_stimuli/rescaled_final/0321_rv.mp4	0.0	317.7004814147949	
68	296.9279954433441	fix_post	2		12	66.0	2.5	/experiments/knapen_AOT/AOT_stimuli/rescaled_final/0321_rv.mp4	0.0	317.81908917427063	0.09988927841186523
69	297.027884721756	fix_pre	0		120	67.0	2.5	/experiments/knapen_AOT/AOT_stimuli/rescaled_final/1473_rv.mp4	0.0	317.9189784526825	1.008504867553711
69	298.0363895893097	movie	1		268	67.0	2.5	/experiments/knapen_AOT/AOT_stimuli/rescaled_final/1473_rv.mp4	0.0	318.9274833202362	2.492018461227417
69	298.41001868247986	pulse	1	t		67.0	2.5	/experiments/knapen_AOT/AOT_stimuli/rescaled_final/1473_rv.mp4	0.0	319.3011124134064	
69	300.00405621528625	pulse	1	t		67.0	2.5	/experiments/knapen_AOT/AOT_stimuli/rescaled_final/1473_rv.mp4	0.0	320.89514994621277	
69	300.5284080505371	fix_post	2		12	67.0	2.5	/experiments/knapen_AOT/AOT_stimuli/rescaled_final/1473_rv.mp4	0.0	321.4195017814636	0.1000213623046875
70	300.6284294128418	fix_pre	0		118	68.0	2.5	/experiments/knapen_AOT/AOT_stimuli/rescaled_final/1778_rv.mp4	0.0	321.5195231437683	0.991826057434082
70	301.6039226055145	pulse	0	t		68.0	2.5	/experiments/knapen_AOT/AOT_stimuli/rescaled_final/1778_rv.mp4	0.0	322.49501633644104	
70	301.6202554702759	movie	1		276	68.0	2.5	/experiments/knapen_AOT/AOT_stimuli/rescaled_final/1778_rv.mp4	0.0	322.5113492012024	2.5003466606140137
70	303.2041938304901	pulse	1	t		68.0	2.5	/experiments/knapen_AOT/AOT_stimuli/rescaled_final/1778_rv.mp4	0.0	324.0952875614166	
70	304.1206021308899	fix_post	2		12	68.0	2.5	/experiments/knapen_AOT/AOT_stimuli/rescaled_final/1778_rv.mp4	0.0	325.0116958618164	0.10014891624450684
71	304.2207510471344	fix_pre	0		120	69.0	2.5	blank	1.0	325.1118447780609	1.0000536441802979
71	304.804292678833	pulse	0	t		69.0	2.5	blank	1.0	325.6953864097595	
71	305.2208046913147	movie	1		300	69.0	2.5	blank	1.0	326.1118984222412	2.5003445148468018
71	306.4046239852905	pulse	1	t		69.0	2.5	blank	1.0	327.29571771621704	
71	307.7211492061615	fix_post	2		12	69.0	2.5	blank	1.0	328.612242937088	0.10011720657348633
72	307.821266412735	fix_pre	0		120	70.0	2.5	/experiments/knapen_AOT/AOT_stimuli/rescaled_final/0369_fw.mp4	0.0	328.7123601436615	1.008404016494751
72	308.0047631263733	pulse	0	t		70.0	2.5	/experiments/knapen_AOT/AOT_stimuli/rescaled_final/0369_fw.mp4	0.0	328.8958568572998	
72	308.82967042922974	movie	1		282	70.0	2.5	/experiments/knapen_AOT/AOT_stimuli/rescaled_final/0369_fw.mp4	0.0	329.72076416015625	2.4920294284820557
72	309.60502767562866	pulse	1	t		70.0	2.5	/experiments/knapen_AOT/AOT_stimuli/rescaled_final/0369_fw.mp4	0.0	330.4961214065552	
72	311.2052092552185	pulse	1	t		70.0	2.5	/experiments/knapen_AOT/AOT_stimuli/rescaled_final/0369_fw.mp4	0.0	332.096302986145	
72	311.3216998577118	fix_post	2		12	70.0	2.5	/experiments/knapen_AOT/AOT_stimuli/rescaled_final/0369_fw.mp4	0.0	332.2127935886383	0.1000208854675293
73	311.4217207431793	fix_pre	0		120	71.0	2.5	/experiments/knapen_AOT/AOT_stimuli/rescaled_final/1347_rv.mp4	0.0	332.31281447410583	1.008608341217041
73	312.43032908439636	movie	1		268	71.0	2.5	/experiments/knapen_AOT/AOT_stimuli/rescaled_final/1347_rv.mp4	0.0	333.3214228153229	2.491929292678833
73	312.80429887771606	pulse	1	t		71.0	2.5	/experiments/knapen_AOT/AOT_stimuli/rescaled_final/1347_rv.mp4	0.0	333.6953926086426	
73	314.4057250022888	pulse	1	t		71.0	2.5	/experiments/knapen_AOT/AOT_stimuli/rescaled_final/1347_rv.mp4	0.0	335.29681873321533	
73	314.9222583770752	fix_post	2		12	71.0	2.5	/experiments/knapen_AOT/AOT_stimuli/rescaled_final/1347_rv.mp4	0.0	335.8133521080017	0.09997916221618652
74	315.0222375392914	fix_pre	0		119	72.0	2.5	/experiments/knapen_AOT/AOT_stimuli/rescaled_final/1330_rv.mp4	0.0	335.9133312702179	1.0003864765167236
74	316.0059473514557	pulse	0	t		72.0	2.5	/experiments/knapen_AOT/AOT_stimuli/rescaled_final/1330_rv.mp4	0.0	336.8970410823822	
74	316.0226240158081	movie	1		270	72.0	2.5	/experiments/knapen_AOT/AOT_stimuli/rescaled_final/1330_rv.mp4	0.0	336.9137177467346	2.5003652572631836
74	317.6045446395874	pulse	1	t		72.0	2.5	/experiments/knapen_AOT/AOT_stimuli/rescaled_final/1330_rv.mp4	0.0	338.4956383705139	
74	318.5229892730713	fix_post	2		12	72.0	2.5	/experiments/knapen_AOT/AOT_stimuli/rescaled_final/1330_rv.mp4	0.0	339.4140830039978	0.0999753475189209
75	318.6229646205902	fix_pre	0		120	73.0	2.5	/experiments/knapen_AOT/AOT_stimuli/rescaled_final/0276_fw.mp4	0.0	339.5140583515167	1.008345127105713
75	319.20662355422974	pulse	0	t		73.0	2.5	/experiments/knapen_AOT/AOT_stimuli/rescaled_final/0276_fw.mp4	0.0	340.09771728515625	
75	319.6313097476959	movie	1		275	73.0	2.5	/experiments/knapen_AOT/AOT_stimuli/rescaled_final/0276_fw.mp4	0.0	340.52240347862244	2.4922938346862793
75	320.8045771121979	pulse	1	t		73.0	2.5	/experiments/knapen_AOT/AOT_stimuli/rescaled_final/0276_fw.mp4	0.0	341.6956708431244	
75	322.1236035823822	fix_post	2		12	73.0	2.5	/experiments/knapen_AOT/AOT_stimuli/rescaled_final/0276_fw.mp4	0.0	343.0146973133087	0.09982705116271973
76	322.2234306335449	fix_pre	0		120	74.0	2.5	/experiments/knapen_AOT/AOT_stimuli/rescaled_final/1611_fw.mp4	0.0	343.11452436447144	1.0084266662597656
76	322.40695810317993	pulse	0	t		74.0	2.5	/experiments/knapen_AOT/AOT_stimuli/rescaled_final/1611_fw.mp4	0.0	343.29805183410645	
76	323.2318572998047	movie	1		275	74.0	2.5	/experiments/knapen_AOT/AOT_stimuli/rescaled_final/1611_fw.mp4	0.0	344.1229510307312	2.492283821105957
76	324.00581407546997	pulse	1	t		74.0	2.5	/experiments/knapen_AOT/AOT_stimuli/rescaled_final/1611_fw.mp4	0.0	344.8969078063965	
76	325.6052098274231	pulse	1	t		74.0	2.5	/experiments/knapen_AOT/AOT_stimuli/rescaled_final/1611_fw.mp4	0.0	346.4963035583496	
76	325.72414112091064	fix_post	2		12	74.0	2.5	/experiments/knapen_AOT/AOT_stimuli/rescaled_final/1611_fw.mp4	0.0	346.61523485183716	0.09974098205566406
77	325.8238821029663	fix_pre	0		120	75.0	2.5	/experiments/knapen_AOT/AOT_stimuli/rescaled_final/2090_fw.mp4	0.0	346.7149758338928	1.0085368156433105
77	326.8324189186096	movie	1		266	75.0	2.5	/experiments/knapen_AOT/AOT_stimuli/rescaled_final/2090_fw.mp4	0.0	347.72351264953613	2.491985559463501
77	327.2056498527527	pulse	1	t		75.0	2.5	/experiments/knapen_AOT/AOT_stimuli/rescaled_final/2090_fw.mp4	0.0	348.0967435836792	
77	328.80628085136414	pulse	1	t		75.0	2.5	/experiments/knapen_AOT/AOT_stimuli/rescaled_final/2090_fw.mp4	0.0	349.69737458229065	
77	329.3244044780731	fix_post	2		12	75.0	2.5	/experiments/knapen_AOT/AOT_stimuli/rescaled_final/2090_fw.mp4	0.0	350.21549820899963	0.10002541542053223
78	329.42442989349365	fix_pre	0		119	76.0	2.5	/experiments/knapen_AOT/AOT_stimuli/rescaled_final/2036_fw.mp4	0.0	350.31552362442017	1.0001769065856934
78	330.4082169532776	pulse	0	t		76.0	2.5	/experiments/knapen_AOT/AOT_stimuli/rescaled_final/2036_fw.mp4	0.0	351.2993106842041	
78	330.42460680007935	movie	1		278	76.0	2.5	/experiments/knapen_AOT/AOT_stimuli/rescaled_final/2036_fw.mp4	0.0	351.31570053100586	2.500472068786621
78	332.0069959163666	pulse	1	t		76.0	2.5	/experiments/knapen_AOT/AOT_stimuli/rescaled_final/2036_fw.mp4	0.0	352.8980896472931	
78	332.92507886886597	fix_post	2		12	76.0	2.5	/experiments/knapen_AOT/AOT_stimuli/rescaled_final/2036_fw.mp4	0.0	353.8161725997925	0.09993338584899902
79	333.02501225471497	fix_pre	0		120	77.0	2.5	blank	1.0	353.9161059856415	1.0001165866851807
79	333.6086223125458	pulse	0	t		77.0	2.5	blank	1.0	354.4997160434723	
79	334.02512884140015	movie	1		300	77.0	2.5	blank	1.0	354.91622257232666	2.5003724098205566
79	335.2091906070709	pulse	1	t		77.0	2.5	blank	1.0	356.10028433799744	
79	336.5255012512207	fix_post	2		12	77.0	2.5	blank	1.0	357.4165949821472	0.10002756118774414
80	336.62552881240845	fix_pre	0		120	78.0	2.5	/experiments/knapen_AOT/AOT_stimuli/rescaled_final/1473_fw.mp4	0.0	357.51662254333496	1.008592128753662
80	336.80905508995056	pulse	0	t		78.0	2.5	/experiments/knapen_AOT/AOT_stimuli/rescaled_final/1473_fw.mp4	0.0	357.7001488208771	
80	337.6341209411621	movie	1		264	78.0	2.5	/experiments/knapen_AOT/AOT_stimuli/rescaled_final/1473_fw.mp4	0.0	358.5252146720886	2.4919087886810303
80	338.4076325893402	pulse	1	t		78.0	2.5	/experiments/knapen_AOT/AOT_stimuli/rescaled_final/1473_fw.mp4	0.0	359.2987263202667	
80	340.0097906589508	pulse	1	t		78.0	2.5	/experiments/knapen_AOT/AOT_stimuli/rescaled_final/1473_fw.mp4	0.0	360.9008843898773	
80	340.12602972984314	fix_post	2		12	78.0	2.5	/experiments/knapen_AOT/AOT_stimuli/rescaled_final/1473_fw.mp4	0.0	361.01712346076965	0.10001611709594727
81	340.2260458469391	fix_pre	0		120	79.0	2.5	/experiments/knapen_AOT/AOT_stimuli/rescaled_final/1481_fw.mp4	0.0	361.1171395778656	1.0085046291351318
81	341.2345504760742	movie	1		273	79.0	2.5	/experiments/knapen_AOT/AOT_stimuli/rescaled_final/1481_fw.mp4	0.0	362.12564420700073	2.492065668106079
81	341.609162569046	pulse	1	t		79.0	2.5	/experiments/knapen_AOT/AOT_stimuli/rescaled_final/1481_fw.mp4	0.0	362.50025629997253	
81	343.20848274230957	pulse	1	t		79.0	2.5	/experiments/knapen_AOT/AOT_stimuli/rescaled_final/1481_fw.mp4	0.0	364.0995764732361	
81	343.7266161441803	fix_post	2		12	79.0	2.5	/experiments/knapen_AOT/AOT_stimuli/rescaled_final/1481_fw.mp4	0.0	364.6177098751068	0.10002708435058594
82	343.8266432285309	fix_pre	0		119	80.0	2.5	/experiments/knapen_AOT/AOT_stimuli/rescaled_final/1097_rv.mp4	0.0	364.7177369594574	1.0086994171142578
82	344.81027841567993	pulse	0	t		80.0	2.5	/experiments/knapen_AOT/AOT_stimuli/rescaled_final/1097_rv.mp4	0.0	365.70137214660645	
82	344.83534264564514	movie	1		271	80.0	2.5	/experiments/knapen_AOT/AOT_stimuli/rescaled_final/1097_rv.mp4	0.0	365.72643637657166	2.491987705230713
82	346.4087278842926	pulse	1	t		80.0	2.5	/experiments/knapen_AOT/AOT_stimuli/rescaled_final/1097_rv.mp4	0.0	367.2998216152191	
82	347.32733035087585	fix_post	2		12	80.0	2.5	/experiments/knapen_AOT/AOT_stimuli/rescaled_final/1097_rv.mp4	0.0	368.21842408180237	0.09979414939880371
83	347.42712450027466	fix_pre	0		120	81.0	2.5	/experiments/knapen_AOT/AOT_stimuli/rescaled_final/1985_rv.mp4	0.0	368.3182182312012	1.0084831714630127
83	348.0108597278595	pulse	0	t		81.0	2.5	/experiments/knapen_AOT/AOT_stimuli/rescaled_final/1985_rv.mp4	0.0	368.901953458786	
83	348.43560767173767	movie	1		269	81.0	2.5	/experiments/knapen_AOT/AOT_stimuli/rescaled_final/1985_rv.mp4	0.0	369.3267014026642	2.492309331893921
83	349.6102590560913	pulse	1	t		81.0	2.5	/experiments/knapen_AOT/AOT_stimuli/rescaled_final/1985_rv.mp4	0.0	370.5013527870178	
83	350.9279170036316	fix_post	2		12	81.0	2.5	/experiments/knapen_AOT/AOT_stimuli/rescaled_final/1985_rv.mp4	0.0	371.8190107345581	0.09978437423706055
84	351.02770137786865	fix_pre	0		120	82.0	2.5	blank	1.0	371.91879510879517	1.0001170635223389
84	351.2115569114685	pulse	0	t		82.0	2.5	blank	1.0	372.102650642395	
84	352.027818441391	movie	1		300	82.0	2.5	blank	1.0	372.9189121723175	2.5003790855407715
84	352.81166553497314	pulse	1	t		82.0	2.5	blank	1.0	373.70275926589966	
84	354.41186785697937	pulse	1	t		82.0	2.5	blank	1.0	375.3029615879059	
84	354.52819752693176	fix_post	2		12	82.0	2.5	blank	1.0	375.4192912578583	0.10016965866088867
85	354.62836718559265	fix_pre	0		120	83.0	2.5	/experiments/knapen_AOT/AOT_stimuli/rescaled_final/1794_rv.mp4	0.0	375.51946091651917	1.008509635925293
85	355.63687682151794	movie	1		275	83.0	2.5	/experiments/knapen_AOT/AOT_stimuli/rescaled_final/1794_rv.mp4	0.0	376.52797055244446	2.4919397830963135
85	356.01060581207275	pulse	1	t		83.0	2.5	/experiments/knapen_AOT/AOT_stimuli/rescaled_final/1794_rv.mp4	0.0	376.90169954299927	
85	357.6102454662323	pulse	1	t		83.0	2.5	/experiments/knapen_AOT/AOT_stimuli/rescaled_final/1794_rv.mp4	0.0	378.5013391971588	
85	358.12881660461426	fix_post	2		12	83.0	2.5	/experiments/knapen_AOT/AOT_stimuli/rescaled_final/1794_rv.mp4	0.0	379.01991033554077	0.09995865821838379
87	358.22877526283264	stim	0		1715					379.11986899375916	14.293825387954712
87	359.2042911052704	pulse	0	t						380.0953848361969	
87	360.80446910858154	pulse	0	t						381.69556283950806	
87	362.40459656715393	pulse	0	t						383.29569029808044	
87	364.0048885345459	pulse	0	t						384.8959822654724	
87	365.60531520843506	pulse	0	t						386.4964089393616	
87	367.20566058158875	pulse	0	t						388.09675431251526	
87	368.8056137561798	pulse	0	t						389.6967074871063	
87	370.40608501434326	pulse	0	t						391.2971787452698	
87	372.0062916278839	pulse	0	t						392.8973853588104	
