trial_nr	onset	event_type	phase	response	nr_frames	movie_index	movie_duration	movie_file	blank	onset_abs	duration
0	0.14164304733276367	stim	0		14					19.21669626235962	0.11657333374023438
0	0.2503020763397217	response	0	space						19.325355291366577	
1	0.25821638107299805	stim	0		4535					19.333269596099854	37.80707621574402
1	38.055739641189575	pulse	0	t						57.13079285621643	
1	38.06529259681702	stim	1		1715					57.14034581184387	14.30081295967102
1	39.64767026901245	pulse	1	t						58.72272348403931	
1	41.247987270355225	pulse	1	t						60.32304048538208	
1	42.84022831916809	pulse	1	t						61.915281534194946	
1	44.4401741027832	pulse	1	t						63.51522731781006	
1	46.04040455818176	pulse	1	t						65.11545777320862	
1	47.640629529953	pulse	1	t						66.71568274497986	
1	49.240830183029175	pulse	1	t						68.31588339805603	
1	50.84106945991516	pulse	1	t						69.91612267494202	
2	52.36610555648804	fix_pre	0		10	0.0	2.5	/experiments/Knapen_AOT/AOT_stimuli/rescaled_final/0399_fw.mp4	0.0	71.44115877151489	0.10007953643798828
2	52.44137501716614	pulse	0	t		0.0	2.5	/experiments/Knapen_AOT/AOT_stimuli/rescaled_final/0399_fw.mp4	0.0	71.516428232193	
2	52.466185092926025	movie	1		283	0.0	2.5	/experiments/Knapen_AOT/AOT_stimuli/rescaled_final/0399_fw.mp4	0.0	71.54123830795288	2.491957902908325
2	54.04120469093323	pulse	1	t		0.0	2.5	/experiments/Knapen_AOT/AOT_stimuli/rescaled_final/0399_fw.mp4	0.0	73.11625790596008	
2	54.95814299583435	fix_post	2		12	0.0	2.5	/experiments/Knapen_AOT/AOT_stimuli/rescaled_final/0399_fw.mp4	0.0	74.0331962108612	0.10017037391662598
3	55.05831336975098	fix_pre	0		120	1.0	2.5	/experiments/Knapen_AOT/AOT_stimuli/rescaled_final/0169_rv.mp4	0.0	74.13336658477783	1.0083873271942139
3	55.64176917076111	pulse	0	t		1.0	2.5	/experiments/Knapen_AOT/AOT_stimuli/rescaled_final/0169_rv.mp4	0.0	74.71682238578796	
3	56.06670069694519	movie	1		282	1.0	2.5	/experiments/Knapen_AOT/AOT_stimuli/rescaled_final/0169_rv.mp4	0.0	75.14175391197205	2.492053747177124
3	57.240752935409546	pulse	1	t		1.0	2.5	/experiments/Knapen_AOT/AOT_stimuli/rescaled_final/0169_rv.mp4	0.0	76.3158061504364	
3	58.558754444122314	fix_post	2		12	1.0	2.5	/experiments/Knapen_AOT/AOT_stimuli/rescaled_final/0169_rv.mp4	0.0	77.63380765914917	0.09999585151672363
4	58.65875029563904	fix_pre	0		120	2.0	2.5	/experiments/Knapen_AOT/AOT_stimuli/rescaled_final/1492_fw.mp4	0.0	77.7338035106659	1.0084855556488037
4	58.842195987701416	pulse	0	t		2.0	2.5	/experiments/Knapen_AOT/AOT_stimuli/rescaled_final/1492_fw.mp4	0.0	77.91724920272827	
4	59.66723585128784	movie	1		280	2.0	2.5	/experiments/Knapen_AOT/AOT_stimuli/rescaled_final/1492_fw.mp4	0.0	78.7422890663147	2.491978645324707
4	60.44066071510315	pulse	1	t		2.0	2.5	/experiments/Knapen_AOT/AOT_stimuli/rescaled_final/1492_fw.mp4	0.0	79.51571393013	
4	62.04077124595642	pulse	1	t		2.0	2.5	/experiments/Knapen_AOT/AOT_stimuli/rescaled_final/1492_fw.mp4	0.0	81.11582446098328	
4	62.15921449661255	fix_post	2		12	2.0	2.5	/experiments/Knapen_AOT/AOT_stimuli/rescaled_final/1492_fw.mp4	0.0	81.2342677116394	0.1000211238861084
5	62.25923562049866	fix_pre	0		120	3.0	2.5	/experiments/Knapen_AOT/AOT_stimuli/rescaled_final/1325_fw.mp4	0.0	81.33428883552551	1.0085086822509766
5	63.267744302749634	movie	1		281	3.0	2.5	/experiments/Knapen_AOT/AOT_stimuli/rescaled_final/1325_fw.mp4	0.0	82.34279751777649	2.4920010566711426
5	63.64327144622803	pulse	1	t		3.0	2.5	/experiments/Knapen_AOT/AOT_stimuli/rescaled_final/1325_fw.mp4	0.0	82.71832466125488	
5	65.24116516113281	pulse	1	t		3.0	2.5	/experiments/Knapen_AOT/AOT_stimuli/rescaled_final/1325_fw.mp4	0.0	84.31621837615967	
5	65.75974535942078	fix_post	2		12	3.0	2.5	/experiments/Knapen_AOT/AOT_stimuli/rescaled_final/1325_fw.mp4	0.0	84.83479857444763	0.10003972053527832
6	65.85978507995605	fix_pre	0		119	4.0	2.5	/experiments/Knapen_AOT/AOT_stimuli/rescaled_final/1132_rv.mp4	0.0	84.93483829498291	1.0001966953277588
6	66.84358978271484	pulse	0	t		4.0	2.5	/experiments/Knapen_AOT/AOT_stimuli/rescaled_final/1132_rv.mp4	0.0	85.9186429977417	
6	66.85998177528381	movie	1		292	4.0	2.5	/experiments/Knapen_AOT/AOT_stimuli/rescaled_final/1132_rv.mp4	0.0	85.93503499031067	2.500305414199829
6	68.44208240509033	pulse	1	t		4.0	2.5	/experiments/Knapen_AOT/AOT_stimuli/rescaled_final/1132_rv.mp4	0.0	87.51713562011719	
6	69.36028718948364	fix_post	2		12	4.0	2.5	/experiments/Knapen_AOT/AOT_stimuli/rescaled_final/1132_rv.mp4	0.0	88.4353404045105	0.10004329681396484
7	69.46033048629761	fix_pre	0		120	5.0	2.5	/experiments/Knapen_AOT/AOT_stimuli/rescaled_final/0703_fw.mp4	0.0	88.53538370132446	1.0085570812225342
7	70.04408383369446	pulse	0	t		5.0	2.5	/experiments/Knapen_AOT/AOT_stimuli/rescaled_final/0703_fw.mp4	0.0	89.11913704872131	
7	70.46888756752014	movie	1		293	5.0	2.5	/experiments/Knapen_AOT/AOT_stimuli/rescaled_final/0703_fw.mp4	0.0	89.543940782547	2.4919545650482178
7	71.64248967170715	pulse	1	t		5.0	2.5	/experiments/Knapen_AOT/AOT_stimuli/rescaled_final/0703_fw.mp4	0.0	90.71754288673401	
7	72.96084213256836	fix_post	2		12	5.0	2.5	/experiments/Knapen_AOT/AOT_stimuli/rescaled_final/0703_fw.mp4	0.0	92.03589534759521	0.10001754760742188
8	73.06085968017578	fix_pre	0		120	6.0	2.5	blank	1.0	92.13591289520264	1.000227928161621
8	73.24441766738892	pulse	0	t		6.0	2.5	blank	1.0	92.31947088241577	
8	74.0610876083374	movie	1		300	6.0	2.5	blank	1.0	93.13614082336426	2.500307321548462
8	74.84472799301147	pulse	1	t		6.0	2.5	blank	1.0	93.91978120803833	
8	76.44495844841003	pulse	1	t		6.0	2.5	blank	1.0	95.52001166343689	
8	76.56139492988586	fix_post	2		12	6.0	2.5	blank	1.0	95.63644814491272	0.10008072853088379
9	76.66147565841675	fix_pre	0		120	7.0	2.5	/experiments/Knapen_AOT/AOT_stimuli/rescaled_final/0744_fw.mp4	0.0	95.7365288734436	1.008424997329712
9	77.66990065574646	movie	1		278	7.0	2.5	/experiments/Knapen_AOT/AOT_stimuli/rescaled_final/0744_fw.mp4	0.0	96.74495387077332	2.4920568466186523
9	78.04372811317444	pulse	1	t		7.0	2.5	/experiments/Knapen_AOT/AOT_stimuli/rescaled_final/0744_fw.mp4	0.0	97.1187813282013	
9	79.64315223693848	pulse	1	t		7.0	2.5	/experiments/Knapen_AOT/AOT_stimuli/rescaled_final/0744_fw.mp4	0.0	98.71820545196533	
9	80.16195750236511	fix_post	2		12	7.0	2.5	/experiments/Knapen_AOT/AOT_stimuli/rescaled_final/0744_fw.mp4	0.0	99.23701071739197	0.09999775886535645
10	80.26195526123047	fix_pre	0		119	8.0	2.5	/experiments/Knapen_AOT/AOT_stimuli/rescaled_final/0311_rv.mp4	0.0	99.33700847625732	1.000117540359497
10	81.2457754611969	pulse	0	t		8.0	2.5	/experiments/Knapen_AOT/AOT_stimuli/rescaled_final/0311_rv.mp4	0.0	100.32082867622375	
10	81.26207280158997	movie	1		291	8.0	2.5	/experiments/Knapen_AOT/AOT_stimuli/rescaled_final/0311_rv.mp4	0.0	100.33712601661682	2.5003833770751953
10	82.84606266021729	pulse	1	t		8.0	2.5	/experiments/Knapen_AOT/AOT_stimuli/rescaled_final/0311_rv.mp4	0.0	101.92111587524414	
10	83.76245617866516	fix_post	2		12	8.0	2.5	/experiments/Knapen_AOT/AOT_stimuli/rescaled_final/0311_rv.mp4	0.0	102.83750939369202	0.10004854202270508
11	83.86250472068787	fix_pre	0		120	9.0	2.5	/experiments/Knapen_AOT/AOT_stimuli/rescaled_final/0114_rv.mp4	0.0	102.93755793571472	1.0084598064422607
11	84.44631958007812	pulse	0	t		9.0	2.5	/experiments/Knapen_AOT/AOT_stimuli/rescaled_final/0114_rv.mp4	0.0	103.52137279510498	
11	84.87096452713013	movie	1		278	9.0	2.5	/experiments/Knapen_AOT/AOT_stimuli/rescaled_final/0114_rv.mp4	0.0	103.94601774215698	2.4920496940612793
11	86.04438138008118	pulse	1	t		9.0	2.5	/experiments/Knapen_AOT/AOT_stimuli/rescaled_final/0114_rv.mp4	0.0	105.11943459510803	
11	87.3630142211914	fix_post	2		12	9.0	2.5	/experiments/Knapen_AOT/AOT_stimuli/rescaled_final/0114_rv.mp4	0.0	106.43806743621826	0.10008072853088379
12	87.46309494972229	fix_pre	0		120	10.0	2.5	/experiments/Knapen_AOT/AOT_stimuli/rescaled_final/0753_rv.mp4	0.0	106.53814816474915	1.0084471702575684
12	87.64661121368408	pulse	0	t		10.0	2.5	/experiments/Knapen_AOT/AOT_stimuli/rescaled_final/0753_rv.mp4	0.0	106.72166442871094	
12	88.47154211997986	movie	1		286	10.0	2.5	/experiments/Knapen_AOT/AOT_stimuli/rescaled_final/0753_rv.mp4	0.0	107.54659533500671	2.491992235183716
12	89.24514603614807	pulse	1	t		10.0	2.5	/experiments/Knapen_AOT/AOT_stimuli/rescaled_final/0753_rv.mp4	0.0	108.32019925117493	
12	90.84506869316101	pulse	1	t		10.0	2.5	/experiments/Knapen_AOT/AOT_stimuli/rescaled_final/0753_rv.mp4	0.0	109.92012190818787	
12	90.96353435516357	fix_post	2		12	10.0	2.5	/experiments/Knapen_AOT/AOT_stimuli/rescaled_final/0753_rv.mp4	0.0	110.03858757019043	0.10009288787841797
13	91.06362724304199	fix_pre	0		120	11.0	2.5	/experiments/Knapen_AOT/AOT_stimuli/rescaled_final/0815_fw.mp4	0.0	110.13868045806885	1.0084357261657715
13	92.07206296920776	movie	1		284	11.0	2.5	/experiments/Knapen_AOT/AOT_stimuli/rescaled_final/0815_fw.mp4	0.0	111.14711618423462	2.492011308670044
13	92.44566345214844	pulse	1	t		11.0	2.5	/experiments/Knapen_AOT/AOT_stimuli/rescaled_final/0815_fw.mp4	0.0	111.5207166671753	
13	94.03961229324341	pulse	1	t		11.0	2.5	/experiments/Knapen_AOT/AOT_stimuli/rescaled_final/0815_fw.mp4	0.0	113.11466550827026	
13	94.56407427787781	fix_post	2		12	11.0	2.5	/experiments/Knapen_AOT/AOT_stimuli/rescaled_final/0815_fw.mp4	0.0	113.63912749290466	0.10006475448608398
14	94.66413903236389	fix_pre	0		118	12.0	2.5	/experiments/Knapen_AOT/AOT_stimuli/rescaled_final/2028_fw.mp4	0.0	113.73919224739075	0.9917831420898438
14	95.63962244987488	pulse	0	t		12.0	2.5	/experiments/Knapen_AOT/AOT_stimuli/rescaled_final/2028_fw.mp4	0.0	114.71467566490173	
14	95.65592217445374	movie	1		289	12.0	2.5	/experiments/Knapen_AOT/AOT_stimuli/rescaled_final/2028_fw.mp4	0.0	114.73097538948059	2.5003726482391357
14	97.24834823608398	pulse	1	t		12.0	2.5	/experiments/Knapen_AOT/AOT_stimuli/rescaled_final/2028_fw.mp4	0.0	116.32340145111084	
14	98.15629482269287	fix_post	2		12	12.0	2.5	/experiments/Knapen_AOT/AOT_stimuli/rescaled_final/2028_fw.mp4	0.0	117.23134803771973	0.10009169578552246
15	98.2563865184784	fix_pre	0		120	13.0	2.5	blank	1.0	117.33143973350525	1.000072956085205
15	98.8399121761322	pulse	0	t		13.0	2.5	blank	1.0	117.91496539115906	
15	99.2564594745636	movie	1		300	13.0	2.5	blank	1.0	118.33151268959045	2.500368356704712
15	100.44026780128479	pulse	1	t		13.0	2.5	blank	1.0	119.51532101631165	
15	101.75682783126831	fix_post	2		12	13.0	2.5	blank	1.0	120.83188104629517	0.10001564025878906
16	101.8568434715271	fix_pre	0		120	14.0	2.5	/experiments/Knapen_AOT/AOT_stimuli/rescaled_final/2062_fw.mp4	0.0	120.93189668655396	1.0086078643798828
16	102.04043483734131	pulse	0	t		14.0	2.5	/experiments/Knapen_AOT/AOT_stimuli/rescaled_final/2062_fw.mp4	0.0	121.11548805236816	
16	102.86545133590698	movie	1		286	14.0	2.5	/experiments/Knapen_AOT/AOT_stimuli/rescaled_final/2062_fw.mp4	0.0	121.94050455093384	2.4919519424438477
16	103.64068698883057	pulse	1	t		14.0	2.5	/experiments/Knapen_AOT/AOT_stimuli/rescaled_final/2062_fw.mp4	0.0	122.71574020385742	
16	105.24090266227722	pulse	1	t		14.0	2.5	/experiments/Knapen_AOT/AOT_stimuli/rescaled_final/2062_fw.mp4	0.0	124.31595587730408	
16	105.35740327835083	fix_post	2		12	14.0	2.5	/experiments/Knapen_AOT/AOT_stimuli/rescaled_final/2062_fw.mp4	0.0	124.43245649337769	0.09999203681945801
17	105.45739531517029	fix_pre	0		120	15.0	2.5	/experiments/Knapen_AOT/AOT_stimuli/rescaled_final/1845_fw.mp4	0.0	124.53244853019714	1.0084965229034424
17	106.46589183807373	movie	1		280	15.0	2.5	/experiments/Knapen_AOT/AOT_stimuli/rescaled_final/1845_fw.mp4	0.0	125.54094505310059	2.492013931274414
17	106.84114813804626	pulse	1	t		15.0	2.5	/experiments/Knapen_AOT/AOT_stimuli/rescaled_final/1845_fw.mp4	0.0	125.91620135307312	
17	108.44017744064331	pulse	1	t		15.0	2.5	/experiments/Knapen_AOT/AOT_stimuli/rescaled_final/1845_fw.mp4	0.0	127.51523065567017	
17	108.95790576934814	fix_post	2		12	15.0	2.5	/experiments/Knapen_AOT/AOT_stimuli/rescaled_final/1845_fw.mp4	0.0	128.032958984375	0.10010695457458496
18	109.05801272392273	fix_pre	0		119	16.0	2.5	/experiments/Knapen_AOT/AOT_stimuli/rescaled_final/1427_fw.mp4	0.0	128.13306593894958	1.0001299381256104
18	110.0416624546051	pulse	0	t		16.0	2.5	/experiments/Knapen_AOT/AOT_stimuli/rescaled_final/1427_fw.mp4	0.0	129.11671566963196	
18	110.05814266204834	movie	1		281	16.0	2.5	/experiments/Knapen_AOT/AOT_stimuli/rescaled_final/1427_fw.mp4	0.0	129.1331958770752	2.5003254413604736
18	111.6421058177948	pulse	1	t		16.0	2.5	/experiments/Knapen_AOT/AOT_stimuli/rescaled_final/1427_fw.mp4	0.0	130.71715903282166	
18	112.55846810340881	fix_post	2		12	16.0	2.5	/experiments/Knapen_AOT/AOT_stimuli/rescaled_final/1427_fw.mp4	0.0	131.63352131843567	0.10005331039428711
19	112.6585214138031	fix_pre	0		120	17.0	2.5	/experiments/Knapen_AOT/AOT_stimuli/rescaled_final/0548_fw.mp4	0.0	131.73357462882996	1.0084619522094727
19	113.24213862419128	pulse	0	t		17.0	2.5	/experiments/Knapen_AOT/AOT_stimuli/rescaled_final/0548_fw.mp4	0.0	132.31719183921814	
19	113.66698336601257	movie	1		289	17.0	2.5	/experiments/Knapen_AOT/AOT_stimuli/rescaled_final/0548_fw.mp4	0.0	132.74203658103943	2.4920411109924316
19	114.8409686088562	pulse	1	t		17.0	2.5	/experiments/Knapen_AOT/AOT_stimuli/rescaled_final/0548_fw.mp4	0.0	133.91602182388306	
19	116.159024477005	fix_post	2		12	17.0	2.5	/experiments/Knapen_AOT/AOT_stimuli/rescaled_final/0548_fw.mp4	0.0	135.23407769203186	0.10004115104675293
20	116.25906562805176	fix_pre	0		120	18.0	2.5	/experiments/Knapen_AOT/AOT_stimuli/rescaled_final/1004_rv.mp4	0.0	135.3341188430786	1.0084879398345947
20	116.44259071350098	pulse	0	t		18.0	2.5	/experiments/Knapen_AOT/AOT_stimuli/rescaled_final/1004_rv.mp4	0.0	135.51764392852783	
20	117.26755356788635	movie	1		293	18.0	2.5	/experiments/Knapen_AOT/AOT_stimuli/rescaled_final/1004_rv.mp4	0.0	136.3426067829132	2.491964101791382
20	118.04104423522949	pulse	1	t		18.0	2.5	/experiments/Knapen_AOT/AOT_stimuli/rescaled_final/1004_rv.mp4	0.0	137.11609745025635	
20	119.64097213745117	pulse	1	t		18.0	2.5	/experiments/Knapen_AOT/AOT_stimuli/rescaled_final/1004_rv.mp4	0.0	138.71602535247803	
20	119.75951766967773	fix_post	2		12	18.0	2.5	/experiments/Knapen_AOT/AOT_stimuli/rescaled_final/1004_rv.mp4	0.0	138.8345708847046	0.10003519058227539
21	119.85955286026001	fix_pre	0		120	19.0	2.5	blank	1.0	138.93460607528687	1.0002052783966064
21	120.85975813865662	movie	1		300	19.0	2.5	blank	1.0	139.93481135368347	2.500328540802002
21	121.24333119392395	pulse	1	t		19.0	2.5	blank	1.0	140.3183844089508	
21	122.84352612495422	pulse	1	t		19.0	2.5	blank	1.0	141.91857933998108	
21	123.36008667945862	fix_post	2		12	19.0	2.5	blank	1.0	142.43513989448547	0.10004544258117676
22	123.4601321220398	fix_pre	0		119	20.0	2.5	/experiments/Knapen_AOT/AOT_stimuli/rescaled_final/0504_rv.mp4	0.0	142.53518533706665	1.0001578330993652
22	124.44391298294067	pulse	0	t		20.0	2.5	/experiments/Knapen_AOT/AOT_stimuli/rescaled_final/0504_rv.mp4	0.0	143.51896619796753	
22	124.46028995513916	movie	1		289	20.0	2.5	/experiments/Knapen_AOT/AOT_stimuli/rescaled_final/0504_rv.mp4	0.0	143.53534317016602	2.5003209114074707
22	126.04285335540771	pulse	1	t		20.0	2.5	/experiments/Knapen_AOT/AOT_stimuli/rescaled_final/0504_rv.mp4	0.0	145.11790657043457	
22	126.96061086654663	fix_post	2		12	20.0	2.5	/experiments/Knapen_AOT/AOT_stimuli/rescaled_final/0504_rv.mp4	0.0	146.0356640815735	0.10002613067626953
23	127.0606369972229	fix_pre	0		120	21.0	2.5	/experiments/Knapen_AOT/AOT_stimuli/rescaled_final/0674_fw.mp4	0.0	146.13569021224976	1.0085647106170654
23	127.64430212974548	pulse	0	t		21.0	2.5	/experiments/Knapen_AOT/AOT_stimuli/rescaled_final/0674_fw.mp4	0.0	146.71935534477234	
23	128.06920170783997	movie	1		290	21.0	2.5	/experiments/Knapen_AOT/AOT_stimuli/rescaled_final/0674_fw.mp4	0.0	147.14425492286682	2.491946220397949
23	129.24304175376892	pulse	1	t		21.0	2.5	/experiments/Knapen_AOT/AOT_stimuli/rescaled_final/0674_fw.mp4	0.0	148.31809496879578	
23	130.56114792823792	fix_post	2		12	21.0	2.5	/experiments/Knapen_AOT/AOT_stimuli/rescaled_final/0674_fw.mp4	0.0	149.63620114326477	0.10009932518005371
24	130.66124725341797	fix_pre	0		120	22.0	2.5	/experiments/Knapen_AOT/AOT_stimuli/rescaled_final/1949_rv.mp4	0.0	149.73630046844482	1.0084524154663086
24	130.84477496147156	pulse	0	t		22.0	2.5	/experiments/Knapen_AOT/AOT_stimuli/rescaled_final/1949_rv.mp4	0.0	149.9198281764984	
24	131.66969966888428	movie	1		271	22.0	2.5	/experiments/Knapen_AOT/AOT_stimuli/rescaled_final/1949_rv.mp4	0.0	150.74475288391113	2.4919912815093994
24	132.44303059577942	pulse	1	t		22.0	2.5	/experiments/Knapen_AOT/AOT_stimuli/rescaled_final/1949_rv.mp4	0.0	151.51808381080627	
24	134.04300379753113	pulse	1	t		22.0	2.5	/experiments/Knapen_AOT/AOT_stimuli/rescaled_final/1949_rv.mp4	0.0	153.11805701255798	
24	134.16169095039368	fix_post	2		12	22.0	2.5	/experiments/Knapen_AOT/AOT_stimuli/rescaled_final/1949_rv.mp4	0.0	153.23674416542053	0.10004472732543945
25	134.26173567771912	fix_pre	0		120	23.0	2.5	/experiments/Knapen_AOT/AOT_stimuli/rescaled_final/1091_rv.mp4	0.0	153.33678889274597	1.008514642715454
25	135.27025032043457	movie	1		284	23.0	2.5	/experiments/Knapen_AOT/AOT_stimuli/rescaled_final/1091_rv.mp4	0.0	154.34530353546143	2.4919888973236084
25	135.64387154579163	pulse	1	t		23.0	2.5	/experiments/Knapen_AOT/AOT_stimuli/rescaled_final/1091_rv.mp4	0.0	154.71892476081848	
25	137.2440664768219	pulse	1	t		23.0	2.5	/experiments/Knapen_AOT/AOT_stimuli/rescaled_final/1091_rv.mp4	0.0	156.31911969184875	
25	137.76223921775818	fix_post	2		12	23.0	2.5	/experiments/Knapen_AOT/AOT_stimuli/rescaled_final/1091_rv.mp4	0.0	156.83729243278503	0.10007548332214355
26	137.86231470108032	fix_pre	0		119	24.0	2.5	/experiments/Knapen_AOT/AOT_stimuli/rescaled_final/1785_rv.mp4	0.0	156.93736791610718	1.0000524520874023
26	138.84633040428162	pulse	0	t		24.0	2.5	/experiments/Knapen_AOT/AOT_stimuli/rescaled_final/1785_rv.mp4	0.0	157.92138361930847	
26	138.86236715316772	movie	1		280	24.0	2.5	/experiments/Knapen_AOT/AOT_stimuli/rescaled_final/1785_rv.mp4	0.0	157.93742036819458	2.500450372695923
26	140.4456865787506	pulse	1	t		24.0	2.5	/experiments/Knapen_AOT/AOT_stimuli/rescaled_final/1785_rv.mp4	0.0	159.52073979377747	
26	141.36281752586365	fix_post	2		12	24.0	2.5	/experiments/Knapen_AOT/AOT_stimuli/rescaled_final/1785_rv.mp4	0.0	160.4378707408905	0.10004329681396484
27	141.4628608226776	fix_pre	0		120	25.0	2.5	/experiments/Knapen_AOT/AOT_stimuli/rescaled_final/2134_fw.mp4	0.0	160.53791403770447	1.0084917545318604
27	142.04643774032593	pulse	0	t		25.0	2.5	/experiments/Knapen_AOT/AOT_stimuli/rescaled_final/2134_fw.mp4	0.0	161.12149095535278	
27	142.47135257720947	movie	1		281	25.0	2.5	/experiments/Knapen_AOT/AOT_stimuli/rescaled_final/2134_fw.mp4	0.0	161.54640579223633	2.491971969604492
27	143.64509916305542	pulse	1	t		25.0	2.5	/experiments/Knapen_AOT/AOT_stimuli/rescaled_final/2134_fw.mp4	0.0	162.72015237808228	
27	144.96332454681396	fix_post	2		12	25.0	2.5	/experiments/Knapen_AOT/AOT_stimuli/rescaled_final/2134_fw.mp4	0.0	164.03837776184082	0.1001286506652832
28	145.06345319747925	fix_pre	0		120	26.0	2.5	/experiments/Knapen_AOT/AOT_stimuli/rescaled_final/0329_rv.mp4	0.0	164.1385064125061	1.0083839893341064
28	145.24690508842468	pulse	0	t		26.0	2.5	/experiments/Knapen_AOT/AOT_stimuli/rescaled_final/0329_rv.mp4	0.0	164.32195830345154	
28	146.07183718681335	movie	1		279	26.0	2.5	/experiments/Knapen_AOT/AOT_stimuli/rescaled_final/0329_rv.mp4	0.0	165.1468904018402	2.4920222759246826
28	146.8454303741455	pulse	1	t		26.0	2.5	/experiments/Knapen_AOT/AOT_stimuli/rescaled_final/0329_rv.mp4	0.0	165.92048358917236	
28	148.44571924209595	pulse	1	t		26.0	2.5	/experiments/Knapen_AOT/AOT_stimuli/rescaled_final/0329_rv.mp4	0.0	167.5207724571228	
28	148.56385946273804	fix_post	2		12	26.0	2.5	/experiments/Knapen_AOT/AOT_stimuli/rescaled_final/0329_rv.mp4	0.0	167.6389126777649	0.09999203681945801
29	148.6638514995575	fix_pre	0		120	27.0	2.5	blank	1.0	167.73890471458435	1.000192403793335
29	149.66404390335083	movie	1		300	27.0	2.5	blank	1.0	168.73909711837769	2.5003652572631836
29	150.04779982566833	pulse	1	t		27.0	2.5	blank	1.0	169.1228530406952	
29	151.64000010490417	pulse	1	t		27.0	2.5	blank	1.0	170.71505331993103	
29	152.164409160614	fix_post	2		12	27.0	2.5	blank	1.0	171.23946237564087	0.1000523567199707
30	152.26446151733398	fix_pre	0		118	28.0	2.5	/experiments/Knapen_AOT/AOT_stimuli/rescaled_final/1366_fw.mp4	0.0	171.33951473236084	0.9917910099029541
30	153.2399365901947	pulse	0	t		28.0	2.5	/experiments/Knapen_AOT/AOT_stimuli/rescaled_final/1366_fw.mp4	0.0	172.31498980522156	
30	153.25625252723694	movie	1		277	28.0	2.5	/experiments/Knapen_AOT/AOT_stimuli/rescaled_final/1366_fw.mp4	0.0	172.3313057422638	2.5004096031188965
30	154.84002375602722	pulse	1	t		28.0	2.5	/experiments/Knapen_AOT/AOT_stimuli/rescaled_final/1366_fw.mp4	0.0	173.91507697105408	
30	155.75666213035583	fix_post	2		12	28.0	2.5	/experiments/Knapen_AOT/AOT_stimuli/rescaled_final/1366_fw.mp4	0.0	174.8317153453827	0.09999942779541016
31	155.85666155815125	fix_pre	0		120	29.0	2.5	/experiments/Knapen_AOT/AOT_stimuli/rescaled_final/1643_rv.mp4	0.0	174.9317147731781	1.0084993839263916
31	156.44041562080383	pulse	0	t		29.0	2.5	/experiments/Knapen_AOT/AOT_stimuli/rescaled_final/1643_rv.mp4	0.0	175.5154688358307	
31	156.86516094207764	movie	1		283	29.0	2.5	/experiments/Knapen_AOT/AOT_stimuli/rescaled_final/1643_rv.mp4	0.0	175.9402141571045	2.491983413696289
31	158.04071021080017	pulse	1	t		29.0	2.5	/experiments/Knapen_AOT/AOT_stimuli/rescaled_final/1643_rv.mp4	0.0	177.11576342582703	
31	159.35714435577393	fix_post	2		12	29.0	2.5	/experiments/Knapen_AOT/AOT_stimuli/rescaled_final/1643_rv.mp4	0.0	178.43219757080078	0.09998965263366699
32	159.4571340084076	fix_pre	0		120	30.0	2.5	/experiments/Knapen_AOT/AOT_stimuli/rescaled_final/1266_rv.mp4	0.0	178.53218722343445	1.0085465908050537
32	159.64081859588623	pulse	0	t		30.0	2.5	/experiments/Knapen_AOT/AOT_stimuli/rescaled_final/1266_rv.mp4	0.0	178.7158718109131	
32	160.46568059921265	movie	1		290	30.0	2.5	/experiments/Knapen_AOT/AOT_stimuli/rescaled_final/1266_rv.mp4	0.0	179.5407338142395	2.492009401321411
32	161.24103593826294	pulse	1	t		30.0	2.5	/experiments/Knapen_AOT/AOT_stimuli/rescaled_final/1266_rv.mp4	0.0	180.3160891532898	
32	162.84123134613037	pulse	1	t		30.0	2.5	/experiments/Knapen_AOT/AOT_stimuli/rescaled_final/1266_rv.mp4	0.0	181.91628456115723	
32	162.95769000053406	fix_post	2		12	30.0	2.5	/experiments/Knapen_AOT/AOT_stimuli/rescaled_final/1266_rv.mp4	0.0	182.0327432155609	0.1000821590423584
33	163.05777215957642	fix_pre	0		120	31.0	2.5	/experiments/Knapen_AOT/AOT_stimuli/rescaled_final/2049_rv.mp4	0.0	182.13282537460327	1.008558750152588
33	164.066330909729	movie	1		282	31.0	2.5	/experiments/Knapen_AOT/AOT_stimuli/rescaled_final/2049_rv.mp4	0.0	183.14138412475586	2.491912841796875
33	164.44001483917236	pulse	1	t		31.0	2.5	/experiments/Knapen_AOT/AOT_stimuli/rescaled_final/2049_rv.mp4	0.0	183.51506805419922	
33	166.04167699813843	pulse	1	t		31.0	2.5	/experiments/Knapen_AOT/AOT_stimuli/rescaled_final/2049_rv.mp4	0.0	185.11673021316528	
33	166.55824375152588	fix_post	2		12	31.0	2.5	/experiments/Knapen_AOT/AOT_stimuli/rescaled_final/2049_rv.mp4	0.0	185.63329696655273	0.10005545616149902
34	166.65829920768738	fix_pre	0		119	32.0	2.5	/experiments/Knapen_AOT/AOT_stimuli/rescaled_final/0459_rv.mp4	0.0	185.73335242271423	1.0002763271331787
34	167.6422312259674	pulse	0	t		32.0	2.5	/experiments/Knapen_AOT/AOT_stimuli/rescaled_final/0459_rv.mp4	0.0	186.71728444099426	
34	167.65857553482056	movie	1		289	32.0	2.5	/experiments/Knapen_AOT/AOT_stimuli/rescaled_final/0459_rv.mp4	0.0	186.7336287498474	2.500253915786743
34	169.2407248020172	pulse	1	t		32.0	2.5	/experiments/Knapen_AOT/AOT_stimuli/rescaled_final/0459_rv.mp4	0.0	188.31577801704407	
34	170.1588294506073	fix_post	2		12	32.0	2.5	/experiments/Knapen_AOT/AOT_stimuli/rescaled_final/0459_rv.mp4	0.0	189.23388266563416	0.10003542900085449
35	170.25886487960815	fix_pre	0		120	33.0	2.5	blank	1.0	189.333918094635	1.0000543594360352
35	170.8431978225708	pulse	0	t		33.0	2.5	blank	1.0	189.91825103759766	
35	171.2589192390442	movie	1		300	33.0	2.5	blank	1.0	190.33397245407104	2.5003886222839355
35	172.44301962852478	pulse	1	t		33.0	2.5	blank	1.0	191.51807284355164	
35	173.75930786132812	fix_post	2		12	33.0	2.5	blank	1.0	192.83436107635498	0.10016584396362305
36	173.85947370529175	fix_pre	0		120	34.0	2.5	/experiments/Knapen_AOT/AOT_stimuli/rescaled_final/1507_rv.mp4	0.0	192.9345269203186	1.0083603858947754
36	174.0429129600525	pulse	0	t		34.0	2.5	/experiments/Knapen_AOT/AOT_stimuli/rescaled_final/1507_rv.mp4	0.0	193.11796617507935	
36	174.86783409118652	movie	1		284	34.0	2.5	/experiments/Knapen_AOT/AOT_stimuli/rescaled_final/1507_rv.mp4	0.0	193.94288730621338	2.4920239448547363
36	175.64142370224	pulse	1	t		34.0	2.5	/experiments/Knapen_AOT/AOT_stimuli/rescaled_final/1507_rv.mp4	0.0	194.71647691726685	
36	177.24116373062134	pulse	1	t		34.0	2.5	/experiments/Knapen_AOT/AOT_stimuli/rescaled_final/1507_rv.mp4	0.0	196.3162169456482	
36	177.35985803604126	fix_post	2		12	34.0	2.5	/experiments/Knapen_AOT/AOT_stimuli/rescaled_final/1507_rv.mp4	0.0	196.43491125106812	0.1001732349395752
37	177.46003127098083	fix_pre	0		120	35.0	2.5	/experiments/Knapen_AOT/AOT_stimuli/rescaled_final/0927_rv.mp4	0.0	196.5350844860077	1.008448600769043
37	178.46847987174988	movie	1		280	35.0	2.5	/experiments/Knapen_AOT/AOT_stimuli/rescaled_final/0927_rv.mp4	0.0	197.54353308677673	2.4919183254241943
37	178.84342122077942	pulse	1	t		35.0	2.5	/experiments/Knapen_AOT/AOT_stimuli/rescaled_final/0927_rv.mp4	0.0	197.91847443580627	
37	180.4416379928589	pulse	1	t		35.0	2.5	/experiments/Knapen_AOT/AOT_stimuli/rescaled_final/0927_rv.mp4	0.0	199.51669120788574	
37	180.96039819717407	fix_post	2		12	35.0	2.5	/experiments/Knapen_AOT/AOT_stimuli/rescaled_final/0927_rv.mp4	0.0	200.03545141220093	0.10013222694396973
38	181.06053042411804	fix_pre	0		119	36.0	2.5	/experiments/Knapen_AOT/AOT_stimuli/rescaled_final/1085_fw.mp4	0.0	200.1355836391449	1.0000150203704834
38	182.04423356056213	pulse	0	t		36.0	2.5	/experiments/Knapen_AOT/AOT_stimuli/rescaled_final/1085_fw.mp4	0.0	201.119286775589	
38	182.06054544448853	movie	1		281	36.0	2.5	/experiments/Knapen_AOT/AOT_stimuli/rescaled_final/1085_fw.mp4	0.0	201.13559865951538	2.5005228519439697
38	183.64300870895386	pulse	1	t		36.0	2.5	/experiments/Knapen_AOT/AOT_stimuli/rescaled_final/1085_fw.mp4	0.0	202.7180619239807	
38	184.5610682964325	fix_post	2		12	36.0	2.5	/experiments/Knapen_AOT/AOT_stimuli/rescaled_final/1085_fw.mp4	0.0	203.63612151145935	0.09993267059326172
39	184.66100096702576	fix_pre	0		120	37.0	2.5	/experiments/Knapen_AOT/AOT_stimuli/rescaled_final/0844_fw.mp4	0.0	203.7360541820526	1.0084617137908936
39	185.24464464187622	pulse	0	t		37.0	2.5	/experiments/Knapen_AOT/AOT_stimuli/rescaled_final/0844_fw.mp4	0.0	204.31969785690308	
39	185.66946268081665	movie	1		279	37.0	2.5	/experiments/Knapen_AOT/AOT_stimuli/rescaled_final/0844_fw.mp4	0.0	204.7445158958435	2.4920156002044678
39	186.84348249435425	pulse	1	t		37.0	2.5	/experiments/Knapen_AOT/AOT_stimuli/rescaled_final/0844_fw.mp4	0.0	205.9185357093811	
39	188.16147828102112	fix_post	2		12	37.0	2.5	/experiments/Knapen_AOT/AOT_stimuli/rescaled_final/0844_fw.mp4	0.0	207.23653149604797	0.1001124382019043
40	188.26159071922302	fix_pre	0		120	38.0	2.5	/experiments/Knapen_AOT/AOT_stimuli/rescaled_final/1900_fw.mp4	0.0	207.33664393424988	1.008441686630249
40	188.44519305229187	pulse	0	t		38.0	2.5	/experiments/Knapen_AOT/AOT_stimuli/rescaled_final/1900_fw.mp4	0.0	207.52024626731873	
40	189.27003240585327	movie	1		280	38.0	2.5	/experiments/Knapen_AOT/AOT_stimuli/rescaled_final/1900_fw.mp4	0.0	208.34508562088013	2.4919915199279785
40	190.0436885356903	pulse	1	t		38.0	2.5	/experiments/Knapen_AOT/AOT_stimuli/rescaled_final/1900_fw.mp4	0.0	209.11874175071716	
40	191.64377975463867	pulse	1	t		38.0	2.5	/experiments/Knapen_AOT/AOT_stimuli/rescaled_final/1900_fw.mp4	0.0	210.71883296966553	
40	191.76202392578125	fix_post	2		12	38.0	2.5	/experiments/Knapen_AOT/AOT_stimuli/rescaled_final/1900_fw.mp4	0.0	210.8370771408081	0.10011982917785645
41	191.8621437549591	fix_pre	0		120	39.0	2.5	/experiments/Knapen_AOT/AOT_stimuli/rescaled_final/2081_fw.mp4	0.0	210.93719696998596	1.0084466934204102
41	192.87059044837952	movie	1		280	39.0	2.5	/experiments/Knapen_AOT/AOT_stimuli/rescaled_final/2081_fw.mp4	0.0	211.94564366340637	2.491957187652588
41	193.2459590435028	pulse	1	t		39.0	2.5	/experiments/Knapen_AOT/AOT_stimuli/rescaled_final/2081_fw.mp4	0.0	212.32101225852966	
41	194.84403109550476	pulse	1	t		39.0	2.5	/experiments/Knapen_AOT/AOT_stimuli/rescaled_final/2081_fw.mp4	0.0	213.91908431053162	
41	195.3625476360321	fix_post	2		12	39.0	2.5	/experiments/Knapen_AOT/AOT_stimuli/rescaled_final/2081_fw.mp4	0.0	214.43760085105896	0.10008931159973145
42	195.46263694763184	fix_pre	0		119	40.0	2.5	blank	1.0	214.5376901626587	0.9917964935302734
42	196.446457862854	pulse	0	t		40.0	2.5	blank	1.0	215.52151107788086	
42	196.4544334411621	movie	1		301	40.0	2.5	blank	1.0	215.52948665618896	2.508751153945923
42	198.04656720161438	pulse	1	t		40.0	2.5	blank	1.0	217.12162041664124	
42	198.96318459510803	fix_post	2		12	40.0	2.5	blank	1.0	218.0382378101349	0.09998273849487305
43	199.0631673336029	fix_pre	0		120	41.0	2.5	/experiments/Knapen_AOT/AOT_stimuli/rescaled_final/1397_rv.mp4	0.0	218.13822054862976	1.0084333419799805
43	199.64688968658447	pulse	0	t		41.0	2.5	/experiments/Knapen_AOT/AOT_stimuli/rescaled_final/1397_rv.mp4	0.0	218.72194290161133	
43	200.07160067558289	movie	1		274	41.0	2.5	/experiments/Knapen_AOT/AOT_stimuli/rescaled_final/1397_rv.mp4	0.0	219.14665389060974	2.4920413494110107
43	201.24586462974548	pulse	1	t		41.0	2.5	/experiments/Knapen_AOT/AOT_stimuli/rescaled_final/1397_rv.mp4	0.0	220.32091784477234	
43	202.5636420249939	fix_post	2		12	41.0	2.5	/experiments/Knapen_AOT/AOT_stimuli/rescaled_final/1397_rv.mp4	0.0	221.63869524002075	0.10006237030029297
44	202.6637043952942	fix_pre	0		120	42.0	2.5	/experiments/Knapen_AOT/AOT_stimuli/rescaled_final/1685_rv.mp4	0.0	221.73875761032104	1.0084812641143799
44	202.84745287895203	pulse	0	t		42.0	2.5	/experiments/Knapen_AOT/AOT_stimuli/rescaled_final/1685_rv.mp4	0.0	221.92250609397888	
44	203.67218565940857	movie	1		283	42.0	2.5	/experiments/Knapen_AOT/AOT_stimuli/rescaled_final/1685_rv.mp4	0.0	222.74723887443542	2.492004156112671
44	204.44617414474487	pulse	1	t		42.0	2.5	/experiments/Knapen_AOT/AOT_stimuli/rescaled_final/1685_rv.mp4	0.0	223.52122735977173	
44	206.0457363128662	pulse	1	t		42.0	2.5	/experiments/Knapen_AOT/AOT_stimuli/rescaled_final/1685_rv.mp4	0.0	225.12078952789307	
44	206.16418981552124	fix_post	2		12	42.0	2.5	/experiments/Knapen_AOT/AOT_stimuli/rescaled_final/1685_rv.mp4	0.0	225.2392430305481	0.10010647773742676
45	206.26429629325867	fix_pre	0		120	43.0	2.5	/experiments/Knapen_AOT/AOT_stimuli/rescaled_final/1571_rv.mp4	0.0	225.33934950828552	1.0084569454193115
45	207.27275323867798	movie	1		281	43.0	2.5	/experiments/Knapen_AOT/AOT_stimuli/rescaled_final/1571_rv.mp4	0.0	226.34780645370483	2.4919590950012207
45	207.64623022079468	pulse	1	t		43.0	2.5	/experiments/Knapen_AOT/AOT_stimuli/rescaled_final/1571_rv.mp4	0.0	226.72128343582153	
45	209.24606728553772	pulse	1	t		43.0	2.5	/experiments/Knapen_AOT/AOT_stimuli/rescaled_final/1571_rv.mp4	0.0	228.32112050056458	
45	209.7647123336792	fix_post	2		12	43.0	2.5	/experiments/Knapen_AOT/AOT_stimuli/rescaled_final/1571_rv.mp4	0.0	228.83976554870605	0.10007905960083008
46	209.86479139328003	fix_pre	0		118	44.0	2.5	/experiments/Knapen_AOT/AOT_stimuli/rescaled_final/0537_fw.mp4	0.0	228.93984460830688	0.9918110370635986
46	210.84067630767822	pulse	0	t		44.0	2.5	/experiments/Knapen_AOT/AOT_stimuli/rescaled_final/0537_fw.mp4	0.0	229.91572952270508	
46	210.85660243034363	movie	1		287	44.0	2.5	/experiments/Knapen_AOT/AOT_stimuli/rescaled_final/0537_fw.mp4	0.0	229.93165564537048	2.500333070755005
46	212.44050788879395	pulse	1	t		44.0	2.5	/experiments/Knapen_AOT/AOT_stimuli/rescaled_final/0537_fw.mp4	0.0	231.5155611038208	
46	213.35693550109863	fix_post	2		12	44.0	2.5	/experiments/Knapen_AOT/AOT_stimuli/rescaled_final/0537_fw.mp4	0.0	232.4319887161255	0.10004973411560059
47	213.45698523521423	fix_pre	0		120	45.0	2.5	/experiments/Knapen_AOT/AOT_stimuli/rescaled_final/0765_fw.mp4	0.0	232.5320384502411	1.0085580348968506
47	214.04063487052917	pulse	0	t		45.0	2.5	/experiments/Knapen_AOT/AOT_stimuli/rescaled_final/0765_fw.mp4	0.0	233.11568808555603	
47	214.46554327011108	movie	1		287	45.0	2.5	/experiments/Knapen_AOT/AOT_stimuli/rescaled_final/0765_fw.mp4	0.0	233.54059648513794	2.4919562339782715
47	215.64098024368286	pulse	1	t		45.0	2.5	/experiments/Knapen_AOT/AOT_stimuli/rescaled_final/0765_fw.mp4	0.0	234.71603345870972	
47	216.95749950408936	fix_post	2		12	45.0	2.5	/experiments/Knapen_AOT/AOT_stimuli/rescaled_final/0765_fw.mp4	0.0	236.0325527191162	0.1000216007232666
48	217.05752110481262	fix_pre	0		104	46.0	2.5	/experiments/Knapen_AOT/AOT_stimuli/rescaled_final/0239_rv.mp4	0.0	236.13257431983948	1.0085318088531494
48	217.24113249778748	pulse	0	t		46.0	2.5	/experiments/Knapen_AOT/AOT_stimuli/rescaled_final/0239_rv.mp4	0.0	236.31618571281433	
48	218.06605291366577	movie	1		281	46.0	2.5	/experiments/Knapen_AOT/AOT_stimuli/rescaled_final/0239_rv.mp4	0.0	237.14110612869263	2.491971969604492
48	218.84146237373352	pulse	1	t		46.0	2.5	/experiments/Knapen_AOT/AOT_stimuli/rescaled_final/0239_rv.mp4	0.0	237.91651558876038	
48	220.44191098213196	pulse	1	t		46.0	2.5	/experiments/Knapen_AOT/AOT_stimuli/rescaled_final/0239_rv.mp4	0.0	239.5169641971588	
48	220.55802488327026	fix_post	2		12	46.0	2.5	/experiments/Knapen_AOT/AOT_stimuli/rescaled_final/0239_rv.mp4	0.0	239.63307809829712	0.10005760192871094
49	220.65808248519897	fix_pre	0		120	47.0	2.5	/experiments/Knapen_AOT/AOT_stimuli/rescaled_final/2017_fw.mp4	0.0	239.73313570022583	1.0085101127624512
49	221.66659259796143	movie	1		283	47.0	2.5	/experiments/Knapen_AOT/AOT_stimuli/rescaled_final/2017_fw.mp4	0.0	240.74164581298828	2.4919755458831787
49	222.04203581809998	pulse	1	t		47.0	2.5	/experiments/Knapen_AOT/AOT_stimuli/rescaled_final/2017_fw.mp4	0.0	241.11708903312683	
49	223.64152073860168	pulse	1	t		47.0	2.5	/experiments/Knapen_AOT/AOT_stimuli/rescaled_final/2017_fw.mp4	0.0	242.71657395362854	
49	224.1585681438446	fix_post	2		12	47.0	2.5	/experiments/Knapen_AOT/AOT_stimuli/rescaled_final/2017_fw.mp4	0.0	243.23362135887146	0.10005044937133789
50	224.25861859321594	fix_pre	0		119	48.0	2.5	/experiments/Knapen_AOT/AOT_stimuli/rescaled_final/0494_fw.mp4	0.0	243.3336718082428	1.008493423461914
50	225.24255275726318	pulse	0	t		48.0	2.5	/experiments/Knapen_AOT/AOT_stimuli/rescaled_final/0494_fw.mp4	0.0	244.31760597229004	
50	225.26711201667786	movie	1		281	48.0	2.5	/experiments/Knapen_AOT/AOT_stimuli/rescaled_final/0494_fw.mp4	0.0	244.3421652317047	2.491983652114868
50	226.841157913208	pulse	1	t		48.0	2.5	/experiments/Knapen_AOT/AOT_stimuli/rescaled_final/0494_fw.mp4	0.0	245.91621112823486	
50	227.75909566879272	fix_post	2		12	48.0	2.5	/experiments/Knapen_AOT/AOT_stimuli/rescaled_final/0494_fw.mp4	0.0	246.83414888381958	0.10007214546203613
51	227.85916781425476	fix_pre	0		120	49.0	2.5	blank	1.0	246.93422102928162	1.0001513957977295
51	228.44284796714783	pulse	0	t		49.0	2.5	blank	1.0	247.51790118217468	
51	228.8593192100525	movie	1		300	49.0	2.5	blank	1.0	247.93437242507935	2.5003411769866943
51	230.04302430152893	pulse	1	t		49.0	2.5	blank	1.0	249.1180775165558	
51	231.35966038703918	fix_post	2		12	49.0	2.5	blank	1.0	250.43471360206604	0.1000356674194336
52	231.45969605445862	fix_pre	0		120	50.0	2.5	/experiments/Knapen_AOT/AOT_stimuli/rescaled_final/1325_rv.mp4	0.0	250.53474926948547	1.0085203647613525
52	231.64340376853943	pulse	0	t		50.0	2.5	/experiments/Knapen_AOT/AOT_stimuli/rescaled_final/1325_rv.mp4	0.0	250.71845698356628	
52	232.46821641921997	movie	1		288	50.0	2.5	/experiments/Knapen_AOT/AOT_stimuli/rescaled_final/1325_rv.mp4	0.0	251.54326963424683	2.4919514656066895
52	233.24174118041992	pulse	1	t		50.0	2.5	/experiments/Knapen_AOT/AOT_stimuli/rescaled_final/1325_rv.mp4	0.0	252.31679439544678	
52	234.84280633926392	pulse	1	t		50.0	2.5	/experiments/Knapen_AOT/AOT_stimuli/rescaled_final/1325_rv.mp4	0.0	253.91785955429077	
52	234.96016788482666	fix_post	2		12	50.0	2.5	/experiments/Knapen_AOT/AOT_stimuli/rescaled_final/1325_rv.mp4	0.0	254.03522109985352	0.10003662109375
53	235.0602045059204	fix_pre	0		120	51.0	2.5	/experiments/Knapen_AOT/AOT_stimuli/rescaled_final/0252_rv.mp4	0.0	254.13525772094727	1.0084903240203857
53	236.0686948299408	movie	1		279	51.0	2.5	/experiments/Knapen_AOT/AOT_stimuli/rescaled_final/0252_rv.mp4	0.0	255.14374804496765	2.4920308589935303
53	236.44245672225952	pulse	1	t		51.0	2.5	/experiments/Knapen_AOT/AOT_stimuli/rescaled_final/0252_rv.mp4	0.0	255.51750993728638	
53	238.04220700263977	pulse	1	t		51.0	2.5	/experiments/Knapen_AOT/AOT_stimuli/rescaled_final/0252_rv.mp4	0.0	257.1172602176666	
53	238.56072568893433	fix_post	2		12	51.0	2.5	/experiments/Knapen_AOT/AOT_stimuli/rescaled_final/0252_rv.mp4	0.0	257.6357789039612	0.10008454322814941
54	238.66081023216248	fix_pre	0		119	52.0	2.5	/experiments/Knapen_AOT/AOT_stimuli/rescaled_final/0089_rv.mp4	0.0	257.73586344718933	1.0001683235168457
54	239.64466428756714	pulse	0	t		52.0	2.5	/experiments/Knapen_AOT/AOT_stimuli/rescaled_final/0089_rv.mp4	0.0	258.719717502594	
54	239.66097855567932	movie	1		284	52.0	2.5	/experiments/Knapen_AOT/AOT_stimuli/rescaled_final/0089_rv.mp4	0.0	258.7360317707062	2.5003066062927246
54	241.24374675750732	pulse	1	t		52.0	2.5	/experiments/Knapen_AOT/AOT_stimuli/rescaled_final/0089_rv.mp4	0.0	260.3187999725342	
54	242.16128516197205	fix_post	2		12	52.0	2.5	/experiments/Knapen_AOT/AOT_stimuli/rescaled_final/0089_rv.mp4	0.0	261.2363383769989	0.10002732276916504
55	242.2613124847412	fix_pre	0		120	53.0	2.5	/experiments/Knapen_AOT/AOT_stimuli/rescaled_final/0279_rv.mp4	0.0	261.33636569976807	1.0084662437438965
55	242.84503436088562	pulse	0	t		53.0	2.5	/experiments/Knapen_AOT/AOT_stimuli/rescaled_final/0279_rv.mp4	0.0	261.9200875759125	
55	243.2697787284851	movie	1		271	53.0	2.5	/experiments/Knapen_AOT/AOT_stimuli/rescaled_final/0279_rv.mp4	0.0	262.34483194351196	2.5004405975341797
55	244.44447660446167	pulse	1	t		53.0	2.5	/experiments/Knapen_AOT/AOT_stimuli/rescaled_final/0279_rv.mp4	0.0	263.5195298194885	
55	245.7702193260193	fix_post	2		11	53.0	2.5	/experiments/Knapen_AOT/AOT_stimuli/rescaled_final/0279_rv.mp4	0.0	264.84527254104614	0.09160971641540527
56	245.8618290424347	fix_pre	0		120	54.0	2.5	/experiments/Knapen_AOT/AOT_stimuli/rescaled_final/1335_fw.mp4	0.0	264.93688225746155	1.0085430145263672
56	246.0453586578369	pulse	0	t		54.0	2.5	/experiments/Knapen_AOT/AOT_stimuli/rescaled_final/1335_fw.mp4	0.0	265.12041187286377	
56	246.87037205696106	movie	1		281	54.0	2.5	/experiments/Knapen_AOT/AOT_stimuli/rescaled_final/1335_fw.mp4	0.0	265.9454252719879	2.4919495582580566
56	247.6458547115326	pulse	1	t		54.0	2.5	/experiments/Knapen_AOT/AOT_stimuli/rescaled_final/1335_fw.mp4	0.0	266.72090792655945	
56	249.24406170845032	pulse	1	t		54.0	2.5	/experiments/Knapen_AOT/AOT_stimuli/rescaled_final/1335_fw.mp4	0.0	268.3191149234772	
56	249.36232161521912	fix_post	2		12	54.0	2.5	/experiments/Knapen_AOT/AOT_stimuli/rescaled_final/1335_fw.mp4	0.0	268.437374830246	0.10006237030029297
57	249.4623839855194	fix_pre	0		120	55.0	2.5	blank	1.0	268.53743720054626	1.0001816749572754
57	250.46256566047668	movie	1		300	55.0	2.5	blank	1.0	269.53761887550354	2.500312089920044
57	250.84610271453857	pulse	1	t		55.0	2.5	blank	1.0	269.92115592956543	
57	252.44634318351746	pulse	1	t		55.0	2.5	blank	1.0	271.5213963985443	
57	252.96287775039673	fix_post	2		12	55.0	2.5	blank	1.0	272.0379309654236	0.10006356239318848
58	253.06294131278992	fix_pre	0		119	56.0	2.5	/experiments/Knapen_AOT/AOT_stimuli/rescaled_final/1669_fw.mp4	0.0	272.1379945278168	1.000248908996582
58	254.04672145843506	pulse	0	t		56.0	2.5	/experiments/Knapen_AOT/AOT_stimuli/rescaled_final/1669_fw.mp4	0.0	273.1217746734619	
58	254.0631902217865	movie	1		275	56.0	2.5	/experiments/Knapen_AOT/AOT_stimuli/rescaled_final/1669_fw.mp4	0.0	273.13824343681335	2.5003437995910645
58	255.64642882347107	pulse	1	t		56.0	2.5	/experiments/Knapen_AOT/AOT_stimuli/rescaled_final/1669_fw.mp4	0.0	274.7214820384979	
58	256.56353402137756	fix_post	2		12	56.0	2.5	/experiments/Knapen_AOT/AOT_stimuli/rescaled_final/1669_fw.mp4	0.0	275.6385872364044	0.0999298095703125
59	256.6634638309479	fix_pre	0		120	57.0	2.5	/experiments/Knapen_AOT/AOT_stimuli/rescaled_final/0274_fw.mp4	0.0	275.73851704597473	1.0085844993591309
59	257.24713253974915	pulse	0	t		57.0	2.5	/experiments/Knapen_AOT/AOT_stimuli/rescaled_final/0274_fw.mp4	0.0	276.322185754776	
59	257.672048330307	movie	1		287	57.0	2.5	/experiments/Knapen_AOT/AOT_stimuli/rescaled_final/0274_fw.mp4	0.0	276.74710154533386	2.492018699645996
59	258.84567308425903	pulse	1	t		57.0	2.5	/experiments/Knapen_AOT/AOT_stimuli/rescaled_final/0274_fw.mp4	0.0	277.9207262992859	
59	260.164067029953	fix_post	2		12	57.0	2.5	/experiments/Knapen_AOT/AOT_stimuli/rescaled_final/0274_fw.mp4	0.0	279.23912024497986	0.1000359058380127
60	260.264102935791	fix_pre	0		120	58.0	2.5	/experiments/Knapen_AOT/AOT_stimuli/rescaled_final/0571_rv.mp4	0.0	279.33915615081787	1.0084388256072998
60	260.44020795822144	pulse	0	t		58.0	2.5	/experiments/Knapen_AOT/AOT_stimuli/rescaled_final/0571_rv.mp4	0.0	279.5152611732483	
60	261.2725417613983	movie	1		277	58.0	2.5	/experiments/Knapen_AOT/AOT_stimuli/rescaled_final/0571_rv.mp4	0.0	280.34759497642517	2.4919674396514893
60	262.03979563713074	pulse	1	t		58.0	2.5	/experiments/Knapen_AOT/AOT_stimuli/rescaled_final/0571_rv.mp4	0.0	281.1148488521576	
60	263.63988614082336	pulse	1	t		58.0	2.5	/experiments/Knapen_AOT/AOT_stimuli/rescaled_final/0571_rv.mp4	0.0	282.7149393558502	
60	263.7645092010498	fix_post	2		12	58.0	2.5	/experiments/Knapen_AOT/AOT_stimuli/rescaled_final/0571_rv.mp4	0.0	282.83956241607666	0.10018587112426758
61	263.8646950721741	fix_pre	0		120	59.0	2.5	/experiments/Knapen_AOT/AOT_stimuli/rescaled_final/0459_fw.mp4	0.0	282.9397482872009	1.0083951950073242
61	264.8730902671814	movie	1		281	59.0	2.5	/experiments/Knapen_AOT/AOT_stimuli/rescaled_final/0459_fw.mp4	0.0	283.94814348220825	2.491973876953125
61	265.23994851112366	pulse	1	t		59.0	2.5	/experiments/Knapen_AOT/AOT_stimuli/rescaled_final/0459_fw.mp4	0.0	284.3150017261505	
61	266.8404026031494	pulse	1	t		59.0	2.5	/experiments/Knapen_AOT/AOT_stimuli/rescaled_final/0459_fw.mp4	0.0	285.91545581817627	
61	267.3650641441345	fix_post	2		12	59.0	2.5	/experiments/Knapen_AOT/AOT_stimuli/rescaled_final/0459_fw.mp4	0.0	286.4401173591614	0.10018420219421387
62	267.46524834632874	fix_pre	0		118	60.0	2.5	/experiments/Knapen_AOT/AOT_stimuli/rescaled_final/1566_rv.mp4	0.0	286.5403015613556	1.0000464916229248
62	268.44059109687805	pulse	0	t		60.0	2.5	/experiments/Knapen_AOT/AOT_stimuli/rescaled_final/1566_rv.mp4	0.0	287.5156443119049	
62	268.46529483795166	movie	1		282	60.0	2.5	/experiments/Knapen_AOT/AOT_stimuli/rescaled_final/1566_rv.mp4	0.0	287.5403480529785	2.491992950439453
62	270.04079413414	pulse	1	t		60.0	2.5	/experiments/Knapen_AOT/AOT_stimuli/rescaled_final/1566_rv.mp4	0.0	289.11584734916687	
62	270.9572877883911	fix_post	2		12	60.0	2.5	/experiments/Knapen_AOT/AOT_stimuli/rescaled_final/1566_rv.mp4	0.0	290.03234100341797	0.10007715225219727
63	271.0573649406433	fix_pre	0		120	61.0	2.5	/experiments/Knapen_AOT/AOT_stimuli/rescaled_final/1496_rv.mp4	0.0	290.13241815567017	1.0084285736083984
63	271.6413223743439	pulse	0	t		61.0	2.5	/experiments/Knapen_AOT/AOT_stimuli/rescaled_final/1496_rv.mp4	0.0	290.7163755893707	
63	272.0657935142517	movie	1		282	61.0	2.5	/experiments/Knapen_AOT/AOT_stimuli/rescaled_final/1496_rv.mp4	0.0	291.14084672927856	2.4920146465301514
63	273.23964500427246	pulse	1	t		61.0	2.5	/experiments/Knapen_AOT/AOT_stimuli/rescaled_final/1496_rv.mp4	0.0	292.3146982192993	
63	274.55780816078186	fix_post	2		12	61.0	2.5	/experiments/Knapen_AOT/AOT_stimuli/rescaled_final/1496_rv.mp4	0.0	293.6328613758087	0.10005974769592285
64	274.6578679084778	fix_pre	0		119	62.0	2.5	/experiments/Knapen_AOT/AOT_stimuli/rescaled_final/1325_fw.mp4	0.0	293.73292112350464	1.008472204208374
64	274.8414115905762	pulse	0	t		62.0	2.5	/experiments/Knapen_AOT/AOT_stimuli/rescaled_final/1325_fw.mp4	0.0	293.916464805603	
64	275.66634011268616	movie	1		283	62.0	2.5	/experiments/Knapen_AOT/AOT_stimuli/rescaled_final/1325_fw.mp4	0.0	294.741393327713	2.4919779300689697
64	276.4408311843872	pulse	1	t		62.0	2.5	/experiments/Knapen_AOT/AOT_stimuli/rescaled_final/1325_fw.mp4	0.0	295.51588439941406	
64	278.0401289463043	pulse	1	t		62.0	2.5	/experiments/Knapen_AOT/AOT_stimuli/rescaled_final/1325_fw.mp4	0.0	297.1151821613312	
64	278.1583180427551	fix_post	2		12	62.0	2.5	/experiments/Knapen_AOT/AOT_stimuli/rescaled_final/1325_fw.mp4	0.0	297.233371257782	0.10007762908935547
65	278.2583956718445	fix_pre	0		120	63.0	2.5	blank	1.0	297.33344888687134	1.0001013278961182
65	279.2584969997406	movie	1		300	63.0	2.5	blank	1.0	298.33355021476746	2.500389337539673
65	279.6420865058899	pulse	1	t		63.0	2.5	blank	1.0	298.71713972091675	
65	281.24228048324585	pulse	1	t		63.0	2.5	blank	1.0	300.3173336982727	
65	281.7588863372803	fix_post	2		12	63.0	2.5	blank	1.0	300.83393955230713	0.10005545616149902
66	281.8589417934418	fix_pre	0		119	64.0	2.5	/experiments/Knapen_AOT/AOT_stimuli/rescaled_final/2131_rv.mp4	0.0	300.9339950084686	1.0001039505004883
66	282.84277725219727	pulse	0	t		64.0	2.5	/experiments/Knapen_AOT/AOT_stimuli/rescaled_final/2131_rv.mp4	0.0	301.9178304672241	
66	282.85904574394226	movie	1		286	64.0	2.5	/experiments/Knapen_AOT/AOT_stimuli/rescaled_final/2131_rv.mp4	0.0	301.9340989589691	2.500379800796509
66	284.4414656162262	pulse	1	t		64.0	2.5	/experiments/Knapen_AOT/AOT_stimuli/rescaled_final/2131_rv.mp4	0.0	303.51651883125305	
66	285.35942554473877	fix_post	2		12	64.0	2.5	/experiments/Knapen_AOT/AOT_stimuli/rescaled_final/2131_rv.mp4	0.0	304.4344787597656	0.10005760192871094
67	285.4594831466675	fix_pre	0		120	65.0	2.5	/experiments/Knapen_AOT/AOT_stimuli/rescaled_final/1645_rv.mp4	0.0	304.53453636169434	1.008504867553711
67	286.0430886745453	pulse	0	t		65.0	2.5	/experiments/Knapen_AOT/AOT_stimuli/rescaled_final/1645_rv.mp4	0.0	305.11814188957214	
67	286.4679880142212	movie	1		280	65.0	2.5	/experiments/Knapen_AOT/AOT_stimuli/rescaled_final/1645_rv.mp4	0.0	305.54304122924805	2.4920096397399902
67	287.6415412425995	pulse	1	t		65.0	2.5	/experiments/Knapen_AOT/AOT_stimuli/rescaled_final/1645_rv.mp4	0.0	306.71659445762634	
67	288.9599976539612	fix_post	2		12	65.0	2.5	/experiments/Knapen_AOT/AOT_stimuli/rescaled_final/1645_rv.mp4	0.0	308.03505086898804	0.10009217262268066
68	289.06008982658386	fix_pre	0		120	66.0	2.5	/experiments/Knapen_AOT/AOT_stimuli/rescaled_final/1366_rv.mp4	0.0	308.1351430416107	1.0084011554718018
68	289.24357295036316	pulse	0	t		66.0	2.5	/experiments/Knapen_AOT/AOT_stimuli/rescaled_final/1366_rv.mp4	0.0	308.31862616539	
68	290.06849098205566	movie	1		280	66.0	2.5	/experiments/Knapen_AOT/AOT_stimuli/rescaled_final/1366_rv.mp4	0.0	309.1435441970825	2.4920012950897217
68	290.84193658828735	pulse	1	t		66.0	2.5	/experiments/Knapen_AOT/AOT_stimuli/rescaled_final/1366_rv.mp4	0.0	309.9169898033142	
68	292.4422605037689	pulse	1	t		66.0	2.5	/experiments/Knapen_AOT/AOT_stimuli/rescaled_final/1366_rv.mp4	0.0	311.5173137187958	
68	292.5604922771454	fix_post	2		12	66.0	2.5	/experiments/Knapen_AOT/AOT_stimuli/rescaled_final/1366_rv.mp4	0.0	311.63554549217224	0.10003137588500977
69	292.6605236530304	fix_pre	0		120	67.0	2.5	/experiments/Knapen_AOT/AOT_stimuli/rescaled_final/1418_fw.mp4	0.0	311.73557686805725	1.0085337162017822
69	293.6690573692322	movie	1		255	67.0	2.5	/experiments/Knapen_AOT/AOT_stimuli/rescaled_final/1418_fw.mp4	0.0	312.74411058425903	2.4920077323913574
69	294.0443420410156	pulse	1	t		67.0	2.5	/experiments/Knapen_AOT/AOT_stimuli/rescaled_final/1418_fw.mp4	0.0	313.1193952560425	
69	295.64262533187866	pulse	1	t		67.0	2.5	/experiments/Knapen_AOT/AOT_stimuli/rescaled_final/1418_fw.mp4	0.0	314.7176785469055	
69	296.16106510162354	fix_post	2		12	67.0	2.5	/experiments/Knapen_AOT/AOT_stimuli/rescaled_final/1418_fw.mp4	0.0	315.2361183166504	0.09998416900634766
70	296.2610492706299	fix_pre	0		119	68.0	2.5	/experiments/Knapen_AOT/AOT_stimuli/rescaled_final/1314_rv.mp4	0.0	315.33610248565674	1.0001556873321533
70	297.2447929382324	pulse	0	t		68.0	2.5	/experiments/Knapen_AOT/AOT_stimuli/rescaled_final/1314_rv.mp4	0.0	316.3198461532593	
70	297.26120495796204	movie	1		287	68.0	2.5	/experiments/Knapen_AOT/AOT_stimuli/rescaled_final/1314_rv.mp4	0.0	316.3362581729889	2.5003726482391357
70	298.84338760375977	pulse	1	t		68.0	2.5	/experiments/Knapen_AOT/AOT_stimuli/rescaled_final/1314_rv.mp4	0.0	317.9184408187866	
70	299.7615776062012	fix_post	2		12	68.0	2.5	/experiments/Knapen_AOT/AOT_stimuli/rescaled_final/1314_rv.mp4	0.0	318.836630821228	0.10002684593200684
71	299.8616044521332	fix_pre	0		120	69.0	2.5	/experiments/Knapen_AOT/AOT_stimuli/rescaled_final/1571_fw.mp4	0.0	318.93665766716003	1.0085957050323486
71	300.44524097442627	pulse	0	t		69.0	2.5	/experiments/Knapen_AOT/AOT_stimuli/rescaled_final/1571_fw.mp4	0.0	319.5202941894531	
71	300.8702001571655	movie	1		263	69.0	2.5	/experiments/Knapen_AOT/AOT_stimuli/rescaled_final/1571_fw.mp4	0.0	319.9452533721924	2.491969347000122
71	302.04336404800415	pulse	1	t		69.0	2.5	/experiments/Knapen_AOT/AOT_stimuli/rescaled_final/1571_fw.mp4	0.0	321.118417263031	
71	303.36216950416565	fix_post	2		12	69.0	2.5	/experiments/Knapen_AOT/AOT_stimuli/rescaled_final/1571_fw.mp4	0.0	322.4372227191925	0.09997844696044922
72	303.4621479511261	fix_pre	0		120	70.0	2.5	blank	1.0	322.53720116615295	1.0001959800720215
72	303.645751953125	pulse	0	t		70.0	2.5	blank	1.0	322.72080516815186	
72	304.4623439311981	movie	1		300	70.0	2.5	blank	1.0	323.537397146225	2.5003621578216553
72	305.2460904121399	pulse	1	t		70.0	2.5	blank	1.0	324.32114362716675	
72	306.8461937904358	pulse	1	t		70.0	2.5	blank	1.0	325.92124700546265	
72	306.9627060890198	fix_post	2		12	70.0	2.5	blank	1.0	326.03775930404663	0.10002303123474121
73	307.0627291202545	fix_pre	0		120	71.0	2.5	/experiments/Knapen_AOT/AOT_stimuli/rescaled_final/0626_fw.mp4	0.0	326.1377823352814	1.008450984954834
73	308.07118010520935	movie	1		279	71.0	2.5	/experiments/Knapen_AOT/AOT_stimuli/rescaled_final/0626_fw.mp4	0.0	327.1462333202362	2.492051839828491
73	308.44552874565125	pulse	1	t		71.0	2.5	/experiments/Knapen_AOT/AOT_stimuli/rescaled_final/0626_fw.mp4	0.0	327.5205819606781	
73	310.04483222961426	pulse	1	t		71.0	2.5	/experiments/Knapen_AOT/AOT_stimuli/rescaled_final/0626_fw.mp4	0.0	329.1198854446411	
73	310.56323194503784	fix_post	2		12	71.0	2.5	/experiments/Knapen_AOT/AOT_stimuli/rescaled_final/0626_fw.mp4	0.0	329.6382851600647	0.10004448890686035
74	310.6632764339447	fix_pre	0		119	72.0	2.5	/experiments/Knapen_AOT/AOT_stimuli/rescaled_final/1808_rv.mp4	0.0	329.73832964897156	1.0084559917449951
74	311.64693331718445	pulse	0	t		72.0	2.5	/experiments/Knapen_AOT/AOT_stimuli/rescaled_final/1808_rv.mp4	0.0	330.7219865322113	
74	311.6717324256897	movie	1		261	72.0	2.5	/experiments/Knapen_AOT/AOT_stimuli/rescaled_final/1808_rv.mp4	0.0	330.74678564071655	2.4920263290405273
74	313.2472643852234	pulse	1	t		72.0	2.5	/experiments/Knapen_AOT/AOT_stimuli/rescaled_final/1808_rv.mp4	0.0	332.32231760025024	
74	314.1637587547302	fix_post	2		12	72.0	2.5	/experiments/Knapen_AOT/AOT_stimuli/rescaled_final/1808_rv.mp4	0.0	333.2388119697571	0.0999915599822998
75	314.2637503147125	fix_pre	0		120	73.0	2.5	/experiments/Knapen_AOT/AOT_stimuli/rescaled_final/1401_rv.mp4	0.0	333.3388035297394	1.008573293685913
75	314.84739780426025	pulse	0	t		73.0	2.5	/experiments/Knapen_AOT/AOT_stimuli/rescaled_final/1401_rv.mp4	0.0	333.9224510192871	
75	315.27232360839844	movie	1		276	73.0	2.5	/experiments/Knapen_AOT/AOT_stimuli/rescaled_final/1401_rv.mp4	0.0	334.3473768234253	2.4919660091400146
75	316.4462184906006	pulse	1	t		73.0	2.5	/experiments/Knapen_AOT/AOT_stimuli/rescaled_final/1401_rv.mp4	0.0	335.52127170562744	
75	317.76428961753845	fix_post	2		12	73.0	2.5	/experiments/Knapen_AOT/AOT_stimuli/rescaled_final/1401_rv.mp4	0.0	336.8393428325653	0.10004043579101562
76	317.86433005332947	fix_pre	0		120	74.0	2.5	/experiments/Knapen_AOT/AOT_stimuli/rescaled_final/0674_rv.mp4	0.0	336.9393832683563	1.008467674255371
76	318.0422809123993	pulse	0	t		74.0	2.5	/experiments/Knapen_AOT/AOT_stimuli/rescaled_final/0674_rv.mp4	0.0	337.11733412742615	
76	318.87279772758484	movie	1		282	74.0	2.5	/experiments/Knapen_AOT/AOT_stimuli/rescaled_final/0674_rv.mp4	0.0	337.9478509426117	2.4920382499694824
76	319.6460199356079	pulse	1	t		74.0	2.5	/experiments/Knapen_AOT/AOT_stimuli/rescaled_final/0674_rv.mp4	0.0	338.72107315063477	
76	321.24064016342163	pulse	1	t		74.0	2.5	/experiments/Knapen_AOT/AOT_stimuli/rescaled_final/0674_rv.mp4	0.0	340.3156933784485	
76	321.3648359775543	fix_post	2		12	74.0	2.5	/experiments/Knapen_AOT/AOT_stimuli/rescaled_final/0674_rv.mp4	0.0	340.4398891925812	0.10005664825439453
77	321.4648926258087	fix_pre	0		120	75.0	2.5	/experiments/Knapen_AOT/AOT_stimuli/rescaled_final/2049_fw.mp4	0.0	340.53994584083557	1.0085420608520508
77	322.47343468666077	movie	1		261	75.0	2.5	/experiments/Knapen_AOT/AOT_stimuli/rescaled_final/2049_fw.mp4	0.0	341.5484879016876	2.491947889328003
77	322.84881925582886	pulse	1	t		75.0	2.5	/experiments/Knapen_AOT/AOT_stimuli/rescaled_final/2049_fw.mp4	0.0	341.9238724708557	
77	324.4406850337982	pulse	1	t		75.0	2.5	/experiments/Knapen_AOT/AOT_stimuli/rescaled_final/2049_fw.mp4	0.0	343.5157382488251	
77	324.96538257598877	fix_post	2		12	75.0	2.5	/experiments/Knapen_AOT/AOT_stimuli/rescaled_final/2049_fw.mp4	0.0	344.0404357910156	0.10002827644348145
78	325.06541085243225	fix_pre	0		118	76.0	2.5	blank	1.0	344.1404640674591	0.9834258556365967
78	326.0407657623291	pulse	0	t		76.0	2.5	blank	1.0	345.11581897735596	
78	326.04883670806885	movie	1		301	76.0	2.5	blank	1.0	345.1238899230957	2.508734941482544
78	327.6410081386566	pulse	1	t		76.0	2.5	blank	1.0	346.7160613536835	
78	328.5575716495514	fix_post	2		12	76.0	2.5	blank	1.0	347.63262486457825	0.10005688667297363
79	328.65762853622437	fix_pre	0		120	77.0	2.5	/experiments/Knapen_AOT/AOT_stimuli/rescaled_final/1308_fw.mp4	0.0	347.7326817512512	1.0084779262542725
79	329.24126267433167	pulse	0	t		77.0	2.5	/experiments/Knapen_AOT/AOT_stimuli/rescaled_final/1308_fw.mp4	0.0	348.3163158893585	
79	329.66610646247864	movie	1		273	77.0	2.5	/experiments/Knapen_AOT/AOT_stimuli/rescaled_final/1308_fw.mp4	0.0	348.7411596775055	2.492016315460205
79	330.8421399593353	pulse	1	t		77.0	2.5	/experiments/Knapen_AOT/AOT_stimuli/rescaled_final/1308_fw.mp4	0.0	349.9171931743622	
79	332.15812277793884	fix_post	2		12	77.0	2.5	/experiments/Knapen_AOT/AOT_stimuli/rescaled_final/1308_fw.mp4	0.0	351.2331759929657	0.10000467300415039
80	332.258127450943	fix_pre	0		120	78.0	2.5	/experiments/Knapen_AOT/AOT_stimuli/rescaled_final/0706_rv.mp4	0.0	351.33318066596985	1.0084490776062012
80	332.4418969154358	pulse	0	t		78.0	2.5	/experiments/Knapen_AOT/AOT_stimuli/rescaled_final/0706_rv.mp4	0.0	351.51695013046265	
80	333.2665765285492	movie	1		278	78.0	2.5	/experiments/Knapen_AOT/AOT_stimuli/rescaled_final/0706_rv.mp4	0.0	352.34162974357605	2.492086410522461
80	334.0423791408539	pulse	1	t		78.0	2.5	/experiments/Knapen_AOT/AOT_stimuli/rescaled_final/0706_rv.mp4	0.0	353.11743235588074	
80	335.6404387950897	pulse	1	t		78.0	2.5	/experiments/Knapen_AOT/AOT_stimuli/rescaled_final/0706_rv.mp4	0.0	354.7154920101166	
80	335.75866293907166	fix_post	2		12	78.0	2.5	/experiments/Knapen_AOT/AOT_stimuli/rescaled_final/0706_rv.mp4	0.0	354.8337161540985	0.10006976127624512
81	335.8587327003479	fix_pre	0		120	79.0	2.5	/experiments/Knapen_AOT/AOT_stimuli/rescaled_final/1652_fw.mp4	0.0	354.93378591537476	1.0084543228149414
81	336.86718702316284	movie	1		277	79.0	2.5	/experiments/Knapen_AOT/AOT_stimuli/rescaled_final/1652_fw.mp4	0.0	355.9422402381897	2.49202036857605
81	337.2406985759735	pulse	1	t		79.0	2.5	/experiments/Knapen_AOT/AOT_stimuli/rescaled_final/1652_fw.mp4	0.0	356.31575179100037	
81	338.8407258987427	pulse	1	t		79.0	2.5	/experiments/Knapen_AOT/AOT_stimuli/rescaled_final/1652_fw.mp4	0.0	357.91577911376953	
81	339.3592073917389	fix_post	2		12	79.0	2.5	/experiments/Knapen_AOT/AOT_stimuli/rescaled_final/1652_fw.mp4	0.0	358.43426060676575	0.10001778602600098
82	339.4592251777649	fix_pre	0		119	80.0	2.5	/experiments/Knapen_AOT/AOT_stimuli/rescaled_final/0305_fw.mp4	0.0	358.53427839279175	1.0001349449157715
82	340.44328022003174	pulse	0	t		80.0	2.5	/experiments/Knapen_AOT/AOT_stimuli/rescaled_final/0305_fw.mp4	0.0	359.5183334350586	
82	340.45936012268066	movie	1		280	80.0	2.5	/experiments/Knapen_AOT/AOT_stimuli/rescaled_final/0305_fw.mp4	0.0	359.5344133377075	2.5089972019195557
82	342.04349541664124	pulse	1	t		80.0	2.5	/experiments/Knapen_AOT/AOT_stimuli/rescaled_final/0305_fw.mp4	0.0	361.1185486316681	
82	342.9683573246002	fix_post	2		11	80.0	2.5	/experiments/Knapen_AOT/AOT_stimuli/rescaled_final/0305_fw.mp4	0.0	362.0434105396271	0.09146308898925781
83	343.0598204135895	fix_pre	0		120	81.0	2.5	/experiments/Knapen_AOT/AOT_stimuli/rescaled_final/1411_rv.mp4	0.0	362.13487362861633	1.008436679840088
83	343.64361929893494	pulse	0	t		81.0	2.5	/experiments/Knapen_AOT/AOT_stimuli/rescaled_final/1411_rv.mp4	0.0	362.7186725139618	
83	344.06825709342957	movie	1		266	81.0	2.5	/experiments/Knapen_AOT/AOT_stimuli/rescaled_final/1411_rv.mp4	0.0	363.1433103084564	2.4920434951782227
83	345.24214363098145	pulse	1	t		81.0	2.5	/experiments/Knapen_AOT/AOT_stimuli/rescaled_final/1411_rv.mp4	0.0	364.3171968460083	
83	346.5603005886078	fix_post	2		12	81.0	2.5	/experiments/Knapen_AOT/AOT_stimuli/rescaled_final/1411_rv.mp4	0.0	365.63535380363464	0.10002732276916504
84	346.66032791137695	fix_pre	0		120	82.0	2.5	/experiments/Knapen_AOT/AOT_stimuli/rescaled_final/0555_rv.mp4	0.0	365.7353811264038	1.008467674255371
84	346.8438992500305	pulse	0	t		82.0	2.5	/experiments/Knapen_AOT/AOT_stimuli/rescaled_final/0555_rv.mp4	0.0	365.9189524650574	
84	347.6687955856323	movie	1		274	82.0	2.5	/experiments/Knapen_AOT/AOT_stimuli/rescaled_final/0555_rv.mp4	0.0	366.7438488006592	2.4920334815979004
84	348.44261956214905	pulse	1	t		82.0	2.5	/experiments/Knapen_AOT/AOT_stimuli/rescaled_final/0555_rv.mp4	0.0	367.5176727771759	
84	350.0427417755127	pulse	1	t		82.0	2.5	/experiments/Knapen_AOT/AOT_stimuli/rescaled_final/0555_rv.mp4	0.0	369.11779499053955	
84	350.1608290672302	fix_post	2		12	82.0	2.5	/experiments/Knapen_AOT/AOT_stimuli/rescaled_final/0555_rv.mp4	0.0	369.2358822822571	0.10028409957885742
85	350.2611131668091	fix_pre	0		120	83.0	2.5	blank	1.0	369.33616638183594	0.9998762607574463
85	351.2609894275665	movie	1		300	83.0	2.5	blank	1.0	370.3360426425934	2.500380277633667
85	351.64461946487427	pulse	1	t		83.0	2.5	blank	1.0	370.7196726799011	
85	353.2449381351471	pulse	1	t		83.0	2.5	blank	1.0	372.31999135017395	
85	353.7613697052002	fix_post	2		12	83.0	2.5	blank	1.0	372.83642292022705	0.10005664825439453
87	353.8614263534546	stim	0		1715					372.93647956848145	14.293767929077148
87	354.8451006412506	pulse	0	t						373.92015385627747	
87	356.44529938697815	pulse	0	t						375.520352602005	
87	358.0455152988434	pulse	0	t						377.12056851387024	
87	359.6457998752594	pulse	0	t						378.72085309028625	
87	361.24609303474426	pulse	0	t						380.3211462497711	
87	362.846239566803	pulse	0	t						381.92129278182983	
87	364.44653487205505	pulse	0	t						383.5215880870819	
87	366.04684257507324	pulse	0	t						385.1218957901001	
87	367.6470158100128	pulse	0	t						386.7220690250397	
