trial_nr	onset	event_type	phase	response	nr_frames	movie_index	movie_duration	movie_file	blank	onset_abs	duration
0	0.2084369659423828	stim	0		293					45.24733090400696	2.4418749809265137
0	2.6423728466033936	response	0	space						47.68126678466797	
1	2.6503119468688965	stim	0		5214					47.68920588493347	43.46651291847229
1	46.10675001144409	pulse	0	t						91.14564394950867	
1	46.11682486534119	stim	1		1716					91.15571880340576	14.300429105758667
1	47.69885778427124	pulse	1	t						92.73775172233582	
1	49.29920697212219	pulse	1	t						94.33810091018677	
1	50.89932680130005	pulse	1	t						95.93822073936462	
1	52.499597787857056	pulse	1	t						97.53849172592163	
1	54.09985089302063	pulse	1	t						99.1387448310852	
1	55.70000696182251	pulse	1	t						100.73890089988708	
1	57.30033588409424	pulse	1	t						102.33922982215881	
1	58.900505781173706	pulse	1	t						103.93939971923828	
2	60.41725397109985	fix_pre	0		11	0.0	2.5	/experiments/knapen_AOT/AOT_stimuli/rescaled_final/0187_rv.mp4	0.0	105.45614790916443	0.09172487258911133
2	60.500887870788574	pulse	0	t		0.0	2.5	/experiments/knapen_AOT/AOT_stimuli/rescaled_final/0187_rv.mp4	0.0	105.53978180885315	
2	60.508978843688965	movie	1		245	0.0	2.5	/experiments/knapen_AOT/AOT_stimuli/rescaled_final/0187_rv.mp4	0.0	105.54787278175354	2.5087051391601562
2	62.10565781593323	pulse	1	t		0.0	2.5	/experiments/knapen_AOT/AOT_stimuli/rescaled_final/0187_rv.mp4	0.0	107.1445517539978	
2	63.01768398284912	fix_post	2		12	0.0	2.5	/experiments/knapen_AOT/AOT_stimuli/rescaled_final/0187_rv.mp4	0.0	108.0565779209137	0.09993386268615723
3	63.11761784553528	fix_pre	0		120	1.0	2.5	/experiments/knapen_AOT/AOT_stimuli/rescaled_final/1466_rv.mp4	0.0	108.15651178359985	1.000180959701538
3	63.70138192176819	pulse	0	t		1.0	2.5	/experiments/knapen_AOT/AOT_stimuli/rescaled_final/1466_rv.mp4	0.0	108.74027585983276	
3	64.11779880523682	movie	1		243	1.0	2.5	/experiments/knapen_AOT/AOT_stimuli/rescaled_final/1466_rv.mp4	0.0	109.15669274330139	2.5003621578216553
3	65.30172181129456	pulse	1	t		1.0	2.5	/experiments/knapen_AOT/AOT_stimuli/rescaled_final/1466_rv.mp4	0.0	110.34061574935913	
3	66.61816096305847	fix_post	2		12	1.0	2.5	/experiments/knapen_AOT/AOT_stimuli/rescaled_final/1466_rv.mp4	0.0	111.65705490112305	0.10006594657897949
4	66.71822690963745	fix_pre	0		120	2.0	2.5	/experiments/knapen_AOT/AOT_stimuli/rescaled_final/0176_rv.mp4	0.0	111.75712084770203	1.0001749992370605
4	66.90171098709106	pulse	0	t		2.0	2.5	/experiments/knapen_AOT/AOT_stimuli/rescaled_final/0176_rv.mp4	0.0	111.94060492515564	
4	67.71840190887451	movie	1		243	2.0	2.5	/experiments/knapen_AOT/AOT_stimuli/rescaled_final/0176_rv.mp4	0.0	112.75729584693909	2.500354051589966
4	68.50198483467102	pulse	1	t		2.0	2.5	/experiments/knapen_AOT/AOT_stimuli/rescaled_final/0176_rv.mp4	0.0	113.5408787727356	
4	70.10251379013062	pulse	1	t		2.0	2.5	/experiments/knapen_AOT/AOT_stimuli/rescaled_final/0176_rv.mp4	0.0	115.14140772819519	
4	70.21875596046448	fix_post	2		12	2.0	2.5	/experiments/knapen_AOT/AOT_stimuli/rescaled_final/0176_rv.mp4	0.0	115.25764989852905	0.09993886947631836
5	70.3186948299408	fix_pre	0		120	3.0	2.5	/experiments/knapen_AOT/AOT_stimuli/rescaled_final/0446_fw.mp4	0.0	115.35758876800537	1.000154972076416
5	71.31884980201721	movie	1		243	3.0	2.5	/experiments/knapen_AOT/AOT_stimuli/rescaled_final/0446_fw.mp4	0.0	116.35774374008179	2.4920480251312256
5	71.70681285858154	pulse	1	t		3.0	2.5	/experiments/knapen_AOT/AOT_stimuli/rescaled_final/0446_fw.mp4	0.0	116.74570679664612	
5	73.30274701118469	pulse	1	t		3.0	2.5	/experiments/knapen_AOT/AOT_stimuli/rescaled_final/0446_fw.mp4	0.0	118.34164094924927	
5	73.81089782714844	fix_post	2		12	3.0	2.5	/experiments/knapen_AOT/AOT_stimuli/rescaled_final/0446_fw.mp4	0.0	118.84979176521301	0.10001802444458008
6	73.91091585159302	fix_pre	0		120	4.0	2.5	/experiments/knapen_AOT/AOT_stimuli/rescaled_final/1341_fw.mp4	0.0	118.94980978965759	1.0002100467681885
6	74.90291786193848	pulse	0	t		4.0	2.5	/experiments/knapen_AOT/AOT_stimuli/rescaled_final/1341_fw.mp4	0.0	119.94181180000305	
6	74.9111258983612	movie	1		245	4.0	2.5	/experiments/knapen_AOT/AOT_stimuli/rescaled_final/1341_fw.mp4	0.0	119.95001983642578	2.5086159706115723
6	76.50381684303284	pulse	1	t		4.0	2.5	/experiments/knapen_AOT/AOT_stimuli/rescaled_final/1341_fw.mp4	0.0	121.54271078109741	
6	77.41974186897278	fix_post	2		12	4.0	2.5	/experiments/knapen_AOT/AOT_stimuli/rescaled_final/1341_fw.mp4	0.0	122.45863580703735	0.10013794898986816
7	77.51987981796265	fix_pre	0		120	5.0	2.5	blank	1.0	122.55877375602722	1.0000791549682617
7	78.10350584983826	pulse	0	t		5.0	2.5	blank	1.0	123.14239978790283	
7	78.51995897293091	movie	1		300	5.0	2.5	blank	1.0	123.55885291099548	2.500351905822754
7	79.70369982719421	pulse	1	t		5.0	2.5	blank	1.0	124.74259376525879	
7	81.02031087875366	fix_post	2		12	5.0	2.5	blank	1.0	126.05920481681824	0.10000300407409668
8	81.12031388282776	fix_pre	0		120	6.0	2.5	/experiments/knapen_AOT/AOT_stimuli/rescaled_final/0093_fw.mp4	0.0	126.15920782089233	1.0001931190490723
8	81.30388283729553	pulse	0	t		6.0	2.5	/experiments/knapen_AOT/AOT_stimuli/rescaled_final/0093_fw.mp4	0.0	126.34277677536011	
8	82.12050700187683	movie	1		245	6.0	2.5	/experiments/knapen_AOT/AOT_stimuli/rescaled_final/0093_fw.mp4	0.0	127.1594009399414	2.500351905822754
8	82.90422582626343	pulse	1	t		6.0	2.5	/experiments/knapen_AOT/AOT_stimuli/rescaled_final/0093_fw.mp4	0.0	127.943119764328	
8	84.49694395065308	pulse	1	t		6.0	2.5	/experiments/knapen_AOT/AOT_stimuli/rescaled_final/0093_fw.mp4	0.0	129.53583788871765	
8	84.62085890769958	fix_post	2		12	6.0	2.5	/experiments/knapen_AOT/AOT_stimuli/rescaled_final/0093_fw.mp4	0.0	129.65975284576416	0.09998488426208496
9	84.72084379196167	fix_pre	0		119	7.0	2.5	/experiments/knapen_AOT/AOT_stimuli/rescaled_final/0974_fw.mp4	0.0	129.75973773002625	0.9918210506439209
9	85.71266484260559	movie	1		243	7.0	2.5	/experiments/knapen_AOT/AOT_stimuli/rescaled_final/0974_fw.mp4	0.0	130.75155878067017	2.5004119873046875
9	86.1048059463501	pulse	1	t		7.0	2.5	/experiments/knapen_AOT/AOT_stimuli/rescaled_final/0974_fw.mp4	0.0	131.14369988441467	
9	87.6974709033966	pulse	1	t		7.0	2.5	/experiments/knapen_AOT/AOT_stimuli/rescaled_final/0974_fw.mp4	0.0	132.73636484146118	
9	88.21307682991028	fix_post	2		12	7.0	2.5	/experiments/knapen_AOT/AOT_stimuli/rescaled_final/0974_fw.mp4	0.0	133.25197076797485	0.10004401206970215
10	88.31312084197998	fix_pre	0		120	8.0	2.5	/experiments/knapen_AOT/AOT_stimuli/rescaled_final/2144_fw.mp4	0.0	133.35201478004456	1.0001170635223389
10	89.29756283760071	pulse	0	t		8.0	2.5	/experiments/knapen_AOT/AOT_stimuli/rescaled_final/2144_fw.mp4	0.0	134.33645677566528	
10	89.31323790550232	movie	1		245	8.0	2.5	/experiments/knapen_AOT/AOT_stimuli/rescaled_final/2144_fw.mp4	0.0	134.3521318435669	2.5087358951568604
10	90.89701890945435	pulse	1	t		8.0	2.5	/experiments/knapen_AOT/AOT_stimuli/rescaled_final/2144_fw.mp4	0.0	135.93591284751892	
10	91.82197380065918	fix_post	2		12	8.0	2.5	/experiments/knapen_AOT/AOT_stimuli/rescaled_final/2144_fw.mp4	0.0	136.86086773872375	0.09995198249816895
11	91.92192578315735	fix_pre	0		120	9.0	2.5	/experiments/knapen_AOT/AOT_stimuli/rescaled_final/0852_rv.mp4	0.0	136.96081972122192	1.0001811981201172
11	92.49722099304199	pulse	0	t		9.0	2.5	/experiments/knapen_AOT/AOT_stimuli/rescaled_final/0852_rv.mp4	0.0	137.53611493110657	
11	92.92210698127747	movie	1		243	9.0	2.5	/experiments/knapen_AOT/AOT_stimuli/rescaled_final/0852_rv.mp4	0.0	137.96100091934204	2.5004429817199707
11	94.09803485870361	pulse	1	t		9.0	2.5	/experiments/knapen_AOT/AOT_stimuli/rescaled_final/0852_rv.mp4	0.0	139.1369287967682	
11	95.42254996299744	fix_post	2		12	9.0	2.5	/experiments/knapen_AOT/AOT_stimuli/rescaled_final/0852_rv.mp4	0.0	140.461443901062	0.09993290901184082
12	95.52248287200928	fix_pre	0		120	10.0	2.5	/experiments/knapen_AOT/AOT_stimuli/rescaled_final/2110_fw.mp4	0.0	140.56137681007385	1.0001640319824219
12	95.69777584075928	pulse	0	t		10.0	2.5	/experiments/knapen_AOT/AOT_stimuli/rescaled_final/2110_fw.mp4	0.0	140.73666977882385	
12	96.5226469039917	movie	1		244	10.0	2.5	/experiments/knapen_AOT/AOT_stimuli/rescaled_final/2110_fw.mp4	0.0	141.56154084205627	2.4919919967651367
12	97.29788899421692	pulse	1	t		10.0	2.5	/experiments/knapen_AOT/AOT_stimuli/rescaled_final/2110_fw.mp4	0.0	142.3367829322815	
12	98.89819383621216	pulse	1	t		10.0	2.5	/experiments/knapen_AOT/AOT_stimuli/rescaled_final/2110_fw.mp4	0.0	143.93708777427673	
12	99.01463890075684	fix_post	2		12	10.0	2.5	/experiments/knapen_AOT/AOT_stimuli/rescaled_final/2110_fw.mp4	0.0	144.0535328388214	0.10004401206970215
13	99.11468291282654	fix_pre	0		120	11.0	2.5	/experiments/knapen_AOT/AOT_stimuli/rescaled_final/1134_rv.mp4	0.0	144.1535768508911	1.0001189708709717
13	100.11480188369751	movie	1		245	11.0	2.5	/experiments/knapen_AOT/AOT_stimuli/rescaled_final/1134_rv.mp4	0.0	145.15369582176208	2.500422954559326
13	100.50265192985535	pulse	1	t		11.0	2.5	/experiments/knapen_AOT/AOT_stimuli/rescaled_final/1134_rv.mp4	0.0	145.54154586791992	
13	102.09877586364746	pulse	1	t		11.0	2.5	/experiments/knapen_AOT/AOT_stimuli/rescaled_final/1134_rv.mp4	0.0	147.13766980171204	
13	102.61522483825684	fix_post	2		12	11.0	2.5	/experiments/knapen_AOT/AOT_stimuli/rescaled_final/1134_rv.mp4	0.0	147.6541187763214	0.10002493858337402
14	102.71524977684021	fix_pre	0		116	12.0	2.5	blank	1.0	147.75414371490479	0.9918251037597656
14	103.6988878250122	pulse	0	t		12.0	2.5	blank	1.0	148.73778176307678	
14	103.70707488059998	movie	1		301	12.0	2.5	blank	1.0	148.74596881866455	2.5086591243743896
14	105.29919481277466	pulse	1	t		12.0	2.5	blank	1.0	150.33808875083923	
14	106.21573400497437	fix_post	2		12	12.0	2.5	blank	1.0	151.25462794303894	0.10005784034729004
15	106.31579184532166	fix_pre	0		120	13.0	2.5	/experiments/knapen_AOT/AOT_stimuli/rescaled_final/1875_fw.mp4	0.0	151.35468578338623	1.0001201629638672
15	106.89946579933167	pulse	0	t		13.0	2.5	/experiments/knapen_AOT/AOT_stimuli/rescaled_final/1875_fw.mp4	0.0	151.93835973739624	
15	107.31591200828552	movie	1		243	13.0	2.5	/experiments/knapen_AOT/AOT_stimuli/rescaled_final/1875_fw.mp4	0.0	152.3548059463501	2.5003509521484375
15	108.499764919281	pulse	1	t		13.0	2.5	/experiments/knapen_AOT/AOT_stimuli/rescaled_final/1875_fw.mp4	0.0	153.53865885734558	
15	109.81626296043396	fix_post	2		12	13.0	2.5	/experiments/knapen_AOT/AOT_stimuli/rescaled_final/1875_fw.mp4	0.0	154.85515689849854	0.10002493858337402
16	109.91628789901733	fix_pre	0		120	14.0	2.5	/experiments/knapen_AOT/AOT_stimuli/rescaled_final/1262_fw.mp4	0.0	154.9551818370819	1.0001599788665771
16	110.09986281394958	pulse	0	t		14.0	2.5	/experiments/knapen_AOT/AOT_stimuli/rescaled_final/1262_fw.mp4	0.0	155.13875675201416	
16	110.91644787788391	movie	1		244	14.0	2.5	/experiments/knapen_AOT/AOT_stimuli/rescaled_final/1262_fw.mp4	0.0	155.9553418159485	2.5003960132598877
16	111.70008492469788	pulse	1	t		14.0	2.5	/experiments/knapen_AOT/AOT_stimuli/rescaled_final/1262_fw.mp4	0.0	156.73897886276245	
16	113.30062890052795	pulse	1	t		14.0	2.5	/experiments/knapen_AOT/AOT_stimuli/rescaled_final/1262_fw.mp4	0.0	158.33952283859253	
16	113.4168438911438	fix_post	2		12	14.0	2.5	/experiments/knapen_AOT/AOT_stimuli/rescaled_final/1262_fw.mp4	0.0	158.45573782920837	0.10000109672546387
17	113.51684498786926	fix_pre	0		120	15.0	2.5	/experiments/knapen_AOT/AOT_stimuli/rescaled_final/0346_rv.mp4	0.0	158.55573892593384	1.0001139640808105
17	114.51695895195007	movie	1		243	15.0	2.5	/experiments/knapen_AOT/AOT_stimuli/rescaled_final/0346_rv.mp4	0.0	159.55585289001465	2.49208402633667
17	114.90096998214722	pulse	1	t		15.0	2.5	/experiments/knapen_AOT/AOT_stimuli/rescaled_final/0346_rv.mp4	0.0	159.9398639202118	
17	116.50085186958313	pulse	1	t		15.0	2.5	/experiments/knapen_AOT/AOT_stimuli/rescaled_final/0346_rv.mp4	0.0	161.5397458076477	
17	117.00904297828674	fix_post	2		12	15.0	2.5	/experiments/knapen_AOT/AOT_stimuli/rescaled_final/0346_rv.mp4	0.0	162.04793691635132	0.09996390342712402
18	117.10900688171387	fix_pre	0		120	16.0	2.5	/experiments/knapen_AOT/AOT_stimuli/rescaled_final/1401_fw.mp4	0.0	162.14790081977844	1.0001940727233887
18	118.10115194320679	pulse	0	t		16.0	2.5	/experiments/knapen_AOT/AOT_stimuli/rescaled_final/1401_fw.mp4	0.0	163.14004588127136	
18	118.10920095443726	movie	1		244	16.0	2.5	/experiments/knapen_AOT/AOT_stimuli/rescaled_final/1401_fw.mp4	0.0	163.14809489250183	2.5087368488311768
18	119.70179986953735	pulse	1	t		16.0	2.5	/experiments/knapen_AOT/AOT_stimuli/rescaled_final/1401_fw.mp4	0.0	164.74069380760193	
18	120.61793780326843	fix_post	2		12	16.0	2.5	/experiments/knapen_AOT/AOT_stimuli/rescaled_final/1401_fw.mp4	0.0	165.656831741333	0.10000014305114746
19	120.71793794631958	fix_pre	0		120	17.0	2.5	/experiments/knapen_AOT/AOT_stimuli/rescaled_final/1309_fw.mp4	0.0	165.75683188438416	1.000133991241455
19	121.30163979530334	pulse	0	t		17.0	2.5	/experiments/knapen_AOT/AOT_stimuli/rescaled_final/1309_fw.mp4	0.0	166.34053373336792	
19	121.71807193756104	movie	1		244	17.0	2.5	/experiments/knapen_AOT/AOT_stimuli/rescaled_final/1309_fw.mp4	0.0	166.7569658756256	2.5003979206085205
19	122.89779782295227	pulse	1	t		17.0	2.5	/experiments/knapen_AOT/AOT_stimuli/rescaled_final/1309_fw.mp4	0.0	167.93669176101685	
19	124.21846985816956	fix_post	2		12	17.0	2.5	/experiments/knapen_AOT/AOT_stimuli/rescaled_final/1309_fw.mp4	0.0	169.25736379623413	0.09994697570800781
20	124.31841683387756	fix_pre	0		120	18.0	2.5	/experiments/knapen_AOT/AOT_stimuli/rescaled_final/1077_rv.mp4	0.0	169.35731077194214	1.0001881122589111
20	124.50205492973328	pulse	0	t		18.0	2.5	/experiments/knapen_AOT/AOT_stimuli/rescaled_final/1077_rv.mp4	0.0	169.54094886779785	
20	125.31860494613647	movie	1		242	18.0	2.5	/experiments/knapen_AOT/AOT_stimuli/rescaled_final/1077_rv.mp4	0.0	170.35749888420105	2.5005438327789307
20	126.10227680206299	pulse	1	t		18.0	2.5	/experiments/knapen_AOT/AOT_stimuli/rescaled_final/1077_rv.mp4	0.0	171.14117074012756	
20	127.70308899879456	pulse	1	t		18.0	2.5	/experiments/knapen_AOT/AOT_stimuli/rescaled_final/1077_rv.mp4	0.0	172.74198293685913	
20	127.8191487789154	fix_post	2		12	18.0	2.5	/experiments/knapen_AOT/AOT_stimuli/rescaled_final/1077_rv.mp4	0.0	172.85804271697998	0.09984111785888672
21	127.91898989677429	fix_pre	0		120	19.0	2.5	/experiments/knapen_AOT/AOT_stimuli/rescaled_final/0410_fw.mp4	0.0	172.95788383483887	1.0001320838928223
21	128.91912198066711	movie	1		243	19.0	2.5	/experiments/knapen_AOT/AOT_stimuli/rescaled_final/0410_fw.mp4	0.0	173.9580159187317	2.4920740127563477
21	129.30323481559753	pulse	1	t		19.0	2.5	/experiments/knapen_AOT/AOT_stimuli/rescaled_final/0410_fw.mp4	0.0	174.3421287536621	
21	130.90302181243896	pulse	1	t		19.0	2.5	/experiments/knapen_AOT/AOT_stimuli/rescaled_final/0410_fw.mp4	0.0	175.94191575050354	
21	131.41119599342346	fix_post	2		12	19.0	2.5	/experiments/knapen_AOT/AOT_stimuli/rescaled_final/0410_fw.mp4	0.0	176.45008993148804	0.10001993179321289
22	131.51121592521667	fix_pre	0		120	20.0	2.5	blank	1.0	176.55010986328125	1.0001568794250488
22	132.503271818161	pulse	0	t		20.0	2.5	blank	1.0	177.5421657562256	
22	132.51137280464172	movie	1		301	20.0	2.5	blank	1.0	177.5502667427063	2.5086991786956787
22	134.10341882705688	pulse	1	t		20.0	2.5	blank	1.0	179.14231276512146	
22	135.0200719833374	fix_post	2		12	20.0	2.5	blank	1.0	180.05896592140198	0.09998679161071777
23	135.12005877494812	fix_pre	0		120	21.0	2.5	/experiments/knapen_AOT/AOT_stimuli/rescaled_final/0580_rv.mp4	0.0	180.1589527130127	1.0001652240753174
23	135.70373797416687	pulse	0	t		21.0	2.5	/experiments/knapen_AOT/AOT_stimuli/rescaled_final/0580_rv.mp4	0.0	180.74263191223145	
23	136.12022399902344	movie	1		243	21.0	2.5	/experiments/knapen_AOT/AOT_stimuli/rescaled_final/0580_rv.mp4	0.0	181.159117937088	2.5003998279571533
23	137.29663181304932	pulse	1	t		21.0	2.5	/experiments/knapen_AOT/AOT_stimuli/rescaled_final/0580_rv.mp4	0.0	182.3355257511139	
23	138.6206238269806	fix_post	2		12	21.0	2.5	/experiments/knapen_AOT/AOT_stimuli/rescaled_final/0580_rv.mp4	0.0	183.65951776504517	0.09996604919433594
24	138.72058987617493	fix_pre	0		120	22.0	2.5	/experiments/knapen_AOT/AOT_stimuli/rescaled_final/0453_rv.mp4	0.0	183.7594838142395	1.0001399517059326
24	138.89669680595398	pulse	0	t		22.0	2.5	/experiments/knapen_AOT/AOT_stimuli/rescaled_final/0453_rv.mp4	0.0	183.93559074401855	
24	139.72072982788086	movie	1		244	22.0	2.5	/experiments/knapen_AOT/AOT_stimuli/rescaled_final/0453_rv.mp4	0.0	184.75962376594543	2.5004351139068604
24	140.49704480171204	pulse	1	t		22.0	2.5	/experiments/knapen_AOT/AOT_stimuli/rescaled_final/0453_rv.mp4	0.0	185.5359387397766	
24	142.10458087921143	pulse	1	t		22.0	2.5	/experiments/knapen_AOT/AOT_stimuli/rescaled_final/0453_rv.mp4	0.0	187.143474817276	
24	142.22116494178772	fix_post	2		12	22.0	2.5	/experiments/knapen_AOT/AOT_stimuli/rescaled_final/0453_rv.mp4	0.0	187.2600588798523	0.10006093978881836
25	142.32122588157654	fix_pre	0		120	23.0	2.5	/experiments/knapen_AOT/AOT_stimuli/rescaled_final/0104_fw.mp4	0.0	187.3601198196411	1.0000779628753662
25	143.3213038444519	movie	1		243	23.0	2.5	/experiments/knapen_AOT/AOT_stimuli/rescaled_final/0104_fw.mp4	0.0	188.36019778251648	2.4919841289520264
25	143.69668078422546	pulse	1	t		23.0	2.5	/experiments/knapen_AOT/AOT_stimuli/rescaled_final/0104_fw.mp4	0.0	188.73557472229004	
25	145.29687190055847	pulse	1	t		23.0	2.5	/experiments/knapen_AOT/AOT_stimuli/rescaled_final/0104_fw.mp4	0.0	190.33576583862305	
25	145.81328797340393	fix_post	2		12	23.0	2.5	/experiments/knapen_AOT/AOT_stimuli/rescaled_final/0104_fw.mp4	0.0	190.8521819114685	0.10009098052978516
26	145.91337895393372	fix_pre	0		119	24.0	2.5	/experiments/knapen_AOT/AOT_stimuli/rescaled_final/1004_rv.mp4	0.0	190.9522728919983	0.9917678833007812
26	146.89699387550354	pulse	0	t		24.0	2.5	/experiments/knapen_AOT/AOT_stimuli/rescaled_final/1004_rv.mp4	0.0	191.93588781356812	
26	146.9051468372345	movie	1		246	24.0	2.5	/experiments/knapen_AOT/AOT_stimuli/rescaled_final/1004_rv.mp4	0.0	191.94404077529907	2.508754014968872
26	148.49769687652588	pulse	1	t		24.0	2.5	/experiments/knapen_AOT/AOT_stimuli/rescaled_final/1004_rv.mp4	0.0	193.53659081459045	
26	149.41390085220337	fix_post	2		12	24.0	2.5	/experiments/knapen_AOT/AOT_stimuli/rescaled_final/1004_rv.mp4	0.0	194.45279479026794	0.10001802444458008
27	149.51391887664795	fix_pre	0		120	25.0	2.5	/experiments/knapen_AOT/AOT_stimuli/rescaled_final/0335_fw.mp4	0.0	194.55281281471252	1.000135898590088
27	150.09749794006348	pulse	0	t		25.0	2.5	/experiments/knapen_AOT/AOT_stimuli/rescaled_final/0335_fw.mp4	0.0	195.13639187812805	
27	150.51405477523804	movie	1		244	25.0	2.5	/experiments/knapen_AOT/AOT_stimuli/rescaled_final/0335_fw.mp4	0.0	195.5529487133026	2.5003881454467773
27	151.6978199481964	pulse	1	t		25.0	2.5	/experiments/knapen_AOT/AOT_stimuli/rescaled_final/0335_fw.mp4	0.0	196.736713886261	
27	153.01444292068481	fix_post	2		12	25.0	2.5	/experiments/knapen_AOT/AOT_stimuli/rescaled_final/0335_fw.mp4	0.0	198.0533368587494	0.09996390342712402
28	153.11440682411194	fix_pre	0		120	26.0	2.5	blank	1.0	198.1533007621765	1.0001230239868164
28	153.29801392555237	pulse	0	t		26.0	2.5	blank	1.0	198.33690786361694	
28	154.11452984809875	movie	1		300	26.0	2.5	blank	1.0	199.15342378616333	2.5003960132598877
28	154.89830684661865	pulse	1	t		26.0	2.5	blank	1.0	199.93720078468323	
28	156.49847888946533	pulse	1	t		26.0	2.5	blank	1.0	201.5373728275299	
28	156.61492586135864	fix_post	2		12	26.0	2.5	blank	1.0	201.65381979942322	0.10001993179321289
29	156.71494579315186	fix_pre	0		120	27.0	2.5	/experiments/knapen_AOT/AOT_stimuli/rescaled_final/0985_rv.mp4	0.0	201.75383973121643	1.000169038772583
29	157.71511483192444	movie	1		243	27.0	2.5	/experiments/knapen_AOT/AOT_stimuli/rescaled_final/0985_rv.mp4	0.0	202.754008769989	2.4919991493225098
29	158.09986996650696	pulse	1	t		27.0	2.5	/experiments/knapen_AOT/AOT_stimuli/rescaled_final/0985_rv.mp4	0.0	203.13876390457153	
29	159.69888997077942	pulse	1	t		27.0	2.5	/experiments/knapen_AOT/AOT_stimuli/rescaled_final/0985_rv.mp4	0.0	204.737783908844	
29	160.20711398124695	fix_post	2		12	27.0	2.5	/experiments/knapen_AOT/AOT_stimuli/rescaled_final/0985_rv.mp4	0.0	205.24600791931152	0.10002779960632324
30	160.30714178085327	fix_pre	0		120	28.0	2.5	/experiments/knapen_AOT/AOT_stimuli/rescaled_final/0410_fw.mp4	0.0	205.34603571891785	1.0001661777496338
30	161.2992548942566	pulse	0	t		28.0	2.5	/experiments/knapen_AOT/AOT_stimuli/rescaled_final/0410_fw.mp4	0.0	206.33814883232117	
30	161.3073079586029	movie	1		245	28.0	2.5	/experiments/knapen_AOT/AOT_stimuli/rescaled_final/0410_fw.mp4	0.0	206.34620189666748	2.5087180137634277
30	162.89992094039917	pulse	1	t		28.0	2.5	/experiments/knapen_AOT/AOT_stimuli/rescaled_final/0410_fw.mp4	0.0	207.93881487846375	
30	163.81602597236633	fix_post	2		12	28.0	2.5	/experiments/knapen_AOT/AOT_stimuli/rescaled_final/0410_fw.mp4	0.0	208.8549199104309	0.09996986389160156
31	163.91599583625793	fix_pre	0		117	29.0	2.5	/experiments/knapen_AOT/AOT_stimuli/rescaled_final/1129_rv.mp4	0.0	208.9548897743225	1.0002050399780273
31	164.49967885017395	pulse	0	t		29.0	2.5	/experiments/knapen_AOT/AOT_stimuli/rescaled_final/1129_rv.mp4	0.0	209.53857278823853	
31	164.91620087623596	movie	1		243	29.0	2.5	/experiments/knapen_AOT/AOT_stimuli/rescaled_final/1129_rv.mp4	0.0	209.95509481430054	2.500314950942993
31	166.1000440120697	pulse	1	t		29.0	2.5	/experiments/knapen_AOT/AOT_stimuli/rescaled_final/1129_rv.mp4	0.0	211.13893795013428	
31	167.41651582717896	fix_post	2		12	29.0	2.5	/experiments/knapen_AOT/AOT_stimuli/rescaled_final/1129_rv.mp4	0.0	212.45540976524353	0.1000831127166748
32	167.51659893989563	fix_pre	0		120	30.0	2.5	/experiments/knapen_AOT/AOT_stimuli/rescaled_final/0096_fw.mp4	0.0	212.5554928779602	1.0001070499420166
32	167.70017385482788	pulse	0	t		30.0	2.5	/experiments/knapen_AOT/AOT_stimuli/rescaled_final/0096_fw.mp4	0.0	212.73906779289246	
32	168.51670598983765	movie	1		244	30.0	2.5	/experiments/knapen_AOT/AOT_stimuli/rescaled_final/0096_fw.mp4	0.0	213.55559992790222	2.500351905822754
32	169.3004698753357	pulse	1	t		30.0	2.5	/experiments/knapen_AOT/AOT_stimuli/rescaled_final/0096_fw.mp4	0.0	214.33936381340027	
32	170.90217280387878	pulse	1	t		30.0	2.5	/experiments/knapen_AOT/AOT_stimuli/rescaled_final/0096_fw.mp4	0.0	215.94106674194336	
32	171.0170578956604	fix_post	2		12	30.0	2.5	/experiments/knapen_AOT/AOT_stimuli/rescaled_final/0096_fw.mp4	0.0	216.05595183372498	0.10003089904785156
33	171.11708879470825	fix_pre	0		120	31.0	2.5	/experiments/knapen_AOT/AOT_stimuli/rescaled_final/1099_fw.mp4	0.0	216.15598273277283	1.0001862049102783
33	172.11727499961853	movie	1		243	31.0	2.5	/experiments/knapen_AOT/AOT_stimuli/rescaled_final/1099_fw.mp4	0.0	217.1561689376831	2.492051839828491
33	172.50134682655334	pulse	1	t		31.0	2.5	/experiments/knapen_AOT/AOT_stimuli/rescaled_final/1099_fw.mp4	0.0	217.54024076461792	
33	174.10109090805054	pulse	1	t		31.0	2.5	/experiments/knapen_AOT/AOT_stimuli/rescaled_final/1099_fw.mp4	0.0	219.1399848461151	
33	174.60932683944702	fix_post	2		12	31.0	2.5	/experiments/knapen_AOT/AOT_stimuli/rescaled_final/1099_fw.mp4	0.0	219.6482207775116	0.09999299049377441
34	174.7093198299408	fix_pre	0		120	32.0	2.5	/experiments/knapen_AOT/AOT_stimuli/rescaled_final/1527_rv.mp4	0.0	219.74821376800537	1.0001449584960938
34	175.70139694213867	pulse	0	t		32.0	2.5	/experiments/knapen_AOT/AOT_stimuli/rescaled_final/1527_rv.mp4	0.0	220.74029088020325	
34	175.7094647884369	movie	1		250	32.0	2.5	/experiments/knapen_AOT/AOT_stimuli/rescaled_final/1527_rv.mp4	0.0	220.74835872650146	2.5087060928344727
34	177.30505299568176	pulse	1	t		32.0	2.5	/experiments/knapen_AOT/AOT_stimuli/rescaled_final/1527_rv.mp4	0.0	222.34394693374634	
34	178.21817088127136	fix_post	2		12	32.0	2.5	/experiments/knapen_AOT/AOT_stimuli/rescaled_final/1527_rv.mp4	0.0	223.25706481933594	0.09997892379760742
35	178.31814980506897	fix_pre	0		120	33.0	2.5	/experiments/knapen_AOT/AOT_stimuli/rescaled_final/1214_rv.mp4	0.0	223.35704374313354	1.0001890659332275
35	178.9018259048462	pulse	0	t		33.0	2.5	/experiments/knapen_AOT/AOT_stimuli/rescaled_final/1214_rv.mp4	0.0	223.94071984291077	
35	179.3183388710022	movie	1		244	33.0	2.5	/experiments/knapen_AOT/AOT_stimuli/rescaled_final/1214_rv.mp4	0.0	224.35723280906677	2.500325918197632
35	180.50208687782288	pulse	1	t		33.0	2.5	/experiments/knapen_AOT/AOT_stimuli/rescaled_final/1214_rv.mp4	0.0	225.54098081588745	
35	181.81866478919983	fix_post	2		12	33.0	2.5	/experiments/knapen_AOT/AOT_stimuli/rescaled_final/1214_rv.mp4	0.0	226.8575587272644	0.10002517700195312
36	181.91868996620178	fix_pre	0		120	34.0	2.5	blank	1.0	226.95758390426636	1.000196933746338
36	182.10234785079956	pulse	0	t		34.0	2.5	blank	1.0	227.14124178886414	
36	182.91888689994812	movie	1		300	34.0	2.5	blank	1.0	227.9577808380127	2.5003650188446045
36	183.70264291763306	pulse	1	t		34.0	2.5	blank	1.0	228.74153685569763	
36	185.30281496047974	pulse	1	t		34.0	2.5	blank	1.0	230.3417088985443	
36	185.41925191879272	fix_post	2		12	34.0	2.5	blank	1.0	230.4581458568573	0.09999895095825195
37	185.51925086975098	fix_pre	0		120	35.0	2.5	/experiments/knapen_AOT/AOT_stimuli/rescaled_final/0885_fw.mp4	0.0	230.55814480781555	1.000195026397705
37	186.51944589614868	movie	1		243	35.0	2.5	/experiments/knapen_AOT/AOT_stimuli/rescaled_final/0885_fw.mp4	0.0	231.55833983421326	2.4920389652252197
37	186.90465188026428	pulse	1	t		35.0	2.5	/experiments/knapen_AOT/AOT_stimuli/rescaled_final/0885_fw.mp4	0.0	231.94354581832886	
37	188.5033299922943	pulse	1	t		35.0	2.5	/experiments/knapen_AOT/AOT_stimuli/rescaled_final/0885_fw.mp4	0.0	233.5422239303589	
37	189.0114848613739	fix_post	2		12	35.0	2.5	/experiments/knapen_AOT/AOT_stimuli/rescaled_final/0885_fw.mp4	0.0	234.05037879943848	0.09994912147521973
38	189.11143398284912	fix_pre	0		120	36.0	2.5	/experiments/knapen_AOT/AOT_stimuli/rescaled_final/1498_fw.mp4	0.0	234.1503279209137	1.000182867050171
38	190.10353684425354	pulse	0	t		36.0	2.5	/experiments/knapen_AOT/AOT_stimuli/rescaled_final/1498_fw.mp4	0.0	235.14243078231812	
38	190.1116168498993	movie	1		245	36.0	2.5	/experiments/knapen_AOT/AOT_stimuli/rescaled_final/1498_fw.mp4	0.0	235.15051078796387	2.5087130069732666
38	191.7049539089203	pulse	1	t		36.0	2.5	/experiments/knapen_AOT/AOT_stimuli/rescaled_final/1498_fw.mp4	0.0	236.74384784698486	
38	192.62032985687256	fix_post	2		12	36.0	2.5	/experiments/knapen_AOT/AOT_stimuli/rescaled_final/1498_fw.mp4	0.0	237.65922379493713	0.09996700286865234
39	192.7202968597412	fix_pre	0		120	37.0	2.5	/experiments/knapen_AOT/AOT_stimuli/rescaled_final/0816_rv.mp4	0.0	237.7591907978058	1.0002470016479492
39	193.30394196510315	pulse	0	t		37.0	2.5	/experiments/knapen_AOT/AOT_stimuli/rescaled_final/0816_rv.mp4	0.0	238.34283590316772	
39	193.72054386138916	movie	1		243	37.0	2.5	/experiments/knapen_AOT/AOT_stimuli/rescaled_final/0816_rv.mp4	0.0	238.75943779945374	2.500319004058838
39	194.90425300598145	pulse	1	t		37.0	2.5	/experiments/knapen_AOT/AOT_stimuli/rescaled_final/0816_rv.mp4	0.0	239.94314694404602	
39	196.220862865448	fix_post	2		12	37.0	2.5	/experiments/knapen_AOT/AOT_stimuli/rescaled_final/0816_rv.mp4	0.0	241.25975680351257	0.09999608993530273
40	196.3208589553833	fix_pre	0		120	38.0	2.5	/experiments/knapen_AOT/AOT_stimuli/rescaled_final/0822_fw.mp4	0.0	241.35975289344788	1.0001869201660156
40	196.50442385673523	pulse	0	t		38.0	2.5	/experiments/knapen_AOT/AOT_stimuli/rescaled_final/0822_fw.mp4	0.0	241.5433177947998	
40	197.32104587554932	movie	1		245	38.0	2.5	/experiments/knapen_AOT/AOT_stimuli/rescaled_final/0822_fw.mp4	0.0	242.3599398136139	2.5003609657287598
40	198.0973298549652	pulse	1	t		38.0	2.5	/experiments/knapen_AOT/AOT_stimuli/rescaled_final/0822_fw.mp4	0.0	243.13622379302979	
40	199.7027359008789	pulse	1	t		38.0	2.5	/experiments/knapen_AOT/AOT_stimuli/rescaled_final/0822_fw.mp4	0.0	244.74162983894348	
40	199.82140684127808	fix_post	2		12	38.0	2.5	/experiments/knapen_AOT/AOT_stimuli/rescaled_final/0822_fw.mp4	0.0	244.86030077934265	0.09996604919433594
41	199.9213728904724	fix_pre	0		120	39.0	2.5	/experiments/knapen_AOT/AOT_stimuli/rescaled_final/0144_rv.mp4	0.0	244.960266828537	1.0001850128173828
41	200.9215579032898	movie	1		242	39.0	2.5	/experiments/knapen_AOT/AOT_stimuli/rescaled_final/0144_rv.mp4	0.0	245.96045184135437	2.4920809268951416
41	201.30551600456238	pulse	1	t		39.0	2.5	/experiments/knapen_AOT/AOT_stimuli/rescaled_final/0144_rv.mp4	0.0	246.34440994262695	
41	202.89797687530518	pulse	1	t		39.0	2.5	/experiments/knapen_AOT/AOT_stimuli/rescaled_final/0144_rv.mp4	0.0	247.93687081336975	
41	203.41363883018494	fix_post	2		12	39.0	2.5	/experiments/knapen_AOT/AOT_stimuli/rescaled_final/0144_rv.mp4	0.0	248.4525327682495	0.09996700286865234
42	203.5136058330536	fix_pre	0		119	40.0	2.5	blank	1.0	248.55249977111816	0.9918210506439209
42	204.49724292755127	pulse	0	t		40.0	2.5	blank	1.0	249.53613686561584	
42	204.5054268836975	movie	1		301	40.0	2.5	blank	1.0	249.54432082176208	2.508718967437744
42	206.0974578857422	pulse	1	t		40.0	2.5	blank	1.0	251.13635182380676	
42	207.01414585113525	fix_post	2		12	40.0	2.5	blank	1.0	252.05303978919983	0.09997200965881348
43	207.11411786079407	fix_pre	0		120	41.0	2.5	/experiments/knapen_AOT/AOT_stimuli/rescaled_final/0587_rv.mp4	0.0	252.15301179885864	1.0001859664916992
43	207.69780087471008	pulse	0	t		41.0	2.5	/experiments/knapen_AOT/AOT_stimuli/rescaled_final/0587_rv.mp4	0.0	252.73669481277466	
43	208.11430382728577	movie	1		244	41.0	2.5	/experiments/knapen_AOT/AOT_stimuli/rescaled_final/0587_rv.mp4	0.0	253.15319776535034	2.5004091262817383
43	209.2981779575348	pulse	1	t		41.0	2.5	/experiments/knapen_AOT/AOT_stimuli/rescaled_final/0587_rv.mp4	0.0	254.33707189559937	
43	210.6147129535675	fix_post	2		12	41.0	2.5	/experiments/knapen_AOT/AOT_stimuli/rescaled_final/0587_rv.mp4	0.0	255.65360689163208	0.0999610424041748
44	210.71467399597168	fix_pre	0		120	42.0	2.5	/experiments/knapen_AOT/AOT_stimuli/rescaled_final/0890_fw.mp4	0.0	255.75356793403625	1.0001709461212158
44	210.8982288837433	pulse	0	t		42.0	2.5	/experiments/knapen_AOT/AOT_stimuli/rescaled_final/0890_fw.mp4	0.0	255.93712282180786	
44	211.7148449420929	movie	1		244	42.0	2.5	/experiments/knapen_AOT/AOT_stimuli/rescaled_final/0890_fw.mp4	0.0	256.75373888015747	2.5003280639648438
44	212.49851179122925	pulse	1	t		42.0	2.5	/experiments/knapen_AOT/AOT_stimuli/rescaled_final/0890_fw.mp4	0.0	257.5374057292938	
44	214.10052490234375	pulse	1	t		42.0	2.5	/experiments/knapen_AOT/AOT_stimuli/rescaled_final/0890_fw.mp4	0.0	259.1394188404083	
44	214.21517300605774	fix_post	2		12	42.0	2.5	/experiments/knapen_AOT/AOT_stimuli/rescaled_final/0890_fw.mp4	0.0	259.2540669441223	0.1000359058380127
45	214.31520891189575	fix_pre	0		120	43.0	2.5	/experiments/knapen_AOT/AOT_stimuli/rescaled_final/0446_rv.mp4	0.0	259.3541028499603	1.0001330375671387
45	215.3153419494629	movie	1		244	43.0	2.5	/experiments/knapen_AOT/AOT_stimuli/rescaled_final/0446_rv.mp4	0.0	260.35423588752747	2.4921250343322754
45	215.69966888427734	pulse	1	t		43.0	2.5	/experiments/knapen_AOT/AOT_stimuli/rescaled_final/0446_rv.mp4	0.0	260.7385628223419	
45	217.2992079257965	pulse	1	t		43.0	2.5	/experiments/knapen_AOT/AOT_stimuli/rescaled_final/0446_rv.mp4	0.0	262.3381018638611	
45	217.80746698379517	fix_post	2		12	43.0	2.5	/experiments/knapen_AOT/AOT_stimuli/rescaled_final/0446_rv.mp4	0.0	262.84636092185974	0.09994792938232422
46	217.9074149131775	fix_pre	0		120	44.0	2.5	/experiments/knapen_AOT/AOT_stimuli/rescaled_final/1875_fw.mp4	0.0	262.94630885124207	1.000180959701538
46	218.89942598342896	pulse	0	t		44.0	2.5	/experiments/knapen_AOT/AOT_stimuli/rescaled_final/1875_fw.mp4	0.0	263.93831992149353	
46	218.90759587287903	movie	1		244	44.0	2.5	/experiments/knapen_AOT/AOT_stimuli/rescaled_final/1875_fw.mp4	0.0	263.9464898109436	2.5086679458618164
46	220.50043082237244	pulse	1	t		44.0	2.5	/experiments/knapen_AOT/AOT_stimuli/rescaled_final/1875_fw.mp4	0.0	265.539324760437	
46	221.41626381874084	fix_post	2		12	44.0	2.5	/experiments/knapen_AOT/AOT_stimuli/rescaled_final/1875_fw.mp4	0.0	266.4551577568054	0.1000661849975586
47	221.5163300037384	fix_pre	0		120	45.0	2.5	/experiments/knapen_AOT/AOT_stimuli/rescaled_final/0088_rv.mp4	0.0	266.555223941803	1.0001208782196045
47	222.09994792938232	pulse	0	t		45.0	2.5	/experiments/knapen_AOT/AOT_stimuli/rescaled_final/0088_rv.mp4	0.0	267.1388418674469	
47	222.516450881958	movie	1		245	45.0	2.5	/experiments/knapen_AOT/AOT_stimuli/rescaled_final/0088_rv.mp4	0.0	267.5553448200226	2.500404119491577
47	223.70028281211853	pulse	1	t		45.0	2.5	/experiments/knapen_AOT/AOT_stimuli/rescaled_final/0088_rv.mp4	0.0	268.7391767501831	
47	225.01685500144958	fix_post	2		12	45.0	2.5	/experiments/knapen_AOT/AOT_stimuli/rescaled_final/0088_rv.mp4	0.0	270.05574893951416	0.09996485710144043
48	225.11681985855103	fix_pre	0		118	46.0	2.5	/experiments/knapen_AOT/AOT_stimuli/rescaled_final/0689_rv.mp4	0.0	270.1557137966156	1.000180959701538
48	225.30037093162537	pulse	0	t		46.0	2.5	/experiments/knapen_AOT/AOT_stimuli/rescaled_final/0689_rv.mp4	0.0	270.33926486968994	
48	226.11700081825256	movie	1		243	46.0	2.5	/experiments/knapen_AOT/AOT_stimuli/rescaled_final/0689_rv.mp4	0.0	271.15589475631714	2.50039005279541
48	226.90069580078125	pulse	1	t		46.0	2.5	/experiments/knapen_AOT/AOT_stimuli/rescaled_final/0689_rv.mp4	0.0	271.9395897388458	
48	228.50077486038208	pulse	1	t		46.0	2.5	/experiments/knapen_AOT/AOT_stimuli/rescaled_final/0689_rv.mp4	0.0	273.53966879844666	
48	228.61739087104797	fix_post	2		12	46.0	2.5	/experiments/knapen_AOT/AOT_stimuli/rescaled_final/0689_rv.mp4	0.0	273.65628480911255	0.09997701644897461
49	228.71736788749695	fix_pre	0		120	47.0	2.5	/experiments/knapen_AOT/AOT_stimuli/rescaled_final/0392_fw.mp4	0.0	273.7562618255615	1.0001459121704102
49	229.71751379966736	movie	1		242	47.0	2.5	/experiments/knapen_AOT/AOT_stimuli/rescaled_final/0392_fw.mp4	0.0	274.75640773773193	2.492009162902832
49	230.10538792610168	pulse	1	t		47.0	2.5	/experiments/knapen_AOT/AOT_stimuli/rescaled_final/0392_fw.mp4	0.0	275.14428186416626	
49	231.70137190818787	pulse	1	t		47.0	2.5	/experiments/knapen_AOT/AOT_stimuli/rescaled_final/0392_fw.mp4	0.0	276.74026584625244	
49	232.2095229625702	fix_post	2		12	47.0	2.5	/experiments/knapen_AOT/AOT_stimuli/rescaled_final/0392_fw.mp4	0.0	277.24841690063477	0.10001802444458008
50	232.30954098701477	fix_pre	0		120	48.0	2.5	/experiments/knapen_AOT/AOT_stimuli/rescaled_final/0718_fw.mp4	0.0	277.34843492507935	1.000190019607544
50	233.3016459941864	pulse	0	t		48.0	2.5	/experiments/knapen_AOT/AOT_stimuli/rescaled_final/0718_fw.mp4	0.0	278.340539932251	
50	233.30973100662231	movie	1		245	48.0	2.5	/experiments/knapen_AOT/AOT_stimuli/rescaled_final/0718_fw.mp4	0.0	278.3486249446869	2.5086989402770996
50	234.9028239250183	pulse	1	t		48.0	2.5	/experiments/knapen_AOT/AOT_stimuli/rescaled_final/0718_fw.mp4	0.0	279.9417178630829	
50	235.8184299468994	fix_post	2		12	48.0	2.5	/experiments/knapen_AOT/AOT_stimuli/rescaled_final/0718_fw.mp4	0.0	280.857323884964	0.10000205039978027
51	235.9184319972992	fix_pre	0		120	49.0	2.5	blank	1.0	280.95732593536377	1.0001819133758545
51	236.50203800201416	pulse	0	t		49.0	2.5	blank	1.0	281.54093194007874	
51	236.91861391067505	movie	1		300	49.0	2.5	blank	1.0	281.9575078487396	2.5003790855407715
51	238.1023519039154	pulse	1	t		49.0	2.5	blank	1.0	283.14124584198	
51	239.41899299621582	fix_post	2		12	49.0	2.5	blank	1.0	284.4578869342804	0.0999608039855957
52	239.51895380020142	fix_pre	0		120	50.0	2.5	/experiments/knapen_AOT/AOT_stimuli/rescaled_final/1262_rv.mp4	0.0	284.557847738266	1.0001671314239502
52	239.7026698589325	pulse	0	t		50.0	2.5	/experiments/knapen_AOT/AOT_stimuli/rescaled_final/1262_rv.mp4	0.0	284.74156379699707	
52	240.51912093162537	movie	1		245	50.0	2.5	/experiments/knapen_AOT/AOT_stimuli/rescaled_final/1262_rv.mp4	0.0	285.55801486968994	2.5003550052642822
52	241.30285000801086	pulse	1	t		50.0	2.5	/experiments/knapen_AOT/AOT_stimuli/rescaled_final/1262_rv.mp4	0.0	286.34174394607544	
52	242.9005208015442	pulse	1	t		50.0	2.5	/experiments/knapen_AOT/AOT_stimuli/rescaled_final/1262_rv.mp4	0.0	287.93941473960876	
52	243.01947593688965	fix_post	2		12	50.0	2.5	/experiments/knapen_AOT/AOT_stimuli/rescaled_final/1262_rv.mp4	0.0	288.0583698749542	0.10003495216369629
53	243.11951088905334	fix_pre	0		120	51.0	2.5	/experiments/knapen_AOT/AOT_stimuli/rescaled_final/0242_rv.mp4	0.0	288.1584048271179	1.000209093093872
53	244.11971998214722	movie	1		243	51.0	2.5	/experiments/knapen_AOT/AOT_stimuli/rescaled_final/0242_rv.mp4	0.0	289.1586139202118	2.492025852203369
53	244.50375390052795	pulse	1	t		51.0	2.5	/experiments/knapen_AOT/AOT_stimuli/rescaled_final/0242_rv.mp4	0.0	289.54264783859253	
53	246.10353994369507	pulse	1	t		51.0	2.5	/experiments/knapen_AOT/AOT_stimuli/rescaled_final/0242_rv.mp4	0.0	291.14243388175964	
53	246.6117458343506	fix_post	2		12	51.0	2.5	/experiments/knapen_AOT/AOT_stimuli/rescaled_final/0242_rv.mp4	0.0	291.65063977241516	0.0999600887298584
54	246.71170592308044	fix_pre	0		120	52.0	2.5	/experiments/knapen_AOT/AOT_stimuli/rescaled_final/0232_fw.mp4	0.0	291.750599861145	1.0001709461212158
54	247.7037479877472	pulse	0	t		52.0	2.5	/experiments/knapen_AOT/AOT_stimuli/rescaled_final/0232_fw.mp4	0.0	292.74264192581177	
54	247.71187686920166	movie	1		244	52.0	2.5	/experiments/knapen_AOT/AOT_stimuli/rescaled_final/0232_fw.mp4	0.0	292.75077080726624	2.508747100830078
54	249.30442094802856	pulse	1	t		52.0	2.5	/experiments/knapen_AOT/AOT_stimuli/rescaled_final/0232_fw.mp4	0.0	294.34331488609314	
54	250.22062397003174	fix_post	2		12	52.0	2.5	/experiments/knapen_AOT/AOT_stimuli/rescaled_final/0232_fw.mp4	0.0	295.2595179080963	0.09997296333312988
55	250.32059693336487	fix_pre	0		120	53.0	2.5	/experiments/knapen_AOT/AOT_stimuli/rescaled_final/1950_fw.mp4	0.0	295.35949087142944	1.0001530647277832
55	250.89673280715942	pulse	0	t		53.0	2.5	/experiments/knapen_AOT/AOT_stimuli/rescaled_final/1950_fw.mp4	0.0	295.935626745224	
55	251.32074999809265	movie	1		245	53.0	2.5	/experiments/knapen_AOT/AOT_stimuli/rescaled_final/1950_fw.mp4	0.0	296.3596439361572	2.5003528594970703
55	252.50462579727173	pulse	1	t		53.0	2.5	/experiments/knapen_AOT/AOT_stimuli/rescaled_final/1950_fw.mp4	0.0	297.5435197353363	
55	253.82110285758972	fix_post	2		12	53.0	2.5	/experiments/knapen_AOT/AOT_stimuli/rescaled_final/1950_fw.mp4	0.0	298.8599967956543	0.10009407997131348
56	253.92119693756104	fix_pre	0		120	54.0	2.5	blank	1.0	298.9600908756256	1.0000510215759277
56	254.0971999168396	pulse	0	t		54.0	2.5	blank	1.0	299.1360938549042	
56	254.92124795913696	movie	1		300	54.0	2.5	blank	1.0	299.96014189720154	2.5004098415374756
56	255.6973888874054	pulse	1	t		54.0	2.5	blank	1.0	300.73628282546997	
56	257.29684591293335	pulse	1	t		54.0	2.5	blank	1.0	302.3357398509979	
56	257.42165780067444	fix_post	2		12	54.0	2.5	blank	1.0	302.460551738739	0.10002708435058594
57	257.521684885025	fix_pre	0		120	55.0	2.5	/experiments/knapen_AOT/AOT_stimuli/rescaled_final/1790_rv.mp4	0.0	302.5605788230896	1.0001211166381836
57	258.5218060016632	movie	1		243	55.0	2.5	/experiments/knapen_AOT/AOT_stimuli/rescaled_final/1790_rv.mp4	0.0	303.5606999397278	2.492067813873291
57	258.89702582359314	pulse	1	t		55.0	2.5	/experiments/knapen_AOT/AOT_stimuli/rescaled_final/1790_rv.mp4	0.0	303.9359197616577	
57	260.49741196632385	pulse	1	t		55.0	2.5	/experiments/knapen_AOT/AOT_stimuli/rescaled_final/1790_rv.mp4	0.0	305.5363059043884	
57	261.0138738155365	fix_post	2		12	55.0	2.5	/experiments/knapen_AOT/AOT_stimuli/rescaled_final/1790_rv.mp4	0.0	306.0527677536011	0.09998607635498047
58	261.1138598918915	fix_pre	0		119	56.0	2.5	/experiments/knapen_AOT/AOT_stimuli/rescaled_final/0852_fw.mp4	0.0	306.15275382995605	0.9918320178985596
58	262.09763288497925	pulse	0	t		56.0	2.5	/experiments/knapen_AOT/AOT_stimuli/rescaled_final/0852_fw.mp4	0.0	307.1365268230438	
58	262.10569190979004	movie	1		244	56.0	2.5	/experiments/knapen_AOT/AOT_stimuli/rescaled_final/0852_fw.mp4	0.0	307.1445858478546	2.508744955062866
58	263.69900393486023	pulse	1	t		56.0	2.5	/experiments/knapen_AOT/AOT_stimuli/rescaled_final/0852_fw.mp4	0.0	308.7378978729248	
58	264.6144368648529	fix_post	2		12	56.0	2.5	/experiments/knapen_AOT/AOT_stimuli/rescaled_final/0852_fw.mp4	0.0	309.6533308029175	0.09998798370361328
59	264.7144248485565	fix_pre	0		120	57.0	2.5	/experiments/knapen_AOT/AOT_stimuli/rescaled_final/1341_rv.mp4	0.0	309.7533187866211	1.0001399517059326
59	265.29801082611084	pulse	0	t		57.0	2.5	/experiments/knapen_AOT/AOT_stimuli/rescaled_final/1341_rv.mp4	0.0	310.3369047641754	
59	265.71456480026245	movie	1		244	57.0	2.5	/experiments/knapen_AOT/AOT_stimuli/rescaled_final/1341_rv.mp4	0.0	310.753458738327	2.500368118286133
59	266.8983278274536	pulse	1	t		57.0	2.5	/experiments/knapen_AOT/AOT_stimuli/rescaled_final/1341_rv.mp4	0.0	311.9372217655182	
59	268.2149329185486	fix_post	2		12	57.0	2.5	/experiments/knapen_AOT/AOT_stimuli/rescaled_final/1341_rv.mp4	0.0	313.25382685661316	0.10000801086425781
60	268.31494092941284	fix_pre	0		120	58.0	2.5	/experiments/knapen_AOT/AOT_stimuli/rescaled_final/2017_fw.mp4	0.0	313.3538348674774	1.0001518726348877
60	268.49858689308167	pulse	0	t		58.0	2.5	/experiments/knapen_AOT/AOT_stimuli/rescaled_final/2017_fw.mp4	0.0	313.53748083114624	
60	269.31509280204773	movie	1		244	58.0	2.5	/experiments/knapen_AOT/AOT_stimuli/rescaled_final/2017_fw.mp4	0.0	314.3539867401123	2.5004100799560547
60	270.09880089759827	pulse	1	t		58.0	2.5	/experiments/knapen_AOT/AOT_stimuli/rescaled_final/2017_fw.mp4	0.0	315.13769483566284	
60	271.69891691207886	pulse	1	t		58.0	2.5	/experiments/knapen_AOT/AOT_stimuli/rescaled_final/2017_fw.mp4	0.0	316.73781085014343	
60	271.8155028820038	fix_post	2		12	58.0	2.5	/experiments/knapen_AOT/AOT_stimuli/rescaled_final/2017_fw.mp4	0.0	316.85439682006836	0.09994792938232422
61	271.9154508113861	fix_pre	0		120	59.0	2.5	/experiments/knapen_AOT/AOT_stimuli/rescaled_final/2110_rv.mp4	0.0	316.9543447494507	1.0001840591430664
61	272.9156348705292	movie	1		245	59.0	2.5	/experiments/knapen_AOT/AOT_stimuli/rescaled_final/2110_rv.mp4	0.0	317.95452880859375	2.491997003555298
61	273.30028796195984	pulse	1	t		59.0	2.5	/experiments/knapen_AOT/AOT_stimuli/rescaled_final/2110_rv.mp4	0.0	318.3391819000244	
61	274.8995568752289	pulse	1	t		59.0	2.5	/experiments/knapen_AOT/AOT_stimuli/rescaled_final/2110_rv.mp4	0.0	319.93845081329346	
61	275.4076318740845	fix_post	2		12	59.0	2.5	/experiments/knapen_AOT/AOT_stimuli/rescaled_final/2110_rv.mp4	0.0	320.44652581214905	0.10000896453857422
62	275.50764083862305	fix_pre	0		120	60.0	2.5	/experiments/knapen_AOT/AOT_stimuli/rescaled_final/0789_fw.mp4	0.0	320.5465347766876	1.0002131462097168
62	276.4997088909149	pulse	0	t		60.0	2.5	/experiments/knapen_AOT/AOT_stimuli/rescaled_final/0789_fw.mp4	0.0	321.5386028289795	
62	276.50785398483276	movie	1		245	60.0	2.5	/experiments/knapen_AOT/AOT_stimuli/rescaled_final/0789_fw.mp4	0.0	321.54674792289734	2.5087149143218994
62	278.10110688209534	pulse	1	t		60.0	2.5	/experiments/knapen_AOT/AOT_stimuli/rescaled_final/0789_fw.mp4	0.0	323.1400008201599	
62	279.01656889915466	fix_post	2		12	60.0	2.5	/experiments/knapen_AOT/AOT_stimuli/rescaled_final/0789_fw.mp4	0.0	324.05546283721924	0.09999608993530273
63	279.11656498908997	fix_pre	0		120	61.0	2.5	/experiments/knapen_AOT/AOT_stimuli/rescaled_final/1399_rv.mp4	0.0	324.15545892715454	1.000119924545288
63	279.70023798942566	pulse	0	t		61.0	2.5	/experiments/knapen_AOT/AOT_stimuli/rescaled_final/1399_rv.mp4	0.0	324.73913192749023	
63	280.11668491363525	movie	1		244	61.0	2.5	/experiments/knapen_AOT/AOT_stimuli/rescaled_final/1399_rv.mp4	0.0	325.15557885169983	2.500364065170288
63	281.30062079429626	pulse	1	t		61.0	2.5	/experiments/knapen_AOT/AOT_stimuli/rescaled_final/1399_rv.mp4	0.0	326.33951473236084	
63	282.61704897880554	fix_post	2		12	61.0	2.5	/experiments/knapen_AOT/AOT_stimuli/rescaled_final/1399_rv.mp4	0.0	327.6559429168701	0.10002994537353516
64	282.7170789241791	fix_pre	0		120	62.0	2.5	/experiments/knapen_AOT/AOT_stimuli/rescaled_final/0941_rv.mp4	0.0	327.75597286224365	1.0001599788665771
64	282.9007339477539	pulse	0	t		62.0	2.5	/experiments/knapen_AOT/AOT_stimuli/rescaled_final/0941_rv.mp4	0.0	327.9396278858185	
64	283.71723890304565	movie	1		245	62.0	2.5	/experiments/knapen_AOT/AOT_stimuli/rescaled_final/0941_rv.mp4	0.0	328.75613284111023	2.5020430088043213
64	284.5009329319	pulse	1	t		62.0	2.5	/experiments/knapen_AOT/AOT_stimuli/rescaled_final/0941_rv.mp4	0.0	329.5398268699646	
64	286.1014130115509	pulse	1	t		62.0	2.5	/experiments/knapen_AOT/AOT_stimuli/rescaled_final/0941_rv.mp4	0.0	331.1403069496155	
64	286.21928191185	fix_post	2		9	62.0	2.5	/experiments/knapen_AOT/AOT_stimuli/rescaled_final/0941_rv.mp4	0.0	331.25817584991455	0.09834694862365723
65	286.31762886047363	fix_pre	0		120	63.0	2.5	blank	1.0	331.3565227985382	1.000195026397705
65	287.31782388687134	movie	1		299	63.0	2.5	blank	1.0	332.3567178249359	2.492003917694092
65	287.70140981674194	pulse	1	t		63.0	2.5	blank	1.0	332.7403037548065	
65	289.301629781723	pulse	1	t		63.0	2.5	blank	1.0	334.3405237197876	
65	289.80982780456543	fix_post	2		12	63.0	2.5	blank	1.0	334.84872174263	0.09999799728393555
66	289.90982580184937	fix_pre	0		120	64.0	2.5	/experiments/knapen_AOT/AOT_stimuli/rescaled_final/1847_rv.mp4	0.0	334.94871973991394	1.0001640319824219
66	290.90189599990845	pulse	0	t		64.0	2.5	/experiments/knapen_AOT/AOT_stimuli/rescaled_final/1847_rv.mp4	0.0	335.940789937973	
66	290.9099898338318	movie	1		245	64.0	2.5	/experiments/knapen_AOT/AOT_stimuli/rescaled_final/1847_rv.mp4	0.0	335.94888377189636	2.5087180137634277
66	292.5027868747711	pulse	1	t		64.0	2.5	/experiments/knapen_AOT/AOT_stimuli/rescaled_final/1847_rv.mp4	0.0	337.5416808128357	
66	293.4187078475952	fix_post	2		12	64.0	2.5	/experiments/knapen_AOT/AOT_stimuli/rescaled_final/1847_rv.mp4	0.0	338.4576017856598	0.09996914863586426
67	293.5186769962311	fix_pre	0		120	65.0	2.5	/experiments/knapen_AOT/AOT_stimuli/rescaled_final/0704_rv.mp4	0.0	338.55757093429565	1.0001859664916992
67	294.102374792099	pulse	0	t		65.0	2.5	/experiments/knapen_AOT/AOT_stimuli/rescaled_final/0704_rv.mp4	0.0	339.1412687301636	
67	294.5188629627228	movie	1		244	65.0	2.5	/experiments/knapen_AOT/AOT_stimuli/rescaled_final/0704_rv.mp4	0.0	339.55775690078735	2.5004138946533203
67	295.70269680023193	pulse	1	t		65.0	2.5	/experiments/knapen_AOT/AOT_stimuli/rescaled_final/0704_rv.mp4	0.0	340.7415907382965	
67	297.0192768573761	fix_post	2		12	65.0	2.5	/experiments/knapen_AOT/AOT_stimuli/rescaled_final/0704_rv.mp4	0.0	342.0581707954407	0.10001492500305176
68	297.11929178237915	fix_pre	0		120	66.0	2.5	/experiments/knapen_AOT/AOT_stimuli/rescaled_final/0962_rv.mp4	0.0	342.1581857204437	1.0001051425933838
68	297.30292797088623	pulse	0	t		66.0	2.5	/experiments/knapen_AOT/AOT_stimuli/rescaled_final/0962_rv.mp4	0.0	342.3418219089508	
68	298.11939692497253	movie	1		246	66.0	2.5	/experiments/knapen_AOT/AOT_stimuli/rescaled_final/0962_rv.mp4	0.0	343.1582908630371	2.5003409385681152
68	298.9029998779297	pulse	1	t		66.0	2.5	/experiments/knapen_AOT/AOT_stimuli/rescaled_final/0962_rv.mp4	0.0	343.94189381599426	
68	300.5032708644867	pulse	1	t		66.0	2.5	/experiments/knapen_AOT/AOT_stimuli/rescaled_final/0962_rv.mp4	0.0	345.54216480255127	
68	300.61973786354065	fix_post	2		12	66.0	2.5	/experiments/knapen_AOT/AOT_stimuli/rescaled_final/0962_rv.mp4	0.0	345.6586318016052	0.1000370979309082
69	300.71977496147156	fix_pre	0		120	67.0	2.5	/experiments/knapen_AOT/AOT_stimuli/rescaled_final/0195_fw.mp4	0.0	345.75866889953613	1.0001659393310547
69	301.7199409008026	movie	1		243	67.0	2.5	/experiments/knapen_AOT/AOT_stimuli/rescaled_final/0195_fw.mp4	0.0	346.7588348388672	2.492042064666748
69	302.10804295539856	pulse	1	t		67.0	2.5	/experiments/knapen_AOT/AOT_stimuli/rescaled_final/0195_fw.mp4	0.0	347.14693689346313	
69	303.7038369178772	pulse	1	t		67.0	2.5	/experiments/knapen_AOT/AOT_stimuli/rescaled_final/0195_fw.mp4	0.0	348.7427308559418	
69	304.21198296546936	fix_post	2		12	67.0	2.5	/experiments/knapen_AOT/AOT_stimuli/rescaled_final/0195_fw.mp4	0.0	349.25087690353394	0.10004901885986328
70	304.3120319843292	fix_pre	0		120	68.0	2.5	blank	1.0	349.3509259223938	1.0000948905944824
70	305.3040897846222	pulse	0	t		68.0	2.5	blank	1.0	350.34298372268677	
70	305.3121268749237	movie	1		301	68.0	2.5	blank	1.0	350.3510208129883	2.5087521076202393
70	306.9042499065399	pulse	1	t		68.0	2.5	blank	1.0	351.9431438446045	
70	307.82087898254395	fix_post	2		12	68.0	2.5	blank	1.0	352.8597729206085	0.09994101524353027
71	307.9208199977875	fix_pre	0		120	69.0	2.5	/experiments/knapen_AOT/AOT_stimuli/rescaled_final/0885_rv.mp4	0.0	352.95971393585205	1.0001537799835205
71	308.50447487831116	pulse	0	t		69.0	2.5	/experiments/knapen_AOT/AOT_stimuli/rescaled_final/0885_rv.mp4	0.0	353.54336881637573	
71	308.920973777771	movie	1		245	69.0	2.5	/experiments/knapen_AOT/AOT_stimuli/rescaled_final/0885_rv.mp4	0.0	353.95986771583557	2.5004241466522217
71	310.10059785842896	pulse	1	t		69.0	2.5	/experiments/knapen_AOT/AOT_stimuli/rescaled_final/0885_rv.mp4	0.0	355.13949179649353	
71	311.4213979244232	fix_post	2		12	69.0	2.5	/experiments/knapen_AOT/AOT_stimuli/rescaled_final/0885_rv.mp4	0.0	356.4602918624878	0.09999990463256836
72	311.5213978290558	fix_pre	0		120	70.0	2.5	/experiments/knapen_AOT/AOT_stimuli/rescaled_final/1855_rv.mp4	0.0	356.56029176712036	1.0002219676971436
72	311.6974837779999	pulse	0	t		70.0	2.5	/experiments/knapen_AOT/AOT_stimuli/rescaled_final/1855_rv.mp4	0.0	356.73637771606445	
72	312.52161979675293	movie	1		245	70.0	2.5	/experiments/knapen_AOT/AOT_stimuli/rescaled_final/1855_rv.mp4	0.0	357.5605137348175	2.5003130435943604
72	313.29682898521423	pulse	1	t		70.0	2.5	/experiments/knapen_AOT/AOT_stimuli/rescaled_final/1855_rv.mp4	0.0	358.3357229232788	
72	314.8971848487854	pulse	1	t		70.0	2.5	/experiments/knapen_AOT/AOT_stimuli/rescaled_final/1855_rv.mp4	0.0	359.93607878685	
72	315.0219328403473	fix_post	2		12	70.0	2.5	/experiments/knapen_AOT/AOT_stimuli/rescaled_final/1855_rv.mp4	0.0	360.06082677841187	0.09998512268066406
73	315.12191796302795	fix_pre	0		120	71.0	2.5	/experiments/knapen_AOT/AOT_stimuli/rescaled_final/1703_fw.mp4	0.0	360.16081190109253	1.0001490116119385
73	316.1220669746399	movie	1		244	71.0	2.5	/experiments/knapen_AOT/AOT_stimuli/rescaled_final/1703_fw.mp4	0.0	361.16096091270447	2.4920389652252197
73	316.4972779750824	pulse	1	t		71.0	2.5	/experiments/knapen_AOT/AOT_stimuli/rescaled_final/1703_fw.mp4	0.0	361.536171913147	
73	318.0976128578186	pulse	1	t		71.0	2.5	/experiments/knapen_AOT/AOT_stimuli/rescaled_final/1703_fw.mp4	0.0	363.1365067958832	
73	318.6141059398651	fix_post	2		12	71.0	2.5	/experiments/knapen_AOT/AOT_stimuli/rescaled_final/1703_fw.mp4	0.0	363.6529998779297	0.1000208854675293
74	318.71412682533264	fix_pre	0		119	72.0	2.5	/experiments/knapen_AOT/AOT_stimuli/rescaled_final/1037_fw.mp4	0.0	363.7530207633972	0.9918539524078369
74	319.69784688949585	pulse	0	t		72.0	2.5	/experiments/knapen_AOT/AOT_stimuli/rescaled_final/1037_fw.mp4	0.0	364.7367408275604	
74	319.7059807777405	movie	1		247	72.0	2.5	/experiments/knapen_AOT/AOT_stimuli/rescaled_final/1037_fw.mp4	0.0	364.74487471580505	2.5086941719055176
74	321.3018147945404	pulse	1	t		72.0	2.5	/experiments/knapen_AOT/AOT_stimuli/rescaled_final/1037_fw.mp4	0.0	366.340708732605	
74	322.214674949646	fix_post	2		12	72.0	2.5	/experiments/knapen_AOT/AOT_stimuli/rescaled_final/1037_fw.mp4	0.0	367.25356888771057	0.09998703002929688
75	322.3146619796753	fix_pre	0		120	73.0	2.5	/experiments/knapen_AOT/AOT_stimuli/rescaled_final/1598_fw.mp4	0.0	367.35355591773987	1.0001709461212158
75	322.8983488082886	pulse	0	t		73.0	2.5	/experiments/knapen_AOT/AOT_stimuli/rescaled_final/1598_fw.mp4	0.0	367.93724274635315	
75	323.3148329257965	movie	1		244	73.0	2.5	/experiments/knapen_AOT/AOT_stimuli/rescaled_final/1598_fw.mp4	0.0	368.3537268638611	2.500361919403076
75	324.49857997894287	pulse	1	t		73.0	2.5	/experiments/knapen_AOT/AOT_stimuli/rescaled_final/1598_fw.mp4	0.0	369.53747391700745	
75	325.8151948451996	fix_post	2		12	73.0	2.5	/experiments/knapen_AOT/AOT_stimuli/rescaled_final/1598_fw.mp4	0.0	370.85408878326416	0.09998607635498047
76	325.91518092155457	fix_pre	0		120	74.0	2.5	/experiments/knapen_AOT/AOT_stimuli/rescaled_final/1334_fw.mp4	0.0	370.95407485961914	1.0002329349517822
76	326.0988140106201	pulse	0	t		74.0	2.5	/experiments/knapen_AOT/AOT_stimuli/rescaled_final/1334_fw.mp4	0.0	371.1377079486847	
76	326.91541385650635	movie	1		244	74.0	2.5	/experiments/knapen_AOT/AOT_stimuli/rescaled_final/1334_fw.mp4	0.0	371.9543077945709	2.5002870559692383
76	327.69904494285583	pulse	1	t		74.0	2.5	/experiments/knapen_AOT/AOT_stimuli/rescaled_final/1334_fw.mp4	0.0	372.7379388809204	
76	329.29938793182373	pulse	1	t		74.0	2.5	/experiments/knapen_AOT/AOT_stimuli/rescaled_final/1334_fw.mp4	0.0	374.3382818698883	
76	329.4157009124756	fix_post	2		12	74.0	2.5	/experiments/knapen_AOT/AOT_stimuli/rescaled_final/1334_fw.mp4	0.0	374.45459485054016	0.10004997253417969
77	329.51575088500977	fix_pre	0		120	75.0	2.5	/experiments/knapen_AOT/AOT_stimuli/rescaled_final/0363_fw.mp4	0.0	374.55464482307434	1.0001120567321777
77	330.51586294174194	movie	1		244	75.0	2.5	/experiments/knapen_AOT/AOT_stimuli/rescaled_final/0363_fw.mp4	0.0	375.5547568798065	2.492110013961792
77	330.90009784698486	pulse	1	t		75.0	2.5	/experiments/knapen_AOT/AOT_stimuli/rescaled_final/0363_fw.mp4	0.0	375.93899178504944	
77	332.49978590011597	pulse	1	t		75.0	2.5	/experiments/knapen_AOT/AOT_stimuli/rescaled_final/0363_fw.mp4	0.0	377.53867983818054	
77	333.00797295570374	fix_post	2		12	75.0	2.5	/experiments/knapen_AOT/AOT_stimuli/rescaled_final/0363_fw.mp4	0.0	378.0468668937683	0.09994983673095703
78	333.1079227924347	fix_pre	0		120	76.0	2.5	blank	1.0	378.14681673049927	1.0001850128173828
78	334.10001587867737	pulse	0	t		76.0	2.5	blank	1.0	379.13890981674194	
78	334.1081078052521	movie	1		301	76.0	2.5	blank	1.0	379.14700174331665	2.508683204650879
78	335.7002799510956	pulse	1	t		76.0	2.5	blank	1.0	380.73917388916016	
78	336.61679100990295	fix_post	2		12	76.0	2.5	blank	1.0	381.65568494796753	0.09999799728393555
79	336.7167890071869	fix_pre	0		120	77.0	2.5	/experiments/knapen_AOT/AOT_stimuli/rescaled_final/1817_rv.mp4	0.0	381.75568294525146	1.0001847743988037
79	337.3004238605499	pulse	0	t		77.0	2.5	/experiments/knapen_AOT/AOT_stimuli/rescaled_final/1817_rv.mp4	0.0	382.3393177986145	
79	337.7169737815857	movie	1		245	77.0	2.5	/experiments/knapen_AOT/AOT_stimuli/rescaled_final/1817_rv.mp4	0.0	382.75586771965027	2.500401020050049
79	338.9007329940796	pulse	1	t		77.0	2.5	/experiments/knapen_AOT/AOT_stimuli/rescaled_final/1817_rv.mp4	0.0	383.93962693214417	
79	340.21737480163574	fix_post	2		12	77.0	2.5	/experiments/knapen_AOT/AOT_stimuli/rescaled_final/1817_rv.mp4	0.0	385.2562687397003	0.10001897811889648
80	340.31739377975464	fix_pre	0		120	78.0	2.5	/experiments/knapen_AOT/AOT_stimuli/rescaled_final/0223_rv.mp4	0.0	385.3562877178192	1.0000920295715332
80	340.50091195106506	pulse	0	t		78.0	2.5	/experiments/knapen_AOT/AOT_stimuli/rescaled_final/0223_rv.mp4	0.0	385.53980588912964	
80	341.3174858093262	movie	1		243	78.0	2.5	/experiments/knapen_AOT/AOT_stimuli/rescaled_final/0223_rv.mp4	0.0	386.35637974739075	2.5004019737243652
80	342.10126996040344	pulse	1	t		78.0	2.5	/experiments/knapen_AOT/AOT_stimuli/rescaled_final/0223_rv.mp4	0.0	387.140163898468	
80	343.7013897895813	pulse	1	t		78.0	2.5	/experiments/knapen_AOT/AOT_stimuli/rescaled_final/0223_rv.mp4	0.0	388.7402837276459	
80	343.81788778305054	fix_post	2		12	78.0	2.5	/experiments/knapen_AOT/AOT_stimuli/rescaled_final/0223_rv.mp4	0.0	388.8567817211151	0.10000205039978027
81	343.9178898334503	fix_pre	0		120	79.0	2.5	/experiments/knapen_AOT/AOT_stimuli/rescaled_final/1270_fw.mp4	0.0	388.9567837715149	1.000148057937622
81	344.91803789138794	movie	1		244	79.0	2.5	/experiments/knapen_AOT/AOT_stimuli/rescaled_final/1270_fw.mp4	0.0	389.9569318294525	2.492219924926758
81	345.3029398918152	pulse	1	t		79.0	2.5	/experiments/knapen_AOT/AOT_stimuli/rescaled_final/1270_fw.mp4	0.0	390.34183382987976	
81	346.90187191963196	pulse	1	t		79.0	2.5	/experiments/knapen_AOT/AOT_stimuli/rescaled_final/1270_fw.mp4	0.0	391.94076585769653	
81	347.4102578163147	fix_post	2		11	79.0	2.5	/experiments/knapen_AOT/AOT_stimuli/rescaled_final/1270_fw.mp4	0.0	392.4491517543793	0.09986710548400879
82	347.5101249217987	fix_pre	0		120	80.0	2.5	/experiments/knapen_AOT/AOT_stimuli/rescaled_final/2044_fw.mp4	0.0	392.5490188598633	1.0001270771026611
82	348.50215792655945	pulse	0	t		80.0	2.5	/experiments/knapen_AOT/AOT_stimuli/rescaled_final/2044_fw.mp4	0.0	393.541051864624	
82	348.51025199890137	movie	1		245	80.0	2.5	/experiments/knapen_AOT/AOT_stimuli/rescaled_final/2044_fw.mp4	0.0	393.54914593696594	2.508737802505493
82	350.10304284095764	pulse	1	t		80.0	2.5	/experiments/knapen_AOT/AOT_stimuli/rescaled_final/2044_fw.mp4	0.0	395.1419367790222	
82	351.01898980140686	fix_post	2		12	80.0	2.5	/experiments/knapen_AOT/AOT_stimuli/rescaled_final/2044_fw.mp4	0.0	396.05788373947144	0.10003399848937988
83	351.11902379989624	fix_pre	0		120	81.0	2.5	/experiments/knapen_AOT/AOT_stimuli/rescaled_final/1087_fw.mp4	0.0	396.1579177379608	1.0001220703125
83	351.7026789188385	pulse	0	t		81.0	2.5	/experiments/knapen_AOT/AOT_stimuli/rescaled_final/1087_fw.mp4	0.0	396.7415728569031	
83	352.11914587020874	movie	1		245	81.0	2.5	/experiments/knapen_AOT/AOT_stimuli/rescaled_final/1087_fw.mp4	0.0	397.1580398082733	2.5003929138183594
83	353.30292296409607	pulse	1	t		81.0	2.5	/experiments/knapen_AOT/AOT_stimuli/rescaled_final/1087_fw.mp4	0.0	398.34181690216064	
83	354.6195387840271	fix_post	2		12	81.0	2.5	/experiments/knapen_AOT/AOT_stimuli/rescaled_final/1087_fw.mp4	0.0	399.6584327220917	0.09993815422058105
84	354.7194769382477	fix_pre	0		120	82.0	2.5	/experiments/knapen_AOT/AOT_stimuli/rescaled_final/0144_fw.mp4	0.0	399.75837087631226	1.000148057937622
84	354.9030919075012	pulse	0	t		82.0	2.5	/experiments/knapen_AOT/AOT_stimuli/rescaled_final/0144_fw.mp4	0.0	399.9419858455658	
84	355.7196249961853	movie	1		244	82.0	2.5	/experiments/knapen_AOT/AOT_stimuli/rescaled_final/0144_fw.mp4	0.0	400.7585189342499	2.500417947769165
84	356.50328183174133	pulse	1	t		82.0	2.5	/experiments/knapen_AOT/AOT_stimuli/rescaled_final/0144_fw.mp4	0.0	401.5421757698059	
84	358.10526180267334	pulse	1	t		82.0	2.5	/experiments/knapen_AOT/AOT_stimuli/rescaled_final/0144_fw.mp4	0.0	403.1441557407379	
84	358.22004294395447	fix_post	2		12	82.0	2.5	/experiments/knapen_AOT/AOT_stimuli/rescaled_final/0144_fw.mp4	0.0	403.25893688201904	0.09998893737792969
85	358.3200318813324	fix_pre	0		120	83.0	2.5	blank	1.0	403.358925819397	1.0001249313354492
85	359.32015681266785	movie	1		299	83.0	2.5	blank	1.0	404.3590507507324	2.4920949935913086
85	359.70375895500183	pulse	1	t		83.0	2.5	blank	1.0	404.7426528930664	
85	361.3039360046387	pulse	1	t		83.0	2.5	blank	1.0	406.34282994270325	
85	361.81225180625916	fix_post	2		12	83.0	2.5	blank	1.0	406.85114574432373	0.09997415542602539
87	361.9122259616852	stim	0		1716					406.95111989974976	14.302239894866943
87	362.9043219089508	pulse	0	t						407.9432158470154	
87	364.4972128868103	pulse	0	t						409.5361068248749	
87	366.09743189811707	pulse	0	t						411.13632583618164	
87	367.69771695137024	pulse	0	t						412.7366108894348	
87	369.2977828979492	pulse	0	t						414.3366768360138	
87	370.89705896377563	pulse	0	t						415.9359529018402	
87	372.4972438812256	pulse	0	t						417.53613781929016	
87	374.0975728034973	pulse	0	t						419.1364667415619	
87	375.69776678085327	pulse	0	t						420.73666071891785	
