trial_nr	onset	event_type	phase	response	nr_frames	movie_index	movie_duration	movie_file	blank	onset_abs	duration
0	0.1915910243988037	stim	0		131					25.51355504989624	1.0916478633880615
0	1.275303840637207	response	0	space						26.597267866134644	
1	1.2832388877868652	stim	0		4707					26.6052029132843	39.24989604949951
1	40.50362682342529	pulse	0	t						65.82559084892273	
1	40.53313493728638	stim	1		1716					65.85509896278381	14.299833059310913
1	42.09801983833313	pulse	1	t						67.41998386383057	
1	43.69810199737549	pulse	1	t						69.02006602287292	
1	45.29824495315552	pulse	1	t						70.62020897865295	
1	46.89859890937805	pulse	1	t						72.22056293487549	
1	48.498822927474976	pulse	1	t						73.82078695297241	
1	50.099037885665894	pulse	1	t						75.42100191116333	
1	51.699259996414185	pulse	1	t						77.02122402191162	
1	53.299448013305664	pulse	1	t						78.6214120388031	
2	54.83296799659729	fix_pre	0		9	0.0	2.5	/experiments/knapen_AOT/AOT_stimuli/rescaled_final/1424_rv.mp4	0.0	80.15493202209473	0.07497096061706543
2	54.899791955947876	pulse	0	t		0.0	2.5	/experiments/knapen_AOT/AOT_stimuli/rescaled_final/1424_rv.mp4	0.0	80.22175598144531	
2	54.907938957214355	movie	1		244	0.0	2.5	/experiments/knapen_AOT/AOT_stimuli/rescaled_final/1424_rv.mp4	0.0	80.22990298271179	2.5086989402770996
2	56.50141191482544	pulse	1	t		0.0	2.5	/experiments/knapen_AOT/AOT_stimuli/rescaled_final/1424_rv.mp4	0.0	81.82337594032288	
2	57.416637897491455	fix_post	2		12	0.0	2.5	/experiments/knapen_AOT/AOT_stimuli/rescaled_final/1424_rv.mp4	0.0	82.73860192298889	0.10002398490905762
3	57.51666188240051	fix_pre	0		120	1.0	2.5	/experiments/knapen_AOT/AOT_stimuli/rescaled_final/0681_rv.mp4	0.0	82.83862590789795	1.000169038772583
3	58.100302934646606	pulse	0	t		1.0	2.5	/experiments/knapen_AOT/AOT_stimuli/rescaled_final/0681_rv.mp4	0.0	83.42226696014404	
3	58.516830921173096	movie	1		243	1.0	2.5	/experiments/knapen_AOT/AOT_stimuli/rescaled_final/0681_rv.mp4	0.0	83.83879494667053	2.5004138946533203
3	59.700745820999146	pulse	1	t		1.0	2.5	/experiments/knapen_AOT/AOT_stimuli/rescaled_final/0681_rv.mp4	0.0	85.02270984649658	
3	61.017244815826416	fix_post	2		12	1.0	2.5	/experiments/knapen_AOT/AOT_stimuli/rescaled_final/0681_rv.mp4	0.0	86.33920884132385	0.09994220733642578
4	61.11718702316284	fix_pre	0		120	2.0	2.5	/experiments/knapen_AOT/AOT_stimuli/rescaled_final/2070_fw.mp4	0.0	86.43915104866028	1.0002028942108154
4	61.300822019577026	pulse	0	t		2.0	2.5	/experiments/knapen_AOT/AOT_stimuli/rescaled_final/2070_fw.mp4	0.0	86.62278604507446	
4	62.11738991737366	movie	1		244	2.0	2.5	/experiments/knapen_AOT/AOT_stimuli/rescaled_final/2070_fw.mp4	0.0	87.4393539428711	2.5003280639648438
4	62.901036977767944	pulse	1	t		2.0	2.5	/experiments/knapen_AOT/AOT_stimuli/rescaled_final/2070_fw.mp4	0.0	88.22300100326538	
4	64.50229692459106	pulse	1	t		2.0	2.5	/experiments/knapen_AOT/AOT_stimuli/rescaled_final/2070_fw.mp4	0.0	89.8242609500885	
4	64.6177179813385	fix_post	2		12	2.0	2.5	/experiments/knapen_AOT/AOT_stimuli/rescaled_final/2070_fw.mp4	0.0	89.93968200683594	0.1000828742980957
5	64.7178008556366	fix_pre	0		120	3.0	2.5	/experiments/knapen_AOT/AOT_stimuli/rescaled_final/0914_rv.mp4	0.0	90.03976488113403	1.0000720024108887
5	65.71787285804749	movie	1		245	3.0	2.5	/experiments/knapen_AOT/AOT_stimuli/rescaled_final/0914_rv.mp4	0.0	91.03983688354492	2.4920589923858643
5	66.10204601287842	pulse	1	t		3.0	2.5	/experiments/knapen_AOT/AOT_stimuli/rescaled_final/0914_rv.mp4	0.0	91.42401003837585	
5	67.7018449306488	pulse	1	t		3.0	2.5	/experiments/knapen_AOT/AOT_stimuli/rescaled_final/0914_rv.mp4	0.0	93.02380895614624	
5	68.20993185043335	fix_post	2		12	3.0	2.5	/experiments/knapen_AOT/AOT_stimuli/rescaled_final/0914_rv.mp4	0.0	93.53189587593079	0.10008502006530762
6	68.31001687049866	fix_pre	0		120	4.0	2.5	/experiments/knapen_AOT/AOT_stimuli/rescaled_final/1869_fw.mp4	0.0	93.6319808959961	1.0001380443572998
6	69.3019540309906	pulse	0	t		4.0	2.5	/experiments/knapen_AOT/AOT_stimuli/rescaled_final/1869_fw.mp4	0.0	94.62391805648804	
6	69.31015491485596	movie	1		244	4.0	2.5	/experiments/knapen_AOT/AOT_stimuli/rescaled_final/1869_fw.mp4	0.0	94.6321189403534	2.508625030517578
6	70.90352296829224	pulse	1	t		4.0	2.5	/experiments/knapen_AOT/AOT_stimuli/rescaled_final/1869_fw.mp4	0.0	96.22548699378967	
6	71.81877994537354	fix_post	2		12	4.0	2.5	/experiments/knapen_AOT/AOT_stimuli/rescaled_final/1869_fw.mp4	0.0	97.14074397087097	0.10004591941833496
7	71.91882586479187	fix_pre	0		120	5.0	2.5	blank	1.0	97.2407898902893	1.000175952911377
7	72.50240302085876	pulse	0	t		5.0	2.5	blank	1.0	97.8243670463562	
7	72.91900181770325	movie	1		300	5.0	2.5	blank	1.0	98.24096584320068	2.5003740787506104
7	74.10277700424194	pulse	1	t		5.0	2.5	blank	1.0	99.42474102973938	
7	75.41937589645386	fix_post	2		12	5.0	2.5	blank	1.0	100.7413399219513	0.09998893737792969
8	75.51936483383179	fix_pre	0		120	6.0	2.5	/experiments/knapen_AOT/AOT_stimuli/rescaled_final/0247_fw.mp4	0.0	100.84132885932922	1.000148057937622
8	75.70295786857605	pulse	0	t		6.0	2.5	/experiments/knapen_AOT/AOT_stimuli/rescaled_final/0247_fw.mp4	0.0	101.02492189407349	
8	76.51951289176941	movie	1		244	6.0	2.5	/experiments/knapen_AOT/AOT_stimuli/rescaled_final/0247_fw.mp4	0.0	101.84147691726685	2.500333070755005
8	77.30316090583801	pulse	1	t		6.0	2.5	/experiments/knapen_AOT/AOT_stimuli/rescaled_final/0247_fw.mp4	0.0	102.62512493133545	
8	78.9038438796997	pulse	1	t		6.0	2.5	/experiments/knapen_AOT/AOT_stimuli/rescaled_final/0247_fw.mp4	0.0	104.22580790519714	
8	79.01984596252441	fix_post	2		12	6.0	2.5	/experiments/knapen_AOT/AOT_stimuli/rescaled_final/0247_fw.mp4	0.0	104.34180998802185	0.10004091262817383
9	79.11988687515259	fix_pre	0		120	7.0	2.5	/experiments/knapen_AOT/AOT_stimuli/rescaled_final/0402_rv.mp4	0.0	104.44185090065002	1.0001399517059326
9	80.12002682685852	movie	1		243	7.0	2.5	/experiments/knapen_AOT/AOT_stimuli/rescaled_final/0402_rv.mp4	0.0	105.44199085235596	2.4920380115509033
9	80.5039210319519	pulse	1	t		7.0	2.5	/experiments/knapen_AOT/AOT_stimuli/rescaled_final/0402_rv.mp4	0.0	105.82588505744934	
9	82.10394096374512	pulse	1	t		7.0	2.5	/experiments/knapen_AOT/AOT_stimuli/rescaled_final/0402_rv.mp4	0.0	107.42590498924255	
9	82.61206483840942	fix_post	2		12	7.0	2.5	/experiments/knapen_AOT/AOT_stimuli/rescaled_final/0402_rv.mp4	0.0	107.93402886390686	0.10012507438659668
10	82.71218991279602	fix_pre	0		120	8.0	2.5	/experiments/knapen_AOT/AOT_stimuli/rescaled_final/1900_rv.mp4	0.0	108.03415393829346	1.0000391006469727
10	83.70415091514587	pulse	0	t		8.0	2.5	/experiments/knapen_AOT/AOT_stimuli/rescaled_final/1900_rv.mp4	0.0	109.02611494064331	
10	83.712229013443	movie	1		245	8.0	2.5	/experiments/knapen_AOT/AOT_stimuli/rescaled_final/1900_rv.mp4	0.0	109.03419303894043	2.5086870193481445
10	85.3051187992096	pulse	1	t		8.0	2.5	/experiments/knapen_AOT/AOT_stimuli/rescaled_final/1900_rv.mp4	0.0	110.62708282470703	
10	86.22091603279114	fix_post	2		12	8.0	2.5	/experiments/knapen_AOT/AOT_stimuli/rescaled_final/1900_rv.mp4	0.0	111.54288005828857	0.10006499290466309
11	86.3209810256958	fix_pre	0		120	9.0	2.5	/experiments/knapen_AOT/AOT_stimuli/rescaled_final/1420_rv.mp4	0.0	111.64294505119324	1.000133991241455
11	86.9045729637146	pulse	0	t		9.0	2.5	/experiments/knapen_AOT/AOT_stimuli/rescaled_final/1420_rv.mp4	0.0	112.22653698921204	
11	87.32111501693726	movie	1		244	9.0	2.5	/experiments/knapen_AOT/AOT_stimuli/rescaled_final/1420_rv.mp4	0.0	112.64307904243469	2.500405788421631
11	88.50500702857971	pulse	1	t		9.0	2.5	/experiments/knapen_AOT/AOT_stimuli/rescaled_final/1420_rv.mp4	0.0	113.82697105407715	
11	89.82152080535889	fix_post	2		10	9.0	2.5	/experiments/knapen_AOT/AOT_stimuli/rescaled_final/1420_rv.mp4	0.0	115.14348483085632	0.09995412826538086
12	89.92147493362427	fix_pre	0		120	10.0	2.5	/experiments/knapen_AOT/AOT_stimuli/rescaled_final/0268_rv.mp4	0.0	115.2434389591217	1.000216007232666
12	90.10511302947998	pulse	0	t		10.0	2.5	/experiments/knapen_AOT/AOT_stimuli/rescaled_final/0268_rv.mp4	0.0	115.42707705497742	
12	90.92169094085693	movie	1		244	10.0	2.5	/experiments/knapen_AOT/AOT_stimuli/rescaled_final/0268_rv.mp4	0.0	116.24365496635437	2.5003268718719482
12	91.70527696609497	pulse	1	t		10.0	2.5	/experiments/knapen_AOT/AOT_stimuli/rescaled_final/0268_rv.mp4	0.0	117.02724099159241	
12	93.30553388595581	pulse	1	t		10.0	2.5	/experiments/knapen_AOT/AOT_stimuli/rescaled_final/0268_rv.mp4	0.0	118.62749791145325	
12	93.42201781272888	fix_post	2		12	10.0	2.5	/experiments/knapen_AOT/AOT_stimuli/rescaled_final/0268_rv.mp4	0.0	118.74398183822632	0.10004615783691406
13	93.5220639705658	fix_pre	0		119	11.0	2.5	/experiments/knapen_AOT/AOT_stimuli/rescaled_final/1502_fw.mp4	0.0	118.84402799606323	0.9917869567871094
13	94.5138509273529	movie	1		246	11.0	2.5	/experiments/knapen_AOT/AOT_stimuli/rescaled_final/1502_fw.mp4	0.0	119.83581495285034	2.5004079341888428
13	94.90587997436523	pulse	1	t		11.0	2.5	/experiments/knapen_AOT/AOT_stimuli/rescaled_final/1502_fw.mp4	0.0	120.22784399986267	
13	96.49865984916687	pulse	1	t		11.0	2.5	/experiments/knapen_AOT/AOT_stimuli/rescaled_final/1502_fw.mp4	0.0	121.8206238746643	
13	97.01425886154175	fix_post	2		12	11.0	2.5	/experiments/knapen_AOT/AOT_stimuli/rescaled_final/1502_fw.mp4	0.0	122.33622288703918	0.09997797012329102
14	97.11423683166504	fix_pre	0		120	12.0	2.5	/experiments/knapen_AOT/AOT_stimuli/rescaled_final/1797_fw.mp4	0.0	122.43620085716248	1.0002241134643555
14	98.09883689880371	pulse	0	t		12.0	2.5	/experiments/knapen_AOT/AOT_stimuli/rescaled_final/1797_fw.mp4	0.0	123.42080092430115	
14	98.1144609451294	movie	1		245	12.0	2.5	/experiments/knapen_AOT/AOT_stimuli/rescaled_final/1797_fw.mp4	0.0	123.43642497062683	2.508643865585327
14	99.70705080032349	pulse	1	t		12.0	2.5	/experiments/knapen_AOT/AOT_stimuli/rescaled_final/1797_fw.mp4	0.0	125.02901482582092	
14	100.62310481071472	fix_post	2		12	12.0	2.5	/experiments/knapen_AOT/AOT_stimuli/rescaled_final/1797_fw.mp4	0.0	125.94506883621216	0.10001206398010254
15	100.72311687469482	fix_pre	0		120	13.0	2.5	blank	1.0	126.04508090019226	1.0001349449157715
15	101.2991578578949	pulse	0	t		13.0	2.5	blank	1.0	126.62112188339233	
15	101.7232518196106	movie	1		300	13.0	2.5	blank	1.0	127.04521584510803	2.500380039215088
15	102.89870595932007	pulse	1	t		13.0	2.5	blank	1.0	128.2206699848175	
15	104.22363185882568	fix_post	2		12	13.0	2.5	blank	1.0	129.54559588432312	0.10003900527954102
16	104.32367086410522	fix_pre	0		120	14.0	2.5	/experiments/knapen_AOT/AOT_stimuli/rescaled_final/0932_rv.mp4	0.0	129.64563488960266	1.0001001358032227
16	104.49899196624756	pulse	0	t		14.0	2.5	/experiments/knapen_AOT/AOT_stimuli/rescaled_final/0932_rv.mp4	0.0	129.820955991745	
16	105.32377099990845	movie	1		244	14.0	2.5	/experiments/knapen_AOT/AOT_stimuli/rescaled_final/0932_rv.mp4	0.0	130.64573502540588	2.5004069805145264
16	106.09915900230408	pulse	1	t		14.0	2.5	/experiments/knapen_AOT/AOT_stimuli/rescaled_final/0932_rv.mp4	0.0	131.4211230278015	
16	107.69933080673218	pulse	1	t		14.0	2.5	/experiments/knapen_AOT/AOT_stimuli/rescaled_final/0932_rv.mp4	0.0	133.02129483222961	
16	107.82417798042297	fix_post	2		12	14.0	2.5	/experiments/knapen_AOT/AOT_stimuli/rescaled_final/0932_rv.mp4	0.0	133.1461420059204	0.09999489784240723
17	107.92417287826538	fix_pre	0		119	15.0	2.5	/experiments/knapen_AOT/AOT_stimuli/rescaled_final/1391_rv.mp4	0.0	133.24613690376282	0.9918339252471924
17	108.91600680351257	movie	1		243	15.0	2.5	/experiments/knapen_AOT/AOT_stimuli/rescaled_final/1391_rv.mp4	0.0	134.23797082901	2.5003671646118164
17	109.30019783973694	pulse	1	t		15.0	2.5	/experiments/knapen_AOT/AOT_stimuli/rescaled_final/1391_rv.mp4	0.0	134.62216186523438	
17	110.89981985092163	pulse	1	t		15.0	2.5	/experiments/knapen_AOT/AOT_stimuli/rescaled_final/1391_rv.mp4	0.0	136.22178387641907	
17	111.41637396812439	fix_post	2		12	15.0	2.5	/experiments/knapen_AOT/AOT_stimuli/rescaled_final/1391_rv.mp4	0.0	136.73833799362183	0.10002493858337402
18	111.51639890670776	fix_pre	0		119	16.0	2.5	/experiments/knapen_AOT/AOT_stimuli/rescaled_final/2033_fw.mp4	0.0	136.8383629322052	0.9917900562286377
18	112.5001609325409	pulse	0	t		16.0	2.5	/experiments/knapen_AOT/AOT_stimuli/rescaled_final/2033_fw.mp4	0.0	137.82212495803833	
18	112.5081889629364	movie	1		245	16.0	2.5	/experiments/knapen_AOT/AOT_stimuli/rescaled_final/2033_fw.mp4	0.0	137.83015298843384	2.508749008178711
18	114.10078191757202	pulse	1	t		16.0	2.5	/experiments/knapen_AOT/AOT_stimuli/rescaled_final/2033_fw.mp4	0.0	139.42274594306946	
18	115.01693797111511	fix_post	2		12	16.0	2.5	/experiments/knapen_AOT/AOT_stimuli/rescaled_final/2033_fw.mp4	0.0	140.33890199661255	0.10003995895385742
19	115.11697793006897	fix_pre	0		120	17.0	2.5	/experiments/knapen_AOT/AOT_stimuli/rescaled_final/0074_fw.mp4	0.0	140.4389419555664	1.0001320838928223
19	115.7004759311676	pulse	0	t		17.0	2.5	/experiments/knapen_AOT/AOT_stimuli/rescaled_final/0074_fw.mp4	0.0	141.02243995666504	
19	116.11711001396179	movie	1		247	17.0	2.5	/experiments/knapen_AOT/AOT_stimuli/rescaled_final/0074_fw.mp4	0.0	141.43907403945923	2.500351905822754
19	117.3008918762207	pulse	1	t		17.0	2.5	/experiments/knapen_AOT/AOT_stimuli/rescaled_final/0074_fw.mp4	0.0	142.62285590171814	
19	118.61746191978455	fix_post	2		12	17.0	2.5	/experiments/knapen_AOT/AOT_stimuli/rescaled_final/0074_fw.mp4	0.0	143.93942594528198	0.10001993179321289
20	118.71748185157776	fix_pre	0		120	18.0	2.5	/experiments/knapen_AOT/AOT_stimuli/rescaled_final/0080_fw.mp4	0.0	144.0394458770752	1.0001370906829834
20	118.90113592147827	pulse	0	t		18.0	2.5	/experiments/knapen_AOT/AOT_stimuli/rescaled_final/0080_fw.mp4	0.0	144.2230999469757	
20	119.71761894226074	movie	1		246	18.0	2.5	/experiments/knapen_AOT/AOT_stimuli/rescaled_final/0080_fw.mp4	0.0	145.03958296775818	2.5003719329833984
20	120.50129580497742	pulse	1	t		18.0	2.5	/experiments/knapen_AOT/AOT_stimuli/rescaled_final/0080_fw.mp4	0.0	145.82325983047485	
20	122.10150194168091	pulse	1	t		18.0	2.5	/experiments/knapen_AOT/AOT_stimuli/rescaled_final/0080_fw.mp4	0.0	147.42346596717834	
20	122.21799087524414	fix_post	2		12	18.0	2.5	/experiments/knapen_AOT/AOT_stimuli/rescaled_final/0080_fw.mp4	0.0	147.53995490074158	0.10002899169921875
21	122.31801986694336	fix_pre	0		120	19.0	2.5	blank	1.0	147.6399838924408	1.000110149383545
21	123.3181300163269	movie	1		299	19.0	2.5	blank	1.0	148.64009404182434	2.4920718669891357
21	123.70182299613953	pulse	1	t		19.0	2.5	blank	1.0	149.02378702163696	
21	125.30200695991516	pulse	1	t		19.0	2.5	blank	1.0	150.6239709854126	
21	125.81020188331604	fix_post	2		12	19.0	2.5	blank	1.0	151.13216590881348	0.10001397132873535
22	125.91021585464478	fix_pre	0		120	20.0	2.5	/experiments/knapen_AOT/AOT_stimuli/rescaled_final/1988_fw.mp4	0.0	151.2321798801422	1.0001530647277832
22	126.90231800079346	pulse	0	t		20.0	2.5	/experiments/knapen_AOT/AOT_stimuli/rescaled_final/1988_fw.mp4	0.0	152.2242820262909	
22	126.91036891937256	movie	1		245	20.0	2.5	/experiments/knapen_AOT/AOT_stimuli/rescaled_final/1988_fw.mp4	0.0	152.23233294487	2.5087668895721436
22	128.5068998336792	pulse	1	t		20.0	2.5	/experiments/knapen_AOT/AOT_stimuli/rescaled_final/1988_fw.mp4	0.0	153.82886385917664	
22	129.4191358089447	fix_post	2		12	20.0	2.5	/experiments/knapen_AOT/AOT_stimuli/rescaled_final/1988_fw.mp4	0.0	154.74109983444214	0.09998202323913574
23	129.51911783218384	fix_pre	0		120	21.0	2.5	/experiments/knapen_AOT/AOT_stimuli/rescaled_final/1391_fw.mp4	0.0	154.84108185768127	1.0001230239868164
23	130.10268902778625	pulse	0	t		21.0	2.5	/experiments/knapen_AOT/AOT_stimuli/rescaled_final/1391_fw.mp4	0.0	155.4246530532837	
23	130.51924085617065	movie	1		243	21.0	2.5	/experiments/knapen_AOT/AOT_stimuli/rescaled_final/1391_fw.mp4	0.0	155.8412048816681	2.500336170196533
23	131.703125	pulse	1	t		21.0	2.5	/experiments/knapen_AOT/AOT_stimuli/rescaled_final/1391_fw.mp4	0.0	157.02508902549744	
23	133.0195770263672	fix_post	2		12	21.0	2.5	/experiments/knapen_AOT/AOT_stimuli/rescaled_final/1391_fw.mp4	0.0	158.34154105186462	0.10002684593200684
24	133.1196038722992	fix_pre	0		120	22.0	2.5	/experiments/knapen_AOT/AOT_stimuli/rescaled_final/1134_rv.mp4	0.0	158.44156789779663	1.0001730918884277
24	133.30325388908386	pulse	0	t		22.0	2.5	/experiments/knapen_AOT/AOT_stimuli/rescaled_final/1134_rv.mp4	0.0	158.6252179145813	
24	134.11977696418762	movie	1		245	22.0	2.5	/experiments/knapen_AOT/AOT_stimuli/rescaled_final/1134_rv.mp4	0.0	159.44174098968506	2.500393867492676
24	134.9034299850464	pulse	1	t		22.0	2.5	/experiments/knapen_AOT/AOT_stimuli/rescaled_final/1134_rv.mp4	0.0	160.22539401054382	
24	136.50116300582886	pulse	1	t		22.0	2.5	/experiments/knapen_AOT/AOT_stimuli/rescaled_final/1134_rv.mp4	0.0	161.8231270313263	
24	136.6201708316803	fix_post	2		12	22.0	2.5	/experiments/knapen_AOT/AOT_stimuli/rescaled_final/1134_rv.mp4	0.0	161.94213485717773	0.0999910831451416
25	136.72016191482544	fix_pre	0		120	23.0	2.5	/experiments/knapen_AOT/AOT_stimuli/rescaled_final/0280_fw.mp4	0.0	162.04212594032288	1.000135898590088
25	137.72029781341553	movie	1		242	23.0	2.5	/experiments/knapen_AOT/AOT_stimuli/rescaled_final/0280_fw.mp4	0.0	163.04226183891296	2.4920361042022705
25	138.10531401634216	pulse	1	t		23.0	2.5	/experiments/knapen_AOT/AOT_stimuli/rescaled_final/0280_fw.mp4	0.0	163.4272780418396	
25	139.70417284965515	pulse	1	t		23.0	2.5	/experiments/knapen_AOT/AOT_stimuli/rescaled_final/0280_fw.mp4	0.0	165.0261368751526	
25	140.2123339176178	fix_post	2		12	23.0	2.5	/experiments/knapen_AOT/AOT_stimuli/rescaled_final/0280_fw.mp4	0.0	165.53429794311523	0.100006103515625
26	140.31234002113342	fix_pre	0		120	24.0	2.5	/experiments/knapen_AOT/AOT_stimuli/rescaled_final/1258_fw.mp4	0.0	165.63430404663086	1.0001518726348877
26	141.30444979667664	pulse	0	t		24.0	2.5	/experiments/knapen_AOT/AOT_stimuli/rescaled_final/1258_fw.mp4	0.0	166.62641382217407	
26	141.3124918937683	movie	1		245	24.0	2.5	/experiments/knapen_AOT/AOT_stimuli/rescaled_final/1258_fw.mp4	0.0	166.63445591926575	2.5087339878082275
26	142.90519380569458	pulse	1	t		24.0	2.5	/experiments/knapen_AOT/AOT_stimuli/rescaled_final/1258_fw.mp4	0.0	168.22715783119202	
26	143.82122588157654	fix_post	2		12	24.0	2.5	/experiments/knapen_AOT/AOT_stimuli/rescaled_final/1258_fw.mp4	0.0	169.14318990707397	0.10001897811889648
27	143.92124485969543	fix_pre	0		120	25.0	2.5	/experiments/knapen_AOT/AOT_stimuli/rescaled_final/0323_rv.mp4	0.0	169.24320888519287	1.0001139640808105
27	144.50488591194153	pulse	0	t		25.0	2.5	/experiments/knapen_AOT/AOT_stimuli/rescaled_final/0323_rv.mp4	0.0	169.82684993743896	
27	144.92135882377625	movie	1		244	25.0	2.5	/experiments/knapen_AOT/AOT_stimuli/rescaled_final/0323_rv.mp4	0.0	170.24332284927368	2.5003890991210938
27	146.10524582862854	pulse	1	t		25.0	2.5	/experiments/knapen_AOT/AOT_stimuli/rescaled_final/0323_rv.mp4	0.0	171.42720985412598	
27	147.42174792289734	fix_post	2		12	25.0	2.5	/experiments/knapen_AOT/AOT_stimuli/rescaled_final/0323_rv.mp4	0.0	172.74371194839478	0.10000801086425781
28	147.5217559337616	fix_pre	0		120	26.0	2.5	blank	1.0	172.84371995925903	1.000175952911377
28	147.70539593696594	pulse	0	t		26.0	2.5	blank	1.0	173.02735996246338	
28	148.52193188667297	movie	1		296	26.0	2.5	blank	1.0	173.8438959121704	2.500347137451172
28	149.3055658340454	pulse	1	t		26.0	2.5	blank	1.0	174.62752985954285	
28	150.898295879364	pulse	1	t		26.0	2.5	blank	1.0	176.22025990486145	
28	151.02227902412415	fix_post	2		12	26.0	2.5	blank	1.0	176.34424304962158	0.10004496574401855
29	151.12232398986816	fix_pre	0		120	27.0	2.5	/experiments/knapen_AOT/AOT_stimuli/rescaled_final/2072_rv.mp4	0.0	176.4442880153656	1.0002079010009766
29	152.12253189086914	movie	1		243	27.0	2.5	/experiments/knapen_AOT/AOT_stimuli/rescaled_final/2072_rv.mp4	0.0	177.44449591636658	2.492002010345459
29	152.50772380828857	pulse	1	t		27.0	2.5	/experiments/knapen_AOT/AOT_stimuli/rescaled_final/2072_rv.mp4	0.0	177.829687833786	
29	154.0990068912506	pulse	1	t		27.0	2.5	/experiments/knapen_AOT/AOT_stimuli/rescaled_final/2072_rv.mp4	0.0	179.42097091674805	
29	154.6145339012146	fix_post	2		12	27.0	2.5	/experiments/knapen_AOT/AOT_stimuli/rescaled_final/2072_rv.mp4	0.0	179.93649792671204	0.09998202323913574
30	154.71451592445374	fix_pre	0		120	28.0	2.5	/experiments/knapen_AOT/AOT_stimuli/rescaled_final/1184_fw.mp4	0.0	180.03647994995117	1.000241994857788
30	155.69893193244934	pulse	0	t		28.0	2.5	/experiments/knapen_AOT/AOT_stimuli/rescaled_final/1184_fw.mp4	0.0	181.02089595794678	
30	155.71475791931152	movie	1		245	28.0	2.5	/experiments/knapen_AOT/AOT_stimuli/rescaled_final/1184_fw.mp4	0.0	181.03672194480896	2.5086278915405273
30	157.29842686653137	pulse	1	t		28.0	2.5	/experiments/knapen_AOT/AOT_stimuli/rescaled_final/1184_fw.mp4	0.0	182.6203908920288	
30	158.22338581085205	fix_post	2		12	28.0	2.5	/experiments/knapen_AOT/AOT_stimuli/rescaled_final/1184_fw.mp4	0.0	183.5453498363495	0.10001301765441895
31	158.32339882850647	fix_pre	0		120	29.0	2.5	/experiments/knapen_AOT/AOT_stimuli/rescaled_final/1420_fw.mp4	0.0	183.6453628540039	1.0001211166381836
31	158.89862298965454	pulse	0	t		29.0	2.5	/experiments/knapen_AOT/AOT_stimuli/rescaled_final/1420_fw.mp4	0.0	184.22058701515198	
31	159.32351994514465	movie	1		244	29.0	2.5	/experiments/knapen_AOT/AOT_stimuli/rescaled_final/1420_fw.mp4	0.0	184.6454839706421	2.5004160404205322
31	160.49969696998596	pulse	1	t		29.0	2.5	/experiments/knapen_AOT/AOT_stimuli/rescaled_final/1420_fw.mp4	0.0	185.8216609954834	
31	161.82393598556519	fix_post	2		12	29.0	2.5	/experiments/knapen_AOT/AOT_stimuli/rescaled_final/1420_fw.mp4	0.0	187.14590001106262	0.09995603561401367
32	161.9238920211792	fix_pre	0		120	30.0	2.5	/experiments/knapen_AOT/AOT_stimuli/rescaled_final/2029_fw.mp4	0.0	187.24585604667664	1.0002148151397705
32	162.09918999671936	pulse	0	t		30.0	2.5	/experiments/knapen_AOT/AOT_stimuli/rescaled_final/2029_fw.mp4	0.0	187.4211540222168	
32	162.92410683631897	movie	1		244	30.0	2.5	/experiments/knapen_AOT/AOT_stimuli/rescaled_final/2029_fw.mp4	0.0	188.2460708618164	2.492053985595703
32	163.69930982589722	pulse	1	t		30.0	2.5	/experiments/knapen_AOT/AOT_stimuli/rescaled_final/2029_fw.mp4	0.0	189.02127385139465	
32	165.29969882965088	pulse	1	t		30.0	2.5	/experiments/knapen_AOT/AOT_stimuli/rescaled_final/2029_fw.mp4	0.0	190.62166285514832	
32	165.41616082191467	fix_post	2		12	30.0	2.5	/experiments/knapen_AOT/AOT_stimuli/rescaled_final/2029_fw.mp4	0.0	190.7381248474121	0.09996819496154785
33	165.51612901687622	fix_pre	0		120	31.0	2.5	/experiments/knapen_AOT/AOT_stimuli/rescaled_final/0552_fw.mp4	0.0	190.83809304237366	1.0001537799835205
33	166.51628279685974	movie	1		244	31.0	2.5	/experiments/knapen_AOT/AOT_stimuli/rescaled_final/0552_fw.mp4	0.0	191.83824682235718	2.5004072189331055
33	166.9041290283203	pulse	1	t		31.0	2.5	/experiments/knapen_AOT/AOT_stimuli/rescaled_final/0552_fw.mp4	0.0	192.22609305381775	
33	168.500070810318	pulse	1	t		31.0	2.5	/experiments/knapen_AOT/AOT_stimuli/rescaled_final/0552_fw.mp4	0.0	193.82203483581543	
33	169.01669001579285	fix_post	2		12	31.0	2.5	/experiments/knapen_AOT/AOT_stimuli/rescaled_final/0552_fw.mp4	0.0	194.33865404129028	0.09998893737792969
34	169.11667895317078	fix_pre	0		119	32.0	2.5	/experiments/knapen_AOT/AOT_stimuli/rescaled_final/1235_fw.mp4	0.0	194.4386429786682	0.9918980598449707
34	170.10028195381165	pulse	0	t		32.0	2.5	/experiments/knapen_AOT/AOT_stimuli/rescaled_final/1235_fw.mp4	0.0	195.42224597930908	
34	170.10857701301575	movie	1		245	32.0	2.5	/experiments/knapen_AOT/AOT_stimuli/rescaled_final/1235_fw.mp4	0.0	195.43054103851318	2.5085887908935547
34	171.70114398002625	pulse	1	t		32.0	2.5	/experiments/knapen_AOT/AOT_stimuli/rescaled_final/1235_fw.mp4	0.0	197.02310800552368	
34	172.6171658039093	fix_post	2		12	32.0	2.5	/experiments/knapen_AOT/AOT_stimuli/rescaled_final/1235_fw.mp4	0.0	197.93912982940674	0.10001301765441895
35	172.71717882156372	fix_pre	0		120	33.0	2.5	blank	1.0	198.03914284706116	1.0001590251922607
35	173.30094981193542	pulse	0	t		33.0	2.5	blank	1.0	198.62291383743286	
35	173.71733784675598	movie	1		300	33.0	2.5	blank	1.0	199.03930187225342	2.500394105911255
35	174.9010410308838	pulse	1	t		33.0	2.5	blank	1.0	200.22300505638123	
35	176.21773195266724	fix_post	2		12	33.0	2.5	blank	1.0	201.53969597816467	0.10007286071777344
36	176.317804813385	fix_pre	0		120	34.0	2.5	/experiments/knapen_AOT/AOT_stimuli/rescaled_final/1420_fw.mp4	0.0	201.63976883888245	1.0000700950622559
36	176.50128197669983	pulse	0	t		34.0	2.5	/experiments/knapen_AOT/AOT_stimuli/rescaled_final/1420_fw.mp4	0.0	201.82324600219727	
36	177.31787490844727	movie	1		244	34.0	2.5	/experiments/knapen_AOT/AOT_stimuli/rescaled_final/1420_fw.mp4	0.0	202.6398389339447	2.500385046005249
36	178.10158586502075	pulse	1	t		34.0	2.5	/experiments/knapen_AOT/AOT_stimuli/rescaled_final/1420_fw.mp4	0.0	203.4235498905182	
36	179.7016680240631	pulse	1	t		34.0	2.5	/experiments/knapen_AOT/AOT_stimuli/rescaled_final/1420_fw.mp4	0.0	205.02363204956055	
36	179.81825995445251	fix_post	2		12	34.0	2.5	/experiments/knapen_AOT/AOT_stimuli/rescaled_final/1420_fw.mp4	0.0	205.14022397994995	0.10000491142272949
37	179.91826486587524	fix_pre	0		120	35.0	2.5	/experiments/knapen_AOT/AOT_stimuli/rescaled_final/0159_fw.mp4	0.0	205.24022889137268	1.0001890659332275
37	180.91845393180847	movie	1		242	35.0	2.5	/experiments/knapen_AOT/AOT_stimuli/rescaled_final/0159_fw.mp4	0.0	206.2404179573059	2.4920310974121094
37	181.30258584022522	pulse	1	t		35.0	2.5	/experiments/knapen_AOT/AOT_stimuli/rescaled_final/0159_fw.mp4	0.0	206.62454986572266	
37	182.90227890014648	pulse	1	t		35.0	2.5	/experiments/knapen_AOT/AOT_stimuli/rescaled_final/0159_fw.mp4	0.0	208.22424292564392	
37	183.41048502922058	fix_post	2		12	35.0	2.5	/experiments/knapen_AOT/AOT_stimuli/rescaled_final/0159_fw.mp4	0.0	208.73244905471802	0.1000218391418457
38	183.51050686836243	fix_pre	0		120	36.0	2.5	/experiments/knapen_AOT/AOT_stimuli/rescaled_final/1850_rv.mp4	0.0	208.83247089385986	1.0001580715179443
38	184.50243496894836	pulse	0	t		36.0	2.5	/experiments/knapen_AOT/AOT_stimuli/rescaled_final/1850_rv.mp4	0.0	209.8243989944458	
38	184.51066493988037	movie	1		244	36.0	2.5	/experiments/knapen_AOT/AOT_stimuli/rescaled_final/1850_rv.mp4	0.0	209.8326289653778	2.508697986602783
38	186.1035499572754	pulse	1	t		36.0	2.5	/experiments/knapen_AOT/AOT_stimuli/rescaled_final/1850_rv.mp4	0.0	211.42551398277283	
38	187.01936292648315	fix_post	2		12	36.0	2.5	/experiments/knapen_AOT/AOT_stimuli/rescaled_final/1850_rv.mp4	0.0	212.3413269519806	0.09995102882385254
39	187.119313955307	fix_pre	0		120	37.0	2.5	/experiments/knapen_AOT/AOT_stimuli/rescaled_final/0751_fw.mp4	0.0	212.44127798080444	1.000169038772583
39	187.70306491851807	pulse	0	t		37.0	2.5	/experiments/knapen_AOT/AOT_stimuli/rescaled_final/0751_fw.mp4	0.0	213.0250289440155	
39	188.1194829940796	movie	1		246	37.0	2.5	/experiments/knapen_AOT/AOT_stimuli/rescaled_final/0751_fw.mp4	0.0	213.44144701957703	2.50038480758667
39	189.3032820224762	pulse	1	t		37.0	2.5	/experiments/knapen_AOT/AOT_stimuli/rescaled_final/0751_fw.mp4	0.0	214.62524604797363	
39	190.61986780166626	fix_post	2		12	37.0	2.5	/experiments/knapen_AOT/AOT_stimuli/rescaled_final/0751_fw.mp4	0.0	215.9418318271637	0.10002708435058594
40	190.71989488601685	fix_pre	0		120	38.0	2.5	/experiments/knapen_AOT/AOT_stimuli/rescaled_final/0080_rv.mp4	0.0	216.04185891151428	1.0001931190490723
40	190.9033718109131	pulse	0	t		38.0	2.5	/experiments/knapen_AOT/AOT_stimuli/rescaled_final/0080_rv.mp4	0.0	216.22533583641052	
40	191.72008800506592	movie	1		245	38.0	2.5	/experiments/knapen_AOT/AOT_stimuli/rescaled_final/0080_rv.mp4	0.0	217.04205203056335	2.500309944152832
40	192.5037100315094	pulse	1	t		38.0	2.5	/experiments/knapen_AOT/AOT_stimuli/rescaled_final/0080_rv.mp4	0.0	217.82567405700684	
40	194.10125398635864	pulse	1	t		38.0	2.5	/experiments/knapen_AOT/AOT_stimuli/rescaled_final/0080_rv.mp4	0.0	219.42321801185608	
40	194.22039794921875	fix_post	2		12	38.0	2.5	/experiments/knapen_AOT/AOT_stimuli/rescaled_final/0080_rv.mp4	0.0	219.5423619747162	0.1000220775604248
41	194.32042002677917	fix_pre	0		119	39.0	2.5	/experiments/knapen_AOT/AOT_stimuli/rescaled_final/0315_rv.mp4	0.0	219.6423840522766	0.9918229579925537
41	195.31224298477173	movie	1		245	39.0	2.5	/experiments/knapen_AOT/AOT_stimuli/rescaled_final/0315_rv.mp4	0.0	220.63420701026917	2.5003719329833984
41	195.7043538093567	pulse	1	t		39.0	2.5	/experiments/knapen_AOT/AOT_stimuli/rescaled_final/0315_rv.mp4	0.0	221.02631783485413	
41	197.30452489852905	pulse	1	t		39.0	2.5	/experiments/knapen_AOT/AOT_stimuli/rescaled_final/0315_rv.mp4	0.0	222.6264889240265	
41	197.81261491775513	fix_post	2		12	39.0	2.5	/experiments/knapen_AOT/AOT_stimuli/rescaled_final/0315_rv.mp4	0.0	223.13457894325256	0.10006499290466309
42	197.9126799106598	fix_pre	0		120	40.0	2.5	/experiments/knapen_AOT/AOT_stimuli/rescaled_final/1617_fw.mp4	0.0	223.23464393615723	1.0001509189605713
42	198.9046289920807	pulse	0	t		40.0	2.5	/experiments/knapen_AOT/AOT_stimuli/rescaled_final/1617_fw.mp4	0.0	224.22659301757812	
42	198.91283082962036	movie	1		244	40.0	2.5	/experiments/knapen_AOT/AOT_stimuli/rescaled_final/1617_fw.mp4	0.0	224.2347948551178	2.5086591243743896
42	200.50539588928223	pulse	1	t		40.0	2.5	/experiments/knapen_AOT/AOT_stimuli/rescaled_final/1617_fw.mp4	0.0	225.82735991477966	
42	201.42148995399475	fix_post	2		12	40.0	2.5	/experiments/knapen_AOT/AOT_stimuli/rescaled_final/1617_fw.mp4	0.0	226.7434539794922	0.10006284713745117
43	201.5215528011322	fix_pre	0		120	41.0	2.5	/experiments/knapen_AOT/AOT_stimuli/rescaled_final/0399_rv.mp4	0.0	226.84351682662964	1.0001611709594727
43	202.10521697998047	pulse	0	t		41.0	2.5	/experiments/knapen_AOT/AOT_stimuli/rescaled_final/0399_rv.mp4	0.0	227.4271810054779	
43	202.52171397209167	movie	1		245	41.0	2.5	/experiments/knapen_AOT/AOT_stimuli/rescaled_final/0399_rv.mp4	0.0	227.8436779975891	2.5003249645233154
43	203.6982138156891	pulse	1	t		41.0	2.5	/experiments/knapen_AOT/AOT_stimuli/rescaled_final/0399_rv.mp4	0.0	229.02017784118652	
43	205.022038936615	fix_post	2		12	41.0	2.5	/experiments/knapen_AOT/AOT_stimuli/rescaled_final/0399_rv.mp4	0.0	230.34400296211243	0.09998798370361328
44	205.1220269203186	fix_pre	0		120	42.0	2.5	blank	1.0	230.44399094581604	1.0001499652862549
44	205.29803490638733	pulse	0	t		42.0	2.5	blank	1.0	230.61999893188477	
44	206.12217688560486	movie	1		300	42.0	2.5	blank	1.0	231.4441409111023	2.50039005279541
44	206.89822483062744	pulse	1	t		42.0	2.5	blank	1.0	232.22018885612488	
44	208.49857687950134	pulse	1	t		42.0	2.5	blank	1.0	233.82054090499878	
44	208.62256693840027	fix_post	2		9	42.0	2.5	blank	1.0	233.9445309638977	0.09998393058776855
45	208.72255086898804	fix_pre	0		119	43.0	2.5	/experiments/knapen_AOT/AOT_stimuli/rescaled_final/0629_rv.mp4	0.0	234.04451489448547	0.9918191432952881
45	209.71437001228333	movie	1		245	43.0	2.5	/experiments/knapen_AOT/AOT_stimuli/rescaled_final/0629_rv.mp4	0.0	235.03633403778076	2.500372886657715
45	210.09864592552185	pulse	1	t		43.0	2.5	/experiments/knapen_AOT/AOT_stimuli/rescaled_final/0629_rv.mp4	0.0	235.4206099510193	
45	211.69816994667053	pulse	1	t		43.0	2.5	/experiments/knapen_AOT/AOT_stimuli/rescaled_final/0629_rv.mp4	0.0	237.02013397216797	
45	212.21474289894104	fix_post	2		12	43.0	2.5	/experiments/knapen_AOT/AOT_stimuli/rescaled_final/0629_rv.mp4	0.0	237.53670692443848	0.10001611709594727
46	212.314759016037	fix_pre	0		119	44.0	2.5	/experiments/knapen_AOT/AOT_stimuli/rescaled_final/1968_fw.mp4	0.0	237.63672304153442	0.9919087886810303
46	213.29840803146362	pulse	0	t		44.0	2.5	/experiments/knapen_AOT/AOT_stimuli/rescaled_final/1968_fw.mp4	0.0	238.62037205696106	
46	213.30666780471802	movie	1		245	44.0	2.5	/experiments/knapen_AOT/AOT_stimuli/rescaled_final/1968_fw.mp4	0.0	238.62863183021545	2.508618116378784
46	214.90303897857666	pulse	1	t		44.0	2.5	/experiments/knapen_AOT/AOT_stimuli/rescaled_final/1968_fw.mp4	0.0	240.2250030040741	
46	215.8152859210968	fix_post	2		12	44.0	2.5	/experiments/knapen_AOT/AOT_stimuli/rescaled_final/1968_fw.mp4	0.0	241.13724994659424	0.10004711151123047
47	215.91533303260803	fix_pre	0		120	45.0	2.5	/experiments/knapen_AOT/AOT_stimuli/rescaled_final/1393_rv.mp4	0.0	241.23729705810547	1.000168800354004
47	216.49905800819397	pulse	0	t		45.0	2.5	/experiments/knapen_AOT/AOT_stimuli/rescaled_final/1393_rv.mp4	0.0	241.8210220336914	
47	216.91550183296204	movie	1		244	45.0	2.5	/experiments/knapen_AOT/AOT_stimuli/rescaled_final/1393_rv.mp4	0.0	242.23746585845947	2.5003340244293213
47	218.09934186935425	pulse	1	t		45.0	2.5	/experiments/knapen_AOT/AOT_stimuli/rescaled_final/1393_rv.mp4	0.0	243.42130589485168	
47	219.41583585739136	fix_post	2		12	45.0	2.5	/experiments/knapen_AOT/AOT_stimuli/rescaled_final/1393_rv.mp4	0.0	244.7377998828888	0.1000051498413086
48	219.51584100723267	fix_pre	0		120	46.0	2.5	/experiments/knapen_AOT/AOT_stimuli/rescaled_final/0479_fw.mp4	0.0	244.8378050327301	1.0001568794250488
48	219.69933795928955	pulse	0	t		46.0	2.5	/experiments/knapen_AOT/AOT_stimuli/rescaled_final/0479_fw.mp4	0.0	245.021301984787	
48	220.51599788665771	movie	1		243	46.0	2.5	/experiments/knapen_AOT/AOT_stimuli/rescaled_final/0479_fw.mp4	0.0	245.83796191215515	2.500383138656616
48	221.29966187477112	pulse	1	t		46.0	2.5	/experiments/knapen_AOT/AOT_stimuli/rescaled_final/0479_fw.mp4	0.0	246.62162590026855	
48	222.8998110294342	pulse	1	t		46.0	2.5	/experiments/knapen_AOT/AOT_stimuli/rescaled_final/0479_fw.mp4	0.0	248.22177505493164	
48	223.01638102531433	fix_post	2		12	46.0	2.5	/experiments/knapen_AOT/AOT_stimuli/rescaled_final/0479_fw.mp4	0.0	248.33834505081177	0.10001277923583984
49	223.11639380455017	fix_pre	0		119	47.0	2.5	blank	1.0	248.4383578300476	0.9918220043182373
49	224.1082158088684	movie	1		300	47.0	2.5	blank	1.0	249.43017983436584	2.5003790855407715
49	224.50020790100098	pulse	1	t		47.0	2.5	blank	1.0	249.8221719264984	
49	226.10040593147278	pulse	1	t		47.0	2.5	blank	1.0	251.42236995697021	
49	226.60859489440918	fix_post	2		12	47.0	2.5	blank	1.0	251.93055891990662	0.10000991821289062
50	226.70860481262207	fix_pre	0		120	48.0	2.5	/experiments/knapen_AOT/AOT_stimuli/rescaled_final/0491_rv.mp4	0.0	252.0305688381195	1.0001840591430664
50	227.70060181617737	pulse	0	t		48.0	2.5	/experiments/knapen_AOT/AOT_stimuli/rescaled_final/0491_rv.mp4	0.0	253.0225658416748	
50	227.70878887176514	movie	1		245	48.0	2.5	/experiments/knapen_AOT/AOT_stimuli/rescaled_final/0491_rv.mp4	0.0	253.03075289726257	2.5086710453033447
50	229.30150699615479	pulse	1	t		48.0	2.5	/experiments/knapen_AOT/AOT_stimuli/rescaled_final/0491_rv.mp4	0.0	254.62347102165222	
50	230.21745991706848	fix_post	2		12	48.0	2.5	/experiments/knapen_AOT/AOT_stimuli/rescaled_final/0491_rv.mp4	0.0	255.53942394256592	0.10001707077026367
51	230.31747698783875	fix_pre	0		120	49.0	2.5	/experiments/knapen_AOT/AOT_stimuli/rescaled_final/0416_fw.mp4	0.0	255.63944101333618	1.0001449584960938
51	230.90124797821045	pulse	0	t		49.0	2.5	/experiments/knapen_AOT/AOT_stimuli/rescaled_final/0416_fw.mp4	0.0	256.2232120037079	
51	231.31762194633484	movie	1		244	49.0	2.5	/experiments/knapen_AOT/AOT_stimuli/rescaled_final/0416_fw.mp4	0.0	256.6395859718323	2.500375986099243
51	232.50144481658936	pulse	1	t		49.0	2.5	/experiments/knapen_AOT/AOT_stimuli/rescaled_final/0416_fw.mp4	0.0	257.8234088420868	
51	233.81799793243408	fix_post	2		12	49.0	2.5	/experiments/knapen_AOT/AOT_stimuli/rescaled_final/0416_fw.mp4	0.0	259.1399619579315	0.09998106956481934
52	233.9179790019989	fix_pre	0		120	50.0	2.5	/experiments/knapen_AOT/AOT_stimuli/rescaled_final/0932_fw.mp4	0.0	259.23994302749634	1.0001859664916992
52	234.10158491134644	pulse	0	t		50.0	2.5	/experiments/knapen_AOT/AOT_stimuli/rescaled_final/0932_fw.mp4	0.0	259.4235489368439	
52	234.9181649684906	movie	1		244	50.0	2.5	/experiments/knapen_AOT/AOT_stimuli/rescaled_final/0932_fw.mp4	0.0	260.24012899398804	2.500359058380127
52	235.70183897018433	pulse	1	t		50.0	2.5	/experiments/knapen_AOT/AOT_stimuli/rescaled_final/0932_fw.mp4	0.0	261.02380299568176	
52	237.3023338317871	pulse	1	t		50.0	2.5	/experiments/knapen_AOT/AOT_stimuli/rescaled_final/0932_fw.mp4	0.0	262.62429785728455	
52	237.41852402687073	fix_post	2		12	50.0	2.5	/experiments/knapen_AOT/AOT_stimuli/rescaled_final/0932_fw.mp4	0.0	262.74048805236816	0.10000491142272949
53	237.51852893829346	fix_pre	0		120	51.0	2.5	/experiments/knapen_AOT/AOT_stimuli/rescaled_final/0375_fw.mp4	0.0	262.8404929637909	1.0001630783081055
53	238.51869201660156	movie	1		243	51.0	2.5	/experiments/knapen_AOT/AOT_stimuli/rescaled_final/0375_fw.mp4	0.0	263.840656042099	2.492029905319214
53	238.90378880500793	pulse	1	t		51.0	2.5	/experiments/knapen_AOT/AOT_stimuli/rescaled_final/0375_fw.mp4	0.0	264.22575283050537	
53	240.50246596336365	pulse	1	t		51.0	2.5	/experiments/knapen_AOT/AOT_stimuli/rescaled_final/0375_fw.mp4	0.0	265.8244299888611	
53	241.01072192192078	fix_post	2		12	51.0	2.5	/experiments/knapen_AOT/AOT_stimuli/rescaled_final/0375_fw.mp4	0.0	266.3326859474182	0.10001897811889648
54	241.11074090003967	fix_pre	0		120	52.0	2.5	/experiments/knapen_AOT/AOT_stimuli/rescaled_final/2017_rv.mp4	0.0	266.4327049255371	1.0001440048217773
54	242.10283303260803	pulse	0	t		52.0	2.5	/experiments/knapen_AOT/AOT_stimuli/rescaled_final/2017_rv.mp4	0.0	267.42479705810547	
54	242.11088490486145	movie	1		246	52.0	2.5	/experiments/knapen_AOT/AOT_stimuli/rescaled_final/2017_rv.mp4	0.0	267.4328489303589	2.5087099075317383
54	243.7037968635559	pulse	1	t		52.0	2.5	/experiments/knapen_AOT/AOT_stimuli/rescaled_final/2017_rv.mp4	0.0	269.02576088905334	
54	244.6195948123932	fix_post	2		12	52.0	2.5	/experiments/knapen_AOT/AOT_stimuli/rescaled_final/2017_rv.mp4	0.0	269.9415588378906	0.10000419616699219
55	244.71959900856018	fix_pre	0		120	53.0	2.5	/experiments/knapen_AOT/AOT_stimuli/rescaled_final/0434_rv.mp4	0.0	270.0415630340576	1.0001709461212158
55	245.30327582359314	pulse	0	t		53.0	2.5	/experiments/knapen_AOT/AOT_stimuli/rescaled_final/0434_rv.mp4	0.0	270.6252398490906	
55	245.7197699546814	movie	1		243	53.0	2.5	/experiments/knapen_AOT/AOT_stimuli/rescaled_final/0434_rv.mp4	0.0	271.04173398017883	2.5003859996795654
55	246.9035530090332	pulse	1	t		53.0	2.5	/experiments/knapen_AOT/AOT_stimuli/rescaled_final/0434_rv.mp4	0.0	272.22551703453064	
55	248.22015595436096	fix_post	2		12	53.0	2.5	/experiments/knapen_AOT/AOT_stimuli/rescaled_final/0434_rv.mp4	0.0	273.5421199798584	0.09999394416809082
56	248.32014989852905	fix_pre	0		120	54.0	2.5	/experiments/knapen_AOT/AOT_stimuli/rescaled_final/0824_fw.mp4	0.0	273.6421139240265	1.000162124633789
56	248.50383281707764	pulse	0	t		54.0	2.5	/experiments/knapen_AOT/AOT_stimuli/rescaled_final/0824_fw.mp4	0.0	273.8257968425751	
56	249.32031202316284	movie	1		245	54.0	2.5	/experiments/knapen_AOT/AOT_stimuli/rescaled_final/0824_fw.mp4	0.0	274.6422760486603	2.5003819465637207
56	250.10398292541504	pulse	1	t		54.0	2.5	/experiments/knapen_AOT/AOT_stimuli/rescaled_final/0824_fw.mp4	0.0	275.4259469509125	
56	251.70189785957336	pulse	1	t		54.0	2.5	/experiments/knapen_AOT/AOT_stimuli/rescaled_final/0824_fw.mp4	0.0	277.0238618850708	
56	251.82069396972656	fix_post	2		12	54.0	2.5	/experiments/knapen_AOT/AOT_stimuli/rescaled_final/0824_fw.mp4	0.0	277.142657995224	0.09998393058776855
57	251.92067790031433	fix_pre	0		120	55.0	2.5	/experiments/knapen_AOT/AOT_stimuli/rescaled_final/1317_fw.mp4	0.0	277.24264192581177	1.0001890659332275
57	252.92086696624756	movie	1		244	55.0	2.5	/experiments/knapen_AOT/AOT_stimuli/rescaled_final/1317_fw.mp4	0.0	278.242830991745	2.492008924484253
57	253.3049829006195	pulse	1	t		55.0	2.5	/experiments/knapen_AOT/AOT_stimuli/rescaled_final/1317_fw.mp4	0.0	278.62694692611694	
57	254.90476894378662	pulse	1	t		55.0	2.5	/experiments/knapen_AOT/AOT_stimuli/rescaled_final/1317_fw.mp4	0.0	280.22673296928406	
57	255.4128758907318	fix_post	2		12	55.0	2.5	/experiments/knapen_AOT/AOT_stimuli/rescaled_final/1317_fw.mp4	0.0	280.73483991622925	0.10003113746643066
58	255.51290702819824	fix_pre	0		120	56.0	2.5	blank	1.0	280.8348710536957	1.0001888275146484
58	256.5050299167633	pulse	0	t		56.0	2.5	blank	1.0	281.82699394226074	
58	256.5130958557129	movie	1		301	56.0	2.5	blank	1.0	281.8350598812103	2.508718967437744
58	258.1051878929138	pulse	1	t		56.0	2.5	blank	1.0	283.42715191841125	
58	259.02181482315063	fix_post	2		12	56.0	2.5	blank	1.0	284.34377884864807	0.10001301765441895
59	259.12182784080505	fix_pre	0		120	57.0	2.5	/experiments/knapen_AOT/AOT_stimuli/rescaled_final/0962_rv.mp4	0.0	284.4437918663025	1.0000901222229004
59	259.70533895492554	pulse	0	t		57.0	2.5	/experiments/knapen_AOT/AOT_stimuli/rescaled_final/0962_rv.mp4	0.0	285.027302980423	
59	260.12191796302795	movie	1		243	57.0	2.5	/experiments/knapen_AOT/AOT_stimuli/rescaled_final/0962_rv.mp4	0.0	285.4438819885254	2.5003678798675537
59	261.30569982528687	pulse	1	t		57.0	2.5	/experiments/knapen_AOT/AOT_stimuli/rescaled_final/0962_rv.mp4	0.0	286.6276638507843	
59	262.6222858428955	fix_post	2		12	57.0	2.5	/experiments/knapen_AOT/AOT_stimuli/rescaled_final/0962_rv.mp4	0.0	287.94424986839294	0.09999513626098633
60	262.7222809791565	fix_pre	0		120	58.0	2.5	/experiments/knapen_AOT/AOT_stimuli/rescaled_final/2014_rv.mp4	0.0	288.04424500465393	1.0001859664916992
60	262.9059908390045	pulse	0	t		58.0	2.5	/experiments/knapen_AOT/AOT_stimuli/rescaled_final/2014_rv.mp4	0.0	288.22795486450195	
60	263.7224669456482	movie	1		247	58.0	2.5	/experiments/knapen_AOT/AOT_stimuli/rescaled_final/2014_rv.mp4	0.0	289.04443097114563	2.5003578662872314
60	264.49873399734497	pulse	1	t		58.0	2.5	/experiments/knapen_AOT/AOT_stimuli/rescaled_final/2014_rv.mp4	0.0	289.8206980228424	
60	266.0989179611206	pulse	1	t		58.0	2.5	/experiments/knapen_AOT/AOT_stimuli/rescaled_final/2014_rv.mp4	0.0	291.42088198661804	
60	266.2228248119354	fix_post	2		12	58.0	2.5	/experiments/knapen_AOT/AOT_stimuli/rescaled_final/2014_rv.mp4	0.0	291.54478883743286	0.1000831127166748
61	266.3229079246521	fix_pre	0		120	59.0	2.5	/experiments/knapen_AOT/AOT_stimuli/rescaled_final/0857_rv.mp4	0.0	291.64487195014954	1.0001029968261719
61	267.32301092147827	movie	1		243	59.0	2.5	/experiments/knapen_AOT/AOT_stimuli/rescaled_final/0857_rv.mp4	0.0	292.6449749469757	2.492017984390259
61	267.71130180358887	pulse	1	t		59.0	2.5	/experiments/knapen_AOT/AOT_stimuli/rescaled_final/0857_rv.mp4	0.0	293.0332658290863	
61	269.29954385757446	pulse	1	t		59.0	2.5	/experiments/knapen_AOT/AOT_stimuli/rescaled_final/0857_rv.mp4	0.0	294.6215078830719	
61	269.81502890586853	fix_post	2		12	59.0	2.5	/experiments/knapen_AOT/AOT_stimuli/rescaled_final/0857_rv.mp4	0.0	295.13699293136597	0.10003399848937988
62	269.9150629043579	fix_pre	0		119	60.0	2.5	/experiments/knapen_AOT/AOT_stimuli/rescaled_final/0375_fw.mp4	0.0	295.23702692985535	0.9917869567871094
62	270.8987100124359	pulse	0	t		60.0	2.5	/experiments/knapen_AOT/AOT_stimuli/rescaled_final/0375_fw.mp4	0.0	296.22067403793335	
62	270.906849861145	movie	1		245	60.0	2.5	/experiments/knapen_AOT/AOT_stimuli/rescaled_final/0375_fw.mp4	0.0	296.22881388664246	2.5087060928344727
62	272.5002529621124	pulse	1	t		60.0	2.5	/experiments/knapen_AOT/AOT_stimuli/rescaled_final/0375_fw.mp4	0.0	297.82221698760986	
62	273.4155559539795	fix_post	2		12	60.0	2.5	/experiments/knapen_AOT/AOT_stimuli/rescaled_final/0375_fw.mp4	0.0	298.73751997947693	0.10003495216369629
63	273.5155909061432	fix_pre	0		120	61.0	2.5	/experiments/knapen_AOT/AOT_stimuli/rescaled_final/1797_rv.mp4	0.0	298.8375549316406	1.000180959701538
63	274.09918880462646	pulse	0	t		61.0	2.5	/experiments/knapen_AOT/AOT_stimuli/rescaled_final/1797_rv.mp4	0.0	299.4211528301239	
63	274.5157718658447	movie	1		245	61.0	2.5	/experiments/knapen_AOT/AOT_stimuli/rescaled_final/1797_rv.mp4	0.0	299.83773589134216	2.5003621578216553
63	275.6995289325714	pulse	1	t		61.0	2.5	/experiments/knapen_AOT/AOT_stimuli/rescaled_final/1797_rv.mp4	0.0	301.02149295806885	
63	277.0161340236664	fix_post	2		12	61.0	2.5	/experiments/knapen_AOT/AOT_stimuli/rescaled_final/1797_rv.mp4	0.0	302.3380980491638	0.0999917984008789
64	277.11612582206726	fix_pre	0		120	62.0	2.5	blank	1.0	302.4380898475647	1.0001370906829834
64	277.2997770309448	pulse	0	t		62.0	2.5	blank	1.0	302.62174105644226	
64	278.11626291275024	movie	1		300	62.0	2.5	blank	1.0	303.4382269382477	2.500386953353882
64	278.90002489089966	pulse	1	t		62.0	2.5	blank	1.0	304.2219889163971	
64	280.5001108646393	pulse	1	t		62.0	2.5	blank	1.0	305.8220748901367	
64	280.6166498661041	fix_post	2		12	62.0	2.5	blank	1.0	305.93861389160156	0.10004115104675293
65	280.7166910171509	fix_pre	0		120	63.0	2.5	/experiments/knapen_AOT/AOT_stimuli/rescaled_final/0874_rv.mp4	0.0	306.0386550426483	1.000133991241455
65	281.71682500839233	movie	1		242	63.0	2.5	/experiments/knapen_AOT/AOT_stimuli/rescaled_final/0874_rv.mp4	0.0	307.03878903388977	2.4921038150787354
65	282.10154485702515	pulse	1	t		63.0	2.5	/experiments/knapen_AOT/AOT_stimuli/rescaled_final/0874_rv.mp4	0.0	307.4235088825226	
65	283.70072197914124	pulse	1	t		63.0	2.5	/experiments/knapen_AOT/AOT_stimuli/rescaled_final/0874_rv.mp4	0.0	309.0226860046387	
65	284.20892882347107	fix_post	2		12	63.0	2.5	/experiments/knapen_AOT/AOT_stimuli/rescaled_final/0874_rv.mp4	0.0	309.5308928489685	0.09996819496154785
66	284.3088970184326	fix_pre	0		120	64.0	2.5	/experiments/knapen_AOT/AOT_stimuli/rescaled_final/0280_rv.mp4	0.0	309.63086104393005	1.0001659393310547
66	285.3009178638458	pulse	0	t		64.0	2.5	/experiments/knapen_AOT/AOT_stimuli/rescaled_final/0280_rv.mp4	0.0	310.62288188934326	
66	285.3090629577637	movie	1		244	64.0	2.5	/experiments/knapen_AOT/AOT_stimuli/rescaled_final/0280_rv.mp4	0.0	310.6310269832611	2.5086629390716553
66	286.90162086486816	pulse	1	t		64.0	2.5	/experiments/knapen_AOT/AOT_stimuli/rescaled_final/0280_rv.mp4	0.0	312.2235848903656	
66	287.8177258968353	fix_post	2		12	64.0	2.5	/experiments/knapen_AOT/AOT_stimuli/rescaled_final/0280_rv.mp4	0.0	313.13968992233276	0.1000070571899414
67	287.91773295402527	fix_pre	0		120	65.0	2.5	/experiments/knapen_AOT/AOT_stimuli/rescaled_final/1214_rv.mp4	0.0	313.2396969795227	1.000148057937622
67	288.5013499259949	pulse	0	t		65.0	2.5	/experiments/knapen_AOT/AOT_stimuli/rescaled_final/1214_rv.mp4	0.0	313.8233139514923	
67	288.9178810119629	movie	1		244	65.0	2.5	/experiments/knapen_AOT/AOT_stimuli/rescaled_final/1214_rv.mp4	0.0	314.2398450374603	2.5003628730773926
67	290.101753950119	pulse	1	t		65.0	2.5	/experiments/knapen_AOT/AOT_stimuli/rescaled_final/1214_rv.mp4	0.0	315.42371797561646	
67	291.4182438850403	fix_post	2		12	65.0	2.5	/experiments/knapen_AOT/AOT_stimuli/rescaled_final/1214_rv.mp4	0.0	316.7402079105377	0.1000220775604248
68	291.5182659626007	fix_pre	0		120	66.0	2.5	/experiments/knapen_AOT/AOT_stimuli/rescaled_final/1468_rv.mp4	0.0	316.84022998809814	1.000196933746338
68	291.701828956604	pulse	0	t		66.0	2.5	/experiments/knapen_AOT/AOT_stimuli/rescaled_final/1468_rv.mp4	0.0	317.02379298210144	
68	292.51846289634705	movie	1		244	66.0	2.5	/experiments/knapen_AOT/AOT_stimuli/rescaled_final/1468_rv.mp4	0.0	317.8404269218445	2.500330924987793
68	293.3021240234375	pulse	1	t		66.0	2.5	/experiments/knapen_AOT/AOT_stimuli/rescaled_final/1468_rv.mp4	0.0	318.62408804893494	
68	294.9023039340973	pulse	1	t		66.0	2.5	/experiments/knapen_AOT/AOT_stimuli/rescaled_final/1468_rv.mp4	0.0	320.2242679595947	
68	295.01879382133484	fix_post	2		12	66.0	2.5	/experiments/knapen_AOT/AOT_stimuli/rescaled_final/1468_rv.mp4	0.0	320.3407578468323	0.10003900527954102
69	295.1188328266144	fix_pre	0		120	67.0	2.5	/experiments/knapen_AOT/AOT_stimuli/rescaled_final/1506_fw.mp4	0.0	320.4407968521118	1.0001330375671387
69	296.1189658641815	movie	1		242	67.0	2.5	/experiments/knapen_AOT/AOT_stimuli/rescaled_final/1506_fw.mp4	0.0	321.44092988967896	2.492035150527954
69	296.50288581848145	pulse	1	t		67.0	2.5	/experiments/knapen_AOT/AOT_stimuli/rescaled_final/1506_fw.mp4	0.0	321.8248498439789	
69	298.10279297828674	pulse	1	t		67.0	2.5	/experiments/knapen_AOT/AOT_stimuli/rescaled_final/1506_fw.mp4	0.0	323.4247570037842	
69	298.6110010147095	fix_post	2		12	67.0	2.5	/experiments/knapen_AOT/AOT_stimuli/rescaled_final/1506_fw.mp4	0.0	323.9329650402069	0.10001683235168457
70	298.71101784706116	fix_pre	0		120	68.0	2.5	/experiments/knapen_AOT/AOT_stimuli/rescaled_final/1297_rv.mp4	0.0	324.0329818725586	1.0001521110534668
70	299.70307087898254	pulse	0	t		68.0	2.5	/experiments/knapen_AOT/AOT_stimuli/rescaled_final/1297_rv.mp4	0.0	325.02503490448	
70	299.7111699581146	movie	1		245	68.0	2.5	/experiments/knapen_AOT/AOT_stimuli/rescaled_final/1297_rv.mp4	0.0	325.03313398361206	2.5086829662323
70	301.3039638996124	pulse	1	t		68.0	2.5	/experiments/knapen_AOT/AOT_stimuli/rescaled_final/1297_rv.mp4	0.0	326.62592792510986	
70	302.2198529243469	fix_post	2		12	68.0	2.5	/experiments/knapen_AOT/AOT_stimuli/rescaled_final/1297_rv.mp4	0.0	327.54181694984436	0.10001492500305176
71	302.31986784935	fix_pre	0		120	69.0	2.5	/experiments/knapen_AOT/AOT_stimuli/rescaled_final/0767_fw.mp4	0.0	327.6418318748474	1.0001749992370605
71	302.90358090400696	pulse	0	t		69.0	2.5	/experiments/knapen_AOT/AOT_stimuli/rescaled_final/0767_fw.mp4	0.0	328.2255449295044	
71	303.32004284858704	movie	1		245	69.0	2.5	/experiments/knapen_AOT/AOT_stimuli/rescaled_final/0767_fw.mp4	0.0	328.6420068740845	2.5003621578216553
71	304.4995048046112	pulse	1	t		69.0	2.5	/experiments/knapen_AOT/AOT_stimuli/rescaled_final/0767_fw.mp4	0.0	329.82146883010864	
71	305.8204050064087	fix_post	2		12	69.0	2.5	/experiments/knapen_AOT/AOT_stimuli/rescaled_final/0767_fw.mp4	0.0	331.1423690319061	0.10006093978881836
72	305.9204659461975	fix_pre	0		120	70.0	2.5	blank	1.0	331.24242997169495	1.0001718997955322
72	306.10398387908936	pulse	0	t		70.0	2.5	blank	1.0	331.4259479045868	
72	306.92063784599304	movie	1		300	70.0	2.5	blank	1.0	332.2426018714905	2.50032114982605
72	307.7043499946594	pulse	1	t		70.0	2.5	blank	1.0	333.02631402015686	
72	309.30438685417175	pulse	1	t		70.0	2.5	blank	1.0	334.6263508796692	
72	309.4209589958191	fix_post	2		12	70.0	2.5	blank	1.0	334.7429230213165	0.09998798370361328
73	309.5209469795227	fix_pre	0		120	71.0	2.5	/experiments/knapen_AOT/AOT_stimuli/rescaled_final/0629_fw.mp4	0.0	334.84291100502014	1.0001838207244873
73	310.5211308002472	movie	1		244	71.0	2.5	/experiments/knapen_AOT/AOT_stimuli/rescaled_final/0629_fw.mp4	0.0	335.84309482574463	2.492014169692993
73	310.9061179161072	pulse	1	t		71.0	2.5	/experiments/knapen_AOT/AOT_stimuli/rescaled_final/0629_fw.mp4	0.0	336.2280819416046	
73	312.5050768852234	pulse	1	t		71.0	2.5	/experiments/knapen_AOT/AOT_stimuli/rescaled_final/0629_fw.mp4	0.0	337.8270409107208	
73	313.0131449699402	fix_post	2		12	71.0	2.5	/experiments/knapen_AOT/AOT_stimuli/rescaled_final/0629_fw.mp4	0.0	338.3351089954376	0.10001087188720703
74	313.1131558418274	fix_pre	0		120	72.0	2.5	/experiments/knapen_AOT/AOT_stimuli/rescaled_final/0282_fw.mp4	0.0	338.43511986732483	1.0001680850982666
74	314.10530281066895	pulse	0	t		72.0	2.5	/experiments/knapen_AOT/AOT_stimuli/rescaled_final/0282_fw.mp4	0.0	339.4272668361664	
74	314.11332392692566	movie	1		245	72.0	2.5	/experiments/knapen_AOT/AOT_stimuli/rescaled_final/0282_fw.mp4	0.0	339.4352879524231	2.5086729526519775
74	315.7060158252716	pulse	1	t		72.0	2.5	/experiments/knapen_AOT/AOT_stimuli/rescaled_final/0282_fw.mp4	0.0	341.02797985076904	
74	316.62199687957764	fix_post	2		12	72.0	2.5	/experiments/knapen_AOT/AOT_stimuli/rescaled_final/0282_fw.mp4	0.0	341.9439609050751	0.10003209114074707
75	316.7220289707184	fix_pre	0		120	73.0	2.5	/experiments/knapen_AOT/AOT_stimuli/rescaled_final/0952_rv.mp4	0.0	342.0439929962158	1.0001459121704102
75	317.3056879043579	pulse	0	t		73.0	2.5	/experiments/knapen_AOT/AOT_stimuli/rescaled_final/0952_rv.mp4	0.0	342.62765192985535	
75	317.7221748828888	movie	1		247	73.0	2.5	/experiments/knapen_AOT/AOT_stimuli/rescaled_final/0952_rv.mp4	0.0	343.04413890838623	2.5003719329833984
75	318.89914989471436	pulse	1	t		73.0	2.5	/experiments/knapen_AOT/AOT_stimuli/rescaled_final/0952_rv.mp4	0.0	344.2211139202118	
75	320.2225468158722	fix_post	2		12	73.0	2.5	/experiments/knapen_AOT/AOT_stimuli/rescaled_final/0952_rv.mp4	0.0	345.54451084136963	0.10003018379211426
76	320.3225769996643	fix_pre	0		120	74.0	2.5	/experiments/knapen_AOT/AOT_stimuli/rescaled_final/0929_rv.mp4	0.0	345.64454102516174	1.000121831893921
76	320.4986310005188	pulse	0	t		74.0	2.5	/experiments/knapen_AOT/AOT_stimuli/rescaled_final/0929_rv.mp4	0.0	345.82059502601624	
76	321.3226988315582	movie	1		242	74.0	2.5	/experiments/knapen_AOT/AOT_stimuli/rescaled_final/0929_rv.mp4	0.0	346.64466285705566	2.500418186187744
76	322.099072933197	pulse	1	t		74.0	2.5	/experiments/knapen_AOT/AOT_stimuli/rescaled_final/0929_rv.mp4	0.0	347.42103695869446	
76	323.7113239765167	pulse	1	t		74.0	2.5	/experiments/knapen_AOT/AOT_stimuli/rescaled_final/0929_rv.mp4	0.0	349.03328800201416	
76	323.823117017746	fix_post	2		12	74.0	2.5	/experiments/knapen_AOT/AOT_stimuli/rescaled_final/0929_rv.mp4	0.0	349.1450810432434	0.09998178482055664
77	323.9230988025665	fix_pre	0		120	75.0	2.5	/experiments/knapen_AOT/AOT_stimuli/rescaled_final/0547_fw.mp4	0.0	349.24506282806396	1.000176191329956
77	324.9232749938965	movie	1		244	75.0	2.5	/experiments/knapen_AOT/AOT_stimuli/rescaled_final/0547_fw.mp4	0.0	350.2452390193939	2.4920220375061035
77	325.2984788417816	pulse	1	t		75.0	2.5	/experiments/knapen_AOT/AOT_stimuli/rescaled_final/0547_fw.mp4	0.0	350.62044286727905	
77	326.8987958431244	pulse	1	t		75.0	2.5	/experiments/knapen_AOT/AOT_stimuli/rescaled_final/0547_fw.mp4	0.0	352.2207598686218	
77	327.4152970314026	fix_post	2		12	75.0	2.5	/experiments/knapen_AOT/AOT_stimuli/rescaled_final/0547_fw.mp4	0.0	352.7372610569	0.10001778602600098
78	327.5153148174286	fix_pre	0		119	76.0	2.5	blank	1.0	352.837278842926	0.9918391704559326
78	328.49908685684204	pulse	0	t		76.0	2.5	blank	1.0	353.8210508823395	
78	328.5071539878845	movie	1		301	76.0	2.5	blank	1.0	353.82911801338196	2.5086820125579834
78	330.0993068218231	pulse	1	t		76.0	2.5	blank	1.0	355.42127084732056	
78	331.0158360004425	fix_post	2		12	76.0	2.5	blank	1.0	356.33780002593994	0.1000518798828125
79	331.1158878803253	fix_pre	0		120	77.0	2.5	/experiments/knapen_AOT/AOT_stimuli/rescaled_final/0434_rv.mp4	0.0	356.43785190582275	1.000154972076416
79	331.69942688941956	pulse	0	t		77.0	2.5	/experiments/knapen_AOT/AOT_stimuli/rescaled_final/0434_rv.mp4	0.0	357.021390914917	
79	332.11604285240173	movie	1		243	77.0	2.5	/experiments/knapen_AOT/AOT_stimuli/rescaled_final/0434_rv.mp4	0.0	357.43800687789917	2.5003321170806885
79	333.2998068332672	pulse	1	t		77.0	2.5	/experiments/knapen_AOT/AOT_stimuli/rescaled_final/0434_rv.mp4	0.0	358.62177085876465	
79	334.6163749694824	fix_post	2		12	77.0	2.5	/experiments/knapen_AOT/AOT_stimuli/rescaled_final/0434_rv.mp4	0.0	359.93833899497986	0.10000491142272949
80	334.71637988090515	fix_pre	0		120	78.0	2.5	/experiments/knapen_AOT/AOT_stimuli/rescaled_final/0723_rv.mp4	0.0	360.0383439064026	1.0001530647277832
80	334.89987683296204	pulse	0	t		78.0	2.5	/experiments/knapen_AOT/AOT_stimuli/rescaled_final/0723_rv.mp4	0.0	360.2218408584595	
80	335.71653294563293	movie	1		246	78.0	2.5	/experiments/knapen_AOT/AOT_stimuli/rescaled_final/0723_rv.mp4	0.0	361.03849697113037	2.5003888607025146
80	336.50015902519226	pulse	1	t		78.0	2.5	/experiments/knapen_AOT/AOT_stimuli/rescaled_final/0723_rv.mp4	0.0	361.8221230506897	
80	338.10046792030334	pulse	1	t		78.0	2.5	/experiments/knapen_AOT/AOT_stimuli/rescaled_final/0723_rv.mp4	0.0	363.4224319458008	
80	338.21692180633545	fix_post	2		12	78.0	2.5	/experiments/knapen_AOT/AOT_stimuli/rescaled_final/0723_rv.mp4	0.0	363.5388858318329	0.10034012794494629
81	338.3172619342804	fix_pre	0		120	79.0	2.5	/experiments/knapen_AOT/AOT_stimuli/rescaled_final/0013_rv.mp4	0.0	363.63922595977783	0.9998250007629395
81	339.31708693504333	movie	1		243	79.0	2.5	/experiments/knapen_AOT/AOT_stimuli/rescaled_final/0013_rv.mp4	0.0	364.63905096054077	2.49200701713562
81	339.70151686668396	pulse	1	t		79.0	2.5	/experiments/knapen_AOT/AOT_stimuli/rescaled_final/0013_rv.mp4	0.0	365.0234808921814	
81	341.30095291137695	pulse	1	t		79.0	2.5	/experiments/knapen_AOT/AOT_stimuli/rescaled_final/0013_rv.mp4	0.0	366.6229169368744	
81	341.80909395217896	fix_post	2		12	79.0	2.5	/experiments/knapen_AOT/AOT_stimuli/rescaled_final/0013_rv.mp4	0.0	367.1310579776764	0.10009193420410156
82	341.90918588638306	fix_pre	0		120	80.0	2.5	/experiments/knapen_AOT/AOT_stimuli/rescaled_final/1400_rv.mp4	0.0	367.2311499118805	1.0000801086425781
82	342.9011559486389	pulse	0	t		80.0	2.5	/experiments/knapen_AOT/AOT_stimuli/rescaled_final/1400_rv.mp4	0.0	368.22311997413635	
82	342.90926599502563	movie	1		246	80.0	2.5	/experiments/knapen_AOT/AOT_stimuli/rescaled_final/1400_rv.mp4	0.0	368.23123002052307	2.5087058544158936
82	344.50205397605896	pulse	1	t		80.0	2.5	/experiments/knapen_AOT/AOT_stimuli/rescaled_final/1400_rv.mp4	0.0	369.8240180015564	
82	345.4179718494415	fix_post	2		12	80.0	2.5	/experiments/knapen_AOT/AOT_stimuli/rescaled_final/1400_rv.mp4	0.0	370.73993587493896	0.1000661849975586
83	345.5180380344391	fix_pre	0		120	81.0	2.5	/experiments/knapen_AOT/AOT_stimuli/rescaled_final/0723_rv.mp4	0.0	370.8400020599365	1.0001189708709717
83	346.1016948223114	pulse	0	t		81.0	2.5	/experiments/knapen_AOT/AOT_stimuli/rescaled_final/0723_rv.mp4	0.0	371.42365884780884	
83	346.51815700531006	movie	1		246	81.0	2.5	/experiments/knapen_AOT/AOT_stimuli/rescaled_final/0723_rv.mp4	0.0	371.8401210308075	2.5004239082336426
83	347.7019729614258	pulse	1	t		81.0	2.5	/experiments/knapen_AOT/AOT_stimuli/rescaled_final/0723_rv.mp4	0.0	373.0239369869232	
83	349.0185809135437	fix_post	2		12	81.0	2.5	/experiments/knapen_AOT/AOT_stimuli/rescaled_final/0723_rv.mp4	0.0	374.34054493904114	0.09996509552001953
84	349.1185460090637	fix_pre	0		120	82.0	2.5	blank	1.0	374.44051003456116	1.0001318454742432
84	349.30215287208557	pulse	0	t		82.0	2.5	blank	1.0	374.624116897583	
84	350.11867785453796	movie	1		300	82.0	2.5	blank	1.0	375.4406418800354	2.500430107116699
84	350.9022698402405	pulse	1	t		82.0	2.5	blank	1.0	376.2242338657379	
84	352.50257182121277	pulse	1	t		82.0	2.5	blank	1.0	377.8245358467102	
84	352.61910796165466	fix_post	2		12	82.0	2.5	blank	1.0	377.9410719871521	0.09997105598449707
85	352.71907901763916	fix_pre	0		120	83.0	2.5	/experiments/knapen_AOT/AOT_stimuli/rescaled_final/1687_fw.mp4	0.0	378.0410430431366	1.0001227855682373
85	353.7192018032074	movie	1		244	83.0	2.5	/experiments/knapen_AOT/AOT_stimuli/rescaled_final/1687_fw.mp4	0.0	379.04116582870483	2.492032051086426
85	354.1034598350525	pulse	1	t		83.0	2.5	/experiments/knapen_AOT/AOT_stimuli/rescaled_final/1687_fw.mp4	0.0	379.4254238605499	
85	355.703097820282	pulse	1	t		83.0	2.5	/experiments/knapen_AOT/AOT_stimuli/rescaled_final/1687_fw.mp4	0.0	381.0250618457794	
85	356.2112338542938	fix_post	2		12	83.0	2.5	/experiments/knapen_AOT/AOT_stimuli/rescaled_final/1687_fw.mp4	0.0	381.53319787979126	0.10002899169921875
87	356.31126284599304	stim	0		1716					381.6332268714905	14.302172183990479
87	357.30328392982483	pulse	0	t						382.62524795532227	
87	358.90352988243103	pulse	0	t						384.22549390792847	
87	360.5037829875946	pulse	0	t						385.82574701309204	
87	362.1040699481964	pulse	0	t						387.42603397369385	
87	363.70427799224854	pulse	0	t						389.026242017746	
87	365.3043668270111	pulse	0	t						390.62633085250854	
87	366.90472197532654	pulse	0	t						392.226686000824	
87	368.50499296188354	pulse	0	t						393.826956987381	
87	370.1052339076996	pulse	0	t						395.427197933197	
