trial_nr	onset	event_type	phase	response	nr_frames	movie_index	movie_duration	movie_file	blank	onset_abs	duration
0	0.2081899642944336	stim	0		611					28.00262689590454	5.092469215393066
0	5.292623043060303	response	0	space						33.08705997467041	
1	5.3006591796875	stim	0		4567					33.09509611129761	38.07330584526062
1	43.364235162734985	pulse	0	t						71.15867209434509	
1	43.37396502494812	stim	1		1716					71.16840195655823	14.301171064376831
1	44.956830978393555	pulse	1	t						72.75126791000366	
1	46.55697011947632	pulse	1	t						74.35140705108643	
1	48.15726017951965	pulse	1	t						75.95169711112976	
1	49.757534980773926	pulse	1	t						77.55197191238403	
1	51.35780310630798	pulse	1	t						79.15224003791809	
1	52.957892179489136	pulse	1	t						80.75232911109924	
1	54.558218002319336	pulse	1	t						82.35265493392944	
1	56.15853404998779	pulse	1	t						83.9529709815979	
2	57.67513608932495	fix_pre	0		11	0.0	2.5	/experiments/knapen_AOT/AOT_stimuli/rescaled_final/1400_fw.mp4	0.0	85.46957302093506	0.09160900115966797
2	57.75875401496887	pulse	0	t		0.0	2.5	/experiments/knapen_AOT/AOT_stimuli/rescaled_final/1400_fw.mp4	0.0	85.55319094657898	
2	57.76674509048462	movie	1		245	0.0	2.5	/experiments/knapen_AOT/AOT_stimuli/rescaled_final/1400_fw.mp4	0.0	85.56118202209473	2.5087900161743164
2	59.35960006713867	pulse	1	t		0.0	2.5	/experiments/knapen_AOT/AOT_stimuli/rescaled_final/1400_fw.mp4	0.0	87.15403699874878	
2	60.275535106658936	fix_post	2		12	0.0	2.5	/experiments/knapen_AOT/AOT_stimuli/rescaled_final/1400_fw.mp4	0.0	88.06997203826904	0.10001587867736816
3	60.375550985336304	fix_pre	0		120	1.0	2.5	/experiments/knapen_AOT/AOT_stimuli/rescaled_final/0321_rv.mp4	0.0	88.16998791694641	1.0001189708709717
3	60.9591121673584	pulse	0	t		1.0	2.5	/experiments/knapen_AOT/AOT_stimuli/rescaled_final/0321_rv.mp4	0.0	88.7535490989685	
3	61.375669956207275	movie	1		243	1.0	2.5	/experiments/knapen_AOT/AOT_stimuli/rescaled_final/0321_rv.mp4	0.0	89.17010688781738	2.500385046005249
3	62.55950307846069	pulse	1	t		1.0	2.5	/experiments/knapen_AOT/AOT_stimuli/rescaled_final/0321_rv.mp4	0.0	90.3539400100708	
3	63.876055002212524	fix_post	2		12	1.0	2.5	/experiments/knapen_AOT/AOT_stimuli/rescaled_final/0321_rv.mp4	0.0	91.67049193382263	0.09999418258666992
4	63.976049184799194	fix_pre	0		120	2.0	2.5	/experiments/knapen_AOT/AOT_stimuli/rescaled_final/0589_fw.mp4	0.0	91.7704861164093	1.0002479553222656
4	64.15969109535217	pulse	0	t		2.0	2.5	/experiments/knapen_AOT/AOT_stimuli/rescaled_final/0589_fw.mp4	0.0	91.95412802696228	
4	64.97629714012146	movie	1		246	2.0	2.5	/experiments/knapen_AOT/AOT_stimuli/rescaled_final/0589_fw.mp4	0.0	92.77073407173157	2.5003278255462646
4	65.75986695289612	pulse	1	t		2.0	2.5	/experiments/knapen_AOT/AOT_stimuli/rescaled_final/0589_fw.mp4	0.0	93.55430388450623	
4	67.36009407043457	pulse	1	t		2.0	2.5	/experiments/knapen_AOT/AOT_stimuli/rescaled_final/0589_fw.mp4	0.0	95.15453100204468	
4	67.47662496566772	fix_post	2		9	2.0	2.5	/experiments/knapen_AOT/AOT_stimuli/rescaled_final/0589_fw.mp4	0.0	95.27106189727783	0.10001111030578613
5	67.57663607597351	fix_pre	0		120	3.0	2.5	/experiments/knapen_AOT/AOT_stimuli/rescaled_final/2070_rv.mp4	0.0	95.37107300758362	1.0001249313354492
5	68.57676100730896	movie	1		243	3.0	2.5	/experiments/knapen_AOT/AOT_stimuli/rescaled_final/2070_rv.mp4	0.0	96.37119793891907	2.492033004760742
5	68.96156215667725	pulse	1	t		3.0	2.5	/experiments/knapen_AOT/AOT_stimuli/rescaled_final/2070_rv.mp4	0.0	96.75599908828735	
5	70.56068515777588	pulse	1	t		3.0	2.5	/experiments/knapen_AOT/AOT_stimuli/rescaled_final/2070_rv.mp4	0.0	98.35512208938599	
5	71.0687940120697	fix_post	2		12	3.0	2.5	/experiments/knapen_AOT/AOT_stimuli/rescaled_final/2070_rv.mp4	0.0	98.86323094367981	0.09998297691345215
6	71.16877698898315	fix_pre	0		120	4.0	2.5	/experiments/knapen_AOT/AOT_stimuli/rescaled_final/0300_fw.mp4	0.0	98.96321392059326	1.000303030014038
6	72.16083908081055	pulse	0	t		4.0	2.5	/experiments/knapen_AOT/AOT_stimuli/rescaled_final/0300_fw.mp4	0.0	99.95527601242065	
6	72.16908001899719	movie	1		245	4.0	2.5	/experiments/knapen_AOT/AOT_stimuli/rescaled_final/0300_fw.mp4	0.0	99.9635169506073	2.5085761547088623
6	73.7620370388031	pulse	1	t		4.0	2.5	/experiments/knapen_AOT/AOT_stimuli/rescaled_final/0300_fw.mp4	0.0	101.55647397041321	
6	74.67765617370605	fix_post	2		12	4.0	2.5	/experiments/knapen_AOT/AOT_stimuli/rescaled_final/0300_fw.mp4	0.0	102.47209310531616	0.10003399848937988
7	74.77769017219543	fix_pre	0		120	5.0	2.5	/experiments/knapen_AOT/AOT_stimuli/rescaled_final/0435_rv.mp4	0.0	102.57212710380554	1.0001869201660156
7	75.36132407188416	pulse	0	t		5.0	2.5	/experiments/knapen_AOT/AOT_stimuli/rescaled_final/0435_rv.mp4	0.0	103.15576100349426	
7	75.77787709236145	movie	1		244	5.0	2.5	/experiments/knapen_AOT/AOT_stimuli/rescaled_final/0435_rv.mp4	0.0	103.57231402397156	2.500403881072998
7	76.95802617073059	pulse	1	t		5.0	2.5	/experiments/knapen_AOT/AOT_stimuli/rescaled_final/0435_rv.mp4	0.0	104.7524631023407	
7	78.27828097343445	fix_post	2		12	5.0	2.5	/experiments/knapen_AOT/AOT_stimuli/rescaled_final/0435_rv.mp4	0.0	106.07271790504456	0.09991216659545898
8	78.37819314002991	fix_pre	0		120	6.0	2.5	/experiments/knapen_AOT/AOT_stimuli/rescaled_final/1409_fw.mp4	0.0	106.17263007164001	1.0002238750457764
8	78.5542299747467	pulse	0	t		6.0	2.5	/experiments/knapen_AOT/AOT_stimuli/rescaled_final/1409_fw.mp4	0.0	106.34866690635681	
8	79.37841701507568	movie	1		243	6.0	2.5	/experiments/knapen_AOT/AOT_stimuli/rescaled_final/1409_fw.mp4	0.0	107.17285394668579	2.500317096710205
8	80.15465998649597	pulse	1	t		6.0	2.5	/experiments/knapen_AOT/AOT_stimuli/rescaled_final/1409_fw.mp4	0.0	107.94909691810608	
8	81.76215600967407	pulse	1	t		6.0	2.5	/experiments/knapen_AOT/AOT_stimuli/rescaled_final/1409_fw.mp4	0.0	109.55659294128418	
8	81.87873411178589	fix_post	2		12	6.0	2.5	/experiments/knapen_AOT/AOT_stimuli/rescaled_final/1409_fw.mp4	0.0	109.673171043396	0.10001802444458008
9	81.97875213623047	fix_pre	0		120	7.0	2.5	blank	1.0	109.77318906784058	1.000152826309204
9	82.97890496253967	movie	1		299	7.0	2.5	blank	1.0	110.77334189414978	2.492033004760742
9	83.3541431427002	pulse	1	t		7.0	2.5	blank	1.0	111.1485800743103	
9	84.95432209968567	pulse	1	t		7.0	2.5	blank	1.0	112.74875903129578	
9	85.47093796730042	fix_post	2		12	7.0	2.5	blank	1.0	113.26537489891052	0.1000831127166748
10	85.57102108001709	fix_pre	0		119	8.0	2.5	/experiments/knapen_AOT/AOT_stimuli/rescaled_final/0159_fw.mp4	0.0	113.3654580116272	0.9917268753051758
10	86.5545961856842	pulse	0	t		8.0	2.5	/experiments/knapen_AOT/AOT_stimuli/rescaled_final/0159_fw.mp4	0.0	114.34903311729431	
10	86.56274795532227	movie	1		244	8.0	2.5	/experiments/knapen_AOT/AOT_stimuli/rescaled_final/0159_fw.mp4	0.0	114.35718488693237	2.508721113204956
10	88.15551018714905	pulse	1	t		8.0	2.5	/experiments/knapen_AOT/AOT_stimuli/rescaled_final/0159_fw.mp4	0.0	115.94994711875916	
10	89.07146906852722	fix_post	2		12	8.0	2.5	/experiments/knapen_AOT/AOT_stimuli/rescaled_final/0159_fw.mp4	0.0	116.86590600013733	0.10002803802490234
11	89.17149710655212	fix_pre	0		120	9.0	2.5	/experiments/knapen_AOT/AOT_stimuli/rescaled_final/0439_rv.mp4	0.0	116.96593403816223	1.000180959701538
11	89.75509214401245	pulse	0	t		9.0	2.5	/experiments/knapen_AOT/AOT_stimuli/rescaled_final/0439_rv.mp4	0.0	117.54952907562256	
11	90.17167806625366	movie	1		243	9.0	2.5	/experiments/knapen_AOT/AOT_stimuli/rescaled_final/0439_rv.mp4	0.0	117.96611499786377	2.500314950942993
11	91.35552310943604	pulse	1	t		9.0	2.5	/experiments/knapen_AOT/AOT_stimuli/rescaled_final/0439_rv.mp4	0.0	119.14996004104614	
11	92.67199301719666	fix_post	2		12	9.0	2.5	/experiments/knapen_AOT/AOT_stimuli/rescaled_final/0439_rv.mp4	0.0	120.46642994880676	0.10006594657897949
12	92.77205896377563	fix_pre	0		120	10.0	2.5	/experiments/knapen_AOT/AOT_stimuli/rescaled_final/0824_rv.mp4	0.0	120.56649589538574	1.000129222869873
12	92.95550918579102	pulse	0	t		10.0	2.5	/experiments/knapen_AOT/AOT_stimuli/rescaled_final/0824_rv.mp4	0.0	120.74994611740112	
12	93.77218818664551	movie	1		244	10.0	2.5	/experiments/knapen_AOT/AOT_stimuli/rescaled_final/0824_rv.mp4	0.0	121.56662511825562	2.5003819465637207
12	94.55578398704529	pulse	1	t		10.0	2.5	/experiments/knapen_AOT/AOT_stimuli/rescaled_final/0824_rv.mp4	0.0	122.3502209186554	
12	96.15627598762512	pulse	1	t		10.0	2.5	/experiments/knapen_AOT/AOT_stimuli/rescaled_final/0824_rv.mp4	0.0	123.95071291923523	
12	96.27257013320923	fix_post	2		12	10.0	2.5	/experiments/knapen_AOT/AOT_stimuli/rescaled_final/0824_rv.mp4	0.0	124.06700706481934	0.09999489784240723
13	96.37256503105164	fix_pre	0		119	11.0	2.5	/experiments/knapen_AOT/AOT_stimuli/rescaled_final/1819_rv.mp4	0.0	124.16700196266174	0.991826057434082
13	97.36439108848572	movie	1		244	11.0	2.5	/experiments/knapen_AOT/AOT_stimuli/rescaled_final/1819_rv.mp4	0.0	125.15882802009583	2.5003910064697266
13	97.75637698173523	pulse	1	t		11.0	2.5	/experiments/knapen_AOT/AOT_stimuli/rescaled_final/1819_rv.mp4	0.0	125.55081391334534	
13	99.35659217834473	pulse	1	t		11.0	2.5	/experiments/knapen_AOT/AOT_stimuli/rescaled_final/1819_rv.mp4	0.0	127.15102910995483	
13	99.86478209495544	fix_post	2		12	11.0	2.5	/experiments/knapen_AOT/AOT_stimuli/rescaled_final/1819_rv.mp4	0.0	127.65921902656555	0.09998893737792969
14	99.96477103233337	fix_pre	0		120	12.0	2.5	blank	1.0	127.75920796394348	1.0002410411834717
14	100.95675206184387	pulse	0	t		12.0	2.5	blank	1.0	128.75118899345398	
14	100.96501207351685	movie	1		301	12.0	2.5	blank	1.0	128.75944900512695	2.5086300373077393
14	102.55693912506104	pulse	1	t		12.0	2.5	blank	1.0	130.35137605667114	
14	103.47364211082458	fix_post	2		12	12.0	2.5	blank	1.0	131.2680790424347	0.10002589225769043
15	103.57366800308228	fix_pre	0		120	13.0	2.5	/experiments/knapen_AOT/AOT_stimuli/rescaled_final/0814_rv.mp4	0.0	131.36810493469238	1.0001449584960938
15	104.15737414360046	pulse	0	t		13.0	2.5	/experiments/knapen_AOT/AOT_stimuli/rescaled_final/0814_rv.mp4	0.0	131.95181107521057	
15	104.57381296157837	movie	1		245	13.0	2.5	/experiments/knapen_AOT/AOT_stimuli/rescaled_final/0814_rv.mp4	0.0	132.36824989318848	2.500368118286133
15	105.75764203071594	pulse	1	t		13.0	2.5	/experiments/knapen_AOT/AOT_stimuli/rescaled_final/0814_rv.mp4	0.0	133.55207896232605	
15	107.0741810798645	fix_post	2		12	13.0	2.5	/experiments/knapen_AOT/AOT_stimuli/rescaled_final/0814_rv.mp4	0.0	134.8686180114746	0.09999704360961914
16	107.17417812347412	fix_pre	0		120	14.0	2.5	/experiments/knapen_AOT/AOT_stimuli/rescaled_final/0151_rv.mp4	0.0	134.96861505508423	1.000166893005371
16	107.35771799087524	pulse	0	t		14.0	2.5	/experiments/knapen_AOT/AOT_stimuli/rescaled_final/0151_rv.mp4	0.0	135.15215492248535	
16	108.17434501647949	movie	1		243	14.0	2.5	/experiments/knapen_AOT/AOT_stimuli/rescaled_final/0151_rv.mp4	0.0	135.9687819480896	2.5003459453582764
16	108.95800805091858	pulse	1	t		14.0	2.5	/experiments/knapen_AOT/AOT_stimuli/rescaled_final/0151_rv.mp4	0.0	136.7524449825287	
16	110.55789399147034	pulse	1	t		14.0	2.5	/experiments/knapen_AOT/AOT_stimuli/rescaled_final/0151_rv.mp4	0.0	138.35233092308044	
16	110.67469096183777	fix_post	2		12	14.0	2.5	/experiments/knapen_AOT/AOT_stimuli/rescaled_final/0151_rv.mp4	0.0	138.46912789344788	0.10004305839538574
17	110.77473402023315	fix_pre	0		119	15.0	2.5	/experiments/knapen_AOT/AOT_stimuli/rescaled_final/0531_fw.mp4	0.0	138.56917095184326	0.9918019771575928
17	111.76653599739075	movie	1		243	15.0	2.5	/experiments/knapen_AOT/AOT_stimuli/rescaled_final/0531_fw.mp4	0.0	139.56097292900085	2.5003650188446045
17	112.15861511230469	pulse	1	t		15.0	2.5	/experiments/knapen_AOT/AOT_stimuli/rescaled_final/0531_fw.mp4	0.0	139.9530520439148	
17	113.75865507125854	pulse	1	t		15.0	2.5	/experiments/knapen_AOT/AOT_stimuli/rescaled_final/0531_fw.mp4	0.0	141.55309200286865	
17	114.26690101623535	fix_post	2		12	15.0	2.5	/experiments/knapen_AOT/AOT_stimuli/rescaled_final/0531_fw.mp4	0.0	142.06133794784546	0.09999895095825195
18	114.3668999671936	fix_pre	0		120	16.0	2.5	/experiments/knapen_AOT/AOT_stimuli/rescaled_final/1227_fw.mp4	0.0	142.1613368988037	1.0002350807189941
18	115.35886597633362	pulse	0	t		16.0	2.5	/experiments/knapen_AOT/AOT_stimuli/rescaled_final/1227_fw.mp4	0.0	143.15330290794373	
18	115.3671350479126	movie	1		245	16.0	2.5	/experiments/knapen_AOT/AOT_stimuli/rescaled_final/1227_fw.mp4	0.0	143.1615719795227	2.5086450576782227
18	116.96040415763855	pulse	1	t		16.0	2.5	/experiments/knapen_AOT/AOT_stimuli/rescaled_final/1227_fw.mp4	0.0	144.75484108924866	
18	117.87578010559082	fix_post	2		12	16.0	2.5	/experiments/knapen_AOT/AOT_stimuli/rescaled_final/1227_fw.mp4	0.0	145.67021703720093	0.10000085830688477
19	117.9757809638977	fix_pre	0		120	17.0	2.5	/experiments/knapen_AOT/AOT_stimuli/rescaled_final/1888_fw.mp4	0.0	145.7702178955078	1.0002532005310059
19	118.5595121383667	pulse	0	t		17.0	2.5	/experiments/knapen_AOT/AOT_stimuli/rescaled_final/1888_fw.mp4	0.0	146.3539490699768	
19	118.97603416442871	movie	1		244	17.0	2.5	/experiments/knapen_AOT/AOT_stimuli/rescaled_final/1888_fw.mp4	0.0	146.77047109603882	2.5003178119659424
19	120.1556601524353	pulse	1	t		17.0	2.5	/experiments/knapen_AOT/AOT_stimuli/rescaled_final/1888_fw.mp4	0.0	147.9500970840454	
19	121.47635197639465	fix_post	2		12	17.0	2.5	/experiments/knapen_AOT/AOT_stimuli/rescaled_final/1888_fw.mp4	0.0	149.27078890800476	0.09998011589050293
20	121.57633209228516	fix_pre	0		120	18.0	2.5	/experiments/knapen_AOT/AOT_stimuli/rescaled_final/0952_fw.mp4	0.0	149.37076902389526	1.0001449584960938
20	121.75987815856934	pulse	0	t		18.0	2.5	/experiments/knapen_AOT/AOT_stimuli/rescaled_final/0952_fw.mp4	0.0	149.55431509017944	
20	122.57647705078125	movie	1		246	18.0	2.5	/experiments/knapen_AOT/AOT_stimuli/rescaled_final/0952_fw.mp4	0.0	150.37091398239136	2.500349998474121
20	123.3601610660553	pulse	1	t		18.0	2.5	/experiments/knapen_AOT/AOT_stimuli/rescaled_final/0952_fw.mp4	0.0	151.1545979976654	
20	124.96041417121887	pulse	1	t		18.0	2.5	/experiments/knapen_AOT/AOT_stimuli/rescaled_final/0952_fw.mp4	0.0	152.75485110282898	
20	125.07682704925537	fix_post	2		12	18.0	2.5	/experiments/knapen_AOT/AOT_stimuli/rescaled_final/0952_fw.mp4	0.0	152.87126398086548	0.10004305839538574
21	125.17687010765076	fix_pre	0		117	19.0	2.5	blank	1.0	152.97130703926086	1.000154972076416
21	126.17702507972717	movie	1		299	19.0	2.5	blank	1.0	153.97146201133728	2.492064952850342
21	126.56071305274963	pulse	1	t		19.0	2.5	blank	1.0	154.35514998435974	
21	128.16083812713623	pulse	1	t		19.0	2.5	blank	1.0	155.95527505874634	
21	128.66909003257751	fix_post	2		12	19.0	2.5	blank	1.0	156.46352696418762	0.10000300407409668
22	128.7690930366516	fix_pre	0		120	20.0	2.5	/experiments/knapen_AOT/AOT_stimuli/rescaled_final/0074_rv.mp4	0.0	156.56352996826172	1.000108003616333
22	129.76099610328674	pulse	0	t		20.0	2.5	/experiments/knapen_AOT/AOT_stimuli/rescaled_final/0074_rv.mp4	0.0	157.55543303489685	
22	129.76920104026794	movie	1		246	20.0	2.5	/experiments/knapen_AOT/AOT_stimuli/rescaled_final/0074_rv.mp4	0.0	157.56363797187805	2.5087130069732666
22	131.3616750240326	pulse	1	t		20.0	2.5	/experiments/knapen_AOT/AOT_stimuli/rescaled_final/0074_rv.mp4	0.0	159.1561119556427	
22	132.2779140472412	fix_post	2		12	20.0	2.5	/experiments/knapen_AOT/AOT_stimuli/rescaled_final/0074_rv.mp4	0.0	160.07235097885132	0.10007691383361816
23	132.37799096107483	fix_pre	0		120	21.0	2.5	/experiments/knapen_AOT/AOT_stimuli/rescaled_final/1053_rv.mp4	0.0	160.17242789268494	1.0001142024993896
23	132.95416498184204	pulse	0	t		21.0	2.5	/experiments/knapen_AOT/AOT_stimuli/rescaled_final/1053_rv.mp4	0.0	160.74860191345215	
23	133.37810516357422	movie	1		243	21.0	2.5	/experiments/knapen_AOT/AOT_stimuli/rescaled_final/1053_rv.mp4	0.0	161.17254209518433	2.5003418922424316
23	134.55391216278076	pulse	1	t		21.0	2.5	/experiments/knapen_AOT/AOT_stimuli/rescaled_final/1053_rv.mp4	0.0	162.34834909439087	
23	135.87844705581665	fix_post	2		12	21.0	2.5	/experiments/knapen_AOT/AOT_stimuli/rescaled_final/1053_rv.mp4	0.0	163.67288398742676	0.10005593299865723
24	135.9785029888153	fix_pre	0		120	22.0	2.5	/experiments/knapen_AOT/AOT_stimuli/rescaled_final/2017_fw.mp4	0.0	163.77293992042542	1.0001230239868164
24	136.15442204475403	pulse	0	t		22.0	2.5	/experiments/knapen_AOT/AOT_stimuli/rescaled_final/2017_fw.mp4	0.0	163.94885897636414	
24	136.97862601280212	movie	1		244	22.0	2.5	/experiments/knapen_AOT/AOT_stimuli/rescaled_final/2017_fw.mp4	0.0	164.77306294441223	2.5003621578216553
24	137.75394105911255	pulse	1	t		22.0	2.5	/experiments/knapen_AOT/AOT_stimuli/rescaled_final/2017_fw.mp4	0.0	165.54837799072266	
24	139.35415697097778	pulse	1	t		22.0	2.5	/experiments/knapen_AOT/AOT_stimuli/rescaled_final/2017_fw.mp4	0.0	167.1485939025879	
24	139.47898817062378	fix_post	2		12	22.0	2.5	/experiments/knapen_AOT/AOT_stimuli/rescaled_final/2017_fw.mp4	0.0	167.2734251022339	0.10002684593200684
25	139.5790150165558	fix_pre	0		120	23.0	2.5	/experiments/knapen_AOT/AOT_stimuli/rescaled_final/1184_fw.mp4	0.0	167.3734519481659	1.0001590251922607
25	140.57917404174805	movie	1		244	23.0	2.5	/experiments/knapen_AOT/AOT_stimuli/rescaled_final/1184_fw.mp4	0.0	168.37361097335815	2.5003600120544434
25	140.95447611808777	pulse	1	t		23.0	2.5	/experiments/knapen_AOT/AOT_stimuli/rescaled_final/1184_fw.mp4	0.0	168.74891304969788	
25	142.55483198165894	pulse	1	t		23.0	2.5	/experiments/knapen_AOT/AOT_stimuli/rescaled_final/1184_fw.mp4	0.0	170.34926891326904	
25	143.0795340538025	fix_post	2		11	23.0	2.5	/experiments/knapen_AOT/AOT_stimuli/rescaled_final/1184_fw.mp4	0.0	170.8739709854126	0.09166407585144043
26	143.17119812965393	fix_pre	0		119	24.0	2.5	/experiments/knapen_AOT/AOT_stimuli/rescaled_final/0723_fw.mp4	0.0	170.96563506126404	0.9918379783630371
26	144.15489315986633	pulse	0	t		24.0	2.5	/experiments/knapen_AOT/AOT_stimuli/rescaled_final/0723_fw.mp4	0.0	171.94933009147644	
26	144.16303610801697	movie	1		246	24.0	2.5	/experiments/knapen_AOT/AOT_stimuli/rescaled_final/0723_fw.mp4	0.0	171.95747303962708	2.508707046508789
26	145.75615215301514	pulse	1	t		24.0	2.5	/experiments/knapen_AOT/AOT_stimuli/rescaled_final/0723_fw.mp4	0.0	173.55058908462524	
26	146.67174315452576	fix_post	2		12	24.0	2.5	/experiments/knapen_AOT/AOT_stimuli/rescaled_final/0723_fw.mp4	0.0	174.46618008613586	0.10000801086425781
27	146.77175116539001	fix_pre	0		120	25.0	2.5	/experiments/knapen_AOT/AOT_stimuli/rescaled_final/1818_fw.mp4	0.0	174.56618809700012	1.000147819519043
27	147.35530805587769	pulse	0	t		25.0	2.5	/experiments/knapen_AOT/AOT_stimuli/rescaled_final/1818_fw.mp4	0.0	175.1497449874878	
27	147.77189898490906	movie	1		243	25.0	2.5	/experiments/knapen_AOT/AOT_stimuli/rescaled_final/1818_fw.mp4	0.0	175.56633591651917	2.500383138656616
27	148.9557750225067	pulse	1	t		25.0	2.5	/experiments/knapen_AOT/AOT_stimuli/rescaled_final/1818_fw.mp4	0.0	176.75021195411682	
27	150.27228212356567	fix_post	2		12	25.0	2.5	/experiments/knapen_AOT/AOT_stimuli/rescaled_final/1818_fw.mp4	0.0	178.06671905517578	0.10002589225769043
28	150.37230801582336	fix_pre	0		120	26.0	2.5	/experiments/knapen_AOT/AOT_stimuli/rescaled_final/1064_rv.mp4	0.0	178.16674494743347	1.0002341270446777
28	150.55587697029114	pulse	0	t		26.0	2.5	/experiments/knapen_AOT/AOT_stimuli/rescaled_final/1064_rv.mp4	0.0	178.35031390190125	
28	151.37254214286804	movie	1		244	26.0	2.5	/experiments/knapen_AOT/AOT_stimuli/rescaled_final/1064_rv.mp4	0.0	179.16697907447815	2.500255823135376
28	152.15604305267334	pulse	1	t		26.0	2.5	/experiments/knapen_AOT/AOT_stimuli/rescaled_final/1064_rv.mp4	0.0	179.95047998428345	
28	153.75626611709595	pulse	1	t		26.0	2.5	/experiments/knapen_AOT/AOT_stimuli/rescaled_final/1064_rv.mp4	0.0	181.55070304870605	
28	153.87279796600342	fix_post	2		12	26.0	2.5	/experiments/knapen_AOT/AOT_stimuli/rescaled_final/1064_rv.mp4	0.0	181.66723489761353	0.1000521183013916
29	153.9728500843048	fix_pre	0		120	27.0	2.5	blank	1.0	181.76728701591492	1.0001990795135498
29	154.97304916381836	movie	1		299	27.0	2.5	blank	1.0	182.76748609542847	2.491987943649292
29	155.35652804374695	pulse	1	t		27.0	2.5	blank	1.0	183.15096497535706	
29	156.95684099197388	pulse	1	t		27.0	2.5	blank	1.0	184.75127792358398	
29	157.46503710746765	fix_post	2		12	27.0	2.5	blank	1.0	185.25947403907776	0.10001087188720703
30	157.56504797935486	fix_pre	0		120	28.0	2.5	/experiments/knapen_AOT/AOT_stimuli/rescaled_final/1900_fw.mp4	0.0	185.35948491096497	1.000128984451294
30	158.55697512626648	pulse	0	t		28.0	2.5	/experiments/knapen_AOT/AOT_stimuli/rescaled_final/1900_fw.mp4	0.0	186.3514120578766	
30	158.56517696380615	movie	1		245	28.0	2.5	/experiments/knapen_AOT/AOT_stimuli/rescaled_final/1900_fw.mp4	0.0	186.35961389541626	2.5087192058563232
30	160.15795016288757	pulse	1	t		28.0	2.5	/experiments/knapen_AOT/AOT_stimuli/rescaled_final/1900_fw.mp4	0.0	187.95238709449768	
30	161.07389616966248	fix_post	2		12	28.0	2.5	/experiments/knapen_AOT/AOT_stimuli/rescaled_final/1900_fw.mp4	0.0	188.86833310127258	0.09998083114624023
31	161.17387700080872	fix_pre	0		120	29.0	2.5	/experiments/knapen_AOT/AOT_stimuli/rescaled_final/1077_rv.mp4	0.0	188.96831393241882	1.0001640319824219
31	161.75748205184937	pulse	0	t		29.0	2.5	/experiments/knapen_AOT/AOT_stimuli/rescaled_final/1077_rv.mp4	0.0	189.55191898345947	
31	162.17404103279114	movie	1		242	29.0	2.5	/experiments/knapen_AOT/AOT_stimuli/rescaled_final/1077_rv.mp4	0.0	189.96847796440125	2.500615119934082
31	163.35793805122375	pulse	1	t		29.0	2.5	/experiments/knapen_AOT/AOT_stimuli/rescaled_final/1077_rv.mp4	0.0	191.15237498283386	
31	164.67465615272522	fix_post	2		12	29.0	2.5	/experiments/knapen_AOT/AOT_stimuli/rescaled_final/1077_rv.mp4	0.0	192.46909308433533	0.09980988502502441
32	164.77446603775024	fix_pre	0		120	30.0	2.5	/experiments/knapen_AOT/AOT_stimuli/rescaled_final/2071_fw.mp4	0.0	192.56890296936035	1.0001280307769775
32	164.9580099582672	pulse	0	t		30.0	2.5	/experiments/knapen_AOT/AOT_stimuli/rescaled_final/2071_fw.mp4	0.0	192.75244688987732	
32	165.77459406852722	movie	1		243	30.0	2.5	/experiments/knapen_AOT/AOT_stimuli/rescaled_final/2071_fw.mp4	0.0	193.56903100013733	2.5003349781036377
32	166.55826711654663	pulse	1	t		30.0	2.5	/experiments/knapen_AOT/AOT_stimuli/rescaled_final/2071_fw.mp4	0.0	194.35270404815674	
32	168.15844798088074	pulse	1	t		30.0	2.5	/experiments/knapen_AOT/AOT_stimuli/rescaled_final/2071_fw.mp4	0.0	195.95288491249084	
32	168.27492904663086	fix_post	2		12	30.0	2.5	/experiments/knapen_AOT/AOT_stimuli/rescaled_final/2071_fw.mp4	0.0	196.06936597824097	0.10006904602050781
33	168.37499809265137	fix_pre	0		119	31.0	2.5	/experiments/knapen_AOT/AOT_stimuli/rescaled_final/0838_fw.mp4	0.0	196.16943502426147	0.9917929172515869
33	169.36679100990295	movie	1		243	31.0	2.5	/experiments/knapen_AOT/AOT_stimuli/rescaled_final/0838_fw.mp4	0.0	197.16122794151306	2.5003809928894043
33	169.75882196426392	pulse	1	t		31.0	2.5	/experiments/knapen_AOT/AOT_stimuli/rescaled_final/0838_fw.mp4	0.0	197.55325889587402	
33	171.35895705223083	pulse	1	t		31.0	2.5	/experiments/knapen_AOT/AOT_stimuli/rescaled_final/0838_fw.mp4	0.0	199.15339398384094	
33	171.86717200279236	fix_post	2		12	31.0	2.5	/experiments/knapen_AOT/AOT_stimuli/rescaled_final/0838_fw.mp4	0.0	199.66160893440247	0.09999513626098633
34	171.96716713905334	fix_pre	0		120	32.0	2.5	/experiments/knapen_AOT/AOT_stimuli/rescaled_final/0987_rv.mp4	0.0	199.76160407066345	1.000169038772583
34	172.9592890739441	pulse	0	t		32.0	2.5	/experiments/knapen_AOT/AOT_stimuli/rescaled_final/0987_rv.mp4	0.0	200.7537260055542	
34	172.96733617782593	movie	1		245	32.0	2.5	/experiments/knapen_AOT/AOT_stimuli/rescaled_final/0987_rv.mp4	0.0	200.76177310943604	2.508727788925171
34	174.5601291656494	pulse	1	t		32.0	2.5	/experiments/knapen_AOT/AOT_stimuli/rescaled_final/0987_rv.mp4	0.0	202.35456609725952	
34	175.4760639667511	fix_post	2		12	32.0	2.5	/experiments/knapen_AOT/AOT_stimuli/rescaled_final/0987_rv.mp4	0.0	203.2705008983612	0.10000300407409668
35	175.5760669708252	fix_pre	0		120	33.0	2.5	/experiments/knapen_AOT/AOT_stimuli/rescaled_final/1819_rv.mp4	0.0	203.3705039024353	1.0001270771026611
35	176.15968704223633	pulse	0	t		33.0	2.5	/experiments/knapen_AOT/AOT_stimuli/rescaled_final/1819_rv.mp4	0.0	203.95412397384644	
35	176.57619404792786	movie	1		244	33.0	2.5	/experiments/knapen_AOT/AOT_stimuli/rescaled_final/1819_rv.mp4	0.0	204.37063097953796	2.5004119873046875
35	177.76005506515503	pulse	1	t		33.0	2.5	/experiments/knapen_AOT/AOT_stimuli/rescaled_final/1819_rv.mp4	0.0	205.55449199676514	
35	179.07660603523254	fix_post	2		12	33.0	2.5	/experiments/knapen_AOT/AOT_stimuli/rescaled_final/1819_rv.mp4	0.0	206.87104296684265	0.10007214546203613
36	179.17667818069458	fix_pre	0		120	34.0	2.5	/experiments/knapen_AOT/AOT_stimuli/rescaled_final/0825_rv.mp4	0.0	206.9711151123047	1.000126838684082
36	179.36013317108154	pulse	0	t		34.0	2.5	/experiments/knapen_AOT/AOT_stimuli/rescaled_final/0825_rv.mp4	0.0	207.15457010269165	
36	180.17680501937866	movie	1		244	34.0	2.5	/experiments/knapen_AOT/AOT_stimuli/rescaled_final/0825_rv.mp4	0.0	207.97124195098877	2.5003011226654053
36	180.96040606498718	pulse	1	t		34.0	2.5	/experiments/knapen_AOT/AOT_stimuli/rescaled_final/0825_rv.mp4	0.0	208.7548429965973	
36	182.56400418281555	pulse	1	t		34.0	2.5	/experiments/knapen_AOT/AOT_stimuli/rescaled_final/0825_rv.mp4	0.0	210.35844111442566	
36	182.67710614204407	fix_post	2		12	34.0	2.5	/experiments/knapen_AOT/AOT_stimuli/rescaled_final/0825_rv.mp4	0.0	210.47154307365417	0.10002684593200684
37	182.77713298797607	fix_pre	0		120	35.0	2.5	blank	1.0	210.57156991958618	1.0001771450042725
37	183.77731013298035	movie	1		295	35.0	2.5	blank	1.0	211.57174706459045	2.492034912109375
37	184.16088008880615	pulse	1	t		35.0	2.5	blank	1.0	211.95531702041626	
37	185.76111006736755	pulse	1	t		35.0	2.5	blank	1.0	213.55554699897766	
37	186.26934504508972	fix_post	2		12	35.0	2.5	blank	1.0	214.06378197669983	0.10000491142272949
38	186.36934995651245	fix_pre	0		120	36.0	2.5	/experiments/knapen_AOT/AOT_stimuli/rescaled_final/0031_rv.mp4	0.0	214.16378688812256	1.0001311302185059
38	187.36143803596497	pulse	0	t		36.0	2.5	/experiments/knapen_AOT/AOT_stimuli/rescaled_final/0031_rv.mp4	0.0	215.15587496757507	
38	187.36948108673096	movie	1		245	36.0	2.5	/experiments/knapen_AOT/AOT_stimuli/rescaled_final/0031_rv.mp4	0.0	215.16391801834106	2.5087149143218994
38	188.96234917640686	pulse	1	t		36.0	2.5	/experiments/knapen_AOT/AOT_stimuli/rescaled_final/0031_rv.mp4	0.0	216.75678610801697	
38	189.87819600105286	fix_post	2		12	36.0	2.5	/experiments/knapen_AOT/AOT_stimuli/rescaled_final/0031_rv.mp4	0.0	217.67263293266296	0.10002517700195312
39	189.9782211780548	fix_pre	0		120	37.0	2.5	/experiments/knapen_AOT/AOT_stimuli/rescaled_final/1617_rv.mp4	0.0	217.77265810966492	1.0001709461212158
39	190.55434608459473	pulse	0	t		37.0	2.5	/experiments/knapen_AOT/AOT_stimuli/rescaled_final/1617_rv.mp4	0.0	218.34878301620483	
39	190.97839212417603	movie	1		243	37.0	2.5	/experiments/knapen_AOT/AOT_stimuli/rescaled_final/1617_rv.mp4	0.0	218.77282905578613	2.5003130435943604
39	192.15443015098572	pulse	1	t		37.0	2.5	/experiments/knapen_AOT/AOT_stimuli/rescaled_final/1617_rv.mp4	0.0	219.94886708259583	
39	193.47870516777039	fix_post	2		12	37.0	2.5	/experiments/knapen_AOT/AOT_stimuli/rescaled_final/1617_rv.mp4	0.0	221.2731420993805	0.10005497932434082
40	193.57876014709473	fix_pre	0		120	38.0	2.5	/experiments/knapen_AOT/AOT_stimuli/rescaled_final/2142_rv.mp4	0.0	221.37319707870483	1.0002069473266602
40	193.7547149658203	pulse	0	t		38.0	2.5	/experiments/knapen_AOT/AOT_stimuli/rescaled_final/2142_rv.mp4	0.0	221.54915189743042	
40	194.5789670944214	movie	1		244	38.0	2.5	/experiments/knapen_AOT/AOT_stimuli/rescaled_final/2142_rv.mp4	0.0	222.3734040260315	2.500312089920044
40	195.3551139831543	pulse	1	t		38.0	2.5	/experiments/knapen_AOT/AOT_stimuli/rescaled_final/2142_rv.mp4	0.0	223.1495509147644	
40	196.9625461101532	pulse	1	t		38.0	2.5	/experiments/knapen_AOT/AOT_stimuli/rescaled_final/2142_rv.mp4	0.0	224.7569830417633	
40	197.07927918434143	fix_post	2		12	38.0	2.5	/experiments/knapen_AOT/AOT_stimuli/rescaled_final/2142_rv.mp4	0.0	224.87371611595154	0.09998297691345215
41	197.17926216125488	fix_pre	0		120	39.0	2.5	/experiments/knapen_AOT/AOT_stimuli/rescaled_final/1369_fw.mp4	0.0	224.973699092865	1.0001499652862549
41	198.17941212654114	movie	1		242	39.0	2.5	/experiments/knapen_AOT/AOT_stimuli/rescaled_final/1369_fw.mp4	0.0	225.97384905815125	2.492033004760742
41	198.55464601516724	pulse	1	t		39.0	2.5	/experiments/knapen_AOT/AOT_stimuli/rescaled_final/1369_fw.mp4	0.0	226.34908294677734	
41	200.15496110916138	pulse	1	t		39.0	2.5	/experiments/knapen_AOT/AOT_stimuli/rescaled_final/1369_fw.mp4	0.0	227.94939804077148	
41	200.67144513130188	fix_post	2		12	39.0	2.5	/experiments/knapen_AOT/AOT_stimuli/rescaled_final/1369_fw.mp4	0.0	228.465882062912	0.10005903244018555
42	200.77150416374207	fix_pre	0		119	40.0	2.5	/experiments/knapen_AOT/AOT_stimuli/rescaled_final/0012_fw.mp4	0.0	228.56594109535217	0.9918859004974365
42	201.7552251815796	pulse	0	t		40.0	2.5	/experiments/knapen_AOT/AOT_stimuli/rescaled_final/0012_fw.mp4	0.0	229.5496621131897	
42	201.7633900642395	movie	1		245	40.0	2.5	/experiments/knapen_AOT/AOT_stimuli/rescaled_final/0012_fw.mp4	0.0	229.5578269958496	2.5086069107055664
42	203.35663509368896	pulse	1	t		40.0	2.5	/experiments/knapen_AOT/AOT_stimuli/rescaled_final/0012_fw.mp4	0.0	231.15107202529907	
42	204.27199697494507	fix_post	2		12	40.0	2.5	/experiments/knapen_AOT/AOT_stimuli/rescaled_final/0012_fw.mp4	0.0	232.06643390655518	0.1000661849975586
43	204.37206315994263	fix_pre	0		120	41.0	2.5	/experiments/knapen_AOT/AOT_stimuli/rescaled_final/1379_fw.mp4	0.0	232.16650009155273	1.0001368522644043
43	204.95572209358215	pulse	0	t		41.0	2.5	/experiments/knapen_AOT/AOT_stimuli/rescaled_final/1379_fw.mp4	0.0	232.75015902519226	
43	205.37220001220703	movie	1		245	41.0	2.5	/experiments/knapen_AOT/AOT_stimuli/rescaled_final/1379_fw.mp4	0.0	233.16663694381714	2.500375986099243
43	206.55590200424194	pulse	1	t		41.0	2.5	/experiments/knapen_AOT/AOT_stimuli/rescaled_final/1379_fw.mp4	0.0	234.35033893585205	
43	207.87257599830627	fix_post	2		12	41.0	2.5	/experiments/knapen_AOT/AOT_stimuli/rescaled_final/1379_fw.mp4	0.0	235.66701292991638	0.10000300407409668
44	207.97257900238037	fix_pre	0		120	42.0	2.5	blank	1.0	235.76701593399048	1.0001161098480225
44	208.15609407424927	pulse	0	t		42.0	2.5	blank	1.0	235.95053100585938	
44	208.9726951122284	movie	1		300	42.0	2.5	blank	1.0	236.7671320438385	2.500438928604126
44	209.7563180923462	pulse	1	t		42.0	2.5	blank	1.0	237.5507550239563	
44	211.35671305656433	pulse	1	t		42.0	2.5	blank	1.0	239.15114998817444	
44	211.47313404083252	fix_post	2		12	42.0	2.5	blank	1.0	239.26757097244263	0.09997010231018066
45	211.5731041431427	fix_pre	0		120	43.0	2.5	/experiments/knapen_AOT/AOT_stimuli/rescaled_final/1204_rv.mp4	0.0	239.3675410747528	1.0001540184020996
45	212.5732581615448	movie	1		243	43.0	2.5	/experiments/knapen_AOT/AOT_stimuli/rescaled_final/1204_rv.mp4	0.0	240.3676950931549	2.492013931274414
45	212.95719695091248	pulse	1	t		43.0	2.5	/experiments/knapen_AOT/AOT_stimuli/rescaled_final/1204_rv.mp4	0.0	240.75163388252258	
45	214.55702805519104	pulse	1	t		43.0	2.5	/experiments/knapen_AOT/AOT_stimuli/rescaled_final/1204_rv.mp4	0.0	242.35146498680115	
45	215.0652720928192	fix_post	2		12	43.0	2.5	/experiments/knapen_AOT/AOT_stimuli/rescaled_final/1204_rv.mp4	0.0	242.85970902442932	0.10003805160522461
46	215.16531014442444	fix_pre	0		120	44.0	2.5	/experiments/knapen_AOT/AOT_stimuli/rescaled_final/0344_fw.mp4	0.0	242.95974707603455	1.0001838207244873
46	216.15739703178406	pulse	0	t		44.0	2.5	/experiments/knapen_AOT/AOT_stimuli/rescaled_final/0344_fw.mp4	0.0	243.95183396339417	
46	216.16549396514893	movie	1		245	44.0	2.5	/experiments/knapen_AOT/AOT_stimuli/rescaled_final/0344_fw.mp4	0.0	243.95993089675903	2.5087380409240723
46	217.7582070827484	pulse	1	t		44.0	2.5	/experiments/knapen_AOT/AOT_stimuli/rescaled_final/0344_fw.mp4	0.0	245.55264401435852	
46	218.674232006073	fix_post	2		12	44.0	2.5	/experiments/knapen_AOT/AOT_stimuli/rescaled_final/0344_fw.mp4	0.0	246.4686689376831	0.10000896453857422
47	218.77424097061157	fix_pre	0		120	45.0	2.5	/experiments/knapen_AOT/AOT_stimuli/rescaled_final/0987_fw.mp4	0.0	246.56867790222168	1.0001370906829834
47	219.35784196853638	pulse	0	t		45.0	2.5	/experiments/knapen_AOT/AOT_stimuli/rescaled_final/0987_fw.mp4	0.0	247.15227890014648	
47	219.77437806129456	movie	1		244	45.0	2.5	/experiments/knapen_AOT/AOT_stimuli/rescaled_final/0987_fw.mp4	0.0	247.56881499290466	2.5003130435943604
47	220.95806908607483	pulse	1	t		45.0	2.5	/experiments/knapen_AOT/AOT_stimuli/rescaled_final/0987_fw.mp4	0.0	248.75250601768494	
47	222.27469110488892	fix_post	2		12	45.0	2.5	/experiments/knapen_AOT/AOT_stimuli/rescaled_final/0987_fw.mp4	0.0	250.06912803649902	0.10000085830688477
48	222.3746919631958	fix_pre	0		120	46.0	2.5	/experiments/knapen_AOT/AOT_stimuli/rescaled_final/1899_fw.mp4	0.0	250.1691288948059	1.000176191329956
48	222.5583620071411	pulse	0	t		46.0	2.5	/experiments/knapen_AOT/AOT_stimuli/rescaled_final/1899_fw.mp4	0.0	250.35279893875122	
48	223.37486815452576	movie	1		244	46.0	2.5	/experiments/knapen_AOT/AOT_stimuli/rescaled_final/1899_fw.mp4	0.0	251.16930508613586	2.5003769397735596
48	224.1584711074829	pulse	1	t		46.0	2.5	/experiments/knapen_AOT/AOT_stimuli/rescaled_final/1899_fw.mp4	0.0	251.95290803909302	
48	225.75886511802673	pulse	1	t		46.0	2.5	/experiments/knapen_AOT/AOT_stimuli/rescaled_final/1899_fw.mp4	0.0	253.55330204963684	
48	225.87524509429932	fix_post	2		12	46.0	2.5	/experiments/knapen_AOT/AOT_stimuli/rescaled_final/1899_fw.mp4	0.0	253.66968202590942	0.10003304481506348
49	225.97527813911438	fix_pre	0		120	47.0	2.5	blank	1.0	253.7697150707245	1.000105857849121
49	226.9753839969635	movie	1		299	47.0	2.5	blank	1.0	254.7698209285736	2.4920361042022705
49	227.35896015167236	pulse	1	t		47.0	2.5	blank	1.0	255.15339708328247	
49	228.95924401283264	pulse	1	t		47.0	2.5	blank	1.0	256.75368094444275	
49	229.46742010116577	fix_post	2		12	47.0	2.5	blank	1.0	257.2618570327759	0.10009002685546875
50	229.56751012802124	fix_pre	0		120	48.0	2.5	/experiments/knapen_AOT/AOT_stimuli/rescaled_final/1614_fw.mp4	0.0	257.36194705963135	1.0000808238983154
50	230.55966114997864	pulse	0	t		48.0	2.5	/experiments/knapen_AOT/AOT_stimuli/rescaled_final/1614_fw.mp4	0.0	258.35409808158875	
50	230.56759095191956	movie	1		245	48.0	2.5	/experiments/knapen_AOT/AOT_stimuli/rescaled_final/1614_fw.mp4	0.0	258.36202788352966	2.5087671279907227
50	232.1601209640503	pulse	1	t		48.0	2.5	/experiments/knapen_AOT/AOT_stimuli/rescaled_final/1614_fw.mp4	0.0	259.9545578956604	
50	233.07635807991028	fix_post	2		12	48.0	2.5	/experiments/knapen_AOT/AOT_stimuli/rescaled_final/1614_fw.mp4	0.0	260.8707950115204	0.1000680923461914
51	233.17642617225647	fix_pre	0		120	49.0	2.5	/experiments/knapen_AOT/AOT_stimuli/rescaled_final/1393_fw.mp4	0.0	260.9708631038666	1.0000629425048828
51	233.75987815856934	pulse	0	t		49.0	2.5	/experiments/knapen_AOT/AOT_stimuli/rescaled_final/1393_fw.mp4	0.0	261.55431509017944	
51	234.17648911476135	movie	1		245	49.0	2.5	/experiments/knapen_AOT/AOT_stimuli/rescaled_final/1393_fw.mp4	0.0	261.97092604637146	2.500337839126587
51	235.36029314994812	pulse	1	t		49.0	2.5	/experiments/knapen_AOT/AOT_stimuli/rescaled_final/1393_fw.mp4	0.0	263.1547300815582	
51	236.67682695388794	fix_post	2		12	49.0	2.5	/experiments/knapen_AOT/AOT_stimuli/rescaled_final/1393_fw.mp4	0.0	264.47126388549805	0.10002923011779785
52	236.77685618400574	fix_pre	0		120	50.0	2.5	/experiments/knapen_AOT/AOT_stimuli/rescaled_final/1175_rv.mp4	0.0	264.57129311561584	1.0001659393310547
52	236.960529088974	pulse	0	t		50.0	2.5	/experiments/knapen_AOT/AOT_stimuli/rescaled_final/1175_rv.mp4	0.0	264.7549660205841	
52	237.7770221233368	movie	1		244	50.0	2.5	/experiments/knapen_AOT/AOT_stimuli/rescaled_final/1175_rv.mp4	0.0	265.5714590549469	2.500361919403076
52	238.56076312065125	pulse	1	t		50.0	2.5	/experiments/knapen_AOT/AOT_stimuli/rescaled_final/1175_rv.mp4	0.0	266.35520005226135	
52	240.15849995613098	pulse	1	t		50.0	2.5	/experiments/knapen_AOT/AOT_stimuli/rescaled_final/1175_rv.mp4	0.0	267.9529368877411	
52	240.27738404273987	fix_post	2		12	50.0	2.5	/experiments/knapen_AOT/AOT_stimuli/rescaled_final/1175_rv.mp4	0.0	268.07182097435	0.10005807876586914
53	240.37744212150574	fix_pre	0		120	51.0	2.5	/experiments/knapen_AOT/AOT_stimuli/rescaled_final/0552_fw.mp4	0.0	268.17187905311584	1.0001468658447266
53	241.37758898735046	movie	1		240	51.0	2.5	/experiments/knapen_AOT/AOT_stimuli/rescaled_final/0552_fw.mp4	0.0	269.17202591896057	2.4921321868896484
53	241.76546597480774	pulse	1	t		51.0	2.5	/experiments/knapen_AOT/AOT_stimuli/rescaled_final/0552_fw.mp4	0.0	269.55990290641785	
53	243.35398411750793	pulse	1	t		51.0	2.5	/experiments/knapen_AOT/AOT_stimuli/rescaled_final/0552_fw.mp4	0.0	271.14842104911804	
53	243.8697211742401	fix_post	2		12	51.0	2.5	/experiments/knapen_AOT/AOT_stimuli/rescaled_final/0552_fw.mp4	0.0	271.6641581058502	0.09988284111022949
54	243.96960401535034	fix_pre	0		120	52.0	2.5	/experiments/knapen_AOT/AOT_stimuli/rescaled_final/1196_fw.mp4	0.0	271.76404094696045	1.0001330375671387
54	244.95411610603333	pulse	0	t		52.0	2.5	/experiments/knapen_AOT/AOT_stimuli/rescaled_final/1196_fw.mp4	0.0	272.74855303764343	
54	244.96973705291748	movie	1		246	52.0	2.5	/experiments/knapen_AOT/AOT_stimuli/rescaled_final/1196_fw.mp4	0.0	272.7641739845276	2.5087060928344727
54	246.56287813186646	pulse	1	t		52.0	2.5	/experiments/knapen_AOT/AOT_stimuli/rescaled_final/1196_fw.mp4	0.0	274.35731506347656	
54	247.47844314575195	fix_post	2		12	52.0	2.5	/experiments/knapen_AOT/AOT_stimuli/rescaled_final/1196_fw.mp4	0.0	275.27288007736206	0.10000801086425781
55	247.5784511566162	fix_pre	0		120	53.0	2.5	/experiments/knapen_AOT/AOT_stimuli/rescaled_final/1687_rv.mp4	0.0	275.3728880882263	1.0002038478851318
55	248.15465903282166	pulse	0	t		53.0	2.5	/experiments/knapen_AOT/AOT_stimuli/rescaled_final/1687_rv.mp4	0.0	275.94909596443176	
55	248.57865500450134	movie	1		245	53.0	2.5	/experiments/knapen_AOT/AOT_stimuli/rescaled_final/1687_rv.mp4	0.0	276.37309193611145	2.5003390312194824
55	249.75470900535583	pulse	1	t		53.0	2.5	/experiments/knapen_AOT/AOT_stimuli/rescaled_final/1687_rv.mp4	0.0	277.54914593696594	
55	251.07899403572083	fix_post	2		12	53.0	2.5	/experiments/knapen_AOT/AOT_stimuli/rescaled_final/1687_rv.mp4	0.0	278.87343096733093	0.1000361442565918
56	251.17903017997742	fix_pre	0		120	54.0	2.5	/experiments/knapen_AOT/AOT_stimuli/rescaled_final/0356_rv.mp4	0.0	278.9734671115875	1.000114917755127
56	251.3541750907898	pulse	0	t		54.0	2.5	/experiments/knapen_AOT/AOT_stimuli/rescaled_final/0356_rv.mp4	0.0	279.1486120223999	
56	252.17914509773254	movie	1		243	54.0	2.5	/experiments/knapen_AOT/AOT_stimuli/rescaled_final/0356_rv.mp4	0.0	279.97358202934265	2.5004379749298096
56	252.95445203781128	pulse	1	t		54.0	2.5	/experiments/knapen_AOT/AOT_stimuli/rescaled_final/0356_rv.mp4	0.0	280.7488889694214	
56	254.55470514297485	pulse	1	t		54.0	2.5	/experiments/knapen_AOT/AOT_stimuli/rescaled_final/0356_rv.mp4	0.0	282.34914207458496	
56	254.67958307266235	fix_post	2		12	54.0	2.5	/experiments/knapen_AOT/AOT_stimuli/rescaled_final/0356_rv.mp4	0.0	282.47402000427246	0.10003399848937988
57	254.77961707115173	fix_pre	0		120	55.0	2.5	blank	1.0	282.57405400276184	1.0000860691070557
57	255.7797031402588	movie	1		299	55.0	2.5	blank	1.0	283.5741400718689	2.4920339584350586
57	256.1549491882324	pulse	1	t		55.0	2.5	blank	1.0	283.94938611984253	
57	257.75517416000366	pulse	1	t		55.0	2.5	blank	1.0	285.54961109161377	
57	258.27173709869385	fix_post	2		12	55.0	2.5	blank	1.0	286.06617403030396	0.09999990463256836
58	258.3717370033264	fix_pre	0		119	56.0	2.5	/experiments/knapen_AOT/AOT_stimuli/rescaled_final/0775_fw.mp4	0.0	286.1661739349365	0.9918720722198486
58	259.3554439544678	pulse	0	t		56.0	2.5	/experiments/knapen_AOT/AOT_stimuli/rescaled_final/0775_fw.mp4	0.0	287.1498808860779	
58	259.36360907554626	movie	1		246	56.0	2.5	/experiments/knapen_AOT/AOT_stimuli/rescaled_final/0775_fw.mp4	0.0	287.1580460071564	2.5086450576782227
58	260.956374168396	pulse	1	t		56.0	2.5	/experiments/knapen_AOT/AOT_stimuli/rescaled_final/0775_fw.mp4	0.0	288.7508111000061	
58	261.8722541332245	fix_post	2		12	56.0	2.5	/experiments/knapen_AOT/AOT_stimuli/rescaled_final/0775_fw.mp4	0.0	289.6666910648346	0.10003089904785156
59	261.97228503227234	fix_pre	0		120	57.0	2.5	/experiments/knapen_AOT/AOT_stimuli/rescaled_final/1317_rv.mp4	0.0	289.76672196388245	1.0001671314239502
59	262.5558891296387	pulse	0	t		57.0	2.5	/experiments/knapen_AOT/AOT_stimuli/rescaled_final/1317_rv.mp4	0.0	290.3503260612488	
59	262.9724521636963	movie	1		245	57.0	2.5	/experiments/knapen_AOT/AOT_stimuli/rescaled_final/1317_rv.mp4	0.0	290.7668890953064	2.5003468990325928
59	264.15622115135193	pulse	1	t		57.0	2.5	/experiments/knapen_AOT/AOT_stimuli/rescaled_final/1317_rv.mp4	0.0	291.95065808296204	
59	265.4727990627289	fix_post	2		12	57.0	2.5	/experiments/knapen_AOT/AOT_stimuli/rescaled_final/1317_rv.mp4	0.0	293.267235994339	0.10002899169921875
60	265.5728280544281	fix_pre	0		120	58.0	2.5	/experiments/knapen_AOT/AOT_stimuli/rescaled_final/0602_fw.mp4	0.0	293.3672649860382	1.0001499652862549
60	265.7563669681549	pulse	0	t		58.0	2.5	/experiments/knapen_AOT/AOT_stimuli/rescaled_final/0602_fw.mp4	0.0	293.550803899765	
60	266.57297801971436	movie	1		245	58.0	2.5	/experiments/knapen_AOT/AOT_stimuli/rescaled_final/0602_fw.mp4	0.0	294.36741495132446	2.5003981590270996
60	267.3566851615906	pulse	1	t		58.0	2.5	/experiments/knapen_AOT/AOT_stimuli/rescaled_final/0602_fw.mp4	0.0	295.1511220932007	
60	268.95687317848206	pulse	1	t		58.0	2.5	/experiments/knapen_AOT/AOT_stimuli/rescaled_final/0602_fw.mp4	0.0	296.75131011009216	
60	269.07337617874146	fix_post	2		12	58.0	2.5	/experiments/knapen_AOT/AOT_stimuli/rescaled_final/0602_fw.mp4	0.0	296.86781311035156	0.09998393058776855
61	269.1733601093292	fix_pre	0		120	59.0	2.5	/experiments/knapen_AOT/AOT_stimuli/rescaled_final/1402_fw.mp4	0.0	296.96779704093933	1.0001380443572998
61	270.1734981536865	movie	1		243	59.0	2.5	/experiments/knapen_AOT/AOT_stimuli/rescaled_final/1402_fw.mp4	0.0	297.96793508529663	2.492055892944336
61	270.5577371120453	pulse	1	t		59.0	2.5	/experiments/knapen_AOT/AOT_stimuli/rescaled_final/1402_fw.mp4	0.0	298.3521740436554	
61	272.15746808052063	pulse	1	t		59.0	2.5	/experiments/knapen_AOT/AOT_stimuli/rescaled_final/1402_fw.mp4	0.0	299.95190501213074	
61	272.66555404663086	fix_post	2		12	59.0	2.5	/experiments/knapen_AOT/AOT_stimuli/rescaled_final/1402_fw.mp4	0.0	300.45999097824097	0.10003805160522461
62	272.7655920982361	fix_pre	0		120	60.0	2.5	/experiments/knapen_AOT/AOT_stimuli/rescaled_final/0614_rv.mp4	0.0	300.5600290298462	1.0001270771026611
62	273.7575340270996	pulse	0	t		60.0	2.5	/experiments/knapen_AOT/AOT_stimuli/rescaled_final/0614_rv.mp4	0.0	301.5519709587097	
62	273.76571917533875	movie	1		246	60.0	2.5	/experiments/knapen_AOT/AOT_stimuli/rescaled_final/0614_rv.mp4	0.0	301.56015610694885	2.508720874786377
62	275.3587200641632	pulse	1	t		60.0	2.5	/experiments/knapen_AOT/AOT_stimuli/rescaled_final/0614_rv.mp4	0.0	303.1531569957733	
62	276.2744400501251	fix_post	2		12	60.0	2.5	/experiments/knapen_AOT/AOT_stimuli/rescaled_final/0614_rv.mp4	0.0	304.06887698173523	0.10002493858337402
63	276.3744649887085	fix_pre	0		120	61.0	2.5	blank	1.0	304.1689019203186	1.0001311302185059
63	276.9580490589142	pulse	0	t		61.0	2.5	blank	1.0	304.7524859905243	
63	277.374596118927	movie	1		300	61.0	2.5	blank	1.0	305.1690330505371	2.500377893447876
63	278.55837202072144	pulse	1	t		61.0	2.5	blank	1.0	306.35280895233154	
63	279.8749740123749	fix_post	2		12	61.0	2.5	blank	1.0	307.669410943985	0.10008001327514648
64	279.97505402565	fix_pre	0		120	62.0	2.5	/experiments/knapen_AOT/AOT_stimuli/rescaled_final/2035_fw.mp4	0.0	307.76949095726013	1.0000841617584229
64	280.1585659980774	pulse	0	t		62.0	2.5	/experiments/knapen_AOT/AOT_stimuli/rescaled_final/2035_fw.mp4	0.0	307.9530029296875	
64	280.97513818740845	movie	1		244	62.0	2.5	/experiments/knapen_AOT/AOT_stimuli/rescaled_final/2035_fw.mp4	0.0	308.76957511901855	2.500351905822754
64	281.75878715515137	pulse	1	t		62.0	2.5	/experiments/knapen_AOT/AOT_stimuli/rescaled_final/2035_fw.mp4	0.0	309.5532240867615	
64	283.35885095596313	pulse	1	t		62.0	2.5	/experiments/knapen_AOT/AOT_stimuli/rescaled_final/2035_fw.mp4	0.0	311.15328788757324	
64	283.4754900932312	fix_post	2		12	62.0	2.5	/experiments/knapen_AOT/AOT_stimuli/rescaled_final/2035_fw.mp4	0.0	311.2699270248413	0.10001587867736816
65	283.57550597190857	fix_pre	0		120	63.0	2.5	/experiments/knapen_AOT/AOT_stimuli/rescaled_final/0400_fw.mp4	0.0	311.3699429035187	1.0001740455627441
65	284.5756800174713	movie	1		244	63.0	2.5	/experiments/knapen_AOT/AOT_stimuli/rescaled_final/0400_fw.mp4	0.0	312.3701169490814	2.4920010566711426
65	284.9599640369415	pulse	1	t		63.0	2.5	/experiments/knapen_AOT/AOT_stimuli/rescaled_final/0400_fw.mp4	0.0	312.75440096855164	
65	286.559602022171	pulse	1	t		63.0	2.5	/experiments/knapen_AOT/AOT_stimuli/rescaled_final/0400_fw.mp4	0.0	314.3540389537811	
65	287.06768107414246	fix_post	2		12	63.0	2.5	/experiments/knapen_AOT/AOT_stimuli/rescaled_final/0400_fw.mp4	0.0	314.86211800575256	0.10004806518554688
66	287.167729139328	fix_pre	0		120	64.0	2.5	/experiments/knapen_AOT/AOT_stimuli/rescaled_final/1964_rv.mp4	0.0	314.9621660709381	1.000169038772583
66	288.159716129303	pulse	0	t		64.0	2.5	/experiments/knapen_AOT/AOT_stimuli/rescaled_final/1964_rv.mp4	0.0	315.9541530609131	
66	288.1678981781006	movie	1		246	64.0	2.5	/experiments/knapen_AOT/AOT_stimuli/rescaled_final/1964_rv.mp4	0.0	315.9623351097107	2.5086867809295654
66	289.7605299949646	pulse	1	t		64.0	2.5	/experiments/knapen_AOT/AOT_stimuli/rescaled_final/1964_rv.mp4	0.0	317.5549669265747	
66	290.67658495903015	fix_post	2		12	64.0	2.5	/experiments/knapen_AOT/AOT_stimuli/rescaled_final/1964_rv.mp4	0.0	318.47102189064026	0.10004305839538574
67	290.77662801742554	fix_pre	0		120	65.0	2.5	/experiments/knapen_AOT/AOT_stimuli/rescaled_final/2117_fw.mp4	0.0	318.57106494903564	1.0001111030578613
67	291.3602440357208	pulse	0	t		65.0	2.5	/experiments/knapen_AOT/AOT_stimuli/rescaled_final/2117_fw.mp4	0.0	319.15468096733093	
67	291.7767391204834	movie	1		246	65.0	2.5	/experiments/knapen_AOT/AOT_stimuli/rescaled_final/2117_fw.mp4	0.0	319.5711760520935	2.500393867492676
67	292.9605951309204	pulse	1	t		65.0	2.5	/experiments/knapen_AOT/AOT_stimuli/rescaled_final/2117_fw.mp4	0.0	320.7550320625305	
67	294.2771329879761	fix_post	2		12	65.0	2.5	/experiments/knapen_AOT/AOT_stimuli/rescaled_final/2117_fw.mp4	0.0	322.0715699195862	0.10002398490905762
68	294.37715697288513	fix_pre	0		120	66.0	2.5	/experiments/knapen_AOT/AOT_stimuli/rescaled_final/2057_fw.mp4	0.0	322.17159390449524	1.0001370906829834
68	294.5607190132141	pulse	0	t		66.0	2.5	/experiments/knapen_AOT/AOT_stimuli/rescaled_final/2057_fw.mp4	0.0	322.3551559448242	
68	295.3772940635681	movie	1		243	66.0	2.5	/experiments/knapen_AOT/AOT_stimuli/rescaled_final/2057_fw.mp4	0.0	323.1717309951782	2.5003530979156494
68	296.16087198257446	pulse	1	t		66.0	2.5	/experiments/knapen_AOT/AOT_stimuli/rescaled_final/2057_fw.mp4	0.0	323.95530891418457	
68	297.760929107666	pulse	1	t		66.0	2.5	/experiments/knapen_AOT/AOT_stimuli/rescaled_final/2057_fw.mp4	0.0	325.5553660392761	
68	297.87764716148376	fix_post	2		12	66.0	2.5	/experiments/knapen_AOT/AOT_stimuli/rescaled_final/2057_fw.mp4	0.0	325.6720840930939	0.10002779960632324
69	297.9776749610901	fix_pre	0		119	67.0	2.5	/experiments/knapen_AOT/AOT_stimuli/rescaled_final/2072_rv.mp4	0.0	325.7721118927002	0.9918441772460938
69	298.9695191383362	movie	1		244	67.0	2.5	/experiments/knapen_AOT/AOT_stimuli/rescaled_final/2072_rv.mp4	0.0	326.7639560699463	2.5003199577331543
69	299.35734605789185	pulse	1	t		67.0	2.5	/experiments/knapen_AOT/AOT_stimuli/rescaled_final/2072_rv.mp4	0.0	327.15178298950195	
69	300.9616961479187	pulse	1	t		67.0	2.5	/experiments/knapen_AOT/AOT_stimuli/rescaled_final/2072_rv.mp4	0.0	328.7561330795288	
69	301.46983909606934	fix_post	2		12	67.0	2.5	/experiments/knapen_AOT/AOT_stimuli/rescaled_final/2072_rv.mp4	0.0	329.26427602767944	0.10006904602050781
70	301.56990814208984	fix_pre	0		117	68.0	2.5	/experiments/knapen_AOT/AOT_stimuli/rescaled_final/0315_fw.mp4	0.0	329.36434507369995	1.0001578330993652
70	302.56185698509216	pulse	0	t		68.0	2.5	/experiments/knapen_AOT/AOT_stimuli/rescaled_final/0315_fw.mp4	0.0	330.35629391670227	
70	302.5700659751892	movie	1		246	68.0	2.5	/experiments/knapen_AOT/AOT_stimuli/rescaled_final/0315_fw.mp4	0.0	330.3645029067993	2.5086569786071777
70	304.16266798973083	pulse	1	t		68.0	2.5	/experiments/knapen_AOT/AOT_stimuli/rescaled_final/0315_fw.mp4	0.0	331.95710492134094	
70	305.0787229537964	fix_post	2		12	68.0	2.5	/experiments/knapen_AOT/AOT_stimuli/rescaled_final/0315_fw.mp4	0.0	332.8731598854065	0.100006103515625
71	305.178729057312	fix_pre	0		120	69.0	2.5	/experiments/knapen_AOT/AOT_stimuli/rescaled_final/0927_fw.mp4	0.0	332.9731659889221	1.000157117843628
71	305.75476813316345	pulse	0	t		69.0	2.5	/experiments/knapen_AOT/AOT_stimuli/rescaled_final/0927_fw.mp4	0.0	333.54920506477356	
71	306.17888617515564	movie	1		243	69.0	2.5	/experiments/knapen_AOT/AOT_stimuli/rescaled_final/0927_fw.mp4	0.0	333.97332310676575	2.50050687789917
71	307.3554241657257	pulse	1	t		69.0	2.5	/experiments/knapen_AOT/AOT_stimuli/rescaled_final/0927_fw.mp4	0.0	335.1498610973358	
71	308.6793930530548	fix_post	2		12	69.0	2.5	/experiments/knapen_AOT/AOT_stimuli/rescaled_final/0927_fw.mp4	0.0	336.4738299846649	0.09990811347961426
72	308.7793011665344	fix_pre	0		120	70.0	2.5	blank	1.0	336.57373809814453	1.000121831893921
72	308.9554240703583	pulse	0	t		70.0	2.5	blank	1.0	336.7498610019684	
72	309.77942299842834	movie	1		300	70.0	2.5	blank	1.0	337.57385993003845	2.500370979309082
72	310.555547952652	pulse	1	t		70.0	2.5	blank	1.0	338.3499848842621	
72	312.15488600730896	pulse	1	t		70.0	2.5	blank	1.0	339.94932293891907	
72	312.2797939777374	fix_post	2		12	70.0	2.5	blank	1.0	340.07423090934753	0.10001420974731445
73	312.37980818748474	fix_pre	0		119	71.0	2.5	/experiments/knapen_AOT/AOT_stimuli/rescaled_final/0957_fw.mp4	0.0	340.17424511909485	0.9918339252471924
73	313.37164211273193	movie	1		243	71.0	2.5	/experiments/knapen_AOT/AOT_stimuli/rescaled_final/0957_fw.mp4	0.0	341.16607904434204	2.5003559589385986
73	313.7560889720917	pulse	1	t		71.0	2.5	/experiments/knapen_AOT/AOT_stimuli/rescaled_final/0957_fw.mp4	0.0	341.5505259037018	
73	315.35544514656067	pulse	1	t		71.0	2.5	/experiments/knapen_AOT/AOT_stimuli/rescaled_final/0957_fw.mp4	0.0	343.1498820781708	
73	315.87199807167053	fix_post	2		12	71.0	2.5	/experiments/knapen_AOT/AOT_stimuli/rescaled_final/0957_fw.mp4	0.0	343.66643500328064	0.10009908676147461
74	315.972097158432	fix_pre	0		119	72.0	2.5	/experiments/knapen_AOT/AOT_stimuli/rescaled_final/1655_rv.mp4	0.0	343.7665340900421	0.9917459487915039
74	316.9557511806488	pulse	0	t		72.0	2.5	/experiments/knapen_AOT/AOT_stimuli/rescaled_final/1655_rv.mp4	0.0	344.7501881122589	
74	316.9638431072235	movie	1		245	72.0	2.5	/experiments/knapen_AOT/AOT_stimuli/rescaled_final/1655_rv.mp4	0.0	344.7582800388336	2.508702039718628
74	318.5564980506897	pulse	1	t		72.0	2.5	/experiments/knapen_AOT/AOT_stimuli/rescaled_final/1655_rv.mp4	0.0	346.3509349822998	
74	319.47254514694214	fix_post	2		12	72.0	2.5	/experiments/knapen_AOT/AOT_stimuli/rescaled_final/1655_rv.mp4	0.0	347.26698207855225	0.10003399848937988
75	319.5725791454315	fix_pre	0		120	73.0	2.5	/experiments/knapen_AOT/AOT_stimuli/rescaled_final/2160_fw.mp4	0.0	347.3670160770416	1.0001249313354492
75	320.15623211860657	pulse	0	t		73.0	2.5	/experiments/knapen_AOT/AOT_stimuli/rescaled_final/2160_fw.mp4	0.0	347.9506690502167	
75	320.57270407676697	movie	1		245	73.0	2.5	/experiments/knapen_AOT/AOT_stimuli/rescaled_final/2160_fw.mp4	0.0	348.3671410083771	2.500391960144043
75	321.75645899772644	pulse	1	t		73.0	2.5	/experiments/knapen_AOT/AOT_stimuli/rescaled_final/2160_fw.mp4	0.0	349.55089592933655	
75	323.073096036911	fix_post	2		12	73.0	2.5	/experiments/knapen_AOT/AOT_stimuli/rescaled_final/2160_fw.mp4	0.0	350.8675329685211	0.10006308555603027
76	323.17315912246704	fix_pre	0		120	74.0	2.5	/experiments/knapen_AOT/AOT_stimuli/rescaled_final/0277_rv.mp4	0.0	350.96759605407715	1.0000569820404053
76	323.3566210269928	pulse	0	t		74.0	2.5	/experiments/knapen_AOT/AOT_stimuli/rescaled_final/0277_rv.mp4	0.0	351.1510579586029	
76	324.17321610450745	movie	1		244	74.0	2.5	/experiments/knapen_AOT/AOT_stimuli/rescaled_final/0277_rv.mp4	0.0	351.96765303611755	2.5003788471221924
76	324.95688915252686	pulse	1	t		74.0	2.5	/experiments/knapen_AOT/AOT_stimuli/rescaled_final/0277_rv.mp4	0.0	352.75132608413696	
76	326.5571639537811	pulse	1	t		74.0	2.5	/experiments/knapen_AOT/AOT_stimuli/rescaled_final/0277_rv.mp4	0.0	354.35160088539124	
76	326.67359495162964	fix_post	2		12	74.0	2.5	/experiments/knapen_AOT/AOT_stimuli/rescaled_final/0277_rv.mp4	0.0	354.46803188323975	0.10010910034179688
77	326.77370405197144	fix_pre	0		120	75.0	2.5	blank	1.0	354.56814098358154	1.0000710487365723
77	327.773775100708	movie	1		299	75.0	2.5	blank	1.0	355.5682120323181	2.4920339584350586
77	328.1574401855469	pulse	1	t		75.0	2.5	blank	1.0	355.951877117157	
77	329.7575840950012	pulse	1	t		75.0	2.5	blank	1.0	357.5520210266113	
77	330.26580905914307	fix_post	2		12	75.0	2.5	blank	1.0	358.0602459907532	0.10003495216369629
78	330.36584401130676	fix_pre	0		120	76.0	2.5	/experiments/knapen_AOT/AOT_stimuli/rescaled_final/0621_fw.mp4	0.0	358.16028094291687	1.0001540184020996
78	331.3578779697418	pulse	0	t		76.0	2.5	/experiments/knapen_AOT/AOT_stimuli/rescaled_final/0621_fw.mp4	0.0	359.15231490135193	
78	331.36599802970886	movie	1		245	76.0	2.5	/experiments/knapen_AOT/AOT_stimuli/rescaled_final/0621_fw.mp4	0.0	359.16043496131897	2.508690118789673
78	332.9585590362549	pulse	1	t		76.0	2.5	/experiments/knapen_AOT/AOT_stimuli/rescaled_final/0621_fw.mp4	0.0	360.752995967865	
78	333.87468814849854	fix_post	2		12	76.0	2.5	/experiments/knapen_AOT/AOT_stimuli/rescaled_final/0621_fw.mp4	0.0	361.66912508010864	0.10004281997680664
79	333.97473096847534	fix_pre	0		120	77.0	2.5	/experiments/knapen_AOT/AOT_stimuli/rescaled_final/1340_rv.mp4	0.0	361.76916790008545	1.000157117843628
79	334.5583350658417	pulse	0	t		77.0	2.5	/experiments/knapen_AOT/AOT_stimuli/rescaled_final/1340_rv.mp4	0.0	362.3527719974518	
79	334.97488808631897	movie	1		243	77.0	2.5	/experiments/knapen_AOT/AOT_stimuli/rescaled_final/1340_rv.mp4	0.0	362.7693250179291	2.5003609657287598
79	336.15458703041077	pulse	1	t		77.0	2.5	/experiments/knapen_AOT/AOT_stimuli/rescaled_final/1340_rv.mp4	0.0	363.9490239620209	
79	337.47524905204773	fix_post	2		12	77.0	2.5	/experiments/knapen_AOT/AOT_stimuli/rescaled_final/1340_rv.mp4	0.0	365.26968598365784	0.09999299049377441
80	337.5752420425415	fix_pre	0		120	78.0	2.5	/experiments/knapen_AOT/AOT_stimuli/rescaled_final/0300_fw.mp4	0.0	365.3696789741516	1.0001659393310547
80	337.7588291168213	pulse	0	t		78.0	2.5	/experiments/knapen_AOT/AOT_stimuli/rescaled_final/0300_fw.mp4	0.0	365.5532660484314	
80	338.57540798187256	movie	1		245	78.0	2.5	/experiments/knapen_AOT/AOT_stimuli/rescaled_final/0300_fw.mp4	0.0	366.36984491348267	2.5003530979156494
80	339.35899209976196	pulse	1	t		78.0	2.5	/experiments/knapen_AOT/AOT_stimuli/rescaled_final/0300_fw.mp4	0.0	367.15342903137207	
80	340.95671916007996	pulse	1	t		78.0	2.5	/experiments/knapen_AOT/AOT_stimuli/rescaled_final/0300_fw.mp4	0.0	368.75115609169006	
80	341.0757610797882	fix_post	2		12	78.0	2.5	/experiments/knapen_AOT/AOT_stimuli/rescaled_final/0300_fw.mp4	0.0	368.8701980113983	0.10001897811889648
81	341.1757800579071	fix_pre	0		120	79.0	2.5	/experiments/knapen_AOT/AOT_stimuli/rescaled_final/1204_fw.mp4	0.0	368.9702169895172	1.0001120567321777
81	342.1758921146393	movie	1		243	79.0	2.5	/experiments/knapen_AOT/AOT_stimuli/rescaled_final/1204_fw.mp4	0.0	369.9703290462494	2.4920949935913086
81	342.56022596359253	pulse	1	t		79.0	2.5	/experiments/knapen_AOT/AOT_stimuli/rescaled_final/1204_fw.mp4	0.0	370.35466289520264	
81	344.1598210334778	pulse	1	t		79.0	2.5	/experiments/knapen_AOT/AOT_stimuli/rescaled_final/1204_fw.mp4	0.0	371.9542579650879	
81	344.6679871082306	fix_post	2		12	79.0	2.5	/experiments/knapen_AOT/AOT_stimuli/rescaled_final/1204_fw.mp4	0.0	372.4624240398407	0.10002303123474121
82	344.76801013946533	fix_pre	0		120	80.0	2.5	/experiments/knapen_AOT/AOT_stimuli/rescaled_final/1340_rv.mp4	0.0	372.56244707107544	1.000135898590088
82	345.75997710227966	pulse	0	t		80.0	2.5	/experiments/knapen_AOT/AOT_stimuli/rescaled_final/1340_rv.mp4	0.0	373.55441403388977	
82	345.7681460380554	movie	1		244	80.0	2.5	/experiments/knapen_AOT/AOT_stimuli/rescaled_final/1340_rv.mp4	0.0	373.5625829696655	2.508697032928467
82	347.3614640235901	pulse	1	t		80.0	2.5	/experiments/knapen_AOT/AOT_stimuli/rescaled_final/1340_rv.mp4	0.0	375.1559009552002	
82	348.2768430709839	fix_post	2		12	80.0	2.5	/experiments/knapen_AOT/AOT_stimuli/rescaled_final/1340_rv.mp4	0.0	376.071280002594	0.10000491142272949
83	348.3768479824066	fix_pre	0		120	81.0	2.5	/experiments/knapen_AOT/AOT_stimuli/rescaled_final/0751_rv.mp4	0.0	376.1712849140167	1.0002391338348389
83	348.9605040550232	pulse	0	t		81.0	2.5	/experiments/knapen_AOT/AOT_stimuli/rescaled_final/0751_rv.mp4	0.0	376.7549409866333	
83	349.37708711624146	movie	1		247	81.0	2.5	/experiments/knapen_AOT/AOT_stimuli/rescaled_final/0751_rv.mp4	0.0	377.17152404785156	2.500290870666504
83	350.5568401813507	pulse	1	t		81.0	2.5	/experiments/knapen_AOT/AOT_stimuli/rescaled_final/0751_rv.mp4	0.0	378.3512771129608	
83	351.87737798690796	fix_post	2		12	81.0	2.5	/experiments/knapen_AOT/AOT_stimuli/rescaled_final/0751_rv.mp4	0.0	379.67181491851807	0.10005402565002441
84	351.977432012558	fix_pre	0		120	82.0	2.5	/experiments/knapen_AOT/AOT_stimuli/rescaled_final/0950_fw.mp4	0.0	379.7718689441681	1.0001680850982666
84	352.16089606285095	pulse	0	t		82.0	2.5	/experiments/knapen_AOT/AOT_stimuli/rescaled_final/0950_fw.mp4	0.0	379.95533299446106	
84	352.97760009765625	movie	1		244	82.0	2.5	/experiments/knapen_AOT/AOT_stimuli/rescaled_final/0950_fw.mp4	0.0	380.77203702926636	2.5003209114074707
84	353.76120710372925	pulse	1	t		82.0	2.5	/experiments/knapen_AOT/AOT_stimuli/rescaled_final/0950_fw.mp4	0.0	381.55564403533936	
84	355.36135697364807	pulse	1	t		82.0	2.5	/experiments/knapen_AOT/AOT_stimuli/rescaled_final/0950_fw.mp4	0.0	383.1557939052582	
84	355.4779210090637	fix_post	2		12	82.0	2.5	/experiments/knapen_AOT/AOT_stimuli/rescaled_final/0950_fw.mp4	0.0	383.2723579406738	0.10000109672546387
85	355.5779221057892	fix_pre	0		120	83.0	2.5	blank	1.0	383.3723590373993	1.0001728534698486
85	356.57809495925903	movie	1		299	83.0	2.5	blank	1.0	384.37253189086914	2.4920730590820312
85	356.9617500305176	pulse	1	t		83.0	2.5	blank	1.0	384.7561869621277	
85	358.55432295799255	pulse	1	t		83.0	2.5	blank	1.0	386.34875988960266	
85	359.07016801834106	fix_post	2		12	83.0	2.5	blank	1.0	386.8646049499512	0.10002493858337402
87	359.17019295692444	stim	0		1716					386.96462988853455	14.30216121673584
87	360.15487003326416	pulse	0	t						387.94930696487427	
87	361.75493001937866	pulse	0	t						389.54936695098877	
87	363.3551940917969	pulse	0	t						391.149631023407	
87	364.95467615127563	pulse	0	t						392.74911308288574	
87	366.55469703674316	pulse	0	t						394.34913396835327	
87	368.154904127121	pulse	0	t						395.9493410587311	
87	369.75525403022766	pulse	0	t						397.54969096183777	
87	371.3554880619049	pulse	0	t						399.149924993515	
87	372.95569801330566	pulse	0	t						400.75013494491577	
