trial_nr	onset	event_type	phase	response	nr_frames	movie_index	movie_duration	movie_file	blank	onset_abs	duration
0	0.1665935516357422	stim	0		186					19.19670796394348	1.5499682426452637
0	1.708425760269165	response	0	space						20.738540172576904	
1	1.7165617942810059	stim	0		4459					20.746676206588745	37.172895193099976
1	38.87961149215698	pulse	0	t						57.90972590446472	
1	38.88945698738098	stim	1		1715					57.91957139968872	14.301716089248657
1	40.472636699676514	pulse	1	t						59.50275111198425	
1	42.07283043861389	pulse	1	t						61.10294485092163	
1	43.67314291000366	pulse	1	t						62.7032573223114	
1	45.27330946922302	pulse	1	t						64.30342388153076	
1	46.87384343147278	pulse	1	t						65.90395784378052	
1	48.473846673965454	pulse	1	t						67.5039610862732	
1	50.07404112815857	pulse	1	t						69.10415554046631	
1	51.67431974411011	pulse	1	t						70.70443415641785	
2	53.19117307662964	fix_pre	0		11	0.0	2.5	/experiments/Knapen_AOT/AOT_stimuli/rescaled_final/1977_fw.mp4	0.0	72.22128748893738	0.11663508415222168
2	53.27454161643982	pulse	0	t		0.0	2.5	/experiments/Knapen_AOT/AOT_stimuli/rescaled_final/1977_fw.mp4	0.0	72.30465602874756	
2	53.30780816078186	movie	1		286	0.0	2.5	/experiments/Knapen_AOT/AOT_stimuli/rescaled_final/1977_fw.mp4	0.0	72.3379225730896	2.4919567108154297
2	54.87320828437805	pulse	1	t		0.0	2.5	/experiments/Knapen_AOT/AOT_stimuli/rescaled_final/1977_fw.mp4	0.0	73.90332269668579	
2	55.79976487159729	fix_post	2		11	0.0	2.5	/experiments/Knapen_AOT/AOT_stimuli/rescaled_final/1977_fw.mp4	0.0	74.82987928390503	0.09173750877380371
3	55.891502380371094	fix_pre	0		120	1.0	2.5	/experiments/Knapen_AOT/AOT_stimuli/rescaled_final/0343_rv.mp4	0.0	74.92161679267883	1.008401870727539
3	56.47503900527954	pulse	0	t		1.0	2.5	/experiments/Knapen_AOT/AOT_stimuli/rescaled_final/0343_rv.mp4	0.0	75.50515341758728	
3	56.89990425109863	movie	1		275	1.0	2.5	/experiments/Knapen_AOT/AOT_stimuli/rescaled_final/0343_rv.mp4	0.0	75.93001866340637	2.4920265674591064
3	58.07445526123047	pulse	1	t		1.0	2.5	/experiments/Knapen_AOT/AOT_stimuli/rescaled_final/0343_rv.mp4	0.0	77.10456967353821	
3	59.39193081855774	fix_post	2		12	1.0	2.5	/experiments/Knapen_AOT/AOT_stimuli/rescaled_final/0343_rv.mp4	0.0	78.42204523086548	0.10001659393310547
4	59.491947412490845	fix_pre	0		120	2.0	2.5	/experiments/Knapen_AOT/AOT_stimuli/rescaled_final/1028_fw.mp4	0.0	78.52206182479858	1.008488416671753
4	59.67552614212036	pulse	0	t		2.0	2.5	/experiments/Knapen_AOT/AOT_stimuli/rescaled_final/1028_fw.mp4	0.0	78.7056405544281	
4	60.5004358291626	movie	1		285	2.0	2.5	/experiments/Knapen_AOT/AOT_stimuli/rescaled_final/1028_fw.mp4	0.0	79.53055024147034	2.4920246601104736
4	61.27491784095764	pulse	1	t		2.0	2.5	/experiments/Knapen_AOT/AOT_stimuli/rescaled_final/1028_fw.mp4	0.0	80.30503225326538	
4	62.87392282485962	pulse	1	t		2.0	2.5	/experiments/Knapen_AOT/AOT_stimuli/rescaled_final/1028_fw.mp4	0.0	81.90403723716736	
4	62.99246048927307	fix_post	2		12	2.0	2.5	/experiments/Knapen_AOT/AOT_stimuli/rescaled_final/1028_fw.mp4	0.0	82.02257490158081	0.10000920295715332
5	63.092469692230225	fix_pre	0		120	3.0	2.5	/experiments/Knapen_AOT/AOT_stimuli/rescaled_final/1088_fw.mp4	0.0	82.12258410453796	1.0085017681121826
5	64.10097146034241	movie	1		292	3.0	2.5	/experiments/Knapen_AOT/AOT_stimuli/rescaled_final/1088_fw.mp4	0.0	83.13108587265015	2.492034673690796
5	64.47478580474854	pulse	1	t		3.0	2.5	/experiments/Knapen_AOT/AOT_stimuli/rescaled_final/1088_fw.mp4	0.0	83.50490021705627	
5	66.0744936466217	pulse	1	t		3.0	2.5	/experiments/Knapen_AOT/AOT_stimuli/rescaled_final/1088_fw.mp4	0.0	85.10460805892944	
5	66.5930061340332	fix_post	2		12	3.0	2.5	/experiments/Knapen_AOT/AOT_stimuli/rescaled_final/1088_fw.mp4	0.0	85.62312054634094	0.10004568099975586
6	66.69305181503296	fix_pre	0		119	4.0	2.5	/experiments/Knapen_AOT/AOT_stimuli/rescaled_final/1203_fw.mp4	0.0	85.7231662273407	1.0085294246673584
6	67.67706418037415	pulse	0	t		4.0	2.5	/experiments/Knapen_AOT/AOT_stimuli/rescaled_final/1203_fw.mp4	0.0	86.70717859268188	
6	67.70158123970032	movie	1		279	4.0	2.5	/experiments/Knapen_AOT/AOT_stimuli/rescaled_final/1203_fw.mp4	0.0	86.73169565200806	2.4919822216033936
6	69.2756416797638	pulse	1	t		4.0	2.5	/experiments/Knapen_AOT/AOT_stimuli/rescaled_final/1203_fw.mp4	0.0	88.30575609207153	
6	70.19356346130371	fix_post	2		12	4.0	2.5	/experiments/Knapen_AOT/AOT_stimuli/rescaled_final/1203_fw.mp4	0.0	89.22367787361145	0.09998893737792969
7	70.29355239868164	fix_pre	0		120	5.0	2.5	blank	1.0	89.32366681098938	1.0001487731933594
7	70.86933445930481	pulse	0	t		5.0	2.5	blank	1.0	89.89944887161255	
7	71.293701171875	movie	1		300	5.0	2.5	blank	1.0	90.32381558418274	2.5003793239593506
7	72.46921467781067	pulse	1	t		5.0	2.5	blank	1.0	91.49932909011841	
7	73.79408049583435	fix_post	2		12	5.0	2.5	blank	1.0	92.82419490814209	0.10001850128173828
8	73.89409899711609	fix_pre	0		120	6.0	2.5	/experiments/Knapen_AOT/AOT_stimuli/rescaled_final/0230_fw.mp4	0.0	92.92421340942383	1.0085151195526123
8	74.06934762001038	pulse	0	t		6.0	2.5	/experiments/Knapen_AOT/AOT_stimuli/rescaled_final/0230_fw.mp4	0.0	93.09946203231812	
8	74.9026141166687	movie	1		285	6.0	2.5	/experiments/Knapen_AOT/AOT_stimuli/rescaled_final/0230_fw.mp4	0.0	93.93272852897644	2.4920523166656494
8	75.66964054107666	pulse	1	t		6.0	2.5	/experiments/Knapen_AOT/AOT_stimuli/rescaled_final/0230_fw.mp4	0.0	94.6997549533844	
8	77.26986503601074	pulse	1	t		6.0	2.5	/experiments/Knapen_AOT/AOT_stimuli/rescaled_final/0230_fw.mp4	0.0	96.29997944831848	
8	77.39466643333435	fix_post	2		12	6.0	2.5	/experiments/Knapen_AOT/AOT_stimuli/rescaled_final/0230_fw.mp4	0.0	96.42478084564209	0.10001778602600098
9	77.49468421936035	fix_pre	0		120	7.0	2.5	/experiments/Knapen_AOT/AOT_stimuli/rescaled_final/0652_rv.mp4	0.0	96.52479863166809	1.0084757804870605
9	78.50315999984741	movie	1		277	7.0	2.5	/experiments/Knapen_AOT/AOT_stimuli/rescaled_final/0652_rv.mp4	0.0	97.53327441215515	2.4920530319213867
9	78.86912059783936	pulse	1	t		7.0	2.5	/experiments/Knapen_AOT/AOT_stimuli/rescaled_final/0652_rv.mp4	0.0	97.8992350101471	
9	80.47030901908875	pulse	1	t		7.0	2.5	/experiments/Knapen_AOT/AOT_stimuli/rescaled_final/0652_rv.mp4	0.0	99.50042343139648	
9	80.9952130317688	fix_post	2		12	7.0	2.5	/experiments/Knapen_AOT/AOT_stimuli/rescaled_final/0652_rv.mp4	0.0	100.02532744407654	0.09995913505554199
10	81.09517216682434	fix_pre	0		118	8.0	2.5	/experiments/Knapen_AOT/AOT_stimuli/rescaled_final/1564_rv.mp4	0.0	100.12528657913208	0.9918367862701416
10	82.0706558227539	pulse	0	t		8.0	2.5	/experiments/Knapen_AOT/AOT_stimuli/rescaled_final/1564_rv.mp4	0.0	101.10077023506165	
10	82.08700895309448	movie	1		285	8.0	2.5	/experiments/Knapen_AOT/AOT_stimuli/rescaled_final/1564_rv.mp4	0.0	101.11712336540222	2.500424861907959
10	83.66943621635437	pulse	1	t		8.0	2.5	/experiments/Knapen_AOT/AOT_stimuli/rescaled_final/1564_rv.mp4	0.0	102.69955062866211	
10	84.58743381500244	fix_post	2		12	8.0	2.5	/experiments/Knapen_AOT/AOT_stimuli/rescaled_final/1564_rv.mp4	0.0	103.61754822731018	0.10007739067077637
11	84.68751120567322	fix_pre	0		120	9.0	2.5	/experiments/Knapen_AOT/AOT_stimuli/rescaled_final/0657_rv.mp4	0.0	103.71762561798096	1.0083973407745361
11	85.27119374275208	pulse	0	t		9.0	2.5	/experiments/Knapen_AOT/AOT_stimuli/rescaled_final/0657_rv.mp4	0.0	104.30130815505981	
11	85.69590854644775	movie	1		293	9.0	2.5	/experiments/Knapen_AOT/AOT_stimuli/rescaled_final/0657_rv.mp4	0.0	104.7260229587555	2.4920971393585205
11	86.86935067176819	pulse	1	t		9.0	2.5	/experiments/Knapen_AOT/AOT_stimuli/rescaled_final/0657_rv.mp4	0.0	105.89946508407593	
11	88.18800568580627	fix_post	2		12	9.0	2.5	/experiments/Knapen_AOT/AOT_stimuli/rescaled_final/0657_rv.mp4	0.0	107.21812009811401	0.09993410110473633
12	88.28793978691101	fix_pre	0		120	10.0	2.5	/experiments/Knapen_AOT/AOT_stimuli/rescaled_final/0221_fw.mp4	0.0	107.31805419921875	1.0085039138793945
12	88.47153115272522	pulse	0	t		10.0	2.5	/experiments/Knapen_AOT/AOT_stimuli/rescaled_final/0221_fw.mp4	0.0	107.50164556503296	
12	89.2964437007904	movie	1		287	10.0	2.5	/experiments/Knapen_AOT/AOT_stimuli/rescaled_final/0221_fw.mp4	0.0	108.32655811309814	2.492018938064575
12	90.06954646110535	pulse	1	t		10.0	2.5	/experiments/Knapen_AOT/AOT_stimuli/rescaled_final/0221_fw.mp4	0.0	109.09966087341309	
12	91.67030501365662	pulse	1	t		10.0	2.5	/experiments/Knapen_AOT/AOT_stimuli/rescaled_final/0221_fw.mp4	0.0	110.70041942596436	
12	91.78846263885498	fix_post	2		12	10.0	2.5	/experiments/Knapen_AOT/AOT_stimuli/rescaled_final/0221_fw.mp4	0.0	110.81857705116272	0.10016226768493652
13	91.88862490653992	fix_pre	0		120	11.0	2.5	/experiments/Knapen_AOT/AOT_stimuli/rescaled_final/0139_rv.mp4	0.0	110.91873931884766	1.0083506107330322
13	92.89697551727295	movie	1		278	11.0	2.5	/experiments/Knapen_AOT/AOT_stimuli/rescaled_final/0139_rv.mp4	0.0	111.92708992958069	2.4920620918273926
13	93.27042150497437	pulse	1	t		11.0	2.5	/experiments/Knapen_AOT/AOT_stimuli/rescaled_final/0139_rv.mp4	0.0	112.3005359172821	
13	94.87045168876648	pulse	1	t		11.0	2.5	/experiments/Knapen_AOT/AOT_stimuli/rescaled_final/0139_rv.mp4	0.0	113.90056610107422	
13	95.38903760910034	fix_post	2		12	11.0	2.5	/experiments/Knapen_AOT/AOT_stimuli/rescaled_final/0139_rv.mp4	0.0	114.41915202140808	0.10001850128173828
14	95.48905611038208	fix_pre	0		119	12.0	2.5	/experiments/Knapen_AOT/AOT_stimuli/rescaled_final/1613_fw.mp4	0.0	114.51917052268982	1.000253438949585
14	96.4730339050293	pulse	0	t		12.0	2.5	/experiments/Knapen_AOT/AOT_stimuli/rescaled_final/1613_fw.mp4	0.0	115.50314831733704	
14	96.48930954933167	movie	1		284	12.0	2.5	/experiments/Knapen_AOT/AOT_stimuli/rescaled_final/1613_fw.mp4	0.0	115.5194239616394	2.5002481937408447
14	98.07151937484741	pulse	1	t		12.0	2.5	/experiments/Knapen_AOT/AOT_stimuli/rescaled_final/1613_fw.mp4	0.0	117.10163378715515	
14	98.98955774307251	fix_post	2		12	12.0	2.5	/experiments/Knapen_AOT/AOT_stimuli/rescaled_final/1613_fw.mp4	0.0	118.01967215538025	0.10004425048828125
15	99.08960199356079	fix_pre	0		120	13.0	2.5	blank	1.0	118.11971640586853	1.0001311302185059
15	99.67317700386047	pulse	0	t		13.0	2.5	blank	1.0	118.70329141616821	
15	100.0897331237793	movie	1		300	13.0	2.5	blank	1.0	119.11984753608704	2.5003762245178223
15	101.27343368530273	pulse	1	t		13.0	2.5	blank	1.0	120.30354809761047	
15	102.59010934829712	fix_post	2		12	13.0	2.5	blank	1.0	121.62022376060486	0.1000216007232666
16	102.69013094902039	fix_pre	0		120	14.0	2.5	/experiments/Knapen_AOT/AOT_stimuli/rescaled_final/0784_rv.mp4	0.0	121.72024536132812	1.008620262145996
16	102.87368679046631	pulse	0	t		14.0	2.5	/experiments/Knapen_AOT/AOT_stimuli/rescaled_final/0784_rv.mp4	0.0	121.90380120277405	
16	103.69875121116638	movie	1		283	14.0	2.5	/experiments/Knapen_AOT/AOT_stimuli/rescaled_final/0784_rv.mp4	0.0	122.72886562347412	2.491886854171753
16	104.47208023071289	pulse	1	t		14.0	2.5	/experiments/Knapen_AOT/AOT_stimuli/rescaled_final/0784_rv.mp4	0.0	123.50219464302063	
16	106.07228398323059	pulse	1	t		14.0	2.5	/experiments/Knapen_AOT/AOT_stimuli/rescaled_final/0784_rv.mp4	0.0	125.10239839553833	
16	106.19063806533813	fix_post	2		12	14.0	2.5	/experiments/Knapen_AOT/AOT_stimuli/rescaled_final/0784_rv.mp4	0.0	125.22075247764587	0.10000276565551758
17	106.29064083099365	fix_pre	0		120	15.0	2.5	/experiments/Knapen_AOT/AOT_stimuli/rescaled_final/1892_fw.mp4	0.0	125.32075524330139	1.0085487365722656
17	107.29918956756592	movie	1		285	15.0	2.5	/experiments/Knapen_AOT/AOT_stimuli/rescaled_final/1892_fw.mp4	0.0	126.32930397987366	2.491971731185913
17	107.67296099662781	pulse	1	t		15.0	2.5	/experiments/Knapen_AOT/AOT_stimuli/rescaled_final/1892_fw.mp4	0.0	126.70307540893555	
17	109.27269697189331	pulse	1	t		15.0	2.5	/experiments/Knapen_AOT/AOT_stimuli/rescaled_final/1892_fw.mp4	0.0	128.30281138420105	
17	109.79116129875183	fix_post	2		12	15.0	2.5	/experiments/Knapen_AOT/AOT_stimuli/rescaled_final/1892_fw.mp4	0.0	128.82127571105957	0.10002660751342773
18	109.89118790626526	fix_pre	0		119	16.0	2.5	/experiments/Knapen_AOT/AOT_stimuli/rescaled_final/0049_rv.mp4	0.0	128.921302318573	1.0001802444458008
18	110.87503027915955	pulse	0	t		16.0	2.5	/experiments/Knapen_AOT/AOT_stimuli/rescaled_final/0049_rv.mp4	0.0	129.90514469146729	
18	110.89136815071106	movie	1		285	16.0	2.5	/experiments/Knapen_AOT/AOT_stimuli/rescaled_final/0049_rv.mp4	0.0	129.9214825630188	2.5003604888916016
18	112.47362208366394	pulse	1	t		16.0	2.5	/experiments/Knapen_AOT/AOT_stimuli/rescaled_final/0049_rv.mp4	0.0	131.50373649597168	
18	113.39172863960266	fix_post	2		12	16.0	2.5	/experiments/Knapen_AOT/AOT_stimuli/rescaled_final/0049_rv.mp4	0.0	132.4218430519104	0.10000872611999512
19	113.49173736572266	fix_pre	0		120	17.0	2.5	/experiments/Knapen_AOT/AOT_stimuli/rescaled_final/1292_fw.mp4	0.0	132.5218517780304	1.0086627006530762
19	114.07538199424744	pulse	0	t		17.0	2.5	/experiments/Knapen_AOT/AOT_stimuli/rescaled_final/1292_fw.mp4	0.0	133.10549640655518	
19	114.50040006637573	movie	1		276	17.0	2.5	/experiments/Knapen_AOT/AOT_stimuli/rescaled_final/1292_fw.mp4	0.0	133.53051447868347	2.4918839931488037
19	115.67413401603699	pulse	1	t		17.0	2.5	/experiments/Knapen_AOT/AOT_stimuli/rescaled_final/1292_fw.mp4	0.0	134.70424842834473	
19	116.99228405952454	fix_post	2		12	17.0	2.5	/experiments/Knapen_AOT/AOT_stimuli/rescaled_final/1292_fw.mp4	0.0	136.02239847183228	0.10000276565551758
20	117.09228682518005	fix_pre	0		120	18.0	2.5	/experiments/Knapen_AOT/AOT_stimuli/rescaled_final/1701_fw.mp4	0.0	136.1224012374878	1.0084800720214844
20	117.2758321762085	pulse	0	t		18.0	2.5	/experiments/Knapen_AOT/AOT_stimuli/rescaled_final/1701_fw.mp4	0.0	136.30594658851624	
20	118.10076689720154	movie	1		279	18.0	2.5	/experiments/Knapen_AOT/AOT_stimuli/rescaled_final/1701_fw.mp4	0.0	137.13088130950928	2.492046356201172
20	118.87412309646606	pulse	1	t		18.0	2.5	/experiments/Knapen_AOT/AOT_stimuli/rescaled_final/1701_fw.mp4	0.0	137.9042375087738	
20	120.47442626953125	pulse	1	t		18.0	2.5	/experiments/Knapen_AOT/AOT_stimuli/rescaled_final/1701_fw.mp4	0.0	139.504540681839	
20	120.59281325340271	fix_post	2		12	18.0	2.5	/experiments/Knapen_AOT/AOT_stimuli/rescaled_final/1701_fw.mp4	0.0	139.62292766571045	0.09998583793640137
21	120.69279909133911	fix_pre	0		120	19.0	2.5	blank	1.0	139.72291350364685	1.0001678466796875
21	121.6929669380188	movie	1		300	19.0	2.5	blank	1.0	140.72308135032654	2.5003836154937744
21	122.06862902641296	pulse	1	t		19.0	2.5	blank	1.0	141.0987434387207	
21	123.6685791015625	pulse	1	t		19.0	2.5	blank	1.0	142.69869351387024	
21	124.19335055351257	fix_post	2		12	19.0	2.5	blank	1.0	143.2234649658203	0.10001134872436523
22	124.29336190223694	fix_pre	0		118	20.0	2.5	/experiments/Knapen_AOT/AOT_stimuli/rescaled_final/0664_rv.mp4	0.0	143.32347631454468	0.9917984008789062
22	125.26875901222229	pulse	0	t		20.0	2.5	/experiments/Knapen_AOT/AOT_stimuli/rescaled_final/0664_rv.mp4	0.0	144.29887342453003	
22	125.28516030311584	movie	1		290	20.0	2.5	/experiments/Knapen_AOT/AOT_stimuli/rescaled_final/0664_rv.mp4	0.0	144.31527471542358	2.5003855228424072
22	126.86904311180115	pulse	1	t		20.0	2.5	/experiments/Knapen_AOT/AOT_stimuli/rescaled_final/0664_rv.mp4	0.0	145.8991575241089	
22	127.78554582595825	fix_post	2		12	20.0	2.5	/experiments/Knapen_AOT/AOT_stimuli/rescaled_final/0664_rv.mp4	0.0	146.815660238266	0.1000220775604248
23	127.88556790351868	fix_pre	0		120	21.0	2.5	/experiments/Knapen_AOT/AOT_stimuli/rescaled_final/0272_rv.mp4	0.0	146.91568231582642	1.008486032485962
23	128.46920537948608	pulse	0	t		21.0	2.5	/experiments/Knapen_AOT/AOT_stimuli/rescaled_final/0272_rv.mp4	0.0	147.49931979179382	
23	128.89405393600464	movie	1		279	21.0	2.5	/experiments/Knapen_AOT/AOT_stimuli/rescaled_final/0272_rv.mp4	0.0	147.92416834831238	2.4920215606689453
23	130.0698206424713	pulse	1	t		21.0	2.5	/experiments/Knapen_AOT/AOT_stimuli/rescaled_final/0272_rv.mp4	0.0	149.09993505477905	
23	131.38607549667358	fix_post	2		12	21.0	2.5	/experiments/Knapen_AOT/AOT_stimuli/rescaled_final/0272_rv.mp4	0.0	150.41618990898132	0.1000218391418457
24	131.48609733581543	fix_pre	0		120	22.0	2.5	/experiments/Knapen_AOT/AOT_stimuli/rescaled_final/0886_fw.mp4	0.0	150.51621174812317	1.0085091590881348
24	131.66977071762085	pulse	0	t		22.0	2.5	/experiments/Knapen_AOT/AOT_stimuli/rescaled_final/0886_fw.mp4	0.0	150.6998851299286	
24	132.49460649490356	movie	1		282	22.0	2.5	/experiments/Knapen_AOT/AOT_stimuli/rescaled_final/0886_fw.mp4	0.0	151.5247209072113	2.492022752761841
24	133.2688262462616	pulse	1	t		22.0	2.5	/experiments/Knapen_AOT/AOT_stimuli/rescaled_final/0886_fw.mp4	0.0	152.29894065856934	
24	134.87013149261475	pulse	1	t		22.0	2.5	/experiments/Knapen_AOT/AOT_stimuli/rescaled_final/0886_fw.mp4	0.0	153.90024590492249	
24	134.9866292476654	fix_post	2		12	22.0	2.5	/experiments/Knapen_AOT/AOT_stimuli/rescaled_final/0886_fw.mp4	0.0	154.01674365997314	0.1001732349395752
25	135.08680248260498	fix_pre	0		120	23.0	2.5	/experiments/Knapen_AOT/AOT_stimuli/rescaled_final/0267_fw.mp4	0.0	154.11691689491272	1.008359670639038
25	136.09516215324402	movie	1		283	23.0	2.5	/experiments/Knapen_AOT/AOT_stimuli/rescaled_final/0267_fw.mp4	0.0	155.12527656555176	2.492009401321411
25	136.4693262577057	pulse	1	t		23.0	2.5	/experiments/Knapen_AOT/AOT_stimuli/rescaled_final/0267_fw.mp4	0.0	155.49944067001343	
25	138.06870031356812	pulse	1	t		23.0	2.5	/experiments/Knapen_AOT/AOT_stimuli/rescaled_final/0267_fw.mp4	0.0	157.09881472587585	
25	138.58717155456543	fix_post	2		12	23.0	2.5	/experiments/Knapen_AOT/AOT_stimuli/rescaled_final/0267_fw.mp4	0.0	157.61728596687317	0.10001802444458008
26	138.68718957901	fix_pre	0		119	24.0	2.5	/experiments/Knapen_AOT/AOT_stimuli/rescaled_final/2040_fw.mp4	0.0	157.71730399131775	1.000176191329956
26	139.67090940475464	pulse	0	t		24.0	2.5	/experiments/Knapen_AOT/AOT_stimuli/rescaled_final/2040_fw.mp4	0.0	158.70102381706238	
26	139.68736577033997	movie	1		291	24.0	2.5	/experiments/Knapen_AOT/AOT_stimuli/rescaled_final/2040_fw.mp4	0.0	158.7174801826477	2.500340223312378
26	141.2698314189911	pulse	1	t		24.0	2.5	/experiments/Knapen_AOT/AOT_stimuli/rescaled_final/2040_fw.mp4	0.0	160.29994583129883	
26	142.18770599365234	fix_post	2		12	24.0	2.5	/experiments/Knapen_AOT/AOT_stimuli/rescaled_final/2040_fw.mp4	0.0	161.21782040596008	0.10005712509155273
27	142.2877631187439	fix_pre	0		120	25.0	2.5	/experiments/Knapen_AOT/AOT_stimuli/rescaled_final/1890_fw.mp4	0.0	161.31787753105164	1.008469581604004
27	142.87144780158997	pulse	0	t		25.0	2.5	/experiments/Knapen_AOT/AOT_stimuli/rescaled_final/1890_fw.mp4	0.0	161.9015622138977	
27	143.2962327003479	movie	1		274	25.0	2.5	/experiments/Knapen_AOT/AOT_stimuli/rescaled_final/1890_fw.mp4	0.0	162.32634711265564	2.492025852203369
27	144.47086453437805	pulse	1	t		25.0	2.5	/experiments/Knapen_AOT/AOT_stimuli/rescaled_final/1890_fw.mp4	0.0	163.5009789466858	
27	145.78825855255127	fix_post	2		12	25.0	2.5	/experiments/Knapen_AOT/AOT_stimuli/rescaled_final/1890_fw.mp4	0.0	164.818372964859	0.1000070571899414
28	145.8882656097412	fix_pre	0		120	26.0	2.5	blank	1.0	164.91838002204895	1.0001490116119385
28	146.0718379020691	pulse	0	t		26.0	2.5	blank	1.0	165.10195231437683	
28	146.88841462135315	movie	1		300	26.0	2.5	blank	1.0	165.9185290336609	2.5003952980041504
28	147.67205905914307	pulse	1	t		26.0	2.5	blank	1.0	166.7021734714508	
28	149.27232837677002	pulse	1	t		26.0	2.5	blank	1.0	168.30244278907776	
28	149.3888099193573	fix_post	2		12	26.0	2.5	blank	1.0	168.41892433166504	0.10005950927734375
29	149.48886942863464	fix_pre	0		120	27.0	2.5	/experiments/Knapen_AOT/AOT_stimuli/rescaled_final/0969_fw.mp4	0.0	168.51898384094238	1.0084538459777832
29	150.49732327461243	movie	1		273	27.0	2.5	/experiments/Knapen_AOT/AOT_stimuli/rescaled_final/0969_fw.mp4	0.0	169.52743768692017	2.4920921325683594
29	150.87233972549438	pulse	1	t		27.0	2.5	/experiments/Knapen_AOT/AOT_stimuli/rescaled_final/0969_fw.mp4	0.0	169.90245413780212	
29	152.47076439857483	pulse	1	t		27.0	2.5	/experiments/Knapen_AOT/AOT_stimuli/rescaled_final/0969_fw.mp4	0.0	171.50087881088257	
29	152.9894154071808	fix_post	2		12	27.0	2.5	/experiments/Knapen_AOT/AOT_stimuli/rescaled_final/0969_fw.mp4	0.0	172.01952981948853	0.09994387626647949
30	153.08935928344727	fix_pre	0		119	28.0	2.5	/experiments/Knapen_AOT/AOT_stimuli/rescaled_final/0886_rv.mp4	0.0	172.119473695755	1.0001418590545654
30	154.07307171821594	pulse	0	t		28.0	2.5	/experiments/Knapen_AOT/AOT_stimuli/rescaled_final/0886_rv.mp4	0.0	173.10318613052368	
30	154.08950114250183	movie	1		277	28.0	2.5	/experiments/Knapen_AOT/AOT_stimuli/rescaled_final/0886_rv.mp4	0.0	173.11961555480957	2.5003738403320312
30	155.67168045043945	pulse	1	t		28.0	2.5	/experiments/Knapen_AOT/AOT_stimuli/rescaled_final/0886_rv.mp4	0.0	174.7017948627472	
30	156.58987498283386	fix_post	2		12	28.0	2.5	/experiments/Knapen_AOT/AOT_stimuli/rescaled_final/0886_rv.mp4	0.0	175.6199893951416	0.10003805160522461
31	156.6899130344391	fix_pre	0		120	29.0	2.5	/experiments/Knapen_AOT/AOT_stimuli/rescaled_final/0721_fw.mp4	0.0	175.72002744674683	1.008516788482666
31	157.27357602119446	pulse	0	t		29.0	2.5	/experiments/Knapen_AOT/AOT_stimuli/rescaled_final/0721_fw.mp4	0.0	176.3036904335022	
31	157.69842982292175	movie	1		285	29.0	2.5	/experiments/Knapen_AOT/AOT_stimuli/rescaled_final/0721_fw.mp4	0.0	176.7285442352295	2.4919917583465576
31	158.87278127670288	pulse	1	t		29.0	2.5	/experiments/Knapen_AOT/AOT_stimuli/rescaled_final/0721_fw.mp4	0.0	177.90289568901062	
31	160.1904215812683	fix_post	2		12	29.0	2.5	/experiments/Knapen_AOT/AOT_stimuli/rescaled_final/0721_fw.mp4	0.0	179.22053599357605	0.10001707077026367
32	160.29043865203857	fix_pre	0		120	30.0	2.5	/experiments/Knapen_AOT/AOT_stimuli/rescaled_final/1860_fw.mp4	0.0	179.3205530643463	1.0084991455078125
32	160.4742076396942	pulse	0	t		30.0	2.5	/experiments/Knapen_AOT/AOT_stimuli/rescaled_final/1860_fw.mp4	0.0	179.50432205200195	
32	161.2989377975464	movie	1		270	30.0	2.5	/experiments/Knapen_AOT/AOT_stimuli/rescaled_final/1860_fw.mp4	0.0	180.32905220985413	2.5004162788391113
32	162.07343173027039	pulse	1	t		30.0	2.5	/experiments/Knapen_AOT/AOT_stimuli/rescaled_final/1860_fw.mp4	0.0	181.10354614257812	
32	163.6727430820465	pulse	1	t		30.0	2.5	/experiments/Knapen_AOT/AOT_stimuli/rescaled_final/1860_fw.mp4	0.0	182.70285749435425	
32	163.7993540763855	fix_post	2		11	30.0	2.5	/experiments/Knapen_AOT/AOT_stimuli/rescaled_final/1860_fw.mp4	0.0	182.82946848869324	0.09163379669189453
33	163.8909878730774	fix_pre	0		120	31.0	2.5	/experiments/Knapen_AOT/AOT_stimuli/rescaled_final/0443_fw.mp4	0.0	182.92110228538513	1.0085034370422363
33	164.89949131011963	movie	1		290	31.0	2.5	/experiments/Knapen_AOT/AOT_stimuli/rescaled_final/0443_fw.mp4	0.0	183.92960572242737	2.492011547088623
33	165.27330207824707	pulse	1	t		31.0	2.5	/experiments/Knapen_AOT/AOT_stimuli/rescaled_final/0443_fw.mp4	0.0	184.3034164905548	
33	166.87295508384705	pulse	1	t		31.0	2.5	/experiments/Knapen_AOT/AOT_stimuli/rescaled_final/0443_fw.mp4	0.0	185.90306949615479	
33	167.39150285720825	fix_post	2		12	31.0	2.5	/experiments/Knapen_AOT/AOT_stimuli/rescaled_final/0443_fw.mp4	0.0	186.421617269516	0.10007810592651367
34	167.49158096313477	fix_pre	0		119	32.0	2.5	/experiments/Knapen_AOT/AOT_stimuli/rescaled_final/0705_rv.mp4	0.0	186.5216953754425	1.0084855556488037
34	168.47548460960388	pulse	0	t		32.0	2.5	/experiments/Knapen_AOT/AOT_stimuli/rescaled_final/0705_rv.mp4	0.0	187.50559902191162	
34	168.50006651878357	movie	1		288	32.0	2.5	/experiments/Knapen_AOT/AOT_stimuli/rescaled_final/0705_rv.mp4	0.0	187.5301809310913	2.491971731185913
34	170.07403802871704	pulse	1	t		32.0	2.5	/experiments/Knapen_AOT/AOT_stimuli/rescaled_final/0705_rv.mp4	0.0	189.10415244102478	
34	170.99203824996948	fix_post	2		12	32.0	2.5	/experiments/Knapen_AOT/AOT_stimuli/rescaled_final/0705_rv.mp4	0.0	190.02215266227722	0.10007238388061523
35	171.0921106338501	fix_pre	0		120	33.0	2.5	/experiments/Knapen_AOT/AOT_stimuli/rescaled_final/0221_rv.mp4	0.0	190.12222504615784	1.0084545612335205
35	171.67570424079895	pulse	0	t		33.0	2.5	/experiments/Knapen_AOT/AOT_stimuli/rescaled_final/0221_rv.mp4	0.0	190.7058186531067	
35	172.10056519508362	movie	1		272	33.0	2.5	/experiments/Knapen_AOT/AOT_stimuli/rescaled_final/0221_rv.mp4	0.0	191.13067960739136	2.492035150527954
35	173.2740547657013	pulse	1	t		33.0	2.5	/experiments/Knapen_AOT/AOT_stimuli/rescaled_final/0221_rv.mp4	0.0	192.30416917800903	
35	174.59260034561157	fix_post	2		12	33.0	2.5	/experiments/Knapen_AOT/AOT_stimuli/rescaled_final/0221_rv.mp4	0.0	193.6227147579193	0.1000070571899414
36	174.6926074028015	fix_pre	0		120	34.0	2.5	blank	1.0	193.72272181510925	1.000136375427246
36	174.87635493278503	pulse	0	t		34.0	2.5	blank	1.0	193.90646934509277	
36	175.69274377822876	movie	1		300	34.0	2.5	blank	1.0	194.7228581905365	2.5003974437713623
36	176.46896529197693	pulse	1	t		34.0	2.5	blank	1.0	195.49907970428467	
36	178.06881594657898	pulse	1	t		34.0	2.5	blank	1.0	197.09893035888672	
36	178.19314122200012	fix_post	2		12	34.0	2.5	blank	1.0	197.22325563430786	0.09999775886535645
37	178.29313898086548	fix_pre	0		120	35.0	2.5	/experiments/Knapen_AOT/AOT_stimuli/rescaled_final/0133_rv.mp4	0.0	197.32325339317322	1.0084888935089111
37	179.3016278743744	movie	1		258	35.0	2.5	/experiments/Knapen_AOT/AOT_stimuli/rescaled_final/0133_rv.mp4	0.0	198.33174228668213	2.492039680480957
37	179.6757049560547	pulse	1	t		35.0	2.5	/experiments/Knapen_AOT/AOT_stimuli/rescaled_final/0133_rv.mp4	0.0	198.70581936836243	
37	181.26909255981445	pulse	1	t		35.0	2.5	/experiments/Knapen_AOT/AOT_stimuli/rescaled_final/0133_rv.mp4	0.0	200.2992069721222	
37	181.79366755485535	fix_post	2		12	35.0	2.5	/experiments/Knapen_AOT/AOT_stimuli/rescaled_final/0133_rv.mp4	0.0	200.8237819671631	0.10003304481506348
38	181.8937005996704	fix_pre	0		118	36.0	2.5	/experiments/Knapen_AOT/AOT_stimuli/rescaled_final/0122_rv.mp4	0.0	200.92381501197815	0.9918758869171143
38	182.869136095047	pulse	0	t		36.0	2.5	/experiments/Knapen_AOT/AOT_stimuli/rescaled_final/0122_rv.mp4	0.0	201.89925050735474	
38	182.88557648658752	movie	1		277	36.0	2.5	/experiments/Knapen_AOT/AOT_stimuli/rescaled_final/0122_rv.mp4	0.0	201.91569089889526	2.500314950942993
38	184.46929717063904	pulse	1	t		36.0	2.5	/experiments/Knapen_AOT/AOT_stimuli/rescaled_final/0122_rv.mp4	0.0	203.49941158294678	
38	185.38589143753052	fix_post	2		12	36.0	2.5	/experiments/Knapen_AOT/AOT_stimuli/rescaled_final/0122_rv.mp4	0.0	204.41600584983826	0.10000038146972656
39	185.48589181900024	fix_pre	0		120	37.0	2.5	/experiments/Knapen_AOT/AOT_stimuli/rescaled_final/0365_rv.mp4	0.0	204.51600623130798	1.00850248336792
39	186.0697979927063	pulse	0	t		37.0	2.5	/experiments/Knapen_AOT/AOT_stimuli/rescaled_final/0365_rv.mp4	0.0	205.09991240501404	
39	186.49439430236816	movie	1		288	37.0	2.5	/experiments/Knapen_AOT/AOT_stimuli/rescaled_final/0365_rv.mp4	0.0	205.5245087146759	2.4920318126678467
39	187.66989040374756	pulse	1	t		37.0	2.5	/experiments/Knapen_AOT/AOT_stimuli/rescaled_final/0365_rv.mp4	0.0	206.7000048160553	
39	188.986426115036	fix_post	2		12	37.0	2.5	/experiments/Knapen_AOT/AOT_stimuli/rescaled_final/0365_rv.mp4	0.0	208.01654052734375	0.10005593299865723
40	189.08648204803467	fix_pre	0		120	38.0	2.5	/experiments/Knapen_AOT/AOT_stimuli/rescaled_final/1225_fw.mp4	0.0	208.1165964603424	1.0084221363067627
40	189.2700698375702	pulse	0	t		38.0	2.5	/experiments/Knapen_AOT/AOT_stimuli/rescaled_final/1225_fw.mp4	0.0	208.30018424987793	
40	190.09490418434143	movie	1		271	38.0	2.5	/experiments/Knapen_AOT/AOT_stimuli/rescaled_final/1225_fw.mp4	0.0	209.12501859664917	2.492063283920288
40	190.87030720710754	pulse	1	t		38.0	2.5	/experiments/Knapen_AOT/AOT_stimuli/rescaled_final/1225_fw.mp4	0.0	209.90042161941528	
40	192.47056412696838	pulse	1	t		38.0	2.5	/experiments/Knapen_AOT/AOT_stimuli/rescaled_final/1225_fw.mp4	0.0	211.50067853927612	
40	192.58696746826172	fix_post	2		12	38.0	2.5	/experiments/Knapen_AOT/AOT_stimuli/rescaled_final/1225_fw.mp4	0.0	211.61708188056946	0.10001516342163086
41	192.68698263168335	fix_pre	0		120	39.0	2.5	/experiments/Knapen_AOT/AOT_stimuli/rescaled_final/1246_rv.mp4	0.0	211.7170970439911	1.0084969997406006
41	193.69547963142395	movie	1		283	39.0	2.5	/experiments/Knapen_AOT/AOT_stimuli/rescaled_final/1246_rv.mp4	0.0	212.7255940437317	2.49204158782959
41	194.06942296028137	pulse	1	t		39.0	2.5	/experiments/Knapen_AOT/AOT_stimuli/rescaled_final/1246_rv.mp4	0.0	213.0995373725891	
41	195.66934466362	pulse	1	t		39.0	2.5	/experiments/Knapen_AOT/AOT_stimuli/rescaled_final/1246_rv.mp4	0.0	214.69945907592773	
41	196.18752121925354	fix_post	2		12	39.0	2.5	/experiments/Knapen_AOT/AOT_stimuli/rescaled_final/1246_rv.mp4	0.0	215.21763563156128	0.10006380081176758
42	196.2875850200653	fix_pre	0		119	40.0	2.5	/experiments/Knapen_AOT/AOT_stimuli/rescaled_final/0237_rv.mp4	0.0	215.31769943237305	1.0000946521759033
42	197.2718095779419	pulse	0	t		40.0	2.5	/experiments/Knapen_AOT/AOT_stimuli/rescaled_final/0237_rv.mp4	0.0	216.30192399024963	
42	197.2876796722412	movie	1		283	40.0	2.5	/experiments/Knapen_AOT/AOT_stimuli/rescaled_final/0237_rv.mp4	0.0	216.31779408454895	2.5003530979156494
42	198.87032413482666	pulse	1	t		40.0	2.5	/experiments/Knapen_AOT/AOT_stimuli/rescaled_final/0237_rv.mp4	0.0	217.9004385471344	
42	199.78803277015686	fix_post	2		12	40.0	2.5	/experiments/Knapen_AOT/AOT_stimuli/rescaled_final/0237_rv.mp4	0.0	218.8181471824646	0.10002279281616211
43	199.88805556297302	fix_pre	0		120	41.0	2.5	blank	1.0	218.91816997528076	1.0001375675201416
43	200.4716911315918	pulse	0	t		41.0	2.5	blank	1.0	219.50180554389954	
43	200.88819313049316	movie	1		300	41.0	2.5	blank	1.0	219.9183075428009	2.500389575958252
43	202.0721845626831	pulse	1	t		41.0	2.5	blank	1.0	221.10229897499084	
43	203.38858270645142	fix_post	2		12	41.0	2.5	blank	1.0	222.41869711875916	0.10002255439758301
44	203.488605260849	fix_pre	0		120	42.0	2.5	/experiments/Knapen_AOT/AOT_stimuli/rescaled_final/0708_rv.mp4	0.0	222.51871967315674	1.0085053443908691
44	203.67216610908508	pulse	0	t		42.0	2.5	/experiments/Knapen_AOT/AOT_stimuli/rescaled_final/0708_rv.mp4	0.0	222.70228052139282	
44	204.49711060523987	movie	1		281	42.0	2.5	/experiments/Knapen_AOT/AOT_stimuli/rescaled_final/0708_rv.mp4	0.0	223.5272250175476	2.4920172691345215
44	205.27153491973877	pulse	1	t		42.0	2.5	/experiments/Knapen_AOT/AOT_stimuli/rescaled_final/0708_rv.mp4	0.0	224.3016493320465	
44	206.87080645561218	pulse	1	t		42.0	2.5	/experiments/Knapen_AOT/AOT_stimuli/rescaled_final/0708_rv.mp4	0.0	225.90092086791992	
44	206.9891278743744	fix_post	2		12	42.0	2.5	/experiments/Knapen_AOT/AOT_stimuli/rescaled_final/0708_rv.mp4	0.0	226.01924228668213	0.1001729965209961
45	207.08930087089539	fix_pre	0		119	43.0	2.5	/experiments/Knapen_AOT/AOT_stimuli/rescaled_final/0153_rv.mp4	0.0	226.11941528320312	1.0083215236663818
45	208.09762239456177	movie	1		278	43.0	2.5	/experiments/Knapen_AOT/AOT_stimuli/rescaled_final/0153_rv.mp4	0.0	227.1277368068695	2.4920437335968018
45	208.47205519676208	pulse	1	t		43.0	2.5	/experiments/Knapen_AOT/AOT_stimuli/rescaled_final/0153_rv.mp4	0.0	227.50216960906982	
45	210.0732192993164	pulse	1	t		43.0	2.5	/experiments/Knapen_AOT/AOT_stimuli/rescaled_final/0153_rv.mp4	0.0	229.10333371162415	
45	210.58966612815857	fix_post	2		12	43.0	2.5	/experiments/Knapen_AOT/AOT_stimuli/rescaled_final/0153_rv.mp4	0.0	229.6197805404663	0.10002970695495605
46	210.68969583511353	fix_pre	0		119	44.0	2.5	/experiments/Knapen_AOT/AOT_stimuli/rescaled_final/0297_rv.mp4	0.0	229.71981024742126	1.0085458755493164
46	211.67342448234558	pulse	0	t		44.0	2.5	/experiments/Knapen_AOT/AOT_stimuli/rescaled_final/0297_rv.mp4	0.0	230.70353889465332	
46	211.69824171066284	movie	1		290	44.0	2.5	/experiments/Knapen_AOT/AOT_stimuli/rescaled_final/0297_rv.mp4	0.0	230.72835612297058	2.49196720123291
46	213.27226853370667	pulse	1	t		44.0	2.5	/experiments/Knapen_AOT/AOT_stimuli/rescaled_final/0297_rv.mp4	0.0	232.3023829460144	
46	214.19020891189575	fix_post	2		12	44.0	2.5	/experiments/Knapen_AOT/AOT_stimuli/rescaled_final/0297_rv.mp4	0.0	233.2203233242035	0.10000896453857422
47	214.29021787643433	fix_pre	0		120	45.0	2.5	/experiments/Knapen_AOT/AOT_stimuli/rescaled_final/0660_rv.mp4	0.0	233.32033228874207	1.0085175037384033
47	214.87413263320923	pulse	0	t		45.0	2.5	/experiments/Knapen_AOT/AOT_stimuli/rescaled_final/0660_rv.mp4	0.0	233.90424704551697	
47	215.29873538017273	movie	1		279	45.0	2.5	/experiments/Knapen_AOT/AOT_stimuli/rescaled_final/0660_rv.mp4	0.0	234.32884979248047	2.4920554161071777
47	216.47425889968872	pulse	1	t		45.0	2.5	/experiments/Knapen_AOT/AOT_stimuli/rescaled_final/0660_rv.mp4	0.0	235.50437331199646	
47	217.7907907962799	fix_post	2		12	45.0	2.5	/experiments/Knapen_AOT/AOT_stimuli/rescaled_final/0660_rv.mp4	0.0	236.82090520858765	0.10000801086425781
48	217.89079880714417	fix_pre	0		104	46.0	2.5	/experiments/Knapen_AOT/AOT_stimuli/rescaled_final/1147_fw.mp4	0.0	236.9209132194519	1.0084331035614014
48	218.0743339061737	pulse	0	t		46.0	2.5	/experiments/Knapen_AOT/AOT_stimuli/rescaled_final/1147_fw.mp4	0.0	237.10444831848145	
48	218.89923191070557	movie	1		293	46.0	2.5	/experiments/Knapen_AOT/AOT_stimuli/rescaled_final/1147_fw.mp4	0.0	237.9293463230133	2.492130756378174
48	219.67247796058655	pulse	1	t		46.0	2.5	/experiments/Knapen_AOT/AOT_stimuli/rescaled_final/1147_fw.mp4	0.0	238.7025923728943	
48	221.2731363773346	pulse	1	t		46.0	2.5	/experiments/Knapen_AOT/AOT_stimuli/rescaled_final/1147_fw.mp4	0.0	240.30325078964233	
48	221.39136266708374	fix_post	2		12	46.0	2.5	/experiments/Knapen_AOT/AOT_stimuli/rescaled_final/1147_fw.mp4	0.0	240.42147707939148	0.0999593734741211
49	221.49132204055786	fix_pre	0		120	47.0	2.5	/experiments/Knapen_AOT/AOT_stimuli/rescaled_final/0252_fw.mp4	0.0	240.5214364528656	1.0085363388061523
49	222.499858379364	movie	1		271	47.0	2.5	/experiments/Knapen_AOT/AOT_stimuli/rescaled_final/0252_fw.mp4	0.0	241.52997279167175	2.4919724464416504
49	222.87386107444763	pulse	1	t		47.0	2.5	/experiments/Knapen_AOT/AOT_stimuli/rescaled_final/0252_fw.mp4	0.0	241.90397548675537	
49	224.4735722541809	pulse	1	t		47.0	2.5	/experiments/Knapen_AOT/AOT_stimuli/rescaled_final/0252_fw.mp4	0.0	243.50368666648865	
49	224.99183082580566	fix_post	2		12	47.0	2.5	/experiments/Knapen_AOT/AOT_stimuli/rescaled_final/0252_fw.mp4	0.0	244.0219452381134	0.10002398490905762
50	225.09185481071472	fix_pre	0		119	48.0	2.5	blank	1.0	244.12196922302246	0.9917709827423096
50	226.07548809051514	pulse	0	t		48.0	2.5	blank	1.0	245.10560250282288	
50	226.08362579345703	movie	1		301	48.0	2.5	blank	1.0	245.11374020576477	2.5087523460388184
50	227.67589402198792	pulse	1	t		48.0	2.5	blank	1.0	246.70600843429565	
50	228.59237813949585	fix_post	2		12	48.0	2.5	blank	1.0	247.6224925518036	0.10007333755493164
51	228.69245147705078	fix_pre	0		120	49.0	2.5	/experiments/Knapen_AOT/AOT_stimuli/rescaled_final/1960_fw.mp4	0.0	247.72256588935852	1.0083997249603271
51	229.27602076530457	pulse	0	t		49.0	2.5	/experiments/Knapen_AOT/AOT_stimuli/rescaled_final/1960_fw.mp4	0.0	248.3061351776123	
51	229.7008512020111	movie	1		280	49.0	2.5	/experiments/Knapen_AOT/AOT_stimuli/rescaled_final/1960_fw.mp4	0.0	248.73096561431885	2.4920859336853027
51	230.87668085098267	pulse	1	t		49.0	2.5	/experiments/Knapen_AOT/AOT_stimuli/rescaled_final/1960_fw.mp4	0.0	249.9067952632904	
51	232.1929371356964	fix_post	2		12	49.0	2.5	/experiments/Knapen_AOT/AOT_stimuli/rescaled_final/1960_fw.mp4	0.0	251.22305154800415	0.09998846054077148
52	232.29292559623718	fix_pre	0		120	50.0	2.5	/experiments/Knapen_AOT/AOT_stimuli/rescaled_final/0004_rv.mp4	0.0	251.32304000854492	1.0085170269012451
52	232.47648811340332	pulse	0	t		50.0	2.5	/experiments/Knapen_AOT/AOT_stimuli/rescaled_final/0004_rv.mp4	0.0	251.50660252571106	
52	233.30144262313843	movie	1		270	50.0	2.5	/experiments/Knapen_AOT/AOT_stimuli/rescaled_final/0004_rv.mp4	0.0	252.33155703544617	2.492004632949829
52	234.07506799697876	pulse	1	t		50.0	2.5	/experiments/Knapen_AOT/AOT_stimuli/rescaled_final/0004_rv.mp4	0.0	253.1051824092865	
52	235.6762101650238	pulse	1	t		50.0	2.5	/experiments/Knapen_AOT/AOT_stimuli/rescaled_final/0004_rv.mp4	0.0	254.70632457733154	
52	235.79344725608826	fix_post	2		12	50.0	2.5	/experiments/Knapen_AOT/AOT_stimuli/rescaled_final/0004_rv.mp4	0.0	254.823561668396	0.10002994537353516
53	235.8934772014618	fix_pre	0		120	51.0	2.5	/experiments/Knapen_AOT/AOT_stimuli/rescaled_final/2028_rv.mp4	0.0	254.92359161376953	1.008514404296875
53	236.90199160575867	movie	1		267	51.0	2.5	/experiments/Knapen_AOT/AOT_stimuli/rescaled_final/2028_rv.mp4	0.0	255.9321060180664	2.4920153617858887
53	237.277446269989	pulse	1	t		51.0	2.5	/experiments/Knapen_AOT/AOT_stimuli/rescaled_final/2028_rv.mp4	0.0	256.30756068229675	
53	238.8697316646576	pulse	1	t		51.0	2.5	/experiments/Knapen_AOT/AOT_stimuli/rescaled_final/2028_rv.mp4	0.0	257.89984607696533	
53	239.39400696754456	fix_post	2		12	51.0	2.5	/experiments/Knapen_AOT/AOT_stimuli/rescaled_final/2028_rv.mp4	0.0	258.4241213798523	0.10002613067626953
54	239.49403309822083	fix_pre	0		118	52.0	2.5	/experiments/Knapen_AOT/AOT_stimuli/rescaled_final/1679_fw.mp4	0.0	258.52414751052856	0.9918160438537598
54	240.46958589553833	pulse	0	t		52.0	2.5	/experiments/Knapen_AOT/AOT_stimuli/rescaled_final/1679_fw.mp4	0.0	259.49970030784607	
54	240.48584914207458	movie	1		279	52.0	2.5	/experiments/Knapen_AOT/AOT_stimuli/rescaled_final/1679_fw.mp4	0.0	259.5159635543823	2.5004844665527344
54	242.06965517997742	pulse	1	t		52.0	2.5	/experiments/Knapen_AOT/AOT_stimuli/rescaled_final/1679_fw.mp4	0.0	261.09976959228516	
54	242.98633360862732	fix_post	2		12	52.0	2.5	/experiments/Knapen_AOT/AOT_stimuli/rescaled_final/1679_fw.mp4	0.0	262.01644802093506	0.09987640380859375
55	243.0862100124359	fix_pre	0		120	53.0	2.5	/experiments/Knapen_AOT/AOT_stimuli/rescaled_final/0877_rv.mp4	0.0	262.11632442474365	1.0085065364837646
55	243.66991758346558	pulse	0	t		53.0	2.5	/experiments/Knapen_AOT/AOT_stimuli/rescaled_final/0877_rv.mp4	0.0	262.7000319957733	
55	244.09471654891968	movie	1		284	53.0	2.5	/experiments/Knapen_AOT/AOT_stimuli/rescaled_final/0877_rv.mp4	0.0	263.1248309612274	2.4920263290405273
55	245.27010917663574	pulse	1	t		53.0	2.5	/experiments/Knapen_AOT/AOT_stimuli/rescaled_final/0877_rv.mp4	0.0	264.3002235889435	
55	246.5867428779602	fix_post	2		12	53.0	2.5	/experiments/Knapen_AOT/AOT_stimuli/rescaled_final/0877_rv.mp4	0.0	265.61685729026794	0.10002803802490234
56	246.6867709159851	fix_pre	0		120	54.0	2.5	/experiments/Knapen_AOT/AOT_stimuli/rescaled_final/2028_fw.mp4	0.0	265.71688532829285	1.0085206031799316
56	246.87039399147034	pulse	0	t		54.0	2.5	/experiments/Knapen_AOT/AOT_stimuli/rescaled_final/2028_fw.mp4	0.0	265.9005084037781	
56	247.69529151916504	movie	1		264	54.0	2.5	/experiments/Knapen_AOT/AOT_stimuli/rescaled_final/2028_fw.mp4	0.0	266.7254059314728	2.492060661315918
56	248.47071599960327	pulse	1	t		54.0	2.5	/experiments/Knapen_AOT/AOT_stimuli/rescaled_final/2028_fw.mp4	0.0	267.500830411911	
56	250.071035861969	pulse	1	t		54.0	2.5	/experiments/Knapen_AOT/AOT_stimuli/rescaled_final/2028_fw.mp4	0.0	269.10115027427673	
56	250.18735218048096	fix_post	2		12	54.0	2.5	/experiments/Knapen_AOT/AOT_stimuli/rescaled_final/2028_fw.mp4	0.0	269.2174665927887	0.10021495819091797
57	250.28756713867188	fix_pre	0		120	55.0	2.5	/experiments/Knapen_AOT/AOT_stimuli/rescaled_final/0259_rv.mp4	0.0	269.3176815509796	1.0083107948303223
57	251.2958779335022	movie	1		265	55.0	2.5	/experiments/Knapen_AOT/AOT_stimuli/rescaled_final/0259_rv.mp4	0.0	270.32599234580994	2.4919862747192383
57	251.66992926597595	pulse	1	t		55.0	2.5	/experiments/Knapen_AOT/AOT_stimuli/rescaled_final/0259_rv.mp4	0.0	270.7000436782837	
57	253.27191877365112	pulse	1	t		55.0	2.5	/experiments/Knapen_AOT/AOT_stimuli/rescaled_final/0259_rv.mp4	0.0	272.30203318595886	
57	253.78786420822144	fix_post	2		12	55.0	2.5	/experiments/Knapen_AOT/AOT_stimuli/rescaled_final/0259_rv.mp4	0.0	272.8179786205292	0.09998798370361328
58	253.88785219192505	fix_pre	0		119	56.0	2.5	blank	1.0	272.9179666042328	0.9917786121368408
58	254.8716299533844	pulse	0	t		56.0	2.5	blank	1.0	273.90174436569214	
58	254.8796308040619	movie	1		301	56.0	2.5	blank	1.0	273.90974521636963	2.5088024139404297
58	256.4717791080475	pulse	1	t		56.0	2.5	blank	1.0	275.5018935203552	
58	257.3884332180023	fix_post	2		12	56.0	2.5	blank	1.0	276.41854763031006	0.09995770454406738
59	257.4883909225464	fix_pre	0		120	57.0	2.5	/experiments/Knapen_AOT/AOT_stimuli/rescaled_final/0936_rv.mp4	0.0	276.5185053348541	1.0084917545318604
59	258.07223987579346	pulse	0	t		57.0	2.5	/experiments/Knapen_AOT/AOT_stimuli/rescaled_final/0936_rv.mp4	0.0	277.1023542881012	
59	258.49688267707825	movie	1		269	57.0	2.5	/experiments/Knapen_AOT/AOT_stimuli/rescaled_final/0936_rv.mp4	0.0	277.526997089386	2.492035150527954
59	259.67093563079834	pulse	1	t		57.0	2.5	/experiments/Knapen_AOT/AOT_stimuli/rescaled_final/0936_rv.mp4	0.0	278.7010500431061	
59	260.9889178276062	fix_post	2		12	57.0	2.5	/experiments/Knapen_AOT/AOT_stimuli/rescaled_final/0936_rv.mp4	0.0	280.01903223991394	0.10000801086425781
60	261.08892583847046	fix_pre	0		120	58.0	2.5	/experiments/Knapen_AOT/AOT_stimuli/rescaled_final/0812_fw.mp4	0.0	280.1190402507782	1.0085387229919434
60	261.27247309684753	pulse	0	t		58.0	2.5	/experiments/Knapen_AOT/AOT_stimuli/rescaled_final/0812_fw.mp4	0.0	280.3025875091553	
60	262.0974645614624	movie	1		270	58.0	2.5	/experiments/Knapen_AOT/AOT_stimuli/rescaled_final/0812_fw.mp4	0.0	281.12757897377014	2.4920482635498047
60	262.8710629940033	pulse	1	t		58.0	2.5	/experiments/Knapen_AOT/AOT_stimuli/rescaled_final/0812_fw.mp4	0.0	281.90117740631104	
60	264.47100138664246	pulse	1	t		58.0	2.5	/experiments/Knapen_AOT/AOT_stimuli/rescaled_final/0812_fw.mp4	0.0	283.5011157989502	
60	264.5895128250122	fix_post	2		12	58.0	2.5	/experiments/Knapen_AOT/AOT_stimuli/rescaled_final/0812_fw.mp4	0.0	283.61962723731995	0.09996366500854492
61	264.68947649002075	fix_pre	0		120	59.0	2.5	/experiments/Knapen_AOT/AOT_stimuli/rescaled_final/1613_fw.mp4	0.0	283.7195909023285	1.0084877014160156
61	265.69796419143677	movie	1		275	59.0	2.5	/experiments/Knapen_AOT/AOT_stimuli/rescaled_final/1613_fw.mp4	0.0	284.7280786037445	2.4920296669006348
61	266.072007894516	pulse	1	t		59.0	2.5	/experiments/Knapen_AOT/AOT_stimuli/rescaled_final/1613_fw.mp4	0.0	285.10212230682373	
61	267.67176604270935	pulse	1	t		59.0	2.5	/experiments/Knapen_AOT/AOT_stimuli/rescaled_final/1613_fw.mp4	0.0	286.7018804550171	
61	268.1899938583374	fix_post	2		12	59.0	2.5	/experiments/Knapen_AOT/AOT_stimuli/rescaled_final/1613_fw.mp4	0.0	287.22010827064514	0.10003447532653809
62	268.29002833366394	fix_pre	0		119	60.0	2.5	/experiments/Knapen_AOT/AOT_stimuli/rescaled_final/1329_rv.mp4	0.0	287.3201427459717	1.0001492500305176
62	269.273806810379	pulse	0	t		60.0	2.5	/experiments/Knapen_AOT/AOT_stimuli/rescaled_final/1329_rv.mp4	0.0	288.30392122268677	
62	269.29017758369446	movie	1		284	60.0	2.5	/experiments/Knapen_AOT/AOT_stimuli/rescaled_final/1329_rv.mp4	0.0	288.3202919960022	2.5003960132598877
62	270.872759103775	pulse	1	t		60.0	2.5	/experiments/Knapen_AOT/AOT_stimuli/rescaled_final/1329_rv.mp4	0.0	289.90287351608276	
62	271.79057359695435	fix_post	2		12	60.0	2.5	/experiments/Knapen_AOT/AOT_stimuli/rescaled_final/1329_rv.mp4	0.0	290.8206880092621	0.10001015663146973
63	271.8905837535858	fix_pre	0		120	61.0	2.5	/experiments/Knapen_AOT/AOT_stimuli/rescaled_final/1584_rv.mp4	0.0	290.92069816589355	1.0084636211395264
63	272.474326133728	pulse	0	t		61.0	2.5	/experiments/Knapen_AOT/AOT_stimuli/rescaled_final/1584_rv.mp4	0.0	291.50444054603577	
63	272.89904737472534	movie	1		276	61.0	2.5	/experiments/Knapen_AOT/AOT_stimuli/rescaled_final/1584_rv.mp4	0.0	291.9291617870331	2.4920589923858643
63	274.07279562950134	pulse	1	t		61.0	2.5	/experiments/Knapen_AOT/AOT_stimuli/rescaled_final/1584_rv.mp4	0.0	293.1029100418091	
63	275.3911063671112	fix_post	2		12	61.0	2.5	/experiments/Knapen_AOT/AOT_stimuli/rescaled_final/1584_rv.mp4	0.0	294.42122077941895	0.09998893737792969
64	275.49109530448914	fix_pre	0		120	62.0	2.5	blank	1.0	294.5212097167969	1.000157117843628
64	275.674795627594	pulse	0	t		62.0	2.5	blank	1.0	294.70491003990173	
64	276.49125242233276	movie	1		300	62.0	2.5	blank	1.0	295.5213668346405	2.5005242824554443
64	277.27489829063416	pulse	1	t		62.0	2.5	blank	1.0	296.3050127029419	
64	278.8751919269562	pulse	1	t		62.0	2.5	blank	1.0	297.9053063392639	
64	278.9917767047882	fix_post	2		12	62.0	2.5	blank	1.0	298.02189111709595	0.09988808631896973
65	279.0916647911072	fix_pre	0		120	63.0	2.5	/experiments/Knapen_AOT/AOT_stimuli/rescaled_final/0062_fw.mp4	0.0	298.1217792034149	1.008514165878296
65	280.1001789569855	movie	1		271	63.0	2.5	/experiments/Knapen_AOT/AOT_stimuli/rescaled_final/0062_fw.mp4	0.0	299.1302933692932	2.4919614791870117
65	280.475478887558	pulse	1	t		63.0	2.5	/experiments/Knapen_AOT/AOT_stimuli/rescaled_final/0062_fw.mp4	0.0	299.5055932998657	
65	282.0750422477722	pulse	1	t		63.0	2.5	/experiments/Knapen_AOT/AOT_stimuli/rescaled_final/0062_fw.mp4	0.0	301.10515666007996	
65	282.5921404361725	fix_post	2		12	63.0	2.5	/experiments/Knapen_AOT/AOT_stimuli/rescaled_final/0062_fw.mp4	0.0	301.6222548484802	0.10002398490905762
66	282.69216442108154	fix_pre	0		119	64.0	2.5	/experiments/Knapen_AOT/AOT_stimuli/rescaled_final/0293_fw.mp4	0.0	301.7222788333893	1.000192403793335
66	283.6760437488556	pulse	0	t		64.0	2.5	/experiments/Knapen_AOT/AOT_stimuli/rescaled_final/0293_fw.mp4	0.0	302.70615816116333	
66	283.6923568248749	movie	1		280	64.0	2.5	/experiments/Knapen_AOT/AOT_stimuli/rescaled_final/0293_fw.mp4	0.0	302.7224712371826	2.500389575958252
66	285.2748689651489	pulse	1	t		64.0	2.5	/experiments/Knapen_AOT/AOT_stimuli/rescaled_final/0293_fw.mp4	0.0	304.30498337745667	
66	286.19274640083313	fix_post	2		12	64.0	2.5	/experiments/Knapen_AOT/AOT_stimuli/rescaled_final/0293_fw.mp4	0.0	305.22286081314087	0.10000824928283691
67	286.29275465011597	fix_pre	0		120	65.0	2.5	/experiments/Knapen_AOT/AOT_stimuli/rescaled_final/0889_rv.mp4	0.0	305.3228690624237	1.008455753326416
67	286.87646651268005	pulse	0	t		65.0	2.5	/experiments/Knapen_AOT/AOT_stimuli/rescaled_final/0889_rv.mp4	0.0	305.9065809249878	
67	287.3012104034424	movie	1		259	65.0	2.5	/experiments/Knapen_AOT/AOT_stimuli/rescaled_final/0889_rv.mp4	0.0	306.3313248157501	2.4920310974121094
67	288.4751994609833	pulse	1	t		65.0	2.5	/experiments/Knapen_AOT/AOT_stimuli/rescaled_final/0889_rv.mp4	0.0	307.505313873291	
67	289.7932415008545	fix_post	2		12	65.0	2.5	/experiments/Knapen_AOT/AOT_stimuli/rescaled_final/0889_rv.mp4	0.0	308.82335591316223	0.10001921653747559
68	289.89326071739197	fix_pre	0		120	66.0	2.5	/experiments/Knapen_AOT/AOT_stimuli/rescaled_final/0837_rv.mp4	0.0	308.9233751296997	1.0085413455963135
68	290.07690024375916	pulse	0	t		66.0	2.5	/experiments/Knapen_AOT/AOT_stimuli/rescaled_final/0837_rv.mp4	0.0	309.1070146560669	
68	290.9018020629883	movie	1		269	66.0	2.5	/experiments/Knapen_AOT/AOT_stimuli/rescaled_final/0837_rv.mp4	0.0	309.931916475296	2.4921276569366455
68	291.6753158569336	pulse	1	t		66.0	2.5	/experiments/Knapen_AOT/AOT_stimuli/rescaled_final/0837_rv.mp4	0.0	310.70543026924133	
68	293.27582907676697	pulse	1	t		66.0	2.5	/experiments/Knapen_AOT/AOT_stimuli/rescaled_final/0837_rv.mp4	0.0	312.3059434890747	
68	293.3939297199249	fix_post	2		12	66.0	2.5	/experiments/Knapen_AOT/AOT_stimuli/rescaled_final/0837_rv.mp4	0.0	312.42404413223267	0.09989762306213379
69	293.49382734298706	fix_pre	0		120	67.0	2.5	/experiments/Knapen_AOT/AOT_stimuli/rescaled_final/1365_fw.mp4	0.0	312.5239417552948	1.0085055828094482
69	294.5023329257965	movie	1		273	67.0	2.5	/experiments/Knapen_AOT/AOT_stimuli/rescaled_final/1365_fw.mp4	0.0	313.53244733810425	2.4920132160186768
69	294.87771558761597	pulse	1	t		67.0	2.5	/experiments/Knapen_AOT/AOT_stimuli/rescaled_final/1365_fw.mp4	0.0	313.9078299999237	
69	296.4760115146637	pulse	1	t		67.0	2.5	/experiments/Knapen_AOT/AOT_stimuli/rescaled_final/1365_fw.mp4	0.0	315.50612592697144	
69	296.9943461418152	fix_post	2		12	67.0	2.5	/experiments/Knapen_AOT/AOT_stimuli/rescaled_final/1365_fw.mp4	0.0	316.0244605541229	0.10002803802490234
70	297.0943741798401	fix_pre	0		118	68.0	2.5	/experiments/Knapen_AOT/AOT_stimuli/rescaled_final/1886_rv.mp4	0.0	316.1244885921478	1.0002045631408691
70	298.06985306739807	pulse	0	t		68.0	2.5	/experiments/Knapen_AOT/AOT_stimuli/rescaled_final/1886_rv.mp4	0.0	317.0999674797058	
70	298.09457874298096	movie	1		262	68.0	2.5	/experiments/Knapen_AOT/AOT_stimuli/rescaled_final/1886_rv.mp4	0.0	317.1246931552887	2.4919588565826416
70	299.670859336853	pulse	1	t		68.0	2.5	/experiments/Knapen_AOT/AOT_stimuli/rescaled_final/1886_rv.mp4	0.0	318.70097374916077	
70	300.5865375995636	fix_post	2		12	68.0	2.5	/experiments/Knapen_AOT/AOT_stimuli/rescaled_final/1886_rv.mp4	0.0	319.61665201187134	0.1000208854675293
71	300.6865584850311	fix_pre	0		120	69.0	2.5	/experiments/Knapen_AOT/AOT_stimuli/rescaled_final/1860_rv.mp4	0.0	319.71667289733887	1.0084714889526367
71	301.27025961875916	pulse	0	t		69.0	2.5	/experiments/Knapen_AOT/AOT_stimuli/rescaled_final/1860_rv.mp4	0.0	320.3003740310669	
71	301.69502997398376	movie	1		276	69.0	2.5	/experiments/Knapen_AOT/AOT_stimuli/rescaled_final/1860_rv.mp4	0.0	320.7251443862915	2.4920554161071777
71	302.8691098690033	pulse	1	t		69.0	2.5	/experiments/Knapen_AOT/AOT_stimuli/rescaled_final/1860_rv.mp4	0.0	321.89922428131104	
71	304.18708539009094	fix_post	2		12	69.0	2.5	/experiments/Knapen_AOT/AOT_stimuli/rescaled_final/1860_rv.mp4	0.0	323.2171998023987	0.1000678539276123
72	304.28715324401855	fix_pre	0		120	70.0	2.5	blank	1.0	323.3172676563263	1.0000996589660645
72	304.4706377983093	pulse	0	t		70.0	2.5	blank	1.0	323.50075221061707	
72	305.2872529029846	movie	1		300	70.0	2.5	blank	1.0	324.31736731529236	2.500363349914551
72	306.0711486339569	pulse	1	t		70.0	2.5	blank	1.0	325.10126304626465	
72	307.6711709499359	pulse	1	t		70.0	2.5	blank	1.0	326.70128536224365	
72	307.78761625289917	fix_post	2		12	70.0	2.5	blank	1.0	326.8177306652069	0.10004091262817383
73	307.88765716552734	fix_pre	0		120	71.0	2.5	/experiments/Knapen_AOT/AOT_stimuli/rescaled_final/0325_rv.mp4	0.0	326.9177715778351	1.008493423461914
73	308.89615058898926	movie	1		273	71.0	2.5	/experiments/Knapen_AOT/AOT_stimuli/rescaled_final/0325_rv.mp4	0.0	327.926265001297	2.4919979572296143
73	309.2698812484741	pulse	1	t		71.0	2.5	/experiments/Knapen_AOT/AOT_stimuli/rescaled_final/0325_rv.mp4	0.0	328.29999566078186	
73	310.86982131004333	pulse	1	t		71.0	2.5	/experiments/Knapen_AOT/AOT_stimuli/rescaled_final/0325_rv.mp4	0.0	329.8999357223511	
73	311.3881485462189	fix_post	2		12	71.0	2.5	/experiments/Knapen_AOT/AOT_stimuli/rescaled_final/0325_rv.mp4	0.0	330.4182629585266	0.10003042221069336
74	311.48817896842957	fix_pre	0		119	72.0	2.5	/experiments/Knapen_AOT/AOT_stimuli/rescaled_final/0522_rv.mp4	0.0	330.5182933807373	1.0001695156097412
74	312.4718599319458	pulse	0	t		72.0	2.5	/experiments/Knapen_AOT/AOT_stimuli/rescaled_final/0522_rv.mp4	0.0	331.50197434425354	
74	312.4883484840393	movie	1		281	72.0	2.5	/experiments/Knapen_AOT/AOT_stimuli/rescaled_final/0522_rv.mp4	0.0	331.51846289634705	2.50039005279541
74	314.0710620880127	pulse	1	t		72.0	2.5	/experiments/Knapen_AOT/AOT_stimuli/rescaled_final/0522_rv.mp4	0.0	333.10117650032043	
74	314.9887385368347	fix_post	2		12	72.0	2.5	/experiments/Knapen_AOT/AOT_stimuli/rescaled_final/0522_rv.mp4	0.0	334.01885294914246	0.0999915599822998
75	315.088730096817	fix_pre	0		120	73.0	2.5	/experiments/Knapen_AOT/AOT_stimuli/rescaled_final/1118_fw.mp4	0.0	334.11884450912476	1.0085368156433105
75	315.67239689826965	pulse	0	t		73.0	2.5	/experiments/Knapen_AOT/AOT_stimuli/rescaled_final/1118_fw.mp4	0.0	334.7025113105774	
75	316.0972669124603	movie	1		275	73.0	2.5	/experiments/Knapen_AOT/AOT_stimuli/rescaled_final/1118_fw.mp4	0.0	335.12738132476807	2.4920244216918945
75	317.27113485336304	pulse	1	t		73.0	2.5	/experiments/Knapen_AOT/AOT_stimuli/rescaled_final/1118_fw.mp4	0.0	336.3012492656708	
75	318.5892913341522	fix_post	2		12	73.0	2.5	/experiments/Knapen_AOT/AOT_stimuli/rescaled_final/1118_fw.mp4	0.0	337.61940574645996	0.10010766983032227
76	318.68939900398254	fix_pre	0		120	74.0	2.5	/experiments/Knapen_AOT/AOT_stimuli/rescaled_final/0049_fw.mp4	0.0	337.7195134162903	1.008350133895874
76	318.8728597164154	pulse	0	t		74.0	2.5	/experiments/Knapen_AOT/AOT_stimuli/rescaled_final/0049_fw.mp4	0.0	337.90297412872314	
76	319.6977491378784	movie	1		270	74.0	2.5	/experiments/Knapen_AOT/AOT_stimuli/rescaled_final/0049_fw.mp4	0.0	338.72786355018616	2.492025375366211
76	320.4713635444641	pulse	1	t		74.0	2.5	/experiments/Knapen_AOT/AOT_stimuli/rescaled_final/0049_fw.mp4	0.0	339.50147795677185	
76	322.07226061820984	pulse	1	t		74.0	2.5	/experiments/Knapen_AOT/AOT_stimuli/rescaled_final/0049_fw.mp4	0.0	341.1023750305176	
76	322.18977451324463	fix_post	2		12	74.0	2.5	/experiments/Knapen_AOT/AOT_stimuli/rescaled_final/0049_fw.mp4	0.0	341.21988892555237	0.10003280639648438
77	322.2898073196411	fix_pre	0		120	75.0	2.5	blank	1.0	341.31992173194885	1.000157356262207
77	323.2899646759033	movie	1		300	75.0	2.5	blank	1.0	342.32007908821106	2.500445604324341
77	323.6735489368439	pulse	1	t		75.0	2.5	blank	1.0	342.7036633491516	
77	325.2738242149353	pulse	1	t		75.0	2.5	blank	1.0	344.30393862724304	
77	325.79041028022766	fix_post	2		12	75.0	2.5	blank	1.0	344.8205246925354	0.09997725486755371
78	325.8903875350952	fix_pre	0		119	76.0	2.5	/experiments/Knapen_AOT/AOT_stimuli/rescaled_final/0364_rv.mp4	0.0	344.92050194740295	1.0084559917449951
78	326.87411165237427	pulse	0	t		76.0	2.5	/experiments/Knapen_AOT/AOT_stimuli/rescaled_final/0364_rv.mp4	0.0	345.904226064682	
78	326.8988435268402	movie	1		279	76.0	2.5	/experiments/Knapen_AOT/AOT_stimuli/rescaled_final/0364_rv.mp4	0.0	345.92895793914795	2.4920122623443604
78	328.47279119491577	pulse	1	t		76.0	2.5	/experiments/Knapen_AOT/AOT_stimuli/rescaled_final/0364_rv.mp4	0.0	347.5029056072235	
78	329.39085578918457	fix_post	2		12	76.0	2.5	/experiments/Knapen_AOT/AOT_stimuli/rescaled_final/0364_rv.mp4	0.0	348.4209702014923	0.1000528335571289
79	329.4909086227417	fix_pre	0		120	77.0	2.5	/experiments/Knapen_AOT/AOT_stimuli/rescaled_final/1707_rv.mp4	0.0	348.52102303504944	1.0085227489471436
79	330.07460927963257	pulse	0	t		77.0	2.5	/experiments/Knapen_AOT/AOT_stimuli/rescaled_final/1707_rv.mp4	0.0	349.1047236919403	
79	330.49943137168884	movie	1		279	77.0	2.5	/experiments/Knapen_AOT/AOT_stimuli/rescaled_final/1707_rv.mp4	0.0	349.5295457839966	2.491971731185913
79	331.6732439994812	pulse	1	t		77.0	2.5	/experiments/Knapen_AOT/AOT_stimuli/rescaled_final/1707_rv.mp4	0.0	350.70335841178894	
79	332.99140310287476	fix_post	2		12	77.0	2.5	/experiments/Knapen_AOT/AOT_stimuli/rescaled_final/1707_rv.mp4	0.0	352.0215175151825	0.1000356674194336
80	333.0914387702942	fix_pre	0		120	78.0	2.5	/experiments/Knapen_AOT/AOT_stimuli/rescaled_final/1596_rv.mp4	0.0	352.12155318260193	1.0084521770477295
80	333.27535796165466	pulse	0	t		78.0	2.5	/experiments/Knapen_AOT/AOT_stimuli/rescaled_final/1596_rv.mp4	0.0	352.3054723739624	
80	334.0998909473419	movie	1		283	78.0	2.5	/experiments/Knapen_AOT/AOT_stimuli/rescaled_final/1596_rv.mp4	0.0	353.13000535964966	2.4920637607574463
80	334.8734622001648	pulse	1	t		78.0	2.5	/experiments/Knapen_AOT/AOT_stimuli/rescaled_final/1596_rv.mp4	0.0	353.90357661247253	
80	336.47384905815125	pulse	1	t		78.0	2.5	/experiments/Knapen_AOT/AOT_stimuli/rescaled_final/1596_rv.mp4	0.0	355.503963470459	
80	336.59195470809937	fix_post	2		12	78.0	2.5	/experiments/Knapen_AOT/AOT_stimuli/rescaled_final/1596_rv.mp4	0.0	355.6220691204071	0.100067138671875
81	336.69202184677124	fix_pre	0		120	79.0	2.5	/experiments/Knapen_AOT/AOT_stimuli/rescaled_final/0855_fw.mp4	0.0	355.722136259079	1.008460283279419
81	337.70048213005066	movie	1		259	79.0	2.5	/experiments/Knapen_AOT/AOT_stimuli/rescaled_final/0855_fw.mp4	0.0	356.7305965423584	2.4920034408569336
81	338.07526326179504	pulse	1	t		79.0	2.5	/experiments/Knapen_AOT/AOT_stimuli/rescaled_final/0855_fw.mp4	0.0	357.1053776741028	
81	339.6742191314697	pulse	1	t		79.0	2.5	/experiments/Knapen_AOT/AOT_stimuli/rescaled_final/0855_fw.mp4	0.0	358.70433354377747	
81	340.1924855709076	fix_post	2		12	79.0	2.5	/experiments/Knapen_AOT/AOT_stimuli/rescaled_final/0855_fw.mp4	0.0	359.22259998321533	0.10001039505004883
82	340.29249596595764	fix_pre	0		119	80.0	2.5	/experiments/Knapen_AOT/AOT_stimuli/rescaled_final/0112_rv.mp4	0.0	359.3226103782654	1.0001616477966309
82	341.26969933509827	pulse	0	t		80.0	2.5	/experiments/Knapen_AOT/AOT_stimuli/rescaled_final/0112_rv.mp4	0.0	360.299813747406	
82	341.2926576137543	movie	1		276	80.0	2.5	/experiments/Knapen_AOT/AOT_stimuli/rescaled_final/0112_rv.mp4	0.0	360.322772026062	2.500368118286133
82	342.87582445144653	pulse	1	t		80.0	2.5	/experiments/Knapen_AOT/AOT_stimuli/rescaled_final/0112_rv.mp4	0.0	361.9059388637543	
82	343.7930257320404	fix_post	2		12	80.0	2.5	/experiments/Knapen_AOT/AOT_stimuli/rescaled_final/0112_rv.mp4	0.0	362.82314014434814	0.10002422332763672
83	343.89304995536804	fix_pre	0		120	81.0	2.5	/experiments/Knapen_AOT/AOT_stimuli/rescaled_final/1946_fw.mp4	0.0	362.9231643676758	1.0085318088531494
83	344.47668385505676	pulse	0	t		81.0	2.5	/experiments/Knapen_AOT/AOT_stimuli/rescaled_final/1946_fw.mp4	0.0	363.5067982673645	
83	344.9015817642212	movie	1		268	81.0	2.5	/experiments/Knapen_AOT/AOT_stimuli/rescaled_final/1946_fw.mp4	0.0	363.93169617652893	2.4921317100524902
83	346.0757772922516	pulse	1	t		81.0	2.5	/experiments/Knapen_AOT/AOT_stimuli/rescaled_final/1946_fw.mp4	0.0	365.1058917045593	
83	347.3937134742737	fix_post	2		12	81.0	2.5	/experiments/Knapen_AOT/AOT_stimuli/rescaled_final/1946_fw.mp4	0.0	366.4238278865814	0.0999135971069336
84	347.4936270713806	fix_pre	0		120	82.0	2.5	/experiments/Knapen_AOT/AOT_stimuli/rescaled_final/0284_fw.mp4	0.0	366.52374148368835	1.0085046291351318
84	347.66910123825073	pulse	0	t		82.0	2.5	/experiments/Knapen_AOT/AOT_stimuli/rescaled_final/0284_fw.mp4	0.0	366.6992156505585	
84	348.50213170051575	movie	1		266	82.0	2.5	/experiments/Knapen_AOT/AOT_stimuli/rescaled_final/0284_fw.mp4	0.0	367.5322461128235	2.4919886589050293
84	349.26985573768616	pulse	1	t		82.0	2.5	/experiments/Knapen_AOT/AOT_stimuli/rescaled_final/0284_fw.mp4	0.0	368.2999701499939	
84	350.8697762489319	pulse	1	t		82.0	2.5	/experiments/Knapen_AOT/AOT_stimuli/rescaled_final/0284_fw.mp4	0.0	369.8998906612396	
84	350.9941203594208	fix_post	2		12	82.0	2.5	/experiments/Knapen_AOT/AOT_stimuli/rescaled_final/0284_fw.mp4	0.0	370.0242347717285	0.10001707077026367
85	351.09413743019104	fix_pre	0		120	83.0	2.5	blank	1.0	370.1242518424988	1.0001475811004639
85	352.0942850112915	movie	1		300	83.0	2.5	blank	1.0	371.12439942359924	2.500372886657715
85	352.4696111679077	pulse	1	t		83.0	2.5	blank	1.0	371.49972558021545	
85	354.0702257156372	pulse	1	t		83.0	2.5	blank	1.0	373.10034012794495	
85	354.5946578979492	fix_post	2		12	83.0	2.5	blank	1.0	373.62477231025696	0.10004711151123047
87	354.69470500946045	stim	0		1715					373.7248194217682	14.2938232421875
87	355.6701548099518	pulse	0	t						374.7002692222595	
87	357.2702338695526	pulse	0	t						376.30034828186035	
87	358.8705644607544	pulse	0	t						377.90067887306213	
87	360.4708423614502	pulse	0	t						379.50095677375793	
87	362.07105469703674	pulse	0	t						381.1011691093445	
87	363.67125391960144	pulse	0	t						382.7013683319092	
87	365.2717761993408	pulse	0	t						384.30189061164856	
87	366.87170910835266	pulse	0	t						385.9018235206604	
87	368.47197437286377	pulse	0	t						387.5020887851715	
