trial_nr	onset	event_type	phase	response	nr_frames	movie_index	movie_duration	movie_file	blank	onset_abs	duration
0	0.19996213912963867	stim	0		35					56.633326292037964	0.29160189628601074
0	0.48353099822998047	response	0	space						56.916895151138306	
1	0.4915640354156494	stim	0		4937					56.924928188323975	41.16687607765198
1	41.62886714935303	pulse	0	t						98.06223130226135	
1	41.65844011306763	stim	1		1716					98.09180426597595	14.299774885177612
1	43.22317314147949	pulse	1	t						99.65653729438782	
1	44.823322057724	pulse	1	t						101.25668621063232	
1	46.42376708984375	pulse	1	t						102.85713124275208	
1	48.02389597892761	pulse	1	t						104.45726013183594	
1	49.62410497665405	pulse	1	t						106.05746912956238	
1	51.22429704666138	pulse	1	t						107.6576611995697	
1	52.82454013824463	pulse	1	t						109.25790429115295	
1	54.42484903335571	pulse	1	t						110.85821318626404	
2	55.95821499824524	fix_pre	0		9	0.0	2.5	/experiments/knapen_AOT/AOT_stimuli/rescaled_final/0465_fw.mp4	0.0	112.39157915115356	0.07494616508483887
2	56.02507710456848	pulse	0	t		0.0	2.5	/experiments/knapen_AOT/AOT_stimuli/rescaled_final/0465_fw.mp4	0.0	112.4584412574768	
2	56.03316116333008	movie	1		242	0.0	2.5	/experiments/knapen_AOT/AOT_stimuli/rescaled_final/0465_fw.mp4	0.0	112.4665253162384	2.5087318420410156
2	57.62602710723877	pulse	1	t		0.0	2.5	/experiments/knapen_AOT/AOT_stimuli/rescaled_final/0465_fw.mp4	0.0	114.0593912601471	
2	58.541893005371094	fix_post	2		12	0.0	2.5	/experiments/knapen_AOT/AOT_stimuli/rescaled_final/0465_fw.mp4	0.0	114.97525715827942	0.10000205039978027
3	58.641895055770874	fix_pre	0		120	1.0	2.5	/experiments/knapen_AOT/AOT_stimuli/rescaled_final/0499_rv.mp4	0.0	115.0752592086792	1.0001630783081055
3	59.22551703453064	pulse	0	t		1.0	2.5	/experiments/knapen_AOT/AOT_stimuli/rescaled_final/0499_rv.mp4	0.0	115.65888118743896	
3	59.64205813407898	movie	1		245	1.0	2.5	/experiments/knapen_AOT/AOT_stimuli/rescaled_final/0499_rv.mp4	0.0	116.0754222869873	2.500359058380127
3	60.82594919204712	pulse	1	t		1.0	2.5	/experiments/knapen_AOT/AOT_stimuli/rescaled_final/0499_rv.mp4	0.0	117.25931334495544	
3	62.142417192459106	fix_post	2		12	1.0	2.5	/experiments/knapen_AOT/AOT_stimuli/rescaled_final/0499_rv.mp4	0.0	118.57578134536743	0.10002899169921875
4	62.242446184158325	fix_pre	0		120	2.0	2.5	/experiments/knapen_AOT/AOT_stimuli/rescaled_final/0424_fw.mp4	0.0	118.67581033706665	1.0001559257507324
4	62.42602610588074	pulse	0	t		2.0	2.5	/experiments/knapen_AOT/AOT_stimuli/rescaled_final/0424_fw.mp4	0.0	118.85939025878906	
4	63.24260210990906	movie	1		246	2.0	2.5	/experiments/knapen_AOT/AOT_stimuli/rescaled_final/0424_fw.mp4	0.0	119.67596626281738	2.5003740787506104
4	64.02629613876343	pulse	1	t		2.0	2.5	/experiments/knapen_AOT/AOT_stimuli/rescaled_final/0424_fw.mp4	0.0	120.45966029167175	
4	65.6265320777893	pulse	1	t		2.0	2.5	/experiments/knapen_AOT/AOT_stimuli/rescaled_final/0424_fw.mp4	0.0	122.05989623069763	
4	65.74297618865967	fix_post	2		12	2.0	2.5	/experiments/knapen_AOT/AOT_stimuli/rescaled_final/0424_fw.mp4	0.0	122.176340341568	0.10002279281616211
5	65.84299898147583	fix_pre	0		120	3.0	2.5	/experiments/knapen_AOT/AOT_stimuli/rescaled_final/0682_rv.mp4	0.0	122.27636313438416	1.000136137008667
5	66.8431351184845	movie	1		253	3.0	2.5	/experiments/knapen_AOT/AOT_stimuli/rescaled_final/0682_rv.mp4	0.0	123.27649927139282	2.4920520782470703
5	67.22811698913574	pulse	1	t		3.0	2.5	/experiments/knapen_AOT/AOT_stimuli/rescaled_final/0682_rv.mp4	0.0	123.66148114204407	
5	68.82492208480835	pulse	1	t		3.0	2.5	/experiments/knapen_AOT/AOT_stimuli/rescaled_final/0682_rv.mp4	0.0	125.25828623771667	
5	69.33518719673157	fix_post	2		12	3.0	2.5	/experiments/knapen_AOT/AOT_stimuli/rescaled_final/0682_rv.mp4	0.0	125.76855134963989	0.10003781318664551
6	69.43522500991821	fix_pre	0		120	4.0	2.5	/experiments/knapen_AOT/AOT_stimuli/rescaled_final/0398_fw.mp4	0.0	125.86858916282654	1.0001139640808105
6	70.42718601226807	pulse	0	t		4.0	2.5	/experiments/knapen_AOT/AOT_stimuli/rescaled_final/0398_fw.mp4	0.0	126.86055016517639	
6	70.43533897399902	movie	1		248	4.0	2.5	/experiments/knapen_AOT/AOT_stimuli/rescaled_final/0398_fw.mp4	0.0	126.86870312690735	2.5086841583251953
6	72.02796602249146	pulse	1	t		4.0	2.5	/experiments/knapen_AOT/AOT_stimuli/rescaled_final/0398_fw.mp4	0.0	128.46133017539978	
6	72.94402313232422	fix_post	2		12	4.0	2.5	/experiments/knapen_AOT/AOT_stimuli/rescaled_final/0398_fw.mp4	0.0	129.37738728523254	0.10004901885986328
7	73.04407215118408	fix_pre	0		120	5.0	2.5	/experiments/knapen_AOT/AOT_stimuli/rescaled_final/0929_fw.mp4	0.0	129.4774363040924	1.0001399517059326
7	73.62772798538208	pulse	0	t		5.0	2.5	/experiments/knapen_AOT/AOT_stimuli/rescaled_final/0929_fw.mp4	0.0	130.0610921382904	
7	74.04421210289001	movie	1		248	5.0	2.5	/experiments/knapen_AOT/AOT_stimuli/rescaled_final/0929_fw.mp4	0.0	130.47757625579834	2.500351905822754
7	75.22804999351501	pulse	1	t		5.0	2.5	/experiments/knapen_AOT/AOT_stimuli/rescaled_final/0929_fw.mp4	0.0	131.66141414642334	
7	76.54456400871277	fix_post	2		12	5.0	2.5	/experiments/knapen_AOT/AOT_stimuli/rescaled_final/0929_fw.mp4	0.0	132.9779281616211	0.10000896453857422
8	76.64457297325134	fix_pre	0		120	6.0	2.5	/experiments/knapen_AOT/AOT_stimuli/rescaled_final/1887_fw.mp4	0.0	133.07793712615967	1.0001921653747559
8	76.82818412780762	pulse	0	t		6.0	2.5	/experiments/knapen_AOT/AOT_stimuli/rescaled_final/1887_fw.mp4	0.0	133.26154828071594	
8	77.6447651386261	movie	1		247	6.0	2.5	/experiments/knapen_AOT/AOT_stimuli/rescaled_final/1887_fw.mp4	0.0	134.07812929153442	2.5003979206085205
8	78.4283971786499	pulse	1	t		6.0	2.5	/experiments/knapen_AOT/AOT_stimuli/rescaled_final/1887_fw.mp4	0.0	134.86176133155823	
8	80.02868008613586	pulse	1	t		6.0	2.5	/experiments/knapen_AOT/AOT_stimuli/rescaled_final/1887_fw.mp4	0.0	136.4620442390442	
8	80.14516305923462	fix_post	2		12	6.0	2.5	/experiments/knapen_AOT/AOT_stimuli/rescaled_final/1887_fw.mp4	0.0	136.57852721214294	0.0999910831451416
9	80.24515414237976	fix_pre	0		120	7.0	2.5	blank	1.0	136.6785182952881	1.0001308917999268
9	81.24528503417969	movie	1		299	7.0	2.5	blank	1.0	137.678649187088	2.4920599460601807
9	81.62886500358582	pulse	1	t		7.0	2.5	blank	1.0	138.06222915649414	
9	83.22916913032532	pulse	1	t		7.0	2.5	blank	1.0	139.66253328323364	
9	83.73734498023987	fix_post	2		10	7.0	2.5	blank	1.0	140.1707091331482	0.09997701644897461
10	83.83732199668884	fix_pre	0		120	8.0	2.5	/experiments/knapen_AOT/AOT_stimuli/rescaled_final/1906_rv.mp4	0.0	140.27068614959717	1.0001561641693115
10	84.82935619354248	pulse	0	t		8.0	2.5	/experiments/knapen_AOT/AOT_stimuli/rescaled_final/1906_rv.mp4	0.0	141.2627203464508	
10	84.83747816085815	movie	1		248	8.0	2.5	/experiments/knapen_AOT/AOT_stimuli/rescaled_final/1906_rv.mp4	0.0	141.27084231376648	2.508776903152466
10	86.43020105361938	pulse	1	t		8.0	2.5	/experiments/knapen_AOT/AOT_stimuli/rescaled_final/1906_rv.mp4	0.0	142.8635652065277	
10	87.34625506401062	fix_post	2		12	8.0	2.5	/experiments/knapen_AOT/AOT_stimuli/rescaled_final/1906_rv.mp4	0.0	143.77961921691895	0.09996294975280762
11	87.44621801376343	fix_pre	0		120	9.0	2.5	/experiments/knapen_AOT/AOT_stimuli/rescaled_final/1824_rv.mp4	0.0	143.87958216667175	1.0001401901245117
11	88.02985119819641	pulse	0	t		9.0	2.5	/experiments/knapen_AOT/AOT_stimuli/rescaled_final/1824_rv.mp4	0.0	144.46321535110474	
11	88.44635820388794	movie	1		245	9.0	2.5	/experiments/knapen_AOT/AOT_stimuli/rescaled_final/1824_rv.mp4	0.0	144.87972235679626	2.5003738403320312
11	89.63019013404846	pulse	1	t		9.0	2.5	/experiments/knapen_AOT/AOT_stimuli/rescaled_final/1824_rv.mp4	0.0	146.0635542869568	
11	90.94673204421997	fix_post	2		12	9.0	2.5	/experiments/knapen_AOT/AOT_stimuli/rescaled_final/1824_rv.mp4	0.0	147.3800961971283	0.10007810592651367
12	91.04681015014648	fix_pre	0		120	10.0	2.5	/experiments/knapen_AOT/AOT_stimuli/rescaled_final/0129_fw.mp4	0.0	147.4801743030548	1.000087022781372
12	91.2302930355072	pulse	0	t		10.0	2.5	/experiments/knapen_AOT/AOT_stimuli/rescaled_final/0129_fw.mp4	0.0	147.66365718841553	
12	92.04689717292786	movie	1		243	10.0	2.5	/experiments/knapen_AOT/AOT_stimuli/rescaled_final/0129_fw.mp4	0.0	148.48026132583618	2.5003468990325928
12	92.8306610584259	pulse	1	t		10.0	2.5	/experiments/knapen_AOT/AOT_stimuli/rescaled_final/0129_fw.mp4	0.0	149.26402521133423	
12	94.43076014518738	pulse	1	t		10.0	2.5	/experiments/knapen_AOT/AOT_stimuli/rescaled_final/0129_fw.mp4	0.0	150.8641242980957	
12	94.54724407196045	fix_post	2		12	10.0	2.5	/experiments/knapen_AOT/AOT_stimuli/rescaled_final/0129_fw.mp4	0.0	150.98060822486877	0.10002899169921875
13	94.64727306365967	fix_pre	0		120	11.0	2.5	/experiments/knapen_AOT/AOT_stimuli/rescaled_final/0965_fw.mp4	0.0	151.080637216568	1.0001819133758545
13	95.64745497703552	movie	1		243	11.0	2.5	/experiments/knapen_AOT/AOT_stimuli/rescaled_final/0965_fw.mp4	0.0	152.08081912994385	2.4920501708984375
13	96.0316870212555	pulse	1	t		11.0	2.5	/experiments/knapen_AOT/AOT_stimuli/rescaled_final/0965_fw.mp4	0.0	152.46505117416382	
13	97.62386107444763	pulse	1	t		11.0	2.5	/experiments/knapen_AOT/AOT_stimuli/rescaled_final/0965_fw.mp4	0.0	154.05722522735596	
13	98.13950514793396	fix_post	2		12	11.0	2.5	/experiments/knapen_AOT/AOT_stimuli/rescaled_final/0965_fw.mp4	0.0	154.57286930084229	0.10006999969482422
14	98.23957514762878	fix_pre	0		120	12.0	2.5	/experiments/knapen_AOT/AOT_stimuli/rescaled_final/2152_rv.mp4	0.0	154.6729393005371	1.0000760555267334
14	99.22405910491943	pulse	0	t		12.0	2.5	/experiments/knapen_AOT/AOT_stimuli/rescaled_final/2152_rv.mp4	0.0	155.65742325782776	
14	99.23965120315552	movie	1		244	12.0	2.5	/experiments/knapen_AOT/AOT_stimuli/rescaled_final/2152_rv.mp4	0.0	155.67301535606384	2.5086758136749268
14	100.83236718177795	pulse	1	t		12.0	2.5	/experiments/knapen_AOT/AOT_stimuli/rescaled_final/2152_rv.mp4	0.0	157.26573133468628	
14	101.74832701683044	fix_post	2		12	12.0	2.5	/experiments/knapen_AOT/AOT_stimuli/rescaled_final/2152_rv.mp4	0.0	158.18169116973877	0.10004305839538574
15	101.84837007522583	fix_pre	0		120	13.0	2.5	/experiments/knapen_AOT/AOT_stimuli/rescaled_final/0950_fw.mp4	0.0	158.28173422813416	1.0001699924468994
15	102.42441606521606	pulse	0	t		13.0	2.5	/experiments/knapen_AOT/AOT_stimuli/rescaled_final/0950_fw.mp4	0.0	158.8577802181244	
15	102.84854006767273	movie	1		243	13.0	2.5	/experiments/knapen_AOT/AOT_stimuli/rescaled_final/0950_fw.mp4	0.0	159.28190422058105	2.5003321170806885
15	104.02454209327698	pulse	1	t		13.0	2.5	/experiments/knapen_AOT/AOT_stimuli/rescaled_final/0950_fw.mp4	0.0	160.4579062461853	
15	105.34887218475342	fix_post	2		12	13.0	2.5	/experiments/knapen_AOT/AOT_stimuli/rescaled_final/0950_fw.mp4	0.0	161.78223633766174	0.10000801086425781
16	105.44888019561768	fix_pre	0		120	14.0	2.5	blank	1.0	161.882244348526	1.0001537799835205
16	105.62409710884094	pulse	0	t		14.0	2.5	blank	1.0	162.05746126174927	
16	106.4490339756012	movie	1		300	14.0	2.5	blank	1.0	162.88239812850952	2.5003890991210938
16	107.2243721485138	pulse	1	t		14.0	2.5	blank	1.0	163.65773630142212	
16	108.82465815544128	pulse	1	t		14.0	2.5	blank	1.0	165.2580223083496	
16	108.94942307472229	fix_post	2		12	14.0	2.5	blank	1.0	165.38278722763062	0.09998703002929688
17	109.04941010475159	fix_pre	0		120	15.0	2.5	/experiments/knapen_AOT/AOT_stimuli/rescaled_final/0592_rv.mp4	0.0	165.4827742576599	1.0001890659332275
17	110.04959917068481	movie	1		244	15.0	2.5	/experiments/knapen_AOT/AOT_stimuli/rescaled_final/0592_rv.mp4	0.0	166.48296332359314	2.4919819831848145
17	110.42491912841797	pulse	1	t		15.0	2.5	/experiments/knapen_AOT/AOT_stimuli/rescaled_final/0592_rv.mp4	0.0	166.8582832813263	
17	112.02508616447449	pulse	1	t		15.0	2.5	/experiments/knapen_AOT/AOT_stimuli/rescaled_final/0592_rv.mp4	0.0	168.4584503173828	
17	112.54158115386963	fix_post	2		12	15.0	2.5	/experiments/knapen_AOT/AOT_stimuli/rescaled_final/0592_rv.mp4	0.0	168.97494530677795	0.10003900527954102
18	112.64162015914917	fix_pre	0		119	16.0	2.5	/experiments/knapen_AOT/AOT_stimuli/rescaled_final/0703_rv.mp4	0.0	169.0749843120575	0.9918308258056641
18	113.62527513504028	pulse	0	t		16.0	2.5	/experiments/knapen_AOT/AOT_stimuli/rescaled_final/0703_rv.mp4	0.0	170.0586392879486	
18	113.63345098495483	movie	1		245	16.0	2.5	/experiments/knapen_AOT/AOT_stimuli/rescaled_final/0703_rv.mp4	0.0	170.06681513786316	2.5087292194366455
18	115.22603607177734	pulse	1	t		16.0	2.5	/experiments/knapen_AOT/AOT_stimuli/rescaled_final/0703_rv.mp4	0.0	171.65940022468567	
18	116.14218020439148	fix_post	2		12	16.0	2.5	/experiments/knapen_AOT/AOT_stimuli/rescaled_final/0703_rv.mp4	0.0	172.5755443572998	0.09998178482055664
19	116.24216198921204	fix_pre	0		120	17.0	2.5	/experiments/knapen_AOT/AOT_stimuli/rescaled_final/1824_rv.mp4	0.0	172.67552614212036	1.0001811981201172
19	116.82587313652039	pulse	0	t		17.0	2.5	/experiments/knapen_AOT/AOT_stimuli/rescaled_final/1824_rv.mp4	0.0	173.2592372894287	
19	117.24234318733215	movie	1		245	17.0	2.5	/experiments/knapen_AOT/AOT_stimuli/rescaled_final/1824_rv.mp4	0.0	173.67570734024048	2.500361919403076
19	118.42611598968506	pulse	1	t		17.0	2.5	/experiments/knapen_AOT/AOT_stimuli/rescaled_final/1824_rv.mp4	0.0	174.85948014259338	
19	119.74270510673523	fix_post	2		12	17.0	2.5	/experiments/knapen_AOT/AOT_stimuli/rescaled_final/1824_rv.mp4	0.0	176.17606925964355	0.0999898910522461
20	119.84269499778748	fix_pre	0		120	18.0	2.5	/experiments/knapen_AOT/AOT_stimuli/rescaled_final/1023_fw.mp4	0.0	176.2760591506958	1.0001561641693115
20	120.02623319625854	pulse	0	t		18.0	2.5	/experiments/knapen_AOT/AOT_stimuli/rescaled_final/1023_fw.mp4	0.0	176.45959734916687	
20	120.84285116195679	movie	1		243	18.0	2.5	/experiments/knapen_AOT/AOT_stimuli/rescaled_final/1023_fw.mp4	0.0	177.2762153148651	2.500335931777954
20	121.62660098075867	pulse	1	t		18.0	2.5	/experiments/knapen_AOT/AOT_stimuli/rescaled_final/1023_fw.mp4	0.0	178.059965133667	
20	123.22660112380981	pulse	1	t		18.0	2.5	/experiments/knapen_AOT/AOT_stimuli/rescaled_final/1023_fw.mp4	0.0	179.65996527671814	
20	123.34318709373474	fix_post	2		12	18.0	2.5	/experiments/knapen_AOT/AOT_stimuli/rescaled_final/1023_fw.mp4	0.0	179.77655124664307	0.10007500648498535
21	123.44326210021973	fix_pre	0		120	19.0	2.5	/experiments/knapen_AOT/AOT_stimuli/rescaled_final/0879_fw.mp4	0.0	179.87662625312805	1.0001349449157715
21	124.4433970451355	movie	1		244	19.0	2.5	/experiments/knapen_AOT/AOT_stimuli/rescaled_final/0879_fw.mp4	0.0	180.87676119804382	2.4920339584350586
21	124.82820320129395	pulse	1	t		19.0	2.5	/experiments/knapen_AOT/AOT_stimuli/rescaled_final/0879_fw.mp4	0.0	181.26156735420227	
21	126.42716813087463	pulse	1	t		19.0	2.5	/experiments/knapen_AOT/AOT_stimuli/rescaled_final/0879_fw.mp4	0.0	182.86053228378296	
21	126.93543100357056	fix_post	2		12	19.0	2.5	/experiments/knapen_AOT/AOT_stimuli/rescaled_final/0879_fw.mp4	0.0	183.36879515647888	0.10005903244018555
22	127.03549003601074	fix_pre	0		120	20.0	2.5	blank	1.0	183.46885418891907	1.000082015991211
22	128.02752208709717	pulse	0	t		20.0	2.5	blank	1.0	184.4608862400055	
22	128.03557205200195	movie	1		301	20.0	2.5	blank	1.0	184.46893620491028	2.5087220668792725
22	129.62779998779297	pulse	1	t		20.0	2.5	blank	1.0	186.0611641407013	
22	130.54429411888123	fix_post	2		12	20.0	2.5	blank	1.0	186.97765827178955	0.10010194778442383
23	130.64439606666565	fix_pre	0		120	21.0	2.5	/experiments/knapen_AOT/AOT_stimuli/rescaled_final/0738_fw.mp4	0.0	187.07776021957397	1.000082015991211
23	131.22799515724182	pulse	0	t		21.0	2.5	/experiments/knapen_AOT/AOT_stimuli/rescaled_final/0738_fw.mp4	0.0	187.66135931015015	
23	131.64447808265686	movie	1		244	21.0	2.5	/experiments/knapen_AOT/AOT_stimuli/rescaled_final/0738_fw.mp4	0.0	188.07784223556519	2.500365972518921
23	132.82400107383728	pulse	1	t		21.0	2.5	/experiments/knapen_AOT/AOT_stimuli/rescaled_final/0738_fw.mp4	0.0	189.2573652267456	
23	134.14484405517578	fix_post	2		12	21.0	2.5	/experiments/knapen_AOT/AOT_stimuli/rescaled_final/0738_fw.mp4	0.0	190.5782082080841	0.10001492500305176
24	134.24485898017883	fix_pre	0		120	22.0	2.5	/experiments/knapen_AOT/AOT_stimuli/rescaled_final/1148_fw.mp4	0.0	190.67822313308716	1.0001521110534668
24	134.42845010757446	pulse	0	t		22.0	2.5	/experiments/knapen_AOT/AOT_stimuli/rescaled_final/1148_fw.mp4	0.0	190.8618142604828	
24	135.2450110912323	movie	1		243	22.0	2.5	/experiments/knapen_AOT/AOT_stimuli/rescaled_final/1148_fw.mp4	0.0	191.67837524414062	2.500372886657715
24	136.02877402305603	pulse	1	t		22.0	2.5	/experiments/knapen_AOT/AOT_stimuli/rescaled_final/1148_fw.mp4	0.0	192.46213817596436	
24	137.62876319885254	pulse	1	t		22.0	2.5	/experiments/knapen_AOT/AOT_stimuli/rescaled_final/1148_fw.mp4	0.0	194.06212735176086	
24	137.74538397789001	fix_post	2		12	22.0	2.5	/experiments/knapen_AOT/AOT_stimuli/rescaled_final/1148_fw.mp4	0.0	194.17874813079834	0.10004615783691406
25	137.84543013572693	fix_pre	0		120	23.0	2.5	/experiments/knapen_AOT/AOT_stimuli/rescaled_final/1306_rv.mp4	0.0	194.27879428863525	1.0001220703125
25	138.84555220603943	movie	1		243	23.0	2.5	/experiments/knapen_AOT/AOT_stimuli/rescaled_final/1306_rv.mp4	0.0	195.27891635894775	2.4920499324798584
25	139.2296450138092	pulse	1	t		23.0	2.5	/experiments/knapen_AOT/AOT_stimuli/rescaled_final/1306_rv.mp4	0.0	195.66300916671753	
25	140.8293731212616	pulse	1	t		23.0	2.5	/experiments/knapen_AOT/AOT_stimuli/rescaled_final/1306_rv.mp4	0.0	197.26273727416992	
25	141.3376021385193	fix_post	2		12	23.0	2.5	/experiments/knapen_AOT/AOT_stimuli/rescaled_final/1306_rv.mp4	0.0	197.7709662914276	0.10001492500305176
26	141.43761706352234	fix_pre	0		120	24.0	2.5	/experiments/knapen_AOT/AOT_stimuli/rescaled_final/0597_fw.mp4	0.0	197.87098121643066	1.0001180171966553
26	142.42960405349731	pulse	0	t		24.0	2.5	/experiments/knapen_AOT/AOT_stimuli/rescaled_final/0597_fw.mp4	0.0	198.86296820640564	
26	142.437735080719	movie	1		243	24.0	2.5	/experiments/knapen_AOT/AOT_stimuli/rescaled_final/0597_fw.mp4	0.0	198.87109923362732	2.508704900741577
26	144.03044414520264	pulse	1	t		24.0	2.5	/experiments/knapen_AOT/AOT_stimuli/rescaled_final/0597_fw.mp4	0.0	200.46380829811096	
26	144.94643998146057	fix_post	2		12	24.0	2.5	/experiments/knapen_AOT/AOT_stimuli/rescaled_final/0597_fw.mp4	0.0	201.3798041343689	0.10004901885986328
27	145.04648900032043	fix_pre	0		120	25.0	2.5	/experiments/knapen_AOT/AOT_stimuli/rescaled_final/1407_rv.mp4	0.0	201.47985315322876	1.0001461505889893
27	145.6300871372223	pulse	0	t		25.0	2.5	/experiments/knapen_AOT/AOT_stimuli/rescaled_final/1407_rv.mp4	0.0	202.06345129013062	
27	146.04663515090942	movie	1		243	25.0	2.5	/experiments/knapen_AOT/AOT_stimuli/rescaled_final/1407_rv.mp4	0.0	202.47999930381775	2.500339984893799
27	147.2303822040558	pulse	1	t		25.0	2.5	/experiments/knapen_AOT/AOT_stimuli/rescaled_final/1407_rv.mp4	0.0	203.6637463569641	
27	148.54697513580322	fix_post	2		12	25.0	2.5	/experiments/knapen_AOT/AOT_stimuli/rescaled_final/1407_rv.mp4	0.0	204.98033928871155	0.10001492500305176
28	148.64699006080627	fix_pre	0		120	26.0	2.5	/experiments/knapen_AOT/AOT_stimuli/rescaled_final/1698_rv.mp4	0.0	205.0803542137146	1.000169038772583
28	148.83060908317566	pulse	0	t		26.0	2.5	/experiments/knapen_AOT/AOT_stimuli/rescaled_final/1698_rv.mp4	0.0	205.26397323608398	
28	149.64715909957886	movie	1		244	26.0	2.5	/experiments/knapen_AOT/AOT_stimuli/rescaled_final/1698_rv.mp4	0.0	206.08052325248718	2.500351905822754
28	150.42353916168213	pulse	1	t		26.0	2.5	/experiments/knapen_AOT/AOT_stimuli/rescaled_final/1698_rv.mp4	0.0	206.85690331459045	
28	152.03093814849854	pulse	1	t		26.0	2.5	/experiments/knapen_AOT/AOT_stimuli/rescaled_final/1698_rv.mp4	0.0	208.46430230140686	
28	152.1475110054016	fix_post	2		12	26.0	2.5	/experiments/knapen_AOT/AOT_stimuli/rescaled_final/1698_rv.mp4	0.0	208.58087515830994	0.10004806518554688
29	152.24755907058716	fix_pre	0		120	27.0	2.5	blank	1.0	208.68092322349548	1.000140905380249
29	153.2476999759674	movie	1		299	27.0	2.5	blank	1.0	209.68106412887573	2.492030143737793
29	153.6238350868225	pulse	1	t		27.0	2.5	blank	1.0	210.05719923973083	
29	155.22329211235046	pulse	1	t		27.0	2.5	blank	1.0	211.6566562652588	
29	155.7397301197052	fix_post	2		12	27.0	2.5	blank	1.0	212.17309427261353	0.10001897811889648
30	155.8397490978241	fix_pre	0		119	28.0	2.5	/experiments/knapen_AOT/AOT_stimuli/rescaled_final/1594_fw.mp4	0.0	212.27311325073242	0.9918348789215088
30	156.8234040737152	pulse	0	t		28.0	2.5	/experiments/knapen_AOT/AOT_stimuli/rescaled_final/1594_fw.mp4	0.0	213.25676822662354	
30	156.8315839767456	movie	1		246	28.0	2.5	/experiments/knapen_AOT/AOT_stimuli/rescaled_final/1594_fw.mp4	0.0	213.26494812965393	2.5086510181427
30	158.42585706710815	pulse	1	t		28.0	2.5	/experiments/knapen_AOT/AOT_stimuli/rescaled_final/1594_fw.mp4	0.0	214.85922122001648	
30	159.3402349948883	fix_post	2		12	28.0	2.5	/experiments/knapen_AOT/AOT_stimuli/rescaled_final/1594_fw.mp4	0.0	215.77359914779663	0.09998703002929688
31	159.4402220249176	fix_pre	0		120	29.0	2.5	/experiments/knapen_AOT/AOT_stimuli/rescaled_final/0665_fw.mp4	0.0	215.87358617782593	1.0001981258392334
31	160.02400612831116	pulse	0	t		29.0	2.5	/experiments/knapen_AOT/AOT_stimuli/rescaled_final/0665_fw.mp4	0.0	216.45737028121948	
31	160.44042015075684	movie	1		243	29.0	2.5	/experiments/knapen_AOT/AOT_stimuli/rescaled_final/0665_fw.mp4	0.0	216.87378430366516	2.5003628730773926
31	161.62422919273376	pulse	1	t		29.0	2.5	/experiments/knapen_AOT/AOT_stimuli/rescaled_final/0665_fw.mp4	0.0	218.0575933456421	
31	162.94078302383423	fix_post	2		12	29.0	2.5	/experiments/knapen_AOT/AOT_stimuli/rescaled_final/0665_fw.mp4	0.0	219.37414717674255	0.10001707077026367
32	163.0408000946045	fix_pre	0		120	30.0	2.5	/experiments/knapen_AOT/AOT_stimuli/rescaled_final/1342_fw.mp4	0.0	219.47416424751282	1.0001559257507324
32	163.22447609901428	pulse	0	t		30.0	2.5	/experiments/knapen_AOT/AOT_stimuli/rescaled_final/1342_fw.mp4	0.0	219.6578402519226	
32	164.04095602035522	movie	1		244	30.0	2.5	/experiments/knapen_AOT/AOT_stimuli/rescaled_final/1342_fw.mp4	0.0	220.47432017326355	2.5003881454467773
32	164.82462310791016	pulse	1	t		30.0	2.5	/experiments/knapen_AOT/AOT_stimuli/rescaled_final/1342_fw.mp4	0.0	221.25798726081848	
32	166.4248230457306	pulse	1	t		30.0	2.5	/experiments/knapen_AOT/AOT_stimuli/rescaled_final/1342_fw.mp4	0.0	222.85818719863892	
32	166.541344165802	fix_post	2		12	30.0	2.5	/experiments/knapen_AOT/AOT_stimuli/rescaled_final/1342_fw.mp4	0.0	222.97470831871033	0.10000181198120117
33	166.6413459777832	fix_pre	0		119	31.0	2.5	/experiments/knapen_AOT/AOT_stimuli/rescaled_final/2171_fw.mp4	0.0	223.07471013069153	0.9918680191040039
33	167.6332139968872	movie	1		244	31.0	2.5	/experiments/knapen_AOT/AOT_stimuli/rescaled_final/2171_fw.mp4	0.0	224.06657814979553	2.5003161430358887
33	168.02517008781433	pulse	1	t		31.0	2.5	/experiments/knapen_AOT/AOT_stimuli/rescaled_final/2171_fw.mp4	0.0	224.45853424072266	
33	169.62539100646973	pulse	1	t		31.0	2.5	/experiments/knapen_AOT/AOT_stimuli/rescaled_final/2171_fw.mp4	0.0	226.05875515937805	
33	170.1335301399231	fix_post	2		12	31.0	2.5	/experiments/knapen_AOT/AOT_stimuli/rescaled_final/2171_fw.mp4	0.0	226.56689429283142	0.10002899169921875
34	170.23355913162231	fix_pre	0		120	32.0	2.5	/experiments/knapen_AOT/AOT_stimuli/rescaled_final/1955_rv.mp4	0.0	226.66692328453064	1.0001728534698486
34	171.22560811042786	pulse	0	t		32.0	2.5	/experiments/knapen_AOT/AOT_stimuli/rescaled_final/1955_rv.mp4	0.0	227.65897226333618	
34	171.23373198509216	movie	1		244	32.0	2.5	/experiments/knapen_AOT/AOT_stimuli/rescaled_final/1955_rv.mp4	0.0	227.6670961380005	2.5086522102355957
34	172.82728505134583	pulse	1	t		32.0	2.5	/experiments/knapen_AOT/AOT_stimuli/rescaled_final/1955_rv.mp4	0.0	229.26064920425415	
34	173.74238419532776	fix_post	2		12	32.0	2.5	/experiments/knapen_AOT/AOT_stimuli/rescaled_final/1955_rv.mp4	0.0	230.17574834823608	0.10004997253417969
35	173.84243416786194	fix_pre	0		120	33.0	2.5	/experiments/knapen_AOT/AOT_stimuli/rescaled_final/0285_fw.mp4	0.0	230.27579832077026	1.0001389980316162
35	174.42604899406433	pulse	0	t		33.0	2.5	/experiments/knapen_AOT/AOT_stimuli/rescaled_final/0285_fw.mp4	0.0	230.85941314697266	
35	174.84257316589355	movie	1		243	33.0	2.5	/experiments/knapen_AOT/AOT_stimuli/rescaled_final/0285_fw.mp4	0.0	231.27593731880188	2.5003550052642822
35	176.0263900756836	pulse	1	t		33.0	2.5	/experiments/knapen_AOT/AOT_stimuli/rescaled_final/0285_fw.mp4	0.0	232.45975422859192	
35	177.34292817115784	fix_post	2		12	33.0	2.5	/experiments/knapen_AOT/AOT_stimuli/rescaled_final/0285_fw.mp4	0.0	233.77629232406616	0.10002398490905762
36	177.4429521560669	fix_pre	0		120	34.0	2.5	blank	1.0	233.87631630897522	1.0001568794250488
36	177.62660813331604	pulse	0	t		34.0	2.5	blank	1.0	234.05997228622437	
36	178.44310903549194	movie	1		300	34.0	2.5	blank	1.0	234.87647318840027	2.5003910064697266
36	179.22675800323486	pulse	1	t		34.0	2.5	blank	1.0	235.6601221561432	
36	180.82695317268372	pulse	1	t		34.0	2.5	blank	1.0	237.26031732559204	
36	180.94350004196167	fix_post	2		12	34.0	2.5	blank	1.0	237.37686419487	0.10002398490905762
37	181.04352402687073	fix_pre	0		120	35.0	2.5	/experiments/knapen_AOT/AOT_stimuli/rescaled_final/1752_rv.mp4	0.0	237.47688817977905	1.0001680850982666
37	182.043692111969	movie	1		244	35.0	2.5	/experiments/knapen_AOT/AOT_stimuli/rescaled_final/1752_rv.mp4	0.0	238.47705626487732	2.4919960498809814
37	182.42790007591248	pulse	1	t		35.0	2.5	/experiments/knapen_AOT/AOT_stimuli/rescaled_final/1752_rv.mp4	0.0	238.8612642288208	
37	184.02757716178894	pulse	1	t		35.0	2.5	/experiments/knapen_AOT/AOT_stimuli/rescaled_final/1752_rv.mp4	0.0	240.46094131469727	
37	184.53568816184998	fix_post	2		12	35.0	2.5	/experiments/knapen_AOT/AOT_stimuli/rescaled_final/1752_rv.mp4	0.0	240.9690523147583	0.10004091262817383
38	184.63572907447815	fix_pre	0		120	36.0	2.5	/experiments/knapen_AOT/AOT_stimuli/rescaled_final/0080_rv.mp4	0.0	241.06909322738647	1.0001599788665771
38	185.62775897979736	pulse	0	t		36.0	2.5	/experiments/knapen_AOT/AOT_stimuli/rescaled_final/0080_rv.mp4	0.0	242.0611231327057	
38	185.63588905334473	movie	1		246	36.0	2.5	/experiments/knapen_AOT/AOT_stimuli/rescaled_final/0080_rv.mp4	0.0	242.06925320625305	2.508697032928467
38	187.22849917411804	pulse	1	t		36.0	2.5	/experiments/knapen_AOT/AOT_stimuli/rescaled_final/0080_rv.mp4	0.0	243.66186332702637	
38	188.1445860862732	fix_post	2		12	36.0	2.5	/experiments/knapen_AOT/AOT_stimuli/rescaled_final/0080_rv.mp4	0.0	244.57795023918152	0.09997797012329102
39	188.24456405639648	fix_pre	0		120	37.0	2.5	/experiments/knapen_AOT/AOT_stimuli/rescaled_final/1314_fw.mp4	0.0	244.6779282093048	1.0001790523529053
39	188.82819509506226	pulse	0	t		37.0	2.5	/experiments/knapen_AOT/AOT_stimuli/rescaled_final/1314_fw.mp4	0.0	245.26155924797058	
39	189.2447431087494	movie	1		244	37.0	2.5	/experiments/knapen_AOT/AOT_stimuli/rescaled_final/1314_fw.mp4	0.0	245.67810726165771	2.5003390312194824
39	190.42864298820496	pulse	1	t		37.0	2.5	/experiments/knapen_AOT/AOT_stimuli/rescaled_final/1314_fw.mp4	0.0	246.86200714111328	
39	191.74508213996887	fix_post	2		12	37.0	2.5	/experiments/knapen_AOT/AOT_stimuli/rescaled_final/1314_fw.mp4	0.0	248.1784462928772	0.10006284713745117
40	191.84514498710632	fix_pre	0		120	38.0	2.5	/experiments/knapen_AOT/AOT_stimuli/rescaled_final/0916_fw.mp4	0.0	248.27850914001465	1.0001170635223389
40	192.02866411209106	pulse	0	t		38.0	2.5	/experiments/knapen_AOT/AOT_stimuli/rescaled_final/0916_fw.mp4	0.0	248.4620282649994	
40	192.84526205062866	movie	1		243	38.0	2.5	/experiments/knapen_AOT/AOT_stimuli/rescaled_final/0916_fw.mp4	0.0	249.278626203537	2.5003480911254883
40	193.62894105911255	pulse	1	t		38.0	2.5	/experiments/knapen_AOT/AOT_stimuli/rescaled_final/0916_fw.mp4	0.0	250.06230521202087	
40	195.22899413108826	pulse	1	t		38.0	2.5	/experiments/knapen_AOT/AOT_stimuli/rescaled_final/0916_fw.mp4	0.0	251.66235828399658	
40	195.34561014175415	fix_post	2		12	38.0	2.5	/experiments/knapen_AOT/AOT_stimuli/rescaled_final/0916_fw.mp4	0.0	251.77897429466248	0.10008001327514648
41	195.4456901550293	fix_pre	0		119	39.0	2.5	/experiments/knapen_AOT/AOT_stimuli/rescaled_final/0690_fw.mp4	0.0	251.87905430793762	0.9917829036712646
41	196.43747305870056	movie	1		245	39.0	2.5	/experiments/knapen_AOT/AOT_stimuli/rescaled_final/0690_fw.mp4	0.0	252.8708372116089	2.500364065170288
41	196.82958698272705	pulse	1	t		39.0	2.5	/experiments/knapen_AOT/AOT_stimuli/rescaled_final/0690_fw.mp4	0.0	253.26295113563538	
41	198.4297649860382	pulse	1	t		39.0	2.5	/experiments/knapen_AOT/AOT_stimuli/rescaled_final/0690_fw.mp4	0.0	254.86312913894653	
41	198.93783712387085	fix_post	2		12	39.0	2.5	/experiments/knapen_AOT/AOT_stimuli/rescaled_final/0690_fw.mp4	0.0	255.37120127677917	0.10002899169921875
42	199.03786611557007	fix_pre	0		120	40.0	2.5	blank	1.0	255.4712302684784	1.0001459121704102
42	200.02990007400513	pulse	0	t		40.0	2.5	blank	1.0	256.46326422691345	
42	200.03801202774048	movie	1		301	40.0	2.5	blank	1.0	256.4713761806488	2.5087239742279053
42	201.63003611564636	pulse	1	t		40.0	2.5	blank	1.0	258.0634002685547	
42	202.54673600196838	fix_post	2		12	40.0	2.5	blank	1.0	258.9801001548767	0.0999600887298584
43	202.64669609069824	fix_pre	0		120	41.0	2.5	/experiments/knapen_AOT/AOT_stimuli/rescaled_final/1284_fw.mp4	0.0	259.08006024360657	1.0001890659332275
43	203.2304470539093	pulse	0	t		41.0	2.5	/experiments/knapen_AOT/AOT_stimuli/rescaled_final/1284_fw.mp4	0.0	259.6638112068176	
43	203.64688515663147	movie	1		242	41.0	2.5	/experiments/knapen_AOT/AOT_stimuli/rescaled_final/1284_fw.mp4	0.0	260.0802493095398	2.500372886657715
43	204.83078908920288	pulse	1	t		41.0	2.5	/experiments/knapen_AOT/AOT_stimuli/rescaled_final/1284_fw.mp4	0.0	261.2641532421112	
43	206.14725804328918	fix_post	2		12	41.0	2.5	/experiments/knapen_AOT/AOT_stimuli/rescaled_final/1284_fw.mp4	0.0	262.5806221961975	0.1000211238861084
44	206.2472791671753	fix_pre	0		120	42.0	2.5	/experiments/knapen_AOT/AOT_stimuli/rescaled_final/1549_fw.mp4	0.0	262.6806433200836	1.000135898590088
44	206.4309241771698	pulse	0	t		42.0	2.5	/experiments/knapen_AOT/AOT_stimuli/rescaled_final/1549_fw.mp4	0.0	262.8642883300781	
44	207.24741506576538	movie	1		245	42.0	2.5	/experiments/knapen_AOT/AOT_stimuli/rescaled_final/1549_fw.mp4	0.0	263.6807792186737	2.5003440380096436
44	208.03107810020447	pulse	1	t		42.0	2.5	/experiments/knapen_AOT/AOT_stimuli/rescaled_final/1549_fw.mp4	0.0	264.4644422531128	
44	209.62864708900452	pulse	1	t		42.0	2.5	/experiments/knapen_AOT/AOT_stimuli/rescaled_final/1549_fw.mp4	0.0	266.06201124191284	
44	209.74775910377502	fix_post	2		12	42.0	2.5	/experiments/knapen_AOT/AOT_stimuli/rescaled_final/1549_fw.mp4	0.0	266.18112325668335	0.10008788108825684
45	209.84784698486328	fix_pre	0		120	43.0	2.5	/experiments/knapen_AOT/AOT_stimuli/rescaled_final/0879_fw.mp4	0.0	266.2812111377716	1.0001041889190674
45	210.84795117378235	movie	1		244	43.0	2.5	/experiments/knapen_AOT/AOT_stimuli/rescaled_final/0879_fw.mp4	0.0	267.2813153266907	2.4920759201049805
45	211.2319130897522	pulse	1	t		43.0	2.5	/experiments/knapen_AOT/AOT_stimuli/rescaled_final/0879_fw.mp4	0.0	267.6652772426605	
45	212.8244321346283	pulse	1	t		43.0	2.5	/experiments/knapen_AOT/AOT_stimuli/rescaled_final/0879_fw.mp4	0.0	269.2577962875366	
45	213.34002709388733	fix_post	2		12	43.0	2.5	/experiments/knapen_AOT/AOT_stimuli/rescaled_final/0879_fw.mp4	0.0	269.77339124679565	0.09998393058776855
46	213.4400110244751	fix_pre	0		120	44.0	2.5	/experiments/knapen_AOT/AOT_stimuli/rescaled_final/1041_fw.mp4	0.0	269.8733751773834	1.0001461505889893
46	214.4245901107788	pulse	0	t		44.0	2.5	/experiments/knapen_AOT/AOT_stimuli/rescaled_final/1041_fw.mp4	0.0	270.85795426368713	
46	214.4401571750641	movie	1		246	44.0	2.5	/experiments/knapen_AOT/AOT_stimuli/rescaled_final/1041_fw.mp4	0.0	270.8735213279724	2.5087509155273438
46	216.0241711139679	pulse	1	t		44.0	2.5	/experiments/knapen_AOT/AOT_stimuli/rescaled_final/1041_fw.mp4	0.0	272.4575352668762	
46	216.94890809059143	fix_post	2		12	44.0	2.5	/experiments/knapen_AOT/AOT_stimuli/rescaled_final/1041_fw.mp4	0.0	273.38227224349976	0.09999704360961914
47	217.04890513420105	fix_pre	0		120	45.0	2.5	/experiments/knapen_AOT/AOT_stimuli/rescaled_final/0298_fw.mp4	0.0	273.4822692871094	1.0001318454742432
47	217.62412214279175	pulse	0	t		45.0	2.5	/experiments/knapen_AOT/AOT_stimuli/rescaled_final/0298_fw.mp4	0.0	274.0574862957001	
47	218.0490369796753	movie	1		246	45.0	2.5	/experiments/knapen_AOT/AOT_stimuli/rescaled_final/0298_fw.mp4	0.0	274.4824011325836	2.500364065170288
47	219.2247359752655	pulse	1	t		45.0	2.5	/experiments/knapen_AOT/AOT_stimuli/rescaled_final/0298_fw.mp4	0.0	275.6581001281738	
47	220.54940104484558	fix_post	2		12	45.0	2.5	/experiments/knapen_AOT/AOT_stimuli/rescaled_final/0298_fw.mp4	0.0	276.9827651977539	0.10000300407409668
48	220.64940404891968	fix_pre	0		120	46.0	2.5	/experiments/knapen_AOT/AOT_stimuli/rescaled_final/1567_rv.mp4	0.0	277.082768201828	1.000162124633789
48	220.82458806037903	pulse	0	t		46.0	2.5	/experiments/knapen_AOT/AOT_stimuli/rescaled_final/1567_rv.mp4	0.0	277.25795221328735	
48	221.64956617355347	movie	1		245	46.0	2.5	/experiments/knapen_AOT/AOT_stimuli/rescaled_final/1567_rv.mp4	0.0	278.0829303264618	2.491982936859131
48	222.4249951839447	pulse	1	t		46.0	2.5	/experiments/knapen_AOT/AOT_stimuli/rescaled_final/1567_rv.mp4	0.0	278.858359336853	
48	224.02509808540344	pulse	1	t		46.0	2.5	/experiments/knapen_AOT/AOT_stimuli/rescaled_final/1567_rv.mp4	0.0	280.45846223831177	
48	224.1415491104126	fix_post	2		13	46.0	2.5	/experiments/knapen_AOT/AOT_stimuli/rescaled_final/1567_rv.mp4	0.0	280.5749132633209	0.10842609405517578
49	224.24997520446777	fix_pre	0		119	47.0	2.5	/experiments/knapen_AOT/AOT_stimuli/rescaled_final/0950_fw.mp4	0.0	280.6833393573761	0.9917998313903809
49	225.24177503585815	movie	1		243	47.0	2.5	/experiments/knapen_AOT/AOT_stimuli/rescaled_final/0950_fw.mp4	0.0	281.6751391887665	2.5003910064697266
49	225.62958216667175	pulse	1	t		47.0	2.5	/experiments/knapen_AOT/AOT_stimuli/rescaled_final/0950_fw.mp4	0.0	282.0629463195801	
49	227.2256510257721	pulse	1	t		47.0	2.5	/experiments/knapen_AOT/AOT_stimuli/rescaled_final/0950_fw.mp4	0.0	283.6590151786804	
49	227.74216604232788	fix_post	2		12	47.0	2.5	/experiments/knapen_AOT/AOT_stimuli/rescaled_final/0950_fw.mp4	0.0	284.1755301952362	0.09999895095825195
50	227.84216499328613	fix_pre	0		119	48.0	2.5	/experiments/knapen_AOT/AOT_stimuli/rescaled_final/0725_fw.mp4	0.0	284.27552914619446	0.9918601512908936
50	228.82582712173462	pulse	0	t		48.0	2.5	/experiments/knapen_AOT/AOT_stimuli/rescaled_final/0725_fw.mp4	0.0	285.25919127464294	
50	228.83402514457703	movie	1		248	48.0	2.5	/experiments/knapen_AOT/AOT_stimuli/rescaled_final/0725_fw.mp4	0.0	285.26738929748535	2.5086450576782227
50	230.42655301094055	pulse	1	t		48.0	2.5	/experiments/knapen_AOT/AOT_stimuli/rescaled_final/0725_fw.mp4	0.0	286.8599171638489	
50	231.34267020225525	fix_post	2		12	48.0	2.5	/experiments/knapen_AOT/AOT_stimuli/rescaled_final/0725_fw.mp4	0.0	287.7760343551636	0.10002779960632324
51	231.44269800186157	fix_pre	0		120	49.0	2.5	blank	1.0	287.8760621547699	1.0001721382141113
51	232.02629113197327	pulse	0	t		49.0	2.5	blank	1.0	288.4596552848816	
51	232.44287014007568	movie	1		300	49.0	2.5	blank	1.0	288.876234292984	2.50034499168396
51	233.62664103507996	pulse	1	t		49.0	2.5	blank	1.0	290.0600051879883	
51	234.94321513175964	fix_post	2		12	49.0	2.5	blank	1.0	291.37657928466797	0.10001492500305176
52	235.0432300567627	fix_pre	0		120	50.0	2.5	/experiments/knapen_AOT/AOT_stimuli/rescaled_final/1608_fw.mp4	0.0	291.476594209671	1.000148057937622
52	235.22690200805664	pulse	0	t		50.0	2.5	/experiments/knapen_AOT/AOT_stimuli/rescaled_final/1608_fw.mp4	0.0	291.66026616096497	
52	236.04337811470032	movie	1		245	50.0	2.5	/experiments/knapen_AOT/AOT_stimuli/rescaled_final/1608_fw.mp4	0.0	292.47674226760864	2.500396966934204
52	236.82714319229126	pulse	1	t		50.0	2.5	/experiments/knapen_AOT/AOT_stimuli/rescaled_final/1608_fw.mp4	0.0	293.2605073451996	
52	238.427237033844	pulse	1	t		50.0	2.5	/experiments/knapen_AOT/AOT_stimuli/rescaled_final/1608_fw.mp4	0.0	294.8606011867523	
52	238.54377508163452	fix_post	2		12	50.0	2.5	/experiments/knapen_AOT/AOT_stimuli/rescaled_final/1608_fw.mp4	0.0	294.97713923454285	0.100006103515625
53	238.64378118515015	fix_pre	0		120	51.0	2.5	/experiments/knapen_AOT/AOT_stimuli/rescaled_final/1573_rv.mp4	0.0	295.0771453380585	1.000135898590088
53	239.64391708374023	movie	1		244	51.0	2.5	/experiments/knapen_AOT/AOT_stimuli/rescaled_final/1573_rv.mp4	0.0	296.07728123664856	2.4920599460601807
53	240.02813506126404	pulse	1	t		51.0	2.5	/experiments/knapen_AOT/AOT_stimuli/rescaled_final/1573_rv.mp4	0.0	296.46149921417236	
53	241.6279001235962	pulse	1	t		51.0	2.5	/experiments/knapen_AOT/AOT_stimuli/rescaled_final/1573_rv.mp4	0.0	298.0612642765045	
53	242.13597702980042	fix_post	2		12	51.0	2.5	/experiments/knapen_AOT/AOT_stimuli/rescaled_final/1573_rv.mp4	0.0	298.56934118270874	0.09998607635498047
54	242.2359631061554	fix_pre	0		120	52.0	2.5	/experiments/knapen_AOT/AOT_stimuli/rescaled_final/2171_rv.mp4	0.0	298.6693272590637	1.0001468658447266
54	243.22803616523743	pulse	0	t		52.0	2.5	/experiments/knapen_AOT/AOT_stimuli/rescaled_final/2171_rv.mp4	0.0	299.66140031814575	
54	243.23610997200012	movie	1		245	52.0	2.5	/experiments/knapen_AOT/AOT_stimuli/rescaled_final/2171_rv.mp4	0.0	299.66947412490845	2.508836030960083
54	244.83257603645325	pulse	1	t		52.0	2.5	/experiments/knapen_AOT/AOT_stimuli/rescaled_final/2171_rv.mp4	0.0	301.2659401893616	
54	245.7449460029602	fix_post	2		12	52.0	2.5	/experiments/knapen_AOT/AOT_stimuli/rescaled_final/2171_rv.mp4	0.0	302.17831015586853	0.09988212585449219
55	245.8448281288147	fix_pre	0		120	53.0	2.5	/experiments/knapen_AOT/AOT_stimuli/rescaled_final/0360_rv.mp4	0.0	302.278192281723	1.0001640319824219
55	246.4284610748291	pulse	0	t		53.0	2.5	/experiments/knapen_AOT/AOT_stimuli/rescaled_final/0360_rv.mp4	0.0	302.8618252277374	
55	246.84499216079712	movie	1		245	53.0	2.5	/experiments/knapen_AOT/AOT_stimuli/rescaled_final/0360_rv.mp4	0.0	303.27835631370544	2.500393867492676
55	248.0288121700287	pulse	1	t		53.0	2.5	/experiments/knapen_AOT/AOT_stimuli/rescaled_final/0360_rv.mp4	0.0	304.462176322937	
55	249.3453860282898	fix_post	2		12	53.0	2.5	/experiments/knapen_AOT/AOT_stimuli/rescaled_final/0360_rv.mp4	0.0	305.7787501811981	0.09997296333312988
56	249.44535899162292	fix_pre	0		120	54.0	2.5	/experiments/knapen_AOT/AOT_stimuli/rescaled_final/1881_fw.mp4	0.0	305.87872314453125	1.000176191329956
56	249.62899112701416	pulse	0	t		54.0	2.5	/experiments/knapen_AOT/AOT_stimuli/rescaled_final/1881_fw.mp4	0.0	306.0623552799225	
56	250.44553518295288	movie	1		245	54.0	2.5	/experiments/knapen_AOT/AOT_stimuli/rescaled_final/1881_fw.mp4	0.0	306.8788993358612	2.50036883354187
56	251.22916102409363	pulse	1	t		54.0	2.5	/experiments/knapen_AOT/AOT_stimuli/rescaled_final/1881_fw.mp4	0.0	307.66252517700195	
56	252.82701897621155	pulse	1	t		54.0	2.5	/experiments/knapen_AOT/AOT_stimuli/rescaled_final/1881_fw.mp4	0.0	309.2603831291199	
56	252.94590401649475	fix_post	2		12	54.0	2.5	/experiments/knapen_AOT/AOT_stimuli/rescaled_final/1881_fw.mp4	0.0	309.3792681694031	0.10001707077026367
57	253.04592108726501	fix_pre	0		120	55.0	2.5	/experiments/knapen_AOT/AOT_stimuli/rescaled_final/1682_fw.mp4	0.0	309.47928524017334	1.0001559257507324
57	254.04607701301575	movie	1		244	55.0	2.5	/experiments/knapen_AOT/AOT_stimuli/rescaled_final/1682_fw.mp4	0.0	310.4794411659241	2.492016077041626
57	254.4302580356598	pulse	1	t		55.0	2.5	/experiments/knapen_AOT/AOT_stimuli/rescaled_final/1682_fw.mp4	0.0	310.8636221885681	
57	256.0300130844116	pulse	1	t		55.0	2.5	/experiments/knapen_AOT/AOT_stimuli/rescaled_final/1682_fw.mp4	0.0	312.46337723731995	
57	256.5380930900574	fix_post	2		12	55.0	2.5	/experiments/knapen_AOT/AOT_stimuli/rescaled_final/1682_fw.mp4	0.0	312.9714572429657	0.10001993179321289
58	256.6381130218506	fix_pre	0		120	56.0	2.5	blank	1.0	313.0714771747589	1.0001699924468994
58	257.63014817237854	pulse	0	t		56.0	2.5	blank	1.0	314.06351232528687	
58	257.6382830142975	movie	1		301	56.0	2.5	blank	1.0	314.0716471672058	2.5087060928344727
58	259.2304620742798	pulse	1	t		56.0	2.5	blank	1.0	315.6638262271881	
58	260.14698910713196	fix_post	2		12	56.0	2.5	blank	1.0	316.5803532600403	0.09998893737792969
59	260.2469780445099	fix_pre	0		120	57.0	2.5	/experiments/knapen_AOT/AOT_stimuli/rescaled_final/0107_fw.mp4	0.0	316.6803421974182	1.0001771450042725
59	260.8306360244751	pulse	0	t		57.0	2.5	/experiments/knapen_AOT/AOT_stimuli/rescaled_final/0107_fw.mp4	0.0	317.2640001773834	
59	261.24715518951416	movie	1		247	57.0	2.5	/experiments/knapen_AOT/AOT_stimuli/rescaled_final/0107_fw.mp4	0.0	317.6805193424225	2.5003528594970703
59	262.4309229850769	pulse	1	t		57.0	2.5	/experiments/knapen_AOT/AOT_stimuli/rescaled_final/0107_fw.mp4	0.0	318.86428713798523	
59	263.74750804901123	fix_post	2		12	57.0	2.5	/experiments/knapen_AOT/AOT_stimuli/rescaled_final/0107_fw.mp4	0.0	320.18087220191956	0.10005497932434082
60	263.84756302833557	fix_pre	0		119	58.0	2.5	/experiments/knapen_AOT/AOT_stimuli/rescaled_final/0073_fw.mp4	0.0	320.2809271812439	1.0001370906829834
60	264.02360010147095	pulse	0	t		58.0	2.5	/experiments/knapen_AOT/AOT_stimuli/rescaled_final/0073_fw.mp4	0.0	320.4569642543793	
60	264.84770011901855	movie	1		244	58.0	2.5	/experiments/knapen_AOT/AOT_stimuli/rescaled_final/0073_fw.mp4	0.0	321.2810642719269	2.5003979206085205
60	265.62398505210876	pulse	1	t		58.0	2.5	/experiments/knapen_AOT/AOT_stimuli/rescaled_final/0073_fw.mp4	0.0	322.0573492050171	
60	267.2315499782562	pulse	1	t		58.0	2.5	/experiments/knapen_AOT/AOT_stimuli/rescaled_final/0073_fw.mp4	0.0	323.66491413116455	
60	267.3480980396271	fix_post	2		12	58.0	2.5	/experiments/knapen_AOT/AOT_stimuli/rescaled_final/0073_fw.mp4	0.0	323.7814621925354	0.09996509552001953
61	267.4480631351471	fix_pre	0		120	59.0	2.5	/experiments/knapen_AOT/AOT_stimuli/rescaled_final/1869_rv.mp4	0.0	323.8814272880554	1.0002260208129883
61	268.4482891559601	movie	1		242	59.0	2.5	/experiments/knapen_AOT/AOT_stimuli/rescaled_final/1869_rv.mp4	0.0	324.8816533088684	2.4919979572296143
61	268.83223009109497	pulse	1	t		59.0	2.5	/experiments/knapen_AOT/AOT_stimuli/rescaled_final/1869_rv.mp4	0.0	325.2655942440033	
61	270.4246242046356	pulse	1	t		59.0	2.5	/experiments/knapen_AOT/AOT_stimuli/rescaled_final/1869_rv.mp4	0.0	326.85798835754395	
61	270.9402871131897	fix_post	2		12	59.0	2.5	/experiments/knapen_AOT/AOT_stimuli/rescaled_final/1869_rv.mp4	0.0	327.373651266098	0.09997797012329102
62	271.040265083313	fix_pre	0		119	60.0	2.5	/experiments/knapen_AOT/AOT_stimuli/rescaled_final/0592_fw.mp4	0.0	327.4736292362213	0.9918389320373535
62	272.02388620376587	pulse	0	t		60.0	2.5	/experiments/knapen_AOT/AOT_stimuli/rescaled_final/0592_fw.mp4	0.0	328.4572503566742	
62	272.03210401535034	movie	1		247	60.0	2.5	/experiments/knapen_AOT/AOT_stimuli/rescaled_final/0592_fw.mp4	0.0	328.46546816825867	2.5086991786956787
62	273.62472200393677	pulse	1	t		60.0	2.5	/experiments/knapen_AOT/AOT_stimuli/rescaled_final/0592_fw.mp4	0.0	330.0580861568451	
62	274.540803194046	fix_post	2		12	60.0	2.5	/experiments/knapen_AOT/AOT_stimuli/rescaled_final/0592_fw.mp4	0.0	330.97416734695435	0.10005784034729004
63	274.6408610343933	fix_pre	0		120	61.0	2.5	blank	1.0	331.07422518730164	1.0000970363616943
63	275.2245512008667	pulse	0	t		61.0	2.5	blank	1.0	331.657915353775	
63	275.640958070755	movie	1		300	61.0	2.5	blank	1.0	332.07432222366333	2.5004000663757324
63	276.8247652053833	pulse	1	t		61.0	2.5	blank	1.0	333.2581293582916	
63	278.14135813713074	fix_post	2		12	61.0	2.5	blank	1.0	334.57472229003906	0.09998083114624023
64	278.241338968277	fix_pre	0		120	62.0	2.5	/experiments/knapen_AOT/AOT_stimuli/rescaled_final/0123_rv.mp4	0.0	334.6747031211853	1.0001661777496338
64	278.4249391555786	pulse	0	t		62.0	2.5	/experiments/knapen_AOT/AOT_stimuli/rescaled_final/0123_rv.mp4	0.0	334.85830330848694	
64	279.2415051460266	movie	1		243	62.0	2.5	/experiments/knapen_AOT/AOT_stimuli/rescaled_final/0123_rv.mp4	0.0	335.67486929893494	2.5003440380096436
64	280.02514004707336	pulse	1	t		62.0	2.5	/experiments/knapen_AOT/AOT_stimuli/rescaled_final/0123_rv.mp4	0.0	336.4585041999817	
64	281.6252360343933	pulse	1	t		62.0	2.5	/experiments/knapen_AOT/AOT_stimuli/rescaled_final/0123_rv.mp4	0.0	338.05860018730164	
64	281.74184918403625	fix_post	2		12	62.0	2.5	/experiments/knapen_AOT/AOT_stimuli/rescaled_final/0123_rv.mp4	0.0	338.1752133369446	0.10001301765441895
65	281.8418622016907	fix_pre	0		119	63.0	2.5	/experiments/knapen_AOT/AOT_stimuli/rescaled_final/1608_rv.mp4	0.0	338.275226354599	0.9918379783630371
65	282.8337001800537	movie	1		244	63.0	2.5	/experiments/knapen_AOT/AOT_stimuli/rescaled_final/1608_rv.mp4	0.0	339.26706433296204	2.5003538131713867
65	283.22574400901794	pulse	1	t		63.0	2.5	/experiments/knapen_AOT/AOT_stimuli/rescaled_final/1608_rv.mp4	0.0	339.65910816192627	
65	284.82591009140015	pulse	1	t		63.0	2.5	/experiments/knapen_AOT/AOT_stimuli/rescaled_final/1608_rv.mp4	0.0	341.2592742443085	
65	285.3340539932251	fix_post	2		12	63.0	2.5	/experiments/knapen_AOT/AOT_stimuli/rescaled_final/1608_rv.mp4	0.0	341.7674181461334	0.10002899169921875
66	285.4340829849243	fix_pre	0		120	64.0	2.5	/experiments/knapen_AOT/AOT_stimuli/rescaled_final/1551_fw.mp4	0.0	341.86744713783264	1.0001611709594727
66	286.42605209350586	pulse	0	t		64.0	2.5	/experiments/knapen_AOT/AOT_stimuli/rescaled_final/1551_fw.mp4	0.0	342.8594162464142	
66	286.4342441558838	movie	1		246	64.0	2.5	/experiments/knapen_AOT/AOT_stimuli/rescaled_final/1551_fw.mp4	0.0	342.8676083087921	2.5087149143218994
66	288.03052401542664	pulse	1	t		64.0	2.5	/experiments/knapen_AOT/AOT_stimuli/rescaled_final/1551_fw.mp4	0.0	344.46388816833496	
66	288.9429590702057	fix_post	2		12	64.0	2.5	/experiments/knapen_AOT/AOT_stimuli/rescaled_final/1551_fw.mp4	0.0	345.376323223114	0.100006103515625
67	289.0429651737213	fix_pre	0		120	65.0	2.5	/experiments/knapen_AOT/AOT_stimuli/rescaled_final/1365_fw.mp4	0.0	345.47632932662964	1.0001590251922607
67	289.62670397758484	pulse	0	t		65.0	2.5	/experiments/knapen_AOT/AOT_stimuli/rescaled_final/1365_fw.mp4	0.0	346.06006813049316	
67	290.0431241989136	movie	1		244	65.0	2.5	/experiments/knapen_AOT/AOT_stimuli/rescaled_final/1365_fw.mp4	0.0	346.4764883518219	2.500347852706909
67	291.2268691062927	pulse	1	t		65.0	2.5	/experiments/knapen_AOT/AOT_stimuli/rescaled_final/1365_fw.mp4	0.0	347.66023325920105	
67	292.5434720516205	fix_post	2		12	65.0	2.5	/experiments/knapen_AOT/AOT_stimuli/rescaled_final/1365_fw.mp4	0.0	348.9768362045288	0.10000109672546387
68	292.64347314834595	fix_pre	0		120	66.0	2.5	/experiments/knapen_AOT/AOT_stimuli/rescaled_final/0615_fw.mp4	0.0	349.0768373012543	1.0002028942108154
68	292.8270161151886	pulse	0	t		66.0	2.5	/experiments/knapen_AOT/AOT_stimuli/rescaled_final/0615_fw.mp4	0.0	349.2603802680969	
68	293.64367604255676	movie	1		244	66.0	2.5	/experiments/knapen_AOT/AOT_stimuli/rescaled_final/0615_fw.mp4	0.0	350.0770401954651	2.50034499168396
68	294.42746210098267	pulse	1	t		66.0	2.5	/experiments/knapen_AOT/AOT_stimuli/rescaled_final/0615_fw.mp4	0.0	350.860826253891	
68	296.0309782028198	pulse	1	t		66.0	2.5	/experiments/knapen_AOT/AOT_stimuli/rescaled_final/0615_fw.mp4	0.0	352.46434235572815	
68	296.1440210342407	fix_post	2		12	66.0	2.5	/experiments/knapen_AOT/AOT_stimuli/rescaled_final/0615_fw.mp4	0.0	352.57738518714905	0.100006103515625
69	296.24402713775635	fix_pre	0		119	67.0	2.5	/experiments/knapen_AOT/AOT_stimuli/rescaled_final/2104_rv.mp4	0.0	352.6773912906647	0.9918239116668701
69	297.2358510494232	movie	1		245	67.0	2.5	/experiments/knapen_AOT/AOT_stimuli/rescaled_final/2104_rv.mp4	0.0	353.66921520233154	2.500357151031494
69	297.6278660297394	pulse	1	t		67.0	2.5	/experiments/knapen_AOT/AOT_stimuli/rescaled_final/2104_rv.mp4	0.0	354.0612301826477	
69	299.228000164032	pulse	1	t		67.0	2.5	/experiments/knapen_AOT/AOT_stimuli/rescaled_final/2104_rv.mp4	0.0	355.6613643169403	
69	299.7362082004547	fix_post	2		12	67.0	2.5	/experiments/knapen_AOT/AOT_stimuli/rescaled_final/2104_rv.mp4	0.0	356.16957235336304	0.10001683235168457
70	299.8362250328064	fix_pre	0		120	68.0	2.5	/experiments/knapen_AOT/AOT_stimuli/rescaled_final/0199_fw.mp4	0.0	356.2695891857147	1.000154972076416
70	300.828222990036	pulse	0	t		68.0	2.5	/experiments/knapen_AOT/AOT_stimuli/rescaled_final/0199_fw.mp4	0.0	357.26158714294434	
70	300.8363800048828	movie	1		247	68.0	2.5	/experiments/knapen_AOT/AOT_stimuli/rescaled_final/0199_fw.mp4	0.0	357.26974415779114	2.5086941719055176
70	302.42916798591614	pulse	1	t		68.0	2.5	/experiments/knapen_AOT/AOT_stimuli/rescaled_final/0199_fw.mp4	0.0	358.86253213882446	
70	303.34507417678833	fix_post	2		12	68.0	2.5	/experiments/knapen_AOT/AOT_stimuli/rescaled_final/0199_fw.mp4	0.0	359.77843832969666	0.10002779960632324
71	303.44510197639465	fix_pre	0		120	69.0	2.5	blank	1.0	359.878466129303	1.0001580715179443
71	304.0288619995117	pulse	0	t		69.0	2.5	blank	1.0	360.46222615242004	
71	304.4452600479126	movie	1		300	69.0	2.5	blank	1.0	360.8786242008209	2.500375986099243
71	305.6289839744568	pulse	1	t		69.0	2.5	blank	1.0	362.0623481273651	
71	306.94563603401184	fix_post	2		12	69.0	2.5	blank	1.0	363.37900018692017	0.10001206398010254
72	307.04564809799194	fix_pre	0		120	70.0	2.5	/experiments/knapen_AOT/AOT_stimuli/rescaled_final/0651_fw.mp4	0.0	363.47901225090027	1.0001530647277832
72	307.2291491031647	pulse	0	t		70.0	2.5	/experiments/knapen_AOT/AOT_stimuli/rescaled_final/0651_fw.mp4	0.0	363.662513256073	
72	308.0458011627197	movie	1		245	70.0	2.5	/experiments/knapen_AOT/AOT_stimuli/rescaled_final/0651_fw.mp4	0.0	364.47916531562805	2.5003678798675537
72	308.8296241760254	pulse	1	t		70.0	2.5	/experiments/knapen_AOT/AOT_stimuli/rescaled_final/0651_fw.mp4	0.0	365.2629883289337	
72	310.4299530982971	pulse	1	t		70.0	2.5	/experiments/knapen_AOT/AOT_stimuli/rescaled_final/0651_fw.mp4	0.0	366.86331725120544	
72	310.5461690425873	fix_post	2		12	70.0	2.5	/experiments/knapen_AOT/AOT_stimuli/rescaled_final/0651_fw.mp4	0.0	366.9795331954956	0.10003399848937988
73	310.64620304107666	fix_pre	0		119	71.0	2.5	/experiments/knapen_AOT/AOT_stimuli/rescaled_final/1858_fw.mp4	0.0	367.079567193985	0.9918100833892822
73	311.63801312446594	movie	1		244	71.0	2.5	/experiments/knapen_AOT/AOT_stimuli/rescaled_final/1858_fw.mp4	0.0	368.07137727737427	2.5004100799560547
73	312.0299081802368	pulse	1	t		71.0	2.5	/experiments/knapen_AOT/AOT_stimuli/rescaled_final/1858_fw.mp4	0.0	368.46327233314514	
73	313.6301021575928	pulse	1	t		71.0	2.5	/experiments/knapen_AOT/AOT_stimuli/rescaled_final/1858_fw.mp4	0.0	370.0634663105011	
73	314.138423204422	fix_post	2		12	71.0	2.5	/experiments/knapen_AOT/AOT_stimuli/rescaled_final/1858_fw.mp4	0.0	370.5717873573303	0.09999990463256836
74	314.23842310905457	fix_pre	0		120	72.0	2.5	/experiments/knapen_AOT/AOT_stimuli/rescaled_final/1988_fw.mp4	0.0	370.6717872619629	1.0001399517059326
74	315.2303960323334	pulse	0	t		72.0	2.5	/experiments/knapen_AOT/AOT_stimuli/rescaled_final/1988_fw.mp4	0.0	371.6637601852417	
74	315.2385630607605	movie	1		245	72.0	2.5	/experiments/knapen_AOT/AOT_stimuli/rescaled_final/1988_fw.mp4	0.0	371.6719272136688	2.5086429119110107
74	316.8310191631317	pulse	1	t		72.0	2.5	/experiments/knapen_AOT/AOT_stimuli/rescaled_final/1988_fw.mp4	0.0	373.26438331604004	
74	317.7472059726715	fix_post	2		12	72.0	2.5	/experiments/knapen_AOT/AOT_stimuli/rescaled_final/1988_fw.mp4	0.0	374.18057012557983	0.10005521774291992
75	317.84726119041443	fix_pre	0		120	73.0	2.5	/experiments/knapen_AOT/AOT_stimuli/rescaled_final/0208_rv.mp4	0.0	374.28062534332275	1.0001718997955322
75	318.42349910736084	pulse	0	t		73.0	2.5	/experiments/knapen_AOT/AOT_stimuli/rescaled_final/0208_rv.mp4	0.0	374.85686326026917	
75	318.84743309020996	movie	1		246	73.0	2.5	/experiments/knapen_AOT/AOT_stimuli/rescaled_final/0208_rv.mp4	0.0	375.2807972431183	2.5003650188446045
75	320.0237431526184	pulse	1	t		73.0	2.5	/experiments/knapen_AOT/AOT_stimuli/rescaled_final/0208_rv.mp4	0.0	376.45710730552673	
75	321.34779810905457	fix_post	2		12	73.0	2.5	/experiments/knapen_AOT/AOT_stimuli/rescaled_final/0208_rv.mp4	0.0	377.7811622619629	0.09999990463256836
76	321.44779801368713	fix_pre	0		120	74.0	2.5	/experiments/knapen_AOT/AOT_stimuli/rescaled_final/0140_fw.mp4	0.0	377.88116216659546	1.0001561641693115
76	321.6238601207733	pulse	0	t		74.0	2.5	/experiments/knapen_AOT/AOT_stimuli/rescaled_final/0140_fw.mp4	0.0	378.05722427368164	
76	322.44795417785645	movie	1		245	74.0	2.5	/experiments/knapen_AOT/AOT_stimuli/rescaled_final/0140_fw.mp4	0.0	378.88131833076477	2.5003387928009033
76	323.22340297698975	pulse	1	t		74.0	2.5	/experiments/knapen_AOT/AOT_stimuli/rescaled_final/0140_fw.mp4	0.0	379.65676712989807	
76	324.8234691619873	pulse	1	t		74.0	2.5	/experiments/knapen_AOT/AOT_stimuli/rescaled_final/0140_fw.mp4	0.0	381.25683331489563	
76	324.94829297065735	fix_post	2		11	74.0	2.5	/experiments/knapen_AOT/AOT_stimuli/rescaled_final/0140_fw.mp4	0.0	381.3816571235657	0.1000821590423584
77	325.0483751296997	fix_pre	0		119	75.0	2.5	/experiments/knapen_AOT/AOT_stimuli/rescaled_final/2122_fw.mp4	0.0	381.48173928260803	0.9917600154876709
77	326.0401351451874	movie	1		244	75.0	2.5	/experiments/knapen_AOT/AOT_stimuli/rescaled_final/2122_fw.mp4	0.0	382.4734992980957	2.5004019737243652
77	326.424259185791	pulse	1	t		75.0	2.5	/experiments/knapen_AOT/AOT_stimuli/rescaled_final/2122_fw.mp4	0.0	382.85762333869934	
77	328.0239930152893	pulse	1	t		75.0	2.5	/experiments/knapen_AOT/AOT_stimuli/rescaled_final/2122_fw.mp4	0.0	384.45735716819763	
77	328.54053711891174	fix_post	2		12	75.0	2.5	/experiments/knapen_AOT/AOT_stimuli/rescaled_final/2122_fw.mp4	0.0	384.97390127182007	0.10000395774841309
78	328.64054107666016	fix_pre	0		119	76.0	2.5	/experiments/knapen_AOT/AOT_stimuli/rescaled_final/1495_fw.mp4	0.0	385.0739052295685	0.9918160438537598
78	329.6241490840912	pulse	0	t		76.0	2.5	/experiments/knapen_AOT/AOT_stimuli/rescaled_final/1495_fw.mp4	0.0	386.0575132369995	
78	329.6323571205139	movie	1		246	76.0	2.5	/experiments/knapen_AOT/AOT_stimuli/rescaled_final/1495_fw.mp4	0.0	386.06572127342224	2.508683919906616
78	331.2251441478729	pulse	1	t		76.0	2.5	/experiments/knapen_AOT/AOT_stimuli/rescaled_final/1495_fw.mp4	0.0	387.65850830078125	
78	332.14104104042053	fix_post	2		12	76.0	2.5	/experiments/knapen_AOT/AOT_stimuli/rescaled_final/1495_fw.mp4	0.0	388.57440519332886	0.1000211238861084
79	332.24106216430664	fix_pre	0		120	77.0	2.5	blank	1.0	388.67442631721497	1.000154972076416
79	332.8248131275177	pulse	0	t		77.0	2.5	blank	1.0	389.258177280426	
79	333.24121713638306	movie	1		300	77.0	2.5	blank	1.0	389.6745812892914	2.500380039215088
79	334.4248991012573	pulse	1	t		77.0	2.5	blank	1.0	390.85826325416565	
79	335.74159717559814	fix_post	2		12	77.0	2.5	blank	1.0	392.17496132850647	0.10007596015930176
80	335.84167313575745	fix_pre	0		120	78.0	2.5	/experiments/knapen_AOT/AOT_stimuli/rescaled_final/1433_fw.mp4	0.0	392.27503728866577	1.000079870223999
80	336.0251259803772	pulse	0	t		78.0	2.5	/experiments/knapen_AOT/AOT_stimuli/rescaled_final/1433_fw.mp4	0.0	392.4584901332855	
80	336.84175300598145	movie	1		245	78.0	2.5	/experiments/knapen_AOT/AOT_stimuli/rescaled_final/1433_fw.mp4	0.0	393.27511715888977	2.500392198562622
80	337.6254332065582	pulse	1	t		78.0	2.5	/experiments/knapen_AOT/AOT_stimuli/rescaled_final/1433_fw.mp4	0.0	394.05879735946655	
80	339.2256920337677	pulse	1	t		78.0	2.5	/experiments/knapen_AOT/AOT_stimuli/rescaled_final/1433_fw.mp4	0.0	395.659056186676	
80	339.34214520454407	fix_post	2		12	78.0	2.5	/experiments/knapen_AOT/AOT_stimuli/rescaled_final/1433_fw.mp4	0.0	395.7755093574524	0.0999608039855957
81	339.44210600852966	fix_pre	0		119	79.0	2.5	/experiments/knapen_AOT/AOT_stimuli/rescaled_final/0986_rv.mp4	0.0	395.875470161438	0.991854190826416
81	340.4339601993561	movie	1		244	79.0	2.5	/experiments/knapen_AOT/AOT_stimuli/rescaled_final/0986_rv.mp4	0.0	396.8673243522644	2.5003678798675537
81	340.8259811401367	pulse	1	t		79.0	2.5	/experiments/knapen_AOT/AOT_stimuli/rescaled_final/0986_rv.mp4	0.0	397.25934529304504	
81	342.42605805397034	pulse	1	t		79.0	2.5	/experiments/knapen_AOT/AOT_stimuli/rescaled_final/0986_rv.mp4	0.0	398.85942220687866	
81	342.93432807922363	fix_post	2		12	79.0	2.5	/experiments/knapen_AOT/AOT_stimuli/rescaled_final/0986_rv.mp4	0.0	399.36769223213196	0.10002803802490234
82	343.03435611724854	fix_pre	0		120	80.0	2.5	/experiments/knapen_AOT/AOT_stimuli/rescaled_final/0103_rv.mp4	0.0	399.46772027015686	1.0001399517059326
82	344.02646803855896	pulse	0	t		80.0	2.5	/experiments/knapen_AOT/AOT_stimuli/rescaled_final/0103_rv.mp4	0.0	400.4598321914673	
82	344.03449606895447	movie	1		245	80.0	2.5	/experiments/knapen_AOT/AOT_stimuli/rescaled_final/0103_rv.mp4	0.0	400.4678602218628	2.5087599754333496
82	345.62741017341614	pulse	1	t		80.0	2.5	/experiments/knapen_AOT/AOT_stimuli/rescaled_final/0103_rv.mp4	0.0	402.06077432632446	
82	346.5432560443878	fix_post	2		12	80.0	2.5	/experiments/knapen_AOT/AOT_stimuli/rescaled_final/0103_rv.mp4	0.0	402.97662019729614	0.09998393058776855
83	346.6432399749756	fix_pre	0		120	81.0	2.5	/experiments/knapen_AOT/AOT_stimuli/rescaled_final/1184_rv.mp4	0.0	403.0766041278839	1.000124216079712
83	347.226900100708	pulse	0	t		81.0	2.5	/experiments/knapen_AOT/AOT_stimuli/rescaled_final/1184_rv.mp4	0.0	403.66026425361633	
83	347.6433641910553	movie	1		244	81.0	2.5	/experiments/knapen_AOT/AOT_stimuli/rescaled_final/1184_rv.mp4	0.0	404.0767283439636	2.500382900238037
83	348.82727909088135	pulse	1	t		81.0	2.5	/experiments/knapen_AOT/AOT_stimuli/rescaled_final/1184_rv.mp4	0.0	405.2606432437897	
83	350.14374709129333	fix_post	2		12	81.0	2.5	/experiments/knapen_AOT/AOT_stimuli/rescaled_final/1184_rv.mp4	0.0	406.57711124420166	0.10002493858337402
84	350.2437720298767	fix_pre	0		120	82.0	2.5	blank	1.0	406.67713618278503	1.0001189708709717
84	350.4273121356964	pulse	0	t		82.0	2.5	blank	1.0	406.86067628860474	
84	351.2438910007477	movie	1		300	82.0	2.5	blank	1.0	407.677255153656	2.500408172607422
84	352.02763319015503	pulse	1	t		82.0	2.5	blank	1.0	408.46099734306335	
84	353.6277811527252	pulse	1	t		82.0	2.5	blank	1.0	410.06114530563354	
84	353.7442991733551	fix_post	2		12	82.0	2.5	blank	1.0	410.1776633262634	0.09998202323913574
85	353.84428119659424	fix_pre	0		120	83.0	2.5	/experiments/knapen_AOT/AOT_stimuli/rescaled_final/0210_rv.mp4	0.0	410.27764534950256	1.000147819519043
85	354.8444290161133	movie	1		243	83.0	2.5	/experiments/knapen_AOT/AOT_stimuli/rescaled_final/0210_rv.mp4	0.0	411.2777931690216	2.4920241832733154
85	355.22921109199524	pulse	1	t		83.0	2.5	/experiments/knapen_AOT/AOT_stimuli/rescaled_final/0210_rv.mp4	0.0	411.66257524490356	
85	356.8282392024994	pulse	1	t		83.0	2.5	/experiments/knapen_AOT/AOT_stimuli/rescaled_final/0210_rv.mp4	0.0	413.2616033554077	
85	357.3364531993866	fix_post	2		12	83.0	2.5	/experiments/knapen_AOT/AOT_stimuli/rescaled_final/0210_rv.mp4	0.0	413.7698173522949	0.10003495216369629
87	357.4364881515503	stim	0		1716					413.8698523044586	14.30211091041565
87	358.4285671710968	pulse	0	t						414.8619313240051	
87	360.0287220478058	pulse	0	t						416.4620862007141	
87	361.6289801597595	pulse	0	t						418.06234431266785	
87	363.2292821407318	pulse	0	t						419.66264629364014	
87	364.82949709892273	pulse	0	t						421.26286125183105	
87	366.4296991825104	pulse	0	t						422.8630633354187	
87	368.02991914749146	pulse	0	t						424.4632833003998	
87	369.6301131248474	pulse	0	t						426.06347727775574	
87	371.2305212020874	pulse	0	t						427.6638853549957	
