trial_nr	onset	event_type	phase	response	nr_frames	movie_index	movie_duration	movie_file	blank	onset_abs	duration
0	0.17495369911193848	stim	0		1					15.788855791091919	0.008225440979003906
0	0.1319887638092041	response	0	space						15.745890855789185	
1	0.18317914009094238	stim	0		4829					15.797081232070923	40.257471561431885
1	40.43050146102905	pulse	0	t						56.04440355300903	
1	40.44065070152283	stim	1		1715					56.05455279350281	14.300857067108154
1	42.01537466049194	pulse	1	t						57.629276752471924	
1	43.6151328086853	pulse	1	t						59.22903490066528	
1	45.21516728401184	pulse	1	t						60.82906937599182	
1	46.815670013427734	pulse	1	t						62.429572105407715	
1	48.41564130783081	pulse	1	t						64.02954339981079	
1	50.015987396240234	pulse	1	t						65.62988948822021	
1	51.6161744594574	pulse	1	t						67.23007655143738	
1	53.21631193161011	pulse	1	t						68.83021402359009	
2	54.74150776863098	fix_pre	0		10	0.0	2.5	/experiments/knapen_AOT/AOT_stimuli/rescaled_final/0182_rv.mp4	0.0	70.35540986061096	0.09993624687194824
2	54.81672215461731	pulse	0	t		0.0	2.5	/experiments/knapen_AOT/AOT_stimuli/rescaled_final/0182_rv.mp4	0.0	70.43062424659729	
2	54.84144401550293	movie	1		288	0.0	2.5	/experiments/knapen_AOT/AOT_stimuli/rescaled_final/0182_rv.mp4	0.0	70.45534610748291	2.491978645324707
2	56.416231632232666	pulse	1	t		0.0	2.5	/experiments/knapen_AOT/AOT_stimuli/rescaled_final/0182_rv.mp4	0.0	72.03013372421265	
2	57.33342266082764	fix_post	2		12	0.0	2.5	/experiments/knapen_AOT/AOT_stimuli/rescaled_final/0182_rv.mp4	0.0	72.94732475280762	0.09999680519104004
3	57.43341946601868	fix_pre	0		120	1.0	2.5	/experiments/knapen_AOT/AOT_stimuli/rescaled_final/1013_rv.mp4	0.0	73.04732155799866	1.0086891651153564
3	58.017152070999146	pulse	0	t		1.0	2.5	/experiments/knapen_AOT/AOT_stimuli/rescaled_final/1013_rv.mp4	0.0	73.63105416297913	
3	58.44210863113403	movie	1		288	1.0	2.5	/experiments/knapen_AOT/AOT_stimuli/rescaled_final/1013_rv.mp4	0.0	74.05601072311401	2.491837501525879
3	59.61565637588501	pulse	1	t		1.0	2.5	/experiments/knapen_AOT/AOT_stimuli/rescaled_final/1013_rv.mp4	0.0	75.22955846786499	
3	60.93394613265991	fix_post	2		12	1.0	2.5	/experiments/knapen_AOT/AOT_stimuli/rescaled_final/1013_rv.mp4	0.0	76.54784822463989	0.10002446174621582
4	61.03397059440613	fix_pre	0		120	2.0	2.5	/experiments/knapen_AOT/AOT_stimuli/rescaled_final/0166_rv.mp4	0.0	76.64787268638611	1.008523941040039
4	61.21761393547058	pulse	0	t		2.0	2.5	/experiments/knapen_AOT/AOT_stimuli/rescaled_final/0166_rv.mp4	0.0	76.83151602745056	
4	62.04249453544617	movie	1		292	2.0	2.5	/experiments/knapen_AOT/AOT_stimuli/rescaled_final/0166_rv.mp4	0.0	77.65639662742615	2.492060899734497
4	62.8158917427063	pulse	1	t		2.0	2.5	/experiments/knapen_AOT/AOT_stimuli/rescaled_final/0166_rv.mp4	0.0	78.42979383468628	
4	64.41617751121521	pulse	1	t		2.0	2.5	/experiments/knapen_AOT/AOT_stimuli/rescaled_final/0166_rv.mp4	0.0	80.03007960319519	
4	64.53455543518066	fix_post	2		12	2.0	2.5	/experiments/knapen_AOT/AOT_stimuli/rescaled_final/0166_rv.mp4	0.0	80.14845752716064	0.09997820854187012
5	64.63453364372253	fix_pre	0		120	3.0	2.5	/experiments/knapen_AOT/AOT_stimuli/rescaled_final/0619_fw.mp4	0.0	80.24843573570251	1.0085046291351318
5	65.64303827285767	movie	1		285	3.0	2.5	/experiments/knapen_AOT/AOT_stimuli/rescaled_final/0619_fw.mp4	0.0	81.25694036483765	2.492023468017578
5	66.01646327972412	pulse	1	t		3.0	2.5	/experiments/knapen_AOT/AOT_stimuli/rescaled_final/0619_fw.mp4	0.0	81.6303653717041	
5	67.61620831489563	pulse	1	t		3.0	2.5	/experiments/knapen_AOT/AOT_stimuli/rescaled_final/0619_fw.mp4	0.0	83.23011040687561	
5	68.13506174087524	fix_post	2		12	3.0	2.5	/experiments/knapen_AOT/AOT_stimuli/rescaled_final/0619_fw.mp4	0.0	83.74896383285522	0.0999908447265625
6	68.2350525856018	fix_pre	0		119	4.0	2.5	/experiments/knapen_AOT/AOT_stimuli/rescaled_final/0009_rv.mp4	0.0	83.84895467758179	1.0001702308654785
6	69.21969532966614	pulse	0	t		4.0	2.5	/experiments/knapen_AOT/AOT_stimuli/rescaled_final/0009_rv.mp4	0.0	84.83359742164612	
6	69.23522281646729	movie	1		278	4.0	2.5	/experiments/knapen_AOT/AOT_stimuli/rescaled_final/0009_rv.mp4	0.0	84.84912490844727	2.5005686283111572
6	70.8188374042511	pulse	1	t		4.0	2.5	/experiments/knapen_AOT/AOT_stimuli/rescaled_final/0009_rv.mp4	0.0	86.43273949623108	
6	71.73579144477844	fix_post	2		12	4.0	2.5	/experiments/knapen_AOT/AOT_stimuli/rescaled_final/0009_rv.mp4	0.0	87.34969353675842	0.09981298446655273
7	71.835604429245	fix_pre	0		120	5.0	2.5	/experiments/knapen_AOT/AOT_stimuli/rescaled_final/1907_rv.mp4	0.0	87.44950652122498	1.0084717273712158
7	72.4192202091217	pulse	0	t		5.0	2.5	/experiments/knapen_AOT/AOT_stimuli/rescaled_final/1907_rv.mp4	0.0	88.03312230110168	
7	72.84407615661621	movie	1		281	5.0	2.5	/experiments/knapen_AOT/AOT_stimuli/rescaled_final/1907_rv.mp4	0.0	88.45797824859619	2.492048501968384
7	74.01780915260315	pulse	1	t		5.0	2.5	/experiments/knapen_AOT/AOT_stimuli/rescaled_final/1907_rv.mp4	0.0	89.63171124458313	
7	75.3361246585846	fix_post	2		12	5.0	2.5	/experiments/knapen_AOT/AOT_stimuli/rescaled_final/1907_rv.mp4	0.0	90.95002675056458	0.10005402565002441
8	75.43617868423462	fix_pre	0		120	6.0	2.5	/experiments/knapen_AOT/AOT_stimuli/rescaled_final/0753_fw.mp4	0.0	91.0500807762146	1.0085058212280273
8	75.6198992729187	pulse	0	t		6.0	2.5	/experiments/knapen_AOT/AOT_stimuli/rescaled_final/0753_fw.mp4	0.0	91.23380136489868	
8	76.44468450546265	movie	1		287	6.0	2.5	/experiments/knapen_AOT/AOT_stimuli/rescaled_final/0753_fw.mp4	0.0	92.05858659744263	2.491978406906128
8	77.21762704849243	pulse	1	t		6.0	2.5	/experiments/knapen_AOT/AOT_stimuli/rescaled_final/0753_fw.mp4	0.0	92.83152914047241	
8	78.81831121444702	pulse	1	t		6.0	2.5	/experiments/knapen_AOT/AOT_stimuli/rescaled_final/0753_fw.mp4	0.0	94.432213306427	
8	78.93666291236877	fix_post	2		12	6.0	2.5	/experiments/knapen_AOT/AOT_stimuli/rescaled_final/0753_fw.mp4	0.0	94.55056500434875	0.10002827644348145
9	79.03669118881226	fix_pre	0		120	7.0	2.5	blank	1.0	94.65059328079224	1.0001342296600342
9	80.03682541847229	movie	1		300	7.0	2.5	blank	1.0	95.65072751045227	2.500392198562622
9	80.42044043540955	pulse	1	t		7.0	2.5	blank	1.0	96.03434252738953	
9	82.02063012123108	pulse	1	t		7.0	2.5	blank	1.0	97.63453221321106	
9	82.53721761703491	fix_post	2		12	7.0	2.5	blank	1.0	98.15111970901489	0.100006103515625
10	82.63722372055054	fix_pre	0		119	8.0	2.5	/experiments/knapen_AOT/AOT_stimuli/rescaled_final/2023_rv.mp4	0.0	98.25112581253052	1.0001447200775146
10	83.6208336353302	pulse	0	t		8.0	2.5	/experiments/knapen_AOT/AOT_stimuli/rescaled_final/2023_rv.mp4	0.0	99.23473572731018	
10	83.63736844062805	movie	1		288	8.0	2.5	/experiments/knapen_AOT/AOT_stimuli/rescaled_final/2023_rv.mp4	0.0	99.25127053260803	2.500401496887207
10	85.2196774482727	pulse	1	t		8.0	2.5	/experiments/knapen_AOT/AOT_stimuli/rescaled_final/2023_rv.mp4	0.0	100.83357954025269	
10	86.13776993751526	fix_post	2		12	8.0	2.5	/experiments/knapen_AOT/AOT_stimuli/rescaled_final/2023_rv.mp4	0.0	101.75167202949524	0.09999465942382812
11	86.23776459693909	fix_pre	0		120	9.0	2.5	/experiments/knapen_AOT/AOT_stimuli/rescaled_final/2163_fw.mp4	0.0	101.85166668891907	1.0084950923919678
11	86.82134079933167	pulse	0	t		9.0	2.5	/experiments/knapen_AOT/AOT_stimuli/rescaled_final/2163_fw.mp4	0.0	102.43524289131165	
11	87.24625968933105	movie	1		282	9.0	2.5	/experiments/knapen_AOT/AOT_stimuli/rescaled_final/2163_fw.mp4	0.0	102.86016178131104	2.4920594692230225
11	88.41966652870178	pulse	1	t		9.0	2.5	/experiments/knapen_AOT/AOT_stimuli/rescaled_final/2163_fw.mp4	0.0	104.03356862068176	
11	89.73831915855408	fix_post	2		12	9.0	2.5	/experiments/knapen_AOT/AOT_stimuli/rescaled_final/2163_fw.mp4	0.0	105.35222125053406	0.10001897811889648
12	89.83833813667297	fix_pre	0		120	10.0	2.5	/experiments/knapen_AOT/AOT_stimuli/rescaled_final/1810_rv.mp4	0.0	105.45224022865295	1.0084834098815918
12	90.02195596694946	pulse	0	t		10.0	2.5	/experiments/knapen_AOT/AOT_stimuli/rescaled_final/1810_rv.mp4	0.0	105.63585805892944	
12	90.84682154655457	movie	1		286	10.0	2.5	/experiments/knapen_AOT/AOT_stimuli/rescaled_final/1810_rv.mp4	0.0	106.46072363853455	2.492039442062378
12	91.61977553367615	pulse	1	t		10.0	2.5	/experiments/knapen_AOT/AOT_stimuli/rescaled_final/1810_rv.mp4	0.0	107.23367762565613	
12	93.22011113166809	pulse	1	t		10.0	2.5	/experiments/knapen_AOT/AOT_stimuli/rescaled_final/1810_rv.mp4	0.0	108.83401322364807	
12	93.33886098861694	fix_post	2		12	10.0	2.5	/experiments/knapen_AOT/AOT_stimuli/rescaled_final/1810_rv.mp4	0.0	108.95276308059692	0.10016536712646484
13	93.43902635574341	fix_pre	0		120	11.0	2.5	/experiments/knapen_AOT/AOT_stimuli/rescaled_final/0879_fw.mp4	0.0	109.05292844772339	1.0083372592926025
13	94.44736361503601	movie	1		276	11.0	2.5	/experiments/knapen_AOT/AOT_stimuli/rescaled_final/0879_fw.mp4	0.0	110.06126570701599	2.49200701713562
13	94.82086873054504	pulse	1	t		11.0	2.5	/experiments/knapen_AOT/AOT_stimuli/rescaled_final/0879_fw.mp4	0.0	110.43477082252502	
13	96.42095255851746	pulse	1	t		11.0	2.5	/experiments/knapen_AOT/AOT_stimuli/rescaled_final/0879_fw.mp4	0.0	112.03485465049744	
13	96.93937063217163	fix_post	2		12	11.0	2.5	/experiments/knapen_AOT/AOT_stimuli/rescaled_final/0879_fw.mp4	0.0	112.55327272415161	0.10002589225769043
14	97.03939652442932	fix_pre	0		119	12.0	2.5	/experiments/knapen_AOT/AOT_stimuli/rescaled_final/0182_fw.mp4	0.0	112.6532986164093	1.0001649856567383
14	98.01600408554077	pulse	0	t		12.0	2.5	/experiments/knapen_AOT/AOT_stimuli/rescaled_final/0182_fw.mp4	0.0	113.62990617752075	
14	98.03956151008606	movie	1		283	12.0	2.5	/experiments/knapen_AOT/AOT_stimuli/rescaled_final/0182_fw.mp4	0.0	113.65346360206604	2.500535011291504
14	99.62230014801025	pulse	1	t		12.0	2.5	/experiments/knapen_AOT/AOT_stimuli/rescaled_final/0182_fw.mp4	0.0	115.23620223999023	
14	100.54009652137756	fix_post	2		12	12.0	2.5	/experiments/knapen_AOT/AOT_stimuli/rescaled_final/0182_fw.mp4	0.0	116.15399861335754	0.09984016418457031
15	100.63993668556213	fix_pre	0		120	13.0	2.5	blank	1.0	116.25383877754211	1.000227928161621
15	101.21548628807068	pulse	0	t		13.0	2.5	blank	1.0	116.82938838005066	
15	101.64016461372375	movie	1		300	13.0	2.5	blank	1.0	117.25406670570374	2.500300884246826
15	102.81573987007141	pulse	1	t		13.0	2.5	blank	1.0	118.42964196205139	
15	104.14046549797058	fix_post	2		12	13.0	2.5	blank	1.0	119.75436758995056	0.1000823974609375
16	104.24054789543152	fix_pre	0		120	14.0	2.5	/experiments/knapen_AOT/AOT_stimuli/rescaled_final/1756_rv.mp4	0.0	119.8544499874115	1.0084362030029297
16	104.41581153869629	pulse	0	t		14.0	2.5	/experiments/knapen_AOT/AOT_stimuli/rescaled_final/1756_rv.mp4	0.0	120.02971363067627	
16	105.24898409843445	movie	1		279	14.0	2.5	/experiments/knapen_AOT/AOT_stimuli/rescaled_final/1756_rv.mp4	0.0	120.86288619041443	2.492039203643799
16	106.01618814468384	pulse	1	t		14.0	2.5	/experiments/knapen_AOT/AOT_stimuli/rescaled_final/1756_rv.mp4	0.0	121.63009023666382	
16	107.61649250984192	pulse	1	t		14.0	2.5	/experiments/knapen_AOT/AOT_stimuli/rescaled_final/1756_rv.mp4	0.0	123.2303946018219	
16	107.74102330207825	fix_post	2		12	14.0	2.5	/experiments/knapen_AOT/AOT_stimuli/rescaled_final/1756_rv.mp4	0.0	123.35492539405823	0.10000491142272949
17	107.84102821350098	fix_pre	0		120	15.0	2.5	/experiments/knapen_AOT/AOT_stimuli/rescaled_final/0022_fw.mp4	0.0	123.45493030548096	1.0084986686706543
17	108.84952688217163	movie	1		277	15.0	2.5	/experiments/knapen_AOT/AOT_stimuli/rescaled_final/0022_fw.mp4	0.0	124.46342897415161	2.4920217990875244
17	109.21639132499695	pulse	1	t		15.0	2.5	/experiments/knapen_AOT/AOT_stimuli/rescaled_final/0022_fw.mp4	0.0	124.83029341697693	
17	110.81689620018005	pulse	1	t		15.0	2.5	/experiments/knapen_AOT/AOT_stimuli/rescaled_final/0022_fw.mp4	0.0	126.43079829216003	
17	111.34154868125916	fix_post	2		12	15.0	2.5	/experiments/knapen_AOT/AOT_stimuli/rescaled_final/0022_fw.mp4	0.0	126.95545077323914	0.10016059875488281
18	111.44170928001404	fix_pre	0		118	16.0	2.5	/experiments/knapen_AOT/AOT_stimuli/rescaled_final/1666_rv.mp4	0.0	127.05561137199402	0.9916632175445557
18	112.4168689250946	pulse	0	t		16.0	2.5	/experiments/knapen_AOT/AOT_stimuli/rescaled_final/1666_rv.mp4	0.0	128.03077101707458	
18	112.4333724975586	movie	1		286	16.0	2.5	/experiments/knapen_AOT/AOT_stimuli/rescaled_final/1666_rv.mp4	0.0	128.04727458953857	2.500412702560425
18	114.01579523086548	pulse	1	t		16.0	2.5	/experiments/knapen_AOT/AOT_stimuli/rescaled_final/1666_rv.mp4	0.0	129.62969732284546	
18	114.93378520011902	fix_post	2		12	16.0	2.5	/experiments/knapen_AOT/AOT_stimuli/rescaled_final/1666_rv.mp4	0.0	130.547687292099	0.09998607635498047
19	115.033771276474	fix_pre	0		120	17.0	2.5	/experiments/knapen_AOT/AOT_stimuli/rescaled_final/0908_rv.mp4	0.0	130.64767336845398	1.008514404296875
19	115.61730790138245	pulse	0	t		17.0	2.5	/experiments/knapen_AOT/AOT_stimuli/rescaled_final/0908_rv.mp4	0.0	131.23120999336243	
19	116.04228568077087	movie	1		283	17.0	2.5	/experiments/knapen_AOT/AOT_stimuli/rescaled_final/0908_rv.mp4	0.0	131.65618777275085	2.492216110229492
19	117.21579194068909	pulse	1	t		17.0	2.5	/experiments/knapen_AOT/AOT_stimuli/rescaled_final/0908_rv.mp4	0.0	132.82969403266907	
19	118.53450179100037	fix_post	2		12	17.0	2.5	/experiments/knapen_AOT/AOT_stimuli/rescaled_final/0908_rv.mp4	0.0	134.14840388298035	0.09979867935180664
20	118.63430047035217	fix_pre	0		120	18.0	2.5	/experiments/knapen_AOT/AOT_stimuli/rescaled_final/1542_rv.mp4	0.0	134.24820256233215	1.0084948539733887
20	118.81779980659485	pulse	0	t		18.0	2.5	/experiments/knapen_AOT/AOT_stimuli/rescaled_final/1542_rv.mp4	0.0	134.43170189857483	
20	119.64279532432556	movie	1		279	18.0	2.5	/experiments/knapen_AOT/AOT_stimuli/rescaled_final/1542_rv.mp4	0.0	135.25669741630554	2.49202823638916
20	120.41601181030273	pulse	1	t		18.0	2.5	/experiments/knapen_AOT/AOT_stimuli/rescaled_final/1542_rv.mp4	0.0	136.02991390228271	
20	122.01634526252747	pulse	1	t		18.0	2.5	/experiments/knapen_AOT/AOT_stimuli/rescaled_final/1542_rv.mp4	0.0	137.63024735450745	
20	122.13482356071472	fix_post	2		12	18.0	2.5	/experiments/knapen_AOT/AOT_stimuli/rescaled_final/1542_rv.mp4	0.0	137.7487256526947	0.10003900527954102
21	122.23486256599426	fix_pre	0		120	19.0	2.5	blank	1.0	137.84876465797424	1.0001213550567627
21	123.23498392105103	movie	1		300	19.0	2.5	blank	1.0	138.848886013031	2.5004029273986816
21	123.6185028553009	pulse	1	t		19.0	2.5	blank	1.0	139.23240494728088	
21	125.21875929832458	pulse	1	t		19.0	2.5	blank	1.0	140.83266139030457	
21	125.7353868484497	fix_post	2		12	19.0	2.5	blank	1.0	141.3492889404297	0.10000419616699219
22	125.8353910446167	fix_pre	0		119	20.0	2.5	/experiments/knapen_AOT/AOT_stimuli/rescaled_final/0173_rv.mp4	0.0	141.44929313659668	1.0001676082611084
22	126.8190279006958	pulse	0	t		20.0	2.5	/experiments/knapen_AOT/AOT_stimuli/rescaled_final/0173_rv.mp4	0.0	142.43292999267578	
22	126.83555865287781	movie	1		283	20.0	2.5	/experiments/knapen_AOT/AOT_stimuli/rescaled_final/0173_rv.mp4	0.0	142.4494607448578	2.5003421306610107
22	128.41754913330078	pulse	1	t		20.0	2.5	/experiments/knapen_AOT/AOT_stimuli/rescaled_final/0173_rv.mp4	0.0	144.03145122528076	
22	129.33590078353882	fix_post	2		12	20.0	2.5	/experiments/knapen_AOT/AOT_stimuli/rescaled_final/0173_rv.mp4	0.0	144.9498028755188	0.1000213623046875
23	129.4359221458435	fix_pre	0		120	21.0	2.5	/experiments/knapen_AOT/AOT_stimuli/rescaled_final/0967_rv.mp4	0.0	145.0498242378235	1.0085232257843018
23	130.01949739456177	pulse	0	t		21.0	2.5	/experiments/knapen_AOT/AOT_stimuli/rescaled_final/0967_rv.mp4	0.0	145.63339948654175	
23	130.4444453716278	movie	1		275	21.0	2.5	/experiments/knapen_AOT/AOT_stimuli/rescaled_final/0967_rv.mp4	0.0	146.0583474636078	2.4920783042907715
23	131.6181604862213	pulse	1	t		21.0	2.5	/experiments/knapen_AOT/AOT_stimuli/rescaled_final/0967_rv.mp4	0.0	147.2320625782013	
23	132.93652367591858	fix_post	2		12	21.0	2.5	/experiments/knapen_AOT/AOT_stimuli/rescaled_final/0967_rv.mp4	0.0	148.55042576789856	0.09999299049377441
24	133.03651666641235	fix_pre	0		120	22.0	2.5	/experiments/knapen_AOT/AOT_stimuli/rescaled_final/1756_fw.mp4	0.0	148.65041875839233	1.0084741115570068
24	133.22006559371948	pulse	0	t		22.0	2.5	/experiments/knapen_AOT/AOT_stimuli/rescaled_final/1756_fw.mp4	0.0	148.83396768569946	
24	134.04499077796936	movie	1		285	22.0	2.5	/experiments/knapen_AOT/AOT_stimuli/rescaled_final/1756_fw.mp4	0.0	149.65889286994934	2.491999387741089
24	134.81794118881226	pulse	1	t		22.0	2.5	/experiments/knapen_AOT/AOT_stimuli/rescaled_final/1756_fw.mp4	0.0	150.43184328079224	
24	136.41832900047302	pulse	1	t		22.0	2.5	/experiments/knapen_AOT/AOT_stimuli/rescaled_final/1756_fw.mp4	0.0	152.032231092453	
24	136.53699016571045	fix_post	2		12	22.0	2.5	/experiments/knapen_AOT/AOT_stimuli/rescaled_final/1756_fw.mp4	0.0	152.15089225769043	0.10005688667297363
25	136.63704705238342	fix_pre	0		120	23.0	2.5	/experiments/knapen_AOT/AOT_stimuli/rescaled_final/0181_fw.mp4	0.0	152.2509491443634	1.0084807872772217
25	137.64552783966064	movie	1		276	23.0	2.5	/experiments/knapen_AOT/AOT_stimuli/rescaled_final/0181_fw.mp4	0.0	153.25942993164062	2.4920225143432617
25	138.01898217201233	pulse	1	t		23.0	2.5	/experiments/knapen_AOT/AOT_stimuli/rescaled_final/0181_fw.mp4	0.0	153.6328842639923	
25	139.61888647079468	pulse	1	t		23.0	2.5	/experiments/knapen_AOT/AOT_stimuli/rescaled_final/0181_fw.mp4	0.0	155.23278856277466	
25	140.1375503540039	fix_post	2		12	23.0	2.5	/experiments/knapen_AOT/AOT_stimuli/rescaled_final/0181_fw.mp4	0.0	155.7514524459839	0.10001254081726074
26	140.23756289482117	fix_pre	0		119	24.0	2.5	/experiments/knapen_AOT/AOT_stimuli/rescaled_final/2090_rv.mp4	0.0	155.85146498680115	1.000145673751831
26	141.22117519378662	pulse	0	t		24.0	2.5	/experiments/knapen_AOT/AOT_stimuli/rescaled_final/2090_rv.mp4	0.0	156.8350772857666	
26	141.237708568573	movie	1		285	24.0	2.5	/experiments/knapen_AOT/AOT_stimuli/rescaled_final/2090_rv.mp4	0.0	156.85161066055298	2.5003714561462402
26	142.81971740722656	pulse	1	t		24.0	2.5	/experiments/knapen_AOT/AOT_stimuli/rescaled_final/2090_rv.mp4	0.0	158.43361949920654	
26	143.73808002471924	fix_post	2		12	24.0	2.5	/experiments/knapen_AOT/AOT_stimuli/rescaled_final/2090_rv.mp4	0.0	159.35198211669922	0.10004448890686035
27	143.8381245136261	fix_pre	0		120	25.0	2.5	/experiments/knapen_AOT/AOT_stimuli/rescaled_final/0009_rv.mp4	0.0	159.45202660560608	1.0084733963012695
27	144.42189764976501	pulse	0	t		25.0	2.5	/experiments/knapen_AOT/AOT_stimuli/rescaled_final/0009_rv.mp4	0.0	160.035799741745	
27	144.84659790992737	movie	1		285	25.0	2.5	/experiments/knapen_AOT/AOT_stimuli/rescaled_final/0009_rv.mp4	0.0	160.46050000190735	2.4920220375061035
27	146.02003121376038	pulse	1	t		25.0	2.5	/experiments/knapen_AOT/AOT_stimuli/rescaled_final/0009_rv.mp4	0.0	161.63393330574036	
27	147.33861994743347	fix_post	2		12	25.0	2.5	/experiments/knapen_AOT/AOT_stimuli/rescaled_final/0009_rv.mp4	0.0	162.95252203941345	0.10001945495605469
28	147.43863940238953	fix_pre	0		120	26.0	2.5	blank	1.0	163.0525414943695	1.0001533031463623
28	147.61493229866028	pulse	0	t		26.0	2.5	blank	1.0	163.22883439064026	
28	148.4387927055359	movie	1		300	26.0	2.5	blank	1.0	164.05269479751587	2.5003750324249268
28	149.22248578071594	pulse	1	t		26.0	2.5	blank	1.0	164.83638787269592	
28	150.81511664390564	pulse	1	t		26.0	2.5	blank	1.0	166.42901873588562	
28	150.93916773796082	fix_post	2		12	26.0	2.5	blank	1.0	166.5530698299408	0.10007095336914062
29	151.03923869132996	fix_pre	0		120	27.0	2.5	/experiments/knapen_AOT/AOT_stimuli/rescaled_final/0934_fw.mp4	0.0	166.65314078330994	1.0084524154663086
29	152.04769110679626	movie	1		272	27.0	2.5	/experiments/knapen_AOT/AOT_stimuli/rescaled_final/0934_fw.mp4	0.0	167.66159319877625	2.492004871368408
29	152.41492772102356	pulse	1	t		27.0	2.5	/experiments/knapen_AOT/AOT_stimuli/rescaled_final/0934_fw.mp4	0.0	168.02882981300354	
29	154.01477122306824	pulse	1	t		27.0	2.5	/experiments/knapen_AOT/AOT_stimuli/rescaled_final/0934_fw.mp4	0.0	169.62867331504822	
29	154.53969597816467	fix_post	2		12	27.0	2.5	/experiments/knapen_AOT/AOT_stimuli/rescaled_final/0934_fw.mp4	0.0	170.15359807014465	0.10002684593200684
30	154.63972282409668	fix_pre	0		118	28.0	2.5	/experiments/knapen_AOT/AOT_stimuli/rescaled_final/1719_fw.mp4	0.0	170.25362491607666	0.9918575286865234
30	155.6151466369629	pulse	0	t		28.0	2.5	/experiments/knapen_AOT/AOT_stimuli/rescaled_final/1719_fw.mp4	0.0	171.22904872894287	
30	155.6315803527832	movie	1		281	28.0	2.5	/experiments/knapen_AOT/AOT_stimuli/rescaled_final/1719_fw.mp4	0.0	171.24548244476318	2.5003933906555176
30	157.2153823375702	pulse	1	t		28.0	2.5	/experiments/knapen_AOT/AOT_stimuli/rescaled_final/1719_fw.mp4	0.0	172.82928442955017	
30	158.13197374343872	fix_post	2		12	28.0	2.5	/experiments/knapen_AOT/AOT_stimuli/rescaled_final/1719_fw.mp4	0.0	173.7458758354187	0.09995579719543457
31	158.23192954063416	fix_pre	0		120	29.0	2.5	/experiments/knapen_AOT/AOT_stimuli/rescaled_final/1053_rv.mp4	0.0	173.84583163261414	1.0085361003875732
31	158.8155345916748	pulse	0	t		29.0	2.5	/experiments/knapen_AOT/AOT_stimuli/rescaled_final/1053_rv.mp4	0.0	174.42943668365479	
31	159.24046564102173	movie	1		277	29.0	2.5	/experiments/knapen_AOT/AOT_stimuli/rescaled_final/1053_rv.mp4	0.0	174.8543677330017	2.4920105934143066
31	160.4160759449005	pulse	1	t		29.0	2.5	/experiments/knapen_AOT/AOT_stimuli/rescaled_final/1053_rv.mp4	0.0	176.0299780368805	
31	161.73247623443604	fix_post	2		12	29.0	2.5	/experiments/knapen_AOT/AOT_stimuli/rescaled_final/1053_rv.mp4	0.0	177.34637832641602	0.10003542900085449
32	161.8325116634369	fix_pre	0		120	30.0	2.5	/experiments/knapen_AOT/AOT_stimuli/rescaled_final/1999_fw.mp4	0.0	177.44641375541687	1.0084519386291504
32	162.01599526405334	pulse	0	t		30.0	2.5	/experiments/knapen_AOT/AOT_stimuli/rescaled_final/1999_fw.mp4	0.0	177.62989735603333	
32	162.84096360206604	movie	1		275	30.0	2.5	/experiments/knapen_AOT/AOT_stimuli/rescaled_final/1999_fw.mp4	0.0	178.45486569404602	2.492016553878784
32	163.61622595787048	pulse	1	t		30.0	2.5	/experiments/knapen_AOT/AOT_stimuli/rescaled_final/1999_fw.mp4	0.0	179.23012804985046	
32	165.21648406982422	pulse	1	t		30.0	2.5	/experiments/knapen_AOT/AOT_stimuli/rescaled_final/1999_fw.mp4	0.0	180.8303861618042	
32	165.33298015594482	fix_post	2		12	30.0	2.5	/experiments/knapen_AOT/AOT_stimuli/rescaled_final/1999_fw.mp4	0.0	180.9468822479248	0.10002684593200684
33	165.43300700187683	fix_pre	0		120	31.0	2.5	/experiments/knapen_AOT/AOT_stimuli/rescaled_final/0934_fw.mp4	0.0	181.0469090938568	1.0085294246673584
33	166.4415364265442	movie	1		276	31.0	2.5	/experiments/knapen_AOT/AOT_stimuli/rescaled_final/0934_fw.mp4	0.0	182.05543851852417	2.492007255554199
33	166.81527423858643	pulse	1	t		31.0	2.5	/experiments/knapen_AOT/AOT_stimuli/rescaled_final/0934_fw.mp4	0.0	182.4291763305664	
33	168.4148690700531	pulse	1	t		31.0	2.5	/experiments/knapen_AOT/AOT_stimuli/rescaled_final/0934_fw.mp4	0.0	184.02877116203308	
33	168.9335436820984	fix_post	2		12	31.0	2.5	/experiments/knapen_AOT/AOT_stimuli/rescaled_final/0934_fw.mp4	0.0	184.54744577407837	0.10000276565551758
34	169.0335464477539	fix_pre	0		119	32.0	2.5	/experiments/knapen_AOT/AOT_stimuli/rescaled_final/0867_fw.mp4	0.0	184.6474485397339	1.0002117156982422
34	170.01726245880127	pulse	0	t		32.0	2.5	/experiments/knapen_AOT/AOT_stimuli/rescaled_final/0867_fw.mp4	0.0	185.63116455078125	
34	170.03375816345215	movie	1		286	32.0	2.5	/experiments/knapen_AOT/AOT_stimuli/rescaled_final/0867_fw.mp4	0.0	185.64766025543213	2.500335693359375
34	171.61615228652954	pulse	1	t		32.0	2.5	/experiments/knapen_AOT/AOT_stimuli/rescaled_final/0867_fw.mp4	0.0	187.23005437850952	
34	172.53409385681152	fix_post	2		12	32.0	2.5	/experiments/knapen_AOT/AOT_stimuli/rescaled_final/0867_fw.mp4	0.0	188.1479959487915	0.0999908447265625
35	172.6340847015381	fix_pre	0		120	33.0	2.5	blank	1.0	188.24798679351807	1.0001773834228516
35	173.21772956848145	pulse	0	t		33.0	2.5	blank	1.0	188.83163166046143	
35	173.63426208496094	movie	1		300	33.0	2.5	blank	1.0	189.24816417694092	2.5003678798675537
35	174.8178837299347	pulse	1	t		33.0	2.5	blank	1.0	190.43178582191467	
35	176.1346299648285	fix_post	2		12	33.0	2.5	blank	1.0	191.74853205680847	0.10005807876586914
36	176.23468804359436	fix_pre	0		120	34.0	2.5	/experiments/knapen_AOT/AOT_stimuli/rescaled_final/0640_rv.mp4	0.0	191.84859013557434	1.0084526538848877
36	176.41819024085999	pulse	0	t		34.0	2.5	/experiments/knapen_AOT/AOT_stimuli/rescaled_final/0640_rv.mp4	0.0	192.03209233283997	
36	177.24314069747925	movie	1		281	34.0	2.5	/experiments/knapen_AOT/AOT_stimuli/rescaled_final/0640_rv.mp4	0.0	192.85704278945923	2.4920237064361572
36	178.01693654060364	pulse	1	t		34.0	2.5	/experiments/knapen_AOT/AOT_stimuli/rescaled_final/0640_rv.mp4	0.0	193.63083863258362	
36	179.61700630187988	pulse	1	t		34.0	2.5	/experiments/knapen_AOT/AOT_stimuli/rescaled_final/0640_rv.mp4	0.0	195.23090839385986	
36	179.7351644039154	fix_post	2		12	34.0	2.5	/experiments/knapen_AOT/AOT_stimuli/rescaled_final/0640_rv.mp4	0.0	195.34906649589539	0.10005784034729004
37	179.8352222442627	fix_pre	0		120	35.0	2.5	/experiments/knapen_AOT/AOT_stimuli/rescaled_final/2059_fw.mp4	0.0	195.44912433624268	1.0085017681121826
37	180.84372401237488	movie	1		283	35.0	2.5	/experiments/knapen_AOT/AOT_stimuli/rescaled_final/2059_fw.mp4	0.0	196.45762610435486	2.4919750690460205
37	181.21772956848145	pulse	1	t		35.0	2.5	/experiments/knapen_AOT/AOT_stimuli/rescaled_final/2059_fw.mp4	0.0	196.83163166046143	
37	182.8170301914215	pulse	1	t		35.0	2.5	/experiments/knapen_AOT/AOT_stimuli/rescaled_final/2059_fw.mp4	0.0	198.4309322834015	
37	183.3356990814209	fix_post	2		12	35.0	2.5	/experiments/knapen_AOT/AOT_stimuli/rescaled_final/2059_fw.mp4	0.0	198.94960117340088	0.10001516342163086
38	183.43571424484253	fix_pre	0		119	36.0	2.5	/experiments/knapen_AOT/AOT_stimuli/rescaled_final/0205_rv.mp4	0.0	199.0496163368225	1.0001773834228516
38	184.4194495677948	pulse	0	t		36.0	2.5	/experiments/knapen_AOT/AOT_stimuli/rescaled_final/0205_rv.mp4	0.0	200.03335165977478	
38	184.43589162826538	movie	1		275	36.0	2.5	/experiments/knapen_AOT/AOT_stimuli/rescaled_final/0205_rv.mp4	0.0	200.04979372024536	2.5003371238708496
38	186.01825547218323	pulse	1	t		36.0	2.5	/experiments/knapen_AOT/AOT_stimuli/rescaled_final/0205_rv.mp4	0.0	201.6321575641632	
38	186.93622875213623	fix_post	2		12	36.0	2.5	/experiments/knapen_AOT/AOT_stimuli/rescaled_final/0205_rv.mp4	0.0	202.5501308441162	0.10002589225769043
39	187.03625464439392	fix_pre	0		120	37.0	2.5	/experiments/knapen_AOT/AOT_stimuli/rescaled_final/0556_rv.mp4	0.0	202.6501567363739	1.0084960460662842
39	187.61982488632202	pulse	0	t		37.0	2.5	/experiments/knapen_AOT/AOT_stimuli/rescaled_final/0556_rv.mp4	0.0	203.233726978302	
39	188.0447506904602	movie	1		285	37.0	2.5	/experiments/knapen_AOT/AOT_stimuli/rescaled_final/0556_rv.mp4	0.0	203.65865278244019	2.4920833110809326
39	189.2180473804474	pulse	1	t		37.0	2.5	/experiments/knapen_AOT/AOT_stimuli/rescaled_final/0556_rv.mp4	0.0	204.83194947242737	
39	190.53683400154114	fix_post	2		12	37.0	2.5	/experiments/knapen_AOT/AOT_stimuli/rescaled_final/0556_rv.mp4	0.0	206.15073609352112	0.0999298095703125
40	190.63676381111145	fix_pre	0		120	38.0	2.5	/experiments/knapen_AOT/AOT_stimuli/rescaled_final/0968_rv.mp4	0.0	206.25066590309143	1.0085439682006836
40	190.82046222686768	pulse	0	t		38.0	2.5	/experiments/knapen_AOT/AOT_stimuli/rescaled_final/0968_rv.mp4	0.0	206.43436431884766	
40	191.64530777931213	movie	1		281	38.0	2.5	/experiments/knapen_AOT/AOT_stimuli/rescaled_final/0968_rv.mp4	0.0	207.25920987129211	2.4920225143432617
40	192.4206874370575	pulse	1	t		38.0	2.5	/experiments/knapen_AOT/AOT_stimuli/rescaled_final/0968_rv.mp4	0.0	208.03458952903748	
40	194.01863884925842	pulse	1	t		38.0	2.5	/experiments/knapen_AOT/AOT_stimuli/rescaled_final/0968_rv.mp4	0.0	209.6325409412384	
40	194.1373302936554	fix_post	2		12	38.0	2.5	/experiments/knapen_AOT/AOT_stimuli/rescaled_final/0968_rv.mp4	0.0	209.75123238563538	0.10000777244567871
41	194.23733806610107	fix_pre	0		120	39.0	2.5	/experiments/knapen_AOT/AOT_stimuli/rescaled_final/1927_fw.mp4	0.0	209.85124015808105	1.0086114406585693
41	195.24594950675964	movie	1		273	39.0	2.5	/experiments/knapen_AOT/AOT_stimuli/rescaled_final/1927_fw.mp4	0.0	210.85985159873962	2.4919381141662598
41	195.6196584701538	pulse	1	t		39.0	2.5	/experiments/knapen_AOT/AOT_stimuli/rescaled_final/1927_fw.mp4	0.0	211.2335605621338	
41	197.22129893302917	pulse	1	t		39.0	2.5	/experiments/knapen_AOT/AOT_stimuli/rescaled_final/1927_fw.mp4	0.0	212.83520102500916	
41	197.7378876209259	fix_post	2		12	39.0	2.5	/experiments/knapen_AOT/AOT_stimuli/rescaled_final/1927_fw.mp4	0.0	213.35178971290588	0.10003447532653809
42	197.83792209625244	fix_pre	0		119	40.0	2.5	blank	1.0	213.45182418823242	0.9917795658111572
42	198.821546792984	pulse	0	t		40.0	2.5	blank	1.0	214.435448884964	
42	198.8297016620636	movie	1		301	40.0	2.5	blank	1.0	214.44360375404358	2.5086989402770996
42	200.42184352874756	pulse	1	t		40.0	2.5	blank	1.0	216.03574562072754	
42	201.3384006023407	fix_post	2		12	40.0	2.5	blank	1.0	216.95230269432068	0.1000528335571289
43	201.43845343589783	fix_pre	0		120	41.0	2.5	/experiments/knapen_AOT/AOT_stimuli/rescaled_final/1832_rv.mp4	0.0	217.0523555278778	1.0085179805755615
43	202.02199983596802	pulse	0	t		41.0	2.5	/experiments/knapen_AOT/AOT_stimuli/rescaled_final/1832_rv.mp4	0.0	217.635901927948	
43	202.4469714164734	movie	1		289	41.0	2.5	/experiments/knapen_AOT/AOT_stimuli/rescaled_final/1832_rv.mp4	0.0	218.06087350845337	2.491988182067871
43	203.620103597641	pulse	1	t		41.0	2.5	/experiments/knapen_AOT/AOT_stimuli/rescaled_final/1832_rv.mp4	0.0	219.23400568962097	
43	204.93895959854126	fix_post	2		12	41.0	2.5	/experiments/knapen_AOT/AOT_stimuli/rescaled_final/1832_rv.mp4	0.0	220.55286169052124	0.1000368595123291
44	205.0389964580536	fix_pre	0		120	42.0	2.5	/experiments/knapen_AOT/AOT_stimuli/rescaled_final/0822_rv.mp4	0.0	220.65289855003357	1.0084819793701172
44	205.22246289253235	pulse	0	t		42.0	2.5	/experiments/knapen_AOT/AOT_stimuli/rescaled_final/0822_rv.mp4	0.0	220.83636498451233	
44	206.0474784374237	movie	1		283	42.0	2.5	/experiments/knapen_AOT/AOT_stimuli/rescaled_final/0822_rv.mp4	0.0	221.6613805294037	2.492039680480957
44	206.8206217288971	pulse	1	t		42.0	2.5	/experiments/knapen_AOT/AOT_stimuli/rescaled_final/0822_rv.mp4	0.0	222.43452382087708	
44	208.42099523544312	pulse	1	t		42.0	2.5	/experiments/knapen_AOT/AOT_stimuli/rescaled_final/0822_rv.mp4	0.0	224.0348973274231	
44	208.53951811790466	fix_post	2		12	42.0	2.5	/experiments/knapen_AOT/AOT_stimuli/rescaled_final/0822_rv.mp4	0.0	224.15342020988464	0.10001730918884277
45	208.6395354270935	fix_pre	0		120	43.0	2.5	/experiments/knapen_AOT/AOT_stimuli/rescaled_final/0190_fw.mp4	0.0	224.2534375190735	1.008488655090332
45	209.64802408218384	movie	1		286	43.0	2.5	/experiments/knapen_AOT/AOT_stimuli/rescaled_final/0190_fw.mp4	0.0	225.26192617416382	2.4920170307159424
45	210.01524424552917	pulse	1	t		43.0	2.5	/experiments/knapen_AOT/AOT_stimuli/rescaled_final/0190_fw.mp4	0.0	225.62914633750916	
45	211.6152913570404	pulse	1	t		43.0	2.5	/experiments/knapen_AOT/AOT_stimuli/rescaled_final/0190_fw.mp4	0.0	227.22919344902039	
45	212.14004111289978	fix_post	2		12	43.0	2.5	/experiments/knapen_AOT/AOT_stimuli/rescaled_final/0190_fw.mp4	0.0	227.75394320487976	0.10004329681396484
46	212.24008440971375	fix_pre	0		118	44.0	2.5	/experiments/knapen_AOT/AOT_stimuli/rescaled_final/0415_rv.mp4	0.0	227.85398650169373	0.9917967319488525
46	213.21544361114502	pulse	0	t		44.0	2.5	/experiments/knapen_AOT/AOT_stimuli/rescaled_final/0415_rv.mp4	0.0	228.829345703125	
46	213.2318811416626	movie	1		294	44.0	2.5	/experiments/knapen_AOT/AOT_stimuli/rescaled_final/0415_rv.mp4	0.0	228.84578323364258	2.5003511905670166
46	214.82415533065796	pulse	1	t		44.0	2.5	/experiments/knapen_AOT/AOT_stimuli/rescaled_final/0415_rv.mp4	0.0	230.43805742263794	
46	215.73223233222961	fix_post	2		12	44.0	2.5	/experiments/knapen_AOT/AOT_stimuli/rescaled_final/0415_rv.mp4	0.0	231.3461344242096	0.10007905960083008
47	215.83231139183044	fix_pre	0		120	45.0	2.5	/experiments/knapen_AOT/AOT_stimuli/rescaled_final/0669_fw.mp4	0.0	231.44621348381042	1.0084624290466309
47	216.41582012176514	pulse	0	t		45.0	2.5	/experiments/knapen_AOT/AOT_stimuli/rescaled_final/0669_fw.mp4	0.0	232.02972221374512	
47	216.84077382087708	movie	1		265	45.0	2.5	/experiments/knapen_AOT/AOT_stimuli/rescaled_final/0669_fw.mp4	0.0	232.45467591285706	2.492033004760742
47	218.0160562992096	pulse	1	t		45.0	2.5	/experiments/knapen_AOT/AOT_stimuli/rescaled_final/0669_fw.mp4	0.0	233.62995839118958	
47	219.33280682563782	fix_post	2		12	45.0	2.5	/experiments/knapen_AOT/AOT_stimuli/rescaled_final/0669_fw.mp4	0.0	234.9467089176178	0.10004663467407227
48	219.4328534603119	fix_pre	0		120	46.0	2.5	/experiments/knapen_AOT/AOT_stimuli/rescaled_final/0391_rv.mp4	0.0	235.04675555229187	1.008471965789795
48	219.61635899543762	pulse	0	t		46.0	2.5	/experiments/knapen_AOT/AOT_stimuli/rescaled_final/0391_rv.mp4	0.0	235.2302610874176	
48	220.44132542610168	movie	1		284	46.0	2.5	/experiments/knapen_AOT/AOT_stimuli/rescaled_final/0391_rv.mp4	0.0	236.05522751808167	2.4920542240142822
48	221.2166829109192	pulse	1	t		46.0	2.5	/experiments/knapen_AOT/AOT_stimuli/rescaled_final/0391_rv.mp4	0.0	236.83058500289917	
48	222.81683325767517	pulse	1	t		46.0	2.5	/experiments/knapen_AOT/AOT_stimuli/rescaled_final/0391_rv.mp4	0.0	238.43073534965515	
48	222.93337965011597	fix_post	2		12	46.0	2.5	/experiments/knapen_AOT/AOT_stimuli/rescaled_final/0391_rv.mp4	0.0	238.54728174209595	0.09993147850036621
49	223.03331112861633	fix_pre	0		120	47.0	2.5	blank	1.0	238.6472132205963	1.0002057552337646
49	224.0335168838501	movie	1		300	47.0	2.5	blank	1.0	239.64741897583008	2.5003292560577393
49	224.41708850860596	pulse	1	t		47.0	2.5	blank	1.0	240.03099060058594	
49	226.01734447479248	pulse	1	t		47.0	2.5	blank	1.0	241.63124656677246	
49	226.53384613990784	fix_post	2		12	47.0	2.5	blank	1.0	242.14774823188782	0.10002875328063965
50	226.63387489318848	fix_pre	0		119	48.0	2.5	/experiments/knapen_AOT/AOT_stimuli/rescaled_final/1288_rv.mp4	0.0	242.24777698516846	1.0002226829528809
50	227.61762881278992	pulse	0	t		48.0	2.5	/experiments/knapen_AOT/AOT_stimuli/rescaled_final/1288_rv.mp4	0.0	243.2315309047699	
50	227.63409757614136	movie	1		289	48.0	2.5	/experiments/knapen_AOT/AOT_stimuli/rescaled_final/1288_rv.mp4	0.0	243.24799966812134	2.5004124641418457
50	229.21665143966675	pulse	1	t		48.0	2.5	/experiments/knapen_AOT/AOT_stimuli/rescaled_final/1288_rv.mp4	0.0	244.83055353164673	
50	230.1345100402832	fix_post	2		12	48.0	2.5	/experiments/knapen_AOT/AOT_stimuli/rescaled_final/1288_rv.mp4	0.0	245.74841213226318	0.0999305248260498
51	230.23444056510925	fix_pre	0		120	49.0	2.5	/experiments/knapen_AOT/AOT_stimuli/rescaled_final/0312_rv.mp4	0.0	245.84834265708923	1.0085246562957764
51	230.8180947303772	pulse	0	t		49.0	2.5	/experiments/knapen_AOT/AOT_stimuli/rescaled_final/0312_rv.mp4	0.0	246.43199682235718	
51	231.24296522140503	movie	1		286	49.0	2.5	/experiments/knapen_AOT/AOT_stimuli/rescaled_final/0312_rv.mp4	0.0	246.856867313385	2.4919700622558594
51	232.41636419296265	pulse	1	t		49.0	2.5	/experiments/knapen_AOT/AOT_stimuli/rescaled_final/0312_rv.mp4	0.0	248.03026628494263	
51	233.7349352836609	fix_post	2		12	49.0	2.5	/experiments/knapen_AOT/AOT_stimuli/rescaled_final/0312_rv.mp4	0.0	249.34883737564087	0.10002374649047852
52	233.83495903015137	fix_pre	0		120	50.0	2.5	/experiments/knapen_AOT/AOT_stimuli/rescaled_final/2085_rv.mp4	0.0	249.44886112213135	1.0085062980651855
52	234.018536567688	pulse	0	t		50.0	2.5	/experiments/knapen_AOT/AOT_stimuli/rescaled_final/2085_rv.mp4	0.0	249.63243865966797	
52	234.84346532821655	movie	1		289	50.0	2.5	/experiments/knapen_AOT/AOT_stimuli/rescaled_final/2085_rv.mp4	0.0	250.45736742019653	2.4920361042022705
52	235.61681985855103	pulse	1	t		50.0	2.5	/experiments/knapen_AOT/AOT_stimuli/rescaled_final/2085_rv.mp4	0.0	251.230721950531	
52	237.21687984466553	pulse	1	t		50.0	2.5	/experiments/knapen_AOT/AOT_stimuli/rescaled_final/2085_rv.mp4	0.0	252.8307819366455	
52	237.33550143241882	fix_post	2		12	50.0	2.5	/experiments/knapen_AOT/AOT_stimuli/rescaled_final/2085_rv.mp4	0.0	252.9494035243988	0.10007500648498535
53	237.4355764389038	fix_pre	0		120	51.0	2.5	/experiments/knapen_AOT/AOT_stimuli/rescaled_final/1157_rv.mp4	0.0	253.0494785308838	1.0084404945373535
53	238.44401693344116	movie	1		283	51.0	2.5	/experiments/knapen_AOT/AOT_stimuli/rescaled_final/1157_rv.mp4	0.0	254.05791902542114	2.492016553878784
53	238.81885695457458	pulse	1	t		51.0	2.5	/experiments/knapen_AOT/AOT_stimuli/rescaled_final/1157_rv.mp4	0.0	254.43275904655457	
53	240.41720628738403	pulse	1	t		51.0	2.5	/experiments/knapen_AOT/AOT_stimuli/rescaled_final/1157_rv.mp4	0.0	256.031108379364	
53	240.93603348731995	fix_post	2		12	51.0	2.5	/experiments/knapen_AOT/AOT_stimuli/rescaled_final/1157_rv.mp4	0.0	256.5499355792999	0.10000252723693848
54	241.03603601455688	fix_pre	0		119	52.0	2.5	/experiments/knapen_AOT/AOT_stimuli/rescaled_final/0173_rv.mp4	0.0	256.64993810653687	1.000220775604248
54	242.0200731754303	pulse	0	t		52.0	2.5	/experiments/knapen_AOT/AOT_stimuli/rescaled_final/0173_rv.mp4	0.0	257.6339752674103	
54	242.03625679016113	movie	1		280	52.0	2.5	/experiments/knapen_AOT/AOT_stimuli/rescaled_final/0173_rv.mp4	0.0	257.6501588821411	2.500305652618408
54	243.61830615997314	pulse	1	t		52.0	2.5	/experiments/knapen_AOT/AOT_stimuli/rescaled_final/0173_rv.mp4	0.0	259.2322082519531	
54	244.53656244277954	fix_post	2		12	52.0	2.5	/experiments/knapen_AOT/AOT_stimuli/rescaled_final/0173_rv.mp4	0.0	260.1504645347595	0.10004138946533203
55	244.63660383224487	fix_pre	0		120	53.0	2.5	/experiments/knapen_AOT/AOT_stimuli/rescaled_final/1858_rv.mp4	0.0	260.25050592422485	1.0084924697875977
55	245.22017359733582	pulse	0	t		53.0	2.5	/experiments/knapen_AOT/AOT_stimuli/rescaled_final/1858_rv.mp4	0.0	260.8340756893158	
55	245.64509630203247	movie	1		282	53.0	2.5	/experiments/knapen_AOT/AOT_stimuli/rescaled_final/1858_rv.mp4	0.0	261.25899839401245	2.4920153617858887
55	246.81937313079834	pulse	1	t		53.0	2.5	/experiments/knapen_AOT/AOT_stimuli/rescaled_final/1858_rv.mp4	0.0	262.4332752227783	
55	248.13711166381836	fix_post	2		12	53.0	2.5	/experiments/knapen_AOT/AOT_stimuli/rescaled_final/1858_rv.mp4	0.0	263.75101375579834	0.10001325607299805
56	248.23712491989136	fix_pre	0		120	54.0	2.5	/experiments/knapen_AOT/AOT_stimuli/rescaled_final/1524_fw.mp4	0.0	263.85102701187134	1.0085153579711914
56	248.4208960533142	pulse	0	t		54.0	2.5	/experiments/knapen_AOT/AOT_stimuli/rescaled_final/1524_fw.mp4	0.0	264.0347981452942	
56	249.24564027786255	movie	1		280	54.0	2.5	/experiments/knapen_AOT/AOT_stimuli/rescaled_final/1524_fw.mp4	0.0	264.85954236984253	2.4921038150787354
56	250.01916217803955	pulse	1	t		54.0	2.5	/experiments/knapen_AOT/AOT_stimuli/rescaled_final/1524_fw.mp4	0.0	265.63306427001953	
56	251.61936450004578	pulse	1	t		54.0	2.5	/experiments/knapen_AOT/AOT_stimuli/rescaled_final/1524_fw.mp4	0.0	267.23326659202576	
56	251.73774409294128	fix_post	2		12	54.0	2.5	/experiments/knapen_AOT/AOT_stimuli/rescaled_final/1524_fw.mp4	0.0	267.35164618492126	0.09996914863586426
57	251.83771324157715	fix_pre	0		120	55.0	2.5	/experiments/knapen_AOT/AOT_stimuli/rescaled_final/1762_fw.mp4	0.0	267.45161533355713	1.008467197418213
57	252.84618043899536	movie	1		281	55.0	2.5	/experiments/knapen_AOT/AOT_stimuli/rescaled_final/1762_fw.mp4	0.0	268.46008253097534	2.492044687271118
57	253.219988822937	pulse	1	t		55.0	2.5	/experiments/knapen_AOT/AOT_stimuli/rescaled_final/1762_fw.mp4	0.0	268.833890914917	
57	254.81951308250427	pulse	1	t		55.0	2.5	/experiments/knapen_AOT/AOT_stimuli/rescaled_final/1762_fw.mp4	0.0	270.43341517448425	
57	255.33822512626648	fix_post	2		12	55.0	2.5	/experiments/knapen_AOT/AOT_stimuli/rescaled_final/1762_fw.mp4	0.0	270.95212721824646	0.10003185272216797
58	255.43825697898865	fix_pre	0		119	56.0	2.5	blank	1.0	271.0521590709686	0.991793155670166
58	256.42190051078796	pulse	0	t		56.0	2.5	blank	1.0	272.03580260276794	
58	256.4300501346588	movie	1		301	56.0	2.5	blank	1.0	272.0439522266388	2.508699655532837
58	258.0221288204193	pulse	1	t		56.0	2.5	blank	1.0	273.6360309123993	
58	258.93874979019165	fix_post	2		12	56.0	2.5	blank	1.0	274.55265188217163	0.09997987747192383
59	259.0387296676636	fix_pre	0		120	57.0	2.5	/experiments/knapen_AOT/AOT_stimuli/rescaled_final/0173_fw.mp4	0.0	274.65263175964355	1.0085780620574951
59	259.62235736846924	pulse	0	t		57.0	2.5	/experiments/knapen_AOT/AOT_stimuli/rescaled_final/0173_fw.mp4	0.0	275.2362594604492	
59	260.04730772972107	movie	1		279	57.0	2.5	/experiments/knapen_AOT/AOT_stimuli/rescaled_final/0173_fw.mp4	0.0	275.66120982170105	2.4920217990875244
59	261.22308707237244	pulse	1	t		57.0	2.5	/experiments/knapen_AOT/AOT_stimuli/rescaled_final/0173_fw.mp4	0.0	276.8369891643524	
59	262.5393295288086	fix_post	2		12	57.0	2.5	/experiments/knapen_AOT/AOT_stimuli/rescaled_final/0173_fw.mp4	0.0	278.1532316207886	0.09996747970581055
60	262.6392970085144	fix_pre	0		120	58.0	2.5	/experiments/knapen_AOT/AOT_stimuli/rescaled_final/1666_fw.mp4	0.0	278.2531991004944	1.0085408687591553
60	262.82317209243774	pulse	0	t		58.0	2.5	/experiments/knapen_AOT/AOT_stimuli/rescaled_final/1666_fw.mp4	0.0	278.4370741844177	
60	263.64783787727356	movie	1		290	58.0	2.5	/experiments/knapen_AOT/AOT_stimuli/rescaled_final/1666_fw.mp4	0.0	279.26173996925354	2.4919755458831787
60	264.42177724838257	pulse	1	t		58.0	2.5	/experiments/knapen_AOT/AOT_stimuli/rescaled_final/1666_fw.mp4	0.0	280.03567934036255	
60	266.02256512641907	pulse	1	t		58.0	2.5	/experiments/knapen_AOT/AOT_stimuli/rescaled_final/1666_fw.mp4	0.0	281.63646721839905	
60	266.13981342315674	fix_post	2		12	58.0	2.5	/experiments/knapen_AOT/AOT_stimuli/rescaled_final/1666_fw.mp4	0.0	281.7537155151367	0.10004377365112305
61	266.23985719680786	fix_pre	0		120	59.0	2.5	/experiments/knapen_AOT/AOT_stimuli/rescaled_final/0268_rv.mp4	0.0	281.85375928878784	1.0084776878356934
61	267.24833488464355	movie	1		289	59.0	2.5	/experiments/knapen_AOT/AOT_stimuli/rescaled_final/0268_rv.mp4	0.0	282.86223697662354	2.4920241832733154
61	267.62208890914917	pulse	1	t		59.0	2.5	/experiments/knapen_AOT/AOT_stimuli/rescaled_final/0268_rv.mp4	0.0	283.23599100112915	
61	269.2157635688782	pulse	1	t		59.0	2.5	/experiments/knapen_AOT/AOT_stimuli/rescaled_final/0268_rv.mp4	0.0	284.82966566085815	
61	269.74035906791687	fix_post	2		12	59.0	2.5	/experiments/knapen_AOT/AOT_stimuli/rescaled_final/0268_rv.mp4	0.0	285.35426115989685	0.10002589225769043
62	269.84038496017456	fix_pre	0		118	60.0	2.5	/experiments/knapen_AOT/AOT_stimuli/rescaled_final/0216_fw.mp4	0.0	285.45428705215454	0.9918017387390137
62	270.815767288208	pulse	0	t		60.0	2.5	/experiments/knapen_AOT/AOT_stimuli/rescaled_final/0216_fw.mp4	0.0	286.429669380188	
62	270.8321866989136	movie	1		285	60.0	2.5	/experiments/knapen_AOT/AOT_stimuli/rescaled_final/0216_fw.mp4	0.0	286.44608879089355	2.50040864944458
62	272.41608023643494	pulse	1	t		60.0	2.5	/experiments/knapen_AOT/AOT_stimuli/rescaled_final/0216_fw.mp4	0.0	288.0299823284149	
62	273.33259534835815	fix_post	2		12	60.0	2.5	/experiments/knapen_AOT/AOT_stimuli/rescaled_final/0216_fw.mp4	0.0	288.94649744033813	0.09999585151672363
63	273.4325911998749	fix_pre	0		120	61.0	2.5	/experiments/knapen_AOT/AOT_stimuli/rescaled_final/1858_fw.mp4	0.0	289.04649329185486	1.0085101127624512
63	274.01627945899963	pulse	0	t		61.0	2.5	/experiments/knapen_AOT/AOT_stimuli/rescaled_final/1858_fw.mp4	0.0	289.6301815509796	
63	274.44110131263733	movie	1		284	61.0	2.5	/experiments/knapen_AOT/AOT_stimuli/rescaled_final/1858_fw.mp4	0.0	290.0550034046173	2.4919967651367188
63	275.6166844367981	pulse	1	t		61.0	2.5	/experiments/knapen_AOT/AOT_stimuli/rescaled_final/1858_fw.mp4	0.0	291.2305865287781	
63	276.93309807777405	fix_post	2		12	61.0	2.5	/experiments/knapen_AOT/AOT_stimuli/rescaled_final/1858_fw.mp4	0.0	292.547000169754	0.10004019737243652
64	277.0331382751465	fix_pre	0		120	62.0	2.5	blank	1.0	292.64704036712646	1.000124454498291
64	277.21672558784485	pulse	0	t		62.0	2.5	blank	1.0	292.83062767982483	
64	278.0332627296448	movie	1		300	62.0	2.5	blank	1.0	293.64716482162476	2.500399589538574
64	278.81724524497986	pulse	1	t		62.0	2.5	blank	1.0	294.43114733695984	
64	280.4172022342682	pulse	1	t		62.0	2.5	blank	1.0	296.03110432624817	
64	280.53366231918335	fix_post	2		12	62.0	2.5	blank	1.0	296.14756441116333	0.1001124382019043
65	280.63377475738525	fix_pre	0		120	63.0	2.5	/experiments/knapen_AOT/AOT_stimuli/rescaled_final/0213_rv.mp4	0.0	296.24767684936523	1.0083787441253662
65	281.6421535015106	movie	1		291	63.0	2.5	/experiments/knapen_AOT/AOT_stimuli/rescaled_final/0213_rv.mp4	0.0	297.2560555934906	2.4920248985290527
65	282.0158121585846	pulse	1	t		63.0	2.5	/experiments/knapen_AOT/AOT_stimuli/rescaled_final/0213_rv.mp4	0.0	297.6297142505646	
65	283.6176335811615	pulse	1	t		63.0	2.5	/experiments/knapen_AOT/AOT_stimuli/rescaled_final/0213_rv.mp4	0.0	299.2315356731415	
65	284.1341784000397	fix_post	2		12	63.0	2.5	/experiments/knapen_AOT/AOT_stimuli/rescaled_final/0213_rv.mp4	0.0	299.74808049201965	0.09999465942382812
66	284.2341730594635	fix_pre	0		119	64.0	2.5	/experiments/knapen_AOT/AOT_stimuli/rescaled_final/1496_rv.mp4	0.0	299.8480751514435	1.0002093315124512
66	285.2180471420288	pulse	0	t		64.0	2.5	/experiments/knapen_AOT/AOT_stimuli/rescaled_final/1496_rv.mp4	0.0	300.8319492340088	
66	285.23438239097595	movie	1		285	64.0	2.5	/experiments/knapen_AOT/AOT_stimuli/rescaled_final/1496_rv.mp4	0.0	300.84828448295593	2.5003550052642822
66	286.8170289993286	pulse	1	t		64.0	2.5	/experiments/knapen_AOT/AOT_stimuli/rescaled_final/1496_rv.mp4	0.0	302.4309310913086	
66	287.73473739624023	fix_post	2		12	64.0	2.5	/experiments/knapen_AOT/AOT_stimuli/rescaled_final/1496_rv.mp4	0.0	303.3486394882202	0.10000014305114746
67	287.8347375392914	fix_pre	0		120	65.0	2.5	/experiments/knapen_AOT/AOT_stimuli/rescaled_final/1524_rv.mp4	0.0	303.44863963127136	1.008514165878296
67	288.4184424877167	pulse	0	t		65.0	2.5	/experiments/knapen_AOT/AOT_stimuli/rescaled_final/1524_rv.mp4	0.0	304.03234457969666	
67	288.8432517051697	movie	1		284	65.0	2.5	/experiments/knapen_AOT/AOT_stimuli/rescaled_final/1524_rv.mp4	0.0	304.45715379714966	2.4921584129333496
67	290.016996383667	pulse	1	t		65.0	2.5	/experiments/knapen_AOT/AOT_stimuli/rescaled_final/1524_rv.mp4	0.0	305.630898475647	
67	291.335410118103	fix_post	2		12	65.0	2.5	/experiments/knapen_AOT/AOT_stimuli/rescaled_final/1524_rv.mp4	0.0	306.949312210083	0.09987807273864746
68	291.4352881908417	fix_pre	0		120	66.0	2.5	/experiments/knapen_AOT/AOT_stimuli/rescaled_final/1927_fw.mp4	0.0	307.04919028282166	1.0085043907165527
68	291.61884093284607	pulse	0	t		66.0	2.5	/experiments/knapen_AOT/AOT_stimuli/rescaled_final/1927_fw.mp4	0.0	307.23274302482605	
68	292.4437925815582	movie	1		287	66.0	2.5	/experiments/knapen_AOT/AOT_stimuli/rescaled_final/1927_fw.mp4	0.0	308.0576946735382	2.492062568664551
68	293.2172431945801	pulse	1	t		66.0	2.5	/experiments/knapen_AOT/AOT_stimuli/rescaled_final/1927_fw.mp4	0.0	308.83114528656006	
68	294.8177502155304	pulse	1	t		66.0	2.5	/experiments/knapen_AOT/AOT_stimuli/rescaled_final/1927_fw.mp4	0.0	310.4316523075104	
68	294.9358551502228	fix_post	2		12	66.0	2.5	/experiments/knapen_AOT/AOT_stimuli/rescaled_final/1927_fw.mp4	0.0	310.54975724220276	0.09996914863586426
69	295.03582429885864	fix_pre	0		120	67.0	2.5	/experiments/knapen_AOT/AOT_stimuli/rescaled_final/0303_fw.mp4	0.0	310.6497263908386	1.008486032485962
69	296.0443103313446	movie	1		291	67.0	2.5	/experiments/knapen_AOT/AOT_stimuli/rescaled_final/0303_fw.mp4	0.0	311.6582124233246	2.4920289516448975
69	296.4179542064667	pulse	1	t		67.0	2.5	/experiments/knapen_AOT/AOT_stimuli/rescaled_final/0303_fw.mp4	0.0	312.03185629844666	
69	298.01776337623596	pulse	1	t		67.0	2.5	/experiments/knapen_AOT/AOT_stimuli/rescaled_final/0303_fw.mp4	0.0	313.63166546821594	
69	298.5363392829895	fix_post	2		12	67.0	2.5	/experiments/knapen_AOT/AOT_stimuli/rescaled_final/0303_fw.mp4	0.0	314.1502413749695	0.10003018379211426
70	298.6363694667816	fix_pre	0		119	68.0	2.5	/experiments/knapen_AOT/AOT_stimuli/rescaled_final/0976_rv.mp4	0.0	314.2502715587616	1.0002100467681885
70	299.6200807094574	pulse	0	t		68.0	2.5	/experiments/knapen_AOT/AOT_stimuli/rescaled_final/0976_rv.mp4	0.0	315.2339828014374	
70	299.6365795135498	movie	1		281	68.0	2.5	/experiments/knapen_AOT/AOT_stimuli/rescaled_final/0976_rv.mp4	0.0	315.2504816055298	2.5003418922424316
70	301.2188220024109	pulse	1	t		68.0	2.5	/experiments/knapen_AOT/AOT_stimuli/rescaled_final/0976_rv.mp4	0.0	316.83272409439087	
70	302.13692140579224	fix_post	2		12	68.0	2.5	/experiments/knapen_AOT/AOT_stimuli/rescaled_final/0976_rv.mp4	0.0	317.7508234977722	0.10004687309265137
71	302.2369682788849	fix_pre	0		120	69.0	2.5	blank	1.0	317.85087037086487	1.000077247619629
71	302.82054448127747	pulse	0	t		69.0	2.5	blank	1.0	318.43444657325745	
71	303.2370455265045	movie	1		300	69.0	2.5	blank	1.0	318.8509476184845	2.5003817081451416
71	304.4208393096924	pulse	1	t		69.0	2.5	blank	1.0	320.03474140167236	
71	305.73742723464966	fix_post	2		12	69.0	2.5	blank	1.0	321.35132932662964	0.10000777244567871
72	305.83743500709534	fix_pre	0		120	70.0	2.5	/experiments/knapen_AOT/AOT_stimuli/rescaled_final/1921_rv.mp4	0.0	321.4513370990753	1.0085160732269287
72	306.0210425853729	pulse	0	t		70.0	2.5	/experiments/knapen_AOT/AOT_stimuli/rescaled_final/1921_rv.mp4	0.0	321.6349446773529	
72	306.84595108032227	movie	1		284	70.0	2.5	/experiments/knapen_AOT/AOT_stimuli/rescaled_final/1921_rv.mp4	0.0	322.45985317230225	2.4921603202819824
72	307.6194381713867	pulse	1	t		70.0	2.5	/experiments/knapen_AOT/AOT_stimuli/rescaled_final/1921_rv.mp4	0.0	323.2333402633667	
72	309.22025871276855	pulse	1	t		70.0	2.5	/experiments/knapen_AOT/AOT_stimuli/rescaled_final/1921_rv.mp4	0.0	324.83416080474854	
72	309.33811140060425	fix_post	2		12	70.0	2.5	/experiments/knapen_AOT/AOT_stimuli/rescaled_final/1921_rv.mp4	0.0	324.95201349258423	0.0998685359954834
73	309.43797993659973	fix_pre	0		120	71.0	2.5	/experiments/knapen_AOT/AOT_stimuli/rescaled_final/1912_fw.mp4	0.0	325.0518820285797	1.0085604190826416
73	310.4465403556824	movie	1		282	71.0	2.5	/experiments/knapen_AOT/AOT_stimuli/rescaled_final/1912_fw.mp4	0.0	326.06044244766235	2.4920074939727783
73	310.8207137584686	pulse	1	t		71.0	2.5	/experiments/knapen_AOT/AOT_stimuli/rescaled_final/1912_fw.mp4	0.0	326.4346158504486	
73	312.4207227230072	pulse	1	t		71.0	2.5	/experiments/knapen_AOT/AOT_stimuli/rescaled_final/1912_fw.mp4	0.0	328.0346248149872	
73	312.93854784965515	fix_post	2		12	71.0	2.5	/experiments/knapen_AOT/AOT_stimuli/rescaled_final/1912_fw.mp4	0.0	328.55244994163513	0.09999799728393555
74	313.0385458469391	fix_pre	0		119	72.0	2.5	/experiments/knapen_AOT/AOT_stimuli/rescaled_final/0759_fw.mp4	0.0	328.65244793891907	1.0001487731933594
74	314.0223045349121	pulse	0	t		72.0	2.5	/experiments/knapen_AOT/AOT_stimuli/rescaled_final/0759_fw.mp4	0.0	329.6362066268921	
74	314.03869462013245	movie	1		281	72.0	2.5	/experiments/knapen_AOT/AOT_stimuli/rescaled_final/0759_fw.mp4	0.0	329.6525967121124	2.5004255771636963
74	315.6210181713104	pulse	1	t		72.0	2.5	/experiments/knapen_AOT/AOT_stimuli/rescaled_final/0759_fw.mp4	0.0	331.2349202632904	
74	316.53912019729614	fix_post	2		12	72.0	2.5	/experiments/knapen_AOT/AOT_stimuli/rescaled_final/0759_fw.mp4	0.0	332.1530222892761	0.09995055198669434
75	316.63907074928284	fix_pre	0		120	73.0	2.5	/experiments/knapen_AOT/AOT_stimuli/rescaled_final/0166_fw.mp4	0.0	332.2529728412628	1.0085132122039795
75	317.21508836746216	pulse	0	t		73.0	2.5	/experiments/knapen_AOT/AOT_stimuli/rescaled_final/0166_fw.mp4	0.0	332.82899045944214	
75	317.6475839614868	movie	1		285	73.0	2.5	/experiments/knapen_AOT/AOT_stimuli/rescaled_final/0166_fw.mp4	0.0	333.2614860534668	2.492035150527954
75	318.8220946788788	pulse	1	t		73.0	2.5	/experiments/knapen_AOT/AOT_stimuli/rescaled_final/0166_fw.mp4	0.0	334.43599677085876	
75	320.13961911201477	fix_post	2		12	73.0	2.5	/experiments/knapen_AOT/AOT_stimuli/rescaled_final/0166_fw.mp4	0.0	335.75352120399475	0.0999910831451416
76	320.2396101951599	fix_pre	0		120	74.0	2.5	/experiments/knapen_AOT/AOT_stimuli/rescaled_final/1482_fw.mp4	0.0	335.8535122871399	1.0085108280181885
76	320.4153747558594	pulse	0	t		74.0	2.5	/experiments/knapen_AOT/AOT_stimuli/rescaled_final/1482_fw.mp4	0.0	336.02927684783936	
76	321.2481210231781	movie	1		286	74.0	2.5	/experiments/knapen_AOT/AOT_stimuli/rescaled_final/1482_fw.mp4	0.0	336.8620231151581	2.4920244216918945
76	322.01516222953796	pulse	1	t		74.0	2.5	/experiments/knapen_AOT/AOT_stimuli/rescaled_final/1482_fw.mp4	0.0	337.62906432151794	
76	323.6153299808502	pulse	1	t		74.0	2.5	/experiments/knapen_AOT/AOT_stimuli/rescaled_final/1482_fw.mp4	0.0	339.2292320728302	
76	323.74014544487	fix_post	2		12	74.0	2.5	/experiments/knapen_AOT/AOT_stimuli/rescaled_final/1482_fw.mp4	0.0	339.35404753685	0.10002756118774414
77	323.84017300605774	fix_pre	0		120	75.0	2.5	/experiments/knapen_AOT/AOT_stimuli/rescaled_final/1013_rv.mp4	0.0	339.4540750980377	1.0085318088531494
77	324.8487048149109	movie	1		286	75.0	2.5	/experiments/knapen_AOT/AOT_stimuli/rescaled_final/1013_rv.mp4	0.0	340.46260690689087	2.4919750690460205
77	325.2158844470978	pulse	1	t		75.0	2.5	/experiments/knapen_AOT/AOT_stimuli/rescaled_final/1013_rv.mp4	0.0	340.82978653907776	
77	326.81595492362976	pulse	1	t		75.0	2.5	/experiments/knapen_AOT/AOT_stimuli/rescaled_final/1013_rv.mp4	0.0	342.42985701560974	
77	327.3406798839569	fix_post	2		12	75.0	2.5	/experiments/knapen_AOT/AOT_stimuli/rescaled_final/1013_rv.mp4	0.0	342.9545819759369	0.10004329681396484
78	327.4407231807709	fix_pre	0		118	76.0	2.5	/experiments/knapen_AOT/AOT_stimuli/rescaled_final/0138_fw.mp4	0.0	343.05462527275085	0.9918394088745117
78	328.416157245636	pulse	0	t		76.0	2.5	/experiments/knapen_AOT/AOT_stimuli/rescaled_final/0138_fw.mp4	0.0	344.03005933761597	
78	328.4325625896454	movie	1		275	76.0	2.5	/experiments/knapen_AOT/AOT_stimuli/rescaled_final/0138_fw.mp4	0.0	344.04646468162537	2.500333309173584
78	330.0165078639984	pulse	1	t		76.0	2.5	/experiments/knapen_AOT/AOT_stimuli/rescaled_final/0138_fw.mp4	0.0	345.6304099559784	
78	330.93289589881897	fix_post	2		12	76.0	2.5	/experiments/knapen_AOT/AOT_stimuli/rescaled_final/0138_fw.mp4	0.0	346.54679799079895	0.10001111030578613
79	331.03290700912476	fix_pre	0		120	77.0	2.5	blank	1.0	346.64680910110474	1.0001416206359863
79	331.61665654182434	pulse	0	t		77.0	2.5	blank	1.0	347.2305586338043	
79	332.03304862976074	movie	1		300	77.0	2.5	blank	1.0	347.6469507217407	2.5004148483276367
79	333.21696972846985	pulse	1	t		77.0	2.5	blank	1.0	348.83087182044983	
79	334.5334634780884	fix_post	2		12	77.0	2.5	blank	1.0	350.14736557006836	0.10001873970031738
80	334.6334822177887	fix_pre	0		120	78.0	2.5	/experiments/knapen_AOT/AOT_stimuli/rescaled_final/0662_rv.mp4	0.0	350.2473843097687	1.0084583759307861
80	334.81698775291443	pulse	0	t		78.0	2.5	/experiments/knapen_AOT/AOT_stimuli/rescaled_final/0662_rv.mp4	0.0	350.4308898448944	
80	335.6419405937195	movie	1		287	78.0	2.5	/experiments/knapen_AOT/AOT_stimuli/rescaled_final/0662_rv.mp4	0.0	351.25584268569946	2.4920566082000732
80	336.4159712791443	pulse	1	t		78.0	2.5	/experiments/knapen_AOT/AOT_stimuli/rescaled_final/0662_rv.mp4	0.0	352.02987337112427	
80	338.01564860343933	pulse	1	t		78.0	2.5	/experiments/knapen_AOT/AOT_stimuli/rescaled_final/0662_rv.mp4	0.0	353.6295506954193	
80	338.13399720191956	fix_post	2		12	78.0	2.5	/experiments/knapen_AOT/AOT_stimuli/rescaled_final/0662_rv.mp4	0.0	353.74789929389954	0.0999917984008789
81	338.23398900032043	fix_pre	0		120	79.0	2.5	/experiments/knapen_AOT/AOT_stimuli/rescaled_final/1618_rv.mp4	0.0	353.8478910923004	1.008493185043335
81	339.24248218536377	movie	1		283	79.0	2.5	/experiments/knapen_AOT/AOT_stimuli/rescaled_final/1618_rv.mp4	0.0	354.85638427734375	2.4920499324798584
81	339.6160628795624	pulse	1	t		79.0	2.5	/experiments/knapen_AOT/AOT_stimuli/rescaled_final/1618_rv.mp4	0.0	355.22996497154236	
81	341.2164463996887	pulse	1	t		79.0	2.5	/experiments/knapen_AOT/AOT_stimuli/rescaled_final/1618_rv.mp4	0.0	356.8303484916687	
81	341.7345321178436	fix_post	2		12	79.0	2.5	/experiments/knapen_AOT/AOT_stimuli/rescaled_final/1618_rv.mp4	0.0	357.3484342098236	0.10002422332763672
82	341.83455634117126	fix_pre	0		119	80.0	2.5	/experiments/knapen_AOT/AOT_stimuli/rescaled_final/0689_rv.mp4	0.0	357.44845843315125	1.0001308917999268
82	342.818256855011	pulse	0	t		80.0	2.5	/experiments/knapen_AOT/AOT_stimuli/rescaled_final/0689_rv.mp4	0.0	358.43215894699097	
82	342.8346872329712	movie	1		286	80.0	2.5	/experiments/knapen_AOT/AOT_stimuli/rescaled_final/0689_rv.mp4	0.0	358.4485893249512	2.5003726482391357
82	344.4176948070526	pulse	1	t		80.0	2.5	/experiments/knapen_AOT/AOT_stimuli/rescaled_final/0689_rv.mp4	0.0	360.0315968990326	
82	345.3350598812103	fix_post	2		12	80.0	2.5	/experiments/knapen_AOT/AOT_stimuli/rescaled_final/0689_rv.mp4	0.0	360.9489619731903	0.1000068187713623
83	345.4350666999817	fix_pre	0		120	81.0	2.5	/experiments/knapen_AOT/AOT_stimuli/rescaled_final/0439_fw.mp4	0.0	361.04896879196167	1.0085358619689941
83	346.01870822906494	pulse	0	t		81.0	2.5	/experiments/knapen_AOT/AOT_stimuli/rescaled_final/0439_fw.mp4	0.0	361.6326103210449	
83	346.4436025619507	movie	1		288	81.0	2.5	/experiments/knapen_AOT/AOT_stimuli/rescaled_final/0439_fw.mp4	0.0	362.05750465393066	2.4920432567596436
83	347.6174626350403	pulse	1	t		81.0	2.5	/experiments/knapen_AOT/AOT_stimuli/rescaled_final/0439_fw.mp4	0.0	363.23136472702026	
83	348.9356458187103	fix_post	2		12	81.0	2.5	/experiments/knapen_AOT/AOT_stimuli/rescaled_final/0439_fw.mp4	0.0	364.5495479106903	0.09997749328613281
84	349.03562331199646	fix_pre	0		120	82.0	2.5	/experiments/knapen_AOT/AOT_stimuli/rescaled_final/1762_rv.mp4	0.0	364.64952540397644	1.0084912776947021
84	349.21915197372437	pulse	0	t		82.0	2.5	/experiments/knapen_AOT/AOT_stimuli/rescaled_final/1762_rv.mp4	0.0	364.83305406570435	
84	350.04411458969116	movie	1		277	82.0	2.5	/experiments/knapen_AOT/AOT_stimuli/rescaled_final/1762_rv.mp4	0.0	365.65801668167114	2.4921715259552
84	350.8177492618561	pulse	1	t		82.0	2.5	/experiments/knapen_AOT/AOT_stimuli/rescaled_final/1762_rv.mp4	0.0	366.43165135383606	
84	352.41790413856506	pulse	1	t		82.0	2.5	/experiments/knapen_AOT/AOT_stimuli/rescaled_final/1762_rv.mp4	0.0	368.03180623054504	
84	352.53628611564636	fix_post	2		12	82.0	2.5	/experiments/knapen_AOT/AOT_stimuli/rescaled_final/1762_rv.mp4	0.0	368.15018820762634	0.09983253479003906
85	352.6361186504364	fix_pre	0		120	83.0	2.5	blank	1.0	368.2500207424164	1.0001721382141113
85	353.6362907886505	movie	1		300	83.0	2.5	blank	1.0	369.2501928806305	2.5004098415374756
85	354.0199098587036	pulse	1	t		83.0	2.5	blank	1.0	369.6338119506836	
85	355.6201434135437	pulse	1	t		83.0	2.5	blank	1.0	371.2340455055237	
85	356.136700630188	fix_post	2		12	83.0	2.5	blank	1.0	371.75060272216797	0.12503910064697266
87	356.26173973083496	stim	0		1712					371.87564182281494	14.268781900405884
87	357.22035002708435	pulse	0	t						372.83425211906433	
87	358.82062244415283	pulse	0	t						374.4345245361328	
87	360.4208607673645	pulse	0	t						376.0347628593445	
87	362.0211980342865	pulse	0	t						377.6351001262665	
87	363.62135648727417	pulse	0	t						379.23525857925415	
87	365.22155952453613	pulse	0	t						380.8354616165161	
87	366.82182335853577	pulse	0	t						382.43572545051575	
87	368.42205595970154	pulse	0	t						384.0359580516815	
87	370.0225796699524	pulse	0	t						385.6364817619324	
