trial_nr	onset	event_type	phase	response	nr_frames	movie_index	movie_duration	movie_file	blank	onset_abs	duration
0	0.12490606307983398	stim	0		128					21.405699968338013	1.0666699409484863
0	1.1835880279541016	response	0	space						22.46438193321228	
1	1.1915760040283203	stim	0		14587					22.4723699092865	121.5576400756836
1	122.73793506622314	pulse	0	t						144.01872897148132	
1	122.74921607971191	stim	1		1717					144.0300099849701	14.308326959609985
1	124.33275389671326	pulse	1	t						145.61354780197144	
1	125.93278503417969	pulse	1	t						147.21357893943787	
1	127.532723903656	pulse	1	t						148.81351780891418	
1	129.13358306884766	pulse	1	t						150.41437697410583	
1	130.7335329055786	pulse	1	t						152.0143268108368	
1	132.33344793319702	pulse	1	t						153.6142418384552	
1	133.93270206451416	pulse	1	t						155.21349596977234	
1	135.53269505500793	pulse	1	t						156.8134889602661	
2	137.0575430393219	fix_pre	0		10	0.0	2.5	/experiments/AOT/AOT_stimuli/rescaled_final/0720_rv.mp4	0.0	158.33833694458008	0.08328700065612793
2	137.13276290893555	pulse	0	t		0.0	2.5	/experiments/AOT/AOT_stimuli/rescaled_final/0720_rv.mp4	0.0	158.41355681419373	
2	137.14083003997803	movie	1		243	0.0	2.5	/experiments/AOT/AOT_stimuli/rescaled_final/0720_rv.mp4	0.0	158.4216239452362	2.5083940029144287
2	138.7337191104889	pulse	1	t		0.0	2.5	/experiments/AOT/AOT_stimuli/rescaled_final/0720_rv.mp4	0.0	160.01451301574707	
2	139.64922404289246	fix_post	2		12	0.0	2.5	/experiments/AOT/AOT_stimuli/rescaled_final/0720_rv.mp4	0.0	160.93001794815063	0.0999908447265625
3	139.74921488761902	fix_pre	0		120	1.0	2.5	/experiments/AOT/AOT_stimuli/rescaled_final/1517_fw.mp4	0.0	161.0300087928772	1.0000460147857666
3	140.33269691467285	pulse	0	t		1.0	2.5	/experiments/AOT/AOT_stimuli/rescaled_final/1517_fw.mp4	0.0	161.61349081993103	
3	140.74926090240479	movie	1		244	1.0	2.5	/experiments/AOT/AOT_stimuli/rescaled_final/1517_fw.mp4	0.0	162.03005480766296	2.4998881816864014
3	141.9327208995819	pulse	1	t		1.0	2.5	/experiments/AOT/AOT_stimuli/rescaled_final/1517_fw.mp4	0.0	163.2135148048401	
3	143.2491490840912	fix_post	2		12	1.0	2.5	/experiments/AOT/AOT_stimuli/rescaled_final/1517_fw.mp4	0.0	164.52994298934937	0.09997081756591797
4	143.3491199016571	fix_pre	0		120	2.0	2.5	/experiments/AOT/AOT_stimuli/rescaled_final/0850_rv.mp4	0.0	164.62991380691528	1.000007152557373
4	143.53261709213257	pulse	0	t		2.0	2.5	/experiments/AOT/AOT_stimuli/rescaled_final/0850_rv.mp4	0.0	164.81341099739075	
4	144.34912705421448	movie	1		244	2.0	2.5	/experiments/AOT/AOT_stimuli/rescaled_final/0850_rv.mp4	0.0	165.62992095947266	2.5000219345092773
4	145.1335310935974	pulse	1	t		2.0	2.5	/experiments/AOT/AOT_stimuli/rescaled_final/0850_rv.mp4	0.0	166.4143249988556	
4	146.74105501174927	pulse	1	t		2.0	2.5	/experiments/AOT/AOT_stimuli/rescaled_final/0850_rv.mp4	0.0	168.02184891700745	
4	146.84914898872375	fix_post	2		12	2.0	2.5	/experiments/AOT/AOT_stimuli/rescaled_final/0850_rv.mp4	0.0	168.12994289398193	0.10002493858337402
5	146.94917392730713	fix_pre	0		120	3.0	2.5	/experiments/AOT/AOT_stimuli/rescaled_final/1274_fw.mp4	0.0	168.2299678325653	0.9999129772186279
5	147.94908690452576	movie	1		243	3.0	2.5	/experiments/AOT/AOT_stimuli/rescaled_final/1274_fw.mp4	0.0	169.22988080978394	2.4999890327453613
5	148.34112191200256	pulse	1	t		3.0	2.5	/experiments/AOT/AOT_stimuli/rescaled_final/1274_fw.mp4	0.0	169.62191581726074	
5	149.93352794647217	pulse	1	t		3.0	2.5	/experiments/AOT/AOT_stimuli/rescaled_final/1274_fw.mp4	0.0	171.21432185173035	
5	150.44907593727112	fix_post	2		12	3.0	2.5	/experiments/AOT/AOT_stimuli/rescaled_final/1274_fw.mp4	0.0	171.7298698425293	0.1000511646270752
6	150.5491271018982	fix_pre	0		120	4.0	2.5	/experiments/AOT/AOT_stimuli/rescaled_final/2053_rv.mp4	0.0	171.82992100715637	1.0000519752502441
6	151.5334711074829	pulse	0	t		4.0	2.5	/experiments/AOT/AOT_stimuli/rescaled_final/2053_rv.mp4	0.0	172.8142650127411	
6	151.54917907714844	movie	1		247	4.0	2.5	/experiments/AOT/AOT_stimuli/rescaled_final/2053_rv.mp4	0.0	172.82997298240662	2.5082929134368896
6	153.14082098007202	pulse	1	t		4.0	2.5	/experiments/AOT/AOT_stimuli/rescaled_final/2053_rv.mp4	0.0	174.4216148853302	
6	154.05747199058533	fix_post	2		12	4.0	2.5	/experiments/AOT/AOT_stimuli/rescaled_final/2053_rv.mp4	0.0	175.3382658958435	0.10005998611450195
7	154.15753197669983	fix_pre	0		120	5.0	2.5	blank	1.0	175.438325881958	0.9995501041412354
7	154.73312997817993	pulse	0	t		5.0	2.5	blank	1.0	176.0139238834381	
7	155.15708208084106	movie	1		300	5.0	2.5	blank	1.0	176.43787598609924	2.5006840229034424
7	156.3327260017395	pulse	1	t		5.0	2.5	blank	1.0	177.61351990699768	
7	157.6577661037445	fix_post	2		12	5.0	2.5	blank	1.0	178.93856000900269	0.10005593299865723
8	157.75782203674316	fix_pre	0		120	6.0	2.5	/experiments/AOT/AOT_stimuli/rescaled_final/1751_rv.mp4	0.0	179.03861594200134	0.9996240139007568
8	157.9325659275055	pulse	0	t		6.0	2.5	/experiments/AOT/AOT_stimuli/rescaled_final/1751_rv.mp4	0.0	179.21335983276367	
8	158.75744605064392	movie	1		244	6.0	2.5	/experiments/AOT/AOT_stimuli/rescaled_final/1751_rv.mp4	0.0	180.0382399559021	2.5000498294830322
8	159.53252696990967	pulse	1	t		6.0	2.5	/experiments/AOT/AOT_stimuli/rescaled_final/1751_rv.mp4	0.0	180.81332087516785	
8	161.13915705680847	pulse	1	t		6.0	2.5	/experiments/AOT/AOT_stimuli/rescaled_final/1751_rv.mp4	0.0	182.41995096206665	
8	161.25749588012695	fix_post	2		12	6.0	2.5	/experiments/AOT/AOT_stimuli/rescaled_final/1751_rv.mp4	0.0	182.53828978538513	0.09990310668945312
9	161.3573989868164	fix_pre	0		120	7.0	2.5	/experiments/AOT/AOT_stimuli/rescaled_final/0432_fw.mp4	0.0	182.63819289207458	1.000014066696167
9	162.35741305351257	movie	1		244	7.0	2.5	/experiments/AOT/AOT_stimuli/rescaled_final/0432_fw.mp4	0.0	183.63820695877075	2.4999349117279053
9	162.74050307273865	pulse	1	t		7.0	2.5	/experiments/AOT/AOT_stimuli/rescaled_final/0432_fw.mp4	0.0	184.02129697799683	
9	164.33349609375	pulse	1	t		7.0	2.5	/experiments/AOT/AOT_stimuli/rescaled_final/0432_fw.mp4	0.0	185.61428999900818	
9	164.85734796524048	fix_post	2		12	7.0	2.5	/experiments/AOT/AOT_stimuli/rescaled_final/0432_fw.mp4	0.0	186.13814187049866	0.10007405281066895
10	164.95742201805115	fix_pre	0		119	8.0	2.5	/experiments/AOT/AOT_stimuli/rescaled_final/1634_rv.mp4	0.0	186.23821592330933	0.991584062576294
10	165.93324303627014	pulse	0	t		8.0	2.5	/experiments/AOT/AOT_stimuli/rescaled_final/1634_rv.mp4	0.0	187.21403694152832	
10	165.94900608062744	movie	1		246	8.0	2.5	/experiments/AOT/AOT_stimuli/rescaled_final/1634_rv.mp4	0.0	187.22979998588562	2.508327007293701
10	167.54200100898743	pulse	1	t		8.0	2.5	/experiments/AOT/AOT_stimuli/rescaled_final/1634_rv.mp4	0.0	188.8227949142456	
10	168.45733308792114	fix_post	2		12	8.0	2.5	/experiments/AOT/AOT_stimuli/rescaled_final/1634_rv.mp4	0.0	189.73812699317932	0.09999585151672363
11	168.55732893943787	fix_pre	0		120	9.0	2.5	/experiments/AOT/AOT_stimuli/rescaled_final/0644_fw.mp4	0.0	189.83812284469604	1.0000309944152832
11	169.13324189186096	pulse	0	t		9.0	2.5	/experiments/AOT/AOT_stimuli/rescaled_final/0644_fw.mp4	0.0	190.41403579711914	
11	169.55735993385315	movie	1		243	9.0	2.5	/experiments/AOT/AOT_stimuli/rescaled_final/0644_fw.mp4	0.0	190.83815383911133	2.500180959701538
11	170.7334520816803	pulse	1	t		9.0	2.5	/experiments/AOT/AOT_stimuli/rescaled_final/0644_fw.mp4	0.0	192.01424598693848	
11	172.0575408935547	fix_post	2		12	9.0	2.5	/experiments/AOT/AOT_stimuli/rescaled_final/0644_fw.mp4	0.0	193.33833479881287	0.09984111785888672
12	172.15738201141357	fix_pre	0		120	10.0	2.5	/experiments/AOT/AOT_stimuli/rescaled_final/1406_fw.mp4	0.0	193.43817591667175	1.0000250339508057
12	172.33332300186157	pulse	0	t		10.0	2.5	/experiments/AOT/AOT_stimuli/rescaled_final/1406_fw.mp4	0.0	193.61411690711975	
12	173.15740704536438	movie	1		244	10.0	2.5	/experiments/AOT/AOT_stimuli/rescaled_final/1406_fw.mp4	0.0	194.43820095062256	2.500009059906006
12	173.93250393867493	pulse	1	t		10.0	2.5	/experiments/AOT/AOT_stimuli/rescaled_final/1406_fw.mp4	0.0	195.2132978439331	
12	175.53253507614136	pulse	1	t		10.0	2.5	/experiments/AOT/AOT_stimuli/rescaled_final/1406_fw.mp4	0.0	196.81332898139954	
12	175.65741610527039	fix_post	2		12	10.0	2.5	/experiments/AOT/AOT_stimuli/rescaled_final/1406_fw.mp4	0.0	196.93821001052856	0.10001277923583984
13	175.75742888450623	fix_pre	0		120	11.0	2.5	/experiments/AOT/AOT_stimuli/rescaled_final/1578_rv.mp4	0.0	197.0382227897644	0.9999279975891113
13	176.75735688209534	movie	1		246	11.0	2.5	/experiments/AOT/AOT_stimuli/rescaled_final/1578_rv.mp4	0.0	198.03815078735352	2.500044107437134
13	177.14054489135742	pulse	1	t		11.0	2.5	/experiments/AOT/AOT_stimuli/rescaled_final/1578_rv.mp4	0.0	198.4213387966156	
13	178.73351788520813	pulse	1	t		11.0	2.5	/experiments/AOT/AOT_stimuli/rescaled_final/1578_rv.mp4	0.0	200.0143117904663	
13	179.25740098953247	fix_post	2		12	11.0	2.5	/experiments/AOT/AOT_stimuli/rescaled_final/1578_rv.mp4	0.0	200.53819489479065	0.09996509552001953
14	179.3573660850525	fix_pre	0		119	12.0	2.5	/experiments/AOT/AOT_stimuli/rescaled_final/0419_rv.mp4	0.0	200.63815999031067	0.9916579723358154
14	180.33332705497742	pulse	0	t		12.0	2.5	/experiments/AOT/AOT_stimuli/rescaled_final/0419_rv.mp4	0.0	201.6141209602356	
14	180.3490240573883	movie	1		246	12.0	2.5	/experiments/AOT/AOT_stimuli/rescaled_final/0419_rv.mp4	0.0	201.62981796264648	2.5082180500030518
14	181.94085097312927	pulse	1	t		12.0	2.5	/experiments/AOT/AOT_stimuli/rescaled_final/0419_rv.mp4	0.0	203.22164487838745	
14	182.85724210739136	fix_post	2		12	12.0	2.5	/experiments/AOT/AOT_stimuli/rescaled_final/0419_rv.mp4	0.0	204.13803601264954	0.10001993179321289
15	182.95726203918457	fix_pre	0		120	13.0	2.5	/experiments/AOT/AOT_stimuli/rescaled_final/1555_rv.mp4	0.0	204.23805594444275	1.00010085105896
15	183.53341794013977	pulse	0	t		13.0	2.5	/experiments/AOT/AOT_stimuli/rescaled_final/1555_rv.mp4	0.0	204.81421184539795	
15	183.95736289024353	movie	1		244	13.0	2.5	/experiments/AOT/AOT_stimuli/rescaled_final/1555_rv.mp4	0.0	205.2381567955017	2.499857187271118
15	185.14102005958557	pulse	1	t		13.0	2.5	/experiments/AOT/AOT_stimuli/rescaled_final/1555_rv.mp4	0.0	206.42181396484375	
15	186.45722007751465	fix_post	2		12	13.0	2.5	/experiments/AOT/AOT_stimuli/rescaled_final/1555_rv.mp4	0.0	207.73801398277283	0.10002303123474121
16	186.5572431087494	fix_pre	0		120	14.0	2.5	blank	1.0	207.83803701400757	1.0000548362731934
16	186.7332980632782	pulse	0	t		14.0	2.5	blank	1.0	208.01409196853638	
16	187.55729794502258	movie	1		300	14.0	2.5	blank	1.0	208.83809185028076	2.5000391006469727
16	188.33327794075012	pulse	1	t		14.0	2.5	blank	1.0	209.6140718460083	
16	189.93242692947388	pulse	1	t		14.0	2.5	blank	1.0	211.21322083473206	
16	190.05733704566956	fix_post	2		12	14.0	2.5	blank	1.0	211.33813095092773	0.09991097450256348
17	190.15724802017212	fix_pre	0		120	15.0	2.5	/experiments/AOT/AOT_stimuli/rescaled_final/1395_rv.mp4	0.0	211.4380419254303	1.0000650882720947
17	191.1573131084442	movie	1		244	15.0	2.5	/experiments/AOT/AOT_stimuli/rescaled_final/1395_rv.mp4	0.0	212.4381070137024	2.4999568462371826
17	191.53248500823975	pulse	1	t		15.0	2.5	/experiments/AOT/AOT_stimuli/rescaled_final/1395_rv.mp4	0.0	212.81327891349792	
17	193.13340306282043	pulse	1	t		15.0	2.5	/experiments/AOT/AOT_stimuli/rescaled_final/1395_rv.mp4	0.0	214.4141969680786	
17	193.6572699546814	fix_post	2		12	15.0	2.5	/experiments/AOT/AOT_stimuli/rescaled_final/1395_rv.mp4	0.0	214.93806385993958	0.10005712509155273
18	193.75732707977295	fix_pre	0		119	16.0	2.5	/experiments/AOT/AOT_stimuli/rescaled_final/2101_fw.mp4	0.0	215.03812098503113	0.991595983505249
18	194.7333869934082	pulse	0	t		16.0	2.5	/experiments/AOT/AOT_stimuli/rescaled_final/2101_fw.mp4	0.0	216.01418089866638	
18	194.7489230632782	movie	1		246	16.0	2.5	/experiments/AOT/AOT_stimuli/rescaled_final/2101_fw.mp4	0.0	216.02971696853638	2.50839900970459
18	196.3405830860138	pulse	1	t		16.0	2.5	/experiments/AOT/AOT_stimuli/rescaled_final/2101_fw.mp4	0.0	217.62137699127197	
18	197.2573220729828	fix_post	2		12	16.0	2.5	/experiments/AOT/AOT_stimuli/rescaled_final/2101_fw.mp4	0.0	218.53811597824097	0.09994983673095703
19	197.35727190971375	fix_pre	0		120	17.0	2.5	/experiments/AOT/AOT_stimuli/rescaled_final/1338_fw.mp4	0.0	218.63806581497192	1.0000190734863281
19	197.93335700035095	pulse	0	t		17.0	2.5	/experiments/AOT/AOT_stimuli/rescaled_final/1338_fw.mp4	0.0	219.21415090560913	
19	198.35729098320007	movie	1		243	17.0	2.5	/experiments/AOT/AOT_stimuli/rescaled_final/1338_fw.mp4	0.0	219.63808488845825	2.499951124191284
19	199.53365993499756	pulse	1	t		17.0	2.5	/experiments/AOT/AOT_stimuli/rescaled_final/1338_fw.mp4	0.0	220.81445384025574	
19	200.85724210739136	fix_post	2		12	17.0	2.5	/experiments/AOT/AOT_stimuli/rescaled_final/1338_fw.mp4	0.0	222.13803601264954	0.09993696212768555
20	200.95717906951904	fix_pre	0		120	18.0	2.5	/experiments/AOT/AOT_stimuli/rescaled_final/1338_rv.mp4	0.0	222.23797297477722	0.9999678134918213
20	201.13321709632874	pulse	0	t		18.0	2.5	/experiments/AOT/AOT_stimuli/rescaled_final/1338_rv.mp4	0.0	222.4140110015869	
20	201.95714688301086	movie	1		243	18.0	2.5	/experiments/AOT/AOT_stimuli/rescaled_final/1338_rv.mp4	0.0	223.23794078826904	2.5001320838928223
20	202.7333469390869	pulse	1	t		18.0	2.5	/experiments/AOT/AOT_stimuli/rescaled_final/1338_rv.mp4	0.0	224.0141408443451	
20	204.33925104141235	pulse	1	t		18.0	2.5	/experiments/AOT/AOT_stimuli/rescaled_final/1338_rv.mp4	0.0	225.62004494667053	
20	204.4572789669037	fix_post	2		12	18.0	2.5	/experiments/AOT/AOT_stimuli/rescaled_final/1338_rv.mp4	0.0	225.73807287216187	0.10006308555603027
21	204.55734205245972	fix_pre	0		120	19.0	2.5	blank	1.0	225.8381359577179	0.9998610019683838
21	205.5572030544281	movie	1		300	19.0	2.5	blank	1.0	226.83799695968628	2.5000808238983154
21	205.93251705169678	pulse	1	t		19.0	2.5	blank	1.0	227.21331095695496	
21	207.53228998184204	pulse	1	t		19.0	2.5	blank	1.0	228.81308388710022	
21	208.05728387832642	fix_post	2		12	19.0	2.5	blank	1.0	229.3380777835846	0.09989809989929199
22	208.1571819782257	fix_pre	0		119	20.0	2.5	/experiments/AOT/AOT_stimuli/rescaled_final/1747_rv.mp4	0.0	229.4379758834839	0.9917159080505371
22	209.1407949924469	pulse	0	t		20.0	2.5	/experiments/AOT/AOT_stimuli/rescaled_final/1747_rv.mp4	0.0	230.42158889770508	
22	209.14889788627625	movie	1		246	20.0	2.5	/experiments/AOT/AOT_stimuli/rescaled_final/1747_rv.mp4	0.0	230.42969179153442	2.507965087890625
22	210.7398009300232	pulse	1	t		20.0	2.5	/experiments/AOT/AOT_stimuli/rescaled_final/1747_rv.mp4	0.0	232.02059483528137	
22	211.65686297416687	fix_post	2		12	20.0	2.5	/experiments/AOT/AOT_stimuli/rescaled_final/1747_rv.mp4	0.0	232.93765687942505	0.09997105598449707
23	211.75683403015137	fix_pre	0		120	21.0	2.5	/experiments/AOT/AOT_stimuli/rescaled_final/1705_fw.mp4	0.0	233.03762793540955	1.0001790523529053
23	212.3334400653839	pulse	0	t		21.0	2.5	/experiments/AOT/AOT_stimuli/rescaled_final/1705_fw.mp4	0.0	233.6142339706421	
23	212.75701308250427	movie	1		245	21.0	2.5	/experiments/AOT/AOT_stimuli/rescaled_final/1705_fw.mp4	0.0	234.03780698776245	2.499753952026367
23	213.94071006774902	pulse	1	t		21.0	2.5	/experiments/AOT/AOT_stimuli/rescaled_final/1705_fw.mp4	0.0	235.2215039730072	
23	215.25676703453064	fix_post	2		12	21.0	2.5	/experiments/AOT/AOT_stimuli/rescaled_final/1705_fw.mp4	0.0	236.53756093978882	0.10040807723999023
24	215.35717511177063	fix_pre	0		120	22.0	2.5	/experiments/AOT/AOT_stimuli/rescaled_final/0169_rv.mp4	0.0	236.6379690170288	0.9999909400939941
24	215.53313398361206	pulse	0	t		22.0	2.5	/experiments/AOT/AOT_stimuli/rescaled_final/0169_rv.mp4	0.0	236.81392788887024	
24	216.35716605186462	movie	1		244	22.0	2.5	/experiments/AOT/AOT_stimuli/rescaled_final/0169_rv.mp4	0.0	237.6379599571228	2.5001888275146484
24	217.13316702842712	pulse	1	t		22.0	2.5	/experiments/AOT/AOT_stimuli/rescaled_final/0169_rv.mp4	0.0	238.4139609336853	
24	218.7386679649353	pulse	1	t		22.0	2.5	/experiments/AOT/AOT_stimuli/rescaled_final/0169_rv.mp4	0.0	240.01946187019348	
24	218.85735487937927	fix_post	2		12	22.0	2.5	/experiments/AOT/AOT_stimuli/rescaled_final/0169_rv.mp4	0.0	240.13814878463745	0.09975504875183105
25	218.9571099281311	fix_pre	0		120	23.0	2.5	/experiments/AOT/AOT_stimuli/rescaled_final/0685_fw.mp4	0.0	240.23790383338928	1.000007152557373
25	219.95711708068848	movie	1		246	23.0	2.5	/experiments/AOT/AOT_stimuli/rescaled_final/0685_fw.mp4	0.0	241.23791098594666	2.500044822692871
25	220.34024500846863	pulse	1	t		23.0	2.5	/experiments/AOT/AOT_stimuli/rescaled_final/0685_fw.mp4	0.0	241.6210389137268	
25	221.93328309059143	pulse	1	t		23.0	2.5	/experiments/AOT/AOT_stimuli/rescaled_final/0685_fw.mp4	0.0	243.2140769958496	
25	222.45716190338135	fix_post	2		12	23.0	2.5	/experiments/AOT/AOT_stimuli/rescaled_final/0685_fw.mp4	0.0	243.73795580863953	0.10001802444458008
26	222.55717992782593	fix_pre	0		119	24.0	2.5	/experiments/AOT/AOT_stimuli/rescaled_final/1457_fw.mp4	0.0	243.8379738330841	0.9915900230407715
26	223.533056974411	pulse	0	t		24.0	2.5	/experiments/AOT/AOT_stimuli/rescaled_final/1457_fw.mp4	0.0	244.8138508796692	
26	223.5487699508667	movie	1		247	24.0	2.5	/experiments/AOT/AOT_stimuli/rescaled_final/1457_fw.mp4	0.0	244.82956385612488	2.5083320140838623
26	225.14042806625366	pulse	1	t		24.0	2.5	/experiments/AOT/AOT_stimuli/rescaled_final/1457_fw.mp4	0.0	246.42122197151184	
26	226.05710196495056	fix_post	2		12	24.0	2.5	/experiments/AOT/AOT_stimuli/rescaled_final/1457_fw.mp4	0.0	247.33789587020874	0.09996414184570312
27	226.15706610679626	fix_pre	0		120	25.0	2.5	/experiments/AOT/AOT_stimuli/rescaled_final/0236_fw.mp4	0.0	247.43786001205444	0.9999849796295166
27	226.74057388305664	pulse	0	t		25.0	2.5	/experiments/AOT/AOT_stimuli/rescaled_final/0236_fw.mp4	0.0	248.02136778831482	
27	227.15705108642578	movie	1		247	25.0	2.5	/experiments/AOT/AOT_stimuli/rescaled_final/0236_fw.mp4	0.0	248.43784499168396	2.500113010406494
27	228.3407061100006	pulse	1	t		25.0	2.5	/experiments/AOT/AOT_stimuli/rescaled_final/0236_fw.mp4	0.0	249.6215000152588	
27	229.65716409683228	fix_post	2		12	25.0	2.5	/experiments/AOT/AOT_stimuli/rescaled_final/0236_fw.mp4	0.0	250.93795800209045	0.09984898567199707
28	229.75701308250427	fix_pre	0		120	26.0	2.5	/experiments/AOT/AOT_stimuli/rescaled_final/1576_rv.mp4	0.0	251.03780698776245	1.00010085105896
28	229.93306708335876	pulse	0	t		26.0	2.5	/experiments/AOT/AOT_stimuli/rescaled_final/1576_rv.mp4	0.0	251.21386098861694	
28	230.75711393356323	movie	1		244	26.0	2.5	/experiments/AOT/AOT_stimuli/rescaled_final/1576_rv.mp4	0.0	252.0379078388214	2.499955177307129
28	231.53314805030823	pulse	1	t		26.0	2.5	/experiments/AOT/AOT_stimuli/rescaled_final/1576_rv.mp4	0.0	252.8139419555664	
28	233.13934302330017	pulse	1	t		26.0	2.5	/experiments/AOT/AOT_stimuli/rescaled_final/1576_rv.mp4	0.0	254.42013692855835	
28	233.25706911087036	fix_post	2		12	26.0	2.5	/experiments/AOT/AOT_stimuli/rescaled_final/1576_rv.mp4	0.0	254.53786301612854	0.10007476806640625
29	233.35714387893677	fix_pre	0		120	27.0	2.5	blank	1.0	254.63793778419495	0.9995410442352295
29	234.356684923172	movie	1		300	27.0	2.5	blank	1.0	255.63747882843018	2.5004630088806152
29	234.73303294181824	pulse	1	t		27.0	2.5	blank	1.0	256.0138268470764	
29	236.3329849243164	pulse	1	t		27.0	2.5	blank	1.0	257.6137788295746	
29	236.8571479320526	fix_post	2		12	27.0	2.5	blank	1.0	258.1379418373108	0.0998849868774414
30	236.95703291893005	fix_pre	0		119	28.0	2.5	/experiments/AOT/AOT_stimuli/rescaled_final/0210_fw.mp4	0.0	258.23782682418823	0.9916231632232666
30	237.9329879283905	pulse	0	t		28.0	2.5	/experiments/AOT/AOT_stimuli/rescaled_final/0210_fw.mp4	0.0	259.2137818336487	
30	237.94865608215332	movie	1		246	28.0	2.5	/experiments/AOT/AOT_stimuli/rescaled_final/0210_fw.mp4	0.0	259.2294499874115	2.5083680152893066
30	239.54007601737976	pulse	1	t		28.0	2.5	/experiments/AOT/AOT_stimuli/rescaled_final/0210_fw.mp4	0.0	260.82086992263794	
30	240.45702409744263	fix_post	2		12	28.0	2.5	/experiments/AOT/AOT_stimuli/rescaled_final/0210_fw.mp4	0.0	261.7378180027008	0.1000509262084961
31	240.55707502365112	fix_pre	0		120	29.0	2.5	/experiments/AOT/AOT_stimuli/rescaled_final/1652_fw.mp4	0.0	261.8378689289093	0.9999570846557617
31	241.14051008224487	pulse	0	t		29.0	2.5	/experiments/AOT/AOT_stimuli/rescaled_final/1652_fw.mp4	0.0	262.42130398750305	
31	241.55703210830688	movie	1		244	29.0	2.5	/experiments/AOT/AOT_stimuli/rescaled_final/1652_fw.mp4	0.0	262.83782601356506	2.500063896179199
31	242.74052810668945	pulse	1	t		29.0	2.5	/experiments/AOT/AOT_stimuli/rescaled_final/1652_fw.mp4	0.0	264.02132201194763	
31	244.05709600448608	fix_post	2		12	29.0	2.5	/experiments/AOT/AOT_stimuli/rescaled_final/1652_fw.mp4	0.0	265.33788990974426	0.09999704360961914
32	244.1570930480957	fix_pre	0		120	30.0	2.5	/experiments/AOT/AOT_stimuli/rescaled_final/0834_rv.mp4	0.0	265.4378869533539	0.999971866607666
32	244.34049701690674	pulse	0	t		30.0	2.5	/experiments/AOT/AOT_stimuli/rescaled_final/0834_rv.mp4	0.0	265.6212909221649	
32	245.15706491470337	movie	1		246	30.0	2.5	/experiments/AOT/AOT_stimuli/rescaled_final/0834_rv.mp4	0.0	266.43785881996155	2.4999561309814453
32	245.94048810005188	pulse	1	t		30.0	2.5	/experiments/AOT/AOT_stimuli/rescaled_final/0834_rv.mp4	0.0	267.22128200531006	
32	247.5390830039978	pulse	1	t		30.0	2.5	/experiments/AOT/AOT_stimuli/rescaled_final/0834_rv.mp4	0.0	268.819876909256	
32	247.65702104568481	fix_post	2		12	30.0	2.5	/experiments/AOT/AOT_stimuli/rescaled_final/0834_rv.mp4	0.0	268.937814950943	0.09997892379760742
33	247.75699996948242	fix_pre	0		120	31.0	2.5	/experiments/AOT/AOT_stimuli/rescaled_final/0100_rv.mp4	0.0	269.0377938747406	0.9999690055847168
33	248.75696897506714	movie	1		244	31.0	2.5	/experiments/AOT/AOT_stimuli/rescaled_final/0100_rv.mp4	0.0	270.0377628803253	2.5000131130218506
33	249.13989901542664	pulse	1	t		31.0	2.5	/experiments/AOT/AOT_stimuli/rescaled_final/0100_rv.mp4	0.0	270.4206929206848	
33	250.73313188552856	pulse	1	t		31.0	2.5	/experiments/AOT/AOT_stimuli/rescaled_final/0100_rv.mp4	0.0	272.01392579078674	
33	251.256982088089	fix_post	2		12	31.0	2.5	/experiments/AOT/AOT_stimuli/rescaled_final/0100_rv.mp4	0.0	272.53777599334717	0.09997987747192383
34	251.3569619655609	fix_pre	0		119	32.0	2.5	/experiments/AOT/AOT_stimuli/rescaled_final/0865_rv.mp4	0.0	272.6377558708191	0.9917919635772705
34	252.33288288116455	pulse	0	t		32.0	2.5	/experiments/AOT/AOT_stimuli/rescaled_final/0865_rv.mp4	0.0	273.61367678642273	
34	252.34875392913818	movie	1		243	32.0	2.5	/experiments/AOT/AOT_stimuli/rescaled_final/0865_rv.mp4	0.0	273.62954783439636	2.508247137069702
34	253.9417850971222	pulse	1	t		32.0	2.5	/experiments/AOT/AOT_stimuli/rescaled_final/0865_rv.mp4	0.0	275.22257900238037	
34	254.85700106620789	fix_post	2		12	32.0	2.5	/experiments/AOT/AOT_stimuli/rescaled_final/0865_rv.mp4	0.0	276.13779497146606	0.09998798370361328
35	254.9569890499115	fix_pre	0		120	33.0	2.5	/experiments/AOT/AOT_stimuli/rescaled_final/1309_fw.mp4	0.0	276.2377829551697	1.0000059604644775
35	255.53293704986572	pulse	0	t		33.0	2.5	/experiments/AOT/AOT_stimuli/rescaled_final/1309_fw.mp4	0.0	276.8137309551239	
35	255.95699501037598	movie	1		244	33.0	2.5	/experiments/AOT/AOT_stimuli/rescaled_final/1309_fw.mp4	0.0	277.23778891563416	2.500030040740967
35	257.1405050754547	pulse	1	t		33.0	2.5	/experiments/AOT/AOT_stimuli/rescaled_final/1309_fw.mp4	0.0	278.4212989807129	
35	258.45702505111694	fix_post	2		12	33.0	2.5	/experiments/AOT/AOT_stimuli/rescaled_final/1309_fw.mp4	0.0	279.7378189563751	0.0999898910522461
36	258.5570149421692	fix_pre	0		120	34.0	2.5	/experiments/AOT/AOT_stimuli/rescaled_final/2073_rv.mp4	0.0	279.83780884742737	0.9998190402984619
36	258.74046897888184	pulse	0	t		34.0	2.5	/experiments/AOT/AOT_stimuli/rescaled_final/2073_rv.mp4	0.0	280.02126288414	
36	259.55683398246765	movie	1		244	34.0	2.5	/experiments/AOT/AOT_stimuli/rescaled_final/2073_rv.mp4	0.0	280.83762788772583	2.4996509552001953
36	260.340451002121	pulse	1	t		34.0	2.5	/experiments/AOT/AOT_stimuli/rescaled_final/2073_rv.mp4	0.0	281.62124490737915	
36	261.9387400150299	pulse	1	t		34.0	2.5	/experiments/AOT/AOT_stimuli/rescaled_final/2073_rv.mp4	0.0	283.2195339202881	
36	262.05648493766785	fix_post	2		12	34.0	2.5	/experiments/AOT/AOT_stimuli/rescaled_final/2073_rv.mp4	0.0	283.337278842926	0.10045409202575684
37	262.1569390296936	fix_pre	0		120	35.0	2.5	blank	1.0	283.4377329349518	1.0000288486480713
37	263.1569678783417	movie	1		300	35.0	2.5	blank	1.0	284.43776178359985	2.499951124191284
37	263.53303599357605	pulse	1	t		35.0	2.5	blank	1.0	284.81382989883423	
37	265.13303995132446	pulse	1	t		35.0	2.5	blank	1.0	286.41383385658264	
37	265.65691900253296	fix_post	2		12	35.0	2.5	blank	1.0	286.93771290779114	0.10004091262817383
38	265.75695991516113	fix_pre	0		119	36.0	2.5	/experiments/AOT/AOT_stimuli/rescaled_final/1598_rv.mp4	0.0	287.0377538204193	0.9912221431732178
38	266.74007391929626	pulse	0	t		36.0	2.5	/experiments/AOT/AOT_stimuli/rescaled_final/1598_rv.mp4	0.0	288.02086782455444	
38	266.74818205833435	movie	1		246	36.0	2.5	/experiments/AOT/AOT_stimuli/rescaled_final/1598_rv.mp4	0.0	288.02897596359253	2.5086400508880615
38	268.3396179676056	pulse	1	t		36.0	2.5	/experiments/AOT/AOT_stimuli/rescaled_final/1598_rv.mp4	0.0	289.62041187286377	
38	269.2568221092224	fix_post	2		12	36.0	2.5	/experiments/AOT/AOT_stimuli/rescaled_final/1598_rv.mp4	0.0	290.5376160144806	0.0999748706817627
39	269.3567969799042	fix_pre	0		120	37.0	2.5	/experiments/AOT/AOT_stimuli/rescaled_final/0363_rv.mp4	0.0	290.63759088516235	1.0000700950622559
39	269.93293595314026	pulse	0	t		37.0	2.5	/experiments/AOT/AOT_stimuli/rescaled_final/0363_rv.mp4	0.0	291.21372985839844	
39	270.35686707496643	movie	1		245	37.0	2.5	/experiments/AOT/AOT_stimuli/rescaled_final/0363_rv.mp4	0.0	291.6376609802246	2.5000789165496826
39	271.5403850078583	pulse	1	t		37.0	2.5	/experiments/AOT/AOT_stimuli/rescaled_final/0363_rv.mp4	0.0	292.82117891311646	
39	272.8569459915161	fix_post	2		12	37.0	2.5	/experiments/AOT/AOT_stimuli/rescaled_final/0363_rv.mp4	0.0	294.1377398967743	0.09998512268066406
40	272.9569311141968	fix_pre	0		120	38.0	2.5	/experiments/AOT/AOT_stimuli/rescaled_final/1182_fw.mp4	0.0	294.23772501945496	0.9999279975891113
40	273.14033794403076	pulse	0	t		38.0	2.5	/experiments/AOT/AOT_stimuli/rescaled_final/1182_fw.mp4	0.0	294.42113184928894	
40	273.9568591117859	movie	1		243	38.0	2.5	/experiments/AOT/AOT_stimuli/rescaled_final/1182_fw.mp4	0.0	295.23765301704407	2.500138998031616
40	274.7402539253235	pulse	1	t		38.0	2.5	/experiments/AOT/AOT_stimuli/rescaled_final/1182_fw.mp4	0.0	296.02104783058167	
40	276.33863496780396	pulse	1	t		38.0	2.5	/experiments/AOT/AOT_stimuli/rescaled_final/1182_fw.mp4	0.0	297.61942887306213	
40	276.4569981098175	fix_post	2		12	38.0	2.5	/experiments/AOT/AOT_stimuli/rescaled_final/1182_fw.mp4	0.0	297.7377920150757	0.09979677200317383
41	276.5567948818207	fix_pre	0		120	39.0	2.5	/experiments/AOT/AOT_stimuli/rescaled_final/0845_fw.mp4	0.0	297.83758878707886	0.9996352195739746
41	277.55643010139465	movie	1		245	39.0	2.5	/experiments/AOT/AOT_stimuli/rescaled_final/0845_fw.mp4	0.0	298.83722400665283	2.5003669261932373
41	277.93987488746643	pulse	1	t		39.0	2.5	/experiments/AOT/AOT_stimuli/rescaled_final/0845_fw.mp4	0.0	299.2206687927246	
41	279.54025506973267	pulse	1	t		39.0	2.5	/experiments/AOT/AOT_stimuli/rescaled_final/0845_fw.mp4	0.0	300.82104897499084	
41	280.0567970275879	fix_post	2		12	39.0	2.5	/experiments/AOT/AOT_stimuli/rescaled_final/0845_fw.mp4	0.0	301.33759093284607	0.1000509262084961
42	280.1568479537964	fix_pre	0		119	40.0	2.5	/experiments/AOT/AOT_stimuli/rescaled_final/2057_rv.mp4	0.0	301.43764185905457	0.9916031360626221
42	281.1403179168701	pulse	0	t		40.0	2.5	/experiments/AOT/AOT_stimuli/rescaled_final/2057_rv.mp4	0.0	302.4211118221283	
42	281.148451089859	movie	1		244	40.0	2.5	/experiments/AOT/AOT_stimuli/rescaled_final/2057_rv.mp4	0.0	302.4292449951172	2.5083699226379395
42	282.74140191078186	pulse	1	t		40.0	2.5	/experiments/AOT/AOT_stimuli/rescaled_final/2057_rv.mp4	0.0	304.02219581604004	
42	283.65682101249695	fix_post	2		12	40.0	2.5	/experiments/AOT/AOT_stimuli/rescaled_final/2057_rv.mp4	0.0	304.9376149177551	0.09998297691345215
43	283.7568039894104	fix_pre	0		120	41.0	2.5	blank	1.0	305.0375978946686	0.9999279975891113
43	284.3327889442444	pulse	0	t		41.0	2.5	blank	1.0	305.61358284950256	
43	284.7567319869995	movie	1		300	41.0	2.5	blank	1.0	306.0375258922577	2.5001049041748047
43	285.932776927948	pulse	1	t		41.0	2.5	blank	1.0	307.2135708332062	
43	287.2568368911743	fix_post	2		12	41.0	2.5	blank	1.0	308.5376307964325	0.09987115859985352
44	287.35670804977417	fix_pre	0		120	42.0	2.5	/experiments/AOT/AOT_stimuli/rescaled_final/0188_rv.mp4	0.0	308.63750195503235	1.0000979900360107
44	287.5327410697937	pulse	0	t		42.0	2.5	/experiments/AOT/AOT_stimuli/rescaled_final/0188_rv.mp4	0.0	308.8135349750519	
44	288.3568060398102	movie	1		245	42.0	2.5	/experiments/AOT/AOT_stimuli/rescaled_final/0188_rv.mp4	0.0	309.63759994506836	2.499911069869995
44	289.1402850151062	pulse	1	t		42.0	2.5	/experiments/AOT/AOT_stimuli/rescaled_final/0188_rv.mp4	0.0	310.4210789203644	
44	290.73628401756287	pulse	1	t		42.0	2.5	/experiments/AOT/AOT_stimuli/rescaled_final/0188_rv.mp4	0.0	312.01707792282104	
44	290.8567171096802	fix_post	2		12	42.0	2.5	/experiments/AOT/AOT_stimuli/rescaled_final/0188_rv.mp4	0.0	312.13751101493835	0.10006594657897949
45	290.95678305625916	fix_pre	0		120	43.0	2.5	/experiments/AOT/AOT_stimuli/rescaled_final/0628_fw.mp4	0.0	312.23757696151733	1.000011920928955
45	291.9567949771881	movie	1		245	43.0	2.5	/experiments/AOT/AOT_stimuli/rescaled_final/0628_fw.mp4	0.0	313.2375888824463	2.500096082687378
45	292.3399250507355	pulse	1	t		43.0	2.5	/experiments/AOT/AOT_stimuli/rescaled_final/0628_fw.mp4	0.0	313.62071895599365	
45	293.9402220249176	pulse	1	t		43.0	2.5	/experiments/AOT/AOT_stimuli/rescaled_final/0628_fw.mp4	0.0	315.2210159301758	
45	294.4568910598755	fix_post	2		12	43.0	2.5	/experiments/AOT/AOT_stimuli/rescaled_final/0628_fw.mp4	0.0	315.73768496513367	0.09998202323913574
46	294.5568730831146	fix_pre	0		119	44.0	2.5	/experiments/AOT/AOT_stimuli/rescaled_final/1867_rv.mp4	0.0	315.8376669883728	0.9914858341217041
46	295.5402491092682	pulse	0	t		44.0	2.5	/experiments/AOT/AOT_stimuli/rescaled_final/1867_rv.mp4	0.0	316.82104301452637	
46	295.5483589172363	movie	1		246	44.0	2.5	/experiments/AOT/AOT_stimuli/rescaled_final/1867_rv.mp4	0.0	316.8291528224945	2.5084221363067627
46	297.14083099365234	pulse	1	t		44.0	2.5	/experiments/AOT/AOT_stimuli/rescaled_final/1867_rv.mp4	0.0	318.4216248989105	
46	298.0567810535431	fix_post	2		12	44.0	2.5	/experiments/AOT/AOT_stimuli/rescaled_final/1867_rv.mp4	0.0	319.33757495880127	0.09991598129272461
47	298.1566970348358	fix_pre	0		120	45.0	2.5	/experiments/AOT/AOT_stimuli/rescaled_final/0106_fw.mp4	0.0	319.437490940094	0.9996440410614014
47	298.7402160167694	pulse	0	t		45.0	2.5	/experiments/AOT/AOT_stimuli/rescaled_final/0106_fw.mp4	0.0	320.0210099220276	
47	299.1563410758972	movie	1		243	45.0	2.5	/experiments/AOT/AOT_stimuli/rescaled_final/0106_fw.mp4	0.0	320.4371349811554	2.5004379749298096
47	300.34025502204895	pulse	1	t		45.0	2.5	/experiments/AOT/AOT_stimuli/rescaled_final/0106_fw.mp4	0.0	321.62104892730713	
47	301.656779050827	fix_post	2		12	45.0	2.5	/experiments/AOT/AOT_stimuli/rescaled_final/0106_fw.mp4	0.0	322.9375729560852	0.09995484352111816
48	301.75673389434814	fix_pre	0		120	46.0	2.5	/experiments/AOT/AOT_stimuli/rescaled_final/0245_rv.mp4	0.0	323.0375277996063	1.000063180923462
48	301.93271803855896	pulse	0	t		46.0	2.5	/experiments/AOT/AOT_stimuli/rescaled_final/0245_rv.mp4	0.0	323.21351194381714	
48	302.7567970752716	movie	1		244	46.0	2.5	/experiments/AOT/AOT_stimuli/rescaled_final/0245_rv.mp4	0.0	324.0375909805298	2.4998579025268555
48	303.53288292884827	pulse	1	t		46.0	2.5	/experiments/AOT/AOT_stimuli/rescaled_final/0245_rv.mp4	0.0	324.81367683410645	
48	305.1391599178314	pulse	1	t		46.0	2.5	/experiments/AOT/AOT_stimuli/rescaled_final/0245_rv.mp4	0.0	326.4199538230896	
48	305.25665497779846	fix_post	2		12	46.0	2.5	/experiments/AOT/AOT_stimuli/rescaled_final/0245_rv.mp4	0.0	326.53744888305664	0.10005998611450195
49	305.35671496391296	fix_pre	0		120	47.0	2.5	/experiments/AOT/AOT_stimuli/rescaled_final/0335_rv.mp4	0.0	326.63750886917114	1.000025987625122
49	306.3567409515381	movie	1		244	47.0	2.5	/experiments/AOT/AOT_stimuli/rescaled_final/0335_rv.mp4	0.0	327.63753485679626	2.4999470710754395
49	306.7397840023041	pulse	1	t		47.0	2.5	/experiments/AOT/AOT_stimuli/rescaled_final/0335_rv.mp4	0.0	328.02057790756226	
49	308.34020709991455	pulse	1	t		47.0	2.5	/experiments/AOT/AOT_stimuli/rescaled_final/0335_rv.mp4	0.0	329.62100100517273	
49	308.8566880226135	fix_post	2		12	47.0	2.5	/experiments/AOT/AOT_stimuli/rescaled_final/0335_rv.mp4	0.0	330.1374819278717	0.09999608993530273
50	308.9566841125488	fix_pre	0		119	48.0	2.5	blank	1.0	330.237478017807	0.9916489124298096
50	309.94019389152527	pulse	0	t		48.0	2.5	blank	1.0	331.22098779678345	
50	309.94833302497864	movie	1		301	48.0	2.5	blank	1.0	331.2291269302368	2.508378028869629
50	311.54022097587585	pulse	1	t		48.0	2.5	blank	1.0	332.82101488113403	
50	312.45671105384827	fix_post	2		12	48.0	2.5	blank	1.0	333.73750495910645	0.09999203681945801
51	312.5567030906677	fix_pre	0		120	49.0	2.5	/experiments/AOT/AOT_stimuli/rescaled_final/1543_fw.mp4	0.0	333.8374969959259	0.9999938011169434
51	313.1402750015259	pulse	0	t		49.0	2.5	/experiments/AOT/AOT_stimuli/rescaled_final/1543_fw.mp4	0.0	334.42106890678406	
51	313.55669689178467	movie	1		244	49.0	2.5	/experiments/AOT/AOT_stimuli/rescaled_final/1543_fw.mp4	0.0	334.83749079704285	2.5000061988830566
51	314.74025201797485	pulse	1	t		49.0	2.5	/experiments/AOT/AOT_stimuli/rescaled_final/1543_fw.mp4	0.0	336.02104592323303	
51	316.0567030906677	fix_post	2		12	49.0	2.5	/experiments/AOT/AOT_stimuli/rescaled_final/1543_fw.mp4	0.0	337.3374969959259	0.09999990463256836
52	316.1567029953003	fix_pre	0		120	50.0	2.5	/experiments/AOT/AOT_stimuli/rescaled_final/0186_fw.mp4	0.0	337.4374969005585	1.000053882598877
52	316.3401429653168	pulse	0	t		50.0	2.5	/experiments/AOT/AOT_stimuli/rescaled_final/0186_fw.mp4	0.0	337.62093687057495	
52	317.15675687789917	movie	1		244	50.0	2.5	/experiments/AOT/AOT_stimuli/rescaled_final/0186_fw.mp4	0.0	338.43755078315735	2.4998700618743896
52	317.93275809288025	pulse	1	t		50.0	2.5	/experiments/AOT/AOT_stimuli/rescaled_final/0186_fw.mp4	0.0	339.2135519981384	
52	319.5387361049652	pulse	1	t		50.0	2.5	/experiments/AOT/AOT_stimuli/rescaled_final/0186_fw.mp4	0.0	340.8195300102234	
52	319.65662693977356	fix_post	2		12	50.0	2.5	/experiments/AOT/AOT_stimuli/rescaled_final/0186_fw.mp4	0.0	340.93742084503174	0.10015416145324707
53	319.7567811012268	fix_pre	0		120	51.0	2.5	/experiments/AOT/AOT_stimuli/rescaled_final/2101_fw.mp4	0.0	341.037575006485	0.9998669624328613
53	320.75664806365967	movie	1		244	51.0	2.5	/experiments/AOT/AOT_stimuli/rescaled_final/2101_fw.mp4	0.0	342.03744196891785	2.500063896179199
53	321.1409389972687	pulse	1	t		51.0	2.5	/experiments/AOT/AOT_stimuli/rescaled_final/2101_fw.mp4	0.0	342.42173290252686	
53	322.7396469116211	pulse	1	t		51.0	2.5	/experiments/AOT/AOT_stimuli/rescaled_final/2101_fw.mp4	0.0	344.0204408168793	
53	323.25671195983887	fix_post	2		12	51.0	2.5	/experiments/AOT/AOT_stimuli/rescaled_final/2101_fw.mp4	0.0	344.53750586509705	0.09953713417053223
54	323.3562490940094	fix_pre	0		119	52.0	2.5	/experiments/AOT/AOT_stimuli/rescaled_final/0046_fw.mp4	0.0	344.6370429992676	0.9922389984130859
54	324.33990693092346	pulse	0	t		52.0	2.5	/experiments/AOT/AOT_stimuli/rescaled_final/0046_fw.mp4	0.0	345.62070083618164	
54	324.3484880924225	movie	1		245	52.0	2.5	/experiments/AOT/AOT_stimuli/rescaled_final/0046_fw.mp4	0.0	345.62928199768066	2.5081028938293457
54	325.9396300315857	pulse	1	t		52.0	2.5	/experiments/AOT/AOT_stimuli/rescaled_final/0046_fw.mp4	0.0	347.2204239368439	
54	326.85659098625183	fix_post	2		12	52.0	2.5	/experiments/AOT/AOT_stimuli/rescaled_final/0046_fw.mp4	0.0	348.13738489151	0.10002803802490234
55	326.95661902427673	fix_pre	0		120	53.0	2.5	/experiments/AOT/AOT_stimuli/rescaled_final/1303_fw.mp4	0.0	348.2374129295349	1.0
55	327.540118932724	pulse	0	t		53.0	2.5	/experiments/AOT/AOT_stimuli/rescaled_final/1303_fw.mp4	0.0	348.8209128379822	
55	327.95661902427673	movie	1		245	53.0	2.5	/experiments/AOT/AOT_stimuli/rescaled_final/1303_fw.mp4	0.0	349.2374129295349	2.4995970726013184
55	329.1402680873871	pulse	1	t		53.0	2.5	/experiments/AOT/AOT_stimuli/rescaled_final/1303_fw.mp4	0.0	350.42106199264526	
55	330.45621609687805	fix_post	2		12	53.0	2.5	/experiments/AOT/AOT_stimuli/rescaled_final/1303_fw.mp4	0.0	351.73701000213623	0.10032200813293457
56	330.556538105011	fix_pre	0		120	54.0	2.5	/experiments/AOT/AOT_stimuli/rescaled_final/0968_fw.mp4	0.0	351.83733201026917	1.0001699924468994
56	330.7400109767914	pulse	0	t		54.0	2.5	/experiments/AOT/AOT_stimuli/rescaled_final/0968_fw.mp4	0.0	352.02080488204956	
56	331.5567080974579	movie	1		244	54.0	2.5	/experiments/AOT/AOT_stimuli/rescaled_final/0968_fw.mp4	0.0	352.83750200271606	2.4998838901519775
56	332.3400249481201	pulse	1	t		54.0	2.5	/experiments/AOT/AOT_stimuli/rescaled_final/0968_fw.mp4	0.0	353.6208188533783	
56	333.93874502182007	pulse	1	t		54.0	2.5	/experiments/AOT/AOT_stimuli/rescaled_final/0968_fw.mp4	0.0	355.21953892707825	
56	334.05659198760986	fix_post	2		12	54.0	2.5	/experiments/AOT/AOT_stimuli/rescaled_final/0968_fw.mp4	0.0	355.33738589286804	0.10000109672546387
57	334.1565930843353	fix_pre	0		120	55.0	2.5	blank	1.0	355.4373869895935	0.9999499320983887
57	335.1565430164337	movie	1		300	55.0	2.5	blank	1.0	356.4373369216919	2.5000100135803223
57	335.5400400161743	pulse	1	t		55.0	2.5	blank	1.0	356.8208339214325	
57	337.1401369571686	pulse	1	t		55.0	2.5	blank	1.0	358.42093086242676	
57	337.65655303001404	fix_post	2		12	55.0	2.5	blank	1.0	358.9373469352722	0.1000208854675293
58	337.75657391548157	fix_pre	0		119	56.0	2.5	/experiments/AOT/AOT_stimuli/rescaled_final/1481_rv.mp4	0.0	359.03736782073975	0.9916930198669434
58	338.74002599716187	pulse	0	t		56.0	2.5	/experiments/AOT/AOT_stimuli/rescaled_final/1481_rv.mp4	0.0	360.02081990242004	
58	338.7482669353485	movie	1		244	56.0	2.5	/experiments/AOT/AOT_stimuli/rescaled_final/1481_rv.mp4	0.0	360.0290608406067	2.5083229541778564
58	340.33970403671265	pulse	1	t		56.0	2.5	/experiments/AOT/AOT_stimuli/rescaled_final/1481_rv.mp4	0.0	361.6204979419708	
58	341.25658988952637	fix_post	2		12	56.0	2.5	/experiments/AOT/AOT_stimuli/rescaled_final/1481_rv.mp4	0.0	362.53738379478455	0.09990715980529785
59	341.35649704933167	fix_pre	0		120	57.0	2.5	/experiments/AOT/AOT_stimuli/rescaled_final/1491_fw.mp4	0.0	362.63729095458984	1.0000908374786377
59	341.9400279521942	pulse	0	t		57.0	2.5	/experiments/AOT/AOT_stimuli/rescaled_final/1491_fw.mp4	0.0	363.2208218574524	
59	342.3565878868103	movie	1		245	57.0	2.5	/experiments/AOT/AOT_stimuli/rescaled_final/1491_fw.mp4	0.0	363.6373817920685	2.4998581409454346
59	343.54010105133057	pulse	1	t		57.0	2.5	/experiments/AOT/AOT_stimuli/rescaled_final/1491_fw.mp4	0.0	364.82089495658875	
59	344.85644602775574	fix_post	2		12	57.0	2.5	/experiments/AOT/AOT_stimuli/rescaled_final/1491_fw.mp4	0.0	366.1372399330139	0.10007596015930176
60	344.95652198791504	fix_pre	0		120	58.0	2.5	/experiments/AOT/AOT_stimuli/rescaled_final/1086_rv.mp4	0.0	366.2373158931732	0.9999229907989502
60	345.1400520801544	pulse	0	t		58.0	2.5	/experiments/AOT/AOT_stimuli/rescaled_final/1086_rv.mp4	0.0	366.4208459854126	
60	345.956444978714	movie	1		244	58.0	2.5	/experiments/AOT/AOT_stimuli/rescaled_final/1086_rv.mp4	0.0	367.23723888397217	2.4997079372406006
60	346.7400860786438	pulse	1	t		58.0	2.5	/experiments/AOT/AOT_stimuli/rescaled_final/1086_rv.mp4	0.0	368.020879983902	
60	348.338525056839	pulse	1	t		58.0	2.5	/experiments/AOT/AOT_stimuli/rescaled_final/1086_rv.mp4	0.0	369.61931896209717	
60	348.4561529159546	fix_post	2		12	58.0	2.5	/experiments/AOT/AOT_stimuli/rescaled_final/1086_rv.mp4	0.0	369.73694682121277	0.1004030704498291
61	348.5565559864044	fix_pre	0		120	59.0	2.5	/experiments/AOT/AOT_stimuli/rescaled_final/0351_fw.mp4	0.0	369.8373498916626	0.9998819828033447
61	349.55643796920776	movie	1		248	59.0	2.5	/experiments/AOT/AOT_stimuli/rescaled_final/0351_fw.mp4	0.0	370.83723187446594	2.500033140182495
61	349.9396159648895	pulse	1	t		59.0	2.5	/experiments/AOT/AOT_stimuli/rescaled_final/0351_fw.mp4	0.0	371.2204098701477	
61	351.5401780605316	pulse	1	t		59.0	2.5	/experiments/AOT/AOT_stimuli/rescaled_final/0351_fw.mp4	0.0	372.8209719657898	
61	352.05647110939026	fix_post	2		12	59.0	2.5	/experiments/AOT/AOT_stimuli/rescaled_final/0351_fw.mp4	0.0	373.33726501464844	0.10001993179321289
62	352.1564910411835	fix_pre	0		119	60.0	2.5	/experiments/AOT/AOT_stimuli/rescaled_final/2073_fw.mp4	0.0	373.43728494644165	0.9916188716888428
62	353.1399710178375	pulse	0	t		60.0	2.5	/experiments/AOT/AOT_stimuli/rescaled_final/2073_fw.mp4	0.0	374.4207649230957	
62	353.1481099128723	movie	1		244	60.0	2.5	/experiments/AOT/AOT_stimuli/rescaled_final/2073_fw.mp4	0.0	374.4289038181305	2.5083329677581787
62	354.7396249771118	pulse	1	t		60.0	2.5	/experiments/AOT/AOT_stimuli/rescaled_final/2073_fw.mp4	0.0	376.02041888237	
62	355.6564428806305	fix_post	2		12	60.0	2.5	/experiments/AOT/AOT_stimuli/rescaled_final/2073_fw.mp4	0.0	376.9372367858887	0.1000511646270752
63	355.75649404525757	fix_pre	0		120	61.0	2.5	blank	1.0	377.03728795051575	0.9999299049377441
63	356.3399350643158	pulse	0	t		61.0	2.5	blank	1.0	377.620728969574	
63	356.7564239501953	movie	1		300	61.0	2.5	blank	1.0	378.0372178554535	2.500028133392334
63	357.94005703926086	pulse	1	t		61.0	2.5	blank	1.0	379.22085094451904	
63	359.25645208358765	fix_post	2		12	61.0	2.5	blank	1.0	380.5372459888458	0.1000368595123291
64	359.3564889431	fix_pre	0		120	62.0	2.5	/experiments/AOT/AOT_stimuli/rescaled_final/0363_fw.mp4	0.0	380.63728284835815	0.9999570846557617
64	359.53994488716125	pulse	0	t		62.0	2.5	/experiments/AOT/AOT_stimuli/rescaled_final/0363_fw.mp4	0.0	380.82073879241943	
64	360.35644602775574	movie	1		244	62.0	2.5	/experiments/AOT/AOT_stimuli/rescaled_final/0363_fw.mp4	0.0	381.6372399330139	2.49993896484375
64	361.13997292518616	pulse	1	t		62.0	2.5	/experiments/AOT/AOT_stimuli/rescaled_final/0363_fw.mp4	0.0	382.42076683044434	
64	362.7383930683136	pulse	1	t		62.0	2.5	/experiments/AOT/AOT_stimuli/rescaled_final/0363_fw.mp4	0.0	384.0191869735718	
64	362.8563849925995	fix_post	2		12	62.0	2.5	/experiments/AOT/AOT_stimuli/rescaled_final/0363_fw.mp4	0.0	384.13717889785767	0.10006308555603027
65	362.9564480781555	fix_pre	0		120	63.0	2.5	/experiments/AOT/AOT_stimuli/rescaled_final/1481_fw.mp4	0.0	384.2372419834137	0.9999399185180664
65	363.9563879966736	movie	1		243	63.0	2.5	/experiments/AOT/AOT_stimuli/rescaled_final/1481_fw.mp4	0.0	385.23718190193176	2.4999799728393555
65	364.3400650024414	pulse	1	t		63.0	2.5	/experiments/AOT/AOT_stimuli/rescaled_final/1481_fw.mp4	0.0	385.6208589076996	
65	365.93989396095276	pulse	1	t		63.0	2.5	/experiments/AOT/AOT_stimuli/rescaled_final/1481_fw.mp4	0.0	387.22068786621094	
65	366.45636796951294	fix_post	2		12	63.0	2.5	/experiments/AOT/AOT_stimuli/rescaled_final/1481_fw.mp4	0.0	387.7371618747711	0.10008692741394043
66	366.5564548969269	fix_pre	0		119	64.0	2.5	/experiments/AOT/AOT_stimuli/rescaled_final/0054_rv.mp4	0.0	387.83724880218506	0.9916160106658936
66	367.5399100780487	pulse	0	t		64.0	2.5	/experiments/AOT/AOT_stimuli/rescaled_final/0054_rv.mp4	0.0	388.8207039833069	
66	367.5480709075928	movie	1		244	64.0	2.5	/experiments/AOT/AOT_stimuli/rescaled_final/0054_rv.mp4	0.0	388.82886481285095	2.507889986038208
66	369.1397559642792	pulse	1	t		64.0	2.5	/experiments/AOT/AOT_stimuli/rescaled_final/0054_rv.mp4	0.0	390.42054986953735	
66	370.055960893631	fix_post	2		12	64.0	2.5	/experiments/AOT/AOT_stimuli/rescaled_final/0054_rv.mp4	0.0	391.33675479888916	0.1003870964050293
67	370.156347990036	fix_pre	0		120	65.0	2.5	/experiments/AOT/AOT_stimuli/rescaled_final/2017_fw.mp4	0.0	391.4371418952942	1.000114917755127
67	370.7398500442505	pulse	0	t		65.0	2.5	/experiments/AOT/AOT_stimuli/rescaled_final/2017_fw.mp4	0.0	392.02064394950867	
67	371.15646290779114	movie	1		245	65.0	2.5	/experiments/AOT/AOT_stimuli/rescaled_final/2017_fw.mp4	0.0	392.4372568130493	2.499932050704956
67	372.3399291038513	pulse	1	t		65.0	2.5	/experiments/AOT/AOT_stimuli/rescaled_final/2017_fw.mp4	0.0	393.6207230091095	
67	373.6563949584961	fix_post	2		12	65.0	2.5	/experiments/AOT/AOT_stimuli/rescaled_final/2017_fw.mp4	0.0	394.9371888637543	0.0999441146850586
68	373.75633907318115	fix_pre	0		120	66.0	2.5	/experiments/AOT/AOT_stimuli/rescaled_final/2064_fw.mp4	0.0	395.03713297843933	1.0000438690185547
68	373.9399199485779	pulse	0	t		66.0	2.5	/experiments/AOT/AOT_stimuli/rescaled_final/2064_fw.mp4	0.0	395.22071385383606	
68	374.7563829421997	movie	1		245	66.0	2.5	/experiments/AOT/AOT_stimuli/rescaled_final/2064_fw.mp4	0.0	396.0371768474579	2.4999899864196777
68	375.5398919582367	pulse	1	t		66.0	2.5	/experiments/AOT/AOT_stimuli/rescaled_final/2064_fw.mp4	0.0	396.8206858634949	
68	377.13787293434143	pulse	1	t		66.0	2.5	/experiments/AOT/AOT_stimuli/rescaled_final/2064_fw.mp4	0.0	398.4186668395996	
68	377.2563729286194	fix_post	2		12	66.0	2.5	/experiments/AOT/AOT_stimuli/rescaled_final/2064_fw.mp4	0.0	398.53716683387756	0.10004615783691406
69	377.3564190864563	fix_pre	0		120	67.0	2.5	/experiments/AOT/AOT_stimuli/rescaled_final/0116_fw.mp4	0.0	398.6372129917145	0.9999699592590332
69	378.35638904571533	movie	1		247	67.0	2.5	/experiments/AOT/AOT_stimuli/rescaled_final/0116_fw.mp4	0.0	399.6371829509735	2.4998960494995117
69	378.738972902298	pulse	1	t		67.0	2.5	/experiments/AOT/AOT_stimuli/rescaled_final/0116_fw.mp4	0.0	400.01976680755615	
69	380.3400580883026	pulse	1	t		67.0	2.5	/experiments/AOT/AOT_stimuli/rescaled_final/0116_fw.mp4	0.0	401.6208519935608	
69	380.85628509521484	fix_post	2		12	67.0	2.5	/experiments/AOT/AOT_stimuli/rescaled_final/0116_fw.mp4	0.0	402.137079000473	0.10034298896789551
70	380.95662808418274	fix_pre	0		119	68.0	2.5	/experiments/AOT/AOT_stimuli/rescaled_final/1694_fw.mp4	0.0	402.2374219894409	0.9913840293884277
70	381.9399950504303	pulse	0	t		68.0	2.5	/experiments/AOT/AOT_stimuli/rescaled_final/1694_fw.mp4	0.0	403.2207889556885	
70	381.94801211357117	movie	1		245	68.0	2.5	/experiments/AOT/AOT_stimuli/rescaled_final/1694_fw.mp4	0.0	403.22880601882935	2.5084259510040283
70	383.5395259857178	pulse	1	t		68.0	2.5	/experiments/AOT/AOT_stimuli/rescaled_final/1694_fw.mp4	0.0	404.82031989097595	
70	384.4564380645752	fix_post	2		12	68.0	2.5	/experiments/AOT/AOT_stimuli/rescaled_final/1694_fw.mp4	0.0	405.7372319698334	0.0999748706817627
71	384.55641293525696	fix_pre	0		120	69.0	2.5	blank	1.0	405.83720684051514	0.9999551773071289
71	385.13979601860046	pulse	0	t		69.0	2.5	blank	1.0	406.42058992385864	
71	385.5563681125641	movie	1		300	69.0	2.5	blank	1.0	406.83716201782227	2.499907970428467
71	386.73973393440247	pulse	1	t		69.0	2.5	blank	1.0	408.02052783966064	
71	388.05627608299255	fix_post	2		12	69.0	2.5	blank	1.0	409.33706998825073	0.09995484352111816
72	388.1562309265137	fix_pre	0		120	70.0	2.5	/experiments/AOT/AOT_stimuli/rescaled_final/0472_fw.mp4	0.0	409.43702483177185	1.000046968460083
72	388.33978605270386	pulse	0	t		70.0	2.5	/experiments/AOT/AOT_stimuli/rescaled_final/0472_fw.mp4	0.0	409.62057995796204	
72	389.15627789497375	movie	1		244	70.0	2.5	/experiments/AOT/AOT_stimuli/rescaled_final/0472_fw.mp4	0.0	410.43707180023193	2.500016212463379
72	389.93979501724243	pulse	1	t		70.0	2.5	/experiments/AOT/AOT_stimuli/rescaled_final/0472_fw.mp4	0.0	411.2205889225006	
72	391.538330078125	pulse	1	t		70.0	2.5	/experiments/AOT/AOT_stimuli/rescaled_final/0472_fw.mp4	0.0	412.8191239833832	
72	391.65629410743713	fix_post	2		12	70.0	2.5	/experiments/AOT/AOT_stimuli/rescaled_final/0472_fw.mp4	0.0	412.9370880126953	0.09991884231567383
73	391.7562129497528	fix_pre	0		120	71.0	2.5	/experiments/AOT/AOT_stimuli/rescaled_final/0190_fw.mp4	0.0	413.037006855011	1.0000951290130615
73	392.75630807876587	movie	1		245	71.0	2.5	/experiments/AOT/AOT_stimuli/rescaled_final/0190_fw.mp4	0.0	414.03710198402405	2.5000150203704834
73	393.1399300098419	pulse	1	t		71.0	2.5	/experiments/AOT/AOT_stimuli/rescaled_final/0190_fw.mp4	0.0	414.4207239151001	
73	394.7397298812866	pulse	1	t		71.0	2.5	/experiments/AOT/AOT_stimuli/rescaled_final/0190_fw.mp4	0.0	416.0205237865448	
73	395.25632309913635	fix_post	2		12	71.0	2.5	/experiments/AOT/AOT_stimuli/rescaled_final/0190_fw.mp4	0.0	416.53711700439453	0.0999147891998291
74	395.3562378883362	fix_pre	0		119	72.0	2.5	/experiments/AOT/AOT_stimuli/rescaled_final/0591_rv.mp4	0.0	416.63703179359436	0.9917440414428711
74	396.33970499038696	pulse	0	t		72.0	2.5	/experiments/AOT/AOT_stimuli/rescaled_final/0591_rv.mp4	0.0	417.62049889564514	
74	396.34798192977905	movie	1		246	72.0	2.5	/experiments/AOT/AOT_stimuli/rescaled_final/0591_rv.mp4	0.0	417.62877583503723	2.508263111114502
74	397.9394190311432	pulse	1	t		72.0	2.5	/experiments/AOT/AOT_stimuli/rescaled_final/0591_rv.mp4	0.0	419.22021293640137	
74	398.85624504089355	fix_post	2		12	72.0	2.5	/experiments/AOT/AOT_stimuli/rescaled_final/0591_rv.mp4	0.0	420.13703894615173	0.0999150276184082
75	398.95616006851196	fix_pre	0		120	73.0	2.5	/experiments/AOT/AOT_stimuli/rescaled_final/2029_fw.mp4	0.0	420.23695397377014	1.0000970363616943
75	399.53975796699524	pulse	0	t		73.0	2.5	/experiments/AOT/AOT_stimuli/rescaled_final/2029_fw.mp4	0.0	420.8205518722534	
75	399.95625710487366	movie	1		245	73.0	2.5	/experiments/AOT/AOT_stimuli/rescaled_final/2029_fw.mp4	0.0	421.23705101013184	2.499957799911499
75	401.1398060321808	pulse	1	t		73.0	2.5	/experiments/AOT/AOT_stimuli/rescaled_final/2029_fw.mp4	0.0	422.42059993743896	
75	402.45621490478516	fix_post	2		12	73.0	2.5	/experiments/AOT/AOT_stimuli/rescaled_final/2029_fw.mp4	0.0	423.73700881004333	0.10010004043579102
76	402.55631494522095	fix_pre	0		120	74.0	2.5	/experiments/AOT/AOT_stimuli/rescaled_final/1970_fw.mp4	0.0	423.8371088504791	0.9998979568481445
76	402.73976492881775	pulse	0	t		74.0	2.5	/experiments/AOT/AOT_stimuli/rescaled_final/1970_fw.mp4	0.0	424.0205588340759	
76	403.5562129020691	movie	1		246	74.0	2.5	/experiments/AOT/AOT_stimuli/rescaled_final/1970_fw.mp4	0.0	424.83700680732727	2.4999661445617676
76	404.3397490978241	pulse	1	t		74.0	2.5	/experiments/AOT/AOT_stimuli/rescaled_final/1970_fw.mp4	0.0	425.6205430030823	
76	405.93573808670044	pulse	1	t		74.0	2.5	/experiments/AOT/AOT_stimuli/rescaled_final/1970_fw.mp4	0.0	427.2165319919586	
76	406.05617904663086	fix_post	2		12	74.0	2.5	/experiments/AOT/AOT_stimuli/rescaled_final/1970_fw.mp4	0.0	427.33697295188904	0.10002493858337402
77	406.15620398521423	fix_pre	0		120	75.0	2.5	/experiments/AOT/AOT_stimuli/rescaled_final/1196_fw.mp4	0.0	427.4369978904724	1.000011920928955
77	407.1562159061432	movie	1		245	75.0	2.5	/experiments/AOT/AOT_stimuli/rescaled_final/1196_fw.mp4	0.0	428.43700981140137	2.5000159740448
77	407.53969287872314	pulse	1	t		75.0	2.5	/experiments/AOT/AOT_stimuli/rescaled_final/1196_fw.mp4	0.0	428.8204867839813	
77	409.1397919654846	pulse	1	t		75.0	2.5	/experiments/AOT/AOT_stimuli/rescaled_final/1196_fw.mp4	0.0	430.4205858707428	
77	409.656231880188	fix_post	2		12	75.0	2.5	/experiments/AOT/AOT_stimuli/rescaled_final/1196_fw.mp4	0.0	430.93702578544617	0.09992218017578125
78	409.75615406036377	fix_pre	0		119	76.0	2.5	blank	1.0	431.03694796562195	0.9916958808898926
78	410.7396469116211	pulse	0	t		76.0	2.5	blank	1.0	432.0204408168793	
78	410.74784994125366	movie	1		301	76.0	2.5	blank	1.0	432.02864384651184	2.508301019668579
78	412.3396999835968	pulse	1	t		76.0	2.5	blank	1.0	433.620493888855	
78	413.25615096092224	fix_post	2		12	76.0	2.5	blank	1.0	434.5369448661804	0.09997797012329102
79	413.35612893104553	fix_pre	0		120	77.0	2.5	/experiments/AOT/AOT_stimuli/rescaled_final/1578_fw.mp4	0.0	434.6369228363037	1.0000200271606445
79	413.93988394737244	pulse	0	t		77.0	2.5	/experiments/AOT/AOT_stimuli/rescaled_final/1578_fw.mp4	0.0	435.2206778526306	
79	414.3561489582062	movie	1		250	77.0	2.5	/experiments/AOT/AOT_stimuli/rescaled_final/1578_fw.mp4	0.0	435.63694286346436	2.500082015991211
79	415.53973603248596	pulse	1	t		77.0	2.5	/experiments/AOT/AOT_stimuli/rescaled_final/1578_fw.mp4	0.0	436.82052993774414	
79	416.8562309741974	fix_post	2		12	77.0	2.5	/experiments/AOT/AOT_stimuli/rescaled_final/1578_fw.mp4	0.0	438.13702487945557	0.09993290901184082
80	416.95616388320923	fix_pre	0		120	78.0	2.5	/experiments/AOT/AOT_stimuli/rescaled_final/1008_rv.mp4	0.0	438.2369577884674	1.0000581741333008
80	417.1396219730377	pulse	0	t		78.0	2.5	/experiments/AOT/AOT_stimuli/rescaled_final/1008_rv.mp4	0.0	438.4204158782959	
80	417.95622205734253	movie	1		244	78.0	2.5	/experiments/AOT/AOT_stimuli/rescaled_final/1008_rv.mp4	0.0	439.2370159626007	2.4998810291290283
80	418.7396740913391	pulse	1	t		78.0	2.5	/experiments/AOT/AOT_stimuli/rescaled_final/1008_rv.mp4	0.0	440.0204679965973	
80	420.33816504478455	pulse	1	t		78.0	2.5	/experiments/AOT/AOT_stimuli/rescaled_final/1008_rv.mp4	0.0	441.6189589500427	
80	420.45610308647156	fix_post	2		12	78.0	2.5	/experiments/AOT/AOT_stimuli/rescaled_final/1008_rv.mp4	0.0	441.73689699172974	0.10011482238769531
81	420.55621790885925	fix_pre	0		120	79.0	2.5	/experiments/AOT/AOT_stimuli/rescaled_final/2042_rv.mp4	0.0	441.83701181411743	0.9999401569366455
81	421.5561580657959	movie	1		246	79.0	2.5	/experiments/AOT/AOT_stimuli/rescaled_final/2042_rv.mp4	0.0	442.8369519710541	2.5000078678131104
81	421.9393780231476	pulse	1	t		79.0	2.5	/experiments/AOT/AOT_stimuli/rescaled_final/2042_rv.mp4	0.0	443.22017192840576	
81	423.5396990776062	pulse	1	t		79.0	2.5	/experiments/AOT/AOT_stimuli/rescaled_final/2042_rv.mp4	0.0	444.8204929828644	
81	424.056165933609	fix_post	2		12	79.0	2.5	/experiments/AOT/AOT_stimuli/rescaled_final/2042_rv.mp4	0.0	445.3369598388672	0.09998011589050293
82	424.1561460494995	fix_pre	0		119	80.0	2.5	/experiments/AOT/AOT_stimuli/rescaled_final/1652_rv.mp4	0.0	445.4369399547577	0.9916830062866211
82	425.1396839618683	pulse	0	t		80.0	2.5	/experiments/AOT/AOT_stimuli/rescaled_final/1652_rv.mp4	0.0	446.42047786712646	
82	425.14782905578613	movie	1		244	80.0	2.5	/experiments/AOT/AOT_stimuli/rescaled_final/1652_rv.mp4	0.0	446.4286229610443	2.5082929134368896
82	426.7392499446869	pulse	1	t		80.0	2.5	/experiments/AOT/AOT_stimuli/rescaled_final/1652_rv.mp4	0.0	448.02004384994507	
82	427.656121969223	fix_post	2		12	80.0	2.5	/experiments/AOT/AOT_stimuli/rescaled_final/1652_rv.mp4	0.0	448.9369158744812	0.10003304481506348
83	427.7561550140381	fix_pre	0		120	81.0	2.5	/experiments/AOT/AOT_stimuli/rescaled_final/1091_fw.mp4	0.0	449.03694891929626	1.0
83	428.33963894844055	pulse	0	t		81.0	2.5	/experiments/AOT/AOT_stimuli/rescaled_final/1091_fw.mp4	0.0	449.62043285369873	
83	428.7561550140381	movie	1		244	81.0	2.5	/experiments/AOT/AOT_stimuli/rescaled_final/1091_fw.mp4	0.0	450.03694891929626	2.4999749660491943
83	429.9397220611572	pulse	1	t		81.0	2.5	/experiments/AOT/AOT_stimuli/rescaled_final/1091_fw.mp4	0.0	451.2205159664154	
83	431.2561299800873	fix_post	2		12	81.0	2.5	/experiments/AOT/AOT_stimuli/rescaled_final/1091_fw.mp4	0.0	452.53692388534546	0.10004305839538574
84	431.35617303848267	fix_pre	0		120	82.0	2.5	blank	1.0	452.63696694374084	1.0001599788665771
84	431.53959608078003	pulse	0	t		82.0	2.5	blank	1.0	452.8203899860382	
84	432.35633301734924	movie	1		300	82.0	2.5	blank	1.0	453.6371269226074	2.4993679523468018
84	433.13958501815796	pulse	1	t		82.0	2.5	blank	1.0	454.42037892341614	
84	434.73920488357544	pulse	1	t		82.0	2.5	blank	1.0	456.0199987888336	
84	434.85570096969604	fix_post	2		12	82.0	2.5	blank	1.0	456.1364948749542	0.10001397132873535
85	434.9557149410248	fix_pre	0		120	83.0	2.5	/experiments/AOT/AOT_stimuli/rescaled_final/2042_fw.mp4	0.0	456.23650884628296	1.0002059936523438
85	435.9559209346771	movie	1		248	83.0	2.5	/experiments/AOT/AOT_stimuli/rescaled_final/2042_fw.mp4	0.0	457.2367148399353	2.500214099884033
85	436.3393130302429	pulse	1	t		83.0	2.5	/experiments/AOT/AOT_stimuli/rescaled_final/2042_fw.mp4	0.0	457.6201069355011	
85	437.9395899772644	pulse	1	t		83.0	2.5	/experiments/AOT/AOT_stimuli/rescaled_final/2042_fw.mp4	0.0	459.2203838825226	
85	438.45613503456116	fix_post	2		12	83.0	2.5	/experiments/AOT/AOT_stimuli/rescaled_final/2042_fw.mp4	0.0	459.73692893981934	0.09994006156921387
87	438.55607509613037	stim	0		1716					459.83686900138855	14.299927949905396
87	439.53955602645874	pulse	0	t						460.8203499317169	
87	441.1396288871765	pulse	0	t						462.4204227924347	
87	442.73944091796875	pulse	0	t						464.02023482322693	
87	444.3394958972931	pulse	0	t						465.62028980255127	
87	445.9395580291748	pulse	0	t						467.220351934433	
87	447.53945088386536	pulse	0	t						468.82024478912354	
87	449.139524936676	pulse	0	t						470.4203188419342	
87	450.73941707611084	pulse	0	t						472.020210981369	
87	452.3395040035248	pulse	0	t						473.62029790878296	
