trial_nr	onset	event_type	phase	response	nr_frames	movie_index	movie_duration	movie_file	blank	onset_abs	duration
0	0.20833802223205566	stim	0		36					22.037431001663208	0.2999870777130127
0	0.50040602684021	response	0	space						22.329499006271362	
1	0.5083250999450684	stim	0		4818					22.33741807937622	40.166966915130615
1	40.66523003578186	pulse	0	t						62.49432301521301	
1	40.675292015075684	stim	1		1715					62.504384994506836	14.29950213432312
1	42.256333112716675	pulse	1	t						64.08542609214783	
1	43.85664510726929	pulse	1	t						65.68573808670044	
1	45.45687007904053	pulse	1	t						67.28596305847168	
1	47.05711507797241	pulse	1	t						68.88620805740356	
1	48.65731501579285	pulse	1	t						70.486407995224	
1	50.257570028305054	pulse	1	t						72.0866630077362	
1	51.85783100128174	pulse	1	t						73.68692398071289	
1	53.45816707611084	pulse	1	t						75.28726005554199	
2	54.974794149398804	fix_pre	0		11	0.0	2.5	/experiments/knapen_AOT/AOT_stimuli/rescaled_final/0217_rv.mp4	0.0	76.80388712882996	0.09169387817382812
2	55.058321952819824	pulse	0	t		0.0	2.5	/experiments/knapen_AOT/AOT_stimuli/rescaled_final/0217_rv.mp4	0.0	76.88741493225098	
2	55.06648802757263	movie	1		243	0.0	2.5	/experiments/knapen_AOT/AOT_stimuli/rescaled_final/0217_rv.mp4	0.0	76.89558100700378	2.5086820125579834
2	56.65953516960144	pulse	1	t		0.0	2.5	/experiments/knapen_AOT/AOT_stimuli/rescaled_final/0217_rv.mp4	0.0	78.48862814903259	
2	57.575170040130615	fix_post	2		12	0.0	2.5	/experiments/knapen_AOT/AOT_stimuli/rescaled_final/0217_rv.mp4	0.0	79.40426301956177	0.10001802444458008
3	57.675188064575195	fix_pre	0		120	1.0	2.5	/experiments/knapen_AOT/AOT_stimuli/rescaled_final/0275_fw.mp4	0.0	79.50428104400635	1.000166893005371
3	58.258798122406006	pulse	0	t		1.0	2.5	/experiments/knapen_AOT/AOT_stimuli/rescaled_final/0275_fw.mp4	0.0	80.08789110183716	
3	58.675354957580566	movie	1		243	1.0	2.5	/experiments/knapen_AOT/AOT_stimuli/rescaled_final/0275_fw.mp4	0.0	80.50444793701172	2.5003790855407715
3	59.85913109779358	pulse	1	t		1.0	2.5	/experiments/knapen_AOT/AOT_stimuli/rescaled_final/0275_fw.mp4	0.0	81.68822407722473	
3	61.17573404312134	fix_post	2		12	1.0	2.5	/experiments/knapen_AOT/AOT_stimuli/rescaled_final/0275_fw.mp4	0.0	83.00482702255249	0.09996604919433594
4	61.275700092315674	fix_pre	0		120	2.0	2.5	/experiments/knapen_AOT/AOT_stimuli/rescaled_final/1643_fw.mp4	0.0	83.10479307174683	1.000190019607544
4	61.45927906036377	pulse	0	t		2.0	2.5	/experiments/knapen_AOT/AOT_stimuli/rescaled_final/1643_fw.mp4	0.0	83.28837203979492	
4	62.27589011192322	movie	1		242	2.0	2.5	/experiments/knapen_AOT/AOT_stimuli/rescaled_final/1643_fw.mp4	0.0	84.10498309135437	2.5004019737243652
4	63.05948805809021	pulse	1	t		2.0	2.5	/experiments/knapen_AOT/AOT_stimuli/rescaled_final/1643_fw.mp4	0.0	84.88858103752136	
4	64.6600489616394	pulse	1	t		2.0	2.5	/experiments/knapen_AOT/AOT_stimuli/rescaled_final/1643_fw.mp4	0.0	86.48914194107056	
4	64.77629208564758	fix_post	2		12	2.0	2.5	/experiments/knapen_AOT/AOT_stimuli/rescaled_final/1643_fw.mp4	0.0	86.60538506507874	0.09994697570800781
5	64.87623906135559	fix_pre	0		120	3.0	2.5	/experiments/knapen_AOT/AOT_stimuli/rescaled_final/0757_rv.mp4	0.0	86.70533204078674	1.0001189708709717
5	65.87635803222656	movie	1		244	3.0	2.5	/experiments/knapen_AOT/AOT_stimuli/rescaled_final/0757_rv.mp4	0.0	87.70545101165771	2.4920430183410645
5	66.26063203811646	pulse	1	t		3.0	2.5	/experiments/knapen_AOT/AOT_stimuli/rescaled_final/0757_rv.mp4	0.0	88.08972501754761	
5	67.86030316352844	pulse	1	t		3.0	2.5	/experiments/knapen_AOT/AOT_stimuli/rescaled_final/0757_rv.mp4	0.0	89.6893961429596	
5	68.36840105056763	fix_post	2		12	3.0	2.5	/experiments/knapen_AOT/AOT_stimuli/rescaled_final/0757_rv.mp4	0.0	90.19749402999878	0.10007309913635254
6	68.46847414970398	fix_pre	0		120	4.0	2.5	/experiments/knapen_AOT/AOT_stimuli/rescaled_final/0143_rv.mp4	0.0	90.29756712913513	1.000166893005371
6	69.46041703224182	pulse	0	t		4.0	2.5	/experiments/knapen_AOT/AOT_stimuli/rescaled_final/0143_rv.mp4	0.0	91.28951001167297	
6	69.46864104270935	movie	1		245	4.0	2.5	/experiments/knapen_AOT/AOT_stimuli/rescaled_final/0143_rv.mp4	0.0	91.2977340221405	2.5086569786071777
6	71.0651741027832	pulse	1	t		4.0	2.5	/experiments/knapen_AOT/AOT_stimuli/rescaled_final/0143_rv.mp4	0.0	92.89426708221436	
6	71.97729802131653	fix_post	2		12	4.0	2.5	/experiments/knapen_AOT/AOT_stimuli/rescaled_final/0143_rv.mp4	0.0	93.80639100074768	0.10012698173522949
7	72.07742500305176	fix_pre	0		120	5.0	2.5	/experiments/knapen_AOT/AOT_stimuli/rescaled_final/1689_rv.mp4	0.0	93.90651798248291	1.0000710487365723
7	72.66108703613281	pulse	0	t		5.0	2.5	/experiments/knapen_AOT/AOT_stimuli/rescaled_final/1689_rv.mp4	0.0	94.49018001556396	
7	73.07749605178833	movie	1		246	5.0	2.5	/experiments/knapen_AOT/AOT_stimuli/rescaled_final/1689_rv.mp4	0.0	94.90658903121948	2.500443935394287
7	74.26137208938599	pulse	1	t		5.0	2.5	/experiments/knapen_AOT/AOT_stimuli/rescaled_final/1689_rv.mp4	0.0	96.09046506881714	
7	75.57793998718262	fix_post	2		12	5.0	2.5	/experiments/knapen_AOT/AOT_stimuli/rescaled_final/1689_rv.mp4	0.0	97.40703296661377	0.09990501403808594
8	75.6778450012207	fix_pre	0		120	6.0	2.5	/experiments/knapen_AOT/AOT_stimuli/rescaled_final/0529_rv.mp4	0.0	97.50693798065186	1.000157117843628
8	75.86144495010376	pulse	0	t		6.0	2.5	/experiments/knapen_AOT/AOT_stimuli/rescaled_final/0529_rv.mp4	0.0	97.69053792953491	
8	76.67800211906433	movie	1		243	6.0	2.5	/experiments/knapen_AOT/AOT_stimuli/rescaled_final/0529_rv.mp4	0.0	98.50709509849548	2.5004959106445312
8	77.46167302131653	pulse	1	t		6.0	2.5	/experiments/knapen_AOT/AOT_stimuli/rescaled_final/0529_rv.mp4	0.0	99.29076600074768	
8	79.06169509887695	pulse	1	t		6.0	2.5	/experiments/knapen_AOT/AOT_stimuli/rescaled_final/0529_rv.mp4	0.0	100.8907880783081	
8	79.17849802970886	fix_post	2		12	6.0	2.5	/experiments/knapen_AOT/AOT_stimuli/rescaled_final/0529_rv.mp4	0.0	101.00759100914001	0.09985995292663574
9	79.2783579826355	fix_pre	0		119	7.0	2.5	blank	1.0	101.10745096206665	0.9918181896209717
9	80.27017617225647	movie	1		300	7.0	2.5	blank	1.0	102.09926915168762	2.5003998279571533
9	80.6621949672699	pulse	1	t		7.0	2.5	blank	1.0	102.49128794670105	
9	82.26238417625427	pulse	1	t		7.0	2.5	blank	1.0	104.09147715568542	
9	82.77057600021362	fix_post	2		12	7.0	2.5	blank	1.0	104.59966897964478	0.10003995895385742
10	82.87061595916748	fix_pre	0		120	8.0	2.5	/experiments/knapen_AOT/AOT_stimuli/rescaled_final/0629_rv.mp4	0.0	104.69970893859863	1.0001440048217773
10	83.85527110099792	pulse	0	t		8.0	2.5	/experiments/knapen_AOT/AOT_stimuli/rescaled_final/0629_rv.mp4	0.0	105.68436408042908	
10	83.87075996398926	movie	1		245	8.0	2.5	/experiments/knapen_AOT/AOT_stimuli/rescaled_final/0629_rv.mp4	0.0	105.69985294342041	2.508794069290161
10	85.46729302406311	pulse	1	t		8.0	2.5	/experiments/knapen_AOT/AOT_stimuli/rescaled_final/0629_rv.mp4	0.0	107.29638600349426	
10	86.37955403327942	fix_post	2		12	8.0	2.5	/experiments/knapen_AOT/AOT_stimuli/rescaled_final/0629_rv.mp4	0.0	108.20864701271057	0.09988713264465332
11	86.47944116592407	fix_pre	0		120	9.0	2.5	/experiments/knapen_AOT/AOT_stimuli/rescaled_final/0394_rv.mp4	0.0	108.30853414535522	1.000168800354004
11	87.05578303337097	pulse	0	t		9.0	2.5	/experiments/knapen_AOT/AOT_stimuli/rescaled_final/0394_rv.mp4	0.0	108.88487601280212	
11	87.47960996627808	movie	1		244	9.0	2.5	/experiments/knapen_AOT/AOT_stimuli/rescaled_final/0394_rv.mp4	0.0	109.30870294570923	2.500380039215088
11	88.6554319858551	pulse	1	t		9.0	2.5	/experiments/knapen_AOT/AOT_stimuli/rescaled_final/0394_rv.mp4	0.0	110.48452496528625	
11	89.97999000549316	fix_post	2		12	9.0	2.5	/experiments/knapen_AOT/AOT_stimuli/rescaled_final/0394_rv.mp4	0.0	111.80908298492432	0.10001301765441895
12	90.08000302314758	fix_pre	0		120	10.0	2.5	/experiments/knapen_AOT/AOT_stimuli/rescaled_final/1789_fw.mp4	0.0	111.90909600257874	1.00018310546875
12	90.25607514381409	pulse	0	t		10.0	2.5	/experiments/knapen_AOT/AOT_stimuli/rescaled_final/1789_fw.mp4	0.0	112.08516812324524	
12	91.08018612861633	movie	1		245	10.0	2.5	/experiments/knapen_AOT/AOT_stimuli/rescaled_final/1789_fw.mp4	0.0	112.90927910804749	2.5003068447113037
12	91.85550212860107	pulse	1	t		10.0	2.5	/experiments/knapen_AOT/AOT_stimuli/rescaled_final/1789_fw.mp4	0.0	113.68459510803223	
12	93.45563912391663	pulse	1	t		10.0	2.5	/experiments/knapen_AOT/AOT_stimuli/rescaled_final/1789_fw.mp4	0.0	115.28473210334778	
12	93.58049297332764	fix_post	2		12	10.0	2.5	/experiments/knapen_AOT/AOT_stimuli/rescaled_final/1789_fw.mp4	0.0	115.40958595275879	0.10001897811889648
13	93.68051195144653	fix_pre	0		119	11.0	2.5	/experiments/knapen_AOT/AOT_stimuli/rescaled_final/0427_rv.mp4	0.0	115.50960493087769	0.9918210506439209
13	94.67233300209045	movie	1		244	11.0	2.5	/experiments/knapen_AOT/AOT_stimuli/rescaled_final/0427_rv.mp4	0.0	116.5014259815216	2.500399112701416
13	95.05639815330505	pulse	1	t		11.0	2.5	/experiments/knapen_AOT/AOT_stimuli/rescaled_final/0427_rv.mp4	0.0	116.8854911327362	
13	96.65636610984802	pulse	1	t		11.0	2.5	/experiments/knapen_AOT/AOT_stimuli/rescaled_final/0427_rv.mp4	0.0	118.48545908927917	
13	97.17273211479187	fix_post	2		12	11.0	2.5	/experiments/knapen_AOT/AOT_stimuli/rescaled_final/0427_rv.mp4	0.0	119.00182509422302	0.1000058650970459
14	97.27273797988892	fix_pre	0		119	12.0	2.5	/experiments/knapen_AOT/AOT_stimuli/rescaled_final/0147_fw.mp4	0.0	119.10183095932007	0.991919994354248
14	98.25643515586853	pulse	0	t		12.0	2.5	/experiments/knapen_AOT/AOT_stimuli/rescaled_final/0147_fw.mp4	0.0	120.08552813529968	
14	98.26465797424316	movie	1		245	12.0	2.5	/experiments/knapen_AOT/AOT_stimuli/rescaled_final/0147_fw.mp4	0.0	120.09375095367432	2.508579969406128
14	99.85787916183472	pulse	1	t		12.0	2.5	/experiments/knapen_AOT/AOT_stimuli/rescaled_final/0147_fw.mp4	0.0	121.68697214126587	
14	100.77323794364929	fix_post	2		12	12.0	2.5	/experiments/knapen_AOT/AOT_stimuli/rescaled_final/0147_fw.mp4	0.0	122.60233092308044	0.10003805160522461
15	100.87327599525452	fix_pre	0		120	13.0	2.5	/experiments/knapen_AOT/AOT_stimuli/rescaled_final/0111_rv.mp4	0.0	122.70236897468567	1.0001611709594727
15	101.45687794685364	pulse	0	t		13.0	2.5	/experiments/knapen_AOT/AOT_stimuli/rescaled_final/0111_rv.mp4	0.0	123.28597092628479	
15	101.87343716621399	movie	1		244	13.0	2.5	/experiments/knapen_AOT/AOT_stimuli/rescaled_final/0111_rv.mp4	0.0	123.70253014564514	2.500499963760376
15	103.05721807479858	pulse	1	t		13.0	2.5	/experiments/knapen_AOT/AOT_stimuli/rescaled_final/0111_rv.mp4	0.0	124.88631105422974	
15	104.37393712997437	fix_post	2		9	13.0	2.5	/experiments/knapen_AOT/AOT_stimuli/rescaled_final/0111_rv.mp4	0.0	126.20303010940552	0.09997200965881348
16	104.47390913963318	fix_pre	0		120	14.0	2.5	blank	1.0	126.30300211906433	1.0000758171081543
16	104.65738701820374	pulse	0	t		14.0	2.5	blank	1.0	126.48647999763489	
16	105.47398495674133	movie	1		300	14.0	2.5	blank	1.0	127.30307793617249	2.500387191772461
16	106.25761914253235	pulse	1	t		14.0	2.5	blank	1.0	128.0867121219635	
16	107.85784101486206	pulse	1	t		14.0	2.5	blank	1.0	129.6869339942932	
16	107.9743721485138	fix_post	2		12	14.0	2.5	blank	1.0	129.80346512794495	0.09996986389160156
17	108.0743420124054	fix_pre	0		120	15.0	2.5	/experiments/knapen_AOT/AOT_stimuli/rescaled_final/0070_fw.mp4	0.0	129.90343499183655	1.000136137008667
17	109.07447814941406	movie	1		245	15.0	2.5	/experiments/knapen_AOT/AOT_stimuli/rescaled_final/0070_fw.mp4	0.0	130.90357112884521	2.4921820163726807
17	109.4619140625	pulse	1	t		15.0	2.5	/experiments/knapen_AOT/AOT_stimuli/rescaled_final/0070_fw.mp4	0.0	131.29100704193115	
17	111.05831098556519	pulse	1	t		15.0	2.5	/experiments/knapen_AOT/AOT_stimuli/rescaled_final/0070_fw.mp4	0.0	132.88740396499634	
17	111.56666016578674	fix_post	2		12	15.0	2.5	/experiments/knapen_AOT/AOT_stimuli/rescaled_final/0070_fw.mp4	0.0	133.3957531452179	0.09990692138671875
18	111.66656708717346	fix_pre	0		120	16.0	2.5	/experiments/knapen_AOT/AOT_stimuli/rescaled_final/0185_fw.mp4	0.0	133.49566006660461	1.0001299381256104
18	112.65861415863037	pulse	0	t		16.0	2.5	/experiments/knapen_AOT/AOT_stimuli/rescaled_final/0185_fw.mp4	0.0	134.48770713806152	
18	112.66669702529907	movie	1		245	16.0	2.5	/experiments/knapen_AOT/AOT_stimuli/rescaled_final/0185_fw.mp4	0.0	134.49579000473022	2.508697032928467
18	114.25924110412598	pulse	1	t		16.0	2.5	/experiments/knapen_AOT/AOT_stimuli/rescaled_final/0185_fw.mp4	0.0	136.08833408355713	
18	115.17539405822754	fix_post	2		12	16.0	2.5	/experiments/knapen_AOT/AOT_stimuli/rescaled_final/0185_fw.mp4	0.0	137.0044870376587	0.10001111030578613
19	115.27540516853333	fix_pre	0		120	17.0	2.5	/experiments/knapen_AOT/AOT_stimuli/rescaled_final/0784_rv.mp4	0.0	137.10449814796448	1.00022292137146
19	115.85909008979797	pulse	0	t		17.0	2.5	/experiments/knapen_AOT/AOT_stimuli/rescaled_final/0784_rv.mp4	0.0	137.68818306922913	
19	116.27562808990479	movie	1		244	17.0	2.5	/experiments/knapen_AOT/AOT_stimuli/rescaled_final/0784_rv.mp4	0.0	138.10472106933594	2.500351905822754
19	117.45941615104675	pulse	1	t		17.0	2.5	/experiments/knapen_AOT/AOT_stimuli/rescaled_final/0784_rv.mp4	0.0	139.2885091304779	
19	118.77597999572754	fix_post	2		12	17.0	2.5	/experiments/knapen_AOT/AOT_stimuli/rescaled_final/0784_rv.mp4	0.0	140.6050729751587	0.09996604919433594
20	118.87594604492188	fix_pre	0		120	18.0	2.5	/experiments/knapen_AOT/AOT_stimuli/rescaled_final/0628_rv.mp4	0.0	140.70503902435303	1.0001599788665771
20	119.05963206291199	pulse	0	t		18.0	2.5	/experiments/knapen_AOT/AOT_stimuli/rescaled_final/0628_rv.mp4	0.0	140.88872504234314	
20	119.87610602378845	movie	1		245	18.0	2.5	/experiments/knapen_AOT/AOT_stimuli/rescaled_final/0628_rv.mp4	0.0	141.7051990032196	2.5003600120544434
20	120.65986204147339	pulse	1	t		18.0	2.5	/experiments/knapen_AOT/AOT_stimuli/rescaled_final/0628_rv.mp4	0.0	142.48895502090454	
20	122.26022005081177	pulse	1	t		18.0	2.5	/experiments/knapen_AOT/AOT_stimuli/rescaled_final/0628_rv.mp4	0.0	144.08931303024292	
20	122.3764660358429	fix_post	2		12	18.0	2.5	/experiments/knapen_AOT/AOT_stimuli/rescaled_final/0628_rv.mp4	0.0	144.20555901527405	0.10003805160522461
21	122.47650408744812	fix_pre	0		120	19.0	2.5	blank	1.0	144.30559706687927	1.0001640319824219
21	123.47666811943054	movie	1		299	19.0	2.5	blank	1.0	145.3057610988617	2.492039918899536
21	123.86029505729675	pulse	1	t		19.0	2.5	blank	1.0	145.6893880367279	
21	125.46037697792053	pulse	1	t		19.0	2.5	blank	1.0	147.28946995735168	
21	125.96870803833008	fix_post	2		12	19.0	2.5	blank	1.0	147.79780101776123	0.10008811950683594
22	126.06879615783691	fix_pre	0		120	20.0	2.5	/experiments/knapen_AOT/AOT_stimuli/rescaled_final/0007_rv.mp4	0.0	147.89788913726807	1.000067949295044
22	127.06071615219116	pulse	0	t		20.0	2.5	/experiments/knapen_AOT/AOT_stimuli/rescaled_final/0007_rv.mp4	0.0	148.88980913162231	
22	127.06886410713196	movie	1		244	20.0	2.5	/experiments/knapen_AOT/AOT_stimuli/rescaled_final/0007_rv.mp4	0.0	148.8979570865631	2.508820056915283
22	128.66144108772278	pulse	1	t		20.0	2.5	/experiments/knapen_AOT/AOT_stimuli/rescaled_final/0007_rv.mp4	0.0	150.49053406715393	
22	129.57768416404724	fix_post	2		12	20.0	2.5	/experiments/knapen_AOT/AOT_stimuli/rescaled_final/0007_rv.mp4	0.0	151.4067771434784	0.09990978240966797
23	129.6775939464569	fix_pre	0		120	21.0	2.5	/experiments/knapen_AOT/AOT_stimuli/rescaled_final/1568_fw.mp4	0.0	151.50668692588806	1.0001652240753174
23	130.26120615005493	pulse	0	t		21.0	2.5	/experiments/knapen_AOT/AOT_stimuli/rescaled_final/1568_fw.mp4	0.0	152.09029912948608	
23	130.67775917053223	movie	1		244	21.0	2.5	/experiments/knapen_AOT/AOT_stimuli/rescaled_final/1568_fw.mp4	0.0	152.50685214996338	2.5002989768981934
23	131.8615460395813	pulse	1	t		21.0	2.5	/experiments/knapen_AOT/AOT_stimuli/rescaled_final/1568_fw.mp4	0.0	153.69063901901245	
23	133.17805814743042	fix_post	2		12	21.0	2.5	/experiments/knapen_AOT/AOT_stimuli/rescaled_final/1568_fw.mp4	0.0	155.00715112686157	0.10004496574401855
24	133.27810311317444	fix_pre	0		120	22.0	2.5	/experiments/knapen_AOT/AOT_stimuli/rescaled_final/1377_fw.mp4	0.0	155.1071960926056	1.0001418590545654
24	133.4617371559143	pulse	0	t		22.0	2.5	/experiments/knapen_AOT/AOT_stimuli/rescaled_final/1377_fw.mp4	0.0	155.29083013534546	
24	134.278244972229	movie	1		243	22.0	2.5	/experiments/knapen_AOT/AOT_stimuli/rescaled_final/1377_fw.mp4	0.0	156.10733795166016	2.5004560947418213
24	135.06203413009644	pulse	1	t		22.0	2.5	/experiments/knapen_AOT/AOT_stimuli/rescaled_final/1377_fw.mp4	0.0	156.8911271095276	
24	136.66222596168518	pulse	1	t		22.0	2.5	/experiments/knapen_AOT/AOT_stimuli/rescaled_final/1377_fw.mp4	0.0	158.49131894111633	
24	136.77870106697083	fix_post	2		12	22.0	2.5	/experiments/knapen_AOT/AOT_stimuli/rescaled_final/1377_fw.mp4	0.0	158.60779404640198	0.09991598129272461
25	136.87861704826355	fix_pre	0		120	23.0	2.5	/experiments/knapen_AOT/AOT_stimuli/rescaled_final/2024_rv.mp4	0.0	158.7077100276947	1.0001919269561768
25	137.87880897521973	movie	1		244	23.0	2.5	/experiments/knapen_AOT/AOT_stimuli/rescaled_final/2024_rv.mp4	0.0	159.70790195465088	2.4920670986175537
25	138.26288414001465	pulse	1	t		23.0	2.5	/experiments/knapen_AOT/AOT_stimuli/rescaled_final/2024_rv.mp4	0.0	160.0919771194458	
25	139.85527205467224	pulse	1	t		23.0	2.5	/experiments/knapen_AOT/AOT_stimuli/rescaled_final/2024_rv.mp4	0.0	161.6843650341034	
25	140.37087607383728	fix_post	2		12	23.0	2.5	/experiments/knapen_AOT/AOT_stimuli/rescaled_final/2024_rv.mp4	0.0	162.19996905326843	0.09998393058776855
26	140.47086000442505	fix_pre	0		120	24.0	2.5	/experiments/knapen_AOT/AOT_stimuli/rescaled_final/1251_rv.mp4	0.0	162.2999529838562	1.0001521110534668
26	141.45528101921082	pulse	0	t		24.0	2.5	/experiments/knapen_AOT/AOT_stimuli/rescaled_final/1251_rv.mp4	0.0	163.28437399864197	
26	141.47101211547852	movie	1		244	24.0	2.5	/experiments/knapen_AOT/AOT_stimuli/rescaled_final/1251_rv.mp4	0.0	163.30010509490967	2.5087218284606934
26	143.06357097625732	pulse	1	t		24.0	2.5	/experiments/knapen_AOT/AOT_stimuli/rescaled_final/1251_rv.mp4	0.0	164.89266395568848	
26	143.9797339439392	fix_post	2		12	24.0	2.5	/experiments/knapen_AOT/AOT_stimuli/rescaled_final/1251_rv.mp4	0.0	165.80882692337036	0.09997701644897461
27	144.07971096038818	fix_pre	0		120	25.0	2.5	/experiments/knapen_AOT/AOT_stimuli/rescaled_final/2099_rv.mp4	0.0	165.90880393981934	1.0001790523529053
27	144.65520095825195	pulse	0	t		25.0	2.5	/experiments/knapen_AOT/AOT_stimuli/rescaled_final/2099_rv.mp4	0.0	166.4842939376831	
27	145.0798900127411	movie	1		244	25.0	2.5	/experiments/knapen_AOT/AOT_stimuli/rescaled_final/2099_rv.mp4	0.0	166.90898299217224	2.5003390312194824
27	146.25659608840942	pulse	1	t		25.0	2.5	/experiments/knapen_AOT/AOT_stimuli/rescaled_final/2099_rv.mp4	0.0	168.08568906784058	
27	147.58022904396057	fix_post	2		12	25.0	2.5	/experiments/knapen_AOT/AOT_stimuli/rescaled_final/2099_rv.mp4	0.0	169.40932202339172	0.10005998611450195
28	147.68028903007507	fix_pre	0		120	26.0	2.5	/experiments/knapen_AOT/AOT_stimuli/rescaled_final/2024_fw.mp4	0.0	169.50938200950623	1.0001540184020996
28	147.8554310798645	pulse	0	t		26.0	2.5	/experiments/knapen_AOT/AOT_stimuli/rescaled_final/2024_fw.mp4	0.0	169.68452405929565	
28	148.68044304847717	movie	1		245	26.0	2.5	/experiments/knapen_AOT/AOT_stimuli/rescaled_final/2024_fw.mp4	0.0	170.50953602790833	2.500365972518921
28	149.45575213432312	pulse	1	t		26.0	2.5	/experiments/knapen_AOT/AOT_stimuli/rescaled_final/2024_fw.mp4	0.0	171.28484511375427	
28	151.05611205101013	pulse	1	t		26.0	2.5	/experiments/knapen_AOT/AOT_stimuli/rescaled_final/2024_fw.mp4	0.0	172.88520503044128	
28	151.1808090209961	fix_post	2		12	26.0	2.5	/experiments/knapen_AOT/AOT_stimuli/rescaled_final/2024_fw.mp4	0.0	173.00990200042725	0.10001206398010254
29	151.2808210849762	fix_pre	0		120	27.0	2.5	/experiments/knapen_AOT/AOT_stimuli/rescaled_final/1181_fw.mp4	0.0	173.10991406440735	1.0001630783081055
29	152.2809841632843	movie	1		242	27.0	2.5	/experiments/knapen_AOT/AOT_stimuli/rescaled_final/1181_fw.mp4	0.0	174.11007714271545	2.492004871368408
29	152.65631794929504	pulse	1	t		27.0	2.5	/experiments/knapen_AOT/AOT_stimuli/rescaled_final/1181_fw.mp4	0.0	174.4854109287262	
29	154.2565040588379	pulse	1	t		27.0	2.5	/experiments/knapen_AOT/AOT_stimuli/rescaled_final/1181_fw.mp4	0.0	176.08559703826904	
29	154.7729890346527	fix_post	2		12	27.0	2.5	/experiments/knapen_AOT/AOT_stimuli/rescaled_final/1181_fw.mp4	0.0	176.60208201408386	0.10001897811889648
30	154.8730080127716	fix_pre	0		119	28.0	2.5	blank	1.0	176.70210099220276	0.9918620586395264
30	155.8566861152649	pulse	0	t		28.0	2.5	blank	1.0	177.68577909469604	
30	155.86487007141113	movie	1		301	28.0	2.5	blank	1.0	177.69396305084229	2.5087080001831055
30	157.4570300579071	pulse	1	t		28.0	2.5	blank	1.0	179.28612303733826	
30	158.37357807159424	fix_post	2		12	28.0	2.5	blank	1.0	180.2026710510254	0.09996294975280762
31	158.47354102134705	fix_pre	0		120	29.0	2.5	/experiments/knapen_AOT/AOT_stimuli/rescaled_final/1683_fw.mp4	0.0	180.3026340007782	1.000128984451294
31	159.0573320388794	pulse	0	t		29.0	2.5	/experiments/knapen_AOT/AOT_stimuli/rescaled_final/1683_fw.mp4	0.0	180.88642501831055	
31	159.47367000579834	movie	1		243	29.0	2.5	/experiments/knapen_AOT/AOT_stimuli/rescaled_final/1683_fw.mp4	0.0	181.3027629852295	2.5003740787506104
31	160.6574890613556	pulse	1	t		29.0	2.5	/experiments/knapen_AOT/AOT_stimuli/rescaled_final/1683_fw.mp4	0.0	182.48658204078674	
31	161.97404408454895	fix_post	2		12	29.0	2.5	/experiments/knapen_AOT/AOT_stimuli/rescaled_final/1683_fw.mp4	0.0	183.8031370639801	0.10018491744995117
32	162.0742290019989	fix_pre	0		120	30.0	2.5	/experiments/knapen_AOT/AOT_stimuli/rescaled_final/1109_rv.mp4	0.0	183.90332198143005	1.0000290870666504
32	162.25778007507324	pulse	0	t		30.0	2.5	/experiments/knapen_AOT/AOT_stimuli/rescaled_final/1109_rv.mp4	0.0	184.0868730545044	
32	163.07425808906555	movie	1		243	30.0	2.5	/experiments/knapen_AOT/AOT_stimuli/rescaled_final/1109_rv.mp4	0.0	184.9033510684967	2.5004498958587646
32	163.85801005363464	pulse	1	t		30.0	2.5	/experiments/knapen_AOT/AOT_stimuli/rescaled_final/1109_rv.mp4	0.0	185.6871030330658	
32	165.45803117752075	pulse	1	t		30.0	2.5	/experiments/knapen_AOT/AOT_stimuli/rescaled_final/1109_rv.mp4	0.0	187.2871241569519	
32	165.57470798492432	fix_post	2		12	30.0	2.5	/experiments/knapen_AOT/AOT_stimuli/rescaled_final/1109_rv.mp4	0.0	187.40380096435547	0.09992718696594238
33	165.67463517189026	fix_pre	0		119	31.0	2.5	/experiments/knapen_AOT/AOT_stimuli/rescaled_final/0427_rv.mp4	0.0	187.5037281513214	0.9918098449707031
33	166.66644501686096	movie	1		244	31.0	2.5	/experiments/knapen_AOT/AOT_stimuli/rescaled_final/0427_rv.mp4	0.0	188.49553799629211	2.5004241466522217
33	167.05843997001648	pulse	1	t		31.0	2.5	/experiments/knapen_AOT/AOT_stimuli/rescaled_final/0427_rv.mp4	0.0	188.88753294944763	
33	168.65857195854187	pulse	1	t		31.0	2.5	/experiments/knapen_AOT/AOT_stimuli/rescaled_final/0427_rv.mp4	0.0	190.48766493797302	
33	169.16686916351318	fix_post	2		12	31.0	2.5	/experiments/knapen_AOT/AOT_stimuli/rescaled_final/0427_rv.mp4	0.0	190.99596214294434	0.09993982315063477
34	169.26680898666382	fix_pre	0		120	32.0	2.5	/experiments/knapen_AOT/AOT_stimuli/rescaled_final/0387_fw.mp4	0.0	191.09590196609497	1.0001749992370605
34	170.25896215438843	pulse	0	t		32.0	2.5	/experiments/knapen_AOT/AOT_stimuli/rescaled_final/0387_fw.mp4	0.0	192.08805513381958	
34	170.26698398590088	movie	1		242	32.0	2.5	/experiments/knapen_AOT/AOT_stimuli/rescaled_final/0387_fw.mp4	0.0	192.09607696533203	2.5087661743164062
34	171.85943913459778	pulse	1	t		32.0	2.5	/experiments/knapen_AOT/AOT_stimuli/rescaled_final/0387_fw.mp4	0.0	193.68853211402893	
34	172.77575016021729	fix_post	2		12	32.0	2.5	/experiments/knapen_AOT/AOT_stimuli/rescaled_final/0387_fw.mp4	0.0	194.60484313964844	0.0999608039855957
35	172.87571096420288	fix_pre	0		120	33.0	2.5	/experiments/knapen_AOT/AOT_stimuli/rescaled_final/0323_fw.mp4	0.0	194.70480394363403	1.0001261234283447
35	173.45938301086426	pulse	0	t		33.0	2.5	/experiments/knapen_AOT/AOT_stimuli/rescaled_final/0323_fw.mp4	0.0	195.2884759902954	
35	173.87583708763123	movie	1		244	33.0	2.5	/experiments/knapen_AOT/AOT_stimuli/rescaled_final/0323_fw.mp4	0.0	195.70493006706238	2.5004489421844482
35	175.05968713760376	pulse	1	t		33.0	2.5	/experiments/knapen_AOT/AOT_stimuli/rescaled_final/0323_fw.mp4	0.0	196.8887801170349	
35	176.37628602981567	fix_post	2		12	33.0	2.5	/experiments/knapen_AOT/AOT_stimuli/rescaled_final/0323_fw.mp4	0.0	198.20537900924683	0.0999460220336914
36	176.47623205184937	fix_pre	0		120	34.0	2.5	blank	1.0	198.30532503128052	1.0001919269561768
36	176.65986800193787	pulse	0	t		34.0	2.5	blank	1.0	198.48896098136902	
36	177.47642397880554	movie	1		300	34.0	2.5	blank	1.0	199.3055169582367	2.500296115875244
36	178.26012206077576	pulse	1	t		34.0	2.5	blank	1.0	200.0892150402069	
36	179.86030316352844	pulse	1	t		34.0	2.5	blank	1.0	201.6893961429596	
36	179.9767200946808	fix_post	2		12	34.0	2.5	blank	1.0	201.80581307411194	0.10002684593200684
37	180.0767469406128	fix_pre	0		120	35.0	2.5	/experiments/knapen_AOT/AOT_stimuli/rescaled_final/0216_fw.mp4	0.0	201.90583992004395	1.0002021789550781
37	181.07694911956787	movie	1		243	35.0	2.5	/experiments/knapen_AOT/AOT_stimuli/rescaled_final/0216_fw.mp4	0.0	202.90604209899902	2.492032051086426
37	181.4611780643463	pulse	1	t		35.0	2.5	/experiments/knapen_AOT/AOT_stimuli/rescaled_final/0216_fw.mp4	0.0	203.29027104377747	
37	183.06082201004028	pulse	1	t		35.0	2.5	/experiments/knapen_AOT/AOT_stimuli/rescaled_final/0216_fw.mp4	0.0	204.88991498947144	
37	183.5689811706543	fix_post	2		12	35.0	2.5	/experiments/knapen_AOT/AOT_stimuli/rescaled_final/0216_fw.mp4	0.0	205.39807415008545	0.10002589225769043
38	183.669007062912	fix_pre	0		120	36.0	2.5	/experiments/knapen_AOT/AOT_stimuli/rescaled_final/0179_rv.mp4	0.0	205.49810004234314	1.000135898590088
38	184.66115498542786	pulse	0	t		36.0	2.5	/experiments/knapen_AOT/AOT_stimuli/rescaled_final/0179_rv.mp4	0.0	206.490247964859	
38	184.66914296150208	movie	1		245	36.0	2.5	/experiments/knapen_AOT/AOT_stimuli/rescaled_final/0179_rv.mp4	0.0	206.49823594093323	2.508695125579834
38	186.26185512542725	pulse	1	t		36.0	2.5	/experiments/knapen_AOT/AOT_stimuli/rescaled_final/0179_rv.mp4	0.0	208.0909481048584	
38	187.1778380870819	fix_post	2		12	36.0	2.5	/experiments/knapen_AOT/AOT_stimuli/rescaled_final/0179_rv.mp4	0.0	209.00693106651306	0.10001587867736816
39	187.27785396575928	fix_pre	0		120	37.0	2.5	/experiments/knapen_AOT/AOT_stimuli/rescaled_final/1694_rv.mp4	0.0	209.10694694519043	1.0001261234283447
39	187.86150598526	pulse	0	t		37.0	2.5	/experiments/knapen_AOT/AOT_stimuli/rescaled_final/1694_rv.mp4	0.0	209.69059896469116	
39	188.27798008918762	movie	1		243	37.0	2.5	/experiments/knapen_AOT/AOT_stimuli/rescaled_final/1694_rv.mp4	0.0	210.10707306861877	2.500369071960449
39	189.46185302734375	pulse	1	t		37.0	2.5	/experiments/knapen_AOT/AOT_stimuli/rescaled_final/1694_rv.mp4	0.0	211.2909460067749	
39	190.77834916114807	fix_post	2		12	37.0	2.5	/experiments/knapen_AOT/AOT_stimuli/rescaled_final/1694_rv.mp4	0.0	212.60744214057922	0.10002899169921875
40	190.8783781528473	fix_pre	0		120	38.0	2.5	/experiments/knapen_AOT/AOT_stimuli/rescaled_final/0179_rv.mp4	0.0	212.70747113227844	1.0001788139343262
40	191.06205296516418	pulse	0	t		38.0	2.5	/experiments/knapen_AOT/AOT_stimuli/rescaled_final/0179_rv.mp4	0.0	212.89114594459534	
40	191.87855696678162	movie	1		244	38.0	2.5	/experiments/knapen_AOT/AOT_stimuli/rescaled_final/0179_rv.mp4	0.0	213.70764994621277	2.500359058380127
40	192.66230511665344	pulse	1	t		38.0	2.5	/experiments/knapen_AOT/AOT_stimuli/rescaled_final/0179_rv.mp4	0.0	214.4913980960846	
40	194.2624261379242	pulse	1	t		38.0	2.5	/experiments/knapen_AOT/AOT_stimuli/rescaled_final/0179_rv.mp4	0.0	216.09151911735535	
40	194.37891602516174	fix_post	2		12	38.0	2.5	/experiments/knapen_AOT/AOT_stimuli/rescaled_final/0179_rv.mp4	0.0	216.2080090045929	0.10000109672546387
41	194.4789171218872	fix_pre	0		120	39.0	2.5	/experiments/knapen_AOT/AOT_stimuli/rescaled_final/1698_rv.mp4	0.0	216.30801010131836	1.0001609325408936
41	195.4790780544281	movie	1		243	39.0	2.5	/experiments/knapen_AOT/AOT_stimuli/rescaled_final/1698_rv.mp4	0.0	217.30817103385925	2.492013931274414
41	195.86343908309937	pulse	1	t		39.0	2.5	/experiments/knapen_AOT/AOT_stimuli/rescaled_final/1698_rv.mp4	0.0	217.69253206253052	
41	197.45561599731445	pulse	1	t		39.0	2.5	/experiments/knapen_AOT/AOT_stimuli/rescaled_final/1698_rv.mp4	0.0	219.2847089767456	
41	197.97109198570251	fix_post	2		12	39.0	2.5	/experiments/knapen_AOT/AOT_stimuli/rescaled_final/1698_rv.mp4	0.0	219.80018496513367	0.10003900527954102
42	198.07113099098206	fix_pre	0		120	40.0	2.5	/experiments/knapen_AOT/AOT_stimuli/rescaled_final/0170_fw.mp4	0.0	219.9002239704132	1.0001680850982666
42	199.05560207366943	pulse	0	t		40.0	2.5	/experiments/knapen_AOT/AOT_stimuli/rescaled_final/0170_fw.mp4	0.0	220.8846950531006	
42	199.07129907608032	movie	1		244	40.0	2.5	/experiments/knapen_AOT/AOT_stimuli/rescaled_final/0170_fw.mp4	0.0	220.90039205551147	2.5086429119110107
42	200.66401410102844	pulse	1	t		40.0	2.5	/experiments/knapen_AOT/AOT_stimuli/rescaled_final/0170_fw.mp4	0.0	222.4931070804596	
42	201.57994198799133	fix_post	2		12	40.0	2.5	/experiments/knapen_AOT/AOT_stimuli/rescaled_final/0170_fw.mp4	0.0	223.40903496742249	0.10004496574401855
43	201.67998695373535	fix_pre	0		120	41.0	2.5	blank	1.0	223.5090799331665	1.000197172164917
43	202.25614714622498	pulse	0	t		41.0	2.5	blank	1.0	224.08524012565613	
43	202.68018412590027	movie	1		300	41.0	2.5	blank	1.0	224.50927710533142	2.500382900238037
43	203.85569715499878	pulse	1	t		41.0	2.5	blank	1.0	225.68479013442993	
43	205.1805670261383	fix_post	2		12	41.0	2.5	blank	1.0	227.00966000556946	0.09998297691345215
44	205.28055000305176	fix_pre	0		120	42.0	2.5	/experiments/knapen_AOT/AOT_stimuli/rescaled_final/1576_fw.mp4	0.0	227.1096429824829	1.000175952911377
44	205.4557909965515	pulse	0	t		42.0	2.5	/experiments/knapen_AOT/AOT_stimuli/rescaled_final/1576_fw.mp4	0.0	227.28488397598267	
44	206.28072595596313	movie	1		244	42.0	2.5	/experiments/knapen_AOT/AOT_stimuli/rescaled_final/1576_fw.mp4	0.0	228.1098189353943	2.5004680156707764
44	207.05598306655884	pulse	1	t		42.0	2.5	/experiments/knapen_AOT/AOT_stimuli/rescaled_final/1576_fw.mp4	0.0	228.88507604599	
44	208.6562910079956	pulse	1	t		42.0	2.5	/experiments/knapen_AOT/AOT_stimuli/rescaled_final/1576_fw.mp4	0.0	230.48538398742676	
44	208.7811939716339	fix_post	2		12	42.0	2.5	/experiments/knapen_AOT/AOT_stimuli/rescaled_final/1576_fw.mp4	0.0	230.61028695106506	0.09999418258666992
45	208.88118815422058	fix_pre	0		119	43.0	2.5	/experiments/knapen_AOT/AOT_stimuli/rescaled_final/1109_fw.mp4	0.0	230.71028113365173	0.9916768074035645
45	209.87286496162415	movie	1		243	43.0	2.5	/experiments/knapen_AOT/AOT_stimuli/rescaled_final/1109_fw.mp4	0.0	231.7019579410553	2.5005500316619873
45	210.2570071220398	pulse	1	t		43.0	2.5	/experiments/knapen_AOT/AOT_stimuli/rescaled_final/1109_fw.mp4	0.0	232.08610010147095	
45	211.8567831516266	pulse	1	t		43.0	2.5	/experiments/knapen_AOT/AOT_stimuli/rescaled_final/1109_fw.mp4	0.0	233.68587613105774	
45	212.37341499328613	fix_post	2		12	43.0	2.5	/experiments/knapen_AOT/AOT_stimuli/rescaled_final/1109_fw.mp4	0.0	234.20250797271729	0.09987115859985352
46	212.473286151886	fix_pre	0		119	44.0	2.5	/experiments/knapen_AOT/AOT_stimuli/rescaled_final/0428_rv.mp4	0.0	234.30237913131714	0.9918558597564697
46	213.45699906349182	pulse	0	t		44.0	2.5	/experiments/knapen_AOT/AOT_stimuli/rescaled_final/0428_rv.mp4	0.0	235.28609204292297	
46	213.46514201164246	movie	1		246	44.0	2.5	/experiments/knapen_AOT/AOT_stimuli/rescaled_final/0428_rv.mp4	0.0	235.2942349910736	2.508679151535034
46	215.0579891204834	pulse	1	t		44.0	2.5	/experiments/knapen_AOT/AOT_stimuli/rescaled_final/0428_rv.mp4	0.0	236.88708209991455	
46	215.9738211631775	fix_post	2		12	44.0	2.5	/experiments/knapen_AOT/AOT_stimuli/rescaled_final/0428_rv.mp4	0.0	237.80291414260864	0.10000491142272949
47	216.07382607460022	fix_pre	0		120	45.0	2.5	/experiments/knapen_AOT/AOT_stimuli/rescaled_final/0763_fw.mp4	0.0	237.90291905403137	1.0002140998840332
47	216.65743017196655	pulse	0	t		45.0	2.5	/experiments/knapen_AOT/AOT_stimuli/rescaled_final/0763_fw.mp4	0.0	238.4865231513977	
47	217.07404017448425	movie	1		246	45.0	2.5	/experiments/knapen_AOT/AOT_stimuli/rescaled_final/0763_fw.mp4	0.0	238.9031331539154	2.5002758502960205
47	218.25779104232788	pulse	1	t		45.0	2.5	/experiments/knapen_AOT/AOT_stimuli/rescaled_final/0763_fw.mp4	0.0	240.08688402175903	
47	219.57431602478027	fix_post	2		12	45.0	2.5	/experiments/knapen_AOT/AOT_stimuli/rescaled_final/0763_fw.mp4	0.0	241.40340900421143	0.10001492500305176
48	219.67433094978333	fix_pre	0		120	46.0	2.5	/experiments/knapen_AOT/AOT_stimuli/rescaled_final/0968_rv.mp4	0.0	241.50342392921448	1.0001890659332275
48	219.8579580783844	pulse	0	t		46.0	2.5	/experiments/knapen_AOT/AOT_stimuli/rescaled_final/0968_rv.mp4	0.0	241.68705105781555	
48	220.67452001571655	movie	1		243	46.0	2.5	/experiments/knapen_AOT/AOT_stimuli/rescaled_final/0968_rv.mp4	0.0	242.5036129951477	2.500447988510132
48	221.45818710327148	pulse	1	t		46.0	2.5	/experiments/knapen_AOT/AOT_stimuli/rescaled_final/0968_rv.mp4	0.0	243.28728008270264	
48	223.0583040714264	pulse	1	t		46.0	2.5	/experiments/knapen_AOT/AOT_stimuli/rescaled_final/0968_rv.mp4	0.0	244.88739705085754	
48	223.17496800422668	fix_post	2		12	46.0	2.5	/experiments/knapen_AOT/AOT_stimuli/rescaled_final/0968_rv.mp4	0.0	245.00406098365784	0.09996199607849121
49	223.27493000030518	fix_pre	0		120	47.0	2.5	blank	1.0	245.10402297973633	1.0001201629638672
49	224.27505016326904	movie	1		299	47.0	2.5	blank	1.0	246.1041431427002	2.492050886154175
49	224.65873503684998	pulse	1	t		47.0	2.5	blank	1.0	246.48782801628113	
49	226.25895404815674	pulse	1	t		47.0	2.5	blank	1.0	248.0880470275879	
49	226.76710104942322	fix_post	2		12	47.0	2.5	blank	1.0	248.59619402885437	0.10002589225769043
50	226.8671269416809	fix_pre	0		120	48.0	2.5	/experiments/knapen_AOT/AOT_stimuli/rescaled_final/0465_fw.mp4	0.0	248.69621992111206	1.0001540184020996
50	227.8591501712799	pulse	0	t		48.0	2.5	/experiments/knapen_AOT/AOT_stimuli/rescaled_final/0465_fw.mp4	0.0	249.68824315071106	
50	227.867280960083	movie	1		244	48.0	2.5	/experiments/knapen_AOT/AOT_stimuli/rescaled_final/0465_fw.mp4	0.0	249.69637393951416	2.5086281299591064
50	229.46027898788452	pulse	1	t		48.0	2.5	/experiments/knapen_AOT/AOT_stimuli/rescaled_final/0465_fw.mp4	0.0	251.28937196731567	
50	230.37590909004211	fix_post	2		12	48.0	2.5	/experiments/knapen_AOT/AOT_stimuli/rescaled_final/0465_fw.mp4	0.0	252.20500206947327	0.10007095336914062
51	230.47598004341125	fix_pre	0		120	49.0	2.5	/experiments/knapen_AOT/AOT_stimuli/rescaled_final/0177_fw.mp4	0.0	252.3050730228424	1.0001769065856934
51	231.0595841407776	pulse	0	t		49.0	2.5	/experiments/knapen_AOT/AOT_stimuli/rescaled_final/0177_fw.mp4	0.0	252.88867712020874	
51	231.47615694999695	movie	1		244	49.0	2.5	/experiments/knapen_AOT/AOT_stimuli/rescaled_final/0177_fw.mp4	0.0	253.3052499294281	2.5003750324249268
51	232.6600639820099	pulse	1	t		49.0	2.5	/experiments/knapen_AOT/AOT_stimuli/rescaled_final/0177_fw.mp4	0.0	254.48915696144104	
51	233.97653198242188	fix_post	2		12	49.0	2.5	/experiments/knapen_AOT/AOT_stimuli/rescaled_final/0177_fw.mp4	0.0	255.80562496185303	0.09998106956481934
52	234.0765130519867	fix_pre	0		120	50.0	2.5	/experiments/knapen_AOT/AOT_stimuli/rescaled_final/1852_rv.mp4	0.0	255.90560603141785	1.0001471042633057
52	234.2601180076599	pulse	0	t		50.0	2.5	/experiments/knapen_AOT/AOT_stimuli/rescaled_final/1852_rv.mp4	0.0	256.08921098709106	
52	235.07666015625	movie	1		243	50.0	2.5	/experiments/knapen_AOT/AOT_stimuli/rescaled_final/1852_rv.mp4	0.0	256.90575313568115	2.5005178451538086
52	235.86029696464539	pulse	1	t		50.0	2.5	/experiments/knapen_AOT/AOT_stimuli/rescaled_final/1852_rv.mp4	0.0	257.68938994407654	
52	237.46226501464844	pulse	1	t		50.0	2.5	/experiments/knapen_AOT/AOT_stimuli/rescaled_final/1852_rv.mp4	0.0	259.2913579940796	
52	237.5771780014038	fix_post	2		9	50.0	2.5	/experiments/knapen_AOT/AOT_stimuli/rescaled_final/1852_rv.mp4	0.0	259.40627098083496	0.09986996650695801
53	237.67704796791077	fix_pre	0		120	51.0	2.5	/experiments/knapen_AOT/AOT_stimuli/rescaled_final/0111_rv.mp4	0.0	259.5061409473419	1.0001389980316162
53	238.67718696594238	movie	1		243	51.0	2.5	/experiments/knapen_AOT/AOT_stimuli/rescaled_final/0111_rv.mp4	0.0	260.50627994537354	2.4920601844787598
53	239.06127309799194	pulse	1	t		51.0	2.5	/experiments/knapen_AOT/AOT_stimuli/rescaled_final/0111_rv.mp4	0.0	260.8903660774231	
53	240.66116309165955	pulse	1	t		51.0	2.5	/experiments/knapen_AOT/AOT_stimuli/rescaled_final/0111_rv.mp4	0.0	262.4902560710907	
53	241.16924715042114	fix_post	2		12	51.0	2.5	/experiments/knapen_AOT/AOT_stimuli/rescaled_final/0111_rv.mp4	0.0	262.9983401298523	0.10000896453857422
54	241.26925611495972	fix_pre	0		120	52.0	2.5	/experiments/knapen_AOT/AOT_stimuli/rescaled_final/0058_fw.mp4	0.0	263.09834909439087	1.0001819133758545
54	242.26126313209534	pulse	0	t		52.0	2.5	/experiments/knapen_AOT/AOT_stimuli/rescaled_final/0058_fw.mp4	0.0	264.0903561115265	
54	242.26943802833557	movie	1		248	52.0	2.5	/experiments/knapen_AOT/AOT_stimuli/rescaled_final/0058_fw.mp4	0.0	264.0985310077667	2.508664131164551
54	243.86192297935486	pulse	1	t		52.0	2.5	/experiments/knapen_AOT/AOT_stimuli/rescaled_final/0058_fw.mp4	0.0	265.691015958786	
54	244.77810215950012	fix_post	2		12	52.0	2.5	/experiments/knapen_AOT/AOT_stimuli/rescaled_final/0058_fw.mp4	0.0	266.6071951389313	0.10004782676696777
55	244.8781499862671	fix_pre	0		120	53.0	2.5	/experiments/knapen_AOT/AOT_stimuli/rescaled_final/1883_fw.mp4	0.0	266.70724296569824	1.0001029968261719
55	245.46183609962463	pulse	0	t		53.0	2.5	/experiments/knapen_AOT/AOT_stimuli/rescaled_final/1883_fw.mp4	0.0	267.2909290790558	
55	245.87825298309326	movie	1		245	53.0	2.5	/experiments/knapen_AOT/AOT_stimuli/rescaled_final/1883_fw.mp4	0.0	267.7073459625244	2.500535011291504
55	247.05808997154236	pulse	1	t		53.0	2.5	/experiments/knapen_AOT/AOT_stimuli/rescaled_final/1883_fw.mp4	0.0	268.8871829509735	
55	248.37878799438477	fix_post	2		12	53.0	2.5	/experiments/knapen_AOT/AOT_stimuli/rescaled_final/1883_fw.mp4	0.0	270.2078809738159	0.09987998008728027
56	248.47866797447205	fix_pre	0		120	54.0	2.5	blank	1.0	270.3077609539032	1.000157117843628
56	248.6623079776764	pulse	0	t		54.0	2.5	blank	1.0	270.49140095710754	
56	249.47882509231567	movie	1		300	54.0	2.5	blank	1.0	271.3079180717468	2.500391960144043
56	250.2624261379242	pulse	1	t		54.0	2.5	blank	1.0	272.09151911735535	
56	251.8551881313324	pulse	1	t		54.0	2.5	blank	1.0	273.68428111076355	
56	251.97921705245972	fix_post	2		12	54.0	2.5	blank	1.0	273.80831003189087	0.100006103515625
57	252.07922315597534	fix_pre	0		120	55.0	2.5	/experiments/knapen_AOT/AOT_stimuli/rescaled_final/0479_rv.mp4	0.0	273.9083161354065	1.0001318454742432
57	253.07935500144958	movie	1		242	55.0	2.5	/experiments/knapen_AOT/AOT_stimuli/rescaled_final/0479_rv.mp4	0.0	274.90844798088074	2.4920570850372314
57	253.46349000930786	pulse	1	t		55.0	2.5	/experiments/knapen_AOT/AOT_stimuli/rescaled_final/0479_rv.mp4	0.0	275.292582988739	
57	255.05594110488892	pulse	1	t		55.0	2.5	/experiments/knapen_AOT/AOT_stimuli/rescaled_final/0479_rv.mp4	0.0	276.88503408432007	
57	255.57141208648682	fix_post	2		12	55.0	2.5	/experiments/knapen_AOT/AOT_stimuli/rescaled_final/0479_rv.mp4	0.0	277.40050506591797	0.09998202323913574
58	255.67139410972595	fix_pre	0		120	56.0	2.5	/experiments/knapen_AOT/AOT_stimuli/rescaled_final/2117_rv.mp4	0.0	277.5004870891571	1.0001778602600098
58	256.65595412254333	pulse	0	t		56.0	2.5	/experiments/knapen_AOT/AOT_stimuli/rescaled_final/2117_rv.mp4	0.0	278.4850471019745	
58	256.67157196998596	movie	1		247	56.0	2.5	/experiments/knapen_AOT/AOT_stimuli/rescaled_final/2117_rv.mp4	0.0	278.5006649494171	2.508674144744873
58	258.2640190124512	pulse	1	t		56.0	2.5	/experiments/knapen_AOT/AOT_stimuli/rescaled_final/2117_rv.mp4	0.0	280.0931119918823	
58	259.18024611473083	fix_post	2		12	56.0	2.5	/experiments/knapen_AOT/AOT_stimuli/rescaled_final/2117_rv.mp4	0.0	281.009339094162	0.10003805160522461
59	259.28028416633606	fix_pre	0		120	57.0	2.5	/experiments/knapen_AOT/AOT_stimuli/rescaled_final/0725_fw.mp4	0.0	281.1093771457672	1.0001258850097656
59	259.8555591106415	pulse	0	t		57.0	2.5	/experiments/knapen_AOT/AOT_stimuli/rescaled_final/0725_fw.mp4	0.0	281.68465209007263	
59	260.2804100513458	movie	1		245	57.0	2.5	/experiments/knapen_AOT/AOT_stimuli/rescaled_final/0725_fw.mp4	0.0	282.109503030777	2.500365972518921
59	261.45985317230225	pulse	1	t		57.0	2.5	/experiments/knapen_AOT/AOT_stimuli/rescaled_final/0725_fw.mp4	0.0	283.2889461517334	
59	262.78077602386475	fix_post	2		12	57.0	2.5	/experiments/knapen_AOT/AOT_stimuli/rescaled_final/0725_fw.mp4	0.0	284.6098690032959	0.1000509262084961
60	262.88082695007324	fix_pre	0		120	58.0	2.5	/experiments/knapen_AOT/AOT_stimuli/rescaled_final/0515_fw.mp4	0.0	284.7099199295044	1.0001671314239502
60	263.05612111091614	pulse	0	t		58.0	2.5	/experiments/knapen_AOT/AOT_stimuli/rescaled_final/0515_fw.mp4	0.0	284.8852140903473	
60	263.8809940814972	movie	1		243	58.0	2.5	/experiments/knapen_AOT/AOT_stimuli/rescaled_final/0515_fw.mp4	0.0	285.71008706092834	2.4919838905334473
60	264.6563160419464	pulse	1	t		58.0	2.5	/experiments/knapen_AOT/AOT_stimuli/rescaled_final/0515_fw.mp4	0.0	286.48540902137756	
60	266.25650811195374	pulse	1	t		58.0	2.5	/experiments/knapen_AOT/AOT_stimuli/rescaled_final/0515_fw.mp4	0.0	288.0856010913849	
60	266.37297797203064	fix_post	2		12	58.0	2.5	/experiments/knapen_AOT/AOT_stimuli/rescaled_final/0515_fw.mp4	0.0	288.2020709514618	0.10002398490905762
61	266.4730019569397	fix_pre	0		120	59.0	2.5	/experiments/knapen_AOT/AOT_stimuli/rescaled_final/1476_fw.mp4	0.0	288.30209493637085	1.0002110004425049
61	267.4732129573822	movie	1		244	59.0	2.5	/experiments/knapen_AOT/AOT_stimuli/rescaled_final/1476_fw.mp4	0.0	289.30230593681335	2.5003039836883545
61	267.8573169708252	pulse	1	t		59.0	2.5	/experiments/knapen_AOT/AOT_stimuli/rescaled_final/1476_fw.mp4	0.0	289.68640995025635	
61	269.45703411102295	pulse	1	t		59.0	2.5	/experiments/knapen_AOT/AOT_stimuli/rescaled_final/1476_fw.mp4	0.0	291.2861270904541	
61	269.97351694107056	fix_post	2		12	59.0	2.5	/experiments/knapen_AOT/AOT_stimuli/rescaled_final/1476_fw.mp4	0.0	291.8026099205017	0.10003805160522461
62	270.0735549926758	fix_pre	0		119	60.0	2.5	/experiments/knapen_AOT/AOT_stimuli/rescaled_final/1852_rv.mp4	0.0	291.90264797210693	0.9918160438537598
62	271.0571999549866	pulse	0	t		60.0	2.5	/experiments/knapen_AOT/AOT_stimuli/rescaled_final/1852_rv.mp4	0.0	292.8862929344177	
62	271.06537103652954	movie	1		246	60.0	2.5	/experiments/knapen_AOT/AOT_stimuli/rescaled_final/1852_rv.mp4	0.0	292.8944640159607	2.5087430477142334
62	272.6609470844269	pulse	1	t		60.0	2.5	/experiments/knapen_AOT/AOT_stimuli/rescaled_final/1852_rv.mp4	0.0	294.49004006385803	
62	273.5741140842438	fix_post	2		12	60.0	2.5	/experiments/knapen_AOT/AOT_stimuli/rescaled_final/1852_rv.mp4	0.0	295.4032070636749	0.09998202323913574
63	273.6740961074829	fix_pre	0		120	61.0	2.5	/experiments/knapen_AOT/AOT_stimuli/rescaled_final/1806_fw.mp4	0.0	295.50318908691406	1.000135898590088
63	274.2577471733093	pulse	0	t		61.0	2.5	/experiments/knapen_AOT/AOT_stimuli/rescaled_final/1806_fw.mp4	0.0	296.0868401527405	
63	274.674232006073	movie	1		244	61.0	2.5	/experiments/knapen_AOT/AOT_stimuli/rescaled_final/1806_fw.mp4	0.0	296.50332498550415	2.500386953353882
63	275.8581380844116	pulse	1	t		61.0	2.5	/experiments/knapen_AOT/AOT_stimuli/rescaled_final/1806_fw.mp4	0.0	297.6872310638428	
63	277.1746189594269	fix_post	2		12	61.0	2.5	/experiments/knapen_AOT/AOT_stimuli/rescaled_final/1806_fw.mp4	0.0	299.00371193885803	0.1000051498413086
64	277.2746241092682	fix_pre	0		120	62.0	2.5	/experiments/knapen_AOT/AOT_stimuli/rescaled_final/0320_rv.mp4	0.0	299.10371708869934	1.0001599788665771
64	277.4582099914551	pulse	0	t		62.0	2.5	/experiments/knapen_AOT/AOT_stimuli/rescaled_final/0320_rv.mp4	0.0	299.28730297088623	
64	278.27478408813477	movie	1		244	62.0	2.5	/experiments/knapen_AOT/AOT_stimuli/rescaled_final/0320_rv.mp4	0.0	300.1038770675659	2.5004119873046875
64	279.058452129364	pulse	1	t		62.0	2.5	/experiments/knapen_AOT/AOT_stimuli/rescaled_final/0320_rv.mp4	0.0	300.88754510879517	
64	280.65999698638916	pulse	1	t		62.0	2.5	/experiments/knapen_AOT/AOT_stimuli/rescaled_final/0320_rv.mp4	0.0	302.4890899658203	
64	280.77519607543945	fix_post	2		12	62.0	2.5	/experiments/knapen_AOT/AOT_stimuli/rescaled_final/0320_rv.mp4	0.0	302.6042890548706	0.09996390342712402
65	280.8751599788666	fix_pre	0		119	63.0	2.5	blank	1.0	302.70425295829773	0.9917941093444824
65	281.86695408821106	movie	1		300	63.0	2.5	blank	1.0	303.6960470676422	2.5004448890686035
65	282.25897002220154	pulse	1	t		63.0	2.5	blank	1.0	304.0880630016327	
65	283.85919404029846	pulse	1	t		63.0	2.5	blank	1.0	305.6882870197296	
65	284.36739897727966	fix_post	2		12	63.0	2.5	blank	1.0	306.1964919567108	0.09998798370361328
66	284.4673869609833	fix_pre	0		120	64.0	2.5	/experiments/knapen_AOT/AOT_stimuli/rescaled_final/0318_fw.mp4	0.0	306.29647994041443	1.0001351833343506
66	285.45940017700195	pulse	0	t		64.0	2.5	/experiments/knapen_AOT/AOT_stimuli/rescaled_final/0318_fw.mp4	0.0	307.2884931564331	
66	285.4675221443176	movie	1		245	64.0	2.5	/experiments/knapen_AOT/AOT_stimuli/rescaled_final/0318_fw.mp4	0.0	307.2966151237488	2.508798837661743
66	287.0602459907532	pulse	1	t		64.0	2.5	/experiments/knapen_AOT/AOT_stimuli/rescaled_final/0318_fw.mp4	0.0	308.8893389701843	
66	287.97632098197937	fix_post	2		12	64.0	2.5	/experiments/knapen_AOT/AOT_stimuli/rescaled_final/0318_fw.mp4	0.0	309.8054139614105	0.09995412826538086
67	288.07627511024475	fix_pre	0		120	65.0	2.5	/experiments/knapen_AOT/AOT_stimuli/rescaled_final/0070_fw.mp4	0.0	309.9053680896759	1.0000970363616943
67	288.6600651741028	pulse	0	t		65.0	2.5	/experiments/knapen_AOT/AOT_stimuli/rescaled_final/0070_fw.mp4	0.0	310.48915815353394	
67	289.07637214660645	movie	1		246	65.0	2.5	/experiments/knapen_AOT/AOT_stimuli/rescaled_final/0070_fw.mp4	0.0	310.9054651260376	2.500403881072998
67	290.260192155838	pulse	1	t		65.0	2.5	/experiments/knapen_AOT/AOT_stimuli/rescaled_final/0070_fw.mp4	0.0	312.08928513526917	
67	291.57677602767944	fix_post	2		12	65.0	2.5	/experiments/knapen_AOT/AOT_stimuli/rescaled_final/0070_fw.mp4	0.0	313.4058690071106	0.1000211238861084
68	291.67679715156555	fix_pre	0		120	66.0	2.5	/experiments/knapen_AOT/AOT_stimuli/rescaled_final/1395_rv.mp4	0.0	313.5058901309967	1.0001649856567383
68	291.8603949546814	pulse	0	t		66.0	2.5	/experiments/knapen_AOT/AOT_stimuli/rescaled_final/1395_rv.mp4	0.0	313.68948793411255	
68	292.6769621372223	movie	1		244	66.0	2.5	/experiments/knapen_AOT/AOT_stimuli/rescaled_final/1395_rv.mp4	0.0	314.50605511665344	2.5003089904785156
68	293.4605710506439	pulse	1	t		66.0	2.5	/experiments/knapen_AOT/AOT_stimuli/rescaled_final/1395_rv.mp4	0.0	315.2896640300751	
68	295.06096506118774	pulse	1	t		66.0	2.5	/experiments/knapen_AOT/AOT_stimuli/rescaled_final/1395_rv.mp4	0.0	316.8900580406189	
68	295.1772711277008	fix_post	2		12	66.0	2.5	/experiments/knapen_AOT/AOT_stimuli/rescaled_final/1395_rv.mp4	0.0	317.00636410713196	0.10004281997680664
69	295.2773139476776	fix_pre	0		119	67.0	2.5	/experiments/knapen_AOT/AOT_stimuli/rescaled_final/0601_rv.mp4	0.0	317.10640692710876	0.9918630123138428
69	296.26917695999146	movie	1		245	67.0	2.5	/experiments/knapen_AOT/AOT_stimuli/rescaled_final/0601_rv.mp4	0.0	318.0982699394226	2.5003230571746826
69	296.6611840724945	pulse	1	t		67.0	2.5	/experiments/knapen_AOT/AOT_stimuli/rescaled_final/0601_rv.mp4	0.0	318.49027705192566	
69	298.2613401412964	pulse	1	t		67.0	2.5	/experiments/knapen_AOT/AOT_stimuli/rescaled_final/0601_rv.mp4	0.0	320.09043312072754	
69	298.76950001716614	fix_post	2		12	67.0	2.5	/experiments/knapen_AOT/AOT_stimuli/rescaled_final/0601_rv.mp4	0.0	320.5985929965973	0.10005402565002441
70	298.86955404281616	fix_pre	0		120	68.0	2.5	/experiments/knapen_AOT/AOT_stimuli/rescaled_final/1091_fw.mp4	0.0	320.6986470222473	1.0001530647277832
70	299.8615200519562	pulse	0	t		68.0	2.5	/experiments/knapen_AOT/AOT_stimuli/rescaled_final/1091_fw.mp4	0.0	321.69061303138733	
70	299.86970710754395	movie	1		241	68.0	2.5	/experiments/knapen_AOT/AOT_stimuli/rescaled_final/1091_fw.mp4	0.0	321.6988000869751	2.508652925491333
70	301.4622571468353	pulse	1	t		68.0	2.5	/experiments/knapen_AOT/AOT_stimuli/rescaled_final/1091_fw.mp4	0.0	323.2913501262665	
70	302.3783600330353	fix_post	2		12	68.0	2.5	/experiments/knapen_AOT/AOT_stimuli/rescaled_final/1091_fw.mp4	0.0	324.20745301246643	0.10003995895385742
71	302.47839999198914	fix_pre	0		120	69.0	2.5	/experiments/knapen_AOT/AOT_stimuli/rescaled_final/1975_fw.mp4	0.0	324.3074929714203	1.0001170635223389
71	303.0620131492615	pulse	0	t		69.0	2.5	/experiments/knapen_AOT/AOT_stimuli/rescaled_final/1975_fw.mp4	0.0	324.8911061286926	
71	303.4785170555115	movie	1		246	69.0	2.5	/experiments/knapen_AOT/AOT_stimuli/rescaled_final/1975_fw.mp4	0.0	325.3076100349426	2.5003819465637207
71	304.66236901283264	pulse	1	t		69.0	2.5	/experiments/knapen_AOT/AOT_stimuli/rescaled_final/1975_fw.mp4	0.0	326.4914619922638	
71	305.9788990020752	fix_post	2		12	69.0	2.5	/experiments/knapen_AOT/AOT_stimuli/rescaled_final/1975_fw.mp4	0.0	327.80799198150635	0.10003209114074707
72	306.07893109321594	fix_pre	0		120	70.0	2.5	blank	1.0	327.9080240726471	1.0001800060272217
72	306.25500202178955	pulse	0	t		70.0	2.5	blank	1.0	328.0840950012207	
72	307.07911109924316	movie	1		300	70.0	2.5	blank	1.0	328.9082040786743	2.500364065170288
72	307.8552670478821	pulse	1	t		70.0	2.5	blank	1.0	329.68436002731323	
72	309.45549511909485	pulse	1	t		70.0	2.5	blank	1.0	331.284588098526	
72	309.57947516441345	fix_post	2		12	70.0	2.5	blank	1.0	331.4085681438446	0.10006880760192871
73	309.6795439720154	fix_pre	0		120	71.0	2.5	/experiments/knapen_AOT/AOT_stimuli/rescaled_final/1543_rv.mp4	0.0	331.50863695144653	1.000075101852417
73	310.6796190738678	movie	1		242	71.0	2.5	/experiments/knapen_AOT/AOT_stimuli/rescaled_final/1543_rv.mp4	0.0	332.50871205329895	2.4920289516448975
73	311.0550870895386	pulse	1	t		71.0	2.5	/experiments/knapen_AOT/AOT_stimuli/rescaled_final/1543_rv.mp4	0.0	332.8841800689697	
73	312.65535497665405	pulse	1	t		71.0	2.5	/experiments/knapen_AOT/AOT_stimuli/rescaled_final/1543_rv.mp4	0.0	334.4844479560852	
73	313.1716480255127	fix_post	2		12	71.0	2.5	/experiments/knapen_AOT/AOT_stimuli/rescaled_final/1543_rv.mp4	0.0	335.00074100494385	0.100006103515625
74	313.2716541290283	fix_pre	0		119	72.0	2.5	/experiments/knapen_AOT/AOT_stimuli/rescaled_final/0575_rv.mp4	0.0	335.1007471084595	0.9918839931488037
74	314.2553069591522	pulse	0	t		72.0	2.5	/experiments/knapen_AOT/AOT_stimuli/rescaled_final/0575_rv.mp4	0.0	336.0843999385834	
74	314.2635381221771	movie	1		245	72.0	2.5	/experiments/knapen_AOT/AOT_stimuli/rescaled_final/0575_rv.mp4	0.0	336.0926311016083	2.508746862411499
74	315.85608100891113	pulse	1	t		72.0	2.5	/experiments/knapen_AOT/AOT_stimuli/rescaled_final/0575_rv.mp4	0.0	337.6851739883423	
74	316.7722849845886	fix_post	2		12	72.0	2.5	/experiments/knapen_AOT/AOT_stimuli/rescaled_final/0575_rv.mp4	0.0	338.6013779640198	0.09991812705993652
75	316.87220311164856	fix_pre	0		120	73.0	2.5	/experiments/knapen_AOT/AOT_stimuli/rescaled_final/0725_fw.mp4	0.0	338.7012960910797	1.0001678466796875
75	317.45594096183777	pulse	0	t		73.0	2.5	/experiments/knapen_AOT/AOT_stimuli/rescaled_final/0725_fw.mp4	0.0	339.2850339412689	
75	317.87237095832825	movie	1		245	73.0	2.5	/experiments/knapen_AOT/AOT_stimuli/rescaled_final/0725_fw.mp4	0.0	339.7014639377594	2.500385046005249
75	319.05617594718933	pulse	1	t		73.0	2.5	/experiments/knapen_AOT/AOT_stimuli/rescaled_final/0725_fw.mp4	0.0	340.8852689266205	
75	320.3727560043335	fix_post	2		12	73.0	2.5	/experiments/knapen_AOT/AOT_stimuli/rescaled_final/0725_fw.mp4	0.0	342.20184898376465	0.10001015663146973
76	320.47276616096497	fix_pre	0		120	74.0	2.5	/experiments/knapen_AOT/AOT_stimuli/rescaled_final/1366_rv.mp4	0.0	342.3018591403961	1.0001189708709717
76	320.65629506111145	pulse	0	t		74.0	2.5	/experiments/knapen_AOT/AOT_stimuli/rescaled_final/1366_rv.mp4	0.0	342.4853880405426	
76	321.47288513183594	movie	1		245	74.0	2.5	/experiments/knapen_AOT/AOT_stimuli/rescaled_final/1366_rv.mp4	0.0	343.3019781112671	2.500412940979004
76	322.25651812553406	pulse	1	t		74.0	2.5	/experiments/knapen_AOT/AOT_stimuli/rescaled_final/1366_rv.mp4	0.0	344.0856111049652	
76	323.85681915283203	pulse	1	t		74.0	2.5	/experiments/knapen_AOT/AOT_stimuli/rescaled_final/1366_rv.mp4	0.0	345.6859121322632	
76	323.97329807281494	fix_post	2		12	74.0	2.5	/experiments/knapen_AOT/AOT_stimuli/rescaled_final/1366_rv.mp4	0.0	345.8023910522461	0.09997105598449707
77	324.07326912879944	fix_pre	0		119	75.0	2.5	/experiments/knapen_AOT/AOT_stimuli/rescaled_final/1544_rv.mp4	0.0	345.9023621082306	0.9918179512023926
77	325.06508708000183	movie	1		244	75.0	2.5	/experiments/knapen_AOT/AOT_stimuli/rescaled_final/1544_rv.mp4	0.0	346.894180059433	2.500437021255493
77	325.45718216896057	pulse	1	t		75.0	2.5	/experiments/knapen_AOT/AOT_stimuli/rescaled_final/1544_rv.mp4	0.0	347.2862751483917	
77	327.0574300289154	pulse	1	t		75.0	2.5	/experiments/knapen_AOT/AOT_stimuli/rescaled_final/1544_rv.mp4	0.0	348.88652300834656	
77	327.5655241012573	fix_post	2		12	75.0	2.5	/experiments/knapen_AOT/AOT_stimuli/rescaled_final/1544_rv.mp4	0.0	349.3946170806885	0.09997391700744629
78	327.66549801826477	fix_pre	0		120	76.0	2.5	/experiments/knapen_AOT/AOT_stimuli/rescaled_final/1091_rv.mp4	0.0	349.4945909976959	1.0001721382141113
78	328.6574800014496	pulse	0	t		76.0	2.5	/experiments/knapen_AOT/AOT_stimuli/rescaled_final/1091_rv.mp4	0.0	350.48657298088074	
78	328.6656701564789	movie	1		245	76.0	2.5	/experiments/knapen_AOT/AOT_stimuli/rescaled_final/1091_rv.mp4	0.0	350.49476313591003	2.5087008476257324
78	330.2584180831909	pulse	1	t		76.0	2.5	/experiments/knapen_AOT/AOT_stimuli/rescaled_final/1091_rv.mp4	0.0	352.08751106262207	
78	331.1743710041046	fix_post	2		12	76.0	2.5	/experiments/knapen_AOT/AOT_stimuli/rescaled_final/1091_rv.mp4	0.0	353.00346398353577	0.09996604919433594
79	331.27433705329895	fix_pre	0		120	77.0	2.5	blank	1.0	353.1034300327301	1.0002150535583496
79	331.85804295539856	pulse	0	t		77.0	2.5	blank	1.0	353.6871359348297	
79	332.2745521068573	movie	1		300	77.0	2.5	blank	1.0	354.10364508628845	2.50034499168396
79	333.4582691192627	pulse	1	t		77.0	2.5	blank	1.0	355.28736209869385	
79	334.77489709854126	fix_post	2		12	77.0	2.5	blank	1.0	356.6039900779724	0.09997892379760742
80	334.87487602233887	fix_pre	0		120	78.0	2.5	/experiments/knapen_AOT/AOT_stimuli/rescaled_final/0269_rv.mp4	0.0	356.70396900177	1.0001540184020996
80	335.05841302871704	pulse	0	t		78.0	2.5	/experiments/knapen_AOT/AOT_stimuli/rescaled_final/0269_rv.mp4	0.0	356.8875060081482	
80	335.87503004074097	movie	1		244	78.0	2.5	/experiments/knapen_AOT/AOT_stimuli/rescaled_final/0269_rv.mp4	0.0	357.7041230201721	2.5004780292510986
80	336.6587541103363	pulse	1	t		78.0	2.5	/experiments/knapen_AOT/AOT_stimuli/rescaled_final/0269_rv.mp4	0.0	358.48784708976746	
80	338.2564489841461	pulse	1	t		78.0	2.5	/experiments/knapen_AOT/AOT_stimuli/rescaled_final/0269_rv.mp4	0.0	360.08554196357727	
80	338.37550806999207	fix_post	2		12	78.0	2.5	/experiments/knapen_AOT/AOT_stimuli/rescaled_final/0269_rv.mp4	0.0	360.2046010494232	0.09991598129272461
81	338.4754240512848	fix_pre	0		119	79.0	2.5	/experiments/knapen_AOT/AOT_stimuli/rescaled_final/1841_fw.mp4	0.0	360.30451703071594	0.9918229579925537
81	339.46724700927734	movie	1		244	79.0	2.5	/experiments/knapen_AOT/AOT_stimuli/rescaled_final/1841_fw.mp4	0.0	361.2963399887085	2.5003280639648438
81	339.85937094688416	pulse	1	t		79.0	2.5	/experiments/knapen_AOT/AOT_stimuli/rescaled_final/1841_fw.mp4	0.0	361.6884639263153	
81	341.4594039916992	pulse	1	t		79.0	2.5	/experiments/knapen_AOT/AOT_stimuli/rescaled_final/1841_fw.mp4	0.0	363.28849697113037	
81	341.9675750732422	fix_post	2		12	79.0	2.5	/experiments/knapen_AOT/AOT_stimuli/rescaled_final/1841_fw.mp4	0.0	363.79666805267334	0.10004091262817383
82	342.06761598587036	fix_pre	0		120	80.0	2.5	/experiments/knapen_AOT/AOT_stimuli/rescaled_final/0656_fw.mp4	0.0	363.8967089653015	1.0002820491790771
82	343.0596640110016	pulse	0	t		80.0	2.5	/experiments/knapen_AOT/AOT_stimuli/rescaled_final/0656_fw.mp4	0.0	364.88875699043274	
82	343.06789803504944	movie	1		245	80.0	2.5	/experiments/knapen_AOT/AOT_stimuli/rescaled_final/0656_fw.mp4	0.0	364.8969910144806	2.5085690021514893
82	344.66034507751465	pulse	1	t		80.0	2.5	/experiments/knapen_AOT/AOT_stimuli/rescaled_final/0656_fw.mp4	0.0	366.4894380569458	
82	345.5764670372009	fix_post	2		12	80.0	2.5	/experiments/knapen_AOT/AOT_stimuli/rescaled_final/0656_fw.mp4	0.0	367.4055600166321	0.10005998611450195
83	345.67652702331543	fix_pre	0		120	81.0	2.5	/experiments/knapen_AOT/AOT_stimuli/rescaled_final/1826_rv.mp4	0.0	367.5056200027466	1.00018310546875
83	346.26028299331665	pulse	0	t		81.0	2.5	/experiments/knapen_AOT/AOT_stimuli/rescaled_final/1826_rv.mp4	0.0	368.0893759727478	
83	346.6767101287842	movie	1		245	81.0	2.5	/experiments/knapen_AOT/AOT_stimuli/rescaled_final/1826_rv.mp4	0.0	368.50580310821533	2.5002830028533936
83	347.8604919910431	pulse	1	t		81.0	2.5	/experiments/knapen_AOT/AOT_stimuli/rescaled_final/1826_rv.mp4	0.0	369.68958497047424	
83	349.1769931316376	fix_post	2		12	81.0	2.5	/experiments/knapen_AOT/AOT_stimuli/rescaled_final/1826_rv.mp4	0.0	371.0060861110687	0.10005998611450195
84	349.2770531177521	fix_pre	0		120	82.0	2.5	/experiments/knapen_AOT/AOT_stimuli/rescaled_final/1735_rv.mp4	0.0	371.1061460971832	1.0001499652862549
84	349.4606420993805	pulse	0	t		82.0	2.5	/experiments/knapen_AOT/AOT_stimuli/rescaled_final/1735_rv.mp4	0.0	371.28973507881165	
84	350.27720308303833	movie	1		244	82.0	2.5	/experiments/knapen_AOT/AOT_stimuli/rescaled_final/1735_rv.mp4	0.0	372.1062960624695	2.5003139972686768
84	351.06081104278564	pulse	1	t		82.0	2.5	/experiments/knapen_AOT/AOT_stimuli/rescaled_final/1735_rv.mp4	0.0	372.8899040222168	
84	352.6610391139984	pulse	1	t		82.0	2.5	/experiments/knapen_AOT/AOT_stimuli/rescaled_final/1735_rv.mp4	0.0	374.49013209342957	
84	352.777517080307	fix_post	2		12	82.0	2.5	/experiments/knapen_AOT/AOT_stimuli/rescaled_final/1735_rv.mp4	0.0	374.60661005973816	0.10007286071777344
85	352.8775899410248	fix_pre	0		120	83.0	2.5	blank	1.0	374.70668292045593	1.0001342296600342
85	353.8777241706848	movie	1		299	83.0	2.5	blank	1.0	375.70681715011597	2.4920578002929688
85	354.2613561153412	pulse	1	t		83.0	2.5	blank	1.0	376.09044909477234	
85	355.86148595809937	pulse	1	t		83.0	2.5	blank	1.0	377.6905789375305	
85	356.3697819709778	fix_post	2		12	83.0	2.5	blank	1.0	378.19887495040894	0.10000419616699219
87	356.4697861671448	stim	0		1716					378.2988791465759	14.302271842956543
87	357.46190905570984	pulse	0	t						379.291002035141	
87	359.06215500831604	pulse	0	t						380.8912479877472	
87	360.6622910499573	pulse	0	t						382.4913840293884	
87	362.26252007484436	pulse	0	t						384.0916130542755	
87	363.8627550601959	pulse	0	t						385.6918480396271	
87	365.4555730819702	pulse	0	t						387.28466606140137	
87	367.0558891296387	pulse	0	t						388.8849821090698	
87	368.6561131477356	pulse	0	t						390.48520612716675	
87	370.2562940120697	pulse	0	t						392.08538699150085	
