trial_nr	onset	event_type	phase	response	nr_frames	movie_index	movie_duration	movie_file	blank	onset_abs	duration
0	0.13326597213745117	stim	0		13					19.6683509349823	0.10828113555908203
0	0.23356890678405762	response	0	space						19.768653869628906	
1	0.2415471076965332	stim	0		4392					19.776632070541382	36.59987688064575
1	36.83739495277405	pulse	0	t						56.3724799156189	
1	36.841423988342285	stim	1		1717					56.376508951187134	14.308226108551025
1	38.43322396278381	pulse	1	t						57.96830892562866	
1	40.03319501876831	pulse	1	t						59.56827998161316	
1	41.63313102722168	pulse	1	t						61.16821599006653	
1	43.23318409919739	pulse	1	t						62.768269062042236	
1	44.83323311805725	pulse	1	t						64.3683180809021	
1	46.43315100669861	pulse	1	t						65.96823596954346	
1	48.033124923706055	pulse	1	t						67.5682098865509	
1	49.633174896240234	pulse	1	t						69.16825985908508	
2	51.14965009689331	fix_pre	0		11	0.0	2.5	/experiments/AOT/AOT_stimuli/rescaled_final/0414_fw.mp4	0.0	70.68473505973816	0.09166193008422852
2	51.23317289352417	pulse	0	t		0.0	2.5	/experiments/AOT/AOT_stimuli/rescaled_final/0414_fw.mp4	0.0	70.76825785636902	
2	51.24131202697754	movie	1		243	0.0	2.5	/experiments/AOT/AOT_stimuli/rescaled_final/0414_fw.mp4	0.0	70.77639698982239	2.5079119205474854
2	52.83281707763672	pulse	1	t		0.0	2.5	/experiments/AOT/AOT_stimuli/rescaled_final/0414_fw.mp4	0.0	72.36790204048157	
2	53.749223947525024	fix_post	2		12	0.0	2.5	/experiments/AOT/AOT_stimuli/rescaled_final/0414_fw.mp4	0.0	73.28430891036987	0.10042595863342285
3	53.84964990615845	fix_pre	0		120	1.0	2.5	/experiments/AOT/AOT_stimuli/rescaled_final/1780_fw.mp4	0.0	73.3847348690033	0.999967098236084
3	54.43313002586365	pulse	0	t		1.0	2.5	/experiments/AOT/AOT_stimuli/rescaled_final/1780_fw.mp4	0.0	73.9682149887085	
3	54.84961700439453	movie	1		244	1.0	2.5	/experiments/AOT/AOT_stimuli/rescaled_final/1780_fw.mp4	0.0	74.38470196723938	2.499558925628662
3	56.03322696685791	pulse	1	t		1.0	2.5	/experiments/AOT/AOT_stimuli/rescaled_final/1780_fw.mp4	0.0	75.56831192970276	
3	57.34917593002319	fix_post	2		12	1.0	2.5	/experiments/AOT/AOT_stimuli/rescaled_final/1780_fw.mp4	0.0	76.88426089286804	0.10061502456665039
4	57.449790954589844	fix_pre	0		120	2.0	2.5	/experiments/AOT/AOT_stimuli/rescaled_final/0284_rv.mp4	0.0	76.98487591743469	0.9998230934143066
4	57.63316106796265	pulse	0	t		2.0	2.5	/experiments/AOT/AOT_stimuli/rescaled_final/0284_rv.mp4	0.0	77.1682460308075	
4	58.44961404800415	movie	1		242	2.0	2.5	/experiments/AOT/AOT_stimuli/rescaled_final/0284_rv.mp4	0.0	77.984699010849	2.4995388984680176
4	59.23310589790344	pulse	1	t		2.0	2.5	/experiments/AOT/AOT_stimuli/rescaled_final/0284_rv.mp4	0.0	78.76819086074829	
4	60.83121109008789	pulse	1	t		2.0	2.5	/experiments/AOT/AOT_stimuli/rescaled_final/0284_rv.mp4	0.0	80.36629605293274	
4	60.94915294647217	fix_post	2		12	2.0	2.5	/experiments/AOT/AOT_stimuli/rescaled_final/0284_rv.mp4	0.0	80.48423790931702	0.10036516189575195
5	61.04951810836792	fix_pre	0		120	3.0	2.5	/experiments/AOT/AOT_stimuli/rescaled_final/1760_rv.mp4	0.0	80.58460307121277	1.0002198219299316
5	62.04973793029785	movie	1		244	3.0	2.5	/experiments/AOT/AOT_stimuli/rescaled_final/1760_rv.mp4	0.0	81.5848228931427	2.4999101161956787
5	62.432965993881226	pulse	1	t		3.0	2.5	/experiments/AOT/AOT_stimuli/rescaled_final/1760_rv.mp4	0.0	81.96805095672607	
5	64.03322196006775	pulse	1	t		3.0	2.5	/experiments/AOT/AOT_stimuli/rescaled_final/1760_rv.mp4	0.0	83.5683069229126	
5	64.54964804649353	fix_post	2		12	3.0	2.5	/experiments/AOT/AOT_stimuli/rescaled_final/1760_rv.mp4	0.0	84.08473300933838	0.09990692138671875
6	64.64955496788025	fix_pre	0		119	4.0	2.5	/experiments/AOT/AOT_stimuli/rescaled_final/1148_rv.mp4	0.0	84.1846399307251	0.9917449951171875
6	65.63307905197144	pulse	0	t		4.0	2.5	/experiments/AOT/AOT_stimuli/rescaled_final/1148_rv.mp4	0.0	85.16816401481628	
6	65.64129996299744	movie	1		244	4.0	2.5	/experiments/AOT/AOT_stimuli/rescaled_final/1148_rv.mp4	0.0	85.17638492584229	2.507878065109253
6	67.23267698287964	pulse	1	t		4.0	2.5	/experiments/AOT/AOT_stimuli/rescaled_final/1148_rv.mp4	0.0	86.76776194572449	
6	68.14917802810669	fix_post	2		12	4.0	2.5	/experiments/AOT/AOT_stimuli/rescaled_final/1148_rv.mp4	0.0	87.68426299095154	0.10040903091430664
7	68.249587059021	fix_pre	0		120	5.0	2.5	blank	1.0	87.78467202186584	1.0000360012054443
7	68.83321404457092	pulse	0	t		5.0	2.5	blank	1.0	88.36829900741577	
7	69.24962306022644	movie	1		300	5.0	2.5	blank	1.0	88.78470802307129	2.4998719692230225
7	70.43264102935791	pulse	1	t		5.0	2.5	blank	1.0	89.96772599220276	
7	71.74949502944946	fix_post	2		12	5.0	2.5	blank	1.0	91.28457999229431	0.0999300479888916
8	71.84942507743835	fix_pre	0		120	6.0	2.5	/experiments/AOT/AOT_stimuli/rescaled_final/1209_rv.mp4	0.0	91.3845100402832	1.0001559257507324
8	72.03293299674988	pulse	0	t		6.0	2.5	/experiments/AOT/AOT_stimuli/rescaled_final/1209_rv.mp4	0.0	91.56801795959473	
8	72.84958100318909	movie	1		245	6.0	2.5	/experiments/AOT/AOT_stimuli/rescaled_final/1209_rv.mp4	0.0	92.38466596603394	2.500005006790161
8	73.63304710388184	pulse	1	t		6.0	2.5	/experiments/AOT/AOT_stimuli/rescaled_final/1209_rv.mp4	0.0	93.16813206672668	
8	75.23165392875671	pulse	1	t		6.0	2.5	/experiments/AOT/AOT_stimuli/rescaled_final/1209_rv.mp4	0.0	94.76673889160156	
8	75.34958600997925	fix_post	2		12	6.0	2.5	/experiments/AOT/AOT_stimuli/rescaled_final/1209_rv.mp4	0.0	94.8846709728241	0.09996700286865234
9	75.4495530128479	fix_pre	0		120	7.0	2.5	/experiments/AOT/AOT_stimuli/rescaled_final/0347_fw.mp4	0.0	94.98463797569275	1.000025987625122
9	76.44957900047302	movie	1		243	7.0	2.5	/experiments/AOT/AOT_stimuli/rescaled_final/0347_fw.mp4	0.0	95.98466396331787	2.499864101409912
9	76.83297300338745	pulse	1	t		7.0	2.5	/experiments/AOT/AOT_stimuli/rescaled_final/0347_fw.mp4	0.0	96.3680579662323	
9	78.43297791481018	pulse	1	t		7.0	2.5	/experiments/AOT/AOT_stimuli/rescaled_final/0347_fw.mp4	0.0	97.96806287765503	
9	78.94944310188293	fix_post	2		12	7.0	2.5	/experiments/AOT/AOT_stimuli/rescaled_final/0347_fw.mp4	0.0	98.48452806472778	0.1000819206237793
10	79.04952502250671	fix_pre	0		119	8.0	2.5	/experiments/AOT/AOT_stimuli/rescaled_final/1447_rv.mp4	0.0	98.58460998535156	0.9916579723358154
10	80.03295612335205	pulse	0	t		8.0	2.5	/experiments/AOT/AOT_stimuli/rescaled_final/1447_rv.mp4	0.0	99.5680410861969	
10	80.04118299484253	movie	1		244	8.0	2.5	/experiments/AOT/AOT_stimuli/rescaled_final/1447_rv.mp4	0.0	99.57626795768738	2.5082828998565674
10	81.63255906105042	pulse	1	t		8.0	2.5	/experiments/AOT/AOT_stimuli/rescaled_final/1447_rv.mp4	0.0	101.16764402389526	
10	82.5494658946991	fix_post	2		12	8.0	2.5	/experiments/AOT/AOT_stimuli/rescaled_final/1447_rv.mp4	0.0	102.08455085754395	0.10002803802490234
11	82.649493932724	fix_pre	0		120	9.0	2.5	/experiments/AOT/AOT_stimuli/rescaled_final/0485_rv.mp4	0.0	102.18457889556885	0.9996330738067627
11	83.23308992385864	pulse	0	t		9.0	2.5	/experiments/AOT/AOT_stimuli/rescaled_final/0485_rv.mp4	0.0	102.76817488670349	
11	83.64912700653076	movie	1		247	9.0	2.5	/experiments/AOT/AOT_stimuli/rescaled_final/0485_rv.mp4	0.0	103.18421196937561	2.500314950942993
11	84.83312106132507	pulse	1	t		9.0	2.5	/experiments/AOT/AOT_stimuli/rescaled_final/0485_rv.mp4	0.0	104.36820602416992	
11	86.14944195747375	fix_post	2		12	9.0	2.5	/experiments/AOT/AOT_stimuli/rescaled_final/0485_rv.mp4	0.0	105.6845269203186	0.10003805160522461
12	86.24948000907898	fix_pre	0		120	10.0	2.5	/experiments/AOT/AOT_stimuli/rescaled_final/1975_rv.mp4	0.0	105.78456497192383	1.000006914138794
12	86.43299698829651	pulse	0	t		10.0	2.5	/experiments/AOT/AOT_stimuli/rescaled_final/1975_rv.mp4	0.0	105.96808195114136	
12	87.24948692321777	movie	1		246	10.0	2.5	/experiments/AOT/AOT_stimuli/rescaled_final/1975_rv.mp4	0.0	106.78457188606262	2.4996421337127686
12	88.03302907943726	pulse	1	t		10.0	2.5	/experiments/AOT/AOT_stimuli/rescaled_final/1975_rv.mp4	0.0	107.5681140422821	
12	89.62909197807312	pulse	1	t		10.0	2.5	/experiments/AOT/AOT_stimuli/rescaled_final/1975_rv.mp4	0.0	109.16417694091797	
12	89.74912905693054	fix_post	2		12	10.0	2.5	/experiments/AOT/AOT_stimuli/rescaled_final/1975_rv.mp4	0.0	109.28421401977539	0.10032105445861816
13	89.84945011138916	fix_pre	0		120	11.0	2.5	/experiments/AOT/AOT_stimuli/rescaled_final/1041_rv.mp4	0.0	109.38453507423401	0.9999988079071045
13	90.84944891929626	movie	1		245	11.0	2.5	/experiments/AOT/AOT_stimuli/rescaled_final/1041_rv.mp4	0.0	110.38453388214111	2.4999210834503174
13	91.2323830127716	pulse	1	t		11.0	2.5	/experiments/AOT/AOT_stimuli/rescaled_final/1041_rv.mp4	0.0	110.76746797561646	
13	92.83295392990112	pulse	1	t		11.0	2.5	/experiments/AOT/AOT_stimuli/rescaled_final/1041_rv.mp4	0.0	112.36803889274597	
13	93.34937000274658	fix_post	2		12	11.0	2.5	/experiments/AOT/AOT_stimuli/rescaled_final/1041_rv.mp4	0.0	112.88445496559143	0.10012602806091309
14	93.4494960308075	fix_pre	0		119	12.0	2.5	/experiments/AOT/AOT_stimuli/rescaled_final/1843_fw.mp4	0.0	112.98458099365234	0.9916789531707764
14	94.43292498588562	pulse	0	t		12.0	2.5	/experiments/AOT/AOT_stimuli/rescaled_final/1843_fw.mp4	0.0	113.96800994873047	
14	94.44117498397827	movie	1		246	12.0	2.5	/experiments/AOT/AOT_stimuli/rescaled_final/1843_fw.mp4	0.0	113.97625994682312	2.507776975631714
14	96.03246307373047	pulse	1	t		12.0	2.5	/experiments/AOT/AOT_stimuli/rescaled_final/1843_fw.mp4	0.0	115.56754803657532	
14	96.94895195960999	fix_post	2		12	12.0	2.5	/experiments/AOT/AOT_stimuli/rescaled_final/1843_fw.mp4	0.0	116.48403692245483	0.10045909881591797
15	97.0494110584259	fix_pre	0		120	13.0	2.5	/experiments/AOT/AOT_stimuli/rescaled_final/0702_fw.mp4	0.0	116.58449602127075	1.00006103515625
15	97.63298106193542	pulse	0	t		13.0	2.5	/experiments/AOT/AOT_stimuli/rescaled_final/0702_fw.mp4	0.0	117.16806602478027	
15	98.04947209358215	movie	1		242	13.0	2.5	/experiments/AOT/AOT_stimuli/rescaled_final/0702_fw.mp4	0.0	117.584557056427	2.499969005584717
15	99.23306798934937	pulse	1	t		13.0	2.5	/experiments/AOT/AOT_stimuli/rescaled_final/0702_fw.mp4	0.0	118.76815295219421	
15	100.54944109916687	fix_post	2		12	13.0	2.5	/experiments/AOT/AOT_stimuli/rescaled_final/0702_fw.mp4	0.0	120.08452606201172	0.09951901435852051
16	100.64896011352539	fix_pre	0		120	14.0	2.5	blank	1.0	120.18404507637024	1.0005218982696533
16	100.8329119682312	pulse	0	t		14.0	2.5	blank	1.0	120.36799693107605	
16	101.64948201179504	movie	1		300	14.0	2.5	blank	1.0	121.18456697463989	2.499876022338867
16	102.4329469203949	pulse	1	t		14.0	2.5	blank	1.0	121.96803188323975	
16	104.03287410736084	pulse	1	t		14.0	2.5	blank	1.0	123.56795907020569	
16	104.14935803413391	fix_post	2		12	14.0	2.5	blank	1.0	123.68444299697876	0.10004997253417969
17	104.24940800666809	fix_pre	0		120	15.0	2.5	/experiments/AOT/AOT_stimuli/rescaled_final/1148_fw.mp4	0.0	123.78449296951294	0.9999101161956787
17	105.24931812286377	movie	1		243	15.0	2.5	/experiments/AOT/AOT_stimuli/rescaled_final/1148_fw.mp4	0.0	124.78440308570862	2.500124931335449
17	105.6337480545044	pulse	1	t		15.0	2.5	/experiments/AOT/AOT_stimuli/rescaled_final/1148_fw.mp4	0.0	125.16883301734924	
17	107.23284006118774	pulse	1	t		15.0	2.5	/experiments/AOT/AOT_stimuli/rescaled_final/1148_fw.mp4	0.0	126.76792502403259	
17	107.74944305419922	fix_post	2		12	15.0	2.5	/experiments/AOT/AOT_stimuli/rescaled_final/1148_fw.mp4	0.0	127.28452801704407	0.09984397888183594
18	107.84928703308105	fix_pre	0		119	16.0	2.5	/experiments/AOT/AOT_stimuli/rescaled_final/1519_rv.mp4	0.0	127.3843719959259	0.9917540550231934
18	108.83289790153503	pulse	0	t		16.0	2.5	/experiments/AOT/AOT_stimuli/rescaled_final/1519_rv.mp4	0.0	128.36798286437988	
18	108.84104108810425	movie	1		246	16.0	2.5	/experiments/AOT/AOT_stimuli/rescaled_final/1519_rv.mp4	0.0	128.3761260509491	2.5083420276641846
18	110.43268895149231	pulse	1	t		16.0	2.5	/experiments/AOT/AOT_stimuli/rescaled_final/1519_rv.mp4	0.0	129.96777391433716	
18	111.34938311576843	fix_post	2		12	16.0	2.5	/experiments/AOT/AOT_stimuli/rescaled_final/1519_rv.mp4	0.0	130.88446807861328	0.0999147891998291
19	111.44929790496826	fix_pre	0		120	17.0	2.5	/experiments/AOT/AOT_stimuli/rescaled_final/0330_rv.mp4	0.0	130.9843828678131	1.0000860691070557
19	112.03290891647339	pulse	0	t		17.0	2.5	/experiments/AOT/AOT_stimuli/rescaled_final/0330_rv.mp4	0.0	131.56799387931824	
19	112.44938397407532	movie	1		245	17.0	2.5	/experiments/AOT/AOT_stimuli/rescaled_final/0330_rv.mp4	0.0	131.98446893692017	2.499969959259033
19	113.63295698165894	pulse	1	t		17.0	2.5	/experiments/AOT/AOT_stimuli/rescaled_final/0330_rv.mp4	0.0	133.16804194450378	
19	114.94935393333435	fix_post	2		12	17.0	2.5	/experiments/AOT/AOT_stimuli/rescaled_final/0330_rv.mp4	0.0	134.4844388961792	0.10002803802490234
20	115.04938197135925	fix_pre	0		120	18.0	2.5	/experiments/AOT/AOT_stimuli/rescaled_final/0951_fw.mp4	0.0	134.5844669342041	0.9999749660491943
20	115.23284006118774	pulse	0	t		18.0	2.5	/experiments/AOT/AOT_stimuli/rescaled_final/0951_fw.mp4	0.0	134.7679250240326	
20	116.04935693740845	movie	1		246	18.0	2.5	/experiments/AOT/AOT_stimuli/rescaled_final/0951_fw.mp4	0.0	135.5844419002533	2.500040054321289
20	116.83301591873169	pulse	1	t		18.0	2.5	/experiments/AOT/AOT_stimuli/rescaled_final/0951_fw.mp4	0.0	136.36810088157654	
20	118.42892503738403	pulse	1	t		18.0	2.5	/experiments/AOT/AOT_stimuli/rescaled_final/0951_fw.mp4	0.0	137.96401000022888	
20	118.54939699172974	fix_post	2		12	18.0	2.5	/experiments/AOT/AOT_stimuli/rescaled_final/0951_fw.mp4	0.0	138.08448195457458	0.10000991821289062
21	118.64940690994263	fix_pre	0		120	19.0	2.5	/experiments/AOT/AOT_stimuli/rescaled_final/1380_fw.mp4	0.0	138.18449187278748	0.9999990463256836
21	119.64940595626831	movie	1		244	19.0	2.5	/experiments/AOT/AOT_stimuli/rescaled_final/1380_fw.mp4	0.0	139.18449091911316	2.4998421669006348
21	120.03410506248474	pulse	1	t		19.0	2.5	/experiments/AOT/AOT_stimuli/rescaled_final/1380_fw.mp4	0.0	139.5691900253296	
21	121.63286209106445	pulse	1	t		19.0	2.5	/experiments/AOT/AOT_stimuli/rescaled_final/1380_fw.mp4	0.0	141.1679470539093	
21	122.14924812316895	fix_post	2		12	19.0	2.5	/experiments/AOT/AOT_stimuli/rescaled_final/1380_fw.mp4	0.0	141.6843330860138	0.10009598731994629
22	122.24934411048889	fix_pre	0		119	20.0	2.5	/experiments/AOT/AOT_stimuli/rescaled_final/0143_rv.mp4	0.0	141.78442907333374	0.9916989803314209
22	123.23287606239319	pulse	0	t		20.0	2.5	/experiments/AOT/AOT_stimuli/rescaled_final/0143_rv.mp4	0.0	142.76796102523804	
22	123.24104309082031	movie	1		247	20.0	2.5	/experiments/AOT/AOT_stimuli/rescaled_final/0143_rv.mp4	0.0	142.77612805366516	2.5079548358917236
22	124.83191108703613	pulse	1	t		20.0	2.5	/experiments/AOT/AOT_stimuli/rescaled_final/0143_rv.mp4	0.0	144.36699604988098	
22	125.74899792671204	fix_post	2		12	20.0	2.5	/experiments/AOT/AOT_stimuli/rescaled_final/0143_rv.mp4	0.0	145.28408288955688	0.09993910789489746
23	125.84893703460693	fix_pre	0		120	21.0	2.5	blank	1.0	145.38402199745178	1.0001580715179443
23	126.43293690681458	pulse	0	t		21.0	2.5	blank	1.0	145.96802186965942	
23	126.84909510612488	movie	1		300	21.0	2.5	blank	1.0	146.38418006896973	2.5002048015594482
23	128.0327570438385	pulse	1	t		21.0	2.5	blank	1.0	147.56784200668335	
23	129.34929990768433	fix_post	2		12	21.0	2.5	blank	1.0	148.88438487052917	0.09999918937683105
24	129.44929909706116	fix_pre	0		120	22.0	2.5	/experiments/AOT/AOT_stimuli/rescaled_final/0813_fw.mp4	0.0	148.984384059906	1.0000228881835938
24	129.63291311264038	pulse	0	t		22.0	2.5	/experiments/AOT/AOT_stimuli/rescaled_final/0813_fw.mp4	0.0	149.16799807548523	
24	130.44932198524475	movie	1		244	22.0	2.5	/experiments/AOT/AOT_stimuli/rescaled_final/0813_fw.mp4	0.0	149.9844069480896	2.499908924102783
24	131.23270106315613	pulse	1	t		22.0	2.5	/experiments/AOT/AOT_stimuli/rescaled_final/0813_fw.mp4	0.0	150.76778602600098	
24	132.83126592636108	pulse	1	t		22.0	2.5	/experiments/AOT/AOT_stimuli/rescaled_final/0813_fw.mp4	0.0	152.36635088920593	
24	132.94923090934753	fix_post	2		12	22.0	2.5	/experiments/AOT/AOT_stimuli/rescaled_final/0813_fw.mp4	0.0	152.48431587219238	0.10000419616699219
25	133.04923510551453	fix_pre	0		120	23.0	2.5	/experiments/AOT/AOT_stimuli/rescaled_final/0683_rv.mp4	0.0	152.58432006835938	0.9995448589324951
25	134.04877996444702	movie	1		244	23.0	2.5	/experiments/AOT/AOT_stimuli/rescaled_final/0683_rv.mp4	0.0	153.58386492729187	2.500434160232544
25	134.43234395980835	pulse	1	t		23.0	2.5	/experiments/AOT/AOT_stimuli/rescaled_final/0683_rv.mp4	0.0	153.9674289226532	
25	136.03270411491394	pulse	1	t		23.0	2.5	/experiments/AOT/AOT_stimuli/rescaled_final/0683_rv.mp4	0.0	155.5677890777588	
25	136.54921412467957	fix_post	2		12	23.0	2.5	/experiments/AOT/AOT_stimuli/rescaled_final/0683_rv.mp4	0.0	156.0842990875244	0.09998393058776855
26	136.64919805526733	fix_pre	0		119	24.0	2.5	/experiments/AOT/AOT_stimuli/rescaled_final/0641_fw.mp4	0.0	156.18428301811218	0.9916720390319824
26	137.6328089237213	pulse	0	t		24.0	2.5	/experiments/AOT/AOT_stimuli/rescaled_final/0641_fw.mp4	0.0	157.16789388656616	
26	137.64087009429932	movie	1		245	24.0	2.5	/experiments/AOT/AOT_stimuli/rescaled_final/0641_fw.mp4	0.0	157.17595505714417	2.507917881011963
26	139.2321538925171	pulse	1	t		24.0	2.5	/experiments/AOT/AOT_stimuli/rescaled_final/0641_fw.mp4	0.0	158.76723885536194	
26	140.14878797531128	fix_post	2		12	24.0	2.5	/experiments/AOT/AOT_stimuli/rescaled_final/0641_fw.mp4	0.0	159.68387293815613	0.10042095184326172
27	140.24920892715454	fix_pre	0		120	25.0	2.5	/experiments/AOT/AOT_stimuli/rescaled_final/1077_fw.mp4	0.0	159.7842938899994	0.9999470710754395
27	140.8327341079712	pulse	0	t		25.0	2.5	/experiments/AOT/AOT_stimuli/rescaled_final/1077_fw.mp4	0.0	160.36781907081604	
27	141.24915599822998	movie	1		242	25.0	2.5	/experiments/AOT/AOT_stimuli/rescaled_final/1077_fw.mp4	0.0	160.78424096107483	2.49960994720459
27	142.43272709846497	pulse	1	t		25.0	2.5	/experiments/AOT/AOT_stimuli/rescaled_final/1077_fw.mp4	0.0	161.96781206130981	
27	143.74876594543457	fix_post	2		12	25.0	2.5	/experiments/AOT/AOT_stimuli/rescaled_final/1077_fw.mp4	0.0	163.28385090827942	0.1000220775604248
28	143.848788022995	fix_pre	0		120	26.0	2.5	blank	1.0	163.38387298583984	1.000396966934204
28	144.03268790245056	pulse	0	t		26.0	2.5	blank	1.0	163.5677728652954	
28	144.8491849899292	movie	1		300	26.0	2.5	blank	1.0	164.38426995277405	2.4999499320983887
28	145.63273811340332	pulse	1	t		26.0	2.5	blank	1.0	165.16782307624817	
28	147.23268699645996	pulse	1	t		26.0	2.5	blank	1.0	166.7677719593048	
28	147.3491349220276	fix_post	2		12	26.0	2.5	blank	1.0	166.88421988487244	0.10003209114074707
29	147.44916701316833	fix_pre	0		120	27.0	2.5	/experiments/AOT/AOT_stimuli/rescaled_final/1134_rv.mp4	0.0	166.98425197601318	0.9999680519104004
29	148.44913506507874	movie	1		245	27.0	2.5	/experiments/AOT/AOT_stimuli/rescaled_final/1134_rv.mp4	0.0	167.98422002792358	2.499701976776123
29	148.83391189575195	pulse	1	t		27.0	2.5	/experiments/AOT/AOT_stimuli/rescaled_final/1134_rv.mp4	0.0	168.3689968585968	
29	150.43269395828247	pulse	1	t		27.0	2.5	/experiments/AOT/AOT_stimuli/rescaled_final/1134_rv.mp4	0.0	169.96777892112732	
29	150.94883704185486	fix_post	2		12	27.0	2.5	/experiments/AOT/AOT_stimuli/rescaled_final/1134_rv.mp4	0.0	170.4839220046997	0.10030508041381836
30	151.04914212226868	fix_pre	0		119	28.0	2.5	/experiments/AOT/AOT_stimuli/rescaled_final/1034_fw.mp4	0.0	170.58422708511353	0.9916830062866211
30	152.03271508216858	pulse	0	t		28.0	2.5	/experiments/AOT/AOT_stimuli/rescaled_final/1034_fw.mp4	0.0	171.56780004501343	
30	152.0408251285553	movie	1		247	28.0	2.5	/experiments/AOT/AOT_stimuli/rescaled_final/1034_fw.mp4	0.0	171.57591009140015	2.508340835571289
30	153.63212394714355	pulse	1	t		28.0	2.5	/experiments/AOT/AOT_stimuli/rescaled_final/1034_fw.mp4	0.0	173.1672089099884	
30	154.5491659641266	fix_post	2		12	28.0	2.5	/experiments/AOT/AOT_stimuli/rescaled_final/1034_fw.mp4	0.0	174.08425092697144	0.09961605072021484
31	154.6487820148468	fix_pre	0		120	29.0	2.5	/experiments/AOT/AOT_stimuli/rescaled_final/0938_rv.mp4	0.0	174.18386697769165	1.000420093536377
31	155.2325758934021	pulse	0	t		29.0	2.5	/experiments/AOT/AOT_stimuli/rescaled_final/0938_rv.mp4	0.0	174.76766085624695	
31	155.64920210838318	movie	1		243	29.0	2.5	/experiments/AOT/AOT_stimuli/rescaled_final/0938_rv.mp4	0.0	175.18428707122803	2.499908924102783
31	156.8327169418335	pulse	1	t		29.0	2.5	/experiments/AOT/AOT_stimuli/rescaled_final/0938_rv.mp4	0.0	176.36780190467834	
31	158.14911103248596	fix_post	2		12	29.0	2.5	/experiments/AOT/AOT_stimuli/rescaled_final/0938_rv.mp4	0.0	177.6841959953308	0.10002803802490234
32	158.24913907051086	fix_pre	0		120	30.0	2.5	/experiments/AOT/AOT_stimuli/rescaled_final/0583_rv.mp4	0.0	177.7842240333557	0.9999129772186279
32	158.43266201019287	pulse	0	t		30.0	2.5	/experiments/AOT/AOT_stimuli/rescaled_final/0583_rv.mp4	0.0	177.96774697303772	
32	159.2490520477295	movie	1		244	30.0	2.5	/experiments/AOT/AOT_stimuli/rescaled_final/0583_rv.mp4	0.0	178.78413701057434	2.499682903289795
32	160.03272104263306	pulse	1	t		30.0	2.5	/experiments/AOT/AOT_stimuli/rescaled_final/0583_rv.mp4	0.0	179.5678060054779	
32	161.63091897964478	pulse	1	t		30.0	2.5	/experiments/AOT/AOT_stimuli/rescaled_final/0583_rv.mp4	0.0	181.16600394248962	
32	161.7487349510193	fix_post	2		12	30.0	2.5	/experiments/AOT/AOT_stimuli/rescaled_final/0583_rv.mp4	0.0	181.28381991386414	0.10036206245422363
33	161.8490970134735	fix_pre	0		120	31.0	2.5	/experiments/AOT/AOT_stimuli/rescaled_final/0960_fw.mp4	0.0	181.38418197631836	1.000046968460083
33	162.8491439819336	movie	1		243	31.0	2.5	/experiments/AOT/AOT_stimuli/rescaled_final/0960_fw.mp4	0.0	182.38422894477844	2.4999630451202393
33	163.2322781085968	pulse	1	t		31.0	2.5	/experiments/AOT/AOT_stimuli/rescaled_final/0960_fw.mp4	0.0	182.76736307144165	
33	164.83281898498535	pulse	1	t		31.0	2.5	/experiments/AOT/AOT_stimuli/rescaled_final/0960_fw.mp4	0.0	184.3679039478302	
33	165.34910702705383	fix_post	2		12	31.0	2.5	/experiments/AOT/AOT_stimuli/rescaled_final/0960_fw.mp4	0.0	184.88419198989868	0.09998703002929688
34	165.44909405708313	fix_pre	0		119	32.0	2.5	/experiments/AOT/AOT_stimuli/rescaled_final/0938_fw.mp4	0.0	184.98417901992798	0.9916648864746094
34	166.43253207206726	pulse	0	t		32.0	2.5	/experiments/AOT/AOT_stimuli/rescaled_final/0938_fw.mp4	0.0	185.9676170349121	
34	166.44075894355774	movie	1		244	32.0	2.5	/experiments/AOT/AOT_stimuli/rescaled_final/0938_fw.mp4	0.0	185.9758439064026	2.507967948913574
34	168.03269791603088	pulse	1	t		32.0	2.5	/experiments/AOT/AOT_stimuli/rescaled_final/0938_fw.mp4	0.0	187.56778287887573	
34	168.9487268924713	fix_post	2		12	32.0	2.5	/experiments/AOT/AOT_stimuli/rescaled_final/0938_fw.mp4	0.0	188.48381185531616	0.10036110877990723
35	169.04908800125122	fix_pre	0		120	33.0	2.5	blank	1.0	188.58417296409607	1.0000100135803223
35	169.63255500793457	pulse	0	t		33.0	2.5	blank	1.0	189.16763997077942	
35	170.04909801483154	movie	1		300	33.0	2.5	blank	1.0	189.5841829776764	2.5001180171966553
35	171.23258590698242	pulse	1	t		33.0	2.5	blank	1.0	190.76767086982727	
35	172.5492160320282	fix_post	2		12	33.0	2.5	blank	1.0	192.08430099487305	0.09978389739990234
36	172.6489999294281	fix_pre	0		120	34.0	2.5	/experiments/AOT/AOT_stimuli/rescaled_final/0694_rv.mp4	0.0	192.18408489227295	1.000157117843628
36	172.83259105682373	pulse	0	t		34.0	2.5	/experiments/AOT/AOT_stimuli/rescaled_final/0694_rv.mp4	0.0	192.36767601966858	
36	173.64915704727173	movie	1		243	34.0	2.5	/experiments/AOT/AOT_stimuli/rescaled_final/0694_rv.mp4	0.0	193.18424201011658	2.499674081802368
36	174.4325909614563	pulse	1	t		34.0	2.5	/experiments/AOT/AOT_stimuli/rescaled_final/0694_rv.mp4	0.0	193.96767592430115	
36	176.03088402748108	pulse	1	t		34.0	2.5	/experiments/AOT/AOT_stimuli/rescaled_final/0694_rv.mp4	0.0	195.56596899032593	
36	176.1488311290741	fix_post	2		12	34.0	2.5	/experiments/AOT/AOT_stimuli/rescaled_final/0694_rv.mp4	0.0	195.68391609191895	0.10024189949035645
37	176.24907302856445	fix_pre	0		120	35.0	2.5	/experiments/AOT/AOT_stimuli/rescaled_final/1718_fw.mp4	0.0	195.7841579914093	1.0000529289245605
37	177.249125957489	movie	1		243	35.0	2.5	/experiments/AOT/AOT_stimuli/rescaled_final/1718_fw.mp4	0.0	196.78421092033386	2.4995360374450684
37	177.63217997550964	pulse	1	t		35.0	2.5	/experiments/AOT/AOT_stimuli/rescaled_final/1718_fw.mp4	0.0	197.1672649383545	
37	179.23253107070923	pulse	1	t		35.0	2.5	/experiments/AOT/AOT_stimuli/rescaled_final/1718_fw.mp4	0.0	198.76761603355408	
37	179.74866199493408	fix_post	2		12	35.0	2.5	/experiments/AOT/AOT_stimuli/rescaled_final/1718_fw.mp4	0.0	199.28374695777893	0.10046601295471191
38	179.8491280078888	fix_pre	0		119	36.0	2.5	/experiments/AOT/AOT_stimuli/rescaled_final/1582_fw.mp4	0.0	199.38421297073364	0.9911890029907227
38	180.832288980484	pulse	0	t		36.0	2.5	/experiments/AOT/AOT_stimuli/rescaled_final/1582_fw.mp4	0.0	200.36737394332886	
38	180.84031701087952	movie	1		245	36.0	2.5	/experiments/AOT/AOT_stimuli/rescaled_final/1582_fw.mp4	0.0	200.37540197372437	2.508591890335083
38	182.43221712112427	pulse	1	t		36.0	2.5	/experiments/AOT/AOT_stimuli/rescaled_final/1582_fw.mp4	0.0	201.96730208396912	
38	183.3489089012146	fix_post	2		12	36.0	2.5	/experiments/AOT/AOT_stimuli/rescaled_final/1582_fw.mp4	0.0	202.88399386405945	0.09996509552001953
39	183.44887399673462	fix_pre	0		120	37.0	2.5	/experiments/AOT/AOT_stimuli/rescaled_final/0208_fw.mp4	0.0	202.98395895957947	0.9996941089630127
39	184.03246092796326	pulse	0	t		37.0	2.5	/experiments/AOT/AOT_stimuli/rescaled_final/0208_fw.mp4	0.0	203.5675458908081	
39	184.44856810569763	movie	1		246	37.0	2.5	/experiments/AOT/AOT_stimuli/rescaled_final/0208_fw.mp4	0.0	203.98365306854248	2.5000150203704834
39	185.6325740814209	pulse	1	t		37.0	2.5	/experiments/AOT/AOT_stimuli/rescaled_final/0208_fw.mp4	0.0	205.16765904426575	
39	186.94858312606812	fix_post	2		12	37.0	2.5	/experiments/AOT/AOT_stimuli/rescaled_final/0208_fw.mp4	0.0	206.48366808891296	0.10040283203125
40	187.04898595809937	fix_pre	0		120	38.0	2.5	/experiments/AOT/AOT_stimuli/rescaled_final/1115_fw.mp4	0.0	206.5840709209442	1.0000100135803223
40	187.23245310783386	pulse	0	t		38.0	2.5	/experiments/AOT/AOT_stimuli/rescaled_final/1115_fw.mp4	0.0	206.7675380706787	
40	188.0489959716797	movie	1		244	38.0	2.5	/experiments/AOT/AOT_stimuli/rescaled_final/1115_fw.mp4	0.0	207.58408093452454	2.500030994415283
40	188.83240795135498	pulse	1	t		38.0	2.5	/experiments/AOT/AOT_stimuli/rescaled_final/1115_fw.mp4	0.0	208.36749291419983	
40	190.430645942688	pulse	1	t		38.0	2.5	/experiments/AOT/AOT_stimuli/rescaled_final/1115_fw.mp4	0.0	209.96573090553284	
40	190.54902696609497	fix_post	2		12	38.0	2.5	/experiments/AOT/AOT_stimuli/rescaled_final/1115_fw.mp4	0.0	210.08411192893982	0.10002493858337402
41	190.64905190467834	fix_pre	0		120	39.0	2.5	/experiments/AOT/AOT_stimuli/rescaled_final/2159_rv.mp4	0.0	210.1841368675232	0.999934196472168
41	191.6489861011505	movie	1		243	39.0	2.5	/experiments/AOT/AOT_stimuli/rescaled_final/2159_rv.mp4	0.0	211.18407106399536	2.499574899673462
41	192.03276705741882	pulse	1	t		39.0	2.5	/experiments/AOT/AOT_stimuli/rescaled_final/2159_rv.mp4	0.0	211.56785202026367	
41	193.63241004943848	pulse	1	t		39.0	2.5	/experiments/AOT/AOT_stimuli/rescaled_final/2159_rv.mp4	0.0	213.16749501228333	
41	194.14856100082397	fix_post	2		12	39.0	2.5	/experiments/AOT/AOT_stimuli/rescaled_final/2159_rv.mp4	0.0	213.68364596366882	0.10033011436462402
42	194.2488911151886	fix_pre	0		119	40.0	2.5	blank	1.0	213.78397607803345	0.991703987121582
42	195.2325201034546	pulse	0	t		40.0	2.5	blank	1.0	214.76760506629944	
42	195.24059510231018	movie	1		301	40.0	2.5	blank	1.0	214.77568006515503	2.508380889892578
42	196.8324110507965	pulse	1	t		40.0	2.5	blank	1.0	216.36749601364136	
42	197.74897599220276	fix_post	2		12	40.0	2.5	blank	1.0	217.2840609550476	0.10000991821289062
43	197.84898591041565	fix_pre	0		120	41.0	2.5	/experiments/AOT/AOT_stimuli/rescaled_final/0593_fw.mp4	0.0	217.3840708732605	0.9999442100524902
43	198.4324541091919	pulse	0	t		41.0	2.5	/experiments/AOT/AOT_stimuli/rescaled_final/0593_fw.mp4	0.0	217.96753907203674	
43	198.84893012046814	movie	1		245	41.0	2.5	/experiments/AOT/AOT_stimuli/rescaled_final/0593_fw.mp4	0.0	218.384015083313	2.499612808227539
43	200.0324900150299	pulse	1	t		41.0	2.5	/experiments/AOT/AOT_stimuli/rescaled_final/0593_fw.mp4	0.0	219.56757497787476	
43	201.34854292869568	fix_post	2		12	41.0	2.5	/experiments/AOT/AOT_stimuli/rescaled_final/0593_fw.mp4	0.0	220.88362789154053	0.10038113594055176
44	201.44892406463623	fix_pre	0		120	42.0	2.5	/experiments/AOT/AOT_stimuli/rescaled_final/0174_rv.mp4	0.0	220.98400902748108	0.9999909400939941
44	201.63245701789856	pulse	0	t		42.0	2.5	/experiments/AOT/AOT_stimuli/rescaled_final/0174_rv.mp4	0.0	221.1675419807434	
44	202.44891500473022	movie	1		245	42.0	2.5	/experiments/AOT/AOT_stimuli/rescaled_final/0174_rv.mp4	0.0	221.98399996757507	2.5000550746917725
44	203.23237800598145	pulse	1	t		42.0	2.5	/experiments/AOT/AOT_stimuli/rescaled_final/0174_rv.mp4	0.0	222.7674629688263	
44	204.8310260772705	pulse	1	t		42.0	2.5	/experiments/AOT/AOT_stimuli/rescaled_final/0174_rv.mp4	0.0	224.36611104011536	
44	204.948970079422	fix_post	2		12	42.0	2.5	/experiments/AOT/AOT_stimuli/rescaled_final/0174_rv.mp4	0.0	224.48405504226685	0.1000058650970459
45	205.04897594451904	fix_pre	0		120	43.0	2.5	/experiments/AOT/AOT_stimuli/rescaled_final/1672_rv.mp4	0.0	224.5840609073639	0.999946117401123
45	206.04892206192017	movie	1		244	43.0	2.5	/experiments/AOT/AOT_stimuli/rescaled_final/1672_rv.mp4	0.0	225.58400702476501	2.499570846557617
45	206.4321141242981	pulse	1	t		43.0	2.5	/experiments/AOT/AOT_stimuli/rescaled_final/1672_rv.mp4	0.0	225.96719908714294	
45	208.0323929786682	pulse	1	t		43.0	2.5	/experiments/AOT/AOT_stimuli/rescaled_final/1672_rv.mp4	0.0	227.56747794151306	
45	208.54849290847778	fix_post	2		12	43.0	2.5	/experiments/AOT/AOT_stimuli/rescaled_final/1672_rv.mp4	0.0	228.08357787132263	0.10041999816894531
46	208.64891290664673	fix_pre	0		119	44.0	2.5	/experiments/AOT/AOT_stimuli/rescaled_final/0681_rv.mp4	0.0	228.18399786949158	0.9916291236877441
46	209.63246893882751	pulse	0	t		44.0	2.5	/experiments/AOT/AOT_stimuli/rescaled_final/0681_rv.mp4	0.0	229.16755390167236	
46	209.64054203033447	movie	1		244	44.0	2.5	/experiments/AOT/AOT_stimuli/rescaled_final/0681_rv.mp4	0.0	229.17562699317932	2.5082740783691406
46	211.23353695869446	pulse	1	t		44.0	2.5	/experiments/AOT/AOT_stimuli/rescaled_final/0681_rv.mp4	0.0	230.7686219215393	
46	212.1488161087036	fix_post	2		12	44.0	2.5	/experiments/AOT/AOT_stimuli/rescaled_final/0681_rv.mp4	0.0	231.68390107154846	0.1000819206237793
47	212.2488980293274	fix_pre	0		120	45.0	2.5	/experiments/AOT/AOT_stimuli/rescaled_final/0590_fw.mp4	0.0	231.78398299217224	0.9999139308929443
47	212.83241605758667	pulse	0	t		45.0	2.5	/experiments/AOT/AOT_stimuli/rescaled_final/0590_fw.mp4	0.0	232.36750102043152	
47	213.24881196022034	movie	1		244	45.0	2.5	/experiments/AOT/AOT_stimuli/rescaled_final/0590_fw.mp4	0.0	232.78389692306519	2.4996399879455566
47	214.4324119091034	pulse	1	t		45.0	2.5	/experiments/AOT/AOT_stimuli/rescaled_final/0590_fw.mp4	0.0	233.96749687194824	
47	215.7484519481659	fix_post	2		12	45.0	2.5	/experiments/AOT/AOT_stimuli/rescaled_final/0590_fw.mp4	0.0	235.28353691101074	0.1004941463470459
48	215.84894609451294	fix_pre	0		120	46.0	2.5	/experiments/AOT/AOT_stimuli/rescaled_final/1335_rv.mp4	0.0	235.3840310573578	0.9999728202819824
48	216.03237009048462	pulse	0	t		46.0	2.5	/experiments/AOT/AOT_stimuli/rescaled_final/1335_rv.mp4	0.0	235.56745505332947	
48	216.84891891479492	movie	1		243	46.0	2.5	/experiments/AOT/AOT_stimuli/rescaled_final/1335_rv.mp4	0.0	236.38400387763977	2.499519109725952
48	217.6322910785675	pulse	1	t		46.0	2.5	/experiments/AOT/AOT_stimuli/rescaled_final/1335_rv.mp4	0.0	237.16737604141235	
48	219.23091197013855	pulse	1	t		46.0	2.5	/experiments/AOT/AOT_stimuli/rescaled_final/1335_rv.mp4	0.0	238.7659969329834	
48	219.34843802452087	fix_post	2		12	46.0	2.5	/experiments/AOT/AOT_stimuli/rescaled_final/1335_rv.mp4	0.0	238.88352298736572	0.10040593147277832
49	219.44884395599365	fix_pre	0		120	47.0	2.5	/experiments/AOT/AOT_stimuli/rescaled_final/2107_fw.mp4	0.0	238.9839289188385	0.9999580383300781
49	220.44880199432373	movie	1		247	47.0	2.5	/experiments/AOT/AOT_stimuli/rescaled_final/2107_fw.mp4	0.0	239.98388695716858	2.499962091445923
49	220.8329780101776	pulse	1	t		47.0	2.5	/experiments/AOT/AOT_stimuli/rescaled_final/2107_fw.mp4	0.0	240.36806297302246	
49	222.4324369430542	pulse	1	t		47.0	2.5	/experiments/AOT/AOT_stimuli/rescaled_final/2107_fw.mp4	0.0	241.96752190589905	
49	222.94876408576965	fix_post	2		12	47.0	2.5	/experiments/AOT/AOT_stimuli/rescaled_final/2107_fw.mp4	0.0	242.4838490486145	0.09966087341308594
50	223.04842495918274	fix_pre	0		119	48.0	2.5	blank	1.0	242.5835099220276	0.9920229911804199
50	224.03237795829773	pulse	0	t		48.0	2.5	blank	1.0	243.56746292114258	
50	224.04044795036316	movie	1		301	48.0	2.5	blank	1.0	243.575532913208	2.5084011554718018
50	225.6324028968811	pulse	1	t		48.0	2.5	blank	1.0	245.16748785972595	
50	226.54884910583496	fix_post	2		12	48.0	2.5	blank	1.0	246.0839340686798	0.09952878952026367
51	226.64837789535522	fix_pre	0		120	49.0	2.5	/experiments/AOT/AOT_stimuli/rescaled_final/1269_fw.mp4	0.0	246.18346285820007	1.000399112701416
51	227.23231196403503	pulse	0	t		49.0	2.5	/experiments/AOT/AOT_stimuli/rescaled_final/1269_fw.mp4	0.0	246.76739692687988	
51	227.64877700805664	movie	1		244	49.0	2.5	/experiments/AOT/AOT_stimuli/rescaled_final/1269_fw.mp4	0.0	247.1838619709015	2.500101089477539
51	228.83235812187195	pulse	1	t		49.0	2.5	/experiments/AOT/AOT_stimuli/rescaled_final/1269_fw.mp4	0.0	248.3674430847168	
51	230.14887809753418	fix_post	2		12	49.0	2.5	/experiments/AOT/AOT_stimuli/rescaled_final/1269_fw.mp4	0.0	249.68396306037903	0.09951090812683105
52	230.248389005661	fix_pre	0		120	50.0	2.5	/experiments/AOT/AOT_stimuli/rescaled_final/0385_rv.mp4	0.0	249.78347396850586	1.000396966934204
52	230.43235802650452	pulse	0	t		50.0	2.5	/experiments/AOT/AOT_stimuli/rescaled_final/0385_rv.mp4	0.0	249.96744298934937	
52	231.24878597259521	movie	1		243	50.0	2.5	/experiments/AOT/AOT_stimuli/rescaled_final/0385_rv.mp4	0.0	250.78387093544006	2.4999661445617676
52	232.0322871208191	pulse	1	t		50.0	2.5	/experiments/AOT/AOT_stimuli/rescaled_final/0385_rv.mp4	0.0	251.56737208366394	
52	233.6309790611267	pulse	1	t		50.0	2.5	/experiments/AOT/AOT_stimuli/rescaled_final/0385_rv.mp4	0.0	253.16606402397156	
52	233.74875211715698	fix_post	2		12	50.0	2.5	/experiments/AOT/AOT_stimuli/rescaled_final/0385_rv.mp4	0.0	253.28383708000183	0.10008883476257324
53	233.84884095191956	fix_pre	0		120	51.0	2.5	/experiments/AOT/AOT_stimuli/rescaled_final/1592_fw.mp4	0.0	253.3839259147644	1.0000779628753662
53	234.84891891479492	movie	1		246	51.0	2.5	/experiments/AOT/AOT_stimuli/rescaled_final/1592_fw.mp4	0.0	254.38400387763977	2.499580144882202
53	235.231791973114	pulse	1	t		51.0	2.5	/experiments/AOT/AOT_stimuli/rescaled_final/1592_fw.mp4	0.0	254.76687693595886	
53	236.83227109909058	pulse	1	t		51.0	2.5	/experiments/AOT/AOT_stimuli/rescaled_final/1592_fw.mp4	0.0	256.3673560619354	
53	237.34849905967712	fix_post	2		12	51.0	2.5	/experiments/AOT/AOT_stimuli/rescaled_final/1592_fw.mp4	0.0	256.883584022522	0.10025787353515625
54	237.44875693321228	fix_pre	0		119	52.0	2.5	/experiments/AOT/AOT_stimuli/rescaled_final/0593_rv.mp4	0.0	256.98384189605713	0.9914290904998779
54	238.43207812309265	pulse	0	t		52.0	2.5	/experiments/AOT/AOT_stimuli/rescaled_final/0593_rv.mp4	0.0	257.9671630859375	
54	238.44018602371216	movie	1		244	52.0	2.5	/experiments/AOT/AOT_stimuli/rescaled_final/0593_rv.mp4	0.0	257.975270986557	2.508544921875
54	240.0321910381317	pulse	1	t		52.0	2.5	/experiments/AOT/AOT_stimuli/rescaled_final/0593_rv.mp4	0.0	259.56727600097656	
54	240.94873094558716	fix_post	2		12	52.0	2.5	/experiments/AOT/AOT_stimuli/rescaled_final/0593_rv.mp4	0.0	260.483815908432	0.10004496574401855
55	241.04877591133118	fix_pre	0		120	53.0	2.5	/experiments/AOT/AOT_stimuli/rescaled_final/0539_rv.mp4	0.0	260.583860874176	0.9995901584625244
55	241.63223004341125	pulse	0	t		53.0	2.5	/experiments/AOT/AOT_stimuli/rescaled_final/0539_rv.mp4	0.0	261.1673150062561	
55	242.0483660697937	movie	1		244	53.0	2.5	/experiments/AOT/AOT_stimuli/rescaled_final/0539_rv.mp4	0.0	261.58345103263855	2.500361919403076
55	243.23242902755737	pulse	1	t		53.0	2.5	/experiments/AOT/AOT_stimuli/rescaled_final/0539_rv.mp4	0.0	262.7675139904022	
55	244.54872798919678	fix_post	2		12	53.0	2.5	/experiments/AOT/AOT_stimuli/rescaled_final/0539_rv.mp4	0.0	264.0838129520416	0.1000831127166748
56	244.64881110191345	fix_pre	0		120	54.0	2.5	/experiments/AOT/AOT_stimuli/rescaled_final/2001_fw.mp4	0.0	264.1838960647583	0.9998798370361328
56	244.8321669101715	pulse	0	t		54.0	2.5	/experiments/AOT/AOT_stimuli/rescaled_final/2001_fw.mp4	0.0	264.36725187301636	
56	245.64869093894958	movie	1		246	54.0	2.5	/experiments/AOT/AOT_stimuli/rescaled_final/2001_fw.mp4	0.0	265.18377590179443	2.4996750354766846
56	246.43220806121826	pulse	1	t		54.0	2.5	/experiments/AOT/AOT_stimuli/rescaled_final/2001_fw.mp4	0.0	265.9672930240631	
56	248.0307149887085	pulse	1	t		54.0	2.5	/experiments/AOT/AOT_stimuli/rescaled_final/2001_fw.mp4	0.0	267.56579995155334	
56	248.14836597442627	fix_post	2		12	54.0	2.5	/experiments/AOT/AOT_stimuli/rescaled_final/2001_fw.mp4	0.0	267.6834509372711	0.10039305686950684
57	248.24875903129578	fix_pre	0		120	55.0	2.5	blank	1.0	267.7838439941406	0.9995598793029785
57	249.24831891059875	movie	1		300	55.0	2.5	blank	1.0	268.7834038734436	2.5003302097320557
57	249.6322169303894	pulse	1	t		55.0	2.5	blank	1.0	269.16730189323425	
57	251.23219203948975	pulse	1	t		55.0	2.5	blank	1.0	270.7672770023346	
57	251.7486491203308	fix_post	2		12	55.0	2.5	blank	1.0	271.28373408317566	0.10002684593200684
58	251.84867596626282	fix_pre	0		119	56.0	2.5	/experiments/AOT/AOT_stimuli/rescaled_final/0113_rv.mp4	0.0	271.38376092910767	0.9917240142822266
58	252.83218097686768	pulse	0	t		56.0	2.5	/experiments/AOT/AOT_stimuli/rescaled_final/0113_rv.mp4	0.0	272.3672659397125	
58	252.84039998054504	movie	1		247	56.0	2.5	/experiments/AOT/AOT_stimuli/rescaled_final/0113_rv.mp4	0.0	272.3754849433899	2.5078439712524414
58	254.43164706230164	pulse	1	t		56.0	2.5	/experiments/AOT/AOT_stimuli/rescaled_final/0113_rv.mp4	0.0	273.9667320251465	
58	255.34824395179749	fix_post	2		12	56.0	2.5	/experiments/AOT/AOT_stimuli/rescaled_final/0113_rv.mp4	0.0	274.88332891464233	0.10038399696350098
59	255.448627948761	fix_pre	0		120	57.0	2.5	/experiments/AOT/AOT_stimuli/rescaled_final/0274_rv.mp4	0.0	274.98371291160583	1.0000410079956055
59	256.03224301338196	pulse	0	t		57.0	2.5	/experiments/AOT/AOT_stimuli/rescaled_final/0274_rv.mp4	0.0	275.5673279762268	
59	256.4486689567566	movie	1		244	57.0	2.5	/experiments/AOT/AOT_stimuli/rescaled_final/0274_rv.mp4	0.0	275.98375391960144	2.4999630451202393
59	257.63223099708557	pulse	1	t		57.0	2.5	/experiments/AOT/AOT_stimuli/rescaled_final/0274_rv.mp4	0.0	277.1673159599304	
59	258.94863200187683	fix_post	2		12	57.0	2.5	/experiments/AOT/AOT_stimuli/rescaled_final/0274_rv.mp4	0.0	278.4837169647217	0.09998703002929688
60	259.0486190319061	fix_pre	0		120	58.0	2.5	/experiments/AOT/AOT_stimuli/rescaled_final/2016_fw.mp4	0.0	278.583703994751	0.9999620914459229
60	259.2321970462799	pulse	0	t		58.0	2.5	/experiments/AOT/AOT_stimuli/rescaled_final/2016_fw.mp4	0.0	278.76728200912476	
60	260.04858112335205	movie	1		243	58.0	2.5	/experiments/AOT/AOT_stimuli/rescaled_final/2016_fw.mp4	0.0	279.5836660861969	2.500070810317993
60	260.8322150707245	pulse	1	t		58.0	2.5	/experiments/AOT/AOT_stimuli/rescaled_final/2016_fw.mp4	0.0	280.36730003356934	
60	262.4304909706116	pulse	1	t		58.0	2.5	/experiments/AOT/AOT_stimuli/rescaled_final/2016_fw.mp4	0.0	281.9655759334564	
60	262.54865193367004	fix_post	2		12	58.0	2.5	/experiments/AOT/AOT_stimuli/rescaled_final/2016_fw.mp4	0.0	282.0837368965149	0.10000395774841309
61	262.64865589141846	fix_pre	0		120	59.0	2.5	/experiments/AOT/AOT_stimuli/rescaled_final/0147_fw.mp4	0.0	282.1837408542633	0.9999351501464844
61	263.64859104156494	movie	1		243	59.0	2.5	/experiments/AOT/AOT_stimuli/rescaled_final/0147_fw.mp4	0.0	283.1836760044098	2.5000200271606445
61	264.0318169593811	pulse	1	t		59.0	2.5	/experiments/AOT/AOT_stimuli/rescaled_final/0147_fw.mp4	0.0	283.56690192222595	
61	265.63220596313477	pulse	1	t		59.0	2.5	/experiments/AOT/AOT_stimuli/rescaled_final/0147_fw.mp4	0.0	285.1672909259796	
61	266.1486110687256	fix_post	2		12	59.0	2.5	/experiments/AOT/AOT_stimuli/rescaled_final/0147_fw.mp4	0.0	285.68369603157043	0.10003995895385742
62	266.24865102767944	fix_pre	0		119	60.0	2.5	/experiments/AOT/AOT_stimuli/rescaled_final/1557_rv.mp4	0.0	285.7837359905243	0.9916260242462158
62	267.2321379184723	pulse	0	t		60.0	2.5	/experiments/AOT/AOT_stimuli/rescaled_final/1557_rv.mp4	0.0	286.76722288131714	
62	267.24027705192566	movie	1		246	60.0	2.5	/experiments/AOT/AOT_stimuli/rescaled_final/1557_rv.mp4	0.0	286.7753620147705	2.508336067199707
62	268.8334710597992	pulse	1	t		60.0	2.5	/experiments/AOT/AOT_stimuli/rescaled_final/1557_rv.mp4	0.0	288.36855602264404	
62	269.74861311912537	fix_post	2		12	60.0	2.5	/experiments/AOT/AOT_stimuli/rescaled_final/1557_rv.mp4	0.0	289.2836980819702	0.09996795654296875
63	269.84858107566833	fix_pre	0		120	61.0	2.5	/experiments/AOT/AOT_stimuli/rescaled_final/1828_fw.mp4	0.0	289.3836660385132	1.0000040531158447
63	270.43208503723145	pulse	0	t		61.0	2.5	/experiments/AOT/AOT_stimuli/rescaled_final/1828_fw.mp4	0.0	289.9671700000763	
63	270.8485851287842	movie	1		247	61.0	2.5	/experiments/AOT/AOT_stimuli/rescaled_final/1828_fw.mp4	0.0	290.383670091629	2.5000128746032715
63	272.0322480201721	pulse	1	t		61.0	2.5	/experiments/AOT/AOT_stimuli/rescaled_final/1828_fw.mp4	0.0	291.56733298301697	
63	273.34859800338745	fix_post	2		12	61.0	2.5	/experiments/AOT/AOT_stimuli/rescaled_final/1828_fw.mp4	0.0	292.8836829662323	0.0999910831451416
64	273.4485890865326	fix_pre	0		120	62.0	2.5	/experiments/AOT/AOT_stimuli/rescaled_final/1597_rv.mp4	0.0	292.98367404937744	0.9996309280395508
64	273.6321210861206	pulse	0	t		62.0	2.5	/experiments/AOT/AOT_stimuli/rescaled_final/1597_rv.mp4	0.0	293.16720604896545	
64	274.44822001457214	movie	1		244	62.0	2.5	/experiments/AOT/AOT_stimuli/rescaled_final/1597_rv.mp4	0.0	293.983304977417	2.5003299713134766
64	275.232115983963	pulse	1	t		62.0	2.5	/experiments/AOT/AOT_stimuli/rescaled_final/1597_rv.mp4	0.0	294.76720094680786	
64	276.8305809497833	pulse	1	t		62.0	2.5	/experiments/AOT/AOT_stimuli/rescaled_final/1597_rv.mp4	0.0	296.3656659126282	
64	276.9485499858856	fix_post	2		12	62.0	2.5	/experiments/AOT/AOT_stimuli/rescaled_final/1597_rv.mp4	0.0	296.48363494873047	0.10004091262817383
65	277.0485908985138	fix_pre	0		120	63.0	2.5	blank	1.0	296.58367586135864	0.9999661445617676
65	278.04855704307556	movie	1		300	63.0	2.5	blank	1.0	297.5836420059204	2.5000288486480713
65	278.4320259094238	pulse	1	t		63.0	2.5	blank	1.0	297.9671108722687	
65	280.0320711135864	pulse	1	t		63.0	2.5	blank	1.0	299.5671560764313	
65	280.54858589172363	fix_post	2		12	63.0	2.5	blank	1.0	300.0836708545685	0.09987902641296387
66	280.6484649181366	fix_pre	0		119	64.0	2.5	/experiments/AOT/AOT_stimuli/rescaled_final/1582_rv.mp4	0.0	300.18354988098145	0.9916970729827881
66	281.6320550441742	pulse	0	t		64.0	2.5	/experiments/AOT/AOT_stimuli/rescaled_final/1582_rv.mp4	0.0	301.16714000701904	
66	281.6401619911194	movie	1		244	64.0	2.5	/experiments/AOT/AOT_stimuli/rescaled_final/1582_rv.mp4	0.0	301.17524695396423	2.508371114730835
66	283.2316780090332	pulse	1	t		64.0	2.5	/experiments/AOT/AOT_stimuli/rescaled_final/1582_rv.mp4	0.0	302.76676297187805	
66	284.1485331058502	fix_post	2		12	64.0	2.5	/experiments/AOT/AOT_stimuli/rescaled_final/1582_rv.mp4	0.0	303.68361806869507	0.09999990463256836
67	284.2485330104828	fix_pre	0		120	65.0	2.5	/experiments/AOT/AOT_stimuli/rescaled_final/2148_fw.mp4	0.0	303.78361797332764	0.999993085861206
67	284.83201789855957	pulse	0	t		65.0	2.5	/experiments/AOT/AOT_stimuli/rescaled_final/2148_fw.mp4	0.0	304.3671028614044	
67	285.248526096344	movie	1		243	65.0	2.5	/experiments/AOT/AOT_stimuli/rescaled_final/2148_fw.mp4	0.0	304.78361105918884	2.4999969005584717
67	286.4320750236511	pulse	1	t		65.0	2.5	/experiments/AOT/AOT_stimuli/rescaled_final/2148_fw.mp4	0.0	305.967159986496	
67	287.74852299690247	fix_post	2		12	65.0	2.5	/experiments/AOT/AOT_stimuli/rescaled_final/2148_fw.mp4	0.0	307.2836079597473	0.10002398490905762
68	287.8485469818115	fix_pre	0		120	66.0	2.5	/experiments/AOT/AOT_stimuli/rescaled_final/1447_fw.mp4	0.0	307.3836319446564	0.9999089241027832
68	288.0320420265198	pulse	0	t		66.0	2.5	/experiments/AOT/AOT_stimuli/rescaled_final/1447_fw.mp4	0.0	307.5671269893646	
68	288.8484559059143	movie	1		244	66.0	2.5	/experiments/AOT/AOT_stimuli/rescaled_final/1447_fw.mp4	0.0	308.38354086875916	2.500054121017456
68	289.63206696510315	pulse	1	t		66.0	2.5	/experiments/AOT/AOT_stimuli/rescaled_final/1447_fw.mp4	0.0	309.167151927948	
68	291.23073506355286	pulse	1	t		66.0	2.5	/experiments/AOT/AOT_stimuli/rescaled_final/1447_fw.mp4	0.0	310.7658200263977	
68	291.34851002693176	fix_post	2		12	66.0	2.5	/experiments/AOT/AOT_stimuli/rescaled_final/1447_fw.mp4	0.0	310.8835949897766	0.09995794296264648
69	291.4484679698944	fix_pre	0		120	67.0	2.5	/experiments/AOT/AOT_stimuli/rescaled_final/0174_fw.mp4	0.0	310.98355293273926	0.9996280670166016
69	292.448096036911	movie	1		246	67.0	2.5	/experiments/AOT/AOT_stimuli/rescaled_final/0174_fw.mp4	0.0	311.98318099975586	2.5008890628814697
69	292.83120608329773	pulse	1	t		67.0	2.5	/experiments/AOT/AOT_stimuli/rescaled_final/0174_fw.mp4	0.0	312.3662910461426	
69	294.4321479797363	pulse	1	t		67.0	2.5	/experiments/AOT/AOT_stimuli/rescaled_final/0174_fw.mp4	0.0	313.9672329425812	
69	294.9489850997925	fix_post	2		12	67.0	2.5	/experiments/AOT/AOT_stimuli/rescaled_final/0174_fw.mp4	0.0	314.48407006263733	0.09937381744384766
70	295.0483589172363	fix_pre	0		119	68.0	2.5	blank	1.0	314.5834438800812	0.9918100833892822
70	296.03200912475586	pulse	0	t		68.0	2.5	blank	1.0	315.5670940876007	
70	296.0401690006256	movie	1		301	68.0	2.5	blank	1.0	315.57525396347046	2.507935047149658
70	297.6320331096649	pulse	1	t		68.0	2.5	blank	1.0	317.16711807250977	
70	298.54810404777527	fix_post	2		12	68.0	2.5	blank	1.0	318.0831890106201	0.10037684440612793
71	298.6484808921814	fix_pre	0		120	69.0	2.5	/experiments/AOT/AOT_stimuli/rescaled_final/1269_fw.mp4	0.0	318.18356585502625	1.0000050067901611
71	299.2319989204407	pulse	0	t		69.0	2.5	/experiments/AOT/AOT_stimuli/rescaled_final/1269_fw.mp4	0.0	318.7670838832855	
71	299.64848589897156	movie	1		244	69.0	2.5	/experiments/AOT/AOT_stimuli/rescaled_final/1269_fw.mp4	0.0	319.1835708618164	2.500089168548584
71	300.8320801258087	pulse	1	t		69.0	2.5	/experiments/AOT/AOT_stimuli/rescaled_final/1269_fw.mp4	0.0	320.36716508865356	
71	302.14857506752014	fix_post	2		12	69.0	2.5	/experiments/AOT/AOT_stimuli/rescaled_final/1269_fw.mp4	0.0	321.683660030365	0.09990596771240234
72	302.24848103523254	fix_pre	0		120	70.0	2.5	/experiments/AOT/AOT_stimuli/rescaled_final/1115_fw.mp4	0.0	321.7835659980774	0.9995930194854736
72	302.43201208114624	pulse	0	t		70.0	2.5	/experiments/AOT/AOT_stimuli/rescaled_final/1115_fw.mp4	0.0	321.9670970439911	
72	303.248074054718	movie	1		243	70.0	2.5	/experiments/AOT/AOT_stimuli/rescaled_final/1115_fw.mp4	0.0	322.78315901756287	2.5003600120544434
72	304.03189492225647	pulse	1	t		70.0	2.5	/experiments/AOT/AOT_stimuli/rescaled_final/1115_fw.mp4	0.0	323.5669798851013	
72	305.6303060054779	pulse	1	t		70.0	2.5	/experiments/AOT/AOT_stimuli/rescaled_final/1115_fw.mp4	0.0	325.16539096832275	
72	305.74843406677246	fix_post	2		12	70.0	2.5	/experiments/AOT/AOT_stimuli/rescaled_final/1115_fw.mp4	0.0	325.2835190296173	0.10003089904785156
73	305.8484649658203	fix_pre	0		120	71.0	2.5	/experiments/AOT/AOT_stimuli/rescaled_final/1718_fw.mp4	0.0	325.38354992866516	0.9999449253082275
73	306.84840989112854	movie	1		244	71.0	2.5	/experiments/AOT/AOT_stimuli/rescaled_final/1718_fw.mp4	0.0	326.3834948539734	2.500042200088501
73	307.23150992393494	pulse	1	t		71.0	2.5	/experiments/AOT/AOT_stimuli/rescaled_final/1718_fw.mp4	0.0	326.7665948867798	
73	308.8319630622864	pulse	1	t		71.0	2.5	/experiments/AOT/AOT_stimuli/rescaled_final/1718_fw.mp4	0.0	328.3670480251312	
73	309.34845209121704	fix_post	2		12	71.0	2.5	/experiments/AOT/AOT_stimuli/rescaled_final/1718_fw.mp4	0.0	328.8835370540619	0.09996891021728516
74	309.4484210014343	fix_pre	0		119	72.0	2.5	/experiments/AOT/AOT_stimuli/rescaled_final/0938_rv.mp4	0.0	328.9835059642792	0.9916629791259766
74	310.4319040775299	pulse	0	t		72.0	2.5	/experiments/AOT/AOT_stimuli/rescaled_final/0938_rv.mp4	0.0	329.96698904037476	
74	310.4400839805603	movie	1		245	72.0	2.5	/experiments/AOT/AOT_stimuli/rescaled_final/0938_rv.mp4	0.0	329.97516894340515	2.5083961486816406
74	312.0317280292511	pulse	1	t		72.0	2.5	/experiments/AOT/AOT_stimuli/rescaled_final/0938_rv.mp4	0.0	331.56681299209595	
74	312.94848012924194	fix_post	2		12	72.0	2.5	/experiments/AOT/AOT_stimuli/rescaled_final/0938_rv.mp4	0.0	332.4835650920868	0.09994077682495117
75	313.0484209060669	fix_pre	0		120	73.0	2.5	/experiments/AOT/AOT_stimuli/rescaled_final/0590_fw.mp4	0.0	332.58350586891174	0.9995291233062744
75	313.6319499015808	pulse	0	t		73.0	2.5	/experiments/AOT/AOT_stimuli/rescaled_final/0590_fw.mp4	0.0	333.16703486442566	
75	314.04795002937317	movie	1		245	73.0	2.5	/experiments/AOT/AOT_stimuli/rescaled_final/0590_fw.mp4	0.0	333.583034992218	2.500035047531128
75	315.2319459915161	pulse	1	t		73.0	2.5	/experiments/AOT/AOT_stimuli/rescaled_final/0590_fw.mp4	0.0	334.76703095436096	
75	316.5479850769043	fix_post	2		12	73.0	2.5	/experiments/AOT/AOT_stimuli/rescaled_final/0590_fw.mp4	0.0	336.08307003974915	0.1003270149230957
76	316.6483120918274	fix_pre	0		120	74.0	2.5	/experiments/AOT/AOT_stimuli/rescaled_final/0285_fw.mp4	0.0	336.18339705467224	1.000072956085205
76	316.8318119049072	pulse	0	t		74.0	2.5	/experiments/AOT/AOT_stimuli/rescaled_final/0285_fw.mp4	0.0	336.3668968677521	
76	317.6483850479126	movie	1		244	74.0	2.5	/experiments/AOT/AOT_stimuli/rescaled_final/0285_fw.mp4	0.0	337.18347001075745	2.4995758533477783
76	318.4318470954895	pulse	1	t		74.0	2.5	/experiments/AOT/AOT_stimuli/rescaled_final/0285_fw.mp4	0.0	337.96693205833435	
76	320.03031611442566	pulse	1	t		74.0	2.5	/experiments/AOT/AOT_stimuli/rescaled_final/0285_fw.mp4	0.0	339.5654010772705	
76	320.1479609012604	fix_post	2		12	74.0	2.5	/experiments/AOT/AOT_stimuli/rescaled_final/0285_fw.mp4	0.0	339.6830458641052	0.10038304328918457
77	320.24834394454956	fix_pre	0		120	75.0	2.5	blank	1.0	339.7834289073944	1.0000381469726562
77	321.2483820915222	movie	1		300	75.0	2.5	blank	1.0	340.78346705436707	2.5
77	321.63179111480713	pulse	1	t		75.0	2.5	blank	1.0	341.166876077652	
77	323.2318260669708	pulse	1	t		75.0	2.5	blank	1.0	342.7669110298157	
77	323.7483820915222	fix_post	2		12	75.0	2.5	blank	1.0	343.28346705436707	0.0999748706817627
78	323.848356962204	fix_pre	0		119	76.0	2.5	/experiments/AOT/AOT_stimuli/rescaled_final/0884_fw.mp4	0.0	343.3834419250488	0.991631031036377
78	324.8318500518799	pulse	0	t		76.0	2.5	/experiments/AOT/AOT_stimuli/rescaled_final/0884_fw.mp4	0.0	344.36693501472473	
78	324.83998799324036	movie	1		245	76.0	2.5	/experiments/AOT/AOT_stimuli/rescaled_final/0884_fw.mp4	0.0	344.3750729560852	2.507981061935425
78	326.4314320087433	pulse	1	t		76.0	2.5	/experiments/AOT/AOT_stimuli/rescaled_final/0884_fw.mp4	0.0	345.96651697158813	
78	327.3479690551758	fix_post	2		12	76.0	2.5	/experiments/AOT/AOT_stimuli/rescaled_final/0884_fw.mp4	0.0	346.88305401802063	0.1004190444946289
79	327.4483880996704	fix_pre	0		120	77.0	2.5	/experiments/AOT/AOT_stimuli/rescaled_final/0274_fw.mp4	0.0	346.98347306251526	0.9999678134918213
79	328.0318100452423	pulse	0	t		77.0	2.5	/experiments/AOT/AOT_stimuli/rescaled_final/0274_fw.mp4	0.0	347.56689500808716	
79	328.44835591316223	movie	1		243	77.0	2.5	/experiments/AOT/AOT_stimuli/rescaled_final/0274_fw.mp4	0.0	347.9834408760071	2.499904155731201
79	329.631884098053	pulse	1	t		77.0	2.5	/experiments/AOT/AOT_stimuli/rescaled_final/0274_fw.mp4	0.0	349.1669690608978	
79	330.94826006889343	fix_post	2		12	77.0	2.5	/experiments/AOT/AOT_stimuli/rescaled_final/0274_fw.mp4	0.0	350.4833450317383	0.099639892578125
80	331.04789996147156	fix_pre	0		120	78.0	2.5	/experiments/AOT/AOT_stimuli/rescaled_final/0539_fw.mp4	0.0	350.5829849243164	1.000396966934204
80	331.2319920063019	pulse	0	t		78.0	2.5	/experiments/AOT/AOT_stimuli/rescaled_final/0539_fw.mp4	0.0	350.76707696914673	
80	332.04829692840576	movie	1		245	78.0	2.5	/experiments/AOT/AOT_stimuli/rescaled_final/0539_fw.mp4	0.0	351.5833818912506	2.4999961853027344
80	332.8317859172821	pulse	1	t		78.0	2.5	/experiments/AOT/AOT_stimuli/rescaled_final/0539_fw.mp4	0.0	352.36687088012695	
80	334.43022108078003	pulse	1	t		78.0	2.5	/experiments/AOT/AOT_stimuli/rescaled_final/0539_fw.mp4	0.0	353.9653060436249	
80	334.5482931137085	fix_post	2		12	78.0	2.5	/experiments/AOT/AOT_stimuli/rescaled_final/0539_fw.mp4	0.0	354.08337807655334	0.09992289543151855
81	334.64821600914	fix_pre	0		120	79.0	2.5	/experiments/AOT/AOT_stimuli/rescaled_final/0694_fw.mp4	0.0	354.18330097198486	1.0000839233398438
81	335.64829993247986	movie	1		245	79.0	2.5	/experiments/AOT/AOT_stimuli/rescaled_final/0694_fw.mp4	0.0	355.1833848953247	2.4995460510253906
81	336.0328440666199	pulse	1	t		79.0	2.5	/experiments/AOT/AOT_stimuli/rescaled_final/0694_fw.mp4	0.0	355.5679290294647	
81	337.6317729949951	pulse	1	t		79.0	2.5	/experiments/AOT/AOT_stimuli/rescaled_final/0694_fw.mp4	0.0	357.16685795783997	
81	338.14784598350525	fix_post	2		12	79.0	2.5	/experiments/AOT/AOT_stimuli/rescaled_final/0694_fw.mp4	0.0	357.6829309463501	0.10049104690551758
82	338.24833703041077	fix_pre	0		119	80.0	2.5	/experiments/AOT/AOT_stimuli/rescaled_final/0305_fw.mp4	0.0	357.7834219932556	0.9916260242462158
82	339.23179292678833	pulse	0	t		80.0	2.5	/experiments/AOT/AOT_stimuli/rescaled_final/0305_fw.mp4	0.0	358.7668778896332	
82	339.239963054657	movie	1		246	80.0	2.5	/experiments/AOT/AOT_stimuli/rescaled_final/0305_fw.mp4	0.0	358.77504801750183	2.507956027984619
82	340.8312690258026	pulse	1	t		80.0	2.5	/experiments/AOT/AOT_stimuli/rescaled_final/0305_fw.mp4	0.0	360.36635398864746	
82	341.7479190826416	fix_post	2		12	80.0	2.5	/experiments/AOT/AOT_stimuli/rescaled_final/0305_fw.mp4	0.0	361.28300404548645	0.1003718376159668
83	341.84829092025757	fix_pre	0		120	81.0	2.5	/experiments/AOT/AOT_stimuli/rescaled_final/2001_rv.mp4	0.0	361.3833758831024	1.0001780986785889
83	342.4317500591278	pulse	0	t		81.0	2.5	/experiments/AOT/AOT_stimuli/rescaled_final/2001_rv.mp4	0.0	361.96683502197266	
83	342.84846901893616	movie	1		245	81.0	2.5	/experiments/AOT/AOT_stimuli/rescaled_final/2001_rv.mp4	0.0	362.383553981781	2.499764919281006
83	344.031800031662	pulse	1	t		81.0	2.5	/experiments/AOT/AOT_stimuli/rescaled_final/2001_rv.mp4	0.0	363.56688499450684	
83	345.34823393821716	fix_post	2		12	81.0	2.5	/experiments/AOT/AOT_stimuli/rescaled_final/2001_rv.mp4	0.0	364.883318901062	0.1000211238861084
84	345.44825506210327	fix_pre	0		120	82.0	2.5	/experiments/AOT/AOT_stimuli/rescaled_final/2059_fw.mp4	0.0	364.9833400249481	0.9999730587005615
84	345.6317389011383	pulse	0	t		82.0	2.5	/experiments/AOT/AOT_stimuli/rescaled_final/2059_fw.mp4	0.0	365.16682386398315	
84	346.44822812080383	movie	1		244	82.0	2.5	/experiments/AOT/AOT_stimuli/rescaled_final/2059_fw.mp4	0.0	365.9833130836487	2.4997079372406006
84	347.23173904418945	pulse	1	t		82.0	2.5	/experiments/AOT/AOT_stimuli/rescaled_final/2059_fw.mp4	0.0	366.7668240070343	
84	348.83199095726013	pulse	1	t		82.0	2.5	/experiments/AOT/AOT_stimuli/rescaled_final/2059_fw.mp4	0.0	368.367075920105	
84	348.94793605804443	fix_post	2		12	82.0	2.5	/experiments/AOT/AOT_stimuli/rescaled_final/2059_fw.mp4	0.0	368.4830210208893	0.1003420352935791
85	349.048278093338	fix_pre	0		120	83.0	2.5	blank	1.0	368.58336305618286	0.9997029304504395
85	350.04798102378845	movie	1		300	83.0	2.5	blank	1.0	369.5830659866333	2.5002949237823486
85	350.43203592300415	pulse	1	t		83.0	2.5	blank	1.0	369.967120885849	
85	352.0316951274872	pulse	1	t		83.0	2.5	blank	1.0	371.56678009033203	
85	352.5482759475708	fix_post	2		12	83.0	2.5	blank	1.0	372.08336091041565	0.09995198249816895
87	352.64822793006897	stim	0		1716					372.1833128929138	14.29996109008789
87	353.6316990852356	pulse	0	t						373.16678404808044	
87	355.23164796829224	pulse	0	t						374.7667329311371	
87	356.8315861225128	pulse	0	t						376.36667108535767	
87	358.4316921234131	pulse	0	t						377.96677708625793	
87	360.03164196014404	pulse	0	t						379.5667269229889	
87	361.6315999031067	pulse	0	t						381.16668486595154	
87	363.23159289360046	pulse	0	t						382.7666778564453	
87	364.83163595199585	pulse	0	t						384.3667209148407	
87	366.43163204193115	pulse	0	t						385.966717004776	
