trial_nr	onset	event_type	phase	response	nr_frames	movie_index	movie_duration	movie_file	blank	onset_abs	duration
0	0.15774083137512207	stim	0		41					20.31748104095459	0.3420531749725342
0	0.49195098876953125	response	0	space						20.651691198349	
1	0.49979400634765625	stim	0		13721					20.659534215927124	114.34960198402405
1	114.83744978904724	pulse	0	t						134.9971899986267	
1	114.8493959903717	stim	1		1716					135.00913619995117	14.29991888999939
1	116.4327290058136	pulse	1	t						136.59246921539307	
1	118.0327558517456	pulse	1	t						138.19249606132507	
1	119.63272786140442	pulse	1	t						139.7924680709839	
1	121.23278594017029	pulse	1	t						141.39252614974976	
1	122.83277583122253	pulse	1	t						142.992516040802	
1	124.4326958656311	pulse	1	t						144.59243607521057	
1	126.03270983695984	pulse	1	t						146.1924500465393	
1	127.63272285461426	pulse	1	t						147.79246306419373	
2	129.1493148803711	fix_pre	0		11	0.0	2.5	/experiments/AOT/AOT_stimuli/rescaled_final/0734_fw.mp4	0.0	149.30905508995056	0.09161496162414551
2	129.2326638698578	pulse	0	t		0.0	2.5	/experiments/AOT/AOT_stimuli/rescaled_final/0734_fw.mp4	0.0	149.39240407943726	
2	129.24092984199524	movie	1		245	0.0	2.5	/experiments/AOT/AOT_stimuli/rescaled_final/0734_fw.mp4	0.0	149.4006700515747	2.508307933807373
2	130.83252000808716	pulse	1	t		0.0	2.5	/experiments/AOT/AOT_stimuli/rescaled_final/0734_fw.mp4	0.0	150.99226021766663	
2	131.7492377758026	fix_post	2		12	0.0	2.5	/experiments/AOT/AOT_stimuli/rescaled_final/0734_fw.mp4	0.0	151.90897798538208	0.09997105598449707
3	131.8492088317871	fix_pre	0		120	1.0	2.5	/experiments/AOT/AOT_stimuli/rescaled_final/1258_rv.mp4	0.0	152.00894904136658	0.9995951652526855
3	132.43273186683655	pulse	0	t		1.0	2.5	/experiments/AOT/AOT_stimuli/rescaled_final/1258_rv.mp4	0.0	152.59247207641602	
3	132.8488039970398	movie	1		246	1.0	2.5	/experiments/AOT/AOT_stimuli/rescaled_final/1258_rv.mp4	0.0	153.00854420661926	2.4999477863311768
3	134.03275299072266	pulse	1	t		1.0	2.5	/experiments/AOT/AOT_stimuli/rescaled_final/1258_rv.mp4	0.0	154.19249320030212	
3	135.34875178337097	fix_post	2		12	1.0	2.5	/experiments/AOT/AOT_stimuli/rescaled_final/1258_rv.mp4	0.0	155.50849199295044	0.10050320625305176
4	135.44925498962402	fix_pre	0		120	2.0	2.5	/experiments/AOT/AOT_stimuli/rescaled_final/0592_fw.mp4	0.0	155.6089951992035	0.9998958110809326
4	135.6327497959137	pulse	0	t		2.0	2.5	/experiments/AOT/AOT_stimuli/rescaled_final/0592_fw.mp4	0.0	155.79249000549316	
4	136.44915080070496	movie	1		244	2.0	2.5	/experiments/AOT/AOT_stimuli/rescaled_final/0592_fw.mp4	0.0	156.60889101028442	2.5000171661376953
4	137.23271989822388	pulse	1	t		2.0	2.5	/experiments/AOT/AOT_stimuli/rescaled_final/0592_fw.mp4	0.0	157.39246010780334	
4	138.832270860672	pulse	1	t		2.0	2.5	/experiments/AOT/AOT_stimuli/rescaled_final/0592_fw.mp4	0.0	158.99201107025146	
4	138.94916796684265	fix_post	2		12	2.0	2.5	/experiments/AOT/AOT_stimuli/rescaled_final/0592_fw.mp4	0.0	159.10890817642212	0.10001802444458008
5	139.04918599128723	fix_pre	0		120	3.0	2.5	/experiments/AOT/AOT_stimuli/rescaled_final/1474_rv.mp4	0.0	159.2089262008667	1.0000178813934326
5	140.04920387268066	movie	1		244	3.0	2.5	/experiments/AOT/AOT_stimuli/rescaled_final/1474_rv.mp4	0.0	160.20894408226013	2.4999029636383057
5	140.43285083770752	pulse	1	t		3.0	2.5	/experiments/AOT/AOT_stimuli/rescaled_final/1474_rv.mp4	0.0	160.592591047287	
5	142.03267693519592	pulse	1	t		3.0	2.5	/experiments/AOT/AOT_stimuli/rescaled_final/1474_rv.mp4	0.0	162.1924171447754	
5	142.54910683631897	fix_post	2		12	3.0	2.5	/experiments/AOT/AOT_stimuli/rescaled_final/1474_rv.mp4	0.0	162.70884704589844	0.10002803802490234
6	142.64913487434387	fix_pre	0		119	4.0	2.5	/experiments/AOT/AOT_stimuli/rescaled_final/0565_fw.mp4	0.0	162.80887508392334	0.9916150569915771
6	143.63265299797058	pulse	0	t		4.0	2.5	/experiments/AOT/AOT_stimuli/rescaled_final/0565_fw.mp4	0.0	163.79239320755005	
6	143.64074993133545	movie	1		244	4.0	2.5	/experiments/AOT/AOT_stimuli/rescaled_final/0565_fw.mp4	0.0	163.80049014091492	2.5083420276641846
6	145.2328097820282	pulse	1	t		4.0	2.5	/experiments/AOT/AOT_stimuli/rescaled_final/0565_fw.mp4	0.0	165.39254999160767	
6	146.14909195899963	fix_post	2		12	4.0	2.5	/experiments/AOT/AOT_stimuli/rescaled_final/0565_fw.mp4	0.0	166.3088321685791	0.10001397132873535
7	146.24910593032837	fix_pre	0		120	5.0	2.5	blank	1.0	166.40884613990784	1.0000219345092773
7	146.83260583877563	pulse	0	t		5.0	2.5	blank	1.0	166.9923460483551	
7	147.24912786483765	movie	1		300	5.0	2.5	blank	1.0	167.40886807441711	2.499988079071045
7	148.43260097503662	pulse	1	t		5.0	2.5	blank	1.0	168.5923411846161	
7	149.7491159439087	fix_post	2		12	5.0	2.5	blank	1.0	169.90885615348816	0.09958696365356445
8	149.84870290756226	fix_pre	0		120	6.0	2.5	/experiments/AOT/AOT_stimuli/rescaled_final/0779_rv.mp4	0.0	170.00844311714172	1.0006279945373535
8	150.0326647758484	pulse	0	t		6.0	2.5	/experiments/AOT/AOT_stimuli/rescaled_final/0779_rv.mp4	0.0	170.19240498542786	
8	150.8493309020996	movie	1		247	6.0	2.5	/experiments/AOT/AOT_stimuli/rescaled_final/0779_rv.mp4	0.0	171.00907111167908	2.4998579025268555
8	151.6327588558197	pulse	1	t		6.0	2.5	/experiments/AOT/AOT_stimuli/rescaled_final/0779_rv.mp4	0.0	171.79249906539917	
8	153.23260188102722	pulse	1	t		6.0	2.5	/experiments/AOT/AOT_stimuli/rescaled_final/0779_rv.mp4	0.0	173.3923420906067	
8	153.34918880462646	fix_post	2		12	6.0	2.5	/experiments/AOT/AOT_stimuli/rescaled_final/0779_rv.mp4	0.0	173.50892901420593	0.09992218017578125
9	153.44911098480225	fix_pre	0		120	7.0	2.5	/experiments/AOT/AOT_stimuli/rescaled_final/0449_rv.mp4	0.0	173.6088511943817	0.9999628067016602
9	154.4490737915039	movie	1		246	7.0	2.5	/experiments/AOT/AOT_stimuli/rescaled_final/0449_rv.mp4	0.0	174.60881400108337	2.499622106552124
9	154.83242797851562	pulse	1	t		7.0	2.5	/experiments/AOT/AOT_stimuli/rescaled_final/0449_rv.mp4	0.0	174.9921681880951	
9	156.43251299858093	pulse	1	t		7.0	2.5	/experiments/AOT/AOT_stimuli/rescaled_final/0449_rv.mp4	0.0	176.5922532081604	
9	156.94869589805603	fix_post	2		12	7.0	2.5	/experiments/AOT/AOT_stimuli/rescaled_final/0449_rv.mp4	0.0	177.1084361076355	0.10031604766845703
10	157.0490119457245	fix_pre	0		119	8.0	2.5	/experiments/AOT/AOT_stimuli/rescaled_final/1428_rv.mp4	0.0	177.20875215530396	0.9916698932647705
10	158.03250885009766	pulse	0	t		8.0	2.5	/experiments/AOT/AOT_stimuli/rescaled_final/1428_rv.mp4	0.0	178.19224905967712	
10	158.04068183898926	movie	1		249	8.0	2.5	/experiments/AOT/AOT_stimuli/rescaled_final/1428_rv.mp4	0.0	178.20042204856873	2.5083529949188232
10	159.6320378780365	pulse	1	t		8.0	2.5	/experiments/AOT/AOT_stimuli/rescaled_final/1428_rv.mp4	0.0	179.79177808761597	
10	160.54903483390808	fix_post	2		12	8.0	2.5	/experiments/AOT/AOT_stimuli/rescaled_final/1428_rv.mp4	0.0	180.70877504348755	0.10006594657897949
11	160.64910078048706	fix_pre	0		120	9.0	2.5	/experiments/AOT/AOT_stimuli/rescaled_final/1572_fw.mp4	0.0	180.80884099006653	0.9999690055847168
11	161.23253178596497	pulse	0	t		9.0	2.5	/experiments/AOT/AOT_stimuli/rescaled_final/1572_fw.mp4	0.0	181.39227199554443	
11	161.64906978607178	movie	1		246	9.0	2.5	/experiments/AOT/AOT_stimuli/rescaled_final/1572_fw.mp4	0.0	181.80880999565125	2.5000500679016113
11	162.83268690109253	pulse	1	t		9.0	2.5	/experiments/AOT/AOT_stimuli/rescaled_final/1572_fw.mp4	0.0	182.992427110672	
11	164.1491198539734	fix_post	2		12	9.0	2.5	/experiments/AOT/AOT_stimuli/rescaled_final/1572_fw.mp4	0.0	184.30886006355286	0.09996509552001953
12	164.2490849494934	fix_pre	0		120	10.0	2.5	/experiments/AOT/AOT_stimuli/rescaled_final/1308_rv.mp4	0.0	184.40882515907288	1.0000278949737549
12	164.43253087997437	pulse	0	t		10.0	2.5	/experiments/AOT/AOT_stimuli/rescaled_final/1308_rv.mp4	0.0	184.59227108955383	
12	165.24911284446716	movie	1		245	10.0	2.5	/experiments/AOT/AOT_stimuli/rescaled_final/1308_rv.mp4	0.0	185.40885305404663	2.499876022338867
12	166.03252387046814	pulse	1	t		10.0	2.5	/experiments/AOT/AOT_stimuli/rescaled_final/1308_rv.mp4	0.0	186.1922640800476	
12	167.6312379837036	pulse	1	t		10.0	2.5	/experiments/AOT/AOT_stimuli/rescaled_final/1308_rv.mp4	0.0	187.79097819328308	
12	167.74898886680603	fix_post	2		12	10.0	2.5	/experiments/AOT/AOT_stimuli/rescaled_final/1308_rv.mp4	0.0	187.9087290763855	0.0999910831451416
13	167.84897994995117	fix_pre	0		120	11.0	2.5	/experiments/AOT/AOT_stimuli/rescaled_final/0728_rv.mp4	0.0	188.00872015953064	1.0000720024108887
13	168.84905195236206	movie	1		243	11.0	2.5	/experiments/AOT/AOT_stimuli/rescaled_final/0728_rv.mp4	0.0	189.00879216194153	2.4999849796295166
13	169.23184895515442	pulse	1	t		11.0	2.5	/experiments/AOT/AOT_stimuli/rescaled_final/0728_rv.mp4	0.0	189.3915891647339	
13	170.83270287513733	pulse	1	t		11.0	2.5	/experiments/AOT/AOT_stimuli/rescaled_final/0728_rv.mp4	0.0	190.9924430847168	
13	171.34903693199158	fix_post	2		12	11.0	2.5	/experiments/AOT/AOT_stimuli/rescaled_final/0728_rv.mp4	0.0	191.50877714157104	0.09989285469055176
14	171.44892978668213	fix_pre	0		119	12.0	2.5	/experiments/AOT/AOT_stimuli/rescaled_final/0961_rv.mp4	0.0	191.6086699962616	0.9917540550231934
14	172.43253588676453	pulse	0	t		12.0	2.5	/experiments/AOT/AOT_stimuli/rescaled_final/0961_rv.mp4	0.0	192.592276096344	
14	172.44068384170532	movie	1		244	12.0	2.5	/experiments/AOT/AOT_stimuli/rescaled_final/0961_rv.mp4	0.0	192.6004240512848	2.507923126220703
14	174.03218793869019	pulse	1	t		12.0	2.5	/experiments/AOT/AOT_stimuli/rescaled_final/0961_rv.mp4	0.0	194.19192814826965	
14	174.94860696792603	fix_post	2		12	12.0	2.5	/experiments/AOT/AOT_stimuli/rescaled_final/0961_rv.mp4	0.0	195.1083471775055	0.1003730297088623
15	175.0489799976349	fix_pre	0		120	13.0	2.5	blank	1.0	195.20872020721436	1.0000379085540771
15	175.6324667930603	pulse	0	t		13.0	2.5	blank	1.0	195.79220700263977	
15	176.04901790618896	movie	1		300	13.0	2.5	blank	1.0	196.20875811576843	2.5000009536743164
15	177.23244881629944	pulse	1	t		13.0	2.5	blank	1.0	197.3921890258789	
15	178.54901885986328	fix_post	2		12	13.0	2.5	blank	1.0	198.70875906944275	0.10000395774841309
16	178.6490228176117	fix_pre	0		120	14.0	2.5	/experiments/AOT/AOT_stimuli/rescaled_final/1528_rv.mp4	0.0	198.80876302719116	0.9999401569366455
16	178.83251786231995	pulse	0	t		14.0	2.5	/experiments/AOT/AOT_stimuli/rescaled_final/1528_rv.mp4	0.0	198.9922580718994	
16	179.64896297454834	movie	1		249	14.0	2.5	/experiments/AOT/AOT_stimuli/rescaled_final/1528_rv.mp4	0.0	199.8087031841278	2.500062942504883
16	180.43237590789795	pulse	1	t		14.0	2.5	/experiments/AOT/AOT_stimuli/rescaled_final/1528_rv.mp4	0.0	200.59211611747742	
16	182.03197693824768	pulse	1	t		14.0	2.5	/experiments/AOT/AOT_stimuli/rescaled_final/1528_rv.mp4	0.0	202.19171714782715	
16	182.14902591705322	fix_post	2		12	14.0	2.5	/experiments/AOT/AOT_stimuli/rescaled_final/1528_rv.mp4	0.0	202.3087661266327	0.09989786148071289
17	182.24892377853394	fix_pre	0		120	15.0	2.5	/experiments/AOT/AOT_stimuli/rescaled_final/1055_fw.mp4	0.0	202.4086639881134	0.9999861717224121
17	183.24890995025635	movie	1		245	15.0	2.5	/experiments/AOT/AOT_stimuli/rescaled_final/1055_fw.mp4	0.0	203.40865015983582	2.5000689029693604
17	183.6320149898529	pulse	1	t		15.0	2.5	/experiments/AOT/AOT_stimuli/rescaled_final/1055_fw.mp4	0.0	203.79175519943237	
17	185.23234486579895	pulse	1	t		15.0	2.5	/experiments/AOT/AOT_stimuli/rescaled_final/1055_fw.mp4	0.0	205.39208507537842	
17	185.7489788532257	fix_post	2		12	15.0	2.5	/experiments/AOT/AOT_stimuli/rescaled_final/1055_fw.mp4	0.0	205.90871906280518	0.09999895095825195
18	185.84897780418396	fix_pre	0		119	16.0	2.5	/experiments/AOT/AOT_stimuli/rescaled_final/0642_fw.mp4	0.0	206.00871801376343	0.9916520118713379
18	186.83243083953857	pulse	0	t		16.0	2.5	/experiments/AOT/AOT_stimuli/rescaled_final/0642_fw.mp4	0.0	206.99217104911804	
18	186.8406298160553	movie	1		244	16.0	2.5	/experiments/AOT/AOT_stimuli/rescaled_final/0642_fw.mp4	0.0	207.00037002563477	2.5082170963287354
18	188.4324278831482	pulse	1	t		16.0	2.5	/experiments/AOT/AOT_stimuli/rescaled_final/0642_fw.mp4	0.0	208.59216809272766	
18	189.34884691238403	fix_post	2		12	16.0	2.5	/experiments/AOT/AOT_stimuli/rescaled_final/0642_fw.mp4	0.0	209.5085871219635	0.1000518798828125
19	189.44889879226685	fix_pre	0		120	17.0	2.5	/experiments/AOT/AOT_stimuli/rescaled_final/1341_fw.mp4	0.0	209.6086390018463	1.000025987625122
19	190.0324468612671	pulse	0	t		17.0	2.5	/experiments/AOT/AOT_stimuli/rescaled_final/1341_fw.mp4	0.0	210.19218707084656	
19	190.44892477989197	movie	1		244	17.0	2.5	/experiments/AOT/AOT_stimuli/rescaled_final/1341_fw.mp4	0.0	210.60866498947144	2.500049114227295
19	191.63248991966248	pulse	1	t		17.0	2.5	/experiments/AOT/AOT_stimuli/rescaled_final/1341_fw.mp4	0.0	211.79223012924194	
19	192.94897389411926	fix_post	2		12	17.0	2.5	/experiments/AOT/AOT_stimuli/rescaled_final/1341_fw.mp4	0.0	213.10871410369873	0.09994196891784668
20	193.0489158630371	fix_pre	0		120	18.0	2.5	/experiments/AOT/AOT_stimuli/rescaled_final/0961_fw.mp4	0.0	213.20865607261658	1.0000600814819336
20	193.2324628829956	pulse	0	t		18.0	2.5	/experiments/AOT/AOT_stimuli/rescaled_final/0961_fw.mp4	0.0	213.39220309257507	
20	194.04897594451904	movie	1		243	18.0	2.5	/experiments/AOT/AOT_stimuli/rescaled_final/0961_fw.mp4	0.0	214.2087161540985	2.500001907348633
20	194.83235788345337	pulse	1	t		18.0	2.5	/experiments/AOT/AOT_stimuli/rescaled_final/0961_fw.mp4	0.0	214.99209809303284	
20	196.44082283973694	pulse	1	t		18.0	2.5	/experiments/AOT/AOT_stimuli/rescaled_final/0961_fw.mp4	0.0	216.6005630493164	
20	196.54897785186768	fix_post	2		12	18.0	2.5	/experiments/AOT/AOT_stimuli/rescaled_final/0961_fw.mp4	0.0	216.70871806144714	0.09991908073425293
21	196.64889693260193	fix_pre	0		120	19.0	2.5	/experiments/AOT/AOT_stimuli/rescaled_final/0268_rv.mp4	0.0	216.8086371421814	0.999985933303833
21	197.64888286590576	movie	1		244	19.0	2.5	/experiments/AOT/AOT_stimuli/rescaled_final/0268_rv.mp4	0.0	217.80862307548523	2.5000529289245605
21	198.03183698654175	pulse	1	t		19.0	2.5	/experiments/AOT/AOT_stimuli/rescaled_final/0268_rv.mp4	0.0	218.19157719612122	
21	199.63228678703308	pulse	1	t		19.0	2.5	/experiments/AOT/AOT_stimuli/rescaled_final/0268_rv.mp4	0.0	219.79202699661255	
21	200.14893579483032	fix_post	2		12	19.0	2.5	/experiments/AOT/AOT_stimuli/rescaled_final/0268_rv.mp4	0.0	220.3086760044098	0.09995317459106445
22	200.2488889694214	fix_pre	0		119	20.0	2.5	/experiments/AOT/AOT_stimuli/rescaled_final/0053_rv.mp4	0.0	220.40862917900085	0.991657018661499
22	201.23231482505798	pulse	0	t		20.0	2.5	/experiments/AOT/AOT_stimuli/rescaled_final/0053_rv.mp4	0.0	221.39205503463745	
22	201.24054598808289	movie	1		245	20.0	2.5	/experiments/AOT/AOT_stimuli/rescaled_final/0053_rv.mp4	0.0	221.40028619766235	2.508375883102417
22	202.8320209980011	pulse	1	t		20.0	2.5	/experiments/AOT/AOT_stimuli/rescaled_final/0053_rv.mp4	0.0	222.99176120758057	
22	203.7489218711853	fix_post	2		12	20.0	2.5	/experiments/AOT/AOT_stimuli/rescaled_final/0053_rv.mp4	0.0	223.90866208076477	0.09997391700744629
23	203.84889578819275	fix_pre	0		120	21.0	2.5	blank	1.0	224.00863599777222	0.9999852180480957
23	204.4324369430542	pulse	0	t		21.0	2.5	blank	1.0	224.59217715263367	
23	204.84888100624084	movie	1		300	21.0	2.5	blank	1.0	225.0086212158203	2.5002388954162598
23	206.03200697898865	pulse	1	t		21.0	2.5	blank	1.0	226.19174718856812	
23	207.3491199016571	fix_post	2		12	21.0	2.5	blank	1.0	227.50886011123657	0.09960508346557617
24	207.44872498512268	fix_pre	0		120	22.0	2.5	/experiments/AOT/AOT_stimuli/rescaled_final/0786_fw.mp4	0.0	227.60846519470215	1.0001499652862549
24	207.63242197036743	pulse	0	t		22.0	2.5	/experiments/AOT/AOT_stimuli/rescaled_final/0786_fw.mp4	0.0	227.7921621799469	
24	208.44887495040894	movie	1		244	22.0	2.5	/experiments/AOT/AOT_stimuli/rescaled_final/0786_fw.mp4	0.0	228.6086151599884	2.5000288486480713
24	209.23228788375854	pulse	1	t		22.0	2.5	/experiments/AOT/AOT_stimuli/rescaled_final/0786_fw.mp4	0.0	229.392028093338	
24	210.84069895744324	pulse	1	t		22.0	2.5	/experiments/AOT/AOT_stimuli/rescaled_final/0786_fw.mp4	0.0	231.0004391670227	
24	210.948903799057	fix_post	2		12	22.0	2.5	/experiments/AOT/AOT_stimuli/rescaled_final/0786_fw.mp4	0.0	231.10864400863647	0.09998202323913574
25	211.04888582229614	fix_pre	0		120	23.0	2.5	/experiments/AOT/AOT_stimuli/rescaled_final/1559_fw.mp4	0.0	231.2086260318756	1.0000500679016113
25	212.04893589019775	movie	1		244	23.0	2.5	/experiments/AOT/AOT_stimuli/rescaled_final/1559_fw.mp4	0.0	232.20867609977722	2.4997990131378174
25	212.4316279888153	pulse	1	t		23.0	2.5	/experiments/AOT/AOT_stimuli/rescaled_final/1559_fw.mp4	0.0	232.59136819839478	
25	214.03225684165955	pulse	1	t		23.0	2.5	/experiments/AOT/AOT_stimuli/rescaled_final/1559_fw.mp4	0.0	234.191997051239	
25	214.54873490333557	fix_post	2		12	23.0	2.5	/experiments/AOT/AOT_stimuli/rescaled_final/1559_fw.mp4	0.0	234.70847511291504	0.1000969409942627
26	214.64883184432983	fix_pre	0		119	24.0	2.5	/experiments/AOT/AOT_stimuli/rescaled_final/1937_rv.mp4	0.0	234.8085720539093	0.9916300773620605
26	215.63223385810852	pulse	0	t		24.0	2.5	/experiments/AOT/AOT_stimuli/rescaled_final/1937_rv.mp4	0.0	235.791974067688	
26	215.6404619216919	movie	1		245	24.0	2.5	/experiments/AOT/AOT_stimuli/rescaled_final/1937_rv.mp4	0.0	235.80020213127136	2.508312940597534
26	217.23220777511597	pulse	1	t		24.0	2.5	/experiments/AOT/AOT_stimuli/rescaled_final/1937_rv.mp4	0.0	237.39194798469543	
26	218.14877486228943	fix_post	2		12	24.0	2.5	/experiments/AOT/AOT_stimuli/rescaled_final/1937_rv.mp4	0.0	238.3085150718689	0.09996604919433594
27	218.24874091148376	fix_pre	0		120	25.0	2.5	/experiments/AOT/AOT_stimuli/rescaled_final/1882_rv.mp4	0.0	238.40848112106323	1.000140905380249
27	218.8322048187256	pulse	0	t		25.0	2.5	/experiments/AOT/AOT_stimuli/rescaled_final/1882_rv.mp4	0.0	238.99194502830505	
27	219.248881816864	movie	1		243	25.0	2.5	/experiments/AOT/AOT_stimuli/rescaled_final/1882_rv.mp4	0.0	239.40862202644348	2.499941110610962
27	220.43224000930786	pulse	1	t		25.0	2.5	/experiments/AOT/AOT_stimuli/rescaled_final/1882_rv.mp4	0.0	240.59198021888733	
27	221.74882292747498	fix_post	2		12	25.0	2.5	/experiments/AOT/AOT_stimuli/rescaled_final/1882_rv.mp4	0.0	241.90856313705444	0.09999990463256836
28	221.84882283210754	fix_pre	0		120	26.0	2.5	/experiments/AOT/AOT_stimuli/rescaled_final/0963_rv.mp4	0.0	242.008563041687	1.0000510215759277
28	222.0322368144989	pulse	0	t		26.0	2.5	/experiments/AOT/AOT_stimuli/rescaled_final/0963_rv.mp4	0.0	242.19197702407837	
28	222.84887385368347	movie	1		245	26.0	2.5	/experiments/AOT/AOT_stimuli/rescaled_final/0963_rv.mp4	0.0	243.00861406326294	2.499933958053589
28	223.63218879699707	pulse	1	t		26.0	2.5	/experiments/AOT/AOT_stimuli/rescaled_final/0963_rv.mp4	0.0	243.79192900657654	
28	225.23174500465393	pulse	1	t		26.0	2.5	/experiments/AOT/AOT_stimuli/rescaled_final/0963_rv.mp4	0.0	245.3914852142334	
28	225.34880781173706	fix_post	2		12	26.0	2.5	/experiments/AOT/AOT_stimuli/rescaled_final/0963_rv.mp4	0.0	245.50854802131653	0.09992098808288574
29	225.44872879981995	fix_pre	0		120	27.0	2.5	/experiments/AOT/AOT_stimuli/rescaled_final/1258_fw.mp4	0.0	245.6084690093994	1.0001370906829834
29	226.44886589050293	movie	1		245	27.0	2.5	/experiments/AOT/AOT_stimuli/rescaled_final/1258_fw.mp4	0.0	246.6086061000824	2.499917984008789
29	226.83221292495728	pulse	1	t		27.0	2.5	/experiments/AOT/AOT_stimuli/rescaled_final/1258_fw.mp4	0.0	246.99195313453674	
29	228.43229293823242	pulse	1	t		27.0	2.5	/experiments/AOT/AOT_stimuli/rescaled_final/1258_fw.mp4	0.0	248.5920331478119	
29	228.94878387451172	fix_post	2		12	27.0	2.5	/experiments/AOT/AOT_stimuli/rescaled_final/1258_fw.mp4	0.0	249.1085240840912	0.10000896453857422
30	229.0487928390503	fix_pre	0		119	28.0	2.5	blank	1.0	249.20853304862976	0.9915671348571777
30	230.03220582008362	pulse	0	t		28.0	2.5	blank	1.0	250.1919460296631	
30	230.04035997390747	movie	1		301	28.0	2.5	blank	1.0	250.20010018348694	2.5083558559417725
30	231.63224697113037	pulse	1	t		28.0	2.5	blank	1.0	251.79198718070984	
30	232.54871582984924	fix_post	2		12	28.0	2.5	blank	1.0	252.7084560394287	0.09998607635498047
31	232.64870190620422	fix_pre	0		120	29.0	2.5	/experiments/AOT/AOT_stimuli/rescaled_final/0349_fw.mp4	0.0	252.8084421157837	1.0000669956207275
31	233.23225092887878	pulse	0	t		29.0	2.5	/experiments/AOT/AOT_stimuli/rescaled_final/0349_fw.mp4	0.0	253.39199113845825	
31	233.64876890182495	movie	1		243	29.0	2.5	/experiments/AOT/AOT_stimuli/rescaled_final/0349_fw.mp4	0.0	253.80850911140442	2.5004820823669434
31	234.8323359489441	pulse	1	t		29.0	2.5	/experiments/AOT/AOT_stimuli/rescaled_final/0349_fw.mp4	0.0	254.99207615852356	
31	236.1492509841919	fix_post	2		12	29.0	2.5	/experiments/AOT/AOT_stimuli/rescaled_final/0349_fw.mp4	0.0	256.30899119377136	0.09962582588195801
32	236.24887681007385	fix_pre	0		120	30.0	2.5	/experiments/AOT/AOT_stimuli/rescaled_final/0148_rv.mp4	0.0	256.4086170196533	0.9998230934143066
32	236.43214583396912	pulse	0	t		30.0	2.5	/experiments/AOT/AOT_stimuli/rescaled_final/0148_rv.mp4	0.0	256.5918860435486	
32	237.24869990348816	movie	1		244	30.0	2.5	/experiments/AOT/AOT_stimuli/rescaled_final/0148_rv.mp4	0.0	257.4084401130676	2.499958038330078
32	238.0322208404541	pulse	1	t		30.0	2.5	/experiments/AOT/AOT_stimuli/rescaled_final/0148_rv.mp4	0.0	258.19196105003357	
32	239.64059686660767	pulse	1	t		30.0	2.5	/experiments/AOT/AOT_stimuli/rescaled_final/0148_rv.mp4	0.0	259.80033707618713	
32	239.74865794181824	fix_post	2		12	30.0	2.5	/experiments/AOT/AOT_stimuli/rescaled_final/0148_rv.mp4	0.0	259.9083981513977	0.10008001327514648
33	239.84873795509338	fix_pre	0		120	31.0	2.5	/experiments/AOT/AOT_stimuli/rescaled_final/0728_fw.mp4	0.0	260.00847816467285	0.9999709129333496
33	240.84870886802673	movie	1		244	31.0	2.5	/experiments/AOT/AOT_stimuli/rescaled_final/0728_fw.mp4	0.0	261.0084490776062	2.4999780654907227
33	241.23230695724487	pulse	1	t		31.0	2.5	/experiments/AOT/AOT_stimuli/rescaled_final/0728_fw.mp4	0.0	261.39204716682434	
33	242.83216190338135	pulse	1	t		31.0	2.5	/experiments/AOT/AOT_stimuli/rescaled_final/0728_fw.mp4	0.0	262.9919021129608	
33	243.34868693351746	fix_post	2		12	31.0	2.5	/experiments/AOT/AOT_stimuli/rescaled_final/0728_fw.mp4	0.0	263.5084271430969	0.09994792938232422
34	243.44863486289978	fix_pre	0		119	32.0	2.5	/experiments/AOT/AOT_stimuli/rescaled_final/0268_fw.mp4	0.0	263.60837507247925	0.9916279315948486
34	244.4322259426117	pulse	0	t		32.0	2.5	/experiments/AOT/AOT_stimuli/rescaled_final/0268_fw.mp4	0.0	264.59196615219116	
34	244.44026279449463	movie	1		246	32.0	2.5	/experiments/AOT/AOT_stimuli/rescaled_final/0268_fw.mp4	0.0	264.6000030040741	2.5084500312805176
34	246.03146600723267	pulse	1	t		32.0	2.5	/experiments/AOT/AOT_stimuli/rescaled_final/0268_fw.mp4	0.0	266.19120621681213	
34	246.94871282577515	fix_post	2		12	32.0	2.5	/experiments/AOT/AOT_stimuli/rescaled_final/0268_fw.mp4	0.0	267.1084530353546	0.09991002082824707
35	247.0486228466034	fix_pre	0		120	33.0	2.5	/experiments/AOT/AOT_stimuli/rescaled_final/1792_rv.mp4	0.0	267.20836305618286	0.9997420310974121
35	247.63213300704956	pulse	0	t		33.0	2.5	/experiments/AOT/AOT_stimuli/rescaled_final/1792_rv.mp4	0.0	267.791873216629	
35	248.0483648777008	movie	1		244	33.0	2.5	/experiments/AOT/AOT_stimuli/rescaled_final/1792_rv.mp4	0.0	268.2081050872803	2.500288963317871
35	249.23214387893677	pulse	1	t		33.0	2.5	/experiments/AOT/AOT_stimuli/rescaled_final/1792_rv.mp4	0.0	269.39188408851624	
35	250.54865384101868	fix_post	2		12	33.0	2.5	/experiments/AOT/AOT_stimuli/rescaled_final/1792_rv.mp4	0.0	270.70839405059814	0.09997701644897461
36	250.64863085746765	fix_pre	0		120	34.0	2.5	/experiments/AOT/AOT_stimuli/rescaled_final/0019_rv.mp4	0.0	270.8083710670471	1.0000910758972168
36	250.83216285705566	pulse	0	t		34.0	2.5	/experiments/AOT/AOT_stimuli/rescaled_final/0019_rv.mp4	0.0	270.99190306663513	
36	251.64872193336487	movie	1		244	34.0	2.5	/experiments/AOT/AOT_stimuli/rescaled_final/0019_rv.mp4	0.0	271.80846214294434	2.4999990463256836
36	252.43208694458008	pulse	1	t		34.0	2.5	/experiments/AOT/AOT_stimuli/rescaled_final/0019_rv.mp4	0.0	272.59182715415955	
36	254.04051089286804	pulse	1	t		34.0	2.5	/experiments/AOT/AOT_stimuli/rescaled_final/0019_rv.mp4	0.0	274.2002511024475	
36	254.14872097969055	fix_post	2		12	34.0	2.5	/experiments/AOT/AOT_stimuli/rescaled_final/0019_rv.mp4	0.0	274.30846118927	0.09986186027526855
37	254.24858283996582	fix_pre	0		120	35.0	2.5	blank	1.0	274.4083230495453	1.0000030994415283
37	255.24858593940735	movie	1		300	35.0	2.5	blank	1.0	275.4083261489868	2.4999759197235107
37	255.63213682174683	pulse	1	t		35.0	2.5	blank	1.0	275.7918770313263	
37	257.2321939468384	pulse	1	t		35.0	2.5	blank	1.0	277.39193415641785	
37	257.74856185913086	fix_post	2		12	35.0	2.5	blank	1.0	277.9083020687103	0.100006103515625
38	257.8485679626465	fix_pre	0		119	36.0	2.5	/experiments/AOT/AOT_stimuli/rescaled_final/1229_rv.mp4	0.0	278.00830817222595	0.9917140007019043
38	258.83203291893005	pulse	0	t		36.0	2.5	/experiments/AOT/AOT_stimuli/rescaled_final/1229_rv.mp4	0.0	278.9917731285095	
38	258.8402819633484	movie	1		247	36.0	2.5	/experiments/AOT/AOT_stimuli/rescaled_final/1229_rv.mp4	0.0	279.00002217292786	2.5079808235168457
38	260.44056487083435	pulse	1	t		36.0	2.5	/experiments/AOT/AOT_stimuli/rescaled_final/1229_rv.mp4	0.0	280.6003050804138	
38	261.34826278686523	fix_post	2		12	36.0	2.5	/experiments/AOT/AOT_stimuli/rescaled_final/1229_rv.mp4	0.0	281.5080029964447	0.1003570556640625
39	261.4486198425293	fix_pre	0		120	37.0	2.5	/experiments/AOT/AOT_stimuli/rescaled_final/0750_fw.mp4	0.0	281.60836005210876	1.0001599788665771
39	262.0323088169098	pulse	0	t		37.0	2.5	/experiments/AOT/AOT_stimuli/rescaled_final/0750_fw.mp4	0.0	282.19204902648926	
39	262.4487798213959	movie	1		244	37.0	2.5	/experiments/AOT/AOT_stimuli/rescaled_final/0750_fw.mp4	0.0	282.60852003097534	2.4998161792755127
39	263.63200879096985	pulse	1	t		37.0	2.5	/experiments/AOT/AOT_stimuli/rescaled_final/0750_fw.mp4	0.0	283.7917490005493	
39	264.9485960006714	fix_post	2		12	37.0	2.5	/experiments/AOT/AOT_stimuli/rescaled_final/0750_fw.mp4	0.0	285.10833621025085	0.10002684593200684
40	265.0486228466034	fix_pre	0		120	38.0	2.5	/experiments/AOT/AOT_stimuli/rescaled_final/1615_rv.mp4	0.0	285.20836305618286	0.9999361038208008
40	265.23201298713684	pulse	0	t		38.0	2.5	/experiments/AOT/AOT_stimuli/rescaled_final/1615_rv.mp4	0.0	285.3917531967163	
40	266.0485589504242	movie	1		248	38.0	2.5	/experiments/AOT/AOT_stimuli/rescaled_final/1615_rv.mp4	0.0	286.20829916000366	2.4999680519104004
40	266.8329498767853	pulse	1	t		38.0	2.5	/experiments/AOT/AOT_stimuli/rescaled_final/1615_rv.mp4	0.0	286.99269008636475	
40	268.43205094337463	pulse	1	t		38.0	2.5	/experiments/AOT/AOT_stimuli/rescaled_final/1615_rv.mp4	0.0	288.5917911529541	
40	268.5485270023346	fix_post	2		12	38.0	2.5	/experiments/AOT/AOT_stimuli/rescaled_final/1615_rv.mp4	0.0	288.70826721191406	0.10003900527954102
41	268.64856600761414	fix_pre	0		120	39.0	2.5	/experiments/AOT/AOT_stimuli/rescaled_final/0832_rv.mp4	0.0	288.8083062171936	0.9999308586120605
41	269.6484968662262	movie	1		245	39.0	2.5	/experiments/AOT/AOT_stimuli/rescaled_final/0832_rv.mp4	0.0	289.80823707580566	2.4999771118164062
41	270.0320448875427	pulse	1	t		39.0	2.5	/experiments/AOT/AOT_stimuli/rescaled_final/0832_rv.mp4	0.0	290.1917850971222	
41	271.6320638656616	pulse	1	t		39.0	2.5	/experiments/AOT/AOT_stimuli/rescaled_final/0832_rv.mp4	0.0	291.7918040752411	
41	272.1484739780426	fix_post	2		12	39.0	2.5	/experiments/AOT/AOT_stimuli/rescaled_final/0832_rv.mp4	0.0	292.30821418762207	0.10004901885986328
42	272.24852299690247	fix_pre	0		119	40.0	2.5	/experiments/AOT/AOT_stimuli/rescaled_final/0300_fw.mp4	0.0	292.40826320648193	0.9916508197784424
42	273.2319869995117	pulse	0	t		40.0	2.5	/experiments/AOT/AOT_stimuli/rescaled_final/0300_fw.mp4	0.0	293.3917272090912	
42	273.2401738166809	movie	1		245	40.0	2.5	/experiments/AOT/AOT_stimuli/rescaled_final/0300_fw.mp4	0.0	293.3999140262604	2.5083019733428955
42	274.83192777633667	pulse	1	t		40.0	2.5	/experiments/AOT/AOT_stimuli/rescaled_final/0300_fw.mp4	0.0	294.99166798591614	
42	275.7484757900238	fix_post	2		12	40.0	2.5	/experiments/AOT/AOT_stimuli/rescaled_final/0300_fw.mp4	0.0	295.90821599960327	0.09994721412658691
43	275.8484230041504	fix_pre	0		120	41.0	2.5	blank	1.0	296.00816321372986	1.000032901763916
43	276.43194580078125	pulse	0	t		41.0	2.5	blank	1.0	296.5916860103607	
43	276.8484559059143	movie	1		300	41.0	2.5	blank	1.0	297.0081961154938	2.5000438690185547
43	278.03195095062256	pulse	1	t		41.0	2.5	blank	1.0	298.191691160202	
43	279.34849977493286	fix_post	2		12	41.0	2.5	blank	1.0	299.50823998451233	0.10001611709594727
44	279.4485158920288	fix_pre	0		120	42.0	2.5	/experiments/AOT/AOT_stimuli/rescaled_final/0252_rv.mp4	0.0	299.6082561016083	1.000011920928955
44	279.63212990760803	pulse	0	t		42.0	2.5	/experiments/AOT/AOT_stimuli/rescaled_final/0252_rv.mp4	0.0	299.7918701171875	
44	280.44852781295776	movie	1		245	42.0	2.5	/experiments/AOT/AOT_stimuli/rescaled_final/0252_rv.mp4	0.0	300.60826802253723	2.499941110610962
44	281.23204588890076	pulse	1	t		42.0	2.5	/experiments/AOT/AOT_stimuli/rescaled_final/0252_rv.mp4	0.0	301.3917860984802	
44	282.840402841568	pulse	1	t		42.0	2.5	/experiments/AOT/AOT_stimuli/rescaled_final/0252_rv.mp4	0.0	303.00014305114746	
44	282.9484689235687	fix_post	2		12	42.0	2.5	/experiments/AOT/AOT_stimuli/rescaled_final/0252_rv.mp4	0.0	303.1082091331482	0.09995198249816895
45	283.0484209060669	fix_pre	0		120	43.0	2.5	/experiments/AOT/AOT_stimuli/rescaled_final/1966_fw.mp4	0.0	303.20816111564636	1.000067949295044
45	284.04848885536194	movie	1		243	43.0	2.5	/experiments/AOT/AOT_stimuli/rescaled_final/1966_fw.mp4	0.0	304.2082290649414	2.5000550746917725
45	284.4319717884064	pulse	1	t		43.0	2.5	/experiments/AOT/AOT_stimuli/rescaled_final/1966_fw.mp4	0.0	304.59171199798584	
45	286.03282594680786	pulse	1	t		43.0	2.5	/experiments/AOT/AOT_stimuli/rescaled_final/1966_fw.mp4	0.0	306.19256615638733	
45	286.5485439300537	fix_post	2		12	43.0	2.5	/experiments/AOT/AOT_stimuli/rescaled_final/1966_fw.mp4	0.0	306.7082841396332	0.09992194175720215
46	286.6484658718109	fix_pre	0		119	44.0	2.5	/experiments/AOT/AOT_stimuli/rescaled_final/0605_fw.mp4	0.0	306.8082060813904	0.9916160106658936
46	287.6319007873535	pulse	0	t		44.0	2.5	/experiments/AOT/AOT_stimuli/rescaled_final/0605_fw.mp4	0.0	307.791640996933	
46	287.6400818824768	movie	1		246	44.0	2.5	/experiments/AOT/AOT_stimuli/rescaled_final/0605_fw.mp4	0.0	307.7998220920563	2.5079519748687744
46	289.24024391174316	pulse	1	t		44.0	2.5	/experiments/AOT/AOT_stimuli/rescaled_final/0605_fw.mp4	0.0	309.39998412132263	
46	290.1480338573456	fix_post	2		12	44.0	2.5	/experiments/AOT/AOT_stimuli/rescaled_final/0605_fw.mp4	0.0	310.30777406692505	0.10043501853942871
47	290.248468875885	fix_pre	0		120	45.0	2.5	/experiments/AOT/AOT_stimuli/rescaled_final/0782_rv.mp4	0.0	310.4082090854645	0.9999420642852783
47	290.8319318294525	pulse	0	t		45.0	2.5	/experiments/AOT/AOT_stimuli/rescaled_final/0782_rv.mp4	0.0	310.991672039032	
47	291.2484109401703	movie	1		246	45.0	2.5	/experiments/AOT/AOT_stimuli/rescaled_final/0782_rv.mp4	0.0	311.40815114974976	2.5001399517059326
47	292.43197989463806	pulse	1	t		45.0	2.5	/experiments/AOT/AOT_stimuli/rescaled_final/0782_rv.mp4	0.0	312.59172010421753	
47	293.7485508918762	fix_post	2		12	45.0	2.5	/experiments/AOT/AOT_stimuli/rescaled_final/0782_rv.mp4	0.0	313.9082911014557	0.09994697570800781
48	293.84849786758423	fix_pre	0		120	46.0	2.5	/experiments/AOT/AOT_stimuli/rescaled_final/0780_rv.mp4	0.0	314.0082380771637	0.9999871253967285
48	294.03193378448486	pulse	0	t		46.0	2.5	/experiments/AOT/AOT_stimuli/rescaled_final/0780_rv.mp4	0.0	314.19167399406433	
48	294.84848499298096	movie	1		247	46.0	2.5	/experiments/AOT/AOT_stimuli/rescaled_final/0780_rv.mp4	0.0	315.0082252025604	2.499511957168579
48	295.63186383247375	pulse	1	t		46.0	2.5	/experiments/AOT/AOT_stimuli/rescaled_final/0780_rv.mp4	0.0	315.7916040420532	
48	297.2319219112396	pulse	1	t		46.0	2.5	/experiments/AOT/AOT_stimuli/rescaled_final/0780_rv.mp4	0.0	317.3916621208191	
48	297.34799695014954	fix_post	2		12	46.0	2.5	/experiments/AOT/AOT_stimuli/rescaled_final/0780_rv.mp4	0.0	317.507737159729	0.10044193267822266
49	297.44843888282776	fix_pre	0		120	47.0	2.5	/experiments/AOT/AOT_stimuli/rescaled_final/1614_rv.mp4	0.0	317.6081790924072	0.9999990463256836
49	298.44843792915344	movie	1		244	47.0	2.5	/experiments/AOT/AOT_stimuli/rescaled_final/1614_rv.mp4	0.0	318.6081781387329	2.4999849796295166
49	298.8329658508301	pulse	1	t		47.0	2.5	/experiments/AOT/AOT_stimuli/rescaled_final/1614_rv.mp4	0.0	318.99270606040955	
49	300.4319999217987	pulse	1	t		47.0	2.5	/experiments/AOT/AOT_stimuli/rescaled_final/1614_rv.mp4	0.0	320.5917401313782	
49	300.94842290878296	fix_post	2		12	47.0	2.5	/experiments/AOT/AOT_stimuli/rescaled_final/1614_rv.mp4	0.0	321.1081631183624	0.09996509552001953
50	301.048388004303	fix_pre	0		119	48.0	2.5	blank	1.0	321.20812821388245	0.9916069507598877
50	302.03194785118103	pulse	0	t		48.0	2.5	blank	1.0	322.1916880607605	
50	302.03999495506287	movie	1		301	48.0	2.5	blank	1.0	322.19973516464233	2.5083658695220947
50	303.63186383247375	pulse	1	t		48.0	2.5	blank	1.0	323.7916040420532	
50	304.54836082458496	fix_post	2		12	48.0	2.5	blank	1.0	324.70810103416443	0.10001206398010254
51	304.64837288856506	fix_pre	0		120	49.0	2.5	/experiments/AOT/AOT_stimuli/rescaled_final/1470_rv.mp4	0.0	324.80811309814453	1.000014066696167
51	305.2318398952484	pulse	0	t		49.0	2.5	/experiments/AOT/AOT_stimuli/rescaled_final/1470_rv.mp4	0.0	325.3915801048279	
51	305.64838695526123	movie	1		243	49.0	2.5	/experiments/AOT/AOT_stimuli/rescaled_final/1470_rv.mp4	0.0	325.8081271648407	2.500041961669922
51	306.8319368362427	pulse	1	t		49.0	2.5	/experiments/AOT/AOT_stimuli/rescaled_final/1470_rv.mp4	0.0	326.99167704582214	
51	308.14842891693115	fix_post	2		12	49.0	2.5	/experiments/AOT/AOT_stimuli/rescaled_final/1470_rv.mp4	0.0	328.3081691265106	0.1000070571899414
52	308.2484359741211	fix_pre	0		120	50.0	2.5	/experiments/AOT/AOT_stimuli/rescaled_final/1615_rv.mp4	0.0	328.40817618370056	0.9999809265136719
52	308.4318859577179	pulse	0	t		50.0	2.5	/experiments/AOT/AOT_stimuli/rescaled_final/1615_rv.mp4	0.0	328.59162616729736	
52	309.24841690063477	movie	1		245	50.0	2.5	/experiments/AOT/AOT_stimuli/rescaled_final/1615_rv.mp4	0.0	329.40815711021423	2.5000689029693604
52	310.03184485435486	pulse	1	t		50.0	2.5	/experiments/AOT/AOT_stimuli/rescaled_final/1615_rv.mp4	0.0	330.1915850639343	
52	311.63186478614807	pulse	1	t		50.0	2.5	/experiments/AOT/AOT_stimuli/rescaled_final/1615_rv.mp4	0.0	331.79160499572754	
52	311.7484858036041	fix_post	2		12	50.0	2.5	/experiments/AOT/AOT_stimuli/rescaled_final/1615_rv.mp4	0.0	331.9082260131836	0.09982514381408691
53	311.8483109474182	fix_pre	0		120	51.0	2.5	/experiments/AOT/AOT_stimuli/rescaled_final/1817_fw.mp4	0.0	332.0080511569977	1.000119924545288
53	312.8484308719635	movie	1		245	51.0	2.5	/experiments/AOT/AOT_stimuli/rescaled_final/1817_fw.mp4	0.0	333.00817108154297	2.499941110610962
53	313.23182678222656	pulse	1	t		51.0	2.5	/experiments/AOT/AOT_stimuli/rescaled_final/1817_fw.mp4	0.0	333.39156699180603	
53	314.83275294303894	pulse	1	t		51.0	2.5	/experiments/AOT/AOT_stimuli/rescaled_final/1817_fw.mp4	0.0	334.9924931526184	
53	315.34837198257446	fix_post	2		12	51.0	2.5	/experiments/AOT/AOT_stimuli/rescaled_final/1817_fw.mp4	0.0	335.50811219215393	0.09993696212768555
54	315.44830894470215	fix_pre	0		120	52.0	2.5	/experiments/AOT/AOT_stimuli/rescaled_final/1777_fw.mp4	0.0	335.6080491542816	0.999614953994751
54	316.4322249889374	pulse	0	t		52.0	2.5	/experiments/AOT/AOT_stimuli/rescaled_final/1777_fw.mp4	0.0	336.59196519851685	
54	316.4479238986969	movie	1		246	52.0	2.5	/experiments/AOT/AOT_stimuli/rescaled_final/1777_fw.mp4	0.0	336.60766410827637	2.508563995361328
54	318.0318958759308	pulse	1	t		52.0	2.5	/experiments/AOT/AOT_stimuli/rescaled_final/1777_fw.mp4	0.0	338.19163608551025	
54	318.9564878940582	fix_post	2		12	52.0	2.5	/experiments/AOT/AOT_stimuli/rescaled_final/1777_fw.mp4	0.0	339.1162281036377	0.10041594505310059
55	319.0569038391113	fix_pre	0		120	53.0	2.5	/experiments/AOT/AOT_stimuli/rescaled_final/2133_rv.mp4	0.0	339.2166440486908	0.9997191429138184
55	319.63192796707153	pulse	0	t		53.0	2.5	/experiments/AOT/AOT_stimuli/rescaled_final/2133_rv.mp4	0.0	339.791668176651	
55	320.05662298202515	movie	1		246	53.0	2.5	/experiments/AOT/AOT_stimuli/rescaled_final/2133_rv.mp4	0.0	340.2163631916046	2.4996368885040283
55	321.24024987220764	pulse	1	t		53.0	2.5	/experiments/AOT/AOT_stimuli/rescaled_final/2133_rv.mp4	0.0	341.3999900817871	
55	322.5562598705292	fix_post	2		12	53.0	2.5	/experiments/AOT/AOT_stimuli/rescaled_final/2133_rv.mp4	0.0	342.71600008010864	0.10036993026733398
56	322.6566298007965	fix_pre	0		120	54.0	2.5	/experiments/AOT/AOT_stimuli/rescaled_final/0295_rv.mp4	0.0	342.816370010376	1.0000159740447998
56	322.83178186416626	pulse	0	t		54.0	2.5	/experiments/AOT/AOT_stimuli/rescaled_final/0295_rv.mp4	0.0	342.9915220737457	
56	323.6566457748413	movie	1		244	54.0	2.5	/experiments/AOT/AOT_stimuli/rescaled_final/0295_rv.mp4	0.0	343.8163859844208	2.4995250701904297
56	324.43171191215515	pulse	1	t		54.0	2.5	/experiments/AOT/AOT_stimuli/rescaled_final/0295_rv.mp4	0.0	344.5914521217346	
56	326.03165888786316	pulse	1	t		54.0	2.5	/experiments/AOT/AOT_stimuli/rescaled_final/0295_rv.mp4	0.0	346.1913990974426	
56	326.15617084503174	fix_post	2		12	54.0	2.5	/experiments/AOT/AOT_stimuli/rescaled_final/0295_rv.mp4	0.0	346.3159110546112	0.10046911239624023
57	326.256639957428	fix_pre	0		120	55.0	2.5	blank	1.0	346.41638016700745	0.9999430179595947
57	327.2565829753876	movie	1		300	55.0	2.5	blank	1.0	347.41632318496704	2.4999918937683105
57	327.6317849159241	pulse	1	t		55.0	2.5	blank	1.0	347.79152512550354	
57	329.23175287246704	pulse	1	t		55.0	2.5	blank	1.0	349.3914930820465	
57	329.7565748691559	fix_post	2		12	55.0	2.5	blank	1.0	349.91631507873535	0.0999910831451416
58	329.856565952301	fix_pre	0		119	56.0	2.5	/experiments/AOT/AOT_stimuli/rescaled_final/0277_rv.mp4	0.0	350.0163061618805	0.9916248321533203
58	330.8325219154358	pulse	0	t		56.0	2.5	/experiments/AOT/AOT_stimuli/rescaled_final/0277_rv.mp4	0.0	350.99226212501526	
58	330.84819078445435	movie	1		247	56.0	2.5	/experiments/AOT/AOT_stimuli/rescaled_final/0277_rv.mp4	0.0	351.0079309940338	2.508388042449951
58	332.4400429725647	pulse	1	t		56.0	2.5	/experiments/AOT/AOT_stimuli/rescaled_final/0277_rv.mp4	0.0	352.59978318214417	
58	333.3565788269043	fix_post	2		12	56.0	2.5	/experiments/AOT/AOT_stimuli/rescaled_final/0277_rv.mp4	0.0	353.51631903648376	0.09996509552001953
59	333.4565439224243	fix_pre	0		120	57.0	2.5	/experiments/AOT/AOT_stimuli/rescaled_final/0750_rv.mp4	0.0	353.6162841320038	1.0000300407409668
59	334.03254985809326	pulse	0	t		57.0	2.5	/experiments/AOT/AOT_stimuli/rescaled_final/0750_rv.mp4	0.0	354.19229006767273	
59	334.4565739631653	movie	1		246	57.0	2.5	/experiments/AOT/AOT_stimuli/rescaled_final/0750_rv.mp4	0.0	354.61631417274475	2.49993896484375
59	335.640105009079	pulse	1	t		57.0	2.5	/experiments/AOT/AOT_stimuli/rescaled_final/0750_rv.mp4	0.0	355.79984521865845	
59	336.95651292800903	fix_post	2		12	57.0	2.5	/experiments/AOT/AOT_stimuli/rescaled_final/0750_rv.mp4	0.0	357.1162531375885	0.10004591941833496
60	337.05655884742737	fix_pre	0		120	58.0	2.5	/experiments/AOT/AOT_stimuli/rescaled_final/0741_fw.mp4	0.0	357.21629905700684	1.0000500679016113
60	337.23172783851624	pulse	0	t		58.0	2.5	/experiments/AOT/AOT_stimuli/rescaled_final/0741_fw.mp4	0.0	357.3914680480957	
60	338.056608915329	movie	1		246	58.0	2.5	/experiments/AOT/AOT_stimuli/rescaled_final/0741_fw.mp4	0.0	358.21634912490845	2.499872922897339
60	338.83171582221985	pulse	1	t		58.0	2.5	/experiments/AOT/AOT_stimuli/rescaled_final/0741_fw.mp4	0.0	358.9914560317993	
60	340.43166494369507	pulse	1	t		58.0	2.5	/experiments/AOT/AOT_stimuli/rescaled_final/0741_fw.mp4	0.0	360.59140515327454	
60	340.5564818382263	fix_post	2		12	58.0	2.5	/experiments/AOT/AOT_stimuli/rescaled_final/0741_fw.mp4	0.0	360.7162220478058	0.10002803802490234
61	340.6565098762512	fix_pre	0		120	59.0	2.5	/experiments/AOT/AOT_stimuli/rescaled_final/0565_rv.mp4	0.0	360.8162500858307	1.0000510215759277
61	341.65656089782715	movie	1		245	59.0	2.5	/experiments/AOT/AOT_stimuli/rescaled_final/0565_rv.mp4	0.0	361.8163011074066	2.4998669624328613
61	342.03171396255493	pulse	1	t		59.0	2.5	/experiments/AOT/AOT_stimuli/rescaled_final/0565_rv.mp4	0.0	362.1914541721344	
61	343.6316947937012	pulse	1	t		59.0	2.5	/experiments/AOT/AOT_stimuli/rescaled_final/0565_rv.mp4	0.0	363.79143500328064	
61	344.15642786026	fix_post	2		12	59.0	2.5	/experiments/AOT/AOT_stimuli/rescaled_final/0565_rv.mp4	0.0	364.3161680698395	0.10001611709594727
62	344.25644397735596	fix_pre	0		118	60.0	2.5	/experiments/AOT/AOT_stimuli/rescaled_final/0682_rv.mp4	0.0	364.4161841869354	0.9833769798278809
62	345.23160195350647	pulse	0	t		60.0	2.5	/experiments/AOT/AOT_stimuli/rescaled_final/0682_rv.mp4	0.0	365.39134216308594	
62	345.23982095718384	movie	1		246	60.0	2.5	/experiments/AOT/AOT_stimuli/rescaled_final/0682_rv.mp4	0.0	365.3995611667633	2.508319854736328
62	346.8312277793884	pulse	1	t		60.0	2.5	/experiments/AOT/AOT_stimuli/rescaled_final/0682_rv.mp4	0.0	366.9909679889679	
62	347.74814081192017	fix_post	2		12	60.0	2.5	/experiments/AOT/AOT_stimuli/rescaled_final/0682_rv.mp4	0.0	367.90788102149963	0.09997797012329102
63	347.84811878204346	fix_pre	0		120	61.0	2.5	/experiments/AOT/AOT_stimuli/rescaled_final/2023_fw.mp4	0.0	368.0078589916229	1.0000200271606445
63	348.4324378967285	pulse	0	t		61.0	2.5	/experiments/AOT/AOT_stimuli/rescaled_final/2023_fw.mp4	0.0	368.592178106308	
63	348.8481388092041	movie	1		244	61.0	2.5	/experiments/AOT/AOT_stimuli/rescaled_final/2023_fw.mp4	0.0	369.00787901878357	2.499981164932251
63	350.032607793808	pulse	1	t		61.0	2.5	/experiments/AOT/AOT_stimuli/rescaled_final/2023_fw.mp4	0.0	370.19234800338745	
63	351.34811997413635	fix_post	2		12	61.0	2.5	/experiments/AOT/AOT_stimuli/rescaled_final/2023_fw.mp4	0.0	371.5078601837158	0.10002493858337402
64	351.4481449127197	fix_pre	0		120	62.0	2.5	blank	1.0	371.6078851222992	1.0000779628753662
64	351.6324019432068	pulse	0	t		62.0	2.5	blank	1.0	371.79214215278625	
64	352.4482228755951	movie	1		300	62.0	2.5	blank	1.0	372.60796308517456	2.499925136566162
64	353.2324860095978	pulse	1	t		62.0	2.5	blank	1.0	373.39222621917725	
64	354.83158779144287	pulse	1	t		62.0	2.5	blank	1.0	374.99132800102234	
64	354.94814801216125	fix_post	2		12	62.0	2.5	blank	1.0	375.1078882217407	0.0999307632446289
65	355.0480787754059	fix_pre	0		120	63.0	2.5	/experiments/AOT/AOT_stimuli/rescaled_final/0592_rv.mp4	0.0	375.20781898498535	1.0000522136688232
65	356.0481309890747	movie	1		246	63.0	2.5	/experiments/AOT/AOT_stimuli/rescaled_final/0592_rv.mp4	0.0	376.2078711986542	2.499997854232788
65	356.44004797935486	pulse	1	t		63.0	2.5	/experiments/AOT/AOT_stimuli/rescaled_final/0592_rv.mp4	0.0	376.5997881889343	
65	358.0316209793091	pulse	1	t		63.0	2.5	/experiments/AOT/AOT_stimuli/rescaled_final/0592_rv.mp4	0.0	378.19136118888855	
65	358.5481288433075	fix_post	2		12	63.0	2.5	/experiments/AOT/AOT_stimuli/rescaled_final/0592_rv.mp4	0.0	378.70786905288696	0.10003900527954102
66	358.64816784858704	fix_pre	0		119	64.0	2.5	/experiments/AOT/AOT_stimuli/rescaled_final/1817_rv.mp4	0.0	378.8079080581665	0.9916419982910156
66	359.6316468715668	pulse	0	t		64.0	2.5	/experiments/AOT/AOT_stimuli/rescaled_final/1817_rv.mp4	0.0	379.79138708114624	
66	359.63980984687805	movie	1		246	64.0	2.5	/experiments/AOT/AOT_stimuli/rescaled_final/1817_rv.mp4	0.0	379.7995500564575	2.5083229541778564
66	361.23140692710876	pulse	1	t		64.0	2.5	/experiments/AOT/AOT_stimuli/rescaled_final/1817_rv.mp4	0.0	381.39114713668823	
66	362.1481328010559	fix_post	2		12	64.0	2.5	/experiments/AOT/AOT_stimuli/rescaled_final/1817_rv.mp4	0.0	382.3078730106354	0.09997415542602539
67	362.24810695648193	fix_pre	0		120	65.0	2.5	/experiments/AOT/AOT_stimuli/rescaled_final/1361_fw.mp4	0.0	382.4078471660614	1.000018835067749
67	362.8324007987976	pulse	0	t		65.0	2.5	/experiments/AOT/AOT_stimuli/rescaled_final/1361_fw.mp4	0.0	382.9921410083771	
67	363.2481257915497	movie	1		245	65.0	2.5	/experiments/AOT/AOT_stimuli/rescaled_final/1361_fw.mp4	0.0	383.40786600112915	2.4999821186065674
67	364.4325828552246	pulse	1	t		65.0	2.5	/experiments/AOT/AOT_stimuli/rescaled_final/1361_fw.mp4	0.0	384.5923230648041	
67	365.74810791015625	fix_post	2		12	65.0	2.5	/experiments/AOT/AOT_stimuli/rescaled_final/1361_fw.mp4	0.0	385.9078481197357	0.09998893737792969
68	365.8480968475342	fix_pre	0		120	66.0	2.5	/experiments/AOT/AOT_stimuli/rescaled_final/1110_fw.mp4	0.0	386.00783705711365	1.000075101852417
68	366.03240489959717	pulse	0	t		66.0	2.5	/experiments/AOT/AOT_stimuli/rescaled_final/1110_fw.mp4	0.0	386.19214510917664	
68	366.8481719493866	movie	1		242	66.0	2.5	/experiments/AOT/AOT_stimuli/rescaled_final/1110_fw.mp4	0.0	387.00791215896606	2.4998459815979004
68	367.63247179985046	pulse	1	t		66.0	2.5	/experiments/AOT/AOT_stimuli/rescaled_final/1110_fw.mp4	0.0	387.79221200942993	
68	369.24000096321106	pulse	1	t		66.0	2.5	/experiments/AOT/AOT_stimuli/rescaled_final/1110_fw.mp4	0.0	389.3997411727905	
68	369.3480179309845	fix_post	2		12	66.0	2.5	/experiments/AOT/AOT_stimuli/rescaled_final/1110_fw.mp4	0.0	389.50775814056396	0.10012602806091309
69	369.4481439590454	fix_pre	0		120	67.0	2.5	/experiments/AOT/AOT_stimuli/rescaled_final/1103_rv.mp4	0.0	389.6078841686249	1.0000159740447998
69	370.4481599330902	movie	1		245	67.0	2.5	/experiments/AOT/AOT_stimuli/rescaled_final/1103_rv.mp4	0.0	390.6079001426697	2.499518871307373
69	370.83996081352234	pulse	1	t		67.0	2.5	/experiments/AOT/AOT_stimuli/rescaled_final/1103_rv.mp4	0.0	390.9997010231018	
69	372.43209290504456	pulse	1	t		67.0	2.5	/experiments/AOT/AOT_stimuli/rescaled_final/1103_rv.mp4	0.0	392.591833114624	
69	372.9476788043976	fix_post	2		12	67.0	2.5	/experiments/AOT/AOT_stimuli/rescaled_final/1103_rv.mp4	0.0	393.10741901397705	0.09997010231018066
70	373.04764890670776	fix_pre	0		120	68.0	2.5	/experiments/AOT/AOT_stimuli/rescaled_final/1937_fw.mp4	0.0	393.20738911628723	1.0005710124969482
70	374.03207778930664	pulse	0	t		68.0	2.5	/experiments/AOT/AOT_stimuli/rescaled_final/1937_fw.mp4	0.0	394.1918179988861	
70	374.0482199192047	movie	1		245	68.0	2.5	/experiments/AOT/AOT_stimuli/rescaled_final/1937_fw.mp4	0.0	394.2079601287842	2.508152961730957
70	375.6314527988434	pulse	1	t		68.0	2.5	/experiments/AOT/AOT_stimuli/rescaled_final/1937_fw.mp4	0.0	395.79119300842285	
70	376.55637288093567	fix_post	2		12	68.0	2.5	/experiments/AOT/AOT_stimuli/rescaled_final/1937_fw.mp4	0.0	396.71611309051514	0.1000359058380127
71	376.6564087867737	fix_pre	0		120	69.0	2.5	/experiments/AOT/AOT_stimuli/rescaled_final/0732_rv.mp4	0.0	396.81614899635315	0.9999620914459229
71	377.2315368652344	pulse	0	t		69.0	2.5	/experiments/AOT/AOT_stimuli/rescaled_final/0732_rv.mp4	0.0	397.39127707481384	
71	377.6563708782196	movie	1		245	69.0	2.5	/experiments/AOT/AOT_stimuli/rescaled_final/0732_rv.mp4	0.0	397.8161110877991	2.499964952468872
71	378.8398389816284	pulse	1	t		69.0	2.5	/experiments/AOT/AOT_stimuli/rescaled_final/0732_rv.mp4	0.0	398.9995791912079	
71	380.1563358306885	fix_post	2		12	69.0	2.5	/experiments/AOT/AOT_stimuli/rescaled_final/0732_rv.mp4	0.0	400.31607604026794	0.09993600845336914
72	380.25627183914185	fix_pre	0		120	70.0	2.5	blank	1.0	400.4160120487213	1.0000641345977783
72	380.4322328567505	pulse	0	t		70.0	2.5	blank	1.0	400.59197306632996	
72	381.2563359737396	movie	1		300	70.0	2.5	blank	1.0	401.4160761833191	2.4999840259552
72	382.0322690010071	pulse	1	t		70.0	2.5	blank	1.0	402.19200921058655	
72	383.6322269439697	pulse	1	t		70.0	2.5	blank	1.0	403.7919671535492	
72	383.7563199996948	fix_post	2		12	70.0	2.5	blank	1.0	403.9160602092743	0.09996390342712402
73	383.85628390312195	fix_pre	0		120	71.0	2.5	/experiments/AOT/AOT_stimuli/rescaled_final/0336_fw.mp4	0.0	404.0160241127014	1.0001330375671387
73	384.8564169406891	movie	1		246	71.0	2.5	/experiments/AOT/AOT_stimuli/rescaled_final/0336_fw.mp4	0.0	405.01615715026855	2.4998409748077393
73	385.2399208545685	pulse	1	t		71.0	2.5	/experiments/AOT/AOT_stimuli/rescaled_final/0336_fw.mp4	0.0	405.39966106414795	
73	386.8324317932129	pulse	1	t		71.0	2.5	/experiments/AOT/AOT_stimuli/rescaled_final/0336_fw.mp4	0.0	406.99217200279236	
73	387.3562579154968	fix_post	2		12	71.0	2.5	/experiments/AOT/AOT_stimuli/rescaled_final/0336_fw.mp4	0.0	407.5159981250763	0.10003089904785156
74	387.4562888145447	fix_pre	0		119	72.0	2.5	/experiments/AOT/AOT_stimuli/rescaled_final/1882_fw.mp4	0.0	407.61602902412415	0.9917521476745605
74	388.43226289749146	pulse	0	t		72.0	2.5	/experiments/AOT/AOT_stimuli/rescaled_final/1882_fw.mp4	0.0	408.5920031070709	
74	388.44804096221924	movie	1		244	72.0	2.5	/experiments/AOT/AOT_stimuli/rescaled_final/1882_fw.mp4	0.0	408.6077811717987	2.5079660415649414
74	390.0396249294281	pulse	1	t		72.0	2.5	/experiments/AOT/AOT_stimuli/rescaled_final/1882_fw.mp4	0.0	410.19936513900757	
74	390.9560070037842	fix_post	2		12	72.0	2.5	/experiments/AOT/AOT_stimuli/rescaled_final/1882_fw.mp4	0.0	411.11574721336365	0.1002199649810791
75	391.05622696876526	fix_pre	0		120	73.0	2.5	/experiments/AOT/AOT_stimuli/rescaled_final/1151_rv.mp4	0.0	411.2159671783447	0.9999978542327881
75	391.63155484199524	pulse	0	t		73.0	2.5	/experiments/AOT/AOT_stimuli/rescaled_final/1151_rv.mp4	0.0	411.7912950515747	
75	392.05622482299805	movie	1		243	73.0	2.5	/experiments/AOT/AOT_stimuli/rescaled_final/1151_rv.mp4	0.0	412.2159650325775	2.5000100135803223
75	393.2314429283142	pulse	1	t		73.0	2.5	/experiments/AOT/AOT_stimuli/rescaled_final/1151_rv.mp4	0.0	413.3911831378937	
75	394.55623483657837	fix_post	2		12	73.0	2.5	/experiments/AOT/AOT_stimuli/rescaled_final/1151_rv.mp4	0.0	414.71597504615784	0.10000896453857422
76	394.65624380111694	fix_pre	0		120	74.0	2.5	/experiments/AOT/AOT_stimuli/rescaled_final/1229_fw.mp4	0.0	414.8159840106964	1.0000159740447998
76	394.8314309120178	pulse	0	t		74.0	2.5	/experiments/AOT/AOT_stimuli/rescaled_final/1229_fw.mp4	0.0	414.9911711215973	
76	395.65625977516174	movie	1		243	74.0	2.5	/experiments/AOT/AOT_stimuli/rescaled_final/1229_fw.mp4	0.0	415.8159999847412	2.4999921321868896
76	396.4324119091034	pulse	1	t		74.0	2.5	/experiments/AOT/AOT_stimuli/rescaled_final/1229_fw.mp4	0.0	416.59215211868286	
76	398.03835678100586	pulse	1	t		74.0	2.5	/experiments/AOT/AOT_stimuli/rescaled_final/1229_fw.mp4	0.0	418.1980969905853	
76	398.15625190734863	fix_post	2		12	74.0	2.5	/experiments/AOT/AOT_stimuli/rescaled_final/1229_fw.mp4	0.0	418.3159921169281	0.1000220775604248
77	398.25627398490906	fix_pre	0		120	75.0	2.5	/experiments/AOT/AOT_stimuli/rescaled_final/0003_rv.mp4	0.0	418.4160141944885	0.9996068477630615
77	399.2558808326721	movie	1		244	75.0	2.5	/experiments/AOT/AOT_stimuli/rescaled_final/0003_rv.mp4	0.0	419.4156210422516	2.500314950942993
77	399.6391417980194	pulse	1	t		75.0	2.5	/experiments/AOT/AOT_stimuli/rescaled_final/0003_rv.mp4	0.0	419.7988820075989	
77	401.2324378490448	pulse	1	t		75.0	2.5	/experiments/AOT/AOT_stimuli/rescaled_final/0003_rv.mp4	0.0	421.39217805862427	
77	401.7561957836151	fix_post	2		12	75.0	2.5	/experiments/AOT/AOT_stimuli/rescaled_final/0003_rv.mp4	0.0	421.9159359931946	0.09998011589050293
78	401.8561758995056	fix_pre	0		119	76.0	2.5	/experiments/AOT/AOT_stimuli/rescaled_final/0433_fw.mp4	0.0	422.0159161090851	0.9916739463806152
78	402.83211183547974	pulse	0	t		76.0	2.5	/experiments/AOT/AOT_stimuli/rescaled_final/0433_fw.mp4	0.0	422.9918520450592	
78	402.84784984588623	movie	1		246	76.0	2.5	/experiments/AOT/AOT_stimuli/rescaled_final/0433_fw.mp4	0.0	423.0075900554657	2.508331060409546
78	404.43922185897827	pulse	1	t		76.0	2.5	/experiments/AOT/AOT_stimuli/rescaled_final/0433_fw.mp4	0.0	424.59896206855774	
78	405.3561809062958	fix_post	2		12	76.0	2.5	/experiments/AOT/AOT_stimuli/rescaled_final/0433_fw.mp4	0.0	425.51592111587524	0.10010194778442383
79	405.4562828540802	fix_pre	0		120	77.0	2.5	blank	1.0	425.61602306365967	1.0000450611114502
79	406.0314610004425	pulse	0	t		77.0	2.5	blank	1.0	426.191201210022	
79	406.45632791519165	movie	1		300	77.0	2.5	blank	1.0	426.6160681247711	2.499922037124634
79	407.63136196136475	pulse	1	t		77.0	2.5	blank	1.0	427.7911021709442	
79	408.9562499523163	fix_post	2		12	77.0	2.5	blank	1.0	429.11599016189575	0.10001683235168457
80	409.05626678466797	fix_pre	0		120	78.0	2.5	/experiments/AOT/AOT_stimuli/rescaled_final/1097_fw.mp4	0.0	429.21600699424744	0.9995291233062744
80	409.2313849925995	pulse	0	t		78.0	2.5	/experiments/AOT/AOT_stimuli/rescaled_final/1097_fw.mp4	0.0	429.39112520217896	
80	410.05579590797424	movie	1		244	78.0	2.5	/experiments/AOT/AOT_stimuli/rescaled_final/1097_fw.mp4	0.0	430.2155361175537	2.500166893005371
80	410.83967995643616	pulse	1	t		78.0	2.5	/experiments/AOT/AOT_stimuli/rescaled_final/1097_fw.mp4	0.0	430.9994201660156	
80	412.4384808540344	pulse	1	t		78.0	2.5	/experiments/AOT/AOT_stimuli/rescaled_final/1097_fw.mp4	0.0	432.5982210636139	
80	412.5559628009796	fix_post	2		12	78.0	2.5	/experiments/AOT/AOT_stimuli/rescaled_final/1097_fw.mp4	0.0	432.7157030105591	0.10025620460510254
81	412.6562190055847	fix_pre	0		120	79.0	2.5	/experiments/AOT/AOT_stimuli/rescaled_final/1159_fw.mp4	0.0	432.8159592151642	1.0000228881835938
81	413.6562418937683	movie	1		244	79.0	2.5	/experiments/AOT/AOT_stimuli/rescaled_final/1159_fw.mp4	0.0	433.8159821033478	2.4999470710754395
81	414.03910398483276	pulse	1	t		79.0	2.5	/experiments/AOT/AOT_stimuli/rescaled_final/1159_fw.mp4	0.0	434.19884419441223	
81	415.6322867870331	pulse	1	t		79.0	2.5	/experiments/AOT/AOT_stimuli/rescaled_final/1159_fw.mp4	0.0	435.79202699661255	
81	416.15618896484375	fix_post	2		12	79.0	2.5	/experiments/AOT/AOT_stimuli/rescaled_final/1159_fw.mp4	0.0	436.3159291744232	0.10001897811889648
82	416.25620794296265	fix_pre	0		118	80.0	2.5	/experiments/AOT/AOT_stimuli/rescaled_final/0610_rv.mp4	0.0	436.4159481525421	0.991584062576294
82	417.23216485977173	pulse	0	t		80.0	2.5	/experiments/AOT/AOT_stimuli/rescaled_final/0610_rv.mp4	0.0	437.3919050693512	
82	417.24779200553894	movie	1		245	80.0	2.5	/experiments/AOT/AOT_stimuli/rescaled_final/0610_rv.mp4	0.0	437.4075322151184	2.508340835571289
82	418.8390738964081	pulse	1	t		80.0	2.5	/experiments/AOT/AOT_stimuli/rescaled_final/0610_rv.mp4	0.0	438.99881410598755	
82	419.75613284111023	fix_post	2		12	80.0	2.5	/experiments/AOT/AOT_stimuli/rescaled_final/0610_rv.mp4	0.0	439.9158730506897	0.100006103515625
83	419.85613894462585	fix_pre	0		120	81.0	2.5	/experiments/AOT/AOT_stimuli/rescaled_final/1771_fw.mp4	0.0	440.0158791542053	0.9999690055847168
83	420.4320938587189	pulse	0	t		81.0	2.5	/experiments/AOT/AOT_stimuli/rescaled_final/1771_fw.mp4	0.0	440.59183406829834	
83	420.85610795021057	movie	1		244	81.0	2.5	/experiments/AOT/AOT_stimuli/rescaled_final/1771_fw.mp4	0.0	441.01584815979004	2.499990940093994
83	422.0397689342499	pulse	1	t		81.0	2.5	/experiments/AOT/AOT_stimuli/rescaled_final/1771_fw.mp4	0.0	442.19950914382935	
83	423.35609889030457	fix_post	2		12	81.0	2.5	/experiments/AOT/AOT_stimuli/rescaled_final/1771_fw.mp4	0.0	443.51583909988403	0.10005497932434082
84	423.4561538696289	fix_pre	0		120	82.0	2.5	/experiments/AOT/AOT_stimuli/rescaled_final/2170_rv.mp4	0.0	443.6158940792084	0.9999759197235107
84	423.6320869922638	pulse	0	t		82.0	2.5	/experiments/AOT/AOT_stimuli/rescaled_final/2170_rv.mp4	0.0	443.79182720184326	
84	424.4561297893524	movie	1		245	82.0	2.5	/experiments/AOT/AOT_stimuli/rescaled_final/2170_rv.mp4	0.0	444.6158699989319	2.499979019165039
84	425.2323489189148	pulse	1	t		82.0	2.5	/experiments/AOT/AOT_stimuli/rescaled_final/2170_rv.mp4	0.0	445.39208912849426	
84	426.8356828689575	pulse	1	t		82.0	2.5	/experiments/AOT/AOT_stimuli/rescaled_final/2170_rv.mp4	0.0	446.995423078537	
84	426.95610880851746	fix_post	2		12	82.0	2.5	/experiments/AOT/AOT_stimuli/rescaled_final/2170_rv.mp4	0.0	447.1158490180969	0.10006499290466309
85	427.0561738014221	fix_pre	0		120	83.0	2.5	blank	1.0	447.2159140110016	1.000025987625122
85	428.05619978904724	movie	1		300	83.0	2.5	blank	1.0	448.2159399986267	2.4997901916503906
85	428.4322648048401	pulse	1	t		83.0	2.5	blank	1.0	448.59200501441956	
85	430.0323669910431	pulse	1	t		83.0	2.5	blank	1.0	450.19210720062256	
85	430.55598998069763	fix_post	2		12	83.0	2.5	blank	1.0	450.7157301902771	0.1004629135131836
87	430.6564528942108	stim	0		1716					450.8161931037903	14.299649000167847
87	431.63221883773804	pulse	0	t						451.7919590473175	
87	433.23213291168213	pulse	0	t						453.3918731212616	
87	434.8321738243103	pulse	0	t						454.99191403388977	
87	436.432119846344	pulse	0	t						456.59186005592346	
87	438.032105922699	pulse	0	t						458.19184613227844	
87	439.6320388317108	pulse	0	t						459.7917790412903	
87	441.23204493522644	pulse	0	t						461.3917851448059	
87	442.8320758342743	pulse	0	t						462.99181604385376	
87	444.4321229457855	pulse	0	t						464.591863155365	
