trial_nr	onset	event_type	phase	response	nr_frames	movie_index	movie_duration	movie_file	blank	onset_abs	duration
0	0.15830302238464355	stim	0		214					22.042642831802368	1.7841110229492188
0	1.9343440532684326	response	0	space						23.818683862686157	
1	1.9424140453338623	stim	0		4794					23.826753854751587	39.94941806793213
1	41.88422608375549	pulse	0	t						63.76856589317322	
1	41.89183211326599	stim	1		1717					63.776171922683716	14.308345079421997
1	43.48366904258728	pulse	1	t						65.368008852005	
1	45.08373498916626	pulse	1	t						66.96807479858398	
1	46.68356919288635	pulse	1	t						68.56790900230408	
1	48.283637046813965	pulse	1	t						70.16797685623169	
1	49.88361120223999	pulse	1	t						71.76795101165771	
1	51.483726024627686	pulse	1	t						73.36806583404541	
1	53.08369302749634	pulse	1	t						74.96803283691406	
1	54.683634996414185	pulse	1	t						76.56797480583191	
2	56.20017719268799	fix_pre	0		11	0.0	2.5	/experiments/AOT/AOT_stimuli/rescaled_final/2063_fw.mp4	0.0	78.08451700210571	0.09163784980773926
2	56.28322505950928	pulse	0	t		0.0	2.5	/experiments/AOT/AOT_stimuli/rescaled_final/2063_fw.mp4	0.0	78.167564868927	
2	56.29181504249573	movie	1		245	0.0	2.5	/experiments/AOT/AOT_stimuli/rescaled_final/2063_fw.mp4	0.0	78.17615485191345	2.508373975753784
2	57.883562088012695	pulse	1	t		0.0	2.5	/experiments/AOT/AOT_stimuli/rescaled_final/2063_fw.mp4	0.0	79.76790189743042	
2	58.80018901824951	fix_post	2		12	0.0	2.5	/experiments/AOT/AOT_stimuli/rescaled_final/2063_fw.mp4	0.0	80.68452882766724	0.09994697570800781
3	58.90013599395752	fix_pre	0		120	1.0	2.5	/experiments/AOT/AOT_stimuli/rescaled_final/1768_fw.mp4	0.0	80.78447580337524	0.9995551109313965
3	59.4837601184845	pulse	0	t		1.0	2.5	/experiments/AOT/AOT_stimuli/rescaled_final/1768_fw.mp4	0.0	81.36809992790222	
3	59.899691104888916	movie	1		245	1.0	2.5	/experiments/AOT/AOT_stimuli/rescaled_final/1768_fw.mp4	0.0	81.78403091430664	2.4998979568481445
3	61.083808183670044	pulse	1	t		1.0	2.5	/experiments/AOT/AOT_stimuli/rescaled_final/1768_fw.mp4	0.0	82.96814799308777	
3	62.39958906173706	fix_post	2		12	1.0	2.5	/experiments/AOT/AOT_stimuli/rescaled_final/1768_fw.mp4	0.0	84.28392887115479	0.10046601295471191
4	62.50005507469177	fix_pre	0		120	2.0	2.5	/experiments/AOT/AOT_stimuli/rescaled_final/0691_rv.mp4	0.0	84.3843948841095	0.9999659061431885
4	62.6835880279541	pulse	0	t		2.0	2.5	/experiments/AOT/AOT_stimuli/rescaled_final/0691_rv.mp4	0.0	84.56792783737183	
4	63.50002098083496	movie	1		244	2.0	2.5	/experiments/AOT/AOT_stimuli/rescaled_final/0691_rv.mp4	0.0	85.38436079025269	2.4999542236328125
4	64.28341603279114	pulse	1	t		2.0	2.5	/experiments/AOT/AOT_stimuli/rescaled_final/0691_rv.mp4	0.0	86.16775584220886	
4	65.88220310211182	pulse	1	t		2.0	2.5	/experiments/AOT/AOT_stimuli/rescaled_final/0691_rv.mp4	0.0	87.76654291152954	
4	65.99997520446777	fix_post	2		12	2.0	2.5	/experiments/AOT/AOT_stimuli/rescaled_final/0691_rv.mp4	0.0	87.8843150138855	0.09996390342712402
5	66.0999391078949	fix_pre	0		120	3.0	2.5	/experiments/AOT/AOT_stimuli/rescaled_final/1631_rv.mp4	0.0	87.98427891731262	0.9996950626373291
5	67.09963417053223	movie	1		243	3.0	2.5	/experiments/AOT/AOT_stimuli/rescaled_final/1631_rv.mp4	0.0	88.98397397994995	2.5003650188446045
5	67.48317217826843	pulse	1	t		3.0	2.5	/experiments/AOT/AOT_stimuli/rescaled_final/1631_rv.mp4	0.0	89.36751198768616	
5	69.08343815803528	pulse	1	t		3.0	2.5	/experiments/AOT/AOT_stimuli/rescaled_final/1631_rv.mp4	0.0	90.967777967453	
5	69.59999918937683	fix_post	2		12	3.0	2.5	/experiments/AOT/AOT_stimuli/rescaled_final/1631_rv.mp4	0.0	91.48433899879456	0.10000395774841309
6	69.70000314712524	fix_pre	0		119	4.0	2.5	/experiments/AOT/AOT_stimuli/rescaled_final/0001_fw.mp4	0.0	91.58434295654297	0.9917359352111816
6	70.68348717689514	pulse	0	t		4.0	2.5	/experiments/AOT/AOT_stimuli/rescaled_final/0001_fw.mp4	0.0	92.56782698631287	
6	70.69173908233643	movie	1		245	4.0	2.5	/experiments/AOT/AOT_stimuli/rescaled_final/0001_fw.mp4	0.0	92.57607889175415	2.5078299045562744
6	72.28352618217468	pulse	1	t		4.0	2.5	/experiments/AOT/AOT_stimuli/rescaled_final/0001_fw.mp4	0.0	94.16786599159241	
6	73.1995689868927	fix_post	2		12	4.0	2.5	/experiments/AOT/AOT_stimuli/rescaled_final/0001_fw.mp4	0.0	95.08390879631042	0.10045599937438965
7	73.30002498626709	fix_pre	0		120	5.0	2.5	/experiments/AOT/AOT_stimuli/rescaled_final/1317_rv.mp4	0.0	95.18436479568481	0.999589204788208
7	73.8834240436554	pulse	0	t		5.0	2.5	/experiments/AOT/AOT_stimuli/rescaled_final/1317_rv.mp4	0.0	95.76776385307312	
7	74.2996141910553	movie	1		244	5.0	2.5	/experiments/AOT/AOT_stimuli/rescaled_final/1317_rv.mp4	0.0	96.18395400047302	2.5003628730773926
7	75.48354315757751	pulse	1	t		5.0	2.5	/experiments/AOT/AOT_stimuli/rescaled_final/1317_rv.mp4	0.0	97.36788296699524	
7	76.79997706413269	fix_post	2		12	5.0	2.5	/experiments/AOT/AOT_stimuli/rescaled_final/1317_rv.mp4	0.0	98.68431687355042	0.09997701644897461
8	76.89995408058167	fix_pre	0		120	6.0	2.5	blank	1.0	98.78429388999939	1.0000190734863281
8	77.0834891796112	pulse	0	t		6.0	2.5	blank	1.0	98.96782898902893	
8	77.899973154068	movie	1		300	6.0	2.5	blank	1.0	99.78431296348572	2.4999618530273438
8	78.68351697921753	pulse	1	t		6.0	2.5	blank	1.0	100.56785678863525	
8	80.28341817855835	pulse	1	t		6.0	2.5	blank	1.0	102.16775798797607	
8	80.39993500709534	fix_post	2		12	6.0	2.5	blank	1.0	102.28427481651306	0.10006117820739746
9	80.49999618530273	fix_pre	0		120	7.0	2.5	/experiments/AOT/AOT_stimuli/rescaled_final/2080_rv.mp4	0.0	102.38433599472046	0.999945878982544
9	81.49994206428528	movie	1		245	7.0	2.5	/experiments/AOT/AOT_stimuli/rescaled_final/2080_rv.mp4	0.0	103.384281873703	2.500019073486328
9	81.88343501091003	pulse	1	t		7.0	2.5	/experiments/AOT/AOT_stimuli/rescaled_final/2080_rv.mp4	0.0	103.76777482032776	
9	83.48344421386719	pulse	1	t		7.0	2.5	/experiments/AOT/AOT_stimuli/rescaled_final/2080_rv.mp4	0.0	105.36778402328491	
9	83.9999611377716	fix_post	2		12	7.0	2.5	/experiments/AOT/AOT_stimuli/rescaled_final/2080_rv.mp4	0.0	105.88430094718933	0.10004496574401855
10	84.10000610351562	fix_pre	0		119	8.0	2.5	/experiments/AOT/AOT_stimuli/rescaled_final/0523_fw.mp4	0.0	105.98434591293335	0.9915850162506104
10	85.08346605300903	pulse	0	t		8.0	2.5	/experiments/AOT/AOT_stimuli/rescaled_final/0523_fw.mp4	0.0	106.96780586242676	
10	85.09159111976624	movie	1		245	8.0	2.5	/experiments/AOT/AOT_stimuli/rescaled_final/0523_fw.mp4	0.0	106.97593092918396	2.508316993713379
10	86.68347501754761	pulse	1	t		8.0	2.5	/experiments/AOT/AOT_stimuli/rescaled_final/0523_fw.mp4	0.0	108.56781482696533	
10	87.59990811347961	fix_post	2		12	8.0	2.5	/experiments/AOT/AOT_stimuli/rescaled_final/0523_fw.mp4	0.0	109.48424792289734	0.10003900527954102
11	87.69994711875916	fix_pre	0		120	9.0	2.5	/experiments/AOT/AOT_stimuli/rescaled_final/0382_fw.mp4	0.0	109.58428692817688	1.0000178813934326
11	88.28344917297363	pulse	0	t		9.0	2.5	/experiments/AOT/AOT_stimuli/rescaled_final/0382_fw.mp4	0.0	110.16778898239136	
11	88.69996500015259	movie	1		244	9.0	2.5	/experiments/AOT/AOT_stimuli/rescaled_final/0382_fw.mp4	0.0	110.58430480957031	2.5000112056732178
11	89.88348913192749	pulse	1	t		9.0	2.5	/experiments/AOT/AOT_stimuli/rescaled_final/0382_fw.mp4	0.0	111.76782894134521	
11	91.1999762058258	fix_post	2		12	9.0	2.5	/experiments/AOT/AOT_stimuli/rescaled_final/0382_fw.mp4	0.0	113.08431601524353	0.09956693649291992
12	91.29954314231873	fix_pre	0		120	10.0	2.5	/experiments/AOT/AOT_stimuli/rescaled_final/0634_fw.mp4	0.0	113.18388295173645	1.000391960144043
12	91.48338508605957	pulse	0	t		10.0	2.5	/experiments/AOT/AOT_stimuli/rescaled_final/0634_fw.mp4	0.0	113.3677248954773	
12	92.29993510246277	movie	1		244	10.0	2.5	/experiments/AOT/AOT_stimuli/rescaled_final/0634_fw.mp4	0.0	114.1842749118805	2.499527931213379
12	93.08340501785278	pulse	1	t		10.0	2.5	/experiments/AOT/AOT_stimuli/rescaled_final/0634_fw.mp4	0.0	114.96774482727051	
12	94.68202900886536	pulse	1	t		10.0	2.5	/experiments/AOT/AOT_stimuli/rescaled_final/0634_fw.mp4	0.0	116.56636881828308	
12	94.79946303367615	fix_post	2		12	10.0	2.5	/experiments/AOT/AOT_stimuli/rescaled_final/0634_fw.mp4	0.0	116.68380284309387	0.10040616989135742
13	94.8998692035675	fix_pre	0		120	11.0	2.5	/experiments/AOT/AOT_stimuli/rescaled_final/1704_rv.mp4	0.0	116.78420901298523	1.0000457763671875
13	95.89991497993469	movie	1		243	11.0	2.5	/experiments/AOT/AOT_stimuli/rescaled_final/1704_rv.mp4	0.0	117.78425478935242	2.4999501705169678
13	96.2830240726471	pulse	1	t		11.0	2.5	/experiments/AOT/AOT_stimuli/rescaled_final/1704_rv.mp4	0.0	118.16736388206482	
13	97.88339614868164	pulse	1	t		11.0	2.5	/experiments/AOT/AOT_stimuli/rescaled_final/1704_rv.mp4	0.0	119.76773595809937	
13	98.39986515045166	fix_post	2		12	11.0	2.5	/experiments/AOT/AOT_stimuli/rescaled_final/1704_rv.mp4	0.0	120.28420495986938	0.10001301765441895
14	98.49987816810608	fix_pre	0		119	12.0	2.5	blank	1.0	120.3842179775238	0.9916138648986816
14	99.48343014717102	pulse	0	t		12.0	2.5	blank	1.0	121.36776995658875	
14	99.49149203300476	movie	1		301	12.0	2.5	blank	1.0	121.37583184242249	2.508358955383301
14	101.08336615562439	pulse	1	t		12.0	2.5	blank	1.0	122.96770596504211	
14	101.99985098838806	fix_post	2		12	12.0	2.5	blank	1.0	123.88419079780579	0.10007405281066895
15	102.09992504119873	fix_pre	0		120	13.0	2.5	/experiments/AOT/AOT_stimuli/rescaled_final/1452_fw.mp4	0.0	123.98426485061646	0.9994680881500244
15	102.68339014053345	pulse	0	t		13.0	2.5	/experiments/AOT/AOT_stimuli/rescaled_final/1452_fw.mp4	0.0	124.56772994995117	
15	103.09939312934875	movie	1		243	13.0	2.5	/experiments/AOT/AOT_stimuli/rescaled_final/1452_fw.mp4	0.0	124.98373293876648	2.5004310607910156
15	104.28347206115723	pulse	1	t		13.0	2.5	/experiments/AOT/AOT_stimuli/rescaled_final/1452_fw.mp4	0.0	126.16781187057495	
15	105.59982419013977	fix_post	2		12	13.0	2.5	/experiments/AOT/AOT_stimuli/rescaled_final/1452_fw.mp4	0.0	127.4841639995575	0.1000528335571289
16	105.6998770236969	fix_pre	0		120	14.0	2.5	/experiments/AOT/AOT_stimuli/rescaled_final/0003_fw.mp4	0.0	127.58421683311462	1.0000100135803223
16	105.88338804244995	pulse	0	t		14.0	2.5	/experiments/AOT/AOT_stimuli/rescaled_final/0003_fw.mp4	0.0	127.76772785186768	
16	106.69988703727722	movie	1		244	14.0	2.5	/experiments/AOT/AOT_stimuli/rescaled_final/0003_fw.mp4	0.0	128.58422684669495	2.4994781017303467
16	107.48330211639404	pulse	1	t		14.0	2.5	/experiments/AOT/AOT_stimuli/rescaled_final/0003_fw.mp4	0.0	129.36764192581177	
16	109.08178901672363	pulse	1	t		14.0	2.5	/experiments/AOT/AOT_stimuli/rescaled_final/0003_fw.mp4	0.0	130.96612882614136	
16	109.19936513900757	fix_post	2		12	14.0	2.5	/experiments/AOT/AOT_stimuli/rescaled_final/0003_fw.mp4	0.0	131.0837049484253	0.1004638671875
17	109.29982900619507	fix_pre	0		120	15.0	2.5	/experiments/AOT/AOT_stimuli/rescaled_final/1317_fw.mp4	0.0	131.1841688156128	0.9999501705169678
17	110.29977917671204	movie	1		247	15.0	2.5	/experiments/AOT/AOT_stimuli/rescaled_final/1317_fw.mp4	0.0	132.18411898612976	2.4998579025268555
17	110.68440318107605	pulse	1	t		15.0	2.5	/experiments/AOT/AOT_stimuli/rescaled_final/1317_fw.mp4	0.0	132.56874299049377	
17	112.28287816047668	pulse	1	t		15.0	2.5	/experiments/AOT/AOT_stimuli/rescaled_final/1317_fw.mp4	0.0	134.1672179698944	
17	112.79963707923889	fix_post	2		12	15.0	2.5	/experiments/AOT/AOT_stimuli/rescaled_final/1317_fw.mp4	0.0	134.68397688865662	0.10029792785644531
18	112.89993500709534	fix_pre	0		119	16.0	2.5	/experiments/AOT/AOT_stimuli/rescaled_final/0131_rv.mp4	0.0	134.78427481651306	0.991469144821167
18	113.88329100608826	pulse	0	t		16.0	2.5	/experiments/AOT/AOT_stimuli/rescaled_final/0131_rv.mp4	0.0	135.76763081550598	
18	113.8914041519165	movie	1		246	16.0	2.5	/experiments/AOT/AOT_stimuli/rescaled_final/0131_rv.mp4	0.0	135.77574396133423	2.507948875427246
18	115.48280715942383	pulse	1	t		16.0	2.5	/experiments/AOT/AOT_stimuli/rescaled_final/0131_rv.mp4	0.0	137.36714696884155	
18	116.39935302734375	fix_post	2		12	16.0	2.5	/experiments/AOT/AOT_stimuli/rescaled_final/0131_rv.mp4	0.0	138.28369283676147	0.10045409202575684
19	116.4998071193695	fix_pre	0		120	17.0	2.5	/experiments/AOT/AOT_stimuli/rescaled_final/2146_fw.mp4	0.0	138.38414692878723	0.9999549388885498
19	117.08330011367798	pulse	0	t		17.0	2.5	/experiments/AOT/AOT_stimuli/rescaled_final/2146_fw.mp4	0.0	138.9676399230957	
19	117.49976205825806	movie	1		245	17.0	2.5	/experiments/AOT/AOT_stimuli/rescaled_final/2146_fw.mp4	0.0	139.38410186767578	2.5000579357147217
19	118.68340516090393	pulse	1	t		17.0	2.5	/experiments/AOT/AOT_stimuli/rescaled_final/2146_fw.mp4	0.0	140.56774497032166	
19	119.99981999397278	fix_post	2		12	17.0	2.5	/experiments/AOT/AOT_stimuli/rescaled_final/2146_fw.mp4	0.0	141.8841598033905	0.09991717338562012
20	120.0997371673584	fix_pre	0		120	18.0	2.5	/experiments/AOT/AOT_stimuli/rescaled_final/1709_rv.mp4	0.0	141.98407697677612	1.0000929832458496
20	120.28321409225464	pulse	0	t		18.0	2.5	/experiments/AOT/AOT_stimuli/rescaled_final/1709_rv.mp4	0.0	142.16755390167236	
20	121.09983015060425	movie	1		243	18.0	2.5	/experiments/AOT/AOT_stimuli/rescaled_final/1709_rv.mp4	0.0	142.98416996002197	2.4999358654022217
20	121.88329100608826	pulse	1	t		18.0	2.5	/experiments/AOT/AOT_stimuli/rescaled_final/1709_rv.mp4	0.0	143.76763081550598	
20	123.48166513442993	pulse	1	t		18.0	2.5	/experiments/AOT/AOT_stimuli/rescaled_final/1709_rv.mp4	0.0	145.36600494384766	
20	123.59976601600647	fix_post	2		12	18.0	2.5	/experiments/AOT/AOT_stimuli/rescaled_final/1709_rv.mp4	0.0	145.4841058254242	0.09998106956481934
21	123.69974708557129	fix_pre	0		120	19.0	2.5	/experiments/AOT/AOT_stimuli/rescaled_final/1253_fw.mp4	0.0	145.584086894989	0.9999771118164062
21	124.6997241973877	movie	1		243	19.0	2.5	/experiments/AOT/AOT_stimuli/rescaled_final/1253_fw.mp4	0.0	146.58406400680542	2.499555826187134
21	125.08306217193604	pulse	1	t		19.0	2.5	/experiments/AOT/AOT_stimuli/rescaled_final/1253_fw.mp4	0.0	146.96740198135376	
21	126.68336701393127	pulse	1	t		19.0	2.5	/experiments/AOT/AOT_stimuli/rescaled_final/1253_fw.mp4	0.0	148.567706823349	
21	127.19928002357483	fix_post	2		12	19.0	2.5	/experiments/AOT/AOT_stimuli/rescaled_final/1253_fw.mp4	0.0	149.08361983299255	0.10043907165527344
22	127.2997190952301	fix_pre	0		119	20.0	2.5	/experiments/AOT/AOT_stimuli/rescaled_final/1066_fw.mp4	0.0	149.18405890464783	0.9916749000549316
22	128.28323817253113	pulse	0	t		20.0	2.5	/experiments/AOT/AOT_stimuli/rescaled_final/1066_fw.mp4	0.0	150.16757798194885	
22	128.29139399528503	movie	1		247	20.0	2.5	/experiments/AOT/AOT_stimuli/rescaled_final/1066_fw.mp4	0.0	150.17573380470276	2.5079071521759033
22	129.88305115699768	pulse	1	t		20.0	2.5	/experiments/AOT/AOT_stimuli/rescaled_final/1066_fw.mp4	0.0	151.7673909664154	
22	130.79930114746094	fix_post	2		12	20.0	2.5	/experiments/AOT/AOT_stimuli/rescaled_final/1066_fw.mp4	0.0	152.68364095687866	0.10040593147277832
23	130.89970707893372	fix_pre	0		120	21.0	2.5	blank	1.0	152.78404688835144	1.0000250339508057
23	131.4832479953766	pulse	0	t		21.0	2.5	blank	1.0	153.3675878047943	
23	131.89973211288452	movie	1		300	21.0	2.5	blank	1.0	153.78407192230225	2.499511957168579
23	133.08325910568237	pulse	1	t		21.0	2.5	blank	1.0	154.9675989151001	
23	134.3992440700531	fix_post	2		12	21.0	2.5	blank	1.0	156.28358387947083	0.10048198699951172
24	134.4997260570526	fix_pre	0		120	22.0	2.5	/experiments/AOT/AOT_stimuli/rescaled_final/1027_fw.mp4	0.0	156.38406586647034	0.9999020099639893
24	134.6831681728363	pulse	0	t		22.0	2.5	/experiments/AOT/AOT_stimuli/rescaled_final/1027_fw.mp4	0.0	156.56750798225403	
24	135.4996280670166	movie	1		246	22.0	2.5	/experiments/AOT/AOT_stimuli/rescaled_final/1027_fw.mp4	0.0	157.38396787643433	2.500035047531128
24	136.28319120407104	pulse	1	t		22.0	2.5	/experiments/AOT/AOT_stimuli/rescaled_final/1027_fw.mp4	0.0	158.16753101348877	
24	137.87931108474731	pulse	1	t		22.0	2.5	/experiments/AOT/AOT_stimuli/rescaled_final/1027_fw.mp4	0.0	159.76365089416504	
24	137.99966311454773	fix_post	2		12	22.0	2.5	/experiments/AOT/AOT_stimuli/rescaled_final/1027_fw.mp4	0.0	159.88400292396545	0.10001492500305176
25	138.09967803955078	fix_pre	0		120	23.0	2.5	/experiments/AOT/AOT_stimuli/rescaled_final/1351_fw.mp4	0.0	159.9840178489685	1.0000200271606445
25	139.09969806671143	movie	1		243	23.0	2.5	/experiments/AOT/AOT_stimuli/rescaled_final/1351_fw.mp4	0.0	160.98403787612915	2.500006914138794
25	139.48292207717896	pulse	1	t		23.0	2.5	/experiments/AOT/AOT_stimuli/rescaled_final/1351_fw.mp4	0.0	161.36726188659668	
25	141.0831961631775	pulse	1	t		23.0	2.5	/experiments/AOT/AOT_stimuli/rescaled_final/1351_fw.mp4	0.0	162.96753597259521	
25	141.59970498085022	fix_post	2		12	23.0	2.5	/experiments/AOT/AOT_stimuli/rescaled_final/1351_fw.mp4	0.0	163.48404479026794	0.10003209114074707
26	141.69973707199097	fix_pre	0		119	24.0	2.5	/experiments/AOT/AOT_stimuli/rescaled_final/1388_fw.mp4	0.0	163.5840768814087	0.991549015045166
26	142.68310117721558	pulse	0	t		24.0	2.5	/experiments/AOT/AOT_stimuli/rescaled_final/1388_fw.mp4	0.0	164.5674409866333	
26	142.69128608703613	movie	1		246	24.0	2.5	/experiments/AOT/AOT_stimuli/rescaled_final/1388_fw.mp4	0.0	164.57562589645386	2.508431911468506
26	144.28315806388855	pulse	1	t		24.0	2.5	/experiments/AOT/AOT_stimuli/rescaled_final/1388_fw.mp4	0.0	166.16749787330627	
26	145.19971799850464	fix_post	2		12	24.0	2.5	/experiments/AOT/AOT_stimuli/rescaled_final/1388_fw.mp4	0.0	167.08405780792236	0.0999000072479248
27	145.29961800575256	fix_pre	0		120	25.0	2.5	/experiments/AOT/AOT_stimuli/rescaled_final/1411_rv.mp4	0.0	167.1839578151703	0.9995801448822021
27	145.8831729888916	pulse	0	t		25.0	2.5	/experiments/AOT/AOT_stimuli/rescaled_final/1411_rv.mp4	0.0	167.76751279830933	
27	146.29919815063477	movie	1		244	25.0	2.5	/experiments/AOT/AOT_stimuli/rescaled_final/1411_rv.mp4	0.0	168.1835379600525	2.500067949295044
27	147.48320198059082	pulse	1	t		25.0	2.5	/experiments/AOT/AOT_stimuli/rescaled_final/1411_rv.mp4	0.0	169.36754179000854	
27	148.7992660999298	fix_post	2		12	25.0	2.5	/experiments/AOT/AOT_stimuli/rescaled_final/1411_rv.mp4	0.0	170.68360590934753	0.10045599937438965
28	148.8997220993042	fix_pre	0		120	26.0	2.5	blank	1.0	170.78406190872192	0.9999639987945557
28	149.08317518234253	pulse	0	t		26.0	2.5	blank	1.0	170.96751499176025	
28	149.89968609809875	movie	1		300	26.0	2.5	blank	1.0	171.78402590751648	2.499953031539917
28	150.68313908576965	pulse	1	t		26.0	2.5	blank	1.0	172.56747889518738	
28	152.28314399719238	pulse	1	t		26.0	2.5	blank	1.0	174.1674838066101	
28	152.39963912963867	fix_post	2		12	26.0	2.5	blank	1.0	174.2839789390564	0.09999704360961914
29	152.4996361732483	fix_pre	0		120	27.0	2.5	/experiments/AOT/AOT_stimuli/rescaled_final/0641_rv.mp4	0.0	174.38397598266602	1.0000250339508057
29	153.4996612071991	movie	1		244	27.0	2.5	/experiments/AOT/AOT_stimuli/rescaled_final/0641_rv.mp4	0.0	175.38400101661682	2.4999139308929443
29	153.8829641342163	pulse	1	t		27.0	2.5	/experiments/AOT/AOT_stimuli/rescaled_final/0641_rv.mp4	0.0	175.76730394363403	
29	155.48313808441162	pulse	1	t		27.0	2.5	/experiments/AOT/AOT_stimuli/rescaled_final/0641_rv.mp4	0.0	177.36747789382935	
29	155.99957513809204	fix_post	2		12	27.0	2.5	/experiments/AOT/AOT_stimuli/rescaled_final/0641_rv.mp4	0.0	177.88391494750977	0.10002803802490234
30	156.09960317611694	fix_pre	0		119	28.0	2.5	/experiments/AOT/AOT_stimuli/rescaled_final/0755_rv.mp4	0.0	177.98394298553467	0.991689920425415
30	157.0830910205841	pulse	0	t		28.0	2.5	/experiments/AOT/AOT_stimuli/rescaled_final/0755_rv.mp4	0.0	178.96743083000183	
30	157.09129309654236	movie	1		246	28.0	2.5	/experiments/AOT/AOT_stimuli/rescaled_final/0755_rv.mp4	0.0	178.97563290596008	2.508060932159424
30	158.68290615081787	pulse	1	t		28.0	2.5	/experiments/AOT/AOT_stimuli/rescaled_final/0755_rv.mp4	0.0	180.5672459602356	
30	159.59935402870178	fix_post	2		12	28.0	2.5	/experiments/AOT/AOT_stimuli/rescaled_final/0755_rv.mp4	0.0	181.4836938381195	0.10020995140075684
31	159.69956398010254	fix_pre	0		120	29.0	2.5	/experiments/AOT/AOT_stimuli/rescaled_final/0261_rv.mp4	0.0	181.58390378952026	0.9995660781860352
31	160.2830810546875	pulse	0	t		29.0	2.5	/experiments/AOT/AOT_stimuli/rescaled_final/0261_rv.mp4	0.0	182.16742086410522	
31	160.69913005828857	movie	1		244	29.0	2.5	/experiments/AOT/AOT_stimuli/rescaled_final/0261_rv.mp4	0.0	182.5834698677063	2.500067949295044
31	161.88306999206543	pulse	1	t		29.0	2.5	/experiments/AOT/AOT_stimuli/rescaled_final/0261_rv.mp4	0.0	183.76740980148315	
31	163.19919800758362	fix_post	2		12	29.0	2.5	/experiments/AOT/AOT_stimuli/rescaled_final/0261_rv.mp4	0.0	185.08353781700134	0.10035300254821777
32	163.29955101013184	fix_pre	0		120	30.0	2.5	/experiments/AOT/AOT_stimuli/rescaled_final/1089_fw.mp4	0.0	185.18389081954956	1.0000691413879395
32	163.4830629825592	pulse	0	t		30.0	2.5	/experiments/AOT/AOT_stimuli/rescaled_final/1089_fw.mp4	0.0	185.36740279197693	
32	164.29962015151978	movie	1		244	30.0	2.5	/experiments/AOT/AOT_stimuli/rescaled_final/1089_fw.mp4	0.0	186.1839599609375	2.4996328353881836
32	165.08307719230652	pulse	1	t		30.0	2.5	/experiments/AOT/AOT_stimuli/rescaled_final/1089_fw.mp4	0.0	186.96741700172424	
32	166.68330121040344	pulse	1	t		30.0	2.5	/experiments/AOT/AOT_stimuli/rescaled_final/1089_fw.mp4	0.0	188.56764101982117	
32	166.79925298690796	fix_post	2		12	30.0	2.5	/experiments/AOT/AOT_stimuli/rescaled_final/1089_fw.mp4	0.0	188.68359279632568	0.09987306594848633
33	166.89912605285645	fix_pre	0		120	31.0	2.5	/experiments/AOT/AOT_stimuli/rescaled_final/0066_fw.mp4	0.0	188.78346586227417	1.0004911422729492
33	167.8996171951294	movie	1		245	31.0	2.5	/experiments/AOT/AOT_stimuli/rescaled_final/0066_fw.mp4	0.0	189.78395700454712	2.49948787689209
33	168.28275799751282	pulse	1	t		31.0	2.5	/experiments/AOT/AOT_stimuli/rescaled_final/0066_fw.mp4	0.0	190.16709780693054	
33	169.8829472064972	pulse	1	t		31.0	2.5	/experiments/AOT/AOT_stimuli/rescaled_final/0066_fw.mp4	0.0	191.76728701591492	
33	170.39910507202148	fix_post	2		12	31.0	2.5	/experiments/AOT/AOT_stimuli/rescaled_final/0066_fw.mp4	0.0	192.2834448814392	0.10039710998535156
34	170.49950218200684	fix_pre	0		119	32.0	2.5	/experiments/AOT/AOT_stimuli/rescaled_final/0281_rv.mp4	0.0	192.38384199142456	0.9917199611663818
34	171.48313903808594	pulse	0	t		32.0	2.5	/experiments/AOT/AOT_stimuli/rescaled_final/0281_rv.mp4	0.0	193.36747884750366	
34	171.49122214317322	movie	1		246	32.0	2.5	/experiments/AOT/AOT_stimuli/rescaled_final/0281_rv.mp4	0.0	193.37556195259094	2.509105920791626
34	173.0828139781952	pulse	1	t		32.0	2.5	/experiments/AOT/AOT_stimuli/rescaled_final/0281_rv.mp4	0.0	194.96715378761292	
34	174.00032806396484	fix_post	2		12	32.0	2.5	/experiments/AOT/AOT_stimuli/rescaled_final/0281_rv.mp4	0.0	195.88466787338257	0.09926795959472656
35	174.09959602355957	fix_pre	0		120	33.0	2.5	/experiments/AOT/AOT_stimuli/rescaled_final/2063_rv.mp4	0.0	195.9839358329773	0.9999740123748779
35	174.6829960346222	pulse	0	t		33.0	2.5	/experiments/AOT/AOT_stimuli/rescaled_final/2063_rv.mp4	0.0	196.56733584403992	
35	175.09957003593445	movie	1		245	33.0	2.5	/experiments/AOT/AOT_stimuli/rescaled_final/2063_rv.mp4	0.0	196.98390984535217	2.4999911785125732
35	176.28308606147766	pulse	1	t		33.0	2.5	/experiments/AOT/AOT_stimuli/rescaled_final/2063_rv.mp4	0.0	198.16742587089539	
35	177.59956121444702	fix_post	2		12	33.0	2.5	/experiments/AOT/AOT_stimuli/rescaled_final/2063_rv.mp4	0.0	199.48390102386475	0.0999288558959961
36	177.69949007034302	fix_pre	0		120	34.0	2.5	/experiments/AOT/AOT_stimuli/rescaled_final/0353_fw.mp4	0.0	199.58382987976074	1.0001070499420166
36	177.88298511505127	pulse	0	t		34.0	2.5	/experiments/AOT/AOT_stimuli/rescaled_final/0353_fw.mp4	0.0	199.767324924469	
36	178.69959712028503	movie	1		244	34.0	2.5	/experiments/AOT/AOT_stimuli/rescaled_final/0353_fw.mp4	0.0	200.58393692970276	2.499901056289673
36	179.48293614387512	pulse	1	t		34.0	2.5	/experiments/AOT/AOT_stimuli/rescaled_final/0353_fw.mp4	0.0	201.36727595329285	
36	181.08303213119507	pulse	1	t		34.0	2.5	/experiments/AOT/AOT_stimuli/rescaled_final/0353_fw.mp4	0.0	202.9673719406128	
36	181.1994981765747	fix_post	2		12	34.0	2.5	/experiments/AOT/AOT_stimuli/rescaled_final/0353_fw.mp4	0.0	203.08383798599243	0.1000819206237793
37	181.2995800971985	fix_pre	0		120	35.0	2.5	blank	1.0	203.1839199066162	0.9998700618743896
37	182.29945015907288	movie	1		300	35.0	2.5	blank	1.0	204.1837899684906	2.4996180534362793
37	182.68295407295227	pulse	1	t		35.0	2.5	blank	1.0	204.56729388237	
37	184.28306317329407	pulse	1	t		35.0	2.5	blank	1.0	206.1674029827118	
37	184.79906821250916	fix_post	2		12	35.0	2.5	blank	1.0	206.68340802192688	0.10039782524108887
38	184.89946603775024	fix_pre	0		119	36.0	2.5	/experiments/AOT/AOT_stimuli/rescaled_final/0632_rv.mp4	0.0	206.78380584716797	0.9916090965270996
38	185.88297510147095	pulse	0	t		36.0	2.5	/experiments/AOT/AOT_stimuli/rescaled_final/0632_rv.mp4	0.0	207.76731491088867	
38	185.89107513427734	movie	1		246	36.0	2.5	/experiments/AOT/AOT_stimuli/rescaled_final/0632_rv.mp4	0.0	207.77541494369507	2.508314847946167
38	187.48298811912537	pulse	1	t		36.0	2.5	/experiments/AOT/AOT_stimuli/rescaled_final/0632_rv.mp4	0.0	209.3673279285431	
38	188.3993899822235	fix_post	2		12	36.0	2.5	/experiments/AOT/AOT_stimuli/rescaled_final/0632_rv.mp4	0.0	210.28372979164124	0.100128173828125
39	188.49951815605164	fix_pre	0		120	37.0	2.5	/experiments/AOT/AOT_stimuli/rescaled_final/1042_fw.mp4	0.0	210.38385796546936	0.9995558261871338
39	189.08302211761475	pulse	0	t		37.0	2.5	/experiments/AOT/AOT_stimuli/rescaled_final/1042_fw.mp4	0.0	210.96736192703247	
39	189.49907398223877	movie	1		244	37.0	2.5	/experiments/AOT/AOT_stimuli/rescaled_final/1042_fw.mp4	0.0	211.3834137916565	2.500429153442383
39	190.68306517601013	pulse	1	t		37.0	2.5	/experiments/AOT/AOT_stimuli/rescaled_final/1042_fw.mp4	0.0	212.56740498542786	
39	191.99950313568115	fix_post	2		12	37.0	2.5	/experiments/AOT/AOT_stimuli/rescaled_final/1042_fw.mp4	0.0	213.88384294509888	0.0998849868774414
40	192.0993881225586	fix_pre	0		120	38.0	2.5	/experiments/AOT/AOT_stimuli/rescaled_final/1436_rv.mp4	0.0	213.98372793197632	1.0000770092010498
40	192.28289413452148	pulse	0	t		38.0	2.5	/experiments/AOT/AOT_stimuli/rescaled_final/1436_rv.mp4	0.0	214.1672339439392	
40	193.09946513175964	movie	1		246	38.0	2.5	/experiments/AOT/AOT_stimuli/rescaled_final/1436_rv.mp4	0.0	214.98380494117737	2.4999358654022217
40	193.88292813301086	pulse	1	t		38.0	2.5	/experiments/AOT/AOT_stimuli/rescaled_final/1436_rv.mp4	0.0	215.7672679424286	
40	195.48302912712097	pulse	1	t		38.0	2.5	/experiments/AOT/AOT_stimuli/rescaled_final/1436_rv.mp4	0.0	217.3673689365387	
40	195.59940099716187	fix_post	2		12	38.0	2.5	/experiments/AOT/AOT_stimuli/rescaled_final/1436_rv.mp4	0.0	217.4837408065796	0.10001015663146973
41	195.69941115379333	fix_pre	0		120	39.0	2.5	/experiments/AOT/AOT_stimuli/rescaled_final/2075_fw.mp4	0.0	217.58375096321106	0.9996490478515625
41	196.6990602016449	movie	1		246	39.0	2.5	/experiments/AOT/AOT_stimuli/rescaled_final/2075_fw.mp4	0.0	218.58340001106262	2.4998879432678223
41	197.0827181339264	pulse	1	t		39.0	2.5	/experiments/AOT/AOT_stimuli/rescaled_final/2075_fw.mp4	0.0	218.96705794334412	
41	198.68288016319275	pulse	1	t		39.0	2.5	/experiments/AOT/AOT_stimuli/rescaled_final/2075_fw.mp4	0.0	220.56721997261047	
41	199.19894814491272	fix_post	2		12	39.0	2.5	/experiments/AOT/AOT_stimuli/rescaled_final/2075_fw.mp4	0.0	221.08328795433044	0.10045695304870605
42	199.29940509796143	fix_pre	0		119	40.0	2.5	blank	1.0	221.18374490737915	0.991624116897583
42	200.28296303749084	pulse	0	t		40.0	2.5	blank	1.0	222.16730284690857	
42	200.291029214859	movie	1		301	40.0	2.5	blank	1.0	222.17536902427673	2.508295774459839
42	201.88292598724365	pulse	1	t		40.0	2.5	blank	1.0	223.76726579666138	
42	202.79932498931885	fix_post	2		12	40.0	2.5	blank	1.0	224.68366479873657	0.10008621215820312
43	202.89941120147705	fix_pre	0		120	41.0	2.5	/experiments/AOT/AOT_stimuli/rescaled_final/0755_fw.mp4	0.0	224.78375101089478	0.9998929500579834
43	203.4828290939331	pulse	0	t		41.0	2.5	/experiments/AOT/AOT_stimuli/rescaled_final/0755_fw.mp4	0.0	225.36716890335083	
43	203.89930415153503	movie	1		245	41.0	2.5	/experiments/AOT/AOT_stimuli/rescaled_final/0755_fw.mp4	0.0	225.78364396095276	2.5000948905944824
43	205.0828800201416	pulse	1	t		41.0	2.5	/experiments/AOT/AOT_stimuli/rescaled_final/0755_fw.mp4	0.0	226.96721982955933	
43	206.39939904212952	fix_post	2		12	41.0	2.5	/experiments/AOT/AOT_stimuli/rescaled_final/0755_fw.mp4	0.0	228.28373885154724	0.09998297691345215
44	206.49938201904297	fix_pre	0		120	42.0	2.5	/experiments/AOT/AOT_stimuli/rescaled_final/1732_fw.mp4	0.0	228.3837218284607	0.9995219707489014
44	206.6828670501709	pulse	0	t		42.0	2.5	/experiments/AOT/AOT_stimuli/rescaled_final/1732_fw.mp4	0.0	228.56720685958862	
44	207.49890398979187	movie	1		243	42.0	2.5	/experiments/AOT/AOT_stimuli/rescaled_final/1732_fw.mp4	0.0	229.3832437992096	2.4999840259552
44	208.28282403945923	pulse	1	t		42.0	2.5	/experiments/AOT/AOT_stimuli/rescaled_final/1732_fw.mp4	0.0	230.16716384887695	
44	209.8812460899353	pulse	1	t		42.0	2.5	/experiments/AOT/AOT_stimuli/rescaled_final/1732_fw.mp4	0.0	231.76558589935303	
44	209.99888801574707	fix_post	2		12	42.0	2.5	/experiments/AOT/AOT_stimuli/rescaled_final/1732_fw.mp4	0.0	231.8832278251648	0.1004631519317627
45	210.09935116767883	fix_pre	0		120	43.0	2.5	/experiments/AOT/AOT_stimuli/rescaled_final/1482_rv.mp4	0.0	231.98369097709656	1.0001130104064941
45	211.09946417808533	movie	1		243	43.0	2.5	/experiments/AOT/AOT_stimuli/rescaled_final/1482_rv.mp4	0.0	232.98380398750305	2.499868869781494
45	211.48259019851685	pulse	1	t		43.0	2.5	/experiments/AOT/AOT_stimuli/rescaled_final/1482_rv.mp4	0.0	233.36693000793457	
45	213.08280205726624	pulse	1	t		43.0	2.5	/experiments/AOT/AOT_stimuli/rescaled_final/1482_rv.mp4	0.0	234.96714186668396	
45	213.59933304786682	fix_post	2		12	43.0	2.5	/experiments/AOT/AOT_stimuli/rescaled_final/1482_rv.mp4	0.0	235.48367285728455	0.09998798370361328
46	213.69932103157043	fix_pre	0		119	44.0	2.5	/experiments/AOT/AOT_stimuli/rescaled_final/1524_fw.mp4	0.0	235.58366084098816	0.99167799949646
46	214.68286108970642	pulse	0	t		44.0	2.5	/experiments/AOT/AOT_stimuli/rescaled_final/1524_fw.mp4	0.0	236.56720089912415	
46	214.6909990310669	movie	1		244	44.0	2.5	/experiments/AOT/AOT_stimuli/rescaled_final/1524_fw.mp4	0.0	236.57533884048462	2.5083260536193848
46	216.28267908096313	pulse	1	t		44.0	2.5	/experiments/AOT/AOT_stimuli/rescaled_final/1524_fw.mp4	0.0	238.16701889038086	
46	217.19932508468628	fix_post	2		12	44.0	2.5	/experiments/AOT/AOT_stimuli/rescaled_final/1524_fw.mp4	0.0	239.083664894104	0.10000491142272949
47	217.299329996109	fix_pre	0		120	45.0	2.5	/experiments/AOT/AOT_stimuli/rescaled_final/1125_fw.mp4	0.0	239.18366980552673	0.999981164932251
47	217.8828330039978	pulse	0	t		45.0	2.5	/experiments/AOT/AOT_stimuli/rescaled_final/1125_fw.mp4	0.0	239.76717281341553	
47	218.29931116104126	movie	1		245	45.0	2.5	/experiments/AOT/AOT_stimuli/rescaled_final/1125_fw.mp4	0.0	240.18365097045898	2.499526023864746
47	219.48299503326416	pulse	1	t		45.0	2.5	/experiments/AOT/AOT_stimuli/rescaled_final/1125_fw.mp4	0.0	241.36733484268188	
47	220.798837184906	fix_post	2		12	45.0	2.5	/experiments/AOT/AOT_stimuli/rescaled_final/1125_fw.mp4	0.0	242.68317699432373	0.10049200057983398
48	220.89932918548584	fix_pre	0		120	46.0	2.5	/experiments/AOT/AOT_stimuli/rescaled_final/0417_rv.mp4	0.0	242.78366899490356	1.000032901763916
48	221.08282899856567	pulse	0	t		46.0	2.5	/experiments/AOT/AOT_stimuli/rescaled_final/0417_rv.mp4	0.0	242.9671688079834	
48	221.89936208724976	movie	1		246	46.0	2.5	/experiments/AOT/AOT_stimuli/rescaled_final/0417_rv.mp4	0.0	243.78370189666748	2.500027894973755
48	222.68234610557556	pulse	1	t		46.0	2.5	/experiments/AOT/AOT_stimuli/rescaled_final/0417_rv.mp4	0.0	244.5666859149933	
48	224.28137803077698	pulse	1	t		46.0	2.5	/experiments/AOT/AOT_stimuli/rescaled_final/0417_rv.mp4	0.0	246.1657178401947	
48	224.3993899822235	fix_post	2		12	46.0	2.5	/experiments/AOT/AOT_stimuli/rescaled_final/0417_rv.mp4	0.0	246.28372979164124	0.0996401309967041
49	224.49903011322021	fix_pre	0		120	47.0	2.5	/experiments/AOT/AOT_stimuli/rescaled_final/0799_rv.mp4	0.0	246.38336992263794	1.000128984451294
49	225.4991590976715	movie	1		244	47.0	2.5	/experiments/AOT/AOT_stimuli/rescaled_final/0799_rv.mp4	0.0	247.38349890708923	2.5000619888305664
49	225.8822832107544	pulse	1	t		47.0	2.5	/experiments/AOT/AOT_stimuli/rescaled_final/0799_rv.mp4	0.0	247.76662302017212	
49	227.48277521133423	pulse	1	t		47.0	2.5	/experiments/AOT/AOT_stimuli/rescaled_final/0799_rv.mp4	0.0	249.36711502075195	
49	227.99922108650208	fix_post	2		12	47.0	2.5	/experiments/AOT/AOT_stimuli/rescaled_final/0799_rv.mp4	0.0	249.8835608959198	0.10007095336914062
50	228.09929203987122	fix_pre	0		119	48.0	2.5	blank	1.0	249.98363184928894	0.9917099475860596
50	229.08277106285095	pulse	0	t		48.0	2.5	blank	1.0	250.96711087226868	
50	229.09100198745728	movie	1		301	48.0	2.5	blank	1.0	250.975341796875	2.508251190185547
50	230.68296718597412	pulse	1	t		48.0	2.5	blank	1.0	252.56730699539185	
50	231.59925317764282	fix_post	2		12	48.0	2.5	blank	1.0	253.48359298706055	0.09996891021728516
51	231.6992220878601	fix_pre	0		120	49.0	2.5	/experiments/AOT/AOT_stimuli/rescaled_final/0959_rv.mp4	0.0	253.58356189727783	0.9999549388885498
51	232.28264713287354	pulse	0	t		49.0	2.5	/experiments/AOT/AOT_stimuli/rescaled_final/0959_rv.mp4	0.0	254.16698694229126	
51	232.69917702674866	movie	1		244	49.0	2.5	/experiments/AOT/AOT_stimuli/rescaled_final/0959_rv.mp4	0.0	254.58351683616638	2.499657154083252
51	233.8828001022339	pulse	1	t		49.0	2.5	/experiments/AOT/AOT_stimuli/rescaled_final/0959_rv.mp4	0.0	255.7671399116516	
51	235.1988341808319	fix_post	2		12	49.0	2.5	/experiments/AOT/AOT_stimuli/rescaled_final/0959_rv.mp4	0.0	257.08317399024963	0.1003568172454834
52	235.2991909980774	fix_pre	0		120	50.0	2.5	/experiments/AOT/AOT_stimuli/rescaled_final/1417_fw.mp4	0.0	257.1835308074951	1.0000040531158447
52	235.48271799087524	pulse	0	t		50.0	2.5	/experiments/AOT/AOT_stimuli/rescaled_final/1417_fw.mp4	0.0	257.36705780029297	
52	236.29919505119324	movie	1		246	50.0	2.5	/experiments/AOT/AOT_stimuli/rescaled_final/1417_fw.mp4	0.0	258.18353486061096	2.4999430179595947
52	237.08268904685974	pulse	1	t		50.0	2.5	/experiments/AOT/AOT_stimuli/rescaled_final/1417_fw.mp4	0.0	258.96702885627747	
52	238.681223154068	pulse	1	t		50.0	2.5	/experiments/AOT/AOT_stimuli/rescaled_final/1417_fw.mp4	0.0	260.5655629634857	
52	238.79913806915283	fix_post	2		12	50.0	2.5	/experiments/AOT/AOT_stimuli/rescaled_final/1417_fw.mp4	0.0	260.68347787857056	0.09962201118469238
53	238.89876008033752	fix_pre	0		120	51.0	2.5	/experiments/AOT/AOT_stimuli/rescaled_final/1704_fw.mp4	0.0	260.78309988975525	1.000382900238037
53	239.89914298057556	movie	1		245	51.0	2.5	/experiments/AOT/AOT_stimuli/rescaled_final/1704_fw.mp4	0.0	261.7834827899933	2.499577045440674
53	240.28307104110718	pulse	1	t		51.0	2.5	/experiments/AOT/AOT_stimuli/rescaled_final/1704_fw.mp4	0.0	262.1674108505249	
53	241.8826870918274	pulse	1	t		51.0	2.5	/experiments/AOT/AOT_stimuli/rescaled_final/1704_fw.mp4	0.0	263.7670269012451	
53	242.39872002601624	fix_post	2		12	51.0	2.5	/experiments/AOT/AOT_stimuli/rescaled_final/1704_fw.mp4	0.0	264.28305983543396	0.10036015510559082
54	242.49908018112183	fix_pre	0		119	52.0	2.5	/experiments/AOT/AOT_stimuli/rescaled_final/0321_fw.mp4	0.0	264.38341999053955	0.991736888885498
54	243.48271012306213	pulse	0	t		52.0	2.5	/experiments/AOT/AOT_stimuli/rescaled_final/0321_fw.mp4	0.0	265.36704993247986	
54	243.49081707000732	movie	1		247	52.0	2.5	/experiments/AOT/AOT_stimuli/rescaled_final/0321_fw.mp4	0.0	265.37515687942505	2.507920026779175
54	245.08245706558228	pulse	1	t		52.0	2.5	/experiments/AOT/AOT_stimuli/rescaled_final/0321_fw.mp4	0.0	266.966796875	
54	245.9987370967865	fix_post	2		12	52.0	2.5	/experiments/AOT/AOT_stimuli/rescaled_final/0321_fw.mp4	0.0	267.8830769062042	0.10044693946838379
55	246.09918403625488	fix_pre	0		120	53.0	2.5	/experiments/AOT/AOT_stimuli/rescaled_final/0151_fw.mp4	0.0	267.9835238456726	0.9995450973510742
55	246.68273401260376	pulse	0	t		53.0	2.5	/experiments/AOT/AOT_stimuli/rescaled_final/0151_fw.mp4	0.0	268.5670738220215	
55	247.09872913360596	movie	1		243	53.0	2.5	/experiments/AOT/AOT_stimuli/rescaled_final/0151_fw.mp4	0.0	268.9830689430237	2.5003600120544434
55	248.28272700309753	pulse	1	t		53.0	2.5	/experiments/AOT/AOT_stimuli/rescaled_final/0151_fw.mp4	0.0	270.16706681251526	
55	249.5990891456604	fix_post	2		12	53.0	2.5	/experiments/AOT/AOT_stimuli/rescaled_final/0151_fw.mp4	0.0	271.4834289550781	0.10002684593200684
56	249.6991159915924	fix_pre	0		120	54.0	2.5	blank	1.0	271.58345580101013	0.9999940395355225
56	249.88267302513123	pulse	0	t		54.0	2.5	blank	1.0	271.76701283454895	
56	250.69911003112793	movie	1		300	54.0	2.5	blank	1.0	272.58344984054565	2.4995980262756348
56	251.48266410827637	pulse	1	t		54.0	2.5	blank	1.0	273.3670039176941	
56	253.08266711235046	pulse	1	t		54.0	2.5	blank	1.0	274.9670069217682	
56	253.19870805740356	fix_post	2		12	54.0	2.5	blank	1.0	275.0830478668213	0.10032892227172852
57	253.2990369796753	fix_pre	0		120	55.0	2.5	/experiments/AOT/AOT_stimuli/rescaled_final/1996_fw.mp4	0.0	275.183376789093	1.0000700950622559
57	254.29910707473755	movie	1		243	55.0	2.5	/experiments/AOT/AOT_stimuli/rescaled_final/1996_fw.mp4	0.0	276.1834468841553	2.5000669956207275
57	254.68279504776	pulse	1	t		55.0	2.5	/experiments/AOT/AOT_stimuli/rescaled_final/1996_fw.mp4	0.0	276.56713485717773	
57	256.282763004303	pulse	1	t		55.0	2.5	/experiments/AOT/AOT_stimuli/rescaled_final/1996_fw.mp4	0.0	278.1671028137207	
57	256.7991740703583	fix_post	2		12	55.0	2.5	/experiments/AOT/AOT_stimuli/rescaled_final/1996_fw.mp4	0.0	278.683513879776	0.10003113746643066
58	256.8992052078247	fix_pre	0		119	56.0	2.5	/experiments/AOT/AOT_stimuli/rescaled_final/0828_rv.mp4	0.0	278.78354501724243	0.9915878772735596
58	257.88261103630066	pulse	0	t		56.0	2.5	/experiments/AOT/AOT_stimuli/rescaled_final/0828_rv.mp4	0.0	279.7669508457184	
58	257.89079308509827	movie	1		245	56.0	2.5	/experiments/AOT/AOT_stimuli/rescaled_final/0828_rv.mp4	0.0	279.775132894516	2.5083110332489014
58	259.4823341369629	pulse	1	t		56.0	2.5	/experiments/AOT/AOT_stimuli/rescaled_final/0828_rv.mp4	0.0	281.3666739463806	
58	260.39910411834717	fix_post	2		12	56.0	2.5	/experiments/AOT/AOT_stimuli/rescaled_final/0828_rv.mp4	0.0	282.2834439277649	0.10004591941833496
59	260.4991500377655	fix_pre	0		120	57.0	2.5	/experiments/AOT/AOT_stimuli/rescaled_final/2156_rv.mp4	0.0	282.3834898471832	0.9999020099639893
59	261.082622051239	pulse	0	t		57.0	2.5	/experiments/AOT/AOT_stimuli/rescaled_final/2156_rv.mp4	0.0	282.96696186065674	
59	261.4990520477295	movie	1		246	57.0	2.5	/experiments/AOT/AOT_stimuli/rescaled_final/2156_rv.mp4	0.0	283.3833918571472	2.4995861053466797
59	262.68257904052734	pulse	1	t		57.0	2.5	/experiments/AOT/AOT_stimuli/rescaled_final/2156_rv.mp4	0.0	284.56691884994507	
59	263.9986381530762	fix_post	2		12	57.0	2.5	/experiments/AOT/AOT_stimuli/rescaled_final/2156_rv.mp4	0.0	285.8829779624939	0.10046982765197754
60	264.09910798072815	fix_pre	0		120	58.0	2.5	/experiments/AOT/AOT_stimuli/rescaled_final/1434_fw.mp4	0.0	285.9834477901459	1.0000040531158447
60	264.28259921073914	pulse	0	t		58.0	2.5	/experiments/AOT/AOT_stimuli/rescaled_final/1434_fw.mp4	0.0	286.16693902015686	
60	265.099112033844	movie	1		245	58.0	2.5	/experiments/AOT/AOT_stimuli/rescaled_final/1434_fw.mp4	0.0	286.9834518432617	2.4996120929718018
60	265.8825800418854	pulse	1	t		58.0	2.5	/experiments/AOT/AOT_stimuli/rescaled_final/1434_fw.mp4	0.0	287.7669198513031	
60	267.4814281463623	pulse	1	t		58.0	2.5	/experiments/AOT/AOT_stimuli/rescaled_final/1434_fw.mp4	0.0	289.36576795578003	
60	267.5987241268158	fix_post	2		12	58.0	2.5	/experiments/AOT/AOT_stimuli/rescaled_final/1434_fw.mp4	0.0	289.4830639362335	0.10035204887390137
61	267.6990761756897	fix_pre	0		120	59.0	2.5	/experiments/AOT/AOT_stimuli/rescaled_final/1993_rv.mp4	0.0	289.5834159851074	0.9995558261871338
61	268.69863200187683	movie	1		244	59.0	2.5	/experiments/AOT/AOT_stimuli/rescaled_final/1993_rv.mp4	0.0	290.58297181129456	2.5003721714019775
61	269.0835630893707	pulse	1	t		59.0	2.5	/experiments/AOT/AOT_stimuli/rescaled_final/1993_rv.mp4	0.0	290.96790289878845	
61	270.68255400657654	pulse	1	t		59.0	2.5	/experiments/AOT/AOT_stimuli/rescaled_final/1993_rv.mp4	0.0	292.56689381599426	
61	271.1990041732788	fix_post	2		12	59.0	2.5	/experiments/AOT/AOT_stimuli/rescaled_final/1993_rv.mp4	0.0	293.08334398269653	0.0996088981628418
62	271.29861307144165	fix_pre	0		119	60.0	2.5	/experiments/AOT/AOT_stimuli/rescaled_final/0963_fw.mp4	0.0	293.1829528808594	0.992110013961792
62	272.2826211452484	pulse	0	t		60.0	2.5	/experiments/AOT/AOT_stimuli/rescaled_final/0963_fw.mp4	0.0	294.16696095466614	
62	272.29072308540344	movie	1		244	60.0	2.5	/experiments/AOT/AOT_stimuli/rescaled_final/0963_fw.mp4	0.0	294.17506289482117	2.5082180500030518
62	273.88401317596436	pulse	1	t		60.0	2.5	/experiments/AOT/AOT_stimuli/rescaled_final/0963_fw.mp4	0.0	295.7683529853821	
62	274.7989411354065	fix_post	2		12	60.0	2.5	/experiments/AOT/AOT_stimuli/rescaled_final/0963_fw.mp4	0.0	296.6832809448242	0.1000828742980957
63	274.8990240097046	fix_pre	0		120	61.0	2.5	blank	1.0	296.7833638191223	0.9999470710754395
63	275.4826090335846	pulse	0	t		61.0	2.5	blank	1.0	297.3669488430023	
63	275.89897108078003	movie	1		300	61.0	2.5	blank	1.0	297.78331089019775	2.500044107437134
63	277.08255410194397	pulse	1	t		61.0	2.5	blank	1.0	298.9668939113617	
63	278.39901518821716	fix_post	2		12	61.0	2.5	blank	1.0	300.2833549976349	0.09958600997924805
64	278.4986011981964	fix_pre	0		120	62.0	2.5	/experiments/AOT/AOT_stimuli/rescaled_final/1888_rv.mp4	0.0	300.38294100761414	0.9999949932098389
64	278.6821300983429	pulse	0	t		62.0	2.5	/experiments/AOT/AOT_stimuli/rescaled_final/1888_rv.mp4	0.0	300.5664699077606	
64	279.49859619140625	movie	1		244	62.0	2.5	/experiments/AOT/AOT_stimuli/rescaled_final/1888_rv.mp4	0.0	301.382936000824	2.5003910064697266
64	280.28278398513794	pulse	1	t		62.0	2.5	/experiments/AOT/AOT_stimuli/rescaled_final/1888_rv.mp4	0.0	302.16712379455566	
64	281.88123202323914	pulse	1	t		62.0	2.5	/experiments/AOT/AOT_stimuli/rescaled_final/1888_rv.mp4	0.0	303.76557183265686	
64	281.998987197876	fix_post	2		12	62.0	2.5	/experiments/AOT/AOT_stimuli/rescaled_final/1888_rv.mp4	0.0	303.8833270072937	0.10002279281616211
65	282.09900999069214	fix_pre	0		120	63.0	2.5	/experiments/AOT/AOT_stimuli/rescaled_final/0220_fw.mp4	0.0	303.98334980010986	0.9999890327453613
65	283.0989990234375	movie	1		245	63.0	2.5	/experiments/AOT/AOT_stimuli/rescaled_final/0220_fw.mp4	0.0	304.9833388328552	2.4999380111694336
65	283.4824070930481	pulse	1	t		63.0	2.5	/experiments/AOT/AOT_stimuli/rescaled_final/0220_fw.mp4	0.0	305.3667469024658	
65	285.0824570655823	pulse	1	t		63.0	2.5	/experiments/AOT/AOT_stimuli/rescaled_final/0220_fw.mp4	0.0	306.966796875	
65	285.59893703460693	fix_post	2		12	63.0	2.5	/experiments/AOT/AOT_stimuli/rescaled_final/0220_fw.mp4	0.0	307.48327684402466	0.10004210472106934
66	285.698979139328	fix_pre	0		119	64.0	2.5	/experiments/AOT/AOT_stimuli/rescaled_final/0591_fw.mp4	0.0	307.5833189487457	0.9917359352111816
66	286.6824162006378	pulse	0	t		64.0	2.5	/experiments/AOT/AOT_stimuli/rescaled_final/0591_fw.mp4	0.0	308.56675601005554	
66	286.6907150745392	movie	1		245	64.0	2.5	/experiments/AOT/AOT_stimuli/rescaled_final/0591_fw.mp4	0.0	308.5750548839569	2.5083470344543457
66	288.2835531234741	pulse	1	t		64.0	2.5	/experiments/AOT/AOT_stimuli/rescaled_final/0591_fw.mp4	0.0	310.16789293289185	
66	289.19906210899353	fix_post	2		12	64.0	2.5	/experiments/AOT/AOT_stimuli/rescaled_final/0591_fw.mp4	0.0	311.08340191841125	0.09985995292663574
67	289.29892206192017	fix_pre	0		120	65.0	2.5	/experiments/AOT/AOT_stimuli/rescaled_final/0659_fw.mp4	0.0	311.1832618713379	1.0000910758972168
67	289.882404088974	pulse	0	t		65.0	2.5	/experiments/AOT/AOT_stimuli/rescaled_final/0659_fw.mp4	0.0	311.7667438983917	
67	290.2990131378174	movie	1		245	65.0	2.5	/experiments/AOT/AOT_stimuli/rescaled_final/0659_fw.mp4	0.0	312.1833529472351	2.499506950378418
67	291.48251700401306	pulse	1	t		65.0	2.5	/experiments/AOT/AOT_stimuli/rescaled_final/0659_fw.mp4	0.0	313.3668568134308	
67	292.7985200881958	fix_post	2		12	65.0	2.5	/experiments/AOT/AOT_stimuli/rescaled_final/0659_fw.mp4	0.0	314.6828598976135	0.10001111030578613
68	292.8985311985016	fix_pre	0		120	66.0	2.5	/experiments/AOT/AOT_stimuli/rescaled_final/1241_fw.mp4	0.0	314.7828710079193	1.0003747940063477
68	293.0824999809265	pulse	0	t		66.0	2.5	/experiments/AOT/AOT_stimuli/rescaled_final/1241_fw.mp4	0.0	314.96683979034424	
68	293.89890599250793	movie	1		244	66.0	2.5	/experiments/AOT/AOT_stimuli/rescaled_final/1241_fw.mp4	0.0	315.78324580192566	2.4999301433563232
68	294.6823751926422	pulse	1	t		66.0	2.5	/experiments/AOT/AOT_stimuli/rescaled_final/1241_fw.mp4	0.0	316.56671500205994	
68	296.2809820175171	pulse	1	t		66.0	2.5	/experiments/AOT/AOT_stimuli/rescaled_final/1241_fw.mp4	0.0	318.1653218269348	
68	296.39883613586426	fix_post	2		12	66.0	2.5	/experiments/AOT/AOT_stimuli/rescaled_final/1241_fw.mp4	0.0	318.283175945282	0.10006189346313477
69	296.4988980293274	fix_pre	0		120	67.0	2.5	/experiments/AOT/AOT_stimuli/rescaled_final/0624_fw.mp4	0.0	318.3832378387451	0.9999620914459229
69	297.4988601207733	movie	1		244	67.0	2.5	/experiments/AOT/AOT_stimuli/rescaled_final/0624_fw.mp4	0.0	319.38319993019104	2.500117063522339
69	297.8821702003479	pulse	1	t		67.0	2.5	/experiments/AOT/AOT_stimuli/rescaled_final/0624_fw.mp4	0.0	319.7665100097656	
69	299.4824221134186	pulse	1	t		67.0	2.5	/experiments/AOT/AOT_stimuli/rescaled_final/0624_fw.mp4	0.0	321.3667619228363	
69	299.99897718429565	fix_post	2		12	67.0	2.5	/experiments/AOT/AOT_stimuli/rescaled_final/0624_fw.mp4	0.0	321.8833169937134	0.09999585151672363
70	300.0989730358124	fix_pre	0		119	68.0	2.5	/experiments/AOT/AOT_stimuli/rescaled_final/2075_rv.mp4	0.0	321.9833128452301	0.9915299415588379
70	301.0824410915375	pulse	0	t		68.0	2.5	/experiments/AOT/AOT_stimuli/rescaled_final/2075_rv.mp4	0.0	322.9667809009552	
70	301.0905029773712	movie	1		246	68.0	2.5	/experiments/AOT/AOT_stimuli/rescaled_final/2075_rv.mp4	0.0	322.97484278678894	2.5084052085876465
70	302.68186020851135	pulse	1	t		68.0	2.5	/experiments/AOT/AOT_stimuli/rescaled_final/2075_rv.mp4	0.0	324.5662000179291	
70	303.59890818595886	fix_post	2		12	68.0	2.5	/experiments/AOT/AOT_stimuli/rescaled_final/2075_rv.mp4	0.0	325.4832479953766	0.09996485710144043
71	303.6988730430603	fix_pre	0		120	69.0	2.5	blank	1.0	325.583212852478	0.9999940395355225
71	304.2823450565338	pulse	0	t		69.0	2.5	blank	1.0	326.16668486595154	
71	304.6988670825958	movie	1		300	69.0	2.5	blank	1.0	326.58320689201355	2.5000059604644775
71	305.88237714767456	pulse	1	t		69.0	2.5	blank	1.0	327.7667169570923	
71	307.1988730430603	fix_post	2		12	69.0	2.5	blank	1.0	329.083212852478	0.10009407997131348
72	307.2989671230316	fix_pre	0		120	70.0	2.5	/experiments/AOT/AOT_stimuli/rescaled_final/1097_rv.mp4	0.0	329.18330693244934	0.9994559288024902
72	307.4824380874634	pulse	0	t		70.0	2.5	/experiments/AOT/AOT_stimuli/rescaled_final/1097_rv.mp4	0.0	329.3667778968811	
72	308.2984230518341	movie	1		248	70.0	2.5	/experiments/AOT/AOT_stimuli/rescaled_final/1097_rv.mp4	0.0	330.18276286125183	2.499998092651367
72	309.08235812187195	pulse	1	t		70.0	2.5	/experiments/AOT/AOT_stimuli/rescaled_final/1097_rv.mp4	0.0	330.9666979312897	
72	310.68235301971436	pulse	1	t		70.0	2.5	/experiments/AOT/AOT_stimuli/rescaled_final/1097_rv.mp4	0.0	332.5666928291321	
72	310.7984211444855	fix_post	2		12	70.0	2.5	/experiments/AOT/AOT_stimuli/rescaled_final/1097_rv.mp4	0.0	332.6827609539032	0.10040783882141113
73	310.8988289833069	fix_pre	0		120	71.0	2.5	/experiments/AOT/AOT_stimuli/rescaled_final/1337_rv.mp4	0.0	332.7831687927246	0.9999780654907227
73	311.8988070487976	movie	1		243	71.0	2.5	/experiments/AOT/AOT_stimuli/rescaled_final/1337_rv.mp4	0.0	333.78314685821533	2.4995579719543457
73	312.28225207328796	pulse	1	t		71.0	2.5	/experiments/AOT/AOT_stimuli/rescaled_final/1337_rv.mp4	0.0	334.1665918827057	
73	313.8823699951172	pulse	1	t		71.0	2.5	/experiments/AOT/AOT_stimuli/rescaled_final/1337_rv.mp4	0.0	335.7667098045349	
73	314.39836502075195	fix_post	2		12	71.0	2.5	/experiments/AOT/AOT_stimuli/rescaled_final/1337_rv.mp4	0.0	336.2827048301697	0.10040998458862305
74	314.4987750053406	fix_pre	0		119	72.0	2.5	/experiments/AOT/AOT_stimuli/rescaled_final/1818_rv.mp4	0.0	336.3831148147583	0.9917910099029541
74	315.48236203193665	pulse	0	t		72.0	2.5	/experiments/AOT/AOT_stimuli/rescaled_final/1818_rv.mp4	0.0	337.36670184135437	
74	315.49056601524353	movie	1		245	72.0	2.5	/experiments/AOT/AOT_stimuli/rescaled_final/1818_rv.mp4	0.0	337.37490582466125	2.508239984512329
74	317.0820481777191	pulse	1	t		72.0	2.5	/experiments/AOT/AOT_stimuli/rescaled_final/1818_rv.mp4	0.0	338.96638798713684	
74	317.99880599975586	fix_post	2		12	72.0	2.5	/experiments/AOT/AOT_stimuli/rescaled_final/1818_rv.mp4	0.0	339.8831458091736	0.1000511646270752
75	318.09885716438293	fix_pre	0		120	73.0	2.5	/experiments/AOT/AOT_stimuli/rescaled_final/1482_rv.mp4	0.0	339.98319697380066	0.9999630451202393
75	318.6823010444641	pulse	0	t		73.0	2.5	/experiments/AOT/AOT_stimuli/rescaled_final/1482_rv.mp4	0.0	340.56664085388184	
75	319.0988202095032	movie	1		244	73.0	2.5	/experiments/AOT/AOT_stimuli/rescaled_final/1482_rv.mp4	0.0	340.9831600189209	2.499971866607666
75	320.2823750972748	pulse	1	t		73.0	2.5	/experiments/AOT/AOT_stimuli/rescaled_final/1482_rv.mp4	0.0	342.1667149066925	
75	321.59879207611084	fix_post	2		12	73.0	2.5	/experiments/AOT/AOT_stimuli/rescaled_final/1482_rv.mp4	0.0	343.48313188552856	0.09994292259216309
76	321.698734998703	fix_pre	0		120	74.0	2.5	/experiments/AOT/AOT_stimuli/rescaled_final/2036_fw.mp4	0.0	343.5830748081207	0.9997270107269287
76	321.88230204582214	pulse	0	t		74.0	2.5	/experiments/AOT/AOT_stimuli/rescaled_final/2036_fw.mp4	0.0	343.76664185523987	
76	322.69846200942993	movie	1		246	74.0	2.5	/experiments/AOT/AOT_stimuli/rescaled_final/2036_fw.mp4	0.0	344.58280181884766	2.500293016433716
76	323.4823000431061	pulse	1	t		74.0	2.5	/experiments/AOT/AOT_stimuli/rescaled_final/2036_fw.mp4	0.0	345.3666398525238	
76	325.08232498168945	pulse	1	t		74.0	2.5	/experiments/AOT/AOT_stimuli/rescaled_final/2036_fw.mp4	0.0	346.9666647911072	
76	325.19875502586365	fix_post	2		12	74.0	2.5	/experiments/AOT/AOT_stimuli/rescaled_final/2036_fw.mp4	0.0	347.0830948352814	0.10004305839538574
77	325.29879808425903	fix_pre	0		120	75.0	2.5	blank	1.0	347.18313789367676	0.999932050704956
77	326.298730134964	movie	1		300	75.0	2.5	blank	1.0	348.1830699443817	2.500025987625122
77	326.68224906921387	pulse	1	t		75.0	2.5	blank	1.0	348.5665888786316	
77	328.28234815597534	pulse	1	t		75.0	2.5	blank	1.0	350.16668796539307	
77	328.7987561225891	fix_post	2		12	75.0	2.5	blank	1.0	350.68309593200684	0.09995794296264648
78	328.89871406555176	fix_pre	0		119	76.0	2.5	/experiments/AOT/AOT_stimuli/rescaled_final/1593_fw.mp4	0.0	350.7830538749695	0.9916341304779053
78	329.8821921348572	pulse	0	t		76.0	2.5	/experiments/AOT/AOT_stimuli/rescaled_final/1593_fw.mp4	0.0	351.7665319442749	
78	329.89034819602966	movie	1		245	76.0	2.5	/experiments/AOT/AOT_stimuli/rescaled_final/1593_fw.mp4	0.0	351.7746880054474	2.5083658695220947
78	331.4819190502167	pulse	1	t		76.0	2.5	/experiments/AOT/AOT_stimuli/rescaled_final/1593_fw.mp4	0.0	353.3662588596344	
78	332.39871406555176	fix_post	2		12	76.0	2.5	/experiments/AOT/AOT_stimuli/rescaled_final/1593_fw.mp4	0.0	354.2830538749695	0.10001707077026367
79	332.498731136322	fix_pre	0		120	77.0	2.5	/experiments/AOT/AOT_stimuli/rescaled_final/1572_fw.mp4	0.0	354.38307094573975	1.0000078678131104
79	333.0822060108185	pulse	0	t		77.0	2.5	/experiments/AOT/AOT_stimuli/rescaled_final/1572_fw.mp4	0.0	354.9665458202362	
79	333.49873900413513	movie	1		248	77.0	2.5	/experiments/AOT/AOT_stimuli/rescaled_final/1572_fw.mp4	0.0	355.38307881355286	2.500148057937622
79	334.6817991733551	pulse	1	t		77.0	2.5	/experiments/AOT/AOT_stimuli/rescaled_final/1572_fw.mp4	0.0	356.5661389827728	
79	335.99888706207275	fix_post	2		12	77.0	2.5	/experiments/AOT/AOT_stimuli/rescaled_final/1572_fw.mp4	0.0	357.8832268714905	0.1000211238861084
80	336.09890818595886	fix_pre	0		120	78.0	2.5	/experiments/AOT/AOT_stimuli/rescaled_final/0959_rv.mp4	0.0	357.9832479953766	0.9997179508209229
80	336.28200221061707	pulse	0	t		78.0	2.5	/experiments/AOT/AOT_stimuli/rescaled_final/0959_rv.mp4	0.0	358.1663420200348	
80	337.0986261367798	movie	1		244	78.0	2.5	/experiments/AOT/AOT_stimuli/rescaled_final/0959_rv.mp4	0.0	358.9829659461975	2.500041961669922
80	337.8821771144867	pulse	1	t		78.0	2.5	/experiments/AOT/AOT_stimuli/rescaled_final/0959_rv.mp4	0.0	359.7665169239044	
80	339.4805471897125	pulse	1	t		78.0	2.5	/experiments/AOT/AOT_stimuli/rescaled_final/0959_rv.mp4	0.0	361.36488699913025	
80	339.5986680984497	fix_post	2		12	78.0	2.5	/experiments/AOT/AOT_stimuli/rescaled_final/0959_rv.mp4	0.0	361.48300790786743	0.10002303123474121
81	339.69869112968445	fix_pre	0		120	79.0	2.5	/experiments/AOT/AOT_stimuli/rescaled_final/0663_fw.mp4	0.0	361.5830309391022	0.9999949932098389
81	340.6986861228943	movie	1		243	79.0	2.5	/experiments/AOT/AOT_stimuli/rescaled_final/0663_fw.mp4	0.0	362.583025932312	2.499619960784912
81	341.08309602737427	pulse	1	t		79.0	2.5	/experiments/AOT/AOT_stimuli/rescaled_final/0663_fw.mp4	0.0	362.967435836792	
81	342.68212604522705	pulse	1	t		79.0	2.5	/experiments/AOT/AOT_stimuli/rescaled_final/0663_fw.mp4	0.0	364.5664658546448	
81	343.1983060836792	fix_post	2		12	79.0	2.5	/experiments/AOT/AOT_stimuli/rescaled_final/0663_fw.mp4	0.0	365.0826458930969	0.10032391548156738
82	343.29862999916077	fix_pre	0		119	80.0	2.5	/experiments/AOT/AOT_stimuli/rescaled_final/0518_fw.mp4	0.0	365.1829698085785	0.9917340278625488
82	344.28224515914917	pulse	0	t		80.0	2.5	/experiments/AOT/AOT_stimuli/rescaled_final/0518_fw.mp4	0.0	366.1665849685669	
82	344.2903640270233	movie	1		246	80.0	2.5	/experiments/AOT/AOT_stimuli/rescaled_final/0518_fw.mp4	0.0	366.17470383644104	2.507874011993408
82	345.8819282054901	pulse	1	t		80.0	2.5	/experiments/AOT/AOT_stimuli/rescaled_final/0518_fw.mp4	0.0	367.76626801490784	
82	346.7982380390167	fix_post	2		12	80.0	2.5	/experiments/AOT/AOT_stimuli/rescaled_final/0518_fw.mp4	0.0	368.68257784843445	0.1004021167755127
83	346.89864015579224	fix_pre	0		120	81.0	2.5	/experiments/AOT/AOT_stimuli/rescaled_final/0634_rv.mp4	0.0	368.78297996520996	1.000025987625122
83	347.48221611976624	pulse	0	t		81.0	2.5	/experiments/AOT/AOT_stimuli/rescaled_final/0634_rv.mp4	0.0	369.36655592918396	
83	347.89866614341736	movie	1		244	81.0	2.5	/experiments/AOT/AOT_stimuli/rescaled_final/0634_rv.mp4	0.0	369.7830059528351	2.4999940395355225
83	349.0821301937103	pulse	1	t		81.0	2.5	/experiments/AOT/AOT_stimuli/rescaled_final/0634_rv.mp4	0.0	370.96647000312805	
83	350.3986601829529	fix_post	2		12	81.0	2.5	/experiments/AOT/AOT_stimuli/rescaled_final/0634_rv.mp4	0.0	372.2829999923706	0.09956192970275879
84	350.49822211265564	fix_pre	0		120	82.0	2.5	blank	1.0	372.38256192207336	1.0000419616699219
84	350.6821241378784	pulse	0	t		82.0	2.5	blank	1.0	372.56646394729614	
84	351.49826407432556	movie	1		300	82.0	2.5	blank	1.0	373.3826038837433	2.500420093536377
84	352.28217601776123	pulse	1	t		82.0	2.5	blank	1.0	374.16651582717896	
84	353.88221621513367	pulse	1	t		82.0	2.5	blank	1.0	375.7665560245514	
84	353.99868416786194	fix_post	2		12	82.0	2.5	blank	1.0	375.88302397727966	0.09995889663696289
85	354.0986430644989	fix_pre	0		120	83.0	2.5	/experiments/AOT/AOT_stimuli/rescaled_final/0591_fw.mp4	0.0	375.9829828739166	0.9999690055847168
85	355.0986120700836	movie	1		244	83.0	2.5	/experiments/AOT/AOT_stimuli/rescaled_final/0591_fw.mp4	0.0	376.98295187950134	2.5000391006469727
85	355.4817771911621	pulse	1	t		83.0	2.5	/experiments/AOT/AOT_stimuli/rescaled_final/0591_fw.mp4	0.0	377.36611700057983	
85	357.08212018013	pulse	1	t		83.0	2.5	/experiments/AOT/AOT_stimuli/rescaled_final/0591_fw.mp4	0.0	378.96645998954773	
85	357.5986511707306	fix_post	2		12	83.0	2.5	/experiments/AOT/AOT_stimuli/rescaled_final/0591_fw.mp4	0.0	379.4829909801483	0.09988594055175781
87	357.69853711128235	stim	0		1716					379.5828769207001	14.3000168800354
87	358.68212819099426	pulse	0	t						380.566468000412	
87	360.2820200920105	pulse	0	t						382.1663599014282	
87	361.8820230960846	pulse	0	t						383.7663629055023	
87	363.48206400871277	pulse	0	t						385.3664038181305	
87	365.0820791721344	pulse	0	t						386.9664189815521	
87	366.6820430755615	pulse	0	t						388.56638288497925	
87	368.2819950580597	pulse	0	t						390.1663348674774	
87	369.88207817077637	pulse	0	t						391.7664179801941	
87	371.48196506500244	pulse	0	t						393.36630487442017	
