trial_nr	onset	event_type	phase	response	nr_frames	movie_index	movie_duration	movie_file	blank	onset_abs	duration
0	0.15822505950927734	stim	0		54					21.068148136138916	0.4500160217285156
0	0.600243091583252	response	0	space						21.51016616821289	
1	0.608241081237793	stim	0		13409					21.51816415786743	111.74059200286865
1	112.34603500366211	pulse	0	t						133.25595808029175	
1	112.34883308410645	stim	1		1717					133.25875616073608	14.308816909790039
1	113.94118785858154	pulse	1	t						134.85111093521118	
1	115.54118704795837	pulse	1	t						136.451110124588	
1	117.14112305641174	pulse	1	t						138.05104613304138	
1	118.74126291275024	pulse	1	t						139.65118598937988	
1	120.34112596511841	pulse	1	t						141.25104904174805	
1	121.94114398956299	pulse	1	t						142.85106706619263	
1	123.54110097885132	pulse	1	t						144.45102405548096	
1	125.14107489585876	pulse	1	t						146.0509979724884	
2	126.65764999389648	fix_pre	0		11	0.0	2.5	/experiments/AOT/AOT_stimuli/rescaled_final/1283_rv.mp4	0.0	147.56757307052612	0.09170889854431152
2	126.74110794067383	pulse	0	t		0.0	2.5	/experiments/AOT/AOT_stimuli/rescaled_final/1283_rv.mp4	0.0	147.65103101730347	
2	126.7493588924408	movie	1		242	0.0	2.5	/experiments/AOT/AOT_stimuli/rescaled_final/1283_rv.mp4	0.0	147.65928196907043	2.508219003677368
2	128.34052991867065	pulse	1	t		0.0	2.5	/experiments/AOT/AOT_stimuli/rescaled_final/1283_rv.mp4	0.0	149.2504529953003	
2	129.25757789611816	fix_post	2		12	0.0	2.5	/experiments/AOT/AOT_stimuli/rescaled_final/1283_rv.mp4	0.0	150.1675009727478	0.09996199607849121
3	129.35753989219666	fix_pre	0		120	1.0	2.5	/experiments/AOT/AOT_stimuli/rescaled_final/1381_fw.mp4	0.0	150.2674629688263	1.0001370906829834
3	129.9411039352417	pulse	0	t		1.0	2.5	/experiments/AOT/AOT_stimuli/rescaled_final/1381_fw.mp4	0.0	150.85102701187134	
3	130.35767698287964	movie	1		245	1.0	2.5	/experiments/AOT/AOT_stimuli/rescaled_final/1381_fw.mp4	0.0	151.26760005950928	2.4994499683380127
3	131.54119086265564	pulse	1	t		1.0	2.5	/experiments/AOT/AOT_stimuli/rescaled_final/1381_fw.mp4	0.0	152.45111393928528	
3	132.85712695121765	fix_post	2		12	1.0	2.5	/experiments/AOT/AOT_stimuli/rescaled_final/1381_fw.mp4	0.0	153.7670500278473	0.10050511360168457
4	132.95763206481934	fix_pre	0		120	2.0	2.5	/experiments/AOT/AOT_stimuli/rescaled_final/0598_fw.mp4	0.0	153.86755514144897	0.9995648860931396
4	133.14107608795166	pulse	0	t		2.0	2.5	/experiments/AOT/AOT_stimuli/rescaled_final/0598_fw.mp4	0.0	154.0509991645813	
4	133.95719695091248	movie	1		248	2.0	2.5	/experiments/AOT/AOT_stimuli/rescaled_final/0598_fw.mp4	0.0	154.86712002754211	2.5003790855407715
4	134.7416648864746	pulse	1	t		2.0	2.5	/experiments/AOT/AOT_stimuli/rescaled_final/0598_fw.mp4	0.0	155.65158796310425	
4	136.34091997146606	pulse	1	t		2.0	2.5	/experiments/AOT/AOT_stimuli/rescaled_final/0598_fw.mp4	0.0	157.2508430480957	
4	136.45757603645325	fix_post	2		12	2.0	2.5	/experiments/AOT/AOT_stimuli/rescaled_final/0598_fw.mp4	0.0	157.36749911308289	0.09989690780639648
5	136.55747294425964	fix_pre	0		120	3.0	2.5	/experiments/AOT/AOT_stimuli/rescaled_final/2170_fw.mp4	0.0	157.46739602088928	0.9997429847717285
5	137.55721592903137	movie	1		246	3.0	2.5	/experiments/AOT/AOT_stimuli/rescaled_final/2170_fw.mp4	0.0	158.467139005661	2.5002951622009277
5	137.9408540725708	pulse	1	t		3.0	2.5	/experiments/AOT/AOT_stimuli/rescaled_final/2170_fw.mp4	0.0	158.85077714920044	
5	139.5410339832306	pulse	1	t		3.0	2.5	/experiments/AOT/AOT_stimuli/rescaled_final/2170_fw.mp4	0.0	160.45095705986023	
5	140.0575110912323	fix_post	2		12	3.0	2.5	/experiments/AOT/AOT_stimuli/rescaled_final/2170_fw.mp4	0.0	160.96743416786194	0.10005378723144531
6	140.15756487846375	fix_pre	0		119	4.0	2.5	/experiments/AOT/AOT_stimuli/rescaled_final/1450_rv.mp4	0.0	161.06748795509338	0.9917972087860107
6	141.14106106758118	pulse	0	t		4.0	2.5	/experiments/AOT/AOT_stimuli/rescaled_final/1450_rv.mp4	0.0	162.05098414421082	
6	141.14936208724976	movie	1		244	4.0	2.5	/experiments/AOT/AOT_stimuli/rescaled_final/1450_rv.mp4	0.0	162.0592851638794	2.5078108310699463
6	142.7411539554596	pulse	1	t		4.0	2.5	/experiments/AOT/AOT_stimuli/rescaled_final/1450_rv.mp4	0.0	163.65107703208923	
6	143.6571729183197	fix_post	2		12	4.0	2.5	/experiments/AOT/AOT_stimuli/rescaled_final/1450_rv.mp4	0.0	164.56709599494934	0.10037994384765625
7	143.75755286216736	fix_pre	0		120	5.0	2.5	/experiments/AOT/AOT_stimuli/rescaled_final/1815_fw.mp4	0.0	164.667475938797	1.0000591278076172
7	144.34094095230103	pulse	0	t		5.0	2.5	/experiments/AOT/AOT_stimuli/rescaled_final/1815_fw.mp4	0.0	165.25086402893066	
7	144.75761198997498	movie	1		244	5.0	2.5	/experiments/AOT/AOT_stimuli/rescaled_final/1815_fw.mp4	0.0	165.66753506660461	2.4994680881500244
7	145.94102597236633	pulse	1	t		5.0	2.5	/experiments/AOT/AOT_stimuli/rescaled_final/1815_fw.mp4	0.0	166.85094904899597	
7	147.257080078125	fix_post	2		12	5.0	2.5	/experiments/AOT/AOT_stimuli/rescaled_final/1815_fw.mp4	0.0	168.16700315475464	0.10046601295471191
8	147.3575460910797	fix_pre	0		120	6.0	2.5	blank	1.0	168.26746916770935	0.9999299049377441
8	147.54101300239563	pulse	0	t		6.0	2.5	blank	1.0	168.45093607902527	
8	148.35747599601746	movie	1		300	6.0	2.5	blank	1.0	169.2673990726471	2.499964952468872
8	149.14101600646973	pulse	1	t		6.0	2.5	blank	1.0	170.05093908309937	
8	150.74095797538757	pulse	1	t		6.0	2.5	blank	1.0	171.6508810520172	
8	150.85744094848633	fix_post	2		12	6.0	2.5	blank	1.0	171.76736402511597	0.10003900527954102
9	150.95747995376587	fix_pre	0		120	7.0	2.5	/experiments/AOT/AOT_stimuli/rescaled_final/0473_rv.mp4	0.0	171.8674030303955	0.9999210834503174
9	151.9574010372162	movie	1		245	7.0	2.5	/experiments/AOT/AOT_stimuli/rescaled_final/0473_rv.mp4	0.0	172.86732411384583	2.5000998973846436
9	152.3493630886078	pulse	1	t		7.0	2.5	/experiments/AOT/AOT_stimuli/rescaled_final/0473_rv.mp4	0.0	173.25928616523743	
9	153.94091796875	pulse	1	t		7.0	2.5	/experiments/AOT/AOT_stimuli/rescaled_final/0473_rv.mp4	0.0	174.85084104537964	
9	154.45750093460083	fix_post	2		12	7.0	2.5	/experiments/AOT/AOT_stimuli/rescaled_final/0473_rv.mp4	0.0	175.36742401123047	0.1000070571899414
10	154.55750799179077	fix_pre	0		119	8.0	2.5	/experiments/AOT/AOT_stimuli/rescaled_final/0320_fw.mp4	0.0	175.4674310684204	0.99161696434021
10	155.54101085662842	pulse	0	t		8.0	2.5	/experiments/AOT/AOT_stimuli/rescaled_final/0320_fw.mp4	0.0	176.45093393325806	
10	155.54912495613098	movie	1		246	8.0	2.5	/experiments/AOT/AOT_stimuli/rescaled_final/0320_fw.mp4	0.0	176.45904803276062	2.5085020065307617
10	157.1406810283661	pulse	1	t		8.0	2.5	/experiments/AOT/AOT_stimuli/rescaled_final/0320_fw.mp4	0.0	178.05060410499573	
10	158.05762696266174	fix_post	2		12	8.0	2.5	/experiments/AOT/AOT_stimuli/rescaled_final/0320_fw.mp4	0.0	178.96755003929138	0.09979891777038574
11	158.15742588043213	fix_pre	0		120	9.0	2.5	/experiments/AOT/AOT_stimuli/rescaled_final/0158_rv.mp4	0.0	179.06734895706177	1.0000619888305664
11	158.74096298217773	pulse	0	t		9.0	2.5	/experiments/AOT/AOT_stimuli/rescaled_final/0158_rv.mp4	0.0	179.65088605880737	
11	159.1574878692627	movie	1		246	9.0	2.5	/experiments/AOT/AOT_stimuli/rescaled_final/0158_rv.mp4	0.0	180.06741094589233	2.4998772144317627
11	160.3409788608551	pulse	1	t		9.0	2.5	/experiments/AOT/AOT_stimuli/rescaled_final/0158_rv.mp4	0.0	181.25090193748474	
11	161.65736508369446	fix_post	2		12	9.0	2.5	/experiments/AOT/AOT_stimuli/rescaled_final/0158_rv.mp4	0.0	182.5672881603241	0.10007381439208984
12	161.75743889808655	fix_pre	0		120	10.0	2.5	/experiments/AOT/AOT_stimuli/rescaled_final/0598_rv.mp4	0.0	182.6673619747162	0.9999160766601562
12	161.94088006019592	pulse	0	t		10.0	2.5	/experiments/AOT/AOT_stimuli/rescaled_final/0598_rv.mp4	0.0	182.85080313682556	
12	162.7573549747467	movie	1		248	10.0	2.5	/experiments/AOT/AOT_stimuli/rescaled_final/0598_rv.mp4	0.0	183.66727805137634	2.500101089477539
12	163.54087591171265	pulse	1	t		10.0	2.5	/experiments/AOT/AOT_stimuli/rescaled_final/0598_rv.mp4	0.0	184.45079898834229	
12	165.1409249305725	pulse	1	t		10.0	2.5	/experiments/AOT/AOT_stimuli/rescaled_final/0598_rv.mp4	0.0	186.05084800720215	
12	165.25745606422424	fix_post	2		12	10.0	2.5	/experiments/AOT/AOT_stimuli/rescaled_final/0598_rv.mp4	0.0	186.16737914085388	0.0998988151550293
13	165.35735487937927	fix_pre	0		120	11.0	2.5	/experiments/AOT/AOT_stimuli/rescaled_final/0252_fw.mp4	0.0	186.2672779560089	1.0000121593475342
13	166.3573670387268	movie	1		245	11.0	2.5	/experiments/AOT/AOT_stimuli/rescaled_final/0252_fw.mp4	0.0	187.26729011535645	2.5000088214874268
13	166.74933099746704	pulse	1	t		11.0	2.5	/experiments/AOT/AOT_stimuli/rescaled_final/0252_fw.mp4	0.0	187.65925407409668	
13	168.34092903137207	pulse	1	t		11.0	2.5	/experiments/AOT/AOT_stimuli/rescaled_final/0252_fw.mp4	0.0	189.2508521080017	
13	168.85737586021423	fix_post	2		12	11.0	2.5	/experiments/AOT/AOT_stimuli/rescaled_final/0252_fw.mp4	0.0	189.76729893684387	0.1000220775604248
14	168.95739793777466	fix_pre	0		119	12.0	2.5	blank	1.0	189.8673210144043	0.991779088973999
14	169.9409260749817	pulse	0	t		12.0	2.5	blank	1.0	190.85084915161133	
14	169.94917702674866	movie	1		301	12.0	2.5	blank	1.0	190.8591001033783	2.508234977722168
14	171.54087591171265	pulse	1	t		12.0	2.5	blank	1.0	192.45079898834229	
14	172.45741200447083	fix_post	2		12	12.0	2.5	blank	1.0	193.36733508110046	0.09995794296264648
15	172.55736994743347	fix_pre	0		120	13.0	2.5	/experiments/AOT/AOT_stimuli/rescaled_final/1936_fw.mp4	0.0	193.4672930240631	1.0000331401824951
15	173.14088988304138	pulse	0	t		13.0	2.5	/experiments/AOT/AOT_stimuli/rescaled_final/1936_fw.mp4	0.0	194.05081295967102	
15	173.55740308761597	movie	1		244	13.0	2.5	/experiments/AOT/AOT_stimuli/rescaled_final/1936_fw.mp4	0.0	194.4673261642456	2.4999258518218994
15	174.74096703529358	pulse	1	t		13.0	2.5	/experiments/AOT/AOT_stimuli/rescaled_final/1936_fw.mp4	0.0	195.65089011192322	
15	176.05732893943787	fix_post	2		12	13.0	2.5	/experiments/AOT/AOT_stimuli/rescaled_final/1936_fw.mp4	0.0	196.9672520160675	0.10001802444458008
16	176.15734696388245	fix_pre	0		120	14.0	2.5	/experiments/AOT/AOT_stimuli/rescaled_final/1614_fw.mp4	0.0	197.06727004051208	0.9995989799499512
16	176.34102201461792	pulse	0	t		14.0	2.5	/experiments/AOT/AOT_stimuli/rescaled_final/1614_fw.mp4	0.0	197.25094509124756	
16	177.1569459438324	movie	1		244	14.0	2.5	/experiments/AOT/AOT_stimuli/rescaled_final/1614_fw.mp4	0.0	198.06686902046204	2.5004570484161377
16	177.9408049583435	pulse	1	t		14.0	2.5	/experiments/AOT/AOT_stimuli/rescaled_final/1614_fw.mp4	0.0	198.85072803497314	
16	179.54929089546204	pulse	1	t		14.0	2.5	/experiments/AOT/AOT_stimuli/rescaled_final/1614_fw.mp4	0.0	200.45921397209167	
16	179.65740299224854	fix_post	2		12	14.0	2.5	/experiments/AOT/AOT_stimuli/rescaled_final/1614_fw.mp4	0.0	200.56732606887817	0.09996604919433594
17	179.75736904144287	fix_pre	0		120	15.0	2.5	/experiments/AOT/AOT_stimuli/rescaled_final/0939_fw.mp4	0.0	200.6672921180725	1.0000059604644775
17	180.75737500190735	movie	1		244	15.0	2.5	/experiments/AOT/AOT_stimuli/rescaled_final/0939_fw.mp4	0.0	201.667298078537	2.499927043914795
17	181.14062905311584	pulse	1	t		15.0	2.5	/experiments/AOT/AOT_stimuli/rescaled_final/0939_fw.mp4	0.0	202.05055212974548	
17	182.74078702926636	pulse	1	t		15.0	2.5	/experiments/AOT/AOT_stimuli/rescaled_final/0939_fw.mp4	0.0	203.650710105896	
17	183.25730204582214	fix_post	2		12	15.0	2.5	/experiments/AOT/AOT_stimuli/rescaled_final/0939_fw.mp4	0.0	204.16722512245178	0.1000068187713623
18	183.3573088645935	fix_pre	0		119	16.0	2.5	/experiments/AOT/AOT_stimuli/rescaled_final/1258_rv.mp4	0.0	204.26723194122314	0.9917171001434326
18	184.34084701538086	pulse	0	t		16.0	2.5	/experiments/AOT/AOT_stimuli/rescaled_final/1258_rv.mp4	0.0	205.2507700920105	
18	184.34902596473694	movie	1		245	16.0	2.5	/experiments/AOT/AOT_stimuli/rescaled_final/1258_rv.mp4	0.0	205.25894904136658	2.5083560943603516
18	185.9407799243927	pulse	1	t		16.0	2.5	/experiments/AOT/AOT_stimuli/rescaled_final/1258_rv.mp4	0.0	206.85070300102234	
18	186.8573820590973	fix_post	2		12	16.0	2.5	/experiments/AOT/AOT_stimuli/rescaled_final/1258_rv.mp4	0.0	207.76730513572693	0.09993195533752441
19	186.95731401443481	fix_pre	0		120	17.0	2.5	/experiments/AOT/AOT_stimuli/rescaled_final/1603_fw.mp4	0.0	207.86723709106445	1.000093936920166
19	187.54090404510498	pulse	0	t		17.0	2.5	/experiments/AOT/AOT_stimuli/rescaled_final/1603_fw.mp4	0.0	208.45082712173462	
19	187.95740795135498	movie	1		244	17.0	2.5	/experiments/AOT/AOT_stimuli/rescaled_final/1603_fw.mp4	0.0	208.86733102798462	2.499608039855957
19	189.1408019065857	pulse	1	t		17.0	2.5	/experiments/AOT/AOT_stimuli/rescaled_final/1603_fw.mp4	0.0	210.05072498321533	
19	190.45701599121094	fix_post	2		12	17.0	2.5	/experiments/AOT/AOT_stimuli/rescaled_final/1603_fw.mp4	0.0	211.36693906784058	0.10041499137878418
20	190.55743098258972	fix_pre	0		120	18.0	2.5	/experiments/AOT/AOT_stimuli/rescaled_final/1936_rv.mp4	0.0	211.46735405921936	0.9997439384460449
20	190.7409520149231	pulse	0	t		18.0	2.5	/experiments/AOT/AOT_stimuli/rescaled_final/1936_rv.mp4	0.0	211.65087509155273	
20	191.55717492103577	movie	1		244	18.0	2.5	/experiments/AOT/AOT_stimuli/rescaled_final/1936_rv.mp4	0.0	212.4670979976654	2.4999289512634277
20	192.34067702293396	pulse	1	t		18.0	2.5	/experiments/AOT/AOT_stimuli/rescaled_final/1936_rv.mp4	0.0	213.2506000995636	
20	193.94928407669067	pulse	1	t		18.0	2.5	/experiments/AOT/AOT_stimuli/rescaled_final/1936_rv.mp4	0.0	214.8592071533203	
20	194.0571038722992	fix_post	2		12	18.0	2.5	/experiments/AOT/AOT_stimuli/rescaled_final/1936_rv.mp4	0.0	214.96702694892883	0.10017609596252441
21	194.15727996826172	fix_pre	0		120	19.0	2.5	/experiments/AOT/AOT_stimuli/rescaled_final/0497_fw.mp4	0.0	215.06720304489136	0.9995839595794678
21	195.1568639278412	movie	1		243	19.0	2.5	/experiments/AOT/AOT_stimuli/rescaled_final/0497_fw.mp4	0.0	216.06678700447083	2.5004329681396484
21	195.54040002822876	pulse	1	t		19.0	2.5	/experiments/AOT/AOT_stimuli/rescaled_final/0497_fw.mp4	0.0	216.4503231048584	
21	197.14065504074097	pulse	1	t		19.0	2.5	/experiments/AOT/AOT_stimuli/rescaled_final/0497_fw.mp4	0.0	218.0505781173706	
21	197.65729689598083	fix_post	2		12	19.0	2.5	/experiments/AOT/AOT_stimuli/rescaled_final/0497_fw.mp4	0.0	218.56721997261047	0.10003304481506348
22	197.7573299407959	fix_pre	0		119	20.0	2.5	/experiments/AOT/AOT_stimuli/rescaled_final/0449_fw.mp4	0.0	218.66725301742554	0.9915831089019775
22	198.74089097976685	pulse	0	t		20.0	2.5	/experiments/AOT/AOT_stimuli/rescaled_final/0449_fw.mp4	0.0	219.65081405639648	
22	198.74891304969788	movie	1		245	20.0	2.5	/experiments/AOT/AOT_stimuli/rescaled_final/0449_fw.mp4	0.0	219.65883612632751	2.508298873901367
22	200.34917902946472	pulse	1	t		20.0	2.5	/experiments/AOT/AOT_stimuli/rescaled_final/0449_fw.mp4	0.0	221.25910210609436	
22	201.25721192359924	fix_post	2		12	20.0	2.5	/experiments/AOT/AOT_stimuli/rescaled_final/0449_fw.mp4	0.0	222.16713500022888	0.09995698928833008
23	201.35716891288757	fix_pre	0		120	21.0	2.5	blank	1.0	222.2670919895172	1.0002131462097168
23	201.94067907333374	pulse	0	t		21.0	2.5	blank	1.0	222.85060214996338	
23	202.3573820590973	movie	1		300	21.0	2.5	blank	1.0	223.26730513572693	2.499811887741089
23	203.5406939983368	pulse	1	t		21.0	2.5	blank	1.0	224.45061707496643	
23	204.85719394683838	fix_post	2		12	21.0	2.5	blank	1.0	225.76711702346802	0.10009908676147461
24	204.95729303359985	fix_pre	0		120	22.0	2.5	/experiments/AOT/AOT_stimuli/rescaled_final/1418_fw.mp4	0.0	225.8672161102295	0.9999868869781494
24	205.140722990036	pulse	0	t		22.0	2.5	/experiments/AOT/AOT_stimuli/rescaled_final/1418_fw.mp4	0.0	226.05064606666565	
24	205.957279920578	movie	1		246	22.0	2.5	/experiments/AOT/AOT_stimuli/rescaled_final/1418_fw.mp4	0.0	226.86720299720764	2.500084161758423
24	206.74066805839539	pulse	1	t		22.0	2.5	/experiments/AOT/AOT_stimuli/rescaled_final/1418_fw.mp4	0.0	227.65059113502502	
24	208.34902691841125	pulse	1	t		22.0	2.5	/experiments/AOT/AOT_stimuli/rescaled_final/1418_fw.mp4	0.0	229.2589499950409	
24	208.45736408233643	fix_post	2		12	22.0	2.5	/experiments/AOT/AOT_stimuli/rescaled_final/1418_fw.mp4	0.0	229.36728715896606	0.0999147891998291
25	208.55727887153625	fix_pre	0		120	23.0	2.5	/experiments/AOT/AOT_stimuli/rescaled_final/0853_fw.mp4	0.0	229.4672019481659	0.9999821186065674
25	209.55726099014282	movie	1		244	23.0	2.5	/experiments/AOT/AOT_stimuli/rescaled_final/0853_fw.mp4	0.0	230.46718406677246	2.4995269775390625
25	209.94017004966736	pulse	1	t		23.0	2.5	/experiments/AOT/AOT_stimuli/rescaled_final/0853_fw.mp4	0.0	230.850093126297	
25	211.54067993164062	pulse	1	t		23.0	2.5	/experiments/AOT/AOT_stimuli/rescaled_final/0853_fw.mp4	0.0	232.45060300827026	
25	212.05678796768188	fix_post	2		12	23.0	2.5	/experiments/AOT/AOT_stimuli/rescaled_final/0853_fw.mp4	0.0	232.96671104431152	0.10041189193725586
26	212.15719985961914	fix_pre	0		119	24.0	2.5	/experiments/AOT/AOT_stimuli/rescaled_final/0827_fw.mp4	0.0	233.06712293624878	0.9916532039642334
26	213.1406970024109	pulse	0	t		24.0	2.5	/experiments/AOT/AOT_stimuli/rescaled_final/0827_fw.mp4	0.0	234.05062007904053	
26	213.14885306358337	movie	1		246	24.0	2.5	/experiments/AOT/AOT_stimuli/rescaled_final/0827_fw.mp4	0.0	234.058776140213	2.5083539485931396
26	214.74911093711853	pulse	1	t		24.0	2.5	/experiments/AOT/AOT_stimuli/rescaled_final/0827_fw.mp4	0.0	235.65903401374817	
26	215.6572070121765	fix_post	2		12	24.0	2.5	/experiments/AOT/AOT_stimuli/rescaled_final/0827_fw.mp4	0.0	236.56713008880615	0.09998393058776855
27	215.75719094276428	fix_pre	0		120	25.0	2.5	/experiments/AOT/AOT_stimuli/rescaled_final/0268_rv.mp4	0.0	236.66711401939392	1.0
27	216.34065008163452	pulse	0	t		25.0	2.5	/experiments/AOT/AOT_stimuli/rescaled_final/0268_rv.mp4	0.0	237.25057315826416	
27	216.75719094276428	movie	1		244	25.0	2.5	/experiments/AOT/AOT_stimuli/rescaled_final/0268_rv.mp4	0.0	237.66711401939392	2.500014066696167
27	217.94076204299927	pulse	1	t		25.0	2.5	/experiments/AOT/AOT_stimuli/rescaled_final/0268_rv.mp4	0.0	238.8506851196289	
27	219.25720500946045	fix_post	2		12	25.0	2.5	/experiments/AOT/AOT_stimuli/rescaled_final/0268_rv.mp4	0.0	240.1671280860901	0.10006284713745117
28	219.3572678565979	fix_pre	0		120	26.0	2.5	/experiments/AOT/AOT_stimuli/rescaled_final/2076_rv.mp4	0.0	240.26719093322754	0.9999351501464844
28	219.5406789779663	pulse	0	t		26.0	2.5	/experiments/AOT/AOT_stimuli/rescaled_final/2076_rv.mp4	0.0	240.45060205459595	
28	220.35720300674438	movie	1		244	26.0	2.5	/experiments/AOT/AOT_stimuli/rescaled_final/2076_rv.mp4	0.0	241.26712608337402	2.499901056289673
28	221.14069390296936	pulse	1	t		26.0	2.5	/experiments/AOT/AOT_stimuli/rescaled_final/2076_rv.mp4	0.0	242.050616979599	
28	222.74065709114075	pulse	1	t		26.0	2.5	/experiments/AOT/AOT_stimuli/rescaled_final/2076_rv.mp4	0.0	243.65058016777039	
28	222.85710406303406	fix_post	2		12	26.0	2.5	/experiments/AOT/AOT_stimuli/rescaled_final/2076_rv.mp4	0.0	243.7670271396637	0.10007095336914062
29	222.9571750164032	fix_pre	0		120	27.0	2.5	/experiments/AOT/AOT_stimuli/rescaled_final/1420_rv.mp4	0.0	243.86709809303284	0.9999358654022217
29	223.95711088180542	movie	1		246	27.0	2.5	/experiments/AOT/AOT_stimuli/rescaled_final/1420_rv.mp4	0.0	244.86703395843506	2.499636173248291
29	224.34175086021423	pulse	1	t		27.0	2.5	/experiments/AOT/AOT_stimuli/rescaled_final/1420_rv.mp4	0.0	245.25167393684387	
29	225.94065403938293	pulse	1	t		27.0	2.5	/experiments/AOT/AOT_stimuli/rescaled_final/1420_rv.mp4	0.0	246.85057711601257	
29	226.4567470550537	fix_post	2		12	27.0	2.5	/experiments/AOT/AOT_stimuli/rescaled_final/1420_rv.mp4	0.0	247.36667013168335	0.10037803649902344
30	226.55712509155273	fix_pre	0		119	28.0	2.5	blank	1.0	247.46704816818237	0.9917478561401367
30	227.54069209098816	pulse	0	t		28.0	2.5	blank	1.0	248.4506151676178	
30	227.54887294769287	movie	1		301	28.0	2.5	blank	1.0	248.4587960243225	2.508258104324341
30	229.14062404632568	pulse	1	t		28.0	2.5	blank	1.0	250.05054712295532	
30	230.0571310520172	fix_post	2		12	28.0	2.5	blank	1.0	250.96705412864685	0.1000509262084961
31	230.1571819782257	fix_pre	0		120	29.0	2.5	/experiments/AOT/AOT_stimuli/rescaled_final/1792_rv.mp4	0.0	251.06710505485535	0.9995090961456299
31	230.7414050102234	pulse	0	t		29.0	2.5	/experiments/AOT/AOT_stimuli/rescaled_final/1792_rv.mp4	0.0	251.65132808685303	
31	231.15669107437134	movie	1		244	29.0	2.5	/experiments/AOT/AOT_stimuli/rescaled_final/1792_rv.mp4	0.0	252.06661415100098	2.499966859817505
31	232.34072089195251	pulse	1	t		29.0	2.5	/experiments/AOT/AOT_stimuli/rescaled_final/1792_rv.mp4	0.0	253.25064396858215	
31	233.65665793418884	fix_post	2		12	29.0	2.5	/experiments/AOT/AOT_stimuli/rescaled_final/1792_rv.mp4	0.0	254.56658101081848	0.10037398338317871
32	233.75703191757202	fix_pre	0		120	30.0	2.5	/experiments/AOT/AOT_stimuli/rescaled_final/1121_fw.mp4	0.0	254.66695499420166	1.0000929832458496
32	233.94149088859558	pulse	0	t		30.0	2.5	/experiments/AOT/AOT_stimuli/rescaled_final/1121_fw.mp4	0.0	254.85141396522522	
32	234.75712490081787	movie	1		244	30.0	2.5	/experiments/AOT/AOT_stimuli/rescaled_final/1121_fw.mp4	0.0	255.6670479774475	2.499951124191284
32	235.54061698913574	pulse	1	t		30.0	2.5	/experiments/AOT/AOT_stimuli/rescaled_final/1121_fw.mp4	0.0	256.4505400657654	
32	237.1489839553833	pulse	1	t		30.0	2.5	/experiments/AOT/AOT_stimuli/rescaled_final/1121_fw.mp4	0.0	258.05890703201294	
32	237.25707602500916	fix_post	2		12	30.0	2.5	/experiments/AOT/AOT_stimuli/rescaled_final/1121_fw.mp4	0.0	258.1669991016388	0.09997105598449707
33	237.35704708099365	fix_pre	0		120	31.0	2.5	/experiments/AOT/AOT_stimuli/rescaled_final/1560_fw.mp4	0.0	258.2669701576233	1.0000050067901611
33	238.3570520877838	movie	1		245	31.0	2.5	/experiments/AOT/AOT_stimuli/rescaled_final/1560_fw.mp4	0.0	259.26697516441345	2.500004768371582
33	238.74080801010132	pulse	1	t		31.0	2.5	/experiments/AOT/AOT_stimuli/rescaled_final/1560_fw.mp4	0.0	259.65073108673096	
33	240.34056401252747	pulse	1	t		31.0	2.5	/experiments/AOT/AOT_stimuli/rescaled_final/1560_fw.mp4	0.0	261.2504870891571	
33	240.8570568561554	fix_post	2		12	31.0	2.5	/experiments/AOT/AOT_stimuli/rescaled_final/1560_fw.mp4	0.0	261.76697993278503	0.10004806518554688
34	240.95710492134094	fix_pre	0		119	32.0	2.5	/experiments/AOT/AOT_stimuli/rescaled_final/1888_rv.mp4	0.0	261.8670279979706	0.9917020797729492
34	241.9407250881195	pulse	0	t		32.0	2.5	/experiments/AOT/AOT_stimuli/rescaled_final/1888_rv.mp4	0.0	262.85064816474915	
34	241.9488070011139	movie	1		244	32.0	2.5	/experiments/AOT/AOT_stimuli/rescaled_final/1888_rv.mp4	0.0	262.85873007774353	2.5081839561462402
34	243.54087495803833	pulse	1	t		32.0	2.5	/experiments/AOT/AOT_stimuli/rescaled_final/1888_rv.mp4	0.0	264.45079803466797	
34	244.45699095726013	fix_post	2		12	32.0	2.5	/experiments/AOT/AOT_stimuli/rescaled_final/1888_rv.mp4	0.0	265.36691403388977	0.10009193420410156
35	244.55708289146423	fix_pre	0		120	33.0	2.5	/experiments/AOT/AOT_stimuli/rescaled_final/1142_rv.mp4	0.0	265.4670059680939	1.0000250339508057
35	245.14055800437927	pulse	0	t		33.0	2.5	/experiments/AOT/AOT_stimuli/rescaled_final/1142_rv.mp4	0.0	266.0504810810089	
35	245.55710792541504	movie	1		245	33.0	2.5	/experiments/AOT/AOT_stimuli/rescaled_final/1142_rv.mp4	0.0	266.4670310020447	2.5002450942993164
35	246.742290019989	pulse	1	t		33.0	2.5	/experiments/AOT/AOT_stimuli/rescaled_final/1142_rv.mp4	0.0	267.65221309661865	
35	248.05735301971436	fix_post	2		12	33.0	2.5	/experiments/AOT/AOT_stimuli/rescaled_final/1142_rv.mp4	0.0	268.967276096344	0.09959888458251953
36	248.15695190429688	fix_pre	0		120	34.0	2.5	/experiments/AOT/AOT_stimuli/rescaled_final/1308_fw.mp4	0.0	269.0668749809265	1.0001139640808105
36	248.3413610458374	pulse	0	t		34.0	2.5	/experiments/AOT/AOT_stimuli/rescaled_final/1308_fw.mp4	0.0	269.25128412246704	
36	249.15706586837769	movie	1		247	34.0	2.5	/experiments/AOT/AOT_stimuli/rescaled_final/1308_fw.mp4	0.0	270.0669889450073	2.5000991821289062
36	249.94150185585022	pulse	1	t		34.0	2.5	/experiments/AOT/AOT_stimuli/rescaled_final/1308_fw.mp4	0.0	270.85142493247986	
36	251.54105496406555	pulse	1	t		34.0	2.5	/experiments/AOT/AOT_stimuli/rescaled_final/1308_fw.mp4	0.0	272.4509780406952	
36	251.6571650505066	fix_post	2		12	34.0	2.5	/experiments/AOT/AOT_stimuli/rescaled_final/1308_fw.mp4	0.0	272.56708812713623	0.09987688064575195
37	251.75704193115234	fix_pre	0		120	35.0	2.5	blank	1.0	272.666965007782	0.9999959468841553
37	252.7570378780365	movie	1		300	35.0	2.5	blank	1.0	273.66696095466614	2.500040054321289
37	253.14050602912903	pulse	1	t		35.0	2.5	blank	1.0	274.05042910575867	
37	254.74048900604248	pulse	1	t		35.0	2.5	blank	1.0	275.6504120826721	
37	255.2570779323578	fix_post	2		12	35.0	2.5	blank	1.0	276.1670010089874	0.09986209869384766
38	255.35694003105164	fix_pre	0		119	36.0	2.5	/experiments/AOT/AOT_stimuli/rescaled_final/0097_fw.mp4	0.0	276.2668631076813	0.9916720390319824
38	256.3404688835144	pulse	0	t		36.0	2.5	/experiments/AOT/AOT_stimuli/rescaled_final/0097_fw.mp4	0.0	277.25039196014404	
38	256.3486120700836	movie	1		249	36.0	2.5	/experiments/AOT/AOT_stimuli/rescaled_final/0097_fw.mp4	0.0	277.25853514671326	2.5083580017089844
38	257.94885993003845	pulse	1	t		36.0	2.5	/experiments/AOT/AOT_stimuli/rescaled_final/0097_fw.mp4	0.0	278.8587830066681	
38	258.8569700717926	fix_post	2		12	36.0	2.5	/experiments/AOT/AOT_stimuli/rescaled_final/0097_fw.mp4	0.0	279.76689314842224	0.10003399848937988
39	258.957004070282	fix_pre	0		120	37.0	2.5	/experiments/AOT/AOT_stimuli/rescaled_final/1103_fw.mp4	0.0	279.8669271469116	1.0000228881835938
39	259.54042506217957	pulse	0	t		37.0	2.5	/experiments/AOT/AOT_stimuli/rescaled_final/1103_fw.mp4	0.0	280.4503481388092	
39	259.9570269584656	movie	1		243	37.0	2.5	/experiments/AOT/AOT_stimuli/rescaled_final/1103_fw.mp4	0.0	280.8669500350952	2.499579906463623
39	261.14046597480774	pulse	1	t		37.0	2.5	/experiments/AOT/AOT_stimuli/rescaled_final/1103_fw.mp4	0.0	282.0503890514374	
39	262.4566068649292	fix_post	2		12	37.0	2.5	/experiments/AOT/AOT_stimuli/rescaled_final/1103_fw.mp4	0.0	283.36652994155884	0.10035419464111328
40	262.5569610595703	fix_pre	0		120	38.0	2.5	/experiments/AOT/AOT_stimuli/rescaled_final/0336_rv.mp4	0.0	283.46688413619995	1.0000569820404053
40	262.7413818836212	pulse	0	t		38.0	2.5	/experiments/AOT/AOT_stimuli/rescaled_final/0336_rv.mp4	0.0	283.65130496025085	
40	263.5570180416107	movie	1		243	38.0	2.5	/experiments/AOT/AOT_stimuli/rescaled_final/0336_rv.mp4	0.0	284.46694111824036	2.500030994415283
40	264.3413279056549	pulse	1	t		38.0	2.5	/experiments/AOT/AOT_stimuli/rescaled_final/0336_rv.mp4	0.0	285.25125098228455	
40	265.948853969574	pulse	1	t		38.0	2.5	/experiments/AOT/AOT_stimuli/rescaled_final/0336_rv.mp4	0.0	286.8587770462036	
40	266.057049036026	fix_post	2		12	38.0	2.5	/experiments/AOT/AOT_stimuli/rescaled_final/0336_rv.mp4	0.0	286.96697211265564	0.09997701644897461
41	266.157026052475	fix_pre	0		120	39.0	2.5	/experiments/AOT/AOT_stimuli/rescaled_final/1110_fw.mp4	0.0	287.0669491291046	0.9999849796295166
41	267.1570110321045	movie	1		245	39.0	2.5	/experiments/AOT/AOT_stimuli/rescaled_final/1110_fw.mp4	0.0	288.06693410873413	2.4999680519104004
41	267.5488429069519	pulse	1	t		39.0	2.5	/experiments/AOT/AOT_stimuli/rescaled_final/1110_fw.mp4	0.0	288.45876598358154	
41	269.1412808895111	pulse	1	t		39.0	2.5	/experiments/AOT/AOT_stimuli/rescaled_final/1110_fw.mp4	0.0	290.05120396614075	
41	269.6569790840149	fix_post	2		12	39.0	2.5	/experiments/AOT/AOT_stimuli/rescaled_final/1110_fw.mp4	0.0	290.56690216064453	0.09990882873535156
42	269.75688791275024	fix_pre	0		119	40.0	2.5	/experiments/AOT/AOT_stimuli/rescaled_final/2066_rv.mp4	0.0	290.6668109893799	0.9916260242462158
42	270.7404799461365	pulse	0	t		40.0	2.5	/experiments/AOT/AOT_stimuli/rescaled_final/2066_rv.mp4	0.0	291.6504030227661	
42	270.74851393699646	movie	1		245	40.0	2.5	/experiments/AOT/AOT_stimuli/rescaled_final/2066_rv.mp4	0.0	291.6584370136261	2.508419990539551
42	272.3487708568573	pulse	1	t		40.0	2.5	/experiments/AOT/AOT_stimuli/rescaled_final/2066_rv.mp4	0.0	293.25869393348694	
42	273.256933927536	fix_post	2		12	40.0	2.5	/experiments/AOT/AOT_stimuli/rescaled_final/2066_rv.mp4	0.0	294.16685700416565	0.09999203681945801
43	273.35692596435547	fix_pre	0		120	41.0	2.5	blank	1.0	294.2668490409851	1.0000109672546387
43	273.9403820037842	pulse	0	t		41.0	2.5	blank	1.0	294.8503050804138	
43	274.3569369316101	movie	1		300	41.0	2.5	blank	1.0	295.26686000823975	2.499958038330078
43	275.54042506217957	pulse	1	t		41.0	2.5	blank	1.0	296.4503481388092	
43	276.8568949699402	fix_post	2		12	41.0	2.5	blank	1.0	297.7668180465698	0.09998011589050293
44	276.9568750858307	fix_pre	0		120	42.0	2.5	/experiments/AOT/AOT_stimuli/rescaled_final/1515_rv.mp4	0.0	297.8667981624603	1.0000078678131104
44	277.1404149532318	pulse	0	t		42.0	2.5	/experiments/AOT/AOT_stimuli/rescaled_final/1515_rv.mp4	0.0	298.05033802986145	
44	277.9568829536438	movie	1		243	42.0	2.5	/experiments/AOT/AOT_stimuli/rescaled_final/1515_rv.mp4	0.0	298.86680603027344	2.499979019165039
44	278.741338968277	pulse	1	t		42.0	2.5	/experiments/AOT/AOT_stimuli/rescaled_final/1515_rv.mp4	0.0	299.6512620449066	
44	280.348769903183	pulse	1	t		42.0	2.5	/experiments/AOT/AOT_stimuli/rescaled_final/1515_rv.mp4	0.0	301.2586929798126	
44	280.45686197280884	fix_post	2		12	42.0	2.5	/experiments/AOT/AOT_stimuli/rescaled_final/1515_rv.mp4	0.0	301.3667850494385	0.09959888458251953
45	280.55646085739136	fix_pre	0		120	43.0	2.5	/experiments/AOT/AOT_stimuli/rescaled_final/1614_fw.mp4	0.0	301.466383934021	1.0004770755767822
45	281.55693793296814	movie	1		244	43.0	2.5	/experiments/AOT/AOT_stimuli/rescaled_final/1614_fw.mp4	0.0	302.4668610095978	2.499969005584717
45	281.94877099990845	pulse	1	t		43.0	2.5	/experiments/AOT/AOT_stimuli/rescaled_final/1614_fw.mp4	0.0	302.8586940765381	
45	283.5412290096283	pulse	1	t		43.0	2.5	/experiments/AOT/AOT_stimuli/rescaled_final/1614_fw.mp4	0.0	304.45115208625793	
45	284.05690693855286	fix_post	2		12	43.0	2.5	/experiments/AOT/AOT_stimuli/rescaled_final/1614_fw.mp4	0.0	304.9668300151825	0.09988808631896973
46	284.1567950248718	fix_pre	0		120	44.0	2.5	/experiments/AOT/AOT_stimuli/rescaled_final/1413_fw.mp4	0.0	305.06671810150146	1.000126838684082
46	285.1411910057068	pulse	0	t		44.0	2.5	/experiments/AOT/AOT_stimuli/rescaled_final/1413_fw.mp4	0.0	306.0511140823364	
46	285.1569218635559	movie	1		247	44.0	2.5	/experiments/AOT/AOT_stimuli/rescaled_final/1413_fw.mp4	0.0	306.06684494018555	2.508308172225952
46	286.7486228942871	pulse	1	t		44.0	2.5	/experiments/AOT/AOT_stimuli/rescaled_final/1413_fw.mp4	0.0	307.65854597091675	
46	287.66523003578186	fix_post	2		12	44.0	2.5	/experiments/AOT/AOT_stimuli/rescaled_final/1413_fw.mp4	0.0	308.5751531124115	0.10003900527954102
47	287.7652690410614	fix_pre	0		120	45.0	2.5	/experiments/AOT/AOT_stimuli/rescaled_final/0741_fw.mp4	0.0	308.67519211769104	0.9998860359191895
47	288.3403949737549	pulse	0	t		45.0	2.5	/experiments/AOT/AOT_stimuli/rescaled_final/0741_fw.mp4	0.0	309.2503180503845	
47	288.7651550769806	movie	1		244	45.0	2.5	/experiments/AOT/AOT_stimuli/rescaled_final/0741_fw.mp4	0.0	309.67507815361023	2.49997878074646
47	289.94878602027893	pulse	1	t		45.0	2.5	/experiments/AOT/AOT_stimuli/rescaled_final/0741_fw.mp4	0.0	310.85870909690857	
47	291.26513385772705	fix_post	2		12	45.0	2.5	/experiments/AOT/AOT_stimuli/rescaled_final/0741_fw.mp4	0.0	312.1750569343567	0.10000300407409668
48	291.36513686180115	fix_pre	0		120	46.0	2.5	/experiments/AOT/AOT_stimuli/rescaled_final/1777_rv.mp4	0.0	312.2750599384308	1.0000200271606445
48	291.5403079986572	pulse	0	t		46.0	2.5	/experiments/AOT/AOT_stimuli/rescaled_final/1777_rv.mp4	0.0	312.45023107528687	
48	292.3651568889618	movie	1		245	46.0	2.5	/experiments/AOT/AOT_stimuli/rescaled_final/1777_rv.mp4	0.0	313.27507996559143	2.5000381469726562
48	293.1403000354767	pulse	1	t		46.0	2.5	/experiments/AOT/AOT_stimuli/rescaled_final/1777_rv.mp4	0.0	314.0502231121063	
48	294.7402949333191	pulse	1	t		46.0	2.5	/experiments/AOT/AOT_stimuli/rescaled_final/1777_rv.mp4	0.0	315.65021800994873	
48	294.86519503593445	fix_post	2		12	46.0	2.5	/experiments/AOT/AOT_stimuli/rescaled_final/1777_rv.mp4	0.0	315.7751181125641	0.10001492500305176
49	294.9652099609375	fix_pre	0		120	47.0	2.5	/experiments/AOT/AOT_stimuli/rescaled_final/0732_fw.mp4	0.0	315.87513303756714	0.9999680519104004
49	295.9651780128479	movie	1		246	47.0	2.5	/experiments/AOT/AOT_stimuli/rescaled_final/0732_fw.mp4	0.0	316.87510108947754	2.5001590251922607
49	296.3481569290161	pulse	1	t		47.0	2.5	/experiments/AOT/AOT_stimuli/rescaled_final/0732_fw.mp4	0.0	317.25808000564575	
49	297.9412930011749	pulse	1	t		47.0	2.5	/experiments/AOT/AOT_stimuli/rescaled_final/0732_fw.mp4	0.0	318.85121607780457	
49	298.46533703804016	fix_post	2		12	47.0	2.5	/experiments/AOT/AOT_stimuli/rescaled_final/0732_fw.mp4	0.0	319.3752601146698	0.09980893135070801
50	298.56514596939087	fix_pre	0		119	48.0	2.5	/experiments/AOT/AOT_stimuli/rescaled_final/1151_rv.mp4	0.0	319.4750690460205	0.991671085357666
50	299.5412709712982	pulse	0	t		48.0	2.5	/experiments/AOT/AOT_stimuli/rescaled_final/1151_rv.mp4	0.0	320.45119404792786	
50	299.55681705474854	movie	1		245	48.0	2.5	/experiments/AOT/AOT_stimuli/rescaled_final/1151_rv.mp4	0.0	320.4667401313782	2.5079970359802246
50	301.1476819515228	pulse	1	t		48.0	2.5	/experiments/AOT/AOT_stimuli/rescaled_final/1151_rv.mp4	0.0	322.05760502815247	
50	302.06481409072876	fix_post	2		12	48.0	2.5	/experiments/AOT/AOT_stimuli/rescaled_final/1151_rv.mp4	0.0	322.9747371673584	0.10007882118225098
51	302.164892911911	fix_pre	0		120	49.0	2.5	blank	1.0	323.07481598854065	1.000075101852417
51	302.74118208885193	pulse	0	t		49.0	2.5	blank	1.0	323.65110516548157	
51	303.1649680137634	movie	1		300	49.0	2.5	blank	1.0	324.07489109039307	2.500243902206421
51	304.34028792381287	pulse	1	t		49.0	2.5	blank	1.0	325.2502110004425	
51	305.66521191596985	fix_post	2		12	49.0	2.5	blank	1.0	326.5751349925995	0.09988594055175781
52	305.7650978565216	fix_pre	0		120	50.0	2.5	/experiments/AOT/AOT_stimuli/rescaled_final/0908_rv.mp4	0.0	326.67502093315125	0.9999852180480957
52	305.9403488636017	pulse	0	t		50.0	2.5	/experiments/AOT/AOT_stimuli/rescaled_final/0908_rv.mp4	0.0	326.8502719402313	
52	306.7650830745697	movie	1		243	50.0	2.5	/experiments/AOT/AOT_stimuli/rescaled_final/0908_rv.mp4	0.0	327.67500615119934	2.4999468326568604
52	307.54015707969666	pulse	1	t		50.0	2.5	/experiments/AOT/AOT_stimuli/rescaled_final/0908_rv.mp4	0.0	328.4500801563263	
52	309.1401479244232	pulse	1	t		50.0	2.5	/experiments/AOT/AOT_stimuli/rescaled_final/0908_rv.mp4	0.0	330.05007100105286	
52	309.26502990722656	fix_post	2		12	50.0	2.5	/experiments/AOT/AOT_stimuli/rescaled_final/0908_rv.mp4	0.0	330.1749529838562	0.09997701644897461
53	309.36500692367554	fix_pre	0		120	51.0	2.5	/experiments/AOT/AOT_stimuli/rescaled_final/1040_rv.mp4	0.0	330.2749300003052	1.000035047531128
53	310.36504197120667	movie	1		245	51.0	2.5	/experiments/AOT/AOT_stimuli/rescaled_final/1040_rv.mp4	0.0	331.2749650478363	2.4999709129333496
53	310.74014687538147	pulse	1	t		51.0	2.5	/experiments/AOT/AOT_stimuli/rescaled_final/1040_rv.mp4	0.0	331.6500699520111	
53	312.3411440849304	pulse	1	t		51.0	2.5	/experiments/AOT/AOT_stimuli/rescaled_final/1040_rv.mp4	0.0	333.25106716156006	
53	312.86501288414	fix_post	2		12	51.0	2.5	/experiments/AOT/AOT_stimuli/rescaled_final/1040_rv.mp4	0.0	333.77493596076965	0.10004210472106934
54	312.9650549888611	fix_pre	0		119	52.0	2.5	/experiments/AOT/AOT_stimuli/rescaled_final/1626_fw.mp4	0.0	333.8749780654907	0.9916579723358154
54	313.9410049915314	pulse	0	t		52.0	2.5	/experiments/AOT/AOT_stimuli/rescaled_final/1626_fw.mp4	0.0	334.850928068161	
54	313.9567129611969	movie	1		247	52.0	2.5	/experiments/AOT/AOT_stimuli/rescaled_final/1626_fw.mp4	0.0	334.86663603782654	2.5082900524139404
54	315.54818296432495	pulse	1	t		52.0	2.5	/experiments/AOT/AOT_stimuli/rescaled_final/1626_fw.mp4	0.0	336.4581060409546	
54	316.46500301361084	fix_post	2		12	52.0	2.5	/experiments/AOT/AOT_stimuli/rescaled_final/1626_fw.mp4	0.0	337.3749260902405	0.10001206398010254
55	316.56501507759094	fix_pre	0		120	53.0	2.5	/experiments/AOT/AOT_stimuli/rescaled_final/1110_rv.mp4	0.0	337.4749381542206	1.0000178813934326
55	317.1410069465637	pulse	0	t		53.0	2.5	/experiments/AOT/AOT_stimuli/rescaled_final/1110_rv.mp4	0.0	338.05093002319336	
55	317.5650329589844	movie	1		245	53.0	2.5	/experiments/AOT/AOT_stimuli/rescaled_final/1110_rv.mp4	0.0	338.474956035614	2.4999780654907227
55	318.7413830757141	pulse	1	t		53.0	2.5	/experiments/AOT/AOT_stimuli/rescaled_final/1110_rv.mp4	0.0	339.65130615234375	
55	320.0650110244751	fix_post	2		12	53.0	2.5	/experiments/AOT/AOT_stimuli/rescaled_final/1110_rv.mp4	0.0	340.97493410110474	0.10004687309265137
56	320.16505789756775	fix_pre	0		120	54.0	2.5	/experiments/AOT/AOT_stimuli/rescaled_final/1817_rv.mp4	0.0	341.0749809741974	0.9999370574951172
56	320.34094285964966	pulse	0	t		54.0	2.5	/experiments/AOT/AOT_stimuli/rescaled_final/1817_rv.mp4	0.0	341.2508659362793	
56	321.16499495506287	movie	1		246	54.0	2.5	/experiments/AOT/AOT_stimuli/rescaled_final/1817_rv.mp4	0.0	342.0749180316925	2.500040054321289
56	321.94099497795105	pulse	1	t		54.0	2.5	/experiments/AOT/AOT_stimuli/rescaled_final/1817_rv.mp4	0.0	342.8509180545807	
56	323.54017305374146	pulse	1	t		54.0	2.5	/experiments/AOT/AOT_stimuli/rescaled_final/1817_rv.mp4	0.0	344.4500961303711	
56	323.66503500938416	fix_post	2		12	54.0	2.5	/experiments/AOT/AOT_stimuli/rescaled_final/1817_rv.mp4	0.0	344.5749580860138	0.09997797012329102
57	323.76501297950745	fix_pre	0		120	55.0	2.5	/experiments/AOT/AOT_stimuli/rescaled_final/1583_rv.mp4	0.0	344.6749360561371	0.9999809265136719
57	324.7649939060211	movie	1		244	55.0	2.5	/experiments/AOT/AOT_stimuli/rescaled_final/1583_rv.mp4	0.0	345.67491698265076	2.4998960494995117
57	325.1402180194855	pulse	1	t		55.0	2.5	/experiments/AOT/AOT_stimuli/rescaled_final/1583_rv.mp4	0.0	346.0501410961151	
57	326.74116706848145	pulse	1	t		55.0	2.5	/experiments/AOT/AOT_stimuli/rescaled_final/1583_rv.mp4	0.0	347.6510901451111	
57	327.26488995552063	fix_post	2		12	55.0	2.5	/experiments/AOT/AOT_stimuli/rescaled_final/1583_rv.mp4	0.0	348.17481303215027	0.10013103485107422
58	327.3650209903717	fix_pre	0		119	56.0	2.5	blank	1.0	348.27494406700134	0.9916009902954102
58	328.3410499095917	pulse	0	t		56.0	2.5	blank	1.0	349.2509729862213	
58	328.3566219806671	movie	1		301	56.0	2.5	blank	1.0	349.26654505729675	2.5083560943603516
58	329.9410560131073	pulse	1	t		56.0	2.5	blank	1.0	350.85097908973694	
58	330.86497807502747	fix_post	2		12	56.0	2.5	blank	1.0	351.7749011516571	0.09989500045776367
59	330.96487307548523	fix_pre	0		120	57.0	2.5	/experiments/AOT/AOT_stimuli/rescaled_final/0912_rv.mp4	0.0	351.87479615211487	1.0000898838043213
59	331.54098296165466	pulse	0	t		57.0	2.5	/experiments/AOT/AOT_stimuli/rescaled_final/0912_rv.mp4	0.0	352.4509060382843	
59	331.96496295928955	movie	1		245	57.0	2.5	/experiments/AOT/AOT_stimuli/rescaled_final/0912_rv.mp4	0.0	352.8748860359192	2.4999639987945557
59	333.1485149860382	pulse	1	t		57.0	2.5	/experiments/AOT/AOT_stimuli/rescaled_final/0912_rv.mp4	0.0	354.05843806266785	
59	334.4649269580841	fix_post	2		12	57.0	2.5	/experiments/AOT/AOT_stimuli/rescaled_final/0912_rv.mp4	0.0	355.37485003471375	0.10006403923034668
60	334.56499099731445	fix_pre	0		120	58.0	2.5	/experiments/AOT/AOT_stimuli/rescaled_final/1583_rv.mp4	0.0	355.4749140739441	0.9995620250701904
60	334.74101996421814	pulse	0	t		58.0	2.5	/experiments/AOT/AOT_stimuli/rescaled_final/1583_rv.mp4	0.0	355.6509430408478	
60	335.56455302238464	movie	1		246	58.0	2.5	/experiments/AOT/AOT_stimuli/rescaled_final/1583_rv.mp4	0.0	356.4744760990143	2.5004069805145264
60	336.34101486206055	pulse	1	t		58.0	2.5	/experiments/AOT/AOT_stimuli/rescaled_final/1583_rv.mp4	0.0	357.2509379386902	
60	337.9469749927521	pulse	1	t		58.0	2.5	/experiments/AOT/AOT_stimuli/rescaled_final/1583_rv.mp4	0.0	358.8568980693817	
60	338.06496000289917	fix_post	2		12	58.0	2.5	/experiments/AOT/AOT_stimuli/rescaled_final/1583_rv.mp4	0.0	358.9748830795288	0.09999895095825195
61	338.1649589538574	fix_pre	0		120	59.0	2.5	/experiments/AOT/AOT_stimuli/rescaled_final/0320_rv.mp4	0.0	359.07488203048706	1.0000319480895996
61	339.164990901947	movie	1		247	59.0	2.5	/experiments/AOT/AOT_stimuli/rescaled_final/0320_rv.mp4	0.0	360.07491397857666	2.499965190887451
61	339.54788994789124	pulse	1	t		59.0	2.5	/experiments/AOT/AOT_stimuli/rescaled_final/0320_rv.mp4	0.0	360.4578130245209	
61	341.14016103744507	pulse	1	t		59.0	2.5	/experiments/AOT/AOT_stimuli/rescaled_final/0320_rv.mp4	0.0	362.0500841140747	
61	341.6649560928345	fix_post	2		12	59.0	2.5	/experiments/AOT/AOT_stimuli/rescaled_final/0320_rv.mp4	0.0	362.5748791694641	0.09995079040527344
62	341.76490688323975	fix_pre	0		119	60.0	2.5	/experiments/AOT/AOT_stimuli/rescaled_final/0642_rv.mp4	0.0	362.6748299598694	0.991610050201416
62	342.7411320209503	pulse	0	t		60.0	2.5	/experiments/AOT/AOT_stimuli/rescaled_final/0642_rv.mp4	0.0	363.65105509757996	
62	342.75651693344116	movie	1		246	60.0	2.5	/experiments/AOT/AOT_stimuli/rescaled_final/0642_rv.mp4	0.0	363.6664400100708	2.5084891319274902
62	344.34951400756836	pulse	1	t		60.0	2.5	/experiments/AOT/AOT_stimuli/rescaled_final/0642_rv.mp4	0.0	365.259437084198	
62	345.26500606536865	fix_post	2		12	60.0	2.5	/experiments/AOT/AOT_stimuli/rescaled_final/0642_rv.mp4	0.0	366.1749291419983	0.09984898567199707
63	345.36485505104065	fix_pre	0		120	61.0	2.5	/experiments/AOT/AOT_stimuli/rescaled_final/0908_fw.mp4	0.0	366.2747781276703	0.9999949932098389
63	345.9409580230713	pulse	0	t		61.0	2.5	/experiments/AOT/AOT_stimuli/rescaled_final/0908_fw.mp4	0.0	366.8508810997009	
63	346.3648500442505	movie	1		243	61.0	2.5	/experiments/AOT/AOT_stimuli/rescaled_final/0908_fw.mp4	0.0	367.2747731208801	2.5001180171966553
63	347.5484299659729	pulse	1	t		61.0	2.5	/experiments/AOT/AOT_stimuli/rescaled_final/0908_fw.mp4	0.0	368.45835304260254	
63	348.86496806144714	fix_post	2		12	61.0	2.5	/experiments/AOT/AOT_stimuli/rescaled_final/0908_fw.mp4	0.0	369.7748911380768	0.0999460220336914
64	348.96491408348083	fix_pre	0		120	62.0	2.5	blank	1.0	369.8748371601105	1.0000278949737549
64	349.14089608192444	pulse	0	t		62.0	2.5	blank	1.0	370.0508191585541	
64	349.9649419784546	movie	1		300	62.0	2.5	blank	1.0	370.87486505508423	2.499937057495117
64	350.74087285995483	pulse	1	t		62.0	2.5	blank	1.0	371.6507959365845	
64	352.34079790115356	pulse	1	t		62.0	2.5	blank	1.0	373.2507209777832	
64	352.4648790359497	fix_post	2		12	62.0	2.5	blank	1.0	373.37480211257935	0.10001897811889648
65	352.5648980140686	fix_pre	0		120	63.0	2.5	/experiments/AOT/AOT_stimuli/rescaled_final/0551_rv.mp4	0.0	373.47482109069824	1.000014066696167
65	353.56491208076477	movie	1		243	63.0	2.5	/experiments/AOT/AOT_stimuli/rescaled_final/0551_rv.mp4	0.0	374.4748351573944	2.4999608993530273
65	353.94858288764954	pulse	1	t		63.0	2.5	/experiments/AOT/AOT_stimuli/rescaled_final/0551_rv.mp4	0.0	374.8585059642792	
65	355.5410420894623	pulse	1	t		63.0	2.5	/experiments/AOT/AOT_stimuli/rescaled_final/0551_rv.mp4	0.0	376.4509651660919	
65	356.0648729801178	fix_post	2		12	63.0	2.5	/experiments/AOT/AOT_stimuli/rescaled_final/0551_rv.mp4	0.0	376.97479605674744	0.09996795654296875
66	356.16484093666077	fix_pre	0		119	64.0	2.5	/experiments/AOT/AOT_stimuli/rescaled_final/1436_fw.mp4	0.0	377.0747640132904	0.9916601181030273
66	357.1403510570526	pulse	0	t		64.0	2.5	/experiments/AOT/AOT_stimuli/rescaled_final/1436_fw.mp4	0.0	378.05027413368225	
66	357.1565010547638	movie	1		248	64.0	2.5	/experiments/AOT/AOT_stimuli/rescaled_final/1436_fw.mp4	0.0	378.06642413139343	2.508708953857422
66	358.7493019104004	pulse	1	t		64.0	2.5	/experiments/AOT/AOT_stimuli/rescaled_final/1436_fw.mp4	0.0	379.65922498703003	
66	359.6652100086212	fix_post	2		12	64.0	2.5	/experiments/AOT/AOT_stimuli/rescaled_final/1436_fw.mp4	0.0	380.57513308525085	0.09958696365356445
67	359.7647969722748	fix_pre	0		120	65.0	2.5	/experiments/AOT/AOT_stimuli/rescaled_final/1114_rv.mp4	0.0	380.6747200489044	1.0000479221343994
67	360.341068983078	pulse	0	t		65.0	2.5	/experiments/AOT/AOT_stimuli/rescaled_final/1114_rv.mp4	0.0	381.25099205970764	
67	360.7648448944092	movie	1		245	65.0	2.5	/experiments/AOT/AOT_stimuli/rescaled_final/1114_rv.mp4	0.0	381.6747679710388	2.5000510215759277
67	361.9483799934387	pulse	1	t		65.0	2.5	/experiments/AOT/AOT_stimuli/rescaled_final/1114_rv.mp4	0.0	382.85830307006836	
67	363.2648959159851	fix_post	2		12	65.0	2.5	/experiments/AOT/AOT_stimuli/rescaled_final/1114_rv.mp4	0.0	384.17481899261475	0.09992194175720215
68	363.3648178577423	fix_pre	0		120	66.0	2.5	/experiments/AOT/AOT_stimuli/rescaled_final/0832_fw.mp4	0.0	384.27474093437195	1.0001561641693115
68	363.54081296920776	pulse	0	t		66.0	2.5	/experiments/AOT/AOT_stimuli/rescaled_final/0832_fw.mp4	0.0	384.4507360458374	
68	364.3649740219116	movie	1		245	66.0	2.5	/experiments/AOT/AOT_stimuli/rescaled_final/0832_fw.mp4	0.0	385.27489709854126	2.499821901321411
68	365.140830039978	pulse	1	t		66.0	2.5	/experiments/AOT/AOT_stimuli/rescaled_final/0832_fw.mp4	0.0	386.05075311660767	
68	366.7468099594116	pulse	1	t		66.0	2.5	/experiments/AOT/AOT_stimuli/rescaled_final/0832_fw.mp4	0.0	387.65673303604126	
68	366.86479592323303	fix_post	2		12	66.0	2.5	/experiments/AOT/AOT_stimuli/rescaled_final/0832_fw.mp4	0.0	387.77471899986267	0.10007905960083008
69	366.96487498283386	fix_pre	0		120	67.0	2.5	/experiments/AOT/AOT_stimuli/rescaled_final/0065_rv.mp4	0.0	387.8747980594635	0.9998888969421387
69	367.964763879776	movie	1		243	67.0	2.5	/experiments/AOT/AOT_stimuli/rescaled_final/0065_rv.mp4	0.0	388.87468695640564	2.5000150203704834
69	368.34768986701965	pulse	1	t		67.0	2.5	/experiments/AOT/AOT_stimuli/rescaled_final/0065_rv.mp4	0.0	389.2576129436493	
69	369.9409580230713	pulse	1	t		67.0	2.5	/experiments/AOT/AOT_stimuli/rescaled_final/0065_rv.mp4	0.0	390.8508810997009	
69	370.4647789001465	fix_post	2		12	67.0	2.5	/experiments/AOT/AOT_stimuli/rescaled_final/0065_rv.mp4	0.0	391.3747019767761	0.10000205039978027
70	370.56478095054626	fix_pre	0		119	68.0	2.5	blank	1.0	391.4747040271759	0.9916760921478271
70	371.54086995124817	pulse	0	t		68.0	2.5	blank	1.0	392.4507930278778	
70	371.5564570426941	movie	1		301	68.0	2.5	blank	1.0	392.46638011932373	2.508307933807373
70	373.1409339904785	pulse	1	t		68.0	2.5	blank	1.0	394.05085706710815	
70	374.06476497650146	fix_post	2		12	68.0	2.5	blank	1.0	394.9746880531311	0.10001111030578613
71	374.16477608680725	fix_pre	0		120	69.0	2.5	/experiments/AOT/AOT_stimuli/rescaled_final/0963_rv.mp4	0.0	395.0746991634369	1.0000238418579102
71	374.7407259941101	pulse	0	t		69.0	2.5	/experiments/AOT/AOT_stimuli/rescaled_final/0963_rv.mp4	0.0	395.65064907073975	
71	375.16479992866516	movie	1		245	69.0	2.5	/experiments/AOT/AOT_stimuli/rescaled_final/0963_rv.mp4	0.0	396.0747230052948	2.499920129776001
71	376.341078042984	pulse	1	t		69.0	2.5	/experiments/AOT/AOT_stimuli/rescaled_final/0963_rv.mp4	0.0	397.25100111961365	
71	377.66472005844116	fix_post	2		12	69.0	2.5	/experiments/AOT/AOT_stimuli/rescaled_final/0963_rv.mp4	0.0	398.5746431350708	0.09996390342712402
72	377.7646839618683	fix_pre	0		120	70.0	2.5	/experiments/AOT/AOT_stimuli/rescaled_final/0570_fw.mp4	0.0	398.6746070384979	1.000135898590088
72	377.9483699798584	pulse	0	t		70.0	2.5	/experiments/AOT/AOT_stimuli/rescaled_final/0570_fw.mp4	0.0	398.85829305648804	
72	378.7648198604584	movie	1		246	70.0	2.5	/experiments/AOT/AOT_stimuli/rescaled_final/0570_fw.mp4	0.0	399.674742937088	2.4998772144317627
72	379.548299074173	pulse	1	t		70.0	2.5	/experiments/AOT/AOT_stimuli/rescaled_final/0570_fw.mp4	0.0	400.4582221508026	
72	381.1444568634033	pulse	1	t		70.0	2.5	/experiments/AOT/AOT_stimuli/rescaled_final/0570_fw.mp4	0.0	402.05437994003296	
72	381.26469707489014	fix_post	2		12	70.0	2.5	/experiments/AOT/AOT_stimuli/rescaled_final/0570_fw.mp4	0.0	402.1746201515198	0.1000518798828125
73	381.36474895477295	fix_pre	0		120	71.0	2.5	/experiments/AOT/AOT_stimuli/rescaled_final/0853_fw.mp4	0.0	402.2746720314026	0.9999330043792725
73	382.3646819591522	movie	1		246	71.0	2.5	/experiments/AOT/AOT_stimuli/rescaled_final/0853_fw.mp4	0.0	403.27460503578186	2.5000510215759277
73	382.74841809272766	pulse	1	t		71.0	2.5	/experiments/AOT/AOT_stimuli/rescaled_final/0853_fw.mp4	0.0	403.6583411693573	
73	384.34095287323	pulse	1	t		71.0	2.5	/experiments/AOT/AOT_stimuli/rescaled_final/0853_fw.mp4	0.0	405.2508759498596	
73	384.86473298072815	fix_post	2		12	71.0	2.5	/experiments/AOT/AOT_stimuli/rescaled_final/0853_fw.mp4	0.0	405.7746560573578	0.09990906715393066
74	384.9646420478821	fix_pre	0		119	72.0	2.5	/experiments/AOT/AOT_stimuli/rescaled_final/0917_rv.mp4	0.0	405.8745651245117	0.9916980266571045
74	385.9407649040222	pulse	0	t		72.0	2.5	/experiments/AOT/AOT_stimuli/rescaled_final/0917_rv.mp4	0.0	406.85068798065186	
74	385.9563400745392	movie	1		244	72.0	2.5	/experiments/AOT/AOT_stimuli/rescaled_final/0917_rv.mp4	0.0	406.8662631511688	2.50832200050354
74	387.54782795906067	pulse	1	t		72.0	2.5	/experiments/AOT/AOT_stimuli/rescaled_final/0917_rv.mp4	0.0	408.4577510356903	
74	388.4646620750427	fix_post	2		12	72.0	2.5	/experiments/AOT/AOT_stimuli/rescaled_final/0917_rv.mp4	0.0	409.37458515167236	0.10006284713745117
75	388.5647249221802	fix_pre	0		120	73.0	2.5	/experiments/AOT/AOT_stimuli/rescaled_final/1108_rv.mp4	0.0	409.4746479988098	0.9999721050262451
75	389.140832901001	pulse	0	t		73.0	2.5	/experiments/AOT/AOT_stimuli/rescaled_final/1108_rv.mp4	0.0	410.0507559776306	
75	389.5646970272064	movie	1		245	73.0	2.5	/experiments/AOT/AOT_stimuli/rescaled_final/1108_rv.mp4	0.0	410.47462010383606	2.499959945678711
75	390.7482478618622	pulse	1	t		73.0	2.5	/experiments/AOT/AOT_stimuli/rescaled_final/1108_rv.mp4	0.0	411.6581709384918	
75	392.06465697288513	fix_post	2		12	73.0	2.5	/experiments/AOT/AOT_stimuli/rescaled_final/1108_rv.mp4	0.0	412.97458004951477	0.10001993179321289
76	392.16467690467834	fix_pre	0		120	74.0	2.5	/experiments/AOT/AOT_stimuli/rescaled_final/2032_rv.mp4	0.0	413.074599981308	0.9999129772186279
76	392.34821605682373	pulse	0	t		74.0	2.5	/experiments/AOT/AOT_stimuli/rescaled_final/2032_rv.mp4	0.0	413.25813913345337	
76	393.164589881897	movie	1		243	74.0	2.5	/experiments/AOT/AOT_stimuli/rescaled_final/2032_rv.mp4	0.0	414.0745129585266	2.4997401237487793
76	393.9483060836792	pulse	1	t		74.0	2.5	/experiments/AOT/AOT_stimuli/rescaled_final/2032_rv.mp4	0.0	414.85822916030884	
76	395.54656505584717	pulse	1	t		74.0	2.5	/experiments/AOT/AOT_stimuli/rescaled_final/2032_rv.mp4	0.0	416.4564881324768	
76	395.66433000564575	fix_post	2		12	74.0	2.5	/experiments/AOT/AOT_stimuli/rescaled_final/2032_rv.mp4	0.0	416.5742530822754	0.10037398338317871
77	395.76470398902893	fix_pre	0		120	75.0	2.5	/experiments/AOT/AOT_stimuli/rescaled_final/1158_rv.mp4	0.0	416.67462706565857	0.9999480247497559
77	396.7646520137787	movie	1		244	75.0	2.5	/experiments/AOT/AOT_stimuli/rescaled_final/1158_rv.mp4	0.0	417.6745750904083	2.500020980834961
77	397.14941787719727	pulse	1	t		75.0	2.5	/experiments/AOT/AOT_stimuli/rescaled_final/1158_rv.mp4	0.0	418.0593409538269	
77	398.74079489707947	pulse	1	t		75.0	2.5	/experiments/AOT/AOT_stimuli/rescaled_final/1158_rv.mp4	0.0	419.6507179737091	
77	399.26467299461365	fix_post	2		12	75.0	2.5	/experiments/AOT/AOT_stimuli/rescaled_final/1158_rv.mp4	0.0	420.1745960712433	0.09999895095825195
78	399.3646719455719	fix_pre	0		119	76.0	2.5	/experiments/AOT/AOT_stimuli/rescaled_final/2070_fw.mp4	0.0	420.27459502220154	0.9916489124298096
78	400.34063696861267	pulse	0	t		76.0	2.5	/experiments/AOT/AOT_stimuli/rescaled_final/2070_fw.mp4	0.0	421.2505600452423	
78	400.3563208580017	movie	1		246	76.0	2.5	/experiments/AOT/AOT_stimuli/rescaled_final/2070_fw.mp4	0.0	421.26624393463135	2.507934093475342
78	401.9478418827057	pulse	1	t		76.0	2.5	/experiments/AOT/AOT_stimuli/rescaled_final/2070_fw.mp4	0.0	422.8577649593353	
78	402.86425495147705	fix_post	2		12	76.0	2.5	/experiments/AOT/AOT_stimuli/rescaled_final/2070_fw.mp4	0.0	423.7741780281067	0.10035991668701172
79	402.96461486816406	fix_pre	0		120	77.0	2.5	blank	1.0	423.8745379447937	1.000143051147461
79	403.5405960083008	pulse	0	t		77.0	2.5	blank	1.0	424.4505190849304	
79	403.9647579193115	movie	1		300	77.0	2.5	blank	1.0	424.87468099594116	2.499847173690796
79	405.14061093330383	pulse	1	t		77.0	2.5	blank	1.0	426.0505340099335	
79	406.4646050930023	fix_post	2		12	77.0	2.5	blank	1.0	427.37452816963196	0.10008692741394043
80	406.56469202041626	fix_pre	0		120	78.0	2.5	/experiments/AOT/AOT_stimuli/rescaled_final/1626_fw.mp4	0.0	427.4746150970459	0.9999480247497559
80	406.74059295654297	pulse	0	t		78.0	2.5	/experiments/AOT/AOT_stimuli/rescaled_final/1626_fw.mp4	0.0	427.6505160331726	
80	407.564640045166	movie	1		244	78.0	2.5	/experiments/AOT/AOT_stimuli/rescaled_final/1626_fw.mp4	0.0	428.47456312179565	2.499980926513672
80	408.3481080532074	pulse	1	t		78.0	2.5	/experiments/AOT/AOT_stimuli/rescaled_final/1626_fw.mp4	0.0	429.25803112983704	
80	409.94678497314453	pulse	1	t		78.0	2.5	/experiments/AOT/AOT_stimuli/rescaled_final/1626_fw.mp4	0.0	430.85670804977417	
80	410.0646209716797	fix_post	2		12	78.0	2.5	/experiments/AOT/AOT_stimuli/rescaled_final/1626_fw.mp4	0.0	430.9745440483093	0.1000208854675293
81	410.1646418571472	fix_pre	0		120	79.0	2.5	/experiments/AOT/AOT_stimuli/rescaled_final/0405_fw.mp4	0.0	431.07456493377686	0.999920129776001
81	411.1645619869232	movie	1		245	79.0	2.5	/experiments/AOT/AOT_stimuli/rescaled_final/0405_fw.mp4	0.0	432.07448506355286	2.4996819496154785
81	411.54943895339966	pulse	1	t		79.0	2.5	/experiments/AOT/AOT_stimuli/rescaled_final/0405_fw.mp4	0.0	432.4593620300293	
81	413.1476089954376	pulse	1	t		79.0	2.5	/experiments/AOT/AOT_stimuli/rescaled_final/0405_fw.mp4	0.0	434.05753207206726	
81	413.6642439365387	fix_post	2		12	79.0	2.5	/experiments/AOT/AOT_stimuli/rescaled_final/0405_fw.mp4	0.0	434.57416701316833	0.10039997100830078
82	413.764643907547	fix_pre	0		119	80.0	2.5	/experiments/AOT/AOT_stimuli/rescaled_final/1097_fw.mp4	0.0	434.67456698417664	0.991379976272583
82	414.74788904190063	pulse	0	t		80.0	2.5	/experiments/AOT/AOT_stimuli/rescaled_final/1097_fw.mp4	0.0	435.6578121185303	
82	414.7560238838196	movie	1		246	80.0	2.5	/experiments/AOT/AOT_stimuli/rescaled_final/1097_fw.mp4	0.0	435.6659469604492	2.508527994155884
82	416.34796690940857	pulse	1	t		80.0	2.5	/experiments/AOT/AOT_stimuli/rescaled_final/1097_fw.mp4	0.0	437.2578899860382	
82	417.26455187797546	fix_post	2		12	80.0	2.5	/experiments/AOT/AOT_stimuli/rescaled_final/1097_fw.mp4	0.0	438.1744749546051	0.09999203681945801
83	417.3645439147949	fix_pre	0		120	81.0	2.5	/experiments/AOT/AOT_stimuli/rescaled_final/1114_fw.mp4	0.0	438.27446699142456	1.0000050067901611
83	417.9405629634857	pulse	0	t		81.0	2.5	/experiments/AOT/AOT_stimuli/rescaled_final/1114_fw.mp4	0.0	438.85048604011536	
83	418.3645489215851	movie	1		243	81.0	2.5	/experiments/AOT/AOT_stimuli/rescaled_final/1114_fw.mp4	0.0	439.2744719982147	2.5000669956207275
83	419.5411400794983	pulse	1	t		81.0	2.5	/experiments/AOT/AOT_stimuli/rescaled_final/1114_fw.mp4	0.0	440.45106315612793	
83	420.8646159172058	fix_post	2		12	81.0	2.5	/experiments/AOT/AOT_stimuli/rescaled_final/1114_fw.mp4	0.0	441.77453899383545	0.09988999366760254
84	420.9645059108734	fix_pre	0		120	82.0	2.5	/experiments/AOT/AOT_stimuli/rescaled_final/1105_rv.mp4	0.0	441.87442898750305	1.000049114227295
84	421.14044094085693	pulse	0	t		82.0	2.5	/experiments/AOT/AOT_stimuli/rescaled_final/1105_rv.mp4	0.0	442.0503640174866	
84	421.9645550251007	movie	1		242	82.0	2.5	/experiments/AOT/AOT_stimuli/rescaled_final/1105_rv.mp4	0.0	442.87447810173035	2.4999020099639893
84	422.7404170036316	pulse	1	t		82.0	2.5	/experiments/AOT/AOT_stimuli/rescaled_final/1105_rv.mp4	0.0	443.65034008026123	
84	424.3462998867035	pulse	1	t		82.0	2.5	/experiments/AOT/AOT_stimuli/rescaled_final/1105_rv.mp4	0.0	445.25622296333313	
84	424.4644570350647	fix_post	2		12	82.0	2.5	/experiments/AOT/AOT_stimuli/rescaled_final/1105_rv.mp4	0.0	445.37438011169434	0.0996389389038086
85	424.5640959739685	fix_pre	0		120	83.0	2.5	blank	1.0	445.47401905059814	1.0004420280456543
85	425.56453800201416	movie	1		300	83.0	2.5	blank	1.0	446.4744610786438	2.5000240802764893
85	425.9480130672455	pulse	1	t		83.0	2.5	blank	1.0	446.8579361438751	
85	427.54793906211853	pulse	1	t		83.0	2.5	blank	1.0	448.45786213874817	
85	428.06456208229065	fix_post	2		12	83.0	2.5	blank	1.0	448.9744851589203	0.09996700286865234
87	428.1645290851593	stim	0		1716					449.07445216178894	14.299951791763306
87	429.14800000190735	pulse	0	t						450.057923078537	
87	430.74058198928833	pulse	0	t						451.65050506591797	
87	432.34063601493835	pulse	0	t						453.250559091568	
87	433.9408628940582	pulse	0	t						454.85078597068787	
87	435.5405640602112	pulse	0	t						456.4504871368408	
87	437.14060401916504	pulse	0	t						458.0505270957947	
87	438.7479269504547	pulse	0	t						459.65785002708435	
87	440.34787702560425	pulse	0	t						461.2578001022339	
87	441.94794392585754	pulse	0	t						462.8578670024872	
