trial_nr	onset	event_type	phase	response	nr_frames	movie_index	movie_duration	movie_file	blank	onset_abs	duration
0	0.1332077980041504	stim	0		94					20.615449905395508	0.7833771705627441
0	0.9085338115692139	response	0	space						21.39077591896057	
1	0.9165849685668945	stim	0		4031					21.398827075958252	33.591452836990356
1	34.499849796295166	pulse	0	t						54.98209190368652	
1	34.50803780555725	stim	1		1717					54.99027991294861	14.308284044265747
1	36.09995985031128	pulse	1	t						56.58220195770264	
1	37.69994282722473	pulse	1	t						58.18218493461609	
1	39.29991793632507	pulse	1	t						59.78216004371643	
1	40.899807929992676	pulse	1	t						61.38205003738403	
1	42.4998779296875	pulse	1	t						62.98212003707886	
1	44.09992694854736	pulse	1	t						64.58216905593872	
1	45.69982981681824	pulse	1	t						66.1820719242096	
1	47.299805879592896	pulse	1	t						67.78204798698425	
2	48.816321849823	fix_pre	0		11	0.0	2.5	/experiments/AOT/AOT_stimuli/rescaled_final/0173_fw.mp4	0.0	69.29856395721436	0.09167003631591797
2	48.89982891082764	pulse	0	t		0.0	2.5	/experiments/AOT/AOT_stimuli/rescaled_final/0173_fw.mp4	0.0	69.382071018219	
2	48.907991886138916	movie	1		247	0.0	2.5	/experiments/AOT/AOT_stimuli/rescaled_final/0173_fw.mp4	0.0	69.39023399353027	2.5080361366271973
2	50.499085903167725	pulse	1	t		0.0	2.5	/experiments/AOT/AOT_stimuli/rescaled_final/0173_fw.mp4	0.0	70.98132801055908	
2	51.41602802276611	fix_post	2		12	0.0	2.5	/experiments/AOT/AOT_stimuli/rescaled_final/0173_fw.mp4	0.0	71.89827013015747	0.10023188591003418
3	51.51625990867615	fix_pre	0		120	1.0	2.5	/experiments/AOT/AOT_stimuli/rescaled_final/1246_fw.mp4	0.0	71.9985020160675	1.0002100467681885
3	52.099817991256714	pulse	0	t		1.0	2.5	/experiments/AOT/AOT_stimuli/rescaled_final/1246_fw.mp4	0.0	72.58206009864807	
3	52.516469955444336	movie	1		244	1.0	2.5	/experiments/AOT/AOT_stimuli/rescaled_final/1246_fw.mp4	0.0	72.9987120628357	2.499511957168579
3	53.699800968170166	pulse	1	t		1.0	2.5	/experiments/AOT/AOT_stimuli/rescaled_final/1246_fw.mp4	0.0	74.18204307556152	
3	55.015981912612915	fix_post	2		12	1.0	2.5	/experiments/AOT/AOT_stimuli/rescaled_final/1246_fw.mp4	0.0	75.49822402000427	0.10032892227172852
4	55.116310834884644	fix_pre	0		120	2.0	2.5	/experiments/AOT/AOT_stimuli/rescaled_final/1267_rv.mp4	0.0	75.598552942276	0.99993896484375
4	55.29981303215027	pulse	0	t		2.0	2.5	/experiments/AOT/AOT_stimuli/rescaled_final/1267_rv.mp4	0.0	75.78205513954163	
4	56.116249799728394	movie	1		244	2.0	2.5	/experiments/AOT/AOT_stimuli/rescaled_final/1267_rv.mp4	0.0	76.59849190711975	2.5001020431518555
4	56.899827003479004	pulse	1	t		2.0	2.5	/experiments/AOT/AOT_stimuli/rescaled_final/1267_rv.mp4	0.0	77.38206911087036	
4	58.498313903808594	pulse	1	t		2.0	2.5	/experiments/AOT/AOT_stimuli/rescaled_final/1267_rv.mp4	0.0	78.98055601119995	
4	58.61635184288025	fix_post	2		12	2.0	2.5	/experiments/AOT/AOT_stimuli/rescaled_final/1267_rv.mp4	0.0	79.0985939502716	0.09990501403808594
5	58.716256856918335	fix_pre	0		120	3.0	2.5	/experiments/AOT/AOT_stimuli/rescaled_final/1456_rv.mp4	0.0	79.19849896430969	1.0000391006469727
5	59.71629595756531	movie	1		243	3.0	2.5	/experiments/AOT/AOT_stimuli/rescaled_final/1456_rv.mp4	0.0	80.19853806495667	2.499901056289673
5	60.09967398643494	pulse	1	t		3.0	2.5	/experiments/AOT/AOT_stimuli/rescaled_final/1456_rv.mp4	0.0	80.5819160938263	
5	61.69977879524231	pulse	1	t		3.0	2.5	/experiments/AOT/AOT_stimuli/rescaled_final/1456_rv.mp4	0.0	82.18202090263367	
5	62.21619701385498	fix_post	2		12	3.0	2.5	/experiments/AOT/AOT_stimuli/rescaled_final/1456_rv.mp4	0.0	82.69843912124634	0.10010790824890137
6	62.31630492210388	fix_pre	0		119	4.0	2.5	/experiments/AOT/AOT_stimuli/rescaled_final/1717_fw.mp4	0.0	82.79854702949524	0.9916749000549316
6	63.29984092712402	pulse	0	t		4.0	2.5	/experiments/AOT/AOT_stimuli/rescaled_final/1717_fw.mp4	0.0	83.78208303451538	
6	63.30797982215881	movie	1		244	4.0	2.5	/experiments/AOT/AOT_stimuli/rescaled_final/1717_fw.mp4	0.0	83.79022192955017	2.5082781314849854
6	64.89986395835876	pulse	1	t		4.0	2.5	/experiments/AOT/AOT_stimuli/rescaled_final/1717_fw.mp4	0.0	85.38210606575012	
6	65.8162579536438	fix_post	2		12	4.0	2.5	/experiments/AOT/AOT_stimuli/rescaled_final/1717_fw.mp4	0.0	86.29850006103516	0.09998202323913574
7	65.91623997688293	fix_pre	0		120	5.0	2.5	/experiments/AOT/AOT_stimuli/rescaled_final/0282_fw.mp4	0.0	86.39848208427429	1.0
7	66.49976181983948	pulse	0	t		5.0	2.5	/experiments/AOT/AOT_stimuli/rescaled_final/0282_fw.mp4	0.0	86.98200392723083	
7	66.91623997688293	movie	1		244	5.0	2.5	/experiments/AOT/AOT_stimuli/rescaled_final/0282_fw.mp4	0.0	87.39848208427429	2.4999518394470215
7	68.09981489181519	pulse	1	t		5.0	2.5	/experiments/AOT/AOT_stimuli/rescaled_final/0282_fw.mp4	0.0	88.58205699920654	
7	69.41619181632996	fix_post	2		12	5.0	2.5	/experiments/AOT/AOT_stimuli/rescaled_final/0282_fw.mp4	0.0	89.89843392372131	0.10010600090026855
8	69.51629781723022	fix_pre	0		120	6.0	2.5	/experiments/AOT/AOT_stimuli/rescaled_final/1618_fw.mp4	0.0	89.99853992462158	0.999967098236084
8	69.69975900650024	pulse	0	t		6.0	2.5	/experiments/AOT/AOT_stimuli/rescaled_final/1618_fw.mp4	0.0	90.1820011138916	
8	70.51626491546631	movie	1		247	6.0	2.5	/experiments/AOT/AOT_stimuli/rescaled_final/1618_fw.mp4	0.0	90.99850702285767	2.500027894973755
8	71.29973697662354	pulse	1	t		6.0	2.5	/experiments/AOT/AOT_stimuli/rescaled_final/1618_fw.mp4	0.0	91.78197908401489	
8	72.90018892288208	pulse	1	t		6.0	2.5	/experiments/AOT/AOT_stimuli/rescaled_final/1618_fw.mp4	0.0	93.38243103027344	
8	73.01629281044006	fix_post	2		12	6.0	2.5	/experiments/AOT/AOT_stimuli/rescaled_final/1618_fw.mp4	0.0	93.49853491783142	0.10002899169921875
9	73.11632180213928	fix_pre	0		120	7.0	2.5	blank	1.0	93.59856390953064	0.9999661445617676
9	74.11628794670105	movie	1		300	7.0	2.5	blank	1.0	94.59853005409241	2.4999430179595947
9	74.49967288970947	pulse	1	t		7.0	2.5	blank	1.0	94.98191499710083	
9	76.09967279434204	pulse	1	t		7.0	2.5	blank	1.0	96.5819149017334	
9	76.61623096466064	fix_post	2		12	7.0	2.5	blank	1.0	97.098473072052	0.09999990463256836
10	76.71623086929321	fix_pre	0		119	8.0	2.5	/experiments/AOT/AOT_stimuli/rescaled_final/1541_rv.mp4	0.0	97.19847297668457	0.9916069507598877
10	77.6995940208435	pulse	0	t		8.0	2.5	/experiments/AOT/AOT_stimuli/rescaled_final/1541_rv.mp4	0.0	98.18183612823486	
10	77.7078378200531	movie	1		245	8.0	2.5	/experiments/AOT/AOT_stimuli/rescaled_final/1541_rv.mp4	0.0	98.19007992744446	2.508350133895874
10	79.29928994178772	pulse	1	t		8.0	2.5	/experiments/AOT/AOT_stimuli/rescaled_final/1541_rv.mp4	0.0	99.78153204917908	
10	80.21618795394897	fix_post	2		11	8.0	2.5	/experiments/AOT/AOT_stimuli/rescaled_final/1541_rv.mp4	0.0	100.69843006134033	0.10009288787841797
11	80.31628084182739	fix_pre	0		120	9.0	2.5	/experiments/AOT/AOT_stimuli/rescaled_final/1471_rv.mp4	0.0	100.79852294921875	0.9999351501464844
11	80.89966487884521	pulse	0	t		9.0	2.5	/experiments/AOT/AOT_stimuli/rescaled_final/1471_rv.mp4	0.0	101.38190698623657	
11	81.31621599197388	movie	1		243	9.0	2.5	/experiments/AOT/AOT_stimuli/rescaled_final/1471_rv.mp4	0.0	101.79845809936523	2.500027894973755
11	82.49965691566467	pulse	1	t		9.0	2.5	/experiments/AOT/AOT_stimuli/rescaled_final/1471_rv.mp4	0.0	102.98189902305603	
11	83.81624388694763	fix_post	2		12	9.0	2.5	/experiments/AOT/AOT_stimuli/rescaled_final/1471_rv.mp4	0.0	104.29848599433899	0.09991908073425293
12	83.91616296768188	fix_pre	0		120	10.0	2.5	/experiments/AOT/AOT_stimuli/rescaled_final/1471_fw.mp4	0.0	104.39840507507324	1.0000100135803223
12	84.09982895851135	pulse	0	t		10.0	2.5	/experiments/AOT/AOT_stimuli/rescaled_final/1471_fw.mp4	0.0	104.58207106590271	
12	84.9161729812622	movie	1		243	10.0	2.5	/experiments/AOT/AOT_stimuli/rescaled_final/1471_fw.mp4	0.0	105.39841508865356	2.4999449253082275
12	85.6996579170227	pulse	1	t		10.0	2.5	/experiments/AOT/AOT_stimuli/rescaled_final/1471_fw.mp4	0.0	106.18190002441406	
12	87.2978949546814	pulse	1	t		10.0	2.5	/experiments/AOT/AOT_stimuli/rescaled_final/1471_fw.mp4	0.0	107.78013706207275	
12	87.41611790657043	fix_post	2		12	10.0	2.5	/experiments/AOT/AOT_stimuli/rescaled_final/1471_fw.mp4	0.0	107.89836001396179	0.10003304481506348
13	87.5161509513855	fix_pre	0		120	11.0	2.5	/experiments/AOT/AOT_stimuli/rescaled_final/0727_rv.mp4	0.0	107.99839305877686	0.999953031539917
13	88.51610398292542	movie	1		246	11.0	2.5	/experiments/AOT/AOT_stimuli/rescaled_final/0727_rv.mp4	0.0	108.99834609031677	2.5000219345092773
13	88.8991949558258	pulse	1	t		11.0	2.5	/experiments/AOT/AOT_stimuli/rescaled_final/0727_rv.mp4	0.0	109.38143706321716	
13	90.49964594841003	pulse	1	t		11.0	2.5	/experiments/AOT/AOT_stimuli/rescaled_final/0727_rv.mp4	0.0	110.98188805580139	
13	91.01612591743469	fix_post	2		12	11.0	2.5	/experiments/AOT/AOT_stimuli/rescaled_final/0727_rv.mp4	0.0	111.49836802482605	0.09994196891784668
14	91.11606788635254	fix_pre	0		119	12.0	2.5	blank	1.0	111.5983099937439	0.9917011260986328
14	92.09956383705139	pulse	0	t		12.0	2.5	blank	1.0	112.58180594444275	
14	92.10776901245117	movie	1		301	12.0	2.5	blank	1.0	112.59001111984253	2.50836181640625
14	93.69959092140198	pulse	1	t		12.0	2.5	blank	1.0	114.18183302879333	
14	94.61613082885742	fix_post	2		12	12.0	2.5	blank	1.0	115.09837293624878	0.1000361442565918
15	94.71616697311401	fix_pre	0		120	13.0	2.5	/experiments/AOT/AOT_stimuli/rescaled_final/0184_fw.mp4	0.0	115.19840908050537	0.9996609687805176
15	95.29928398132324	pulse	0	t		13.0	2.5	/experiments/AOT/AOT_stimuli/rescaled_final/0184_fw.mp4	0.0	115.7815260887146	
15	95.71582794189453	movie	1		244	13.0	2.5	/experiments/AOT/AOT_stimuli/rescaled_final/0184_fw.mp4	0.0	116.19807004928589	2.500278949737549
15	96.89992094039917	pulse	1	t		13.0	2.5	/experiments/AOT/AOT_stimuli/rescaled_final/0184_fw.mp4	0.0	117.38216304779053	
15	98.21610689163208	fix_post	2		12	13.0	2.5	/experiments/AOT/AOT_stimuli/rescaled_final/0184_fw.mp4	0.0	118.69834899902344	0.09998798370361328
16	98.3160948753357	fix_pre	0		120	14.0	2.5	/experiments/AOT/AOT_stimuli/rescaled_final/2168_rv.mp4	0.0	118.79833698272705	1.0000410079956055
16	98.49957299232483	pulse	0	t		14.0	2.5	/experiments/AOT/AOT_stimuli/rescaled_final/2168_rv.mp4	0.0	118.98181509971619	
16	99.3161358833313	movie	1		244	14.0	2.5	/experiments/AOT/AOT_stimuli/rescaled_final/2168_rv.mp4	0.0	119.79837799072266	2.499891996383667
16	100.09952187538147	pulse	1	t		14.0	2.5	/experiments/AOT/AOT_stimuli/rescaled_final/2168_rv.mp4	0.0	120.58176398277283	
16	101.69829988479614	pulse	1	t		14.0	2.5	/experiments/AOT/AOT_stimuli/rescaled_final/2168_rv.mp4	0.0	122.1805419921875	
16	101.81602787971497	fix_post	2		12	14.0	2.5	/experiments/AOT/AOT_stimuli/rescaled_final/2168_rv.mp4	0.0	122.29826998710632	0.10000395774841309
17	101.91603183746338	fix_pre	0		120	15.0	2.5	/experiments/AOT/AOT_stimuli/rescaled_final/0992_fw.mp4	0.0	122.39827394485474	1.0000081062316895
17	102.91603994369507	movie	1		243	15.0	2.5	/experiments/AOT/AOT_stimuli/rescaled_final/0992_fw.mp4	0.0	123.39828205108643	2.5000128746032715
17	103.29895687103271	pulse	1	t		15.0	2.5	/experiments/AOT/AOT_stimuli/rescaled_final/0992_fw.mp4	0.0	123.78119897842407	
17	104.8994870185852	pulse	1	t		15.0	2.5	/experiments/AOT/AOT_stimuli/rescaled_final/0992_fw.mp4	0.0	125.38172912597656	
17	105.41605281829834	fix_post	2		12	15.0	2.5	/experiments/AOT/AOT_stimuli/rescaled_final/0992_fw.mp4	0.0	125.8982949256897	0.09994912147521973
18	105.51600193977356	fix_pre	0		119	16.0	2.5	/experiments/AOT/AOT_stimuli/rescaled_final/1160_rv.mp4	0.0	125.99824404716492	0.9916648864746094
18	106.49947381019592	pulse	0	t		16.0	2.5	/experiments/AOT/AOT_stimuli/rescaled_final/1160_rv.mp4	0.0	126.98171591758728	
18	106.50766682624817	movie	1		245	16.0	2.5	/experiments/AOT/AOT_stimuli/rescaled_final/1160_rv.mp4	0.0	126.98990893363953	2.508352041244507
18	108.10067796707153	pulse	1	t		16.0	2.5	/experiments/AOT/AOT_stimuli/rescaled_final/1160_rv.mp4	0.0	128.5829200744629	
18	109.01601886749268	fix_post	2		12	16.0	2.5	/experiments/AOT/AOT_stimuli/rescaled_final/1160_rv.mp4	0.0	129.49826097488403	0.10003995895385742
19	109.11605882644653	fix_pre	0		120	17.0	2.5	/experiments/AOT/AOT_stimuli/rescaled_final/0346_fw.mp4	0.0	129.5983009338379	0.9999651908874512
19	109.6995279788971	pulse	0	t		17.0	2.5	/experiments/AOT/AOT_stimuli/rescaled_final/0346_fw.mp4	0.0	130.18177008628845	
19	110.11602401733398	movie	1		243	17.0	2.5	/experiments/AOT/AOT_stimuli/rescaled_final/0346_fw.mp4	0.0	130.59826612472534	2.5000078678131104
19	111.29953980445862	pulse	1	t		17.0	2.5	/experiments/AOT/AOT_stimuli/rescaled_final/0346_fw.mp4	0.0	131.78178191184998	
19	112.6160318851471	fix_post	2		12	17.0	2.5	/experiments/AOT/AOT_stimuli/rescaled_final/0346_fw.mp4	0.0	133.09827399253845	0.09999799728393555
20	112.71602988243103	fix_pre	0		120	18.0	2.5	/experiments/AOT/AOT_stimuli/rescaled_final/2168_fw.mp4	0.0	133.1982719898224	0.9999380111694336
20	112.89945697784424	pulse	0	t		18.0	2.5	/experiments/AOT/AOT_stimuli/rescaled_final/2168_fw.mp4	0.0	133.3816990852356	
20	113.71596789360046	movie	1		245	18.0	2.5	/experiments/AOT/AOT_stimuli/rescaled_final/2168_fw.mp4	0.0	134.19821000099182	2.500067949295044
20	114.4997079372406	pulse	1	t		18.0	2.5	/experiments/AOT/AOT_stimuli/rescaled_final/2168_fw.mp4	0.0	134.98195004463196	
20	116.09896397590637	pulse	1	t		18.0	2.5	/experiments/AOT/AOT_stimuli/rescaled_final/2168_fw.mp4	0.0	136.58120608329773	
20	116.21603584289551	fix_post	2		12	18.0	2.5	/experiments/AOT/AOT_stimuli/rescaled_final/2168_fw.mp4	0.0	136.69827795028687	0.09987401962280273
21	116.31590986251831	fix_pre	0		120	19.0	2.5	/experiments/AOT/AOT_stimuli/rescaled_final/0115_fw.mp4	0.0	136.79815196990967	1.0001211166381836
21	117.3160309791565	movie	1		245	19.0	2.5	/experiments/AOT/AOT_stimuli/rescaled_final/0115_fw.mp4	0.0	137.79827308654785	2.4999468326568604
21	117.69930100440979	pulse	1	t		19.0	2.5	/experiments/AOT/AOT_stimuli/rescaled_final/0115_fw.mp4	0.0	138.18154311180115	
21	119.29948401451111	pulse	1	t		19.0	2.5	/experiments/AOT/AOT_stimuli/rescaled_final/0115_fw.mp4	0.0	139.78172612190247	
21	119.81597781181335	fix_post	2		12	19.0	2.5	/experiments/AOT/AOT_stimuli/rescaled_final/0115_fw.mp4	0.0	140.2982199192047	0.09995412826538086
22	119.91593194007874	fix_pre	0		119	20.0	2.5	blank	1.0	140.3981740474701	0.9917750358581543
22	120.89950895309448	pulse	0	t		20.0	2.5	blank	1.0	141.38175106048584	
22	120.90770697593689	movie	1		301	20.0	2.5	blank	1.0	141.38994908332825	2.5082409381866455
22	122.49950981140137	pulse	1	t		20.0	2.5	blank	1.0	142.98175191879272	
22	123.41594791412354	fix_post	2		12	20.0	2.5	blank	1.0	143.8981900215149	0.10000896453857422
23	123.51595687866211	fix_pre	0		120	21.0	2.5	/experiments/AOT/AOT_stimuli/rescaled_final/0160_rv.mp4	0.0	143.99819898605347	1.0000340938568115
23	124.09952282905579	pulse	0	t		21.0	2.5	/experiments/AOT/AOT_stimuli/rescaled_final/0160_rv.mp4	0.0	144.58176493644714	
23	124.51599097251892	movie	1		242	21.0	2.5	/experiments/AOT/AOT_stimuli/rescaled_final/0160_rv.mp4	0.0	144.99823307991028	2.4999659061431885
23	125.69948196411133	pulse	1	t		21.0	2.5	/experiments/AOT/AOT_stimuli/rescaled_final/0160_rv.mp4	0.0	146.18172407150269	
23	127.01595687866211	fix_post	2		12	21.0	2.5	/experiments/AOT/AOT_stimuli/rescaled_final/0160_rv.mp4	0.0	147.49819898605347	0.09995698928833008
24	127.11591386795044	fix_pre	0		120	22.0	2.5	/experiments/AOT/AOT_stimuli/rescaled_final/1717_fw.mp4	0.0	147.5981559753418	1.0001659393310547
24	127.29938983917236	pulse	0	t		22.0	2.5	/experiments/AOT/AOT_stimuli/rescaled_final/1717_fw.mp4	0.0	147.78163194656372	
24	128.1160798072815	movie	1		244	22.0	2.5	/experiments/AOT/AOT_stimuli/rescaled_final/1717_fw.mp4	0.0	148.59832191467285	2.4998891353607178
24	128.89940881729126	pulse	1	t		22.0	2.5	/experiments/AOT/AOT_stimuli/rescaled_final/1717_fw.mp4	0.0	149.38165092468262	
24	130.4980947971344	pulse	1	t		22.0	2.5	/experiments/AOT/AOT_stimuli/rescaled_final/1717_fw.mp4	0.0	150.98033690452576	
24	130.6159689426422	fix_post	2		12	22.0	2.5	/experiments/AOT/AOT_stimuli/rescaled_final/1717_fw.mp4	0.0	151.09821105003357	0.10001993179321289
25	130.71598887443542	fix_pre	0		120	23.0	2.5	/experiments/AOT/AOT_stimuli/rescaled_final/0214_rv.mp4	0.0	151.19823098182678	1.0
25	131.71598887443542	movie	1		245	23.0	2.5	/experiments/AOT/AOT_stimuli/rescaled_final/0214_rv.mp4	0.0	152.19823098182678	2.4999401569366455
25	132.10057401657104	pulse	1	t		23.0	2.5	/experiments/AOT/AOT_stimuli/rescaled_final/0214_rv.mp4	0.0	152.5828161239624	
25	133.69941902160645	pulse	1	t		23.0	2.5	/experiments/AOT/AOT_stimuli/rescaled_final/0214_rv.mp4	0.0	154.1816611289978	
25	134.21592903137207	fix_post	2		12	23.0	2.5	/experiments/AOT/AOT_stimuli/rescaled_final/0214_rv.mp4	0.0	154.69817113876343	0.09999394416809082
26	134.31592297554016	fix_pre	0		119	24.0	2.5	/experiments/AOT/AOT_stimuli/rescaled_final/0992_fw.mp4	0.0	154.79816508293152	0.9916360378265381
26	135.29943180084229	pulse	0	t		24.0	2.5	/experiments/AOT/AOT_stimuli/rescaled_final/0992_fw.mp4	0.0	155.78167390823364	
26	135.3075590133667	movie	1		247	24.0	2.5	/experiments/AOT/AOT_stimuli/rescaled_final/0992_fw.mp4	0.0	155.78980112075806	2.5083367824554443
26	136.8989109992981	pulse	1	t		24.0	2.5	/experiments/AOT/AOT_stimuli/rescaled_final/0992_fw.mp4	0.0	157.38115310668945	
26	137.81589579582214	fix_post	2		12	24.0	2.5	/experiments/AOT/AOT_stimuli/rescaled_final/0992_fw.mp4	0.0	158.2981379032135	0.09998822212219238
27	137.91588401794434	fix_pre	0		120	25.0	2.5	/experiments/AOT/AOT_stimuli/rescaled_final/1962_rv.mp4	0.0	158.3981261253357	1.0000648498535156
27	138.49939680099487	pulse	0	t		25.0	2.5	/experiments/AOT/AOT_stimuli/rescaled_final/1962_rv.mp4	0.0	158.98163890838623	
27	138.91594886779785	movie	1		246	25.0	2.5	/experiments/AOT/AOT_stimuli/rescaled_final/1962_rv.mp4	0.0	159.3981909751892	2.499912977218628
27	140.0994849205017	pulse	1	t		25.0	2.5	/experiments/AOT/AOT_stimuli/rescaled_final/1962_rv.mp4	0.0	160.58172702789307	
27	141.41586184501648	fix_post	2		12	25.0	2.5	/experiments/AOT/AOT_stimuli/rescaled_final/1962_rv.mp4	0.0	161.89810395240784	0.10002899169921875
28	141.5158908367157	fix_pre	0		120	26.0	2.5	/experiments/AOT/AOT_stimuli/rescaled_final/1922_rv.mp4	0.0	161.99813294410706	1.0000660419464111
28	141.69939184188843	pulse	0	t		26.0	2.5	/experiments/AOT/AOT_stimuli/rescaled_final/1922_rv.mp4	0.0	162.18163394927979	
28	142.5159568786621	movie	1		243	26.0	2.5	/experiments/AOT/AOT_stimuli/rescaled_final/1922_rv.mp4	0.0	162.99819898605347	2.5000410079956055
28	143.29938793182373	pulse	1	t		26.0	2.5	/experiments/AOT/AOT_stimuli/rescaled_final/1922_rv.mp4	0.0	163.7816300392151	
28	144.90776801109314	pulse	1	t		26.0	2.5	/experiments/AOT/AOT_stimuli/rescaled_final/1922_rv.mp4	0.0	165.3900101184845	
28	145.01599788665771	fix_post	2		12	26.0	2.5	/experiments/AOT/AOT_stimuli/rescaled_final/1922_rv.mp4	0.0	165.49823999404907	0.09985113143920898
29	145.11584901809692	fix_pre	0		120	27.0	2.5	blank	1.0	165.59809112548828	0.999957799911499
29	146.11580681800842	movie	1		300	27.0	2.5	blank	1.0	166.59804892539978	2.5001001358032227
29	146.499351978302	pulse	1	t		27.0	2.5	blank	1.0	166.98159408569336	
29	148.09931588172913	pulse	1	t		27.0	2.5	blank	1.0	168.58155798912048	
29	148.61590695381165	fix_post	2		12	27.0	2.5	blank	1.0	169.098149061203	0.09996795654296875
30	148.71587491035461	fix_pre	0		119	28.0	2.5	/experiments/AOT/AOT_stimuli/rescaled_final/1037_fw.mp4	0.0	169.19811701774597	0.9916110038757324
30	149.6993269920349	pulse	0	t		28.0	2.5	/experiments/AOT/AOT_stimuli/rescaled_final/1037_fw.mp4	0.0	170.18156909942627	
30	149.70748591423035	movie	1		244	28.0	2.5	/experiments/AOT/AOT_stimuli/rescaled_final/1037_fw.mp4	0.0	170.1897280216217	2.508208990097046
30	151.3000888824463	pulse	1	t		28.0	2.5	/experiments/AOT/AOT_stimuli/rescaled_final/1037_fw.mp4	0.0	171.78233098983765	
30	152.2156949043274	fix_post	2		12	28.0	2.5	/experiments/AOT/AOT_stimuli/rescaled_final/1037_fw.mp4	0.0	172.69793701171875	0.10003805160522461
31	152.31573295593262	fix_pre	0		120	29.0	2.5	/experiments/AOT/AOT_stimuli/rescaled_final/2087_rv.mp4	0.0	172.79797506332397	1.0001609325408936
31	152.8993308544159	pulse	0	t		29.0	2.5	/experiments/AOT/AOT_stimuli/rescaled_final/2087_rv.mp4	0.0	173.38157296180725	
31	153.3158938884735	movie	1		243	29.0	2.5	/experiments/AOT/AOT_stimuli/rescaled_final/2087_rv.mp4	0.0	173.79813599586487	2.4999470710754395
31	154.49939393997192	pulse	1	t		29.0	2.5	/experiments/AOT/AOT_stimuli/rescaled_final/2087_rv.mp4	0.0	174.98163604736328	
31	155.81584095954895	fix_post	2		12	29.0	2.5	/experiments/AOT/AOT_stimuli/rescaled_final/2087_rv.mp4	0.0	176.2980830669403	0.10006189346313477
32	155.91590285301208	fix_pre	0		120	30.0	2.5	/experiments/AOT/AOT_stimuli/rescaled_final/1042_rv.mp4	0.0	176.39814496040344	0.9999799728393555
32	156.0993628501892	pulse	0	t		30.0	2.5	/experiments/AOT/AOT_stimuli/rescaled_final/1042_rv.mp4	0.0	176.58160495758057	
32	156.91588282585144	movie	1		245	30.0	2.5	/experiments/AOT/AOT_stimuli/rescaled_final/1042_rv.mp4	0.0	177.3981249332428	2.500012159347534
32	157.6992588043213	pulse	1	t		30.0	2.5	/experiments/AOT/AOT_stimuli/rescaled_final/1042_rv.mp4	0.0	178.18150091171265	
32	159.3077049255371	pulse	1	t		30.0	2.5	/experiments/AOT/AOT_stimuli/rescaled_final/1042_rv.mp4	0.0	179.78994703292847	
32	159.41589498519897	fix_post	2		12	30.0	2.5	/experiments/AOT/AOT_stimuli/rescaled_final/1042_rv.mp4	0.0	179.89813709259033	0.0999150276184082
33	159.51581001281738	fix_pre	0		120	31.0	2.5	/experiments/AOT/AOT_stimuli/rescaled_final/0849_fw.mp4	0.0	179.99805212020874	0.9999749660491943
33	160.51578497886658	movie	1		246	31.0	2.5	/experiments/AOT/AOT_stimuli/rescaled_final/0849_fw.mp4	0.0	180.99802708625793	2.5001089572906494
33	160.89894580841064	pulse	1	t		31.0	2.5	/experiments/AOT/AOT_stimuli/rescaled_final/0849_fw.mp4	0.0	181.381187915802	
33	162.49923992156982	pulse	1	t		31.0	2.5	/experiments/AOT/AOT_stimuli/rescaled_final/0849_fw.mp4	0.0	182.98148202896118	
33	163.01589393615723	fix_post	2		12	31.0	2.5	/experiments/AOT/AOT_stimuli/rescaled_final/0849_fw.mp4	0.0	183.49813604354858	0.09985589981079102
34	163.11574983596802	fix_pre	0		119	32.0	2.5	/experiments/AOT/AOT_stimuli/rescaled_final/1739_fw.mp4	0.0	183.59799194335938	0.9916801452636719
34	164.09925985336304	pulse	0	t		32.0	2.5	/experiments/AOT/AOT_stimuli/rescaled_final/1739_fw.mp4	0.0	184.5815019607544	
34	164.1074299812317	movie	1		246	32.0	2.5	/experiments/AOT/AOT_stimuli/rescaled_final/1739_fw.mp4	0.0	184.58967208862305	2.5083608627319336
34	165.698832988739	pulse	1	t		32.0	2.5	/experiments/AOT/AOT_stimuli/rescaled_final/1739_fw.mp4	0.0	186.18107509613037	
34	166.61579084396362	fix_post	2		12	32.0	2.5	/experiments/AOT/AOT_stimuli/rescaled_final/1739_fw.mp4	0.0	187.09803295135498	0.09998011589050293
35	166.71577095985413	fix_pre	0		120	33.0	2.5	/experiments/AOT/AOT_stimuli/rescaled_final/1618_rv.mp4	0.0	187.19801306724548	0.9999918937683105
35	167.29928302764893	pulse	0	t		33.0	2.5	/experiments/AOT/AOT_stimuli/rescaled_final/1618_rv.mp4	0.0	187.78152513504028	
35	167.71576285362244	movie	1		247	33.0	2.5	/experiments/AOT/AOT_stimuli/rescaled_final/1618_rv.mp4	0.0	188.1980049610138	2.500030994415283
35	168.89948201179504	pulse	1	t		33.0	2.5	/experiments/AOT/AOT_stimuli/rescaled_final/1618_rv.mp4	0.0	189.3817241191864	
35	170.21579384803772	fix_post	2		12	33.0	2.5	/experiments/AOT/AOT_stimuli/rescaled_final/1618_rv.mp4	0.0	190.69803595542908	0.09992694854736328
36	170.31572079658508	fix_pre	0		120	34.0	2.5	/experiments/AOT/AOT_stimuli/rescaled_final/1219_rv.mp4	0.0	190.79796290397644	1.0001020431518555
36	170.49928784370422	pulse	0	t		34.0	2.5	/experiments/AOT/AOT_stimuli/rescaled_final/1219_rv.mp4	0.0	190.98152995109558	
36	171.31582283973694	movie	1		245	34.0	2.5	/experiments/AOT/AOT_stimuli/rescaled_final/1219_rv.mp4	0.0	191.7980649471283	2.4998910427093506
36	172.09923601150513	pulse	1	t		34.0	2.5	/experiments/AOT/AOT_stimuli/rescaled_final/1219_rv.mp4	0.0	192.58147811889648	
36	173.6979308128357	pulse	1	t		34.0	2.5	/experiments/AOT/AOT_stimuli/rescaled_final/1219_rv.mp4	0.0	194.18017292022705	
36	173.8157138824463	fix_post	2		12	34.0	2.5	/experiments/AOT/AOT_stimuli/rescaled_final/1219_rv.mp4	0.0	194.29795598983765	0.0999910831451416
37	173.91570496559143	fix_pre	0		120	35.0	2.5	blank	1.0	194.3979470729828	1.0000319480895996
37	174.91573691368103	movie	1		300	35.0	2.5	blank	1.0	195.3979790210724	2.5000290870666504
37	175.29919695854187	pulse	1	t		35.0	2.5	blank	1.0	195.78143906593323	
37	176.89914202690125	pulse	1	t		35.0	2.5	blank	1.0	197.3813841342926	
37	177.41576600074768	fix_post	2		12	35.0	2.5	blank	1.0	197.89800810813904	0.09995293617248535
38	177.51571893692017	fix_pre	0		119	36.0	2.5	/experiments/AOT/AOT_stimuli/rescaled_final/2026_fw.mp4	0.0	197.99796104431152	0.9916849136352539
38	178.49913692474365	pulse	0	t		36.0	2.5	/experiments/AOT/AOT_stimuli/rescaled_final/2026_fw.mp4	0.0	198.981379032135	
38	178.50740385055542	movie	1		246	36.0	2.5	/experiments/AOT/AOT_stimuli/rescaled_final/2026_fw.mp4	0.0	198.98964595794678	2.508296012878418
38	180.09905099868774	pulse	1	t		36.0	2.5	/experiments/AOT/AOT_stimuli/rescaled_final/2026_fw.mp4	0.0	200.5812931060791	
38	181.01569986343384	fix_post	2		12	36.0	2.5	/experiments/AOT/AOT_stimuli/rescaled_final/2026_fw.mp4	0.0	201.4979419708252	0.1000521183013916
39	181.11575198173523	fix_pre	0		120	37.0	2.5	/experiments/AOT/AOT_stimuli/rescaled_final/2078_fw.mp4	0.0	201.5979940891266	0.9999170303344727
39	181.69918084144592	pulse	0	t		37.0	2.5	/experiments/AOT/AOT_stimuli/rescaled_final/2078_fw.mp4	0.0	202.18142294883728	
39	182.1156690120697	movie	1		245	37.0	2.5	/experiments/AOT/AOT_stimuli/rescaled_final/2078_fw.mp4	0.0	202.59791111946106	2.5000429153442383
39	183.299302816391	pulse	1	t		37.0	2.5	/experiments/AOT/AOT_stimuli/rescaled_final/2078_fw.mp4	0.0	203.78154492378235	
39	184.61571192741394	fix_post	2		12	37.0	2.5	/experiments/AOT/AOT_stimuli/rescaled_final/2078_fw.mp4	0.0	205.0979540348053	0.09994697570800781
40	184.71565890312195	fix_pre	0		120	38.0	2.5	/experiments/AOT/AOT_stimuli/rescaled_final/0460_fw.mp4	0.0	205.1979010105133	0.9999849796295166
40	184.89909100532532	pulse	0	t		38.0	2.5	/experiments/AOT/AOT_stimuli/rescaled_final/0460_fw.mp4	0.0	205.38133311271667	
40	185.71564388275146	movie	1		245	38.0	2.5	/experiments/AOT/AOT_stimuli/rescaled_final/0460_fw.mp4	0.0	206.19788599014282	2.5000479221343994
40	186.49910593032837	pulse	1	t		38.0	2.5	/experiments/AOT/AOT_stimuli/rescaled_final/0460_fw.mp4	0.0	206.98134803771973	
40	188.09924387931824	pulse	1	t		38.0	2.5	/experiments/AOT/AOT_stimuli/rescaled_final/0460_fw.mp4	0.0	208.5814859867096	
40	188.21569180488586	fix_post	2		12	38.0	2.5	/experiments/AOT/AOT_stimuli/rescaled_final/0460_fw.mp4	0.0	208.69793391227722	0.10000920295715332
41	188.31570100784302	fix_pre	0		120	39.0	2.5	/experiments/AOT/AOT_stimuli/rescaled_final/2086_rv.mp4	0.0	208.79794311523438	1.0000288486480713
41	189.3157298564911	movie	1		245	39.0	2.5	/experiments/AOT/AOT_stimuli/rescaled_final/2086_rv.mp4	0.0	209.79797196388245	2.4999940395355225
41	189.6987600326538	pulse	1	t		39.0	2.5	/experiments/AOT/AOT_stimuli/rescaled_final/2086_rv.mp4	0.0	210.18100214004517	
41	191.2991499900818	pulse	1	t		39.0	2.5	/experiments/AOT/AOT_stimuli/rescaled_final/2086_rv.mp4	0.0	211.78139209747314	
41	191.8157238960266	fix_post	2		12	39.0	2.5	/experiments/AOT/AOT_stimuli/rescaled_final/2086_rv.mp4	0.0	212.29796600341797	0.09998798370361328
42	191.91571187973022	fix_pre	0		119	40.0	2.5	/experiments/AOT/AOT_stimuli/rescaled_final/0452_rv.mp4	0.0	212.39795398712158	0.9916069507598877
42	192.89916896820068	pulse	0	t		40.0	2.5	/experiments/AOT/AOT_stimuli/rescaled_final/0452_rv.mp4	0.0	213.38141107559204	
42	192.9073188304901	movie	1		245	40.0	2.5	/experiments/AOT/AOT_stimuli/rescaled_final/0452_rv.mp4	0.0	213.38956093788147	2.5083789825439453
42	194.4987349510193	pulse	1	t		40.0	2.5	/experiments/AOT/AOT_stimuli/rescaled_final/0452_rv.mp4	0.0	214.98097705841064	
42	195.41569781303406	fix_post	2		12	40.0	2.5	/experiments/AOT/AOT_stimuli/rescaled_final/0452_rv.mp4	0.0	215.89793992042542	0.09993219375610352
43	195.51563000679016	fix_pre	0		120	41.0	2.5	blank	1.0	215.99787211418152	1.0000488758087158
43	196.09914088249207	pulse	0	t		41.0	2.5	blank	1.0	216.58138298988342	
43	196.51567888259888	movie	1		300	41.0	2.5	blank	1.0	216.99792098999023	2.499917984008789
43	197.69906401634216	pulse	1	t		41.0	2.5	blank	1.0	218.18130612373352	
43	199.01559686660767	fix_post	2		12	41.0	2.5	blank	1.0	219.49783897399902	0.10007095336914062
44	199.1156678199768	fix_pre	0		120	42.0	2.5	/experiments/AOT/AOT_stimuli/rescaled_final/1806_rv.mp4	0.0	219.59790992736816	0.9999480247497559
44	199.2990608215332	pulse	0	t		42.0	2.5	/experiments/AOT/AOT_stimuli/rescaled_final/1806_rv.mp4	0.0	219.78130292892456	
44	200.11561584472656	movie	1		243	42.0	2.5	/experiments/AOT/AOT_stimuli/rescaled_final/1806_rv.mp4	0.0	220.59785795211792	2.5000360012054443
44	200.8991038799286	pulse	1	t		42.0	2.5	/experiments/AOT/AOT_stimuli/rescaled_final/1806_rv.mp4	0.0	221.38134598731995	
44	202.49780702590942	pulse	1	t		42.0	2.5	/experiments/AOT/AOT_stimuli/rescaled_final/1806_rv.mp4	0.0	222.98004913330078	
44	202.615651845932	fix_post	2		12	42.0	2.5	/experiments/AOT/AOT_stimuli/rescaled_final/1806_rv.mp4	0.0	223.09789395332336	0.09993600845336914
45	202.71558785438538	fix_pre	0		120	43.0	2.5	/experiments/AOT/AOT_stimuli/rescaled_final/0596_fw.mp4	0.0	223.19782996177673	1.0000660419464111
45	203.7156538963318	movie	1		246	43.0	2.5	/experiments/AOT/AOT_stimuli/rescaled_final/0596_fw.mp4	0.0	224.19789600372314	2.499553918838501
45	204.09886384010315	pulse	1	t		43.0	2.5	/experiments/AOT/AOT_stimuli/rescaled_final/0596_fw.mp4	0.0	224.5811059474945	
45	205.699138879776	pulse	1	t		43.0	2.5	/experiments/AOT/AOT_stimuli/rescaled_final/0596_fw.mp4	0.0	226.18138098716736	
45	206.2152078151703	fix_post	2		12	43.0	2.5	/experiments/AOT/AOT_stimuli/rescaled_final/0596_fw.mp4	0.0	226.69744992256165	0.1000220775604248
46	206.3152298927307	fix_pre	0		119	44.0	2.5	/experiments/AOT/AOT_stimuli/rescaled_final/1505_fw.mp4	0.0	226.79747200012207	0.9921619892120361
46	207.29918599128723	pulse	0	t		44.0	2.5	/experiments/AOT/AOT_stimuli/rescaled_final/1505_fw.mp4	0.0	227.7814280986786	
46	207.30739188194275	movie	1		246	44.0	2.5	/experiments/AOT/AOT_stimuli/rescaled_final/1505_fw.mp4	0.0	227.7896339893341	2.508212089538574
46	208.89878702163696	pulse	1	t		44.0	2.5	/experiments/AOT/AOT_stimuli/rescaled_final/1505_fw.mp4	0.0	229.38102912902832	
46	209.81560397148132	fix_post	2		12	44.0	2.5	/experiments/AOT/AOT_stimuli/rescaled_final/1505_fw.mp4	0.0	230.29784607887268	0.10000300407409668
47	209.91560697555542	fix_pre	0		120	45.0	2.5	/experiments/AOT/AOT_stimuli/rescaled_final/0238_fw.mp4	0.0	230.39784908294678	0.9999990463256836
47	210.49920201301575	pulse	0	t		45.0	2.5	/experiments/AOT/AOT_stimuli/rescaled_final/0238_fw.mp4	0.0	230.9814441204071	
47	210.9156060218811	movie	1		245	45.0	2.5	/experiments/AOT/AOT_stimuli/rescaled_final/0238_fw.mp4	0.0	231.39784812927246	2.499891996383667
47	212.0991358757019	pulse	1	t		45.0	2.5	/experiments/AOT/AOT_stimuli/rescaled_final/0238_fw.mp4	0.0	232.58137798309326	
47	213.41549801826477	fix_post	2		12	45.0	2.5	/experiments/AOT/AOT_stimuli/rescaled_final/0238_fw.mp4	0.0	233.89774012565613	0.10005784034729004
48	213.51555585861206	fix_pre	0		120	46.0	2.5	/experiments/AOT/AOT_stimuli/rescaled_final/0198_fw.mp4	0.0	233.99779796600342	0.9999711513519287
48	213.69906902313232	pulse	0	t		46.0	2.5	/experiments/AOT/AOT_stimuli/rescaled_final/0198_fw.mp4	0.0	234.18131113052368	
48	214.515527009964	movie	1		244	46.0	2.5	/experiments/AOT/AOT_stimuli/rescaled_final/0198_fw.mp4	0.0	234.99776911735535	2.4999969005584717
48	215.29891395568848	pulse	1	t		46.0	2.5	/experiments/AOT/AOT_stimuli/rescaled_final/0198_fw.mp4	0.0	235.78115606307983	
48	216.90734696388245	pulse	1	t		46.0	2.5	/experiments/AOT/AOT_stimuli/rescaled_final/0198_fw.mp4	0.0	237.3895890712738	
48	217.01552391052246	fix_post	2		12	46.0	2.5	/experiments/AOT/AOT_stimuli/rescaled_final/0198_fw.mp4	0.0	237.49776601791382	0.09999990463256836
49	217.11552381515503	fix_pre	0		120	47.0	2.5	/experiments/AOT/AOT_stimuli/rescaled_final/1068_rv.mp4	0.0	237.5977659225464	1.0000112056732178
49	218.11553502082825	movie	1		243	47.0	2.5	/experiments/AOT/AOT_stimuli/rescaled_final/1068_rv.mp4	0.0	238.5977771282196	2.4999918937683105
49	218.5001518726349	pulse	1	t		47.0	2.5	/experiments/AOT/AOT_stimuli/rescaled_final/1068_rv.mp4	0.0	238.98239398002625	
49	220.09893798828125	pulse	1	t		47.0	2.5	/experiments/AOT/AOT_stimuli/rescaled_final/1068_rv.mp4	0.0	240.5811800956726	
49	220.61552691459656	fix_post	2		12	47.0	2.5	/experiments/AOT/AOT_stimuli/rescaled_final/1068_rv.mp4	0.0	241.09776902198792	0.10000991821289062
50	220.71553683280945	fix_pre	0		119	48.0	2.5	blank	1.0	241.1977789402008	0.991569995880127
50	221.69895100593567	pulse	0	t		48.0	2.5	blank	1.0	242.18119311332703	
50	221.70710682868958	movie	1		301	48.0	2.5	blank	1.0	242.18934893608093	2.5084030628204346
50	223.298987865448	pulse	1	t		48.0	2.5	blank	1.0	243.78122997283936	
50	224.21550989151	fix_post	2		12	48.0	2.5	blank	1.0	244.69775199890137	0.09998703002929688
51	224.3154969215393	fix_pre	0		120	49.0	2.5	/experiments/AOT/AOT_stimuli/rescaled_final/0243_fw.mp4	0.0	244.79773902893066	1.000014066696167
51	224.8989338874817	pulse	0	t		49.0	2.5	/experiments/AOT/AOT_stimuli/rescaled_final/0243_fw.mp4	0.0	245.38117599487305	
51	225.31551098823547	movie	1		246	49.0	2.5	/experiments/AOT/AOT_stimuli/rescaled_final/0243_fw.mp4	0.0	245.79775309562683	2.499994993209839
51	226.49904489517212	pulse	1	t		49.0	2.5	/experiments/AOT/AOT_stimuli/rescaled_final/0243_fw.mp4	0.0	246.98128700256348	
51	227.8155059814453	fix_post	2		12	49.0	2.5	/experiments/AOT/AOT_stimuli/rescaled_final/0243_fw.mp4	0.0	248.29774808883667	0.10000896453857422
52	227.9155149459839	fix_pre	0		120	50.0	2.5	/experiments/AOT/AOT_stimuli/rescaled_final/2078_rv.mp4	0.0	248.39775705337524	0.999971866607666
52	228.09905695915222	pulse	0	t		50.0	2.5	/experiments/AOT/AOT_stimuli/rescaled_final/2078_rv.mp4	0.0	248.58129906654358	
52	228.91548681259155	movie	1		242	50.0	2.5	/experiments/AOT/AOT_stimuli/rescaled_final/2078_rv.mp4	0.0	249.3977289199829	2.4999730587005615
52	229.6988549232483	pulse	1	t		50.0	2.5	/experiments/AOT/AOT_stimuli/rescaled_final/2078_rv.mp4	0.0	250.18109703063965	
52	231.30725288391113	pulse	1	t		50.0	2.5	/experiments/AOT/AOT_stimuli/rescaled_final/2078_rv.mp4	0.0	251.7894949913025	
52	231.41545987129211	fix_post	2		12	50.0	2.5	/experiments/AOT/AOT_stimuli/rescaled_final/2078_rv.mp4	0.0	251.89770197868347	0.09991908073425293
53	231.51537895202637	fix_pre	0		120	51.0	2.5	/experiments/AOT/AOT_stimuli/rescaled_final/0888_rv.mp4	0.0	251.99762105941772	1.0000579357147217
53	232.5154368877411	movie	1		245	51.0	2.5	/experiments/AOT/AOT_stimuli/rescaled_final/0888_rv.mp4	0.0	252.99767899513245	2.4999990463256836
53	232.89842295646667	pulse	1	t		51.0	2.5	/experiments/AOT/AOT_stimuli/rescaled_final/0888_rv.mp4	0.0	253.38066506385803	
53	234.4989960193634	pulse	1	t		51.0	2.5	/experiments/AOT/AOT_stimuli/rescaled_final/0888_rv.mp4	0.0	254.98123812675476	
53	235.01543593406677	fix_post	2		12	51.0	2.5	/experiments/AOT/AOT_stimuli/rescaled_final/0888_rv.mp4	0.0	255.49767804145813	0.10000801086425781
54	235.11544394493103	fix_pre	0		119	52.0	2.5	/experiments/AOT/AOT_stimuli/rescaled_final/0460_rv.mp4	0.0	255.5976860523224	0.9916629791259766
54	236.09893488883972	pulse	0	t		52.0	2.5	/experiments/AOT/AOT_stimuli/rescaled_final/0460_rv.mp4	0.0	256.5811769962311	
54	236.107106924057	movie	1		243	52.0	2.5	/experiments/AOT/AOT_stimuli/rescaled_final/0460_rv.mp4	0.0	256.58934903144836	2.5082828998565674
54	237.69849395751953	pulse	1	t		52.0	2.5	/experiments/AOT/AOT_stimuli/rescaled_final/0460_rv.mp4	0.0	258.1807360649109	
54	238.61538982391357	fix_post	2		12	52.0	2.5	/experiments/AOT/AOT_stimuli/rescaled_final/0460_rv.mp4	0.0	259.09763193130493	0.10005903244018555
55	238.71544885635376	fix_pre	0		120	53.0	2.5	/experiments/AOT/AOT_stimuli/rescaled_final/1267_fw.mp4	0.0	259.1976909637451	0.9999029636383057
55	239.29891681671143	pulse	0	t		53.0	2.5	/experiments/AOT/AOT_stimuli/rescaled_final/1267_fw.mp4	0.0	259.7811589241028	
55	239.71535181999207	movie	1		245	53.0	2.5	/experiments/AOT/AOT_stimuli/rescaled_final/1267_fw.mp4	0.0	260.1975939273834	2.5000040531158447
55	240.89894890785217	pulse	1	t		53.0	2.5	/experiments/AOT/AOT_stimuli/rescaled_final/1267_fw.mp4	0.0	261.38119101524353	
55	242.2153558731079	fix_post	2		12	53.0	2.5	/experiments/AOT/AOT_stimuli/rescaled_final/1267_fw.mp4	0.0	262.69759798049927	0.10004115104675293
56	242.31539702415466	fix_pre	0		120	54.0	2.5	/experiments/AOT/AOT_stimuli/rescaled_final/1039_fw.mp4	0.0	262.797639131546	0.9999489784240723
56	242.4989368915558	pulse	0	t		54.0	2.5	/experiments/AOT/AOT_stimuli/rescaled_final/1039_fw.mp4	0.0	262.98117899894714	
56	243.31534600257874	movie	1		243	54.0	2.5	/experiments/AOT/AOT_stimuli/rescaled_final/1039_fw.mp4	0.0	263.7975881099701	2.4999589920043945
56	244.09889888763428	pulse	1	t		54.0	2.5	/experiments/AOT/AOT_stimuli/rescaled_final/1039_fw.mp4	0.0	264.58114099502563	
56	245.70726990699768	pulse	1	t		54.0	2.5	/experiments/AOT/AOT_stimuli/rescaled_final/1039_fw.mp4	0.0	266.18951201438904	
56	245.81530499458313	fix_post	2		12	54.0	2.5	/experiments/AOT/AOT_stimuli/rescaled_final/1039_fw.mp4	0.0	266.2975471019745	0.10001587867736816
57	245.9153208732605	fix_pre	0		120	55.0	2.5	/experiments/AOT/AOT_stimuli/rescaled_final/1198_fw.mp4	0.0	266.39756298065186	1.0000109672546387
57	246.91533184051514	movie	1		244	55.0	2.5	/experiments/AOT/AOT_stimuli/rescaled_final/1198_fw.mp4	0.0	267.3975739479065	2.5000391006469727
57	247.29892992973328	pulse	1	t		55.0	2.5	/experiments/AOT/AOT_stimuli/rescaled_final/1198_fw.mp4	0.0	267.78117203712463	
57	248.89884996414185	pulse	1	t		55.0	2.5	/experiments/AOT/AOT_stimuli/rescaled_final/1198_fw.mp4	0.0	269.3810920715332	
57	249.4153709411621	fix_post	2		12	55.0	2.5	/experiments/AOT/AOT_stimuli/rescaled_final/1198_fw.mp4	0.0	269.89761304855347	0.10003089904785156
58	249.51540184020996	fix_pre	0		119	56.0	2.5	blank	1.0	269.9976439476013	0.9915649890899658
58	250.49881386756897	pulse	0	t		56.0	2.5	blank	1.0	270.9810559749603	
58	250.50696682929993	movie	1		301	56.0	2.5	blank	1.0	270.9892089366913	2.5082790851593018
58	252.09877586364746	pulse	1	t		56.0	2.5	blank	1.0	272.5810179710388	
58	253.01524591445923	fix_post	2		12	56.0	2.5	blank	1.0	273.4974880218506	0.10013890266418457
59	253.1153848171234	fix_pre	0		120	57.0	2.5	/experiments/AOT/AOT_stimuli/rescaled_final/1865_fw.mp4	0.0	273.59762692451477	0.9998571872711182
59	253.69876980781555	pulse	0	t		57.0	2.5	/experiments/AOT/AOT_stimuli/rescaled_final/1865_fw.mp4	0.0	274.1810119152069	
59	254.11524200439453	movie	1		244	57.0	2.5	/experiments/AOT/AOT_stimuli/rescaled_final/1865_fw.mp4	0.0	274.5974841117859	2.5000579357147217
59	255.29887294769287	pulse	1	t		57.0	2.5	/experiments/AOT/AOT_stimuli/rescaled_final/1865_fw.mp4	0.0	275.78111505508423	
59	256.61529994010925	fix_post	2		12	57.0	2.5	/experiments/AOT/AOT_stimuli/rescaled_final/1865_fw.mp4	0.0	277.0975420475006	0.10004496574401855
60	256.71534490585327	fix_pre	0		120	58.0	2.5	/experiments/AOT/AOT_stimuli/rescaled_final/0542_rv.mp4	0.0	277.19758701324463	0.9999918937683105
60	256.89880990982056	pulse	0	t		58.0	2.5	/experiments/AOT/AOT_stimuli/rescaled_final/0542_rv.mp4	0.0	277.3810520172119	
60	257.7153367996216	movie	1		247	58.0	2.5	/experiments/AOT/AOT_stimuli/rescaled_final/0542_rv.mp4	0.0	278.19757890701294	2.500073194503784
60	258.49880385398865	pulse	1	t		58.0	2.5	/experiments/AOT/AOT_stimuli/rescaled_final/0542_rv.mp4	0.0	278.98104596138	
60	260.09892201423645	pulse	1	t		58.0	2.5	/experiments/AOT/AOT_stimuli/rescaled_final/0542_rv.mp4	0.0	280.5811641216278	
60	260.21540999412537	fix_post	2		12	58.0	2.5	/experiments/AOT/AOT_stimuli/rescaled_final/0542_rv.mp4	0.0	280.6976521015167	0.09995484352111816
61	260.3153648376465	fix_pre	0		120	59.0	2.5	/experiments/AOT/AOT_stimuli/rescaled_final/1059_fw.mp4	0.0	280.79760694503784	0.9995241165161133
61	261.3148889541626	movie	1		244	59.0	2.5	/experiments/AOT/AOT_stimuli/rescaled_final/1059_fw.mp4	0.0	281.79713106155396	2.500627040863037
61	261.6985538005829	pulse	1	t		59.0	2.5	/experiments/AOT/AOT_stimuli/rescaled_final/1059_fw.mp4	0.0	282.18079590797424	
61	263.2988669872284	pulse	1	t		59.0	2.5	/experiments/AOT/AOT_stimuli/rescaled_final/1059_fw.mp4	0.0	283.78110909461975	
61	263.81551599502563	fix_post	2		12	59.0	2.5	/experiments/AOT/AOT_stimuli/rescaled_final/1059_fw.mp4	0.0	284.297758102417	0.09965896606445312
62	263.9151749610901	fix_pre	0		119	60.0	2.5	/experiments/AOT/AOT_stimuli/rescaled_final/0523_rv.mp4	0.0	284.39741706848145	0.9917869567871094
62	264.89874482154846	pulse	0	t		60.0	2.5	/experiments/AOT/AOT_stimuli/rescaled_final/0523_rv.mp4	0.0	285.3809869289398	
62	264.9069619178772	movie	1		246	60.0	2.5	/experiments/AOT/AOT_stimuli/rescaled_final/0523_rv.mp4	0.0	285.38920402526855	2.5083539485931396
62	266.49859285354614	pulse	1	t		60.0	2.5	/experiments/AOT/AOT_stimuli/rescaled_final/0523_rv.mp4	0.0	286.9808349609375	
62	267.41531586647034	fix_post	2		12	60.0	2.5	/experiments/AOT/AOT_stimuli/rescaled_final/0523_rv.mp4	0.0	287.8975579738617	0.09993815422058105
63	267.5152540206909	fix_pre	0		120	61.0	2.5	/experiments/AOT/AOT_stimuli/rescaled_final/0173_fw.mp4	0.0	287.9974961280823	1.000065803527832
63	268.0987718105316	pulse	0	t		61.0	2.5	/experiments/AOT/AOT_stimuli/rescaled_final/0173_fw.mp4	0.0	288.581013917923	
63	268.51531982421875	movie	1		245	61.0	2.5	/experiments/AOT/AOT_stimuli/rescaled_final/0173_fw.mp4	0.0	288.9975619316101	2.4999661445617676
63	269.6988048553467	pulse	1	t		61.0	2.5	/experiments/AOT/AOT_stimuli/rescaled_final/0173_fw.mp4	0.0	290.18104696273804	
63	271.0152859687805	fix_post	2		12	61.0	2.5	/experiments/AOT/AOT_stimuli/rescaled_final/0173_fw.mp4	0.0	291.4975280761719	0.09996891021728516
64	271.1152548789978	fix_pre	0		120	62.0	2.5	/experiments/AOT/AOT_stimuli/rescaled_final/0337_fw.mp4	0.0	291.59749698638916	0.9999570846557617
64	271.29874181747437	pulse	0	t		62.0	2.5	/experiments/AOT/AOT_stimuli/rescaled_final/0337_fw.mp4	0.0	291.7809839248657	
64	272.11521196365356	movie	1		245	62.0	2.5	/experiments/AOT/AOT_stimuli/rescaled_final/0337_fw.mp4	0.0	292.5974540710449	2.5000500679016113
64	272.89863896369934	pulse	1	t		62.0	2.5	/experiments/AOT/AOT_stimuli/rescaled_final/0337_fw.mp4	0.0	293.3808810710907	
64	274.4986548423767	pulse	1	t		62.0	2.5	/experiments/AOT/AOT_stimuli/rescaled_final/0337_fw.mp4	0.0	294.98089694976807	
64	274.6152620315552	fix_post	2		12	62.0	2.5	/experiments/AOT/AOT_stimuli/rescaled_final/0337_fw.mp4	0.0	295.09750413894653	0.09998488426208496
65	274.71524691581726	fix_pre	0		120	63.0	2.5	blank	1.0	295.1974890232086	0.9999129772186279
65	275.7151598930359	movie	1		300	63.0	2.5	blank	1.0	296.19740200042725	2.500067949295044
65	276.0986409187317	pulse	1	t		63.0	2.5	blank	1.0	296.58088302612305	
65	277.69864797592163	pulse	1	t		63.0	2.5	blank	1.0	298.180890083313	
65	278.21522784233093	fix_post	2		12	63.0	2.5	blank	1.0	298.6974699497223	0.09995603561401367
66	278.31518387794495	fix_pre	0		119	64.0	2.5	/experiments/AOT/AOT_stimuli/rescaled_final/2080_fw.mp4	0.0	298.7974259853363	0.9915850162506104
66	279.29866886138916	pulse	0	t		64.0	2.5	/experiments/AOT/AOT_stimuli/rescaled_final/2080_fw.mp4	0.0	299.7809109687805	
66	279.30676889419556	movie	1		244	64.0	2.5	/experiments/AOT/AOT_stimuli/rescaled_final/2080_fw.mp4	0.0	299.7890110015869	2.5084619522094727
66	280.8981249332428	pulse	1	t		64.0	2.5	/experiments/AOT/AOT_stimuli/rescaled_final/2080_fw.mp4	0.0	301.38036704063416	
66	281.81523084640503	fix_post	2		12	64.0	2.5	/experiments/AOT/AOT_stimuli/rescaled_final/2080_fw.mp4	0.0	302.2974729537964	0.09996509552001953
67	281.91519594192505	fix_pre	0		120	65.0	2.5	/experiments/AOT/AOT_stimuli/rescaled_final/1353_rv.mp4	0.0	302.3974380493164	0.9999539852142334
67	282.4986238479614	pulse	0	t		65.0	2.5	/experiments/AOT/AOT_stimuli/rescaled_final/1353_rv.mp4	0.0	302.9808659553528	
67	282.9151499271393	movie	1		243	65.0	2.5	/experiments/AOT/AOT_stimuli/rescaled_final/1353_rv.mp4	0.0	303.39739203453064	2.499937057495117
67	284.0987129211426	pulse	1	t		65.0	2.5	/experiments/AOT/AOT_stimuli/rescaled_final/1353_rv.mp4	0.0	304.58095502853394	
67	285.4150869846344	fix_post	2		12	65.0	2.5	/experiments/AOT/AOT_stimuli/rescaled_final/1353_rv.mp4	0.0	305.89732909202576	0.1001589298248291
68	285.51524591445923	fix_pre	0		120	66.0	2.5	/experiments/AOT/AOT_stimuli/rescaled_final/0829_fw.mp4	0.0	305.9974880218506	0.9999361038208008
68	285.69953298568726	pulse	0	t		66.0	2.5	/experiments/AOT/AOT_stimuli/rescaled_final/0829_fw.mp4	0.0	306.1817750930786	
68	286.51518201828003	movie	1		242	66.0	2.5	/experiments/AOT/AOT_stimuli/rescaled_final/0829_fw.mp4	0.0	306.9974241256714	2.4999759197235107
68	287.2985999584198	pulse	1	t		66.0	2.5	/experiments/AOT/AOT_stimuli/rescaled_final/0829_fw.mp4	0.0	307.78084206581116	
68	288.90709495544434	pulse	1	t		66.0	2.5	/experiments/AOT/AOT_stimuli/rescaled_final/0829_fw.mp4	0.0	309.3893370628357	
68	289.01515793800354	fix_post	2		11	66.0	2.5	/experiments/AOT/AOT_stimuli/rescaled_final/0829_fw.mp4	0.0	309.4974000453949	0.09987902641296387
69	289.1150369644165	fix_pre	0		120	67.0	2.5	/experiments/AOT/AOT_stimuli/rescaled_final/1733_fw.mp4	0.0	309.59727907180786	1.0001349449157715
69	290.1151719093323	movie	1		245	67.0	2.5	/experiments/AOT/AOT_stimuli/rescaled_final/1733_fw.mp4	0.0	310.59741401672363	2.4999399185180664
69	290.5071029663086	pulse	1	t		67.0	2.5	/experiments/AOT/AOT_stimuli/rescaled_final/1733_fw.mp4	0.0	310.98934507369995	
69	292.0986068248749	pulse	1	t		67.0	2.5	/experiments/AOT/AOT_stimuli/rescaled_final/1733_fw.mp4	0.0	312.58084893226624	
69	292.61511182785034	fix_post	2		12	67.0	2.5	/experiments/AOT/AOT_stimuli/rescaled_final/1733_fw.mp4	0.0	313.0973539352417	0.0999910831451416
70	292.7151029109955	fix_pre	0		119	68.0	2.5	blank	1.0	313.19734501838684	0.9917130470275879
70	293.69859790802	pulse	0	t		68.0	2.5	blank	1.0	314.1808400154114	
70	293.70681595802307	movie	1		301	68.0	2.5	blank	1.0	314.18905806541443	2.5083508491516113
70	295.2986218929291	pulse	1	t		68.0	2.5	blank	1.0	315.78086400032043	
70	296.2151668071747	fix_post	2		12	68.0	2.5	blank	1.0	316.69740891456604	0.09993505477905273
71	296.31510186195374	fix_pre	0		120	69.0	2.5	/experiments/AOT/AOT_stimuli/rescaled_final/1094_fw.mp4	0.0	316.7973439693451	1.0000431537628174
71	296.8986690044403	pulse	0	t		69.0	2.5	/experiments/AOT/AOT_stimuli/rescaled_final/1094_fw.mp4	0.0	317.38091111183167	
71	297.31514501571655	movie	1		243	69.0	2.5	/experiments/AOT/AOT_stimuli/rescaled_final/1094_fw.mp4	0.0	317.7973871231079	2.499997854232788
71	298.49869894981384	pulse	1	t		69.0	2.5	/experiments/AOT/AOT_stimuli/rescaled_final/1094_fw.mp4	0.0	318.9809410572052	
71	299.81514286994934	fix_post	2		12	69.0	2.5	/experiments/AOT/AOT_stimuli/rescaled_final/1094_fw.mp4	0.0	320.2973849773407	0.09992694854736328
72	299.9150698184967	fix_pre	0		120	70.0	2.5	/experiments/AOT/AOT_stimuli/rescaled_final/1995_rv.mp4	0.0	320.39731192588806	1.0
72	300.098641872406	pulse	0	t		70.0	2.5	/experiments/AOT/AOT_stimuli/rescaled_final/1995_rv.mp4	0.0	320.58088397979736	
72	300.9150698184967	movie	1		245	70.0	2.5	/experiments/AOT/AOT_stimuli/rescaled_final/1995_rv.mp4	0.0	321.39731192588806	2.5000181198120117
72	301.69859790802	pulse	1	t		70.0	2.5	/experiments/AOT/AOT_stimuli/rescaled_final/1995_rv.mp4	0.0	322.1808400154114	
72	303.29862785339355	pulse	1	t		70.0	2.5	/experiments/AOT/AOT_stimuli/rescaled_final/1995_rv.mp4	0.0	323.7808699607849	
72	303.4150879383087	fix_post	2		12	70.0	2.5	/experiments/AOT/AOT_stimuli/rescaled_final/1995_rv.mp4	0.0	323.8973300457001	0.10005593299865723
73	303.5151438713074	fix_pre	0		120	71.0	2.5	/experiments/AOT/AOT_stimuli/rescaled_final/1704_fw.mp4	0.0	323.99738597869873	0.9998750686645508
73	304.5150189399719	movie	1		243	71.0	2.5	/experiments/AOT/AOT_stimuli/rescaled_final/1704_fw.mp4	0.0	324.9972610473633	2.500027894973755
73	304.898738861084	pulse	1	t		71.0	2.5	/experiments/AOT/AOT_stimuli/rescaled_final/1704_fw.mp4	0.0	325.38098096847534	
73	306.49852180480957	pulse	1	t		71.0	2.5	/experiments/AOT/AOT_stimuli/rescaled_final/1704_fw.mp4	0.0	326.9807639122009	
73	307.0150468349457	fix_post	2		12	71.0	2.5	/experiments/AOT/AOT_stimuli/rescaled_final/1704_fw.mp4	0.0	327.49728894233704	0.10001206398010254
74	307.1150588989258	fix_pre	0		119	72.0	2.5	/experiments/AOT/AOT_stimuli/rescaled_final/0947_fw.mp4	0.0	327.59730100631714	0.991703987121582
74	308.0985999107361	pulse	0	t		72.0	2.5	/experiments/AOT/AOT_stimuli/rescaled_final/0947_fw.mp4	0.0	328.58084201812744	
74	308.10676288604736	movie	1		243	72.0	2.5	/experiments/AOT/AOT_stimuli/rescaled_final/0947_fw.mp4	0.0	328.5890049934387	2.5082550048828125
74	309.69828486442566	pulse	1	t		72.0	2.5	/experiments/AOT/AOT_stimuli/rescaled_final/0947_fw.mp4	0.0	330.180526971817	
74	310.6150178909302	fix_post	2		12	72.0	2.5	/experiments/AOT/AOT_stimuli/rescaled_final/0947_fw.mp4	0.0	331.09725999832153	0.10000205039978027
75	310.71501994132996	fix_pre	0		120	73.0	2.5	/experiments/AOT/AOT_stimuli/rescaled_final/0238_fw.mp4	0.0	331.1972620487213	1.0000028610229492
75	311.29855489730835	pulse	0	t		73.0	2.5	/experiments/AOT/AOT_stimuli/rescaled_final/0238_fw.mp4	0.0	331.7807970046997	
75	311.7150228023529	movie	1		244	73.0	2.5	/experiments/AOT/AOT_stimuli/rescaled_final/0238_fw.mp4	0.0	332.19726490974426	2.500040054321289
75	312.8985300064087	pulse	1	t		73.0	2.5	/experiments/AOT/AOT_stimuli/rescaled_final/0238_fw.mp4	0.0	333.38077211380005	
75	314.2150628566742	fix_post	2		12	73.0	2.5	/experiments/AOT/AOT_stimuli/rescaled_final/0238_fw.mp4	0.0	334.69730496406555	0.1000821590423584
76	314.31514501571655	fix_pre	0		120	74.0	2.5	/experiments/AOT/AOT_stimuli/rescaled_final/0992_rv.mp4	0.0	334.7973871231079	0.9998719692230225
76	314.4985330104828	pulse	0	t		74.0	2.5	/experiments/AOT/AOT_stimuli/rescaled_final/0992_rv.mp4	0.0	334.98077511787415	
76	315.3150169849396	movie	1		246	74.0	2.5	/experiments/AOT/AOT_stimuli/rescaled_final/0992_rv.mp4	0.0	335.79725909233093	2.4999899864196777
76	316.09846591949463	pulse	1	t		74.0	2.5	/experiments/AOT/AOT_stimuli/rescaled_final/0992_rv.mp4	0.0	336.580708026886	
76	317.70647287368774	pulse	1	t		74.0	2.5	/experiments/AOT/AOT_stimuli/rescaled_final/0992_rv.mp4	0.0	338.1887149810791	
76	317.81500697135925	fix_post	2		12	74.0	2.5	/experiments/AOT/AOT_stimuli/rescaled_final/0992_rv.mp4	0.0	338.2972490787506	0.10003399848937988
77	317.91504096984863	fix_pre	0		120	75.0	2.5	blank	1.0	338.39728307724	1.0000498294830322
77	318.91509079933167	movie	1		300	75.0	2.5	blank	1.0	339.397332906723	2.4999542236328125
77	319.29864597320557	pulse	1	t		75.0	2.5	blank	1.0	339.7808880805969	
77	320.8983988761902	pulse	1	t		75.0	2.5	blank	1.0	341.38064098358154	
77	321.4150450229645	fix_post	2		12	75.0	2.5	blank	1.0	341.89728713035583	0.09996795654296875
78	321.51501297950745	fix_pre	0		119	76.0	2.5	/experiments/AOT/AOT_stimuli/rescaled_final/1106_fw.mp4	0.0	341.9972550868988	0.991657018661499
78	322.4984447956085	pulse	0	t		76.0	2.5	/experiments/AOT/AOT_stimuli/rescaled_final/1106_fw.mp4	0.0	342.9806869029999	
78	322.50666999816895	movie	1		244	76.0	2.5	/experiments/AOT/AOT_stimuli/rescaled_final/1106_fw.mp4	0.0	342.9889121055603	2.5082719326019287
78	324.10689187049866	pulse	1	t		76.0	2.5	/experiments/AOT/AOT_stimuli/rescaled_final/1106_fw.mp4	0.0	344.58913397789	
78	325.0149419307709	fix_post	2		12	76.0	2.5	/experiments/AOT/AOT_stimuli/rescaled_final/1106_fw.mp4	0.0	345.49718403816223	0.10002493858337402
79	325.11496686935425	fix_pre	0		120	77.0	2.5	/experiments/AOT/AOT_stimuli/rescaled_final/1139_rv.mp4	0.0	345.5972089767456	0.9999520778656006
79	325.69837498664856	pulse	0	t		77.0	2.5	/experiments/AOT/AOT_stimuli/rescaled_final/1139_rv.mp4	0.0	346.1806170940399	
79	326.11491894721985	movie	1		245	77.0	2.5	/experiments/AOT/AOT_stimuli/rescaled_final/1139_rv.mp4	0.0	346.5971610546112	2.500041961669922
79	327.2985849380493	pulse	1	t		77.0	2.5	/experiments/AOT/AOT_stimuli/rescaled_final/1139_rv.mp4	0.0	347.7808270454407	
79	328.61496090888977	fix_post	2		12	77.0	2.5	/experiments/AOT/AOT_stimuli/rescaled_final/1139_rv.mp4	0.0	349.0972030162811	0.09997701644897461
80	328.71493792533875	fix_pre	0		120	78.0	2.5	/experiments/AOT/AOT_stimuli/rescaled_final/1912_fw.mp4	0.0	349.1971800327301	1.0000090599060059
80	328.89838695526123	pulse	0	t		78.0	2.5	/experiments/AOT/AOT_stimuli/rescaled_final/1912_fw.mp4	0.0	349.3806290626526	
80	329.71494698524475	movie	1		246	78.0	2.5	/experiments/AOT/AOT_stimuli/rescaled_final/1912_fw.mp4	0.0	350.1971890926361	2.499936819076538
80	330.49849796295166	pulse	1	t		78.0	2.5	/experiments/AOT/AOT_stimuli/rescaled_final/1912_fw.mp4	0.0	350.980740070343	
80	332.09837102890015	pulse	1	t		78.0	2.5	/experiments/AOT/AOT_stimuli/rescaled_final/1912_fw.mp4	0.0	352.5806131362915	
80	332.2148838043213	fix_post	2		12	78.0	2.5	/experiments/AOT/AOT_stimuli/rescaled_final/1912_fw.mp4	0.0	352.69712591171265	0.10002422332763672
81	332.3149080276489	fix_pre	0		120	79.0	2.5	/experiments/AOT/AOT_stimuli/rescaled_final/0655_rv.mp4	0.0	352.7971501350403	0.9999818801879883
81	333.3148899078369	movie	1		247	79.0	2.5	/experiments/AOT/AOT_stimuli/rescaled_final/0655_rv.mp4	0.0	353.79713201522827	2.499994993209839
81	333.6977570056915	pulse	1	t		79.0	2.5	/experiments/AOT/AOT_stimuli/rescaled_final/0655_rv.mp4	0.0	354.1799991130829	
81	335.299213886261	pulse	1	t		79.0	2.5	/experiments/AOT/AOT_stimuli/rescaled_final/0655_rv.mp4	0.0	355.78145599365234	
81	335.81488490104675	fix_post	2		12	79.0	2.5	/experiments/AOT/AOT_stimuli/rescaled_final/0655_rv.mp4	0.0	356.2971270084381	0.09999895095825195
82	335.914883852005	fix_pre	0		120	80.0	2.5	/experiments/AOT/AOT_stimuli/rescaled_final/0184_rv.mp4	0.0	356.39712595939636	0.9999840259552002
82	336.89908599853516	pulse	0	t		80.0	2.5	/experiments/AOT/AOT_stimuli/rescaled_final/0184_rv.mp4	0.0	357.3813281059265	
82	336.9148678779602	movie	1		247	80.0	2.5	/experiments/AOT/AOT_stimuli/rescaled_final/0184_rv.mp4	0.0	357.39710998535156	2.5079619884490967
82	338.4983289241791	pulse	1	t		80.0	2.5	/experiments/AOT/AOT_stimuli/rescaled_final/0184_rv.mp4	0.0	358.98057103157043	
82	339.4228298664093	fix_post	2		12	80.0	2.5	/experiments/AOT/AOT_stimuli/rescaled_final/0184_rv.mp4	0.0	359.90507197380066	0.10039901733398438
83	339.5232288837433	fix_pre	0		120	81.0	2.5	/experiments/AOT/AOT_stimuli/rescaled_final/2098_fw.mp4	0.0	360.00547099113464	0.9999921321868896
83	340.09844398498535	pulse	0	t		81.0	2.5	/experiments/AOT/AOT_stimuli/rescaled_final/2098_fw.mp4	0.0	360.5806860923767	
83	340.5232210159302	movie	1		248	81.0	2.5	/experiments/AOT/AOT_stimuli/rescaled_final/2098_fw.mp4	0.0	361.00546312332153	2.5000689029693604
83	341.70684599876404	pulse	1	t		81.0	2.5	/experiments/AOT/AOT_stimuli/rescaled_final/2098_fw.mp4	0.0	362.1890881061554	
83	343.02328991889954	fix_post	2		12	81.0	2.5	/experiments/AOT/AOT_stimuli/rescaled_final/2098_fw.mp4	0.0	363.5055320262909	0.09991788864135742
84	343.1232078075409	fix_pre	0		120	82.0	2.5	blank	1.0	363.60544991493225	1.0000381469726562
84	343.29841589927673	pulse	0	t		82.0	2.5	blank	1.0	363.7806580066681	
84	344.12324595451355	movie	1		300	82.0	2.5	blank	1.0	364.6054880619049	2.5000200271606445
84	344.89837288856506	pulse	1	t		82.0	2.5	blank	1.0	365.3806149959564	
84	346.4983789920807	pulse	1	t		82.0	2.5	blank	1.0	366.98062109947205	
84	346.6232659816742	fix_post	2		12	82.0	2.5	blank	1.0	367.10550808906555	0.10000896453857422
85	346.72327494621277	fix_pre	0		120	83.0	2.5	/experiments/AOT/AOT_stimuli/rescaled_final/0916_rv.mp4	0.0	367.2055170536041	0.9999659061431885
85	347.72324085235596	movie	1		241	83.0	2.5	/experiments/AOT/AOT_stimuli/rescaled_final/0916_rv.mp4	0.0	368.2054829597473	2.4999520778656006
85	348.0983338356018	pulse	1	t		83.0	2.5	/experiments/AOT/AOT_stimuli/rescaled_final/0916_rv.mp4	0.0	368.58057594299316	
85	349.6984498500824	pulse	1	t		83.0	2.5	/experiments/AOT/AOT_stimuli/rescaled_final/0916_rv.mp4	0.0	370.18069195747375	
85	350.22319293022156	fix_post	2		12	83.0	2.5	/experiments/AOT/AOT_stimuli/rescaled_final/0916_rv.mp4	0.0	370.7054350376129	0.10024905204772949
87	350.3234419822693	stim	0		1716					370.80568408966064	14.29971194267273
87	351.2992708683014	pulse	0	t						371.78151297569275	
87	352.89831280708313	pulse	0	t						373.3805549144745	
87	354.4983229637146	pulse	0	t						374.98056507110596	
87	356.09834384918213	pulse	0	t						376.5805859565735	
87	357.6982569694519	pulse	0	t						378.18049907684326	
87	359.29828095436096	pulse	0	t						379.7805230617523	
87	360.8983018398285	pulse	0	t						381.38054394721985	
87	362.4982388019562	pulse	0	t						382.98048090934753	
87	364.0982458591461	pulse	0	t						384.5804879665375	
