trial_nr	onset	event_type	phase	response	nr_frames	movie_index	movie_duration	movie_file	blank	onset_abs	duration
0	0.20815205574035645	stim	0		1					36.21315312385559	0.008255958557128906
0	0.20296001434326172	response	0	space						36.207961082458496	
1	0.21640801429748535	stim	0		4689					36.22140908241272	39.09079718589783
1	39.29742503166199	pulse	0	t						75.30242609977722	
1	39.30720520019531	stim	1		1716					75.31220626831055	14.300518989562988
1	40.88933706283569	pulse	1	t						76.89433813095093	
1	42.48956799507141	pulse	1	t						78.49456906318665	
1	44.089906215667725	pulse	1	t						80.09490728378296	
1	45.69012999534607	pulse	1	t						81.6951310634613	
1	47.2903151512146	pulse	1	t						83.29531621932983	
1	48.89048218727112	pulse	1	t						84.89548325538635	
1	50.490809202194214	pulse	1	t						86.49581027030945	
1	52.09107708930969	pulse	1	t						88.09607815742493	
2	53.6077241897583	fix_pre	0		11	0.0	2.5	/experiments/knapen_AOT/AOT_stimuli/rescaled_final/1096_fw.mp4	0.0	89.61272525787354	0.09162092208862305
2	53.69133019447327	pulse	0	t		0.0	2.5	/experiments/knapen_AOT/AOT_stimuli/rescaled_final/1096_fw.mp4	0.0	89.6963312625885	
2	53.699345111846924	movie	1		244	0.0	2.5	/experiments/knapen_AOT/AOT_stimuli/rescaled_final/1096_fw.mp4	0.0	89.70434617996216	2.508729934692383
2	55.292222023010254	pulse	1	t		0.0	2.5	/experiments/knapen_AOT/AOT_stimuli/rescaled_final/1096_fw.mp4	0.0	91.29722309112549	
2	56.20807504653931	fix_post	2		12	0.0	2.5	/experiments/knapen_AOT/AOT_stimuli/rescaled_final/1096_fw.mp4	0.0	92.21307611465454	0.10002613067626953
3	56.308101177215576	fix_pre	0		120	1.0	2.5	/experiments/knapen_AOT/AOT_stimuli/rescaled_final/1602_rv.mp4	0.0	92.31310224533081	1.000166893005371
3	56.89171600341797	pulse	0	t		1.0	2.5	/experiments/knapen_AOT/AOT_stimuli/rescaled_final/1602_rv.mp4	0.0	92.8967170715332	
3	57.30826807022095	movie	1		243	1.0	2.5	/experiments/knapen_AOT/AOT_stimuli/rescaled_final/1602_rv.mp4	0.0	93.31326913833618	2.500361919403076
3	58.49220299720764	pulse	1	t		1.0	2.5	/experiments/knapen_AOT/AOT_stimuli/rescaled_final/1602_rv.mp4	0.0	94.49720406532288	
3	59.80862998962402	fix_post	2		12	1.0	2.5	/experiments/knapen_AOT/AOT_stimuli/rescaled_final/1602_rv.mp4	0.0	95.81363105773926	0.10000014305114746
4	59.90863013267517	fix_pre	0		117	2.0	2.5	/experiments/knapen_AOT/AOT_stimuli/rescaled_final/1613_fw.mp4	0.0	95.9136312007904	1.0001609325408936
4	60.09232521057129	pulse	0	t		2.0	2.5	/experiments/knapen_AOT/AOT_stimuli/rescaled_final/1613_fw.mp4	0.0	96.09732627868652	
4	60.908791065216064	movie	1		244	2.0	2.5	/experiments/knapen_AOT/AOT_stimuli/rescaled_final/1613_fw.mp4	0.0	96.9137921333313	2.50034499168396
4	61.692506074905396	pulse	1	t		2.0	2.5	/experiments/knapen_AOT/AOT_stimuli/rescaled_final/1613_fw.mp4	0.0	97.69750714302063	
4	63.29601812362671	pulse	1	t		2.0	2.5	/experiments/knapen_AOT/AOT_stimuli/rescaled_final/1613_fw.mp4	0.0	99.30101919174194	
4	63.409136056900024	fix_post	2		12	2.0	2.5	/experiments/knapen_AOT/AOT_stimuli/rescaled_final/1613_fw.mp4	0.0	99.41413712501526	0.10002493858337402
5	63.5091609954834	fix_pre	0		120	3.0	2.5	/experiments/knapen_AOT/AOT_stimuli/rescaled_final/0255_fw.mp4	0.0	99.51416206359863	1.0001661777496338
5	64.50932717323303	movie	1		242	3.0	2.5	/experiments/knapen_AOT/AOT_stimuli/rescaled_final/0255_fw.mp4	0.0	100.51432824134827	2.4920358657836914
5	64.89342999458313	pulse	1	t		3.0	2.5	/experiments/knapen_AOT/AOT_stimuli/rescaled_final/0255_fw.mp4	0.0	100.89843106269836	
5	66.49329018592834	pulse	1	t		3.0	2.5	/experiments/knapen_AOT/AOT_stimuli/rescaled_final/0255_fw.mp4	0.0	102.49829125404358	
5	67.00136303901672	fix_post	2		12	3.0	2.5	/experiments/knapen_AOT/AOT_stimuli/rescaled_final/0255_fw.mp4	0.0	103.00636410713196	0.10003209114074707
6	67.10139513015747	fix_pre	0		120	4.0	2.5	/experiments/knapen_AOT/AOT_stimuli/rescaled_final/1069_rv.mp4	0.0	103.1063961982727	1.0001320838928223
6	68.09345507621765	pulse	0	t		4.0	2.5	/experiments/knapen_AOT/AOT_stimuli/rescaled_final/1069_rv.mp4	0.0	104.09845614433289	
6	68.1015272140503	movie	1		244	4.0	2.5	/experiments/knapen_AOT/AOT_stimuli/rescaled_final/1069_rv.mp4	0.0	104.10652828216553	2.508694887161255
6	69.69490814208984	pulse	1	t		4.0	2.5	/experiments/knapen_AOT/AOT_stimuli/rescaled_final/1069_rv.mp4	0.0	105.69990921020508	
6	70.61022210121155	fix_post	2		12	4.0	2.5	/experiments/knapen_AOT/AOT_stimuli/rescaled_final/1069_rv.mp4	0.0	106.61522316932678	0.1001288890838623
7	70.71035099029541	fix_pre	0		120	5.0	2.5	/experiments/knapen_AOT/AOT_stimuli/rescaled_final/1674_fw.mp4	0.0	106.71535205841064	1.0000531673431396
7	71.28628706932068	pulse	0	t		5.0	2.5	/experiments/knapen_AOT/AOT_stimuli/rescaled_final/1674_fw.mp4	0.0	107.29128813743591	
7	71.71040415763855	movie	1		243	5.0	2.5	/experiments/knapen_AOT/AOT_stimuli/rescaled_final/1674_fw.mp4	0.0	107.71540522575378	2.500509023666382
7	72.89430117607117	pulse	1	t		5.0	2.5	/experiments/knapen_AOT/AOT_stimuli/rescaled_final/1674_fw.mp4	0.0	108.8993022441864	
7	74.21091318130493	fix_post	2		12	5.0	2.5	/experiments/knapen_AOT/AOT_stimuli/rescaled_final/1674_fw.mp4	0.0	110.21591424942017	0.09994101524353027
8	74.31085419654846	fix_pre	0		120	6.0	2.5	/experiments/knapen_AOT/AOT_stimuli/rescaled_final/1152_rv.mp4	0.0	110.3158552646637	1.0000879764556885
8	74.48693203926086	pulse	0	t		6.0	2.5	/experiments/knapen_AOT/AOT_stimuli/rescaled_final/1152_rv.mp4	0.0	110.4919331073761	
8	75.31094217300415	movie	1		244	6.0	2.5	/experiments/knapen_AOT/AOT_stimuli/rescaled_final/1152_rv.mp4	0.0	111.31594324111938	2.500356912612915
8	76.0871160030365	pulse	1	t		6.0	2.5	/experiments/knapen_AOT/AOT_stimuli/rescaled_final/1152_rv.mp4	0.0	112.09211707115173	
8	77.68652200698853	pulse	1	t		6.0	2.5	/experiments/knapen_AOT/AOT_stimuli/rescaled_final/1152_rv.mp4	0.0	113.69152307510376	
8	77.81129908561707	fix_post	2		12	6.0	2.5	/experiments/knapen_AOT/AOT_stimuli/rescaled_final/1152_rv.mp4	0.0	113.8163001537323	0.10001611709594727
9	77.91131520271301	fix_pre	0		120	7.0	2.5	blank	1.0	113.91631627082825	1.000194787979126
9	78.91150999069214	movie	1		299	7.0	2.5	blank	1.0	114.91651105880737	2.4920520782470703
9	79.28666114807129	pulse	1	t		7.0	2.5	blank	1.0	115.29166221618652	
9	80.88700604438782	pulse	1	t		7.0	2.5	blank	1.0	116.89200711250305	
9	81.40356206893921	fix_post	2		12	7.0	2.5	blank	1.0	117.40856313705444	0.09997701644897461
10	81.50353908538818	fix_pre	0		119	8.0	2.5	/experiments/knapen_AOT/AOT_stimuli/rescaled_final/0946_fw.mp4	0.0	117.50854015350342	0.991818904876709
10	82.48733711242676	pulse	0	t		8.0	2.5	/experiments/knapen_AOT/AOT_stimuli/rescaled_final/0946_fw.mp4	0.0	118.49233818054199	
10	82.49535799026489	movie	1		244	8.0	2.5	/experiments/knapen_AOT/AOT_stimuli/rescaled_final/0946_fw.mp4	0.0	118.50035905838013	2.5087032318115234
10	84.088219165802	pulse	1	t		8.0	2.5	/experiments/knapen_AOT/AOT_stimuli/rescaled_final/0946_fw.mp4	0.0	120.09322023391724	
10	85.00406122207642	fix_post	2		12	8.0	2.5	/experiments/knapen_AOT/AOT_stimuli/rescaled_final/0946_fw.mp4	0.0	121.00906229019165	0.10003185272216797
11	85.10409307479858	fix_pre	0		120	9.0	2.5	/experiments/knapen_AOT/AOT_stimuli/rescaled_final/0498_rv.mp4	0.0	121.10909414291382	1.0001590251922607
11	85.68763613700867	pulse	0	t		9.0	2.5	/experiments/knapen_AOT/AOT_stimuli/rescaled_final/0498_rv.mp4	0.0	121.6926372051239	
11	86.10425209999084	movie	1		244	9.0	2.5	/experiments/knapen_AOT/AOT_stimuli/rescaled_final/0498_rv.mp4	0.0	122.10925316810608	2.5003011226654053
11	87.28798413276672	pulse	1	t		9.0	2.5	/experiments/knapen_AOT/AOT_stimuli/rescaled_final/0498_rv.mp4	0.0	123.29298520088196	
11	88.60455322265625	fix_post	2		12	9.0	2.5	/experiments/knapen_AOT/AOT_stimuli/rescaled_final/0498_rv.mp4	0.0	124.60955429077148	0.10005688667297363
12	88.70461010932922	fix_pre	0		120	10.0	2.5	/experiments/knapen_AOT/AOT_stimuli/rescaled_final/0721_fw.mp4	0.0	124.70961117744446	1.0001659393310547
12	88.8882851600647	pulse	0	t		10.0	2.5	/experiments/knapen_AOT/AOT_stimuli/rescaled_final/0721_fw.mp4	0.0	124.89328622817993	
12	89.70477604866028	movie	1		245	10.0	2.5	/experiments/knapen_AOT/AOT_stimuli/rescaled_final/0721_fw.mp4	0.0	125.70977711677551	2.50045108795166
12	90.48847007751465	pulse	1	t		10.0	2.5	/experiments/knapen_AOT/AOT_stimuli/rescaled_final/0721_fw.mp4	0.0	126.49347114562988	
12	92.0886402130127	pulse	1	t		10.0	2.5	/experiments/knapen_AOT/AOT_stimuli/rescaled_final/0721_fw.mp4	0.0	128.09364128112793	
12	92.20522713661194	fix_post	2		12	10.0	2.5	/experiments/knapen_AOT/AOT_stimuli/rescaled_final/0721_fw.mp4	0.0	128.21022820472717	0.0998990535736084
13	92.30512619018555	fix_pre	0		120	11.0	2.5	/experiments/knapen_AOT/AOT_stimuli/rescaled_final/0728_rv.mp4	0.0	128.31012725830078	1.0001599788665771
13	93.30528616905212	movie	1		242	11.0	2.5	/experiments/knapen_AOT/AOT_stimuli/rescaled_final/0728_rv.mp4	0.0	129.31028723716736	2.492053985595703
13	93.68948912620544	pulse	1	t		11.0	2.5	/experiments/knapen_AOT/AOT_stimuli/rescaled_final/0728_rv.mp4	0.0	129.69449019432068	
13	95.28914713859558	pulse	1	t		11.0	2.5	/experiments/knapen_AOT/AOT_stimuli/rescaled_final/0728_rv.mp4	0.0	131.29414820671082	
13	95.79734015464783	fix_post	2		12	11.0	2.5	/experiments/knapen_AOT/AOT_stimuli/rescaled_final/0728_rv.mp4	0.0	131.80234122276306	0.10000395774841309
14	95.89734411239624	fix_pre	0		120	12.0	2.5	blank	1.0	131.90234518051147	1.0001459121704102
14	96.8894670009613	pulse	0	t		12.0	2.5	blank	1.0	132.89446806907654	
14	96.89749002456665	movie	1		301	12.0	2.5	blank	1.0	132.90249109268188	2.508740186691284
14	98.48960018157959	pulse	1	t		12.0	2.5	blank	1.0	134.49460124969482	
14	99.40623021125793	fix_post	2		12	12.0	2.5	blank	1.0	135.41123127937317	0.10000896453857422
15	99.50623917579651	fix_pre	0		120	13.0	2.5	/experiments/knapen_AOT/AOT_stimuli/rescaled_final/1509_rv.mp4	0.0	135.51124024391174	1.0001239776611328
15	100.08986020088196	pulse	0	t		13.0	2.5	/experiments/knapen_AOT/AOT_stimuli/rescaled_final/1509_rv.mp4	0.0	136.0948612689972	
15	100.50636315345764	movie	1		245	13.0	2.5	/experiments/knapen_AOT/AOT_stimuli/rescaled_final/1509_rv.mp4	0.0	136.51136422157288	2.5003349781036377
15	101.68665409088135	pulse	1	t		13.0	2.5	/experiments/knapen_AOT/AOT_stimuli/rescaled_final/1509_rv.mp4	0.0	137.69165515899658	
15	103.00669813156128	fix_post	2		12	13.0	2.5	/experiments/knapen_AOT/AOT_stimuli/rescaled_final/1509_rv.mp4	0.0	139.0116991996765	0.10002708435058594
16	103.10672521591187	fix_pre	0		120	14.0	2.5	/experiments/knapen_AOT/AOT_stimuli/rescaled_final/1353_fw.mp4	0.0	139.1117262840271	1.0002079010009766
16	103.29040503501892	pulse	0	t		14.0	2.5	/experiments/knapen_AOT/AOT_stimuli/rescaled_final/1353_fw.mp4	0.0	139.29540610313416	
16	104.10693311691284	movie	1		244	14.0	2.5	/experiments/knapen_AOT/AOT_stimuli/rescaled_final/1353_fw.mp4	0.0	140.11193418502808	2.500307083129883
16	104.89052104949951	pulse	1	t		14.0	2.5	/experiments/knapen_AOT/AOT_stimuli/rescaled_final/1353_fw.mp4	0.0	140.89552211761475	
16	106.49104118347168	pulse	1	t		14.0	2.5	/experiments/knapen_AOT/AOT_stimuli/rescaled_final/1353_fw.mp4	0.0	142.4960422515869	
16	106.60724020004272	fix_post	2		12	14.0	2.5	/experiments/knapen_AOT/AOT_stimuli/rescaled_final/1353_fw.mp4	0.0	142.61224126815796	0.10003399848937988
17	106.7072741985321	fix_pre	0		120	15.0	2.5	/experiments/knapen_AOT/AOT_stimuli/rescaled_final/1660_fw.mp4	0.0	142.71227526664734	1.0001568794250488
17	107.70743107795715	movie	1		244	15.0	2.5	/experiments/knapen_AOT/AOT_stimuli/rescaled_final/1660_fw.mp4	0.0	143.7124321460724	2.492166042327881
17	108.09176421165466	pulse	1	t		15.0	2.5	/experiments/knapen_AOT/AOT_stimuli/rescaled_final/1660_fw.mp4	0.0	144.0967652797699	
17	109.6913001537323	pulse	1	t		15.0	2.5	/experiments/knapen_AOT/AOT_stimuli/rescaled_final/1660_fw.mp4	0.0	145.69630122184753	
17	110.19959712028503	fix_post	2		12	15.0	2.5	/experiments/knapen_AOT/AOT_stimuli/rescaled_final/1660_fw.mp4	0.0	146.20459818840027	0.09989500045776367
18	110.2994921207428	fix_pre	0		120	16.0	2.5	/experiments/knapen_AOT/AOT_stimuli/rescaled_final/1096_rv.mp4	0.0	146.30449318885803	1.0001389980316162
18	111.29154109954834	pulse	0	t		16.0	2.5	/experiments/knapen_AOT/AOT_stimuli/rescaled_final/1096_rv.mp4	0.0	147.29654216766357	
18	111.29963111877441	movie	1		245	16.0	2.5	/experiments/knapen_AOT/AOT_stimuli/rescaled_final/1096_rv.mp4	0.0	147.30463218688965	2.5088260173797607
18	112.89244103431702	pulse	1	t		16.0	2.5	/experiments/knapen_AOT/AOT_stimuli/rescaled_final/1096_rv.mp4	0.0	148.89744210243225	
18	113.80845713615417	fix_post	2		12	16.0	2.5	/experiments/knapen_AOT/AOT_stimuli/rescaled_final/1096_rv.mp4	0.0	149.8134582042694	0.09990286827087402
19	113.90836000442505	fix_pre	0		120	17.0	2.5	/experiments/knapen_AOT/AOT_stimuli/rescaled_final/1254_fw.mp4	0.0	149.91336107254028	1.0001440048217773
19	114.49197816848755	pulse	0	t		17.0	2.5	/experiments/knapen_AOT/AOT_stimuli/rescaled_final/1254_fw.mp4	0.0	150.49697923660278	
19	114.90850400924683	movie	1		244	17.0	2.5	/experiments/knapen_AOT/AOT_stimuli/rescaled_final/1254_fw.mp4	0.0	150.91350507736206	2.5004920959472656
19	116.09239220619202	pulse	1	t		17.0	2.5	/experiments/knapen_AOT/AOT_stimuli/rescaled_final/1254_fw.mp4	0.0	152.09739327430725	
19	117.40899610519409	fix_post	2		12	17.0	2.5	/experiments/knapen_AOT/AOT_stimuli/rescaled_final/1254_fw.mp4	0.0	153.41399717330933	0.09988808631896973
20	117.50888419151306	fix_pre	0		120	18.0	2.5	/experiments/knapen_AOT/AOT_stimuli/rescaled_final/0709_fw.mp4	0.0	153.5138852596283	1.000175952911377
20	117.69252920150757	pulse	0	t		18.0	2.5	/experiments/knapen_AOT/AOT_stimuli/rescaled_final/0709_fw.mp4	0.0	153.6975302696228	
20	118.50906014442444	movie	1		244	18.0	2.5	/experiments/knapen_AOT/AOT_stimuli/rescaled_final/0709_fw.mp4	0.0	154.51406121253967	2.5016138553619385
20	119.29274606704712	pulse	1	t		18.0	2.5	/experiments/knapen_AOT/AOT_stimuli/rescaled_final/0709_fw.mp4	0.0	155.29774713516235	
20	120.89295816421509	pulse	1	t		18.0	2.5	/experiments/knapen_AOT/AOT_stimuli/rescaled_final/0709_fw.mp4	0.0	156.89795923233032	
20	121.01067399978638	fix_post	2		10	18.0	2.5	/experiments/knapen_AOT/AOT_stimuli/rescaled_final/0709_fw.mp4	0.0	157.0156750679016	0.09878802299499512
21	121.10946202278137	fix_pre	0		120	19.0	2.5	blank	1.0	157.1144630908966	1.000115156173706
21	122.10957717895508	movie	1		299	19.0	2.5	blank	1.0	158.1145782470703	2.492053985595703
21	122.49320316314697	pulse	1	t		19.0	2.5	blank	1.0	158.4982042312622	
21	124.09338402748108	pulse	1	t		19.0	2.5	blank	1.0	160.0983850955963	
21	124.60163116455078	fix_post	2		12	19.0	2.5	blank	1.0	160.60663223266602	0.10003495216369629
22	124.70166611671448	fix_pre	0		120	20.0	2.5	/experiments/knapen_AOT/AOT_stimuli/rescaled_final/1112_rv.mp4	0.0	160.7066671848297	1.0001299381256104
22	125.69365906715393	pulse	0	t		20.0	2.5	/experiments/knapen_AOT/AOT_stimuli/rescaled_final/1112_rv.mp4	0.0	161.69866013526917	
22	125.70179605484009	movie	1		244	20.0	2.5	/experiments/knapen_AOT/AOT_stimuli/rescaled_final/1112_rv.mp4	0.0	161.70679712295532	2.508702039718628
22	127.29514408111572	pulse	1	t		20.0	2.5	/experiments/knapen_AOT/AOT_stimuli/rescaled_final/1112_rv.mp4	0.0	163.30014514923096	
22	128.21049809455872	fix_post	2		12	20.0	2.5	/experiments/knapen_AOT/AOT_stimuli/rescaled_final/1112_rv.mp4	0.0	164.21549916267395	0.10000896453857422
23	128.3105070590973	fix_pre	0		120	21.0	2.5	/experiments/knapen_AOT/AOT_stimuli/rescaled_final/0603_rv.mp4	0.0	164.31550812721252	1.0001659393310547
23	128.89416217803955	pulse	0	t		21.0	2.5	/experiments/knapen_AOT/AOT_stimuli/rescaled_final/0603_rv.mp4	0.0	164.89916324615479	
23	129.31067299842834	movie	1		243	21.0	2.5	/experiments/knapen_AOT/AOT_stimuli/rescaled_final/0603_rv.mp4	0.0	165.31567406654358	2.500326156616211
23	130.49049615859985	pulse	1	t		21.0	2.5	/experiments/knapen_AOT/AOT_stimuli/rescaled_final/0603_rv.mp4	0.0	166.4954972267151	
23	131.81099915504456	fix_post	2		12	21.0	2.5	/experiments/knapen_AOT/AOT_stimuli/rescaled_final/0603_rv.mp4	0.0	167.8160002231598	0.10003495216369629
24	131.91103410720825	fix_pre	0		120	22.0	2.5	/experiments/knapen_AOT/AOT_stimuli/rescaled_final/0908_fw.mp4	0.0	167.9160351753235	1.0001749992370605
24	132.08714509010315	pulse	0	t		22.0	2.5	/experiments/knapen_AOT/AOT_stimuli/rescaled_final/0908_fw.mp4	0.0	168.09214615821838	
24	132.9112091064453	movie	1		243	22.0	2.5	/experiments/knapen_AOT/AOT_stimuli/rescaled_final/0908_fw.mp4	0.0	168.91621017456055	2.500330924987793
24	133.68743300437927	pulse	1	t		22.0	2.5	/experiments/knapen_AOT/AOT_stimuli/rescaled_final/0908_fw.mp4	0.0	169.6924340724945	
24	135.29502701759338	pulse	1	t		22.0	2.5	/experiments/knapen_AOT/AOT_stimuli/rescaled_final/0908_fw.mp4	0.0	171.30002808570862	
24	135.4115400314331	fix_post	2		12	22.0	2.5	/experiments/knapen_AOT/AOT_stimuli/rescaled_final/0908_fw.mp4	0.0	171.41654109954834	0.10006999969482422
25	135.51161003112793	fix_pre	0		120	23.0	2.5	/experiments/knapen_AOT/AOT_stimuli/rescaled_final/1489_rv.mp4	0.0	171.51661109924316	1.0001530647277832
25	136.5117630958557	movie	1		242	23.0	2.5	/experiments/knapen_AOT/AOT_stimuli/rescaled_final/1489_rv.mp4	0.0	172.51676416397095	2.4919869899749756
25	136.8959560394287	pulse	1	t		23.0	2.5	/experiments/knapen_AOT/AOT_stimuli/rescaled_final/1489_rv.mp4	0.0	172.90095710754395	
25	138.4873239994049	pulse	1	t		23.0	2.5	/experiments/knapen_AOT/AOT_stimuli/rescaled_final/1489_rv.mp4	0.0	174.49232506752014	
25	139.0037500858307	fix_post	2		12	23.0	2.5	/experiments/knapen_AOT/AOT_stimuli/rescaled_final/1489_rv.mp4	0.0	175.00875115394592	0.10002708435058594
26	139.10377717018127	fix_pre	0		119	24.0	2.5	/experiments/knapen_AOT/AOT_stimuli/rescaled_final/1754_fw.mp4	0.0	175.1087782382965	0.9918580055236816
26	140.08739519119263	pulse	0	t		24.0	2.5	/experiments/knapen_AOT/AOT_stimuli/rescaled_final/1754_fw.mp4	0.0	176.09239625930786	
26	140.09563517570496	movie	1		248	24.0	2.5	/experiments/knapen_AOT/AOT_stimuli/rescaled_final/1754_fw.mp4	0.0	176.1006362438202	2.508641004562378
26	141.68897199630737	pulse	1	t		24.0	2.5	/experiments/knapen_AOT/AOT_stimuli/rescaled_final/1754_fw.mp4	0.0	177.6939730644226	
26	142.60427618026733	fix_post	2		12	24.0	2.5	/experiments/knapen_AOT/AOT_stimuli/rescaled_final/1754_fw.mp4	0.0	178.60927724838257	0.10004901885986328
27	142.7043251991272	fix_pre	0		120	25.0	2.5	/experiments/knapen_AOT/AOT_stimuli/rescaled_final/0748_rv.mp4	0.0	178.70932626724243	1.0001468658447266
27	143.28802919387817	pulse	0	t		25.0	2.5	/experiments/knapen_AOT/AOT_stimuli/rescaled_final/0748_rv.mp4	0.0	179.2930302619934	
27	143.70447206497192	movie	1		245	25.0	2.5	/experiments/knapen_AOT/AOT_stimuli/rescaled_final/0748_rv.mp4	0.0	179.70947313308716	2.5003390312194824
27	144.88833904266357	pulse	1	t		25.0	2.5	/experiments/knapen_AOT/AOT_stimuli/rescaled_final/0748_rv.mp4	0.0	180.8933401107788	
27	146.2048110961914	fix_post	2		12	25.0	2.5	/experiments/knapen_AOT/AOT_stimuli/rescaled_final/0748_rv.mp4	0.0	182.20981216430664	0.10004591941833496
28	146.30485701560974	fix_pre	0		120	26.0	2.5	/experiments/knapen_AOT/AOT_stimuli/rescaled_final/0018_fw.mp4	0.0	182.30985808372498	1.000136137008667
28	146.48840713500977	pulse	0	t		26.0	2.5	/experiments/knapen_AOT/AOT_stimuli/rescaled_final/0018_fw.mp4	0.0	182.493408203125	
28	147.3049931526184	movie	1		245	26.0	2.5	/experiments/knapen_AOT/AOT_stimuli/rescaled_final/0018_fw.mp4	0.0	183.30999422073364	2.500386953353882
28	148.0885992050171	pulse	1	t		26.0	2.5	/experiments/knapen_AOT/AOT_stimuli/rescaled_final/0018_fw.mp4	0.0	184.09360027313232	
28	149.68891215324402	pulse	1	t		26.0	2.5	/experiments/knapen_AOT/AOT_stimuli/rescaled_final/0018_fw.mp4	0.0	185.69391322135925	
28	149.8053801059723	fix_post	2		12	26.0	2.5	/experiments/knapen_AOT/AOT_stimuli/rescaled_final/0018_fw.mp4	0.0	185.81038117408752	0.10000109672546387
29	149.90538120269775	fix_pre	0		119	27.0	2.5	/experiments/knapen_AOT/AOT_stimuli/rescaled_final/1346_rv.mp4	0.0	185.910382270813	0.9918229579925537
29	150.8972041606903	movie	1		243	27.0	2.5	/experiments/knapen_AOT/AOT_stimuli/rescaled_final/1346_rv.mp4	0.0	186.90220522880554	2.5003390312194824
29	151.2893772125244	pulse	1	t		27.0	2.5	/experiments/knapen_AOT/AOT_stimuli/rescaled_final/1346_rv.mp4	0.0	187.29437828063965	
29	152.88946413993835	pulse	1	t		27.0	2.5	/experiments/knapen_AOT/AOT_stimuli/rescaled_final/1346_rv.mp4	0.0	188.8944652080536	
29	153.3975431919098	fix_post	2		12	27.0	2.5	/experiments/knapen_AOT/AOT_stimuli/rescaled_final/1346_rv.mp4	0.0	189.40254426002502	0.10009884834289551
30	153.49764204025269	fix_pre	0		120	28.0	2.5	blank	1.0	189.50264310836792	1.0001301765441895
30	154.48956203460693	pulse	0	t		28.0	2.5	blank	1.0	190.49456310272217	
30	154.49777221679688	movie	1		301	28.0	2.5	blank	1.0	190.5027732849121	2.5087039470672607
30	156.08997511863708	pulse	1	t		28.0	2.5	blank	1.0	192.09497618675232	
30	157.00647616386414	fix_post	2		12	28.0	2.5	blank	1.0	193.01147723197937	0.09996795654296875
31	157.1064441204071	fix_pre	0		120	29.0	2.5	/experiments/knapen_AOT/AOT_stimuli/rescaled_final/1989_fw.mp4	0.0	193.11144518852234	1.0001800060272217
31	157.69021821022034	pulse	0	t		29.0	2.5	/experiments/knapen_AOT/AOT_stimuli/rescaled_final/1989_fw.mp4	0.0	193.69521927833557	
31	158.10662412643433	movie	1		245	29.0	2.5	/experiments/knapen_AOT/AOT_stimuli/rescaled_final/1989_fw.mp4	0.0	194.11162519454956	2.5003480911254883
31	159.29052901268005	pulse	1	t		29.0	2.5	/experiments/knapen_AOT/AOT_stimuli/rescaled_final/1989_fw.mp4	0.0	195.2955300807953	
31	160.60697221755981	fix_post	2		12	29.0	2.5	/experiments/knapen_AOT/AOT_stimuli/rescaled_final/1989_fw.mp4	0.0	196.61197328567505	0.10006499290466309
32	160.70703721046448	fix_pre	0		120	30.0	2.5	/experiments/knapen_AOT/AOT_stimuli/rescaled_final/1917_fw.mp4	0.0	196.7120382785797	1.0001189708709717
32	160.8905611038208	pulse	0	t		30.0	2.5	/experiments/knapen_AOT/AOT_stimuli/rescaled_final/1917_fw.mp4	0.0	196.89556217193604	
32	161.70715618133545	movie	1		244	30.0	2.5	/experiments/knapen_AOT/AOT_stimuli/rescaled_final/1917_fw.mp4	0.0	197.71215724945068	2.4919979572296143
32	162.490825176239	pulse	1	t		30.0	2.5	/experiments/knapen_AOT/AOT_stimuli/rescaled_final/1917_fw.mp4	0.0	198.49582624435425	
32	164.0884301662445	pulse	1	t		30.0	2.5	/experiments/knapen_AOT/AOT_stimuli/rescaled_final/1917_fw.mp4	0.0	200.09343123435974	
32	164.19915413856506	fix_post	2		12	30.0	2.5	/experiments/knapen_AOT/AOT_stimuli/rescaled_final/1917_fw.mp4	0.0	200.2041552066803	0.1000359058380127
33	164.29919004440308	fix_pre	0		120	31.0	2.5	/experiments/knapen_AOT/AOT_stimuli/rescaled_final/1011_rv.mp4	0.0	200.3041911125183	1.0001649856567383
33	165.29935503005981	movie	1		244	31.0	2.5	/experiments/knapen_AOT/AOT_stimuli/rescaled_final/1011_rv.mp4	0.0	201.30435609817505	2.5003631114959717
33	165.68740010261536	pulse	1	t		31.0	2.5	/experiments/knapen_AOT/AOT_stimuli/rescaled_final/1011_rv.mp4	0.0	201.6924011707306	
33	167.29153203964233	pulse	1	t		31.0	2.5	/experiments/knapen_AOT/AOT_stimuli/rescaled_final/1011_rv.mp4	0.0	203.29653310775757	
33	167.7997181415558	fix_post	2		12	31.0	2.5	/experiments/knapen_AOT/AOT_stimuli/rescaled_final/1011_rv.mp4	0.0	203.80471920967102	0.1000070571899414
34	167.89972519874573	fix_pre	0		120	32.0	2.5	/experiments/knapen_AOT/AOT_stimuli/rescaled_final/1467_fw.mp4	0.0	203.90472626686096	1.0002038478851318
34	168.8916790485382	pulse	0	t		32.0	2.5	/experiments/knapen_AOT/AOT_stimuli/rescaled_final/1467_fw.mp4	0.0	204.89668011665344	
34	168.89992904663086	movie	1		244	32.0	2.5	/experiments/knapen_AOT/AOT_stimuli/rescaled_final/1467_fw.mp4	0.0	204.9049301147461	2.508664131164551
34	170.49676203727722	pulse	1	t		32.0	2.5	/experiments/knapen_AOT/AOT_stimuli/rescaled_final/1467_fw.mp4	0.0	206.50176310539246	
34	171.4085931777954	fix_post	2		12	32.0	2.5	/experiments/knapen_AOT/AOT_stimuli/rescaled_final/1467_fw.mp4	0.0	207.41359424591064	0.09997892379760742
35	171.50857210159302	fix_pre	0		120	33.0	2.5	blank	1.0	207.51357316970825	1.0001540184020996
35	172.0923421382904	pulse	0	t		33.0	2.5	blank	1.0	208.09734320640564	
35	172.50872611999512	movie	1		300	33.0	2.5	blank	1.0	208.51372718811035	2.5004310607910156
35	173.692556142807	pulse	1	t		33.0	2.5	blank	1.0	209.69755721092224	
35	175.00915718078613	fix_post	2		12	33.0	2.5	blank	1.0	211.01415824890137	0.10001492500305176
36	175.10917210578918	fix_pre	0		120	34.0	2.5	/experiments/knapen_AOT/AOT_stimuli/rescaled_final/1536_rv.mp4	0.0	211.11417317390442	1.0001070499420166
36	175.29272317886353	pulse	0	t		34.0	2.5	/experiments/knapen_AOT/AOT_stimuli/rescaled_final/1536_rv.mp4	0.0	211.29772424697876	
36	176.1092791557312	movie	1		243	34.0	2.5	/experiments/knapen_AOT/AOT_stimuli/rescaled_final/1536_rv.mp4	0.0	212.11428022384644	2.4920389652252197
36	176.89298510551453	pulse	1	t		34.0	2.5	/experiments/knapen_AOT/AOT_stimuli/rescaled_final/1536_rv.mp4	0.0	212.89798617362976	
36	178.49333119392395	pulse	1	t		34.0	2.5	/experiments/knapen_AOT/AOT_stimuli/rescaled_final/1536_rv.mp4	0.0	214.49833226203918	
36	178.60131812095642	fix_post	2		12	34.0	2.5	/experiments/knapen_AOT/AOT_stimuli/rescaled_final/1536_rv.mp4	0.0	214.60631918907166	0.10004901885986328
37	178.70136713981628	fix_pre	0		120	35.0	2.5	/experiments/knapen_AOT/AOT_stimuli/rescaled_final/1602_rv.mp4	0.0	214.70636820793152	1.0001790523529053
37	179.7015461921692	movie	1		243	35.0	2.5	/experiments/knapen_AOT/AOT_stimuli/rescaled_final/1602_rv.mp4	0.0	215.70654726028442	2.5003299713134766
37	180.09365701675415	pulse	1	t		35.0	2.5	/experiments/knapen_AOT/AOT_stimuli/rescaled_final/1602_rv.mp4	0.0	216.09865808486938	
37	181.69367504119873	pulse	1	t		35.0	2.5	/experiments/knapen_AOT/AOT_stimuli/rescaled_final/1602_rv.mp4	0.0	217.69867610931396	
37	182.20187616348267	fix_post	2		9	35.0	2.5	/experiments/knapen_AOT/AOT_stimuli/rescaled_final/1602_rv.mp4	0.0	218.2068772315979	0.10007905960083008
38	182.3019552230835	fix_pre	0		120	36.0	2.5	/experiments/knapen_AOT/AOT_stimuli/rescaled_final/0546_fw.mp4	0.0	218.30695629119873	1.000121831893921
38	183.29389214515686	pulse	0	t		36.0	2.5	/experiments/knapen_AOT/AOT_stimuli/rescaled_final/0546_fw.mp4	0.0	219.2988932132721	
38	183.30207705497742	movie	1		245	36.0	2.5	/experiments/knapen_AOT/AOT_stimuli/rescaled_final/0546_fw.mp4	0.0	219.30707812309265	2.5086960792541504
38	184.8944971561432	pulse	1	t		36.0	2.5	/experiments/knapen_AOT/AOT_stimuli/rescaled_final/0546_fw.mp4	0.0	220.89949822425842	
38	185.81077313423157	fix_post	2		12	36.0	2.5	/experiments/knapen_AOT/AOT_stimuli/rescaled_final/0546_fw.mp4	0.0	221.8157742023468	0.09999489784240723
39	185.91076803207397	fix_pre	0		120	37.0	2.5	/experiments/knapen_AOT/AOT_stimuli/rescaled_final/0670_rv.mp4	0.0	221.9157691001892	1.000171184539795
39	186.48691415786743	pulse	0	t		37.0	2.5	/experiments/knapen_AOT/AOT_stimuli/rescaled_final/0670_rv.mp4	0.0	222.49191522598267	
39	186.91093921661377	movie	1		244	37.0	2.5	/experiments/knapen_AOT/AOT_stimuli/rescaled_final/0670_rv.mp4	0.0	222.915940284729	2.5003178119659424
39	188.08673214912415	pulse	1	t		37.0	2.5	/experiments/knapen_AOT/AOT_stimuli/rescaled_final/0670_rv.mp4	0.0	224.09173321723938	
39	189.4112570285797	fix_post	2		12	37.0	2.5	/experiments/knapen_AOT/AOT_stimuli/rescaled_final/0670_rv.mp4	0.0	225.41625809669495	0.10003018379211426
40	189.51128721237183	fix_pre	0		120	38.0	2.5	/experiments/knapen_AOT/AOT_stimuli/rescaled_final/0670_fw.mp4	0.0	225.51628828048706	1.0001440048217773
40	189.68722319602966	pulse	0	t		38.0	2.5	/experiments/knapen_AOT/AOT_stimuli/rescaled_final/0670_fw.mp4	0.0	225.6922242641449	
40	190.5114312171936	movie	1		243	38.0	2.5	/experiments/knapen_AOT/AOT_stimuli/rescaled_final/0670_fw.mp4	0.0	226.51643228530884	2.5003459453582764
40	191.2868411540985	pulse	1	t		38.0	2.5	/experiments/knapen_AOT/AOT_stimuli/rescaled_final/0670_fw.mp4	0.0	227.29184222221375	
40	192.88692116737366	pulse	1	t		38.0	2.5	/experiments/knapen_AOT/AOT_stimuli/rescaled_final/0670_fw.mp4	0.0	228.8919222354889	
40	193.01177716255188	fix_post	2		12	38.0	2.5	/experiments/knapen_AOT/AOT_stimuli/rescaled_final/0670_fw.mp4	0.0	229.01677823066711	0.10006999969482422
41	193.1118471622467	fix_pre	0		119	39.0	2.5	/experiments/knapen_AOT/AOT_stimuli/rescaled_final/2065_rv.mp4	0.0	229.11684823036194	0.9917998313903809
41	194.10364699363708	movie	1		244	39.0	2.5	/experiments/knapen_AOT/AOT_stimuli/rescaled_final/2065_rv.mp4	0.0	230.10864806175232	2.5003461837768555
41	194.48857617378235	pulse	1	t		39.0	2.5	/experiments/knapen_AOT/AOT_stimuli/rescaled_final/2065_rv.mp4	0.0	230.49357724189758	
41	196.08749508857727	pulse	1	t		39.0	2.5	/experiments/knapen_AOT/AOT_stimuli/rescaled_final/2065_rv.mp4	0.0	232.0924961566925	
41	196.60399317741394	fix_post	2		12	39.0	2.5	/experiments/knapen_AOT/AOT_stimuli/rescaled_final/2065_rv.mp4	0.0	232.60899424552917	0.10000991821289062
42	196.70400309562683	fix_pre	0		119	40.0	2.5	/experiments/knapen_AOT/AOT_stimuli/rescaled_final/1639_fw.mp4	0.0	232.70900416374207	0.9918489456176758
42	197.68773102760315	pulse	0	t		40.0	2.5	/experiments/knapen_AOT/AOT_stimuli/rescaled_final/1639_fw.mp4	0.0	233.69273209571838	
42	197.6958520412445	movie	1		244	40.0	2.5	/experiments/knapen_AOT/AOT_stimuli/rescaled_final/1639_fw.mp4	0.0	233.70085310935974	2.5086710453033447
42	199.28914308547974	pulse	1	t		40.0	2.5	/experiments/knapen_AOT/AOT_stimuli/rescaled_final/1639_fw.mp4	0.0	235.29414415359497	
42	200.20452308654785	fix_post	2		12	40.0	2.5	/experiments/knapen_AOT/AOT_stimuli/rescaled_final/1639_fw.mp4	0.0	236.2095241546631	0.10003805160522461
43	200.30456113815308	fix_pre	0		120	41.0	2.5	blank	1.0	236.3095622062683	1.0001499652862549
43	200.88816905021667	pulse	0	t		41.0	2.5	blank	1.0	236.8931701183319	
43	201.30471110343933	movie	1		300	41.0	2.5	blank	1.0	237.30971217155457	2.500386953353882
43	202.48846316337585	pulse	1	t		41.0	2.5	blank	1.0	238.4934642314911	
43	203.8050980567932	fix_post	2		12	41.0	2.5	blank	1.0	239.81009912490845	0.09999394416809082
44	203.9050920009613	fix_pre	0		120	42.0	2.5	/experiments/knapen_AOT/AOT_stimuli/rescaled_final/0516_rv.mp4	0.0	239.91009306907654	1.0001580715179443
44	204.08862113952637	pulse	0	t		42.0	2.5	/experiments/knapen_AOT/AOT_stimuli/rescaled_final/0516_rv.mp4	0.0	240.0936222076416	
44	204.90525007247925	movie	1		244	42.0	2.5	/experiments/knapen_AOT/AOT_stimuli/rescaled_final/0516_rv.mp4	0.0	240.91025114059448	2.5003750324249268
44	205.68896412849426	pulse	1	t		42.0	2.5	/experiments/knapen_AOT/AOT_stimuli/rescaled_final/0516_rv.mp4	0.0	241.6939651966095	
44	207.28921699523926	pulse	1	t		42.0	2.5	/experiments/knapen_AOT/AOT_stimuli/rescaled_final/0516_rv.mp4	0.0	243.2942180633545	
44	207.40562510490417	fix_post	2		12	42.0	2.5	/experiments/knapen_AOT/AOT_stimuli/rescaled_final/0516_rv.mp4	0.0	243.4106261730194	0.10002803802490234
45	207.50565314292908	fix_pre	0		120	43.0	2.5	/experiments/knapen_AOT/AOT_stimuli/rescaled_final/0376_fw.mp4	0.0	243.5106542110443	1.0001280307769775
45	208.50578117370605	movie	1		243	43.0	2.5	/experiments/knapen_AOT/AOT_stimuli/rescaled_final/0376_fw.mp4	0.0	244.5107822418213	2.4920389652252197
45	208.8901071548462	pulse	1	t		43.0	2.5	/experiments/knapen_AOT/AOT_stimuli/rescaled_final/0376_fw.mp4	0.0	244.89510822296143	
45	210.48958015441895	pulse	1	t		43.0	2.5	/experiments/knapen_AOT/AOT_stimuli/rescaled_final/0376_fw.mp4	0.0	246.49458122253418	
45	210.99782013893127	fix_post	2		12	43.0	2.5	/experiments/knapen_AOT/AOT_stimuli/rescaled_final/0376_fw.mp4	0.0	247.0028212070465	0.09999489784240723
46	211.09781503677368	fix_pre	0		120	44.0	2.5	/experiments/knapen_AOT/AOT_stimuli/rescaled_final/1207_rv.mp4	0.0	247.10281610488892	1.0001850128173828
46	212.08995413780212	pulse	0	t		44.0	2.5	/experiments/knapen_AOT/AOT_stimuli/rescaled_final/1207_rv.mp4	0.0	248.09495520591736	
46	212.09800004959106	movie	1		245	44.0	2.5	/experiments/knapen_AOT/AOT_stimuli/rescaled_final/1207_rv.mp4	0.0	248.1030011177063	2.508777141571045
46	213.69068717956543	pulse	1	t		44.0	2.5	/experiments/knapen_AOT/AOT_stimuli/rescaled_final/1207_rv.mp4	0.0	249.69568824768066	
46	214.6067771911621	fix_post	2		12	44.0	2.5	/experiments/knapen_AOT/AOT_stimuli/rescaled_final/1207_rv.mp4	0.0	250.61177825927734	0.09995293617248535
47	214.7067301273346	fix_pre	0		120	45.0	2.5	/experiments/knapen_AOT/AOT_stimuli/rescaled_final/0898_fw.mp4	0.0	250.71173119544983	1.0001320838928223
47	215.2903220653534	pulse	0	t		45.0	2.5	/experiments/knapen_AOT/AOT_stimuli/rescaled_final/0898_fw.mp4	0.0	251.29532313346863	
47	215.70686221122742	movie	1		243	45.0	2.5	/experiments/knapen_AOT/AOT_stimuli/rescaled_final/0898_fw.mp4	0.0	251.71186327934265	2.5003628730773926
47	216.89064502716064	pulse	1	t		45.0	2.5	/experiments/knapen_AOT/AOT_stimuli/rescaled_final/0898_fw.mp4	0.0	252.89564609527588	
47	218.2072250843048	fix_post	2		12	45.0	2.5	/experiments/knapen_AOT/AOT_stimuli/rescaled_final/0898_fw.mp4	0.0	254.21222615242004	0.10004210472106934
48	218.30726718902588	fix_pre	0		120	46.0	2.5	/experiments/knapen_AOT/AOT_stimuli/rescaled_final/1162_fw.mp4	0.0	254.3122682571411	1.0001327991485596
48	218.49085211753845	pulse	0	t		46.0	2.5	/experiments/knapen_AOT/AOT_stimuli/rescaled_final/1162_fw.mp4	0.0	254.4958531856537	
48	219.30739998817444	movie	1		244	46.0	2.5	/experiments/knapen_AOT/AOT_stimuli/rescaled_final/1162_fw.mp4	0.0	255.31240105628967	2.5003561973571777
48	220.0911021232605	pulse	1	t		46.0	2.5	/experiments/knapen_AOT/AOT_stimuli/rescaled_final/1162_fw.mp4	0.0	256.09610319137573	
48	221.69146299362183	pulse	1	t		46.0	2.5	/experiments/knapen_AOT/AOT_stimuli/rescaled_final/1162_fw.mp4	0.0	257.69646406173706	
48	221.80775618553162	fix_post	2		12	46.0	2.5	/experiments/knapen_AOT/AOT_stimuli/rescaled_final/1162_fw.mp4	0.0	257.81275725364685	0.10836982727050781
49	221.91612601280212	fix_pre	0		119	47.0	2.5	blank	1.0	257.92112708091736	0.9918131828308105
49	222.90793919563293	movie	1		299	47.0	2.5	blank	1.0	258.91294026374817	2.492079973220825
49	223.29150319099426	pulse	1	t		47.0	2.5	blank	1.0	259.2965042591095	
49	224.89186120033264	pulse	1	t		47.0	2.5	blank	1.0	260.8968622684479	
49	225.40001916885376	fix_post	2		12	47.0	2.5	blank	1.0	261.405020236969	0.09997892379760742
50	225.49999809265137	fix_pre	0		120	48.0	2.5	/experiments/knapen_AOT/AOT_stimuli/rescaled_final/1875_rv.mp4	0.0	261.5049991607666	1.000148057937622
50	226.49212312698364	pulse	0	t		48.0	2.5	/experiments/knapen_AOT/AOT_stimuli/rescaled_final/1875_rv.mp4	0.0	262.4971241950989	
50	226.500146150589	movie	1		244	48.0	2.5	/experiments/knapen_AOT/AOT_stimuli/rescaled_final/1875_rv.mp4	0.0	262.5051472187042	2.5086820125579834
50	228.0936450958252	pulse	1	t		48.0	2.5	/experiments/knapen_AOT/AOT_stimuli/rescaled_final/1875_rv.mp4	0.0	264.09864616394043	
50	229.00882816314697	fix_post	2		12	48.0	2.5	/experiments/knapen_AOT/AOT_stimuli/rescaled_final/1875_rv.mp4	0.0	265.0138292312622	0.10001802444458008
51	229.10884618759155	fix_pre	0		120	49.0	2.5	/experiments/knapen_AOT/AOT_stimuli/rescaled_final/0044_fw.mp4	0.0	265.1138472557068	1.000303030014038
51	229.69246220588684	pulse	0	t		49.0	2.5	/experiments/knapen_AOT/AOT_stimuli/rescaled_final/0044_fw.mp4	0.0	265.6974632740021	
51	230.1091492176056	movie	1		243	49.0	2.5	/experiments/knapen_AOT/AOT_stimuli/rescaled_final/0044_fw.mp4	0.0	266.1141502857208	2.500220775604248
51	231.2927610874176	pulse	1	t		49.0	2.5	/experiments/knapen_AOT/AOT_stimuli/rescaled_final/0044_fw.mp4	0.0	267.29776215553284	
51	232.60936999320984	fix_post	2		12	49.0	2.5	/experiments/knapen_AOT/AOT_stimuli/rescaled_final/0044_fw.mp4	0.0	268.6143710613251	0.10002303123474121
52	232.70939302444458	fix_pre	0		120	50.0	2.5	/experiments/knapen_AOT/AOT_stimuli/rescaled_final/0286_fw.mp4	0.0	268.7143940925598	1.0001420974731445
52	232.89303421974182	pulse	0	t		50.0	2.5	/experiments/knapen_AOT/AOT_stimuli/rescaled_final/0286_fw.mp4	0.0	268.89803528785706	
52	233.70953512191772	movie	1		243	50.0	2.5	/experiments/knapen_AOT/AOT_stimuli/rescaled_final/0286_fw.mp4	0.0	269.71453619003296	2.5003678798675537
52	234.49333000183105	pulse	1	t		50.0	2.5	/experiments/knapen_AOT/AOT_stimuli/rescaled_final/0286_fw.mp4	0.0	270.4983310699463	
52	236.09316515922546	pulse	1	t		50.0	2.5	/experiments/knapen_AOT/AOT_stimuli/rescaled_final/0286_fw.mp4	0.0	272.0981662273407	
52	236.20990300178528	fix_post	2		12	50.0	2.5	/experiments/knapen_AOT/AOT_stimuli/rescaled_final/0286_fw.mp4	0.0	272.2149040699005	0.10001707077026367
53	236.30992007255554	fix_pre	0		120	51.0	2.5	/experiments/knapen_AOT/AOT_stimuli/rescaled_final/1882_rv.mp4	0.0	272.3149211406708	1.0001840591430664
53	237.3101041316986	movie	1		242	51.0	2.5	/experiments/knapen_AOT/AOT_stimuli/rescaled_final/1882_rv.mp4	0.0	273.31510519981384	2.491978883743286
53	237.6950170993805	pulse	1	t		51.0	2.5	/experiments/knapen_AOT/AOT_stimuli/rescaled_final/1882_rv.mp4	0.0	273.7000181674957	
53	239.29402208328247	pulse	1	t		51.0	2.5	/experiments/knapen_AOT/AOT_stimuli/rescaled_final/1882_rv.mp4	0.0	275.2990231513977	
53	239.8020830154419	fix_post	2		12	51.0	2.5	/experiments/knapen_AOT/AOT_stimuli/rescaled_final/1882_rv.mp4	0.0	275.80708408355713	0.10008502006530762
54	239.9021680355072	fix_pre	0		120	52.0	2.5	/experiments/knapen_AOT/AOT_stimuli/rescaled_final/0149_fw.mp4	0.0	275.90716910362244	1.0001001358032227
54	240.8942232131958	pulse	0	t		52.0	2.5	/experiments/knapen_AOT/AOT_stimuli/rescaled_final/0149_fw.mp4	0.0	276.89922428131104	
54	240.90226817131042	movie	1		241	52.0	2.5	/experiments/knapen_AOT/AOT_stimuli/rescaled_final/0149_fw.mp4	0.0	276.90726923942566	2.508697986602783
54	242.49517822265625	pulse	1	t		52.0	2.5	/experiments/knapen_AOT/AOT_stimuli/rescaled_final/0149_fw.mp4	0.0	278.5001792907715	
54	243.4109661579132	fix_post	2		12	52.0	2.5	/experiments/knapen_AOT/AOT_stimuli/rescaled_final/0149_fw.mp4	0.0	279.41596722602844	0.10006499290466309
55	243.51103115081787	fix_pre	0		120	53.0	2.5	/experiments/knapen_AOT/AOT_stimuli/rescaled_final/0018_fw.mp4	0.0	279.5160322189331	1.000169038772583
55	244.08719611167908	pulse	0	t		53.0	2.5	/experiments/knapen_AOT/AOT_stimuli/rescaled_final/0018_fw.mp4	0.0	280.0921971797943	
55	244.51120018959045	movie	1		245	53.0	2.5	/experiments/knapen_AOT/AOT_stimuli/rescaled_final/0018_fw.mp4	0.0	280.5162012577057	2.500325918197632
55	245.69493222236633	pulse	1	t		53.0	2.5	/experiments/knapen_AOT/AOT_stimuli/rescaled_final/0018_fw.mp4	0.0	281.69993329048157	
55	247.0115261077881	fix_post	2		12	53.0	2.5	/experiments/knapen_AOT/AOT_stimuli/rescaled_final/0018_fw.mp4	0.0	283.0165271759033	0.09996390342712402
56	247.1114900112152	fix_pre	0		120	54.0	2.5	/experiments/knapen_AOT/AOT_stimuli/rescaled_final/0236_rv.mp4	0.0	283.11649107933044	1.0001800060272217
56	247.28750920295715	pulse	0	t		54.0	2.5	/experiments/knapen_AOT/AOT_stimuli/rescaled_final/0236_rv.mp4	0.0	283.2925102710724	
56	248.11167001724243	movie	1		245	54.0	2.5	/experiments/knapen_AOT/AOT_stimuli/rescaled_final/0236_rv.mp4	0.0	284.11667108535767	2.5003960132598877
56	248.88797903060913	pulse	1	t		54.0	2.5	/experiments/knapen_AOT/AOT_stimuli/rescaled_final/0236_rv.mp4	0.0	284.89298009872437	
56	250.48728013038635	pulse	1	t		54.0	2.5	/experiments/knapen_AOT/AOT_stimuli/rescaled_final/0236_rv.mp4	0.0	286.4922811985016	
56	250.61206603050232	fix_post	2		12	54.0	2.5	/experiments/knapen_AOT/AOT_stimuli/rescaled_final/0236_rv.mp4	0.0	286.61706709861755	0.10003519058227539
57	250.7121012210846	fix_pre	0		120	55.0	2.5	blank	1.0	286.71710228919983	1.0001537799835205
57	251.71225500106812	movie	1		299	55.0	2.5	blank	1.0	287.71725606918335	2.492033004760742
57	252.08743715286255	pulse	1	t		55.0	2.5	blank	1.0	288.0924382209778	
57	253.68760108947754	pulse	1	t		55.0	2.5	blank	1.0	289.6926021575928	
57	254.20428800582886	fix_post	2		12	55.0	2.5	blank	1.0	290.2092890739441	0.09999203681945801
58	254.30428004264832	fix_pre	0		119	56.0	2.5	/experiments/knapen_AOT/AOT_stimuli/rescaled_final/1503_rv.mp4	0.0	290.30928111076355	0.9918241500854492
58	255.28792810440063	pulse	0	t		56.0	2.5	/experiments/knapen_AOT/AOT_stimuli/rescaled_final/1503_rv.mp4	0.0	291.29292917251587	
58	255.29610419273376	movie	1		245	56.0	2.5	/experiments/knapen_AOT/AOT_stimuli/rescaled_final/1503_rv.mp4	0.0	291.301105260849	2.5086588859558105
58	256.88888716697693	pulse	1	t		56.0	2.5	/experiments/knapen_AOT/AOT_stimuli/rescaled_final/1503_rv.mp4	0.0	292.89388823509216	
58	257.8047630786896	fix_post	2		12	56.0	2.5	/experiments/knapen_AOT/AOT_stimuli/rescaled_final/1503_rv.mp4	0.0	293.8097641468048	0.10003995895385742
59	257.90480303764343	fix_pre	0		120	57.0	2.5	/experiments/knapen_AOT/AOT_stimuli/rescaled_final/1250_rv.mp4	0.0	293.90980410575867	1.0001931190490723
59	258.4884121417999	pulse	0	t		57.0	2.5	/experiments/knapen_AOT/AOT_stimuli/rescaled_final/1250_rv.mp4	0.0	294.49341320991516	
59	258.9049961566925	movie	1		245	57.0	2.5	/experiments/knapen_AOT/AOT_stimuli/rescaled_final/1250_rv.mp4	0.0	294.90999722480774	2.500309944152832
59	260.0887351036072	pulse	1	t		57.0	2.5	/experiments/knapen_AOT/AOT_stimuli/rescaled_final/1250_rv.mp4	0.0	296.0937361717224	
59	261.40530610084534	fix_post	2		12	57.0	2.5	/experiments/knapen_AOT/AOT_stimuli/rescaled_final/1250_rv.mp4	0.0	297.41030716896057	0.10002708435058594
60	261.5053331851959	fix_pre	0		120	58.0	2.5	/experiments/knapen_AOT/AOT_stimuli/rescaled_final/1580_fw.mp4	0.0	297.51033425331116	1.0001599788665771
60	261.689013004303	pulse	0	t		58.0	2.5	/experiments/knapen_AOT/AOT_stimuli/rescaled_final/1580_fw.mp4	0.0	297.6940140724182	
60	262.5054931640625	movie	1		244	58.0	2.5	/experiments/knapen_AOT/AOT_stimuli/rescaled_final/1580_fw.mp4	0.0	298.51049423217773	2.5003409385681152
60	263.28910207748413	pulse	1	t		58.0	2.5	/experiments/knapen_AOT/AOT_stimuli/rescaled_final/1580_fw.mp4	0.0	299.29410314559937	
60	264.8893291950226	pulse	1	t		58.0	2.5	/experiments/knapen_AOT/AOT_stimuli/rescaled_final/1580_fw.mp4	0.0	300.8943302631378	
60	265.0058341026306	fix_post	2		12	58.0	2.5	/experiments/knapen_AOT/AOT_stimuli/rescaled_final/1580_fw.mp4	0.0	301.01083517074585	0.10003304481506348
61	265.1058671474457	fix_pre	0		120	59.0	2.5	/experiments/knapen_AOT/AOT_stimuli/rescaled_final/0721_fw.mp4	0.0	301.1108682155609	1.000175952911377
61	266.10604310035706	movie	1		244	59.0	2.5	/experiments/knapen_AOT/AOT_stimuli/rescaled_final/0721_fw.mp4	0.0	302.1110441684723	2.49202299118042
61	266.49026322364807	pulse	1	t		59.0	2.5	/experiments/knapen_AOT/AOT_stimuli/rescaled_final/0721_fw.mp4	0.0	302.4952642917633	
61	268.0898292064667	pulse	1	t		59.0	2.5	/experiments/knapen_AOT/AOT_stimuli/rescaled_final/0721_fw.mp4	0.0	304.0948302745819	
61	268.5980660915375	fix_post	2		12	59.0	2.5	/experiments/knapen_AOT/AOT_stimuli/rescaled_final/0721_fw.mp4	0.0	304.6030671596527	0.10000991821289062
62	268.69807600975037	fix_pre	0		120	60.0	2.5	/experiments/knapen_AOT/AOT_stimuli/rescaled_final/1613_rv.mp4	0.0	304.7030770778656	1.0001721382141113
62	269.69012904167175	pulse	0	t		60.0	2.5	/experiments/knapen_AOT/AOT_stimuli/rescaled_final/1613_rv.mp4	0.0	305.695130109787	
62	269.6982481479645	movie	1		246	60.0	2.5	/experiments/knapen_AOT/AOT_stimuli/rescaled_final/1613_rv.mp4	0.0	305.7032492160797	2.5086629390716553
62	271.2909309864044	pulse	1	t		60.0	2.5	/experiments/knapen_AOT/AOT_stimuli/rescaled_final/1613_rv.mp4	0.0	307.29593205451965	
62	272.20691108703613	fix_post	2		12	60.0	2.5	/experiments/knapen_AOT/AOT_stimuli/rescaled_final/1613_rv.mp4	0.0	308.21191215515137	0.10007095336914062
63	272.3069820404053	fix_pre	0		120	61.0	2.5	/experiments/knapen_AOT/AOT_stimuli/rescaled_final/0379_fw.mp4	0.0	308.3119831085205	1.000108003616333
63	272.89054012298584	pulse	0	t		61.0	2.5	/experiments/knapen_AOT/AOT_stimuli/rescaled_final/0379_fw.mp4	0.0	308.8955411911011	
63	273.3070900440216	movie	1		244	61.0	2.5	/experiments/knapen_AOT/AOT_stimuli/rescaled_final/0379_fw.mp4	0.0	309.31209111213684	2.500427007675171
63	274.48703122138977	pulse	1	t		61.0	2.5	/experiments/knapen_AOT/AOT_stimuli/rescaled_final/0379_fw.mp4	0.0	310.492032289505	
63	275.8075170516968	fix_post	2		12	61.0	2.5	/experiments/knapen_AOT/AOT_stimuli/rescaled_final/0379_fw.mp4	0.0	311.812518119812	0.09996294975280762
64	275.9074800014496	fix_pre	0		120	62.0	2.5	blank	1.0	311.9124810695648	1.0001640319824219
64	276.0910711288452	pulse	0	t		62.0	2.5	blank	1.0	312.09607219696045	
64	276.907644033432	movie	1		300	62.0	2.5	blank	1.0	312.91264510154724	2.500394105911255
64	277.69137811660767	pulse	1	t		62.0	2.5	blank	1.0	313.6963791847229	
64	279.29149317741394	pulse	1	t		62.0	2.5	blank	1.0	315.2964942455292	
64	279.40803813934326	fix_post	2		12	62.0	2.5	blank	1.0	315.4130392074585	0.10001087188720703
65	279.50804901123047	fix_pre	0		120	63.0	2.5	/experiments/knapen_AOT/AOT_stimuli/rescaled_final/0937_fw.mp4	0.0	315.5130500793457	1.000096082687378
65	280.50814509391785	movie	1		242	63.0	2.5	/experiments/knapen_AOT/AOT_stimuli/rescaled_final/0937_fw.mp4	0.0	316.5131461620331	2.4921469688415527
65	280.8923761844635	pulse	1	t		63.0	2.5	/experiments/knapen_AOT/AOT_stimuli/rescaled_final/0937_fw.mp4	0.0	316.89737725257874	
65	282.4919672012329	pulse	1	t		63.0	2.5	/experiments/knapen_AOT/AOT_stimuli/rescaled_final/0937_fw.mp4	0.0	318.49696826934814	
65	283.0002920627594	fix_post	2		12	63.0	2.5	/experiments/knapen_AOT/AOT_stimuli/rescaled_final/0937_fw.mp4	0.0	319.00529313087463	0.09995698928833008
66	283.10024905204773	fix_pre	0		120	64.0	2.5	/experiments/knapen_AOT/AOT_stimuli/rescaled_final/1072_fw.mp4	0.0	319.10525012016296	1.0001471042633057
66	284.0922751426697	pulse	0	t		64.0	2.5	/experiments/knapen_AOT/AOT_stimuli/rescaled_final/1072_fw.mp4	0.0	320.0972762107849	
66	284.10039615631104	movie	1		244	64.0	2.5	/experiments/knapen_AOT/AOT_stimuli/rescaled_final/1072_fw.mp4	0.0	320.10539722442627	2.5088229179382324
66	285.69308519363403	pulse	1	t		64.0	2.5	/experiments/knapen_AOT/AOT_stimuli/rescaled_final/1072_fw.mp4	0.0	321.69808626174927	
66	286.60921907424927	fix_post	2		12	64.0	2.5	/experiments/knapen_AOT/AOT_stimuli/rescaled_final/1072_fw.mp4	0.0	322.6142201423645	0.09988093376159668
67	286.70910000801086	fix_pre	0		120	65.0	2.5	/experiments/knapen_AOT/AOT_stimuli/rescaled_final/0149_fw.mp4	0.0	322.7141010761261	1.000128984451294
67	287.29265308380127	pulse	0	t		65.0	2.5	/experiments/knapen_AOT/AOT_stimuli/rescaled_final/0149_fw.mp4	0.0	323.2976541519165	
67	287.70922899246216	movie	1		244	65.0	2.5	/experiments/knapen_AOT/AOT_stimuli/rescaled_final/0149_fw.mp4	0.0	323.7142300605774	2.500434160232544
67	288.89297008514404	pulse	1	t		65.0	2.5	/experiments/knapen_AOT/AOT_stimuli/rescaled_final/0149_fw.mp4	0.0	324.8979711532593	
67	290.2096631526947	fix_post	2		12	65.0	2.5	/experiments/knapen_AOT/AOT_stimuli/rescaled_final/0149_fw.mp4	0.0	326.21466422080994	0.09997296333312988
68	290.30963611602783	fix_pre	0		120	66.0	2.5	/experiments/knapen_AOT/AOT_stimuli/rescaled_final/0286_rv.mp4	0.0	326.31463718414307	1.0001850128173828
68	290.49321699142456	pulse	0	t		66.0	2.5	/experiments/knapen_AOT/AOT_stimuli/rescaled_final/0286_rv.mp4	0.0	326.4982180595398	
68	291.3098211288452	movie	1		243	66.0	2.5	/experiments/knapen_AOT/AOT_stimuli/rescaled_final/0286_rv.mp4	0.0	327.31482219696045	2.5004498958587646
68	292.0934970378876	pulse	1	t		66.0	2.5	/experiments/knapen_AOT/AOT_stimuli/rescaled_final/0286_rv.mp4	0.0	328.0984981060028	
68	293.693852186203	pulse	1	t		66.0	2.5	/experiments/knapen_AOT/AOT_stimuli/rescaled_final/0286_rv.mp4	0.0	329.69885325431824	
68	293.810271024704	fix_post	2		12	66.0	2.5	/experiments/knapen_AOT/AOT_stimuli/rescaled_final/0286_rv.mp4	0.0	329.8152720928192	0.09990406036376953
69	293.91017508506775	fix_pre	0		120	67.0	2.5	/experiments/knapen_AOT/AOT_stimuli/rescaled_final/0417_rv.mp4	0.0	329.915176153183	1.0001499652862549
69	294.910325050354	movie	1		243	67.0	2.5	/experiments/knapen_AOT/AOT_stimuli/rescaled_final/0417_rv.mp4	0.0	330.91532611846924	2.49202299118042
69	295.294527053833	pulse	1	t		67.0	2.5	/experiments/knapen_AOT/AOT_stimuli/rescaled_final/0417_rv.mp4	0.0	331.29952812194824	
69	296.88705015182495	pulse	1	t		67.0	2.5	/experiments/knapen_AOT/AOT_stimuli/rescaled_final/0417_rv.mp4	0.0	332.8920512199402	
69	297.4023480415344	fix_post	2		12	67.0	2.5	/experiments/knapen_AOT/AOT_stimuli/rescaled_final/0417_rv.mp4	0.0	333.40734910964966	0.10001301765441895
70	297.50236105918884	fix_pre	0		120	68.0	2.5	/experiments/knapen_AOT/AOT_stimuli/rescaled_final/1845_fw.mp4	0.0	333.5073621273041	1.000216007232666
70	298.48687720298767	pulse	0	t		68.0	2.5	/experiments/knapen_AOT/AOT_stimuli/rescaled_final/1845_fw.mp4	0.0	334.4918782711029	
70	298.5025770664215	movie	1		244	68.0	2.5	/experiments/knapen_AOT/AOT_stimuli/rescaled_final/1845_fw.mp4	0.0	334.50757813453674	2.508648157119751
70	300.0952351093292	pulse	1	t		68.0	2.5	/experiments/knapen_AOT/AOT_stimuli/rescaled_final/1845_fw.mp4	0.0	336.10023617744446	
70	301.01122522354126	fix_post	2		12	68.0	2.5	/experiments/knapen_AOT/AOT_stimuli/rescaled_final/1845_fw.mp4	0.0	337.0162262916565	0.10005998611450195
71	301.11128520965576	fix_pre	0		120	69.0	2.5	blank	1.0	337.116286277771	1.0027239322662354
71	301.68729305267334	pulse	0	t		69.0	2.5	blank	1.0	337.6922941207886	
71	302.114009141922	movie	1		297	69.0	2.5	blank	1.0	338.11901021003723	2.4978768825531006
71	303.28781819343567	pulse	1	t		69.0	2.5	blank	1.0	339.2928192615509	
71	304.6118860244751	fix_post	2		12	69.0	2.5	blank	1.0	340.61688709259033	0.09990119934082031
72	304.7117872238159	fix_pre	0		120	70.0	2.5	/experiments/knapen_AOT/AOT_stimuli/rescaled_final/1354_fw.mp4	0.0	340.71678829193115	1.0001909732818604
72	304.8877820968628	pulse	0	t		70.0	2.5	/experiments/knapen_AOT/AOT_stimuli/rescaled_final/1354_fw.mp4	0.0	340.892783164978	
72	305.7119781970978	movie	1		244	70.0	2.5	/experiments/knapen_AOT/AOT_stimuli/rescaled_final/1354_fw.mp4	0.0	341.716979265213	2.5003249645233154
72	306.4872291088104	pulse	1	t		70.0	2.5	/experiments/knapen_AOT/AOT_stimuli/rescaled_final/1354_fw.mp4	0.0	342.49223017692566	
72	308.0874071121216	pulse	1	t		70.0	2.5	/experiments/knapen_AOT/AOT_stimuli/rescaled_final/1354_fw.mp4	0.0	344.0924081802368	
72	308.2123031616211	fix_post	2		12	70.0	2.5	/experiments/knapen_AOT/AOT_stimuli/rescaled_final/1354_fw.mp4	0.0	344.2173042297363	0.10001397132873535
73	308.31231713294983	fix_pre	0		119	71.0	2.5	/experiments/knapen_AOT/AOT_stimuli/rescaled_final/1831_rv.mp4	0.0	344.31731820106506	0.9918138980865479
73	309.3041310310364	movie	1		243	71.0	2.5	/experiments/knapen_AOT/AOT_stimuli/rescaled_final/1831_rv.mp4	0.0	345.3091320991516	2.500357151031494
73	309.6889932155609	pulse	1	t		71.0	2.5	/experiments/knapen_AOT/AOT_stimuli/rescaled_final/1831_rv.mp4	0.0	345.69399428367615	
73	311.28804421424866	pulse	1	t		71.0	2.5	/experiments/knapen_AOT/AOT_stimuli/rescaled_final/1831_rv.mp4	0.0	347.2930452823639	
73	311.80448818206787	fix_post	2		12	71.0	2.5	/experiments/knapen_AOT/AOT_stimuli/rescaled_final/1831_rv.mp4	0.0	347.8094892501831	0.10003781318664551
74	311.9045259952545	fix_pre	0		119	72.0	2.5	/experiments/knapen_AOT/AOT_stimuli/rescaled_final/0574_rv.mp4	0.0	347.90952706336975	0.9918370246887207
74	312.88821506500244	pulse	0	t		72.0	2.5	/experiments/knapen_AOT/AOT_stimuli/rescaled_final/0574_rv.mp4	0.0	348.8932161331177	
74	312.89636301994324	movie	1		247	72.0	2.5	/experiments/knapen_AOT/AOT_stimuli/rescaled_final/0574_rv.mp4	0.0	348.9013640880585	2.508648157119751
74	314.4889771938324	pulse	1	t		72.0	2.5	/experiments/knapen_AOT/AOT_stimuli/rescaled_final/0574_rv.mp4	0.0	350.49397826194763	
74	315.405011177063	fix_post	2		12	72.0	2.5	/experiments/knapen_AOT/AOT_stimuli/rescaled_final/0574_rv.mp4	0.0	351.4100122451782	0.10004186630249023
75	315.5050530433655	fix_pre	0		120	73.0	2.5	/experiments/knapen_AOT/AOT_stimuli/rescaled_final/0984_rv.mp4	0.0	351.5100541114807	1.0001630783081055
75	316.08863401412964	pulse	0	t		73.0	2.5	/experiments/knapen_AOT/AOT_stimuli/rescaled_final/0984_rv.mp4	0.0	352.0936350822449	
75	316.5052161216736	movie	1		244	73.0	2.5	/experiments/knapen_AOT/AOT_stimuli/rescaled_final/0984_rv.mp4	0.0	352.5102171897888	2.5004119873046875
75	317.6889750957489	pulse	1	t		73.0	2.5	/experiments/knapen_AOT/AOT_stimuli/rescaled_final/0984_rv.mp4	0.0	353.69397616386414	
75	319.00562810897827	fix_post	2		12	73.0	2.5	/experiments/knapen_AOT/AOT_stimuli/rescaled_final/0984_rv.mp4	0.0	355.0106291770935	0.09997892379760742
76	319.1056070327759	fix_pre	0		120	74.0	2.5	/experiments/knapen_AOT/AOT_stimuli/rescaled_final/1511_fw.mp4	0.0	355.1106081008911	1.0001461505889893
76	319.28923201560974	pulse	0	t		74.0	2.5	/experiments/knapen_AOT/AOT_stimuli/rescaled_final/1511_fw.mp4	0.0	355.294233083725	
76	320.10575318336487	movie	1		243	74.0	2.5	/experiments/knapen_AOT/AOT_stimuli/rescaled_final/1511_fw.mp4	0.0	356.1107542514801	2.500382900238037
76	320.88936710357666	pulse	1	t		74.0	2.5	/experiments/knapen_AOT/AOT_stimuli/rescaled_final/1511_fw.mp4	0.0	356.8943681716919	
76	322.4895989894867	pulse	1	t		74.0	2.5	/experiments/knapen_AOT/AOT_stimuli/rescaled_final/1511_fw.mp4	0.0	358.49460005760193	
76	322.6061360836029	fix_post	2		12	74.0	2.5	/experiments/knapen_AOT/AOT_stimuli/rescaled_final/1511_fw.mp4	0.0	358.61113715171814	0.09999799728393555
77	322.70613408088684	fix_pre	0		120	75.0	2.5	blank	1.0	358.7111351490021	1.0001540184020996
77	323.70628809928894	movie	1		299	75.0	2.5	blank	1.0	359.7112891674042	2.4920461177825928
77	324.0899121761322	pulse	1	t		75.0	2.5	blank	1.0	360.09491324424744	
77	325.6902301311493	pulse	1	t		75.0	2.5	blank	1.0	361.6952311992645	
77	326.19833421707153	fix_post	2		12	75.0	2.5	blank	1.0	362.20333528518677	0.10001277923583984
78	326.2983469963074	fix_pre	0		120	76.0	2.5	/experiments/knapen_AOT/AOT_stimuli/rescaled_final/1511_rv.mp4	0.0	362.3033480644226	1.000169038772583
78	327.2903571128845	pulse	0	t		76.0	2.5	/experiments/knapen_AOT/AOT_stimuli/rescaled_final/1511_rv.mp4	0.0	363.29535818099976	
78	327.29851603507996	movie	1		244	76.0	2.5	/experiments/knapen_AOT/AOT_stimuli/rescaled_final/1511_rv.mp4	0.0	363.3035171031952	2.508751153945923
78	328.8944561481476	pulse	1	t		76.0	2.5	/experiments/knapen_AOT/AOT_stimuli/rescaled_final/1511_rv.mp4	0.0	364.8994572162628	
78	329.8072671890259	fix_post	2		12	76.0	2.5	/experiments/knapen_AOT/AOT_stimuli/rescaled_final/1511_rv.mp4	0.0	365.8122682571411	0.09993982315063477
79	329.9072070121765	fix_pre	0		120	77.0	2.5	/experiments/knapen_AOT/AOT_stimuli/rescaled_final/1254_fw.mp4	0.0	365.91220808029175	1.0001530647277832
79	330.490914106369	pulse	0	t		77.0	2.5	/experiments/knapen_AOT/AOT_stimuli/rescaled_final/1254_fw.mp4	0.0	366.49591517448425	
79	330.9073600769043	movie	1		245	77.0	2.5	/experiments/knapen_AOT/AOT_stimuli/rescaled_final/1254_fw.mp4	0.0	366.91236114501953	2.5003890991210938
79	332.09122109413147	pulse	1	t		77.0	2.5	/experiments/knapen_AOT/AOT_stimuli/rescaled_final/1254_fw.mp4	0.0	368.0962221622467	
79	333.4077491760254	fix_post	2		12	77.0	2.5	/experiments/knapen_AOT/AOT_stimuli/rescaled_final/1254_fw.mp4	0.0	369.4127502441406	0.10000896453857422
80	333.50775814056396	fix_pre	0		120	78.0	2.5	/experiments/knapen_AOT/AOT_stimuli/rescaled_final/0102_fw.mp4	0.0	369.5127592086792	1.0001220703125
80	333.6913230419159	pulse	0	t		78.0	2.5	/experiments/knapen_AOT/AOT_stimuli/rescaled_final/0102_fw.mp4	0.0	369.6963241100311	
80	334.50788021087646	movie	1		245	78.0	2.5	/experiments/knapen_AOT/AOT_stimuli/rescaled_final/0102_fw.mp4	0.0	370.5128812789917	2.5003600120544434
80	335.291472196579	pulse	1	t		78.0	2.5	/experiments/knapen_AOT/AOT_stimuli/rescaled_final/0102_fw.mp4	0.0	371.2964732646942	
80	336.88929200172424	pulse	1	t		78.0	2.5	/experiments/knapen_AOT/AOT_stimuli/rescaled_final/0102_fw.mp4	0.0	372.8942930698395	
80	337.0082402229309	fix_post	2		12	78.0	2.5	/experiments/knapen_AOT/AOT_stimuli/rescaled_final/0102_fw.mp4	0.0	373.01324129104614	0.10003399848937988
81	337.1082742214203	fix_pre	0		119	79.0	2.5	/experiments/knapen_AOT/AOT_stimuli/rescaled_final/0863_fw.mp4	0.0	373.1132752895355	0.9917957782745361
81	338.1000699996948	movie	1		244	79.0	2.5	/experiments/knapen_AOT/AOT_stimuli/rescaled_final/0863_fw.mp4	0.0	374.10507106781006	2.5004730224609375
81	338.4921200275421	pulse	1	t		79.0	2.5	/experiments/knapen_AOT/AOT_stimuli/rescaled_final/0863_fw.mp4	0.0	374.49712109565735	
81	340.09234499931335	pulse	1	t		79.0	2.5	/experiments/knapen_AOT/AOT_stimuli/rescaled_final/0863_fw.mp4	0.0	376.0973460674286	
81	340.60054302215576	fix_post	2		12	79.0	2.5	/experiments/knapen_AOT/AOT_stimuli/rescaled_final/0863_fw.mp4	0.0	376.605544090271	0.09998607635498047
82	340.70052909851074	fix_pre	0		120	80.0	2.5	/experiments/knapen_AOT/AOT_stimuli/rescaled_final/0126_fw.mp4	0.0	376.705530166626	1.000101089477539
82	341.69245505332947	pulse	0	t		80.0	2.5	/experiments/knapen_AOT/AOT_stimuli/rescaled_final/0126_fw.mp4	0.0	377.6974561214447	
82	341.7006301879883	movie	1		244	80.0	2.5	/experiments/knapen_AOT/AOT_stimuli/rescaled_final/0126_fw.mp4	0.0	377.7056312561035	2.5086748600006104
82	343.29314708709717	pulse	1	t		80.0	2.5	/experiments/knapen_AOT/AOT_stimuli/rescaled_final/0126_fw.mp4	0.0	379.2981481552124	
82	344.2093050479889	fix_post	2		12	80.0	2.5	/experiments/knapen_AOT/AOT_stimuli/rescaled_final/0126_fw.mp4	0.0	380.2143061161041	0.10003209114074707
83	344.30933713912964	fix_pre	0		120	81.0	2.5	/experiments/knapen_AOT/AOT_stimuli/rescaled_final/1682_rv.mp4	0.0	380.3143382072449	1.0001718997955322
83	344.89307498931885	pulse	0	t		81.0	2.5	/experiments/knapen_AOT/AOT_stimuli/rescaled_final/1682_rv.mp4	0.0	380.8980760574341	
83	345.30950903892517	movie	1		244	81.0	2.5	/experiments/knapen_AOT/AOT_stimuli/rescaled_final/1682_rv.mp4	0.0	381.3145101070404	2.5003631114959717
83	346.4933741092682	pulse	1	t		81.0	2.5	/experiments/knapen_AOT/AOT_stimuli/rescaled_final/1682_rv.mp4	0.0	382.4983751773834	
83	347.80987215042114	fix_post	2		12	81.0	2.5	/experiments/knapen_AOT/AOT_stimuli/rescaled_final/1682_rv.mp4	0.0	383.8148732185364	0.10003185272216797
84	347.9099040031433	fix_pre	0		120	82.0	2.5	/experiments/knapen_AOT/AOT_stimuli/rescaled_final/0142_rv.mp4	0.0	383.91490507125854	1.000115156173706
84	348.09343910217285	pulse	0	t		82.0	2.5	/experiments/knapen_AOT/AOT_stimuli/rescaled_final/0142_rv.mp4	0.0	384.0984401702881	
84	348.910019159317	movie	1		245	82.0	2.5	/experiments/knapen_AOT/AOT_stimuli/rescaled_final/0142_rv.mp4	0.0	384.91502022743225	2.500354051589966
84	349.6936230659485	pulse	1	t		82.0	2.5	/experiments/knapen_AOT/AOT_stimuli/rescaled_final/0142_rv.mp4	0.0	385.6986241340637	
84	351.29139614105225	pulse	1	t		82.0	2.5	/experiments/knapen_AOT/AOT_stimuli/rescaled_final/0142_rv.mp4	0.0	387.2963972091675	
84	351.410373210907	fix_post	2		12	82.0	2.5	/experiments/knapen_AOT/AOT_stimuli/rescaled_final/0142_rv.mp4	0.0	387.4153742790222	0.10004782676696777
85	351.51042103767395	fix_pre	0		119	83.0	2.5	blank	1.0	387.5154221057892	0.9918580055236816
85	352.50227904319763	movie	1		300	83.0	2.5	blank	1.0	388.50728011131287	2.500343084335327
85	352.88664412498474	pulse	1	t		83.0	2.5	blank	1.0	388.8916451931	
85	354.4869420528412	pulse	1	t		83.0	2.5	blank	1.0	390.4919431209564	
85	355.00262212753296	fix_post	2		12	83.0	2.5	blank	1.0	391.0076231956482	0.10000991821289062
87	355.10263204574585	stim	0		1716					391.1076331138611	14.302235126495361
87	356.0874261856079	pulse	0	t						392.09242725372314	
87	357.6875801086426	pulse	0	t						393.6925811767578	
87	359.28669118881226	pulse	0	t						395.2916922569275	
87	360.88692021369934	pulse	0	t						396.8919212818146	
87	362.4872410297394	pulse	0	t						398.4922420978546	
87	364.08738899230957	pulse	0	t						400.0923900604248	
87	365.6876230239868	pulse	0	t						401.69262409210205	
87	367.2879571914673	pulse	0	t						403.2929582595825	
87	368.8882510662079	pulse	0	t						404.8932521343231	
