trial_nr	onset	event_type	phase	response	nr_frames	movie_index	movie_duration	movie_file	blank	onset_abs	duration
0	0.16656875610351562	stim	0		32					14.42232894897461	0.26662468910217285
0	0.42504191398620605	response	0	space						14.6808021068573	
1	0.4331934452056885	stim	0		4145					14.688953638076782	34.55848407745361
1	34.9818754196167	pulse	0	t						49.23763561248779	
1	34.9916775226593	stim	1		1716					49.247437715530396	14.307149887084961
1	36.57203793525696	pulse	1	t						50.82779812812805	
1	38.17229771614075	pulse	1	t						52.42805790901184	
1	39.77248501777649	pulse	1	t						54.02824521064758	
1	41.37274360656738	pulse	1	t						55.62850379943848	
1	42.97298288345337	pulse	1	t						57.22874307632446	
1	44.57333302497864	pulse	1	t						58.82909321784973	
1	46.173500776290894	pulse	1	t						60.42926096916199	
1	47.77367424964905	pulse	1	t						62.02943444252014	
2	49.29882740974426	fix_pre	0		10	0.0	2.5	/experiments/Knapen_AOT/AOT_stimuli/rescaled_final/0675_fw.mp4	0.0	63.554587602615356	0.09172606468200684
2	49.37395906448364	pulse	0	t		0.0	2.5	/experiments/Knapen_AOT/AOT_stimuli/rescaled_final/0675_fw.mp4	0.0	63.629719257354736	
2	49.39055347442627	movie	1		300	0.0	2.5	/experiments/Knapen_AOT/AOT_stimuli/rescaled_final/0675_fw.mp4	0.0	63.64631366729736	2.5003395080566406
2	50.974285364151	pulse	1	t		0.0	2.5	/experiments/Knapen_AOT/AOT_stimuli/rescaled_final/0675_fw.mp4	0.0	65.2300455570221	
2	51.89089298248291	fix_post	2		12	0.0	2.5	/experiments/Knapen_AOT/AOT_stimuli/rescaled_final/0675_fw.mp4	0.0	66.146653175354	0.10001230239868164
3	51.99090528488159	fix_pre	0		120	1.0	2.5	/experiments/Knapen_AOT/AOT_stimuli/rescaled_final/2175_fw.mp4	0.0	66.24666547775269	1.000145435333252
3	52.57447290420532	pulse	0	t		1.0	2.5	/experiments/Knapen_AOT/AOT_stimuli/rescaled_final/2175_fw.mp4	0.0	66.83023309707642	
3	52.991050720214844	movie	1		300	1.0	2.5	/experiments/Knapen_AOT/AOT_stimuli/rescaled_final/2175_fw.mp4	0.0	67.24681091308594	2.500382661819458
3	54.17476010322571	pulse	1	t		1.0	2.5	/experiments/Knapen_AOT/AOT_stimuli/rescaled_final/2175_fw.mp4	0.0	68.4305202960968	
3	55.4914333820343	fix_post	2		12	1.0	2.5	/experiments/Knapen_AOT/AOT_stimuli/rescaled_final/2175_fw.mp4	0.0	69.7471935749054	0.1000213623046875
4	55.59145474433899	fix_pre	0		120	2.0	2.5	/experiments/Knapen_AOT/AOT_stimuli/rescaled_final/0128_rv.mp4	0.0	69.84721493721008	1.0001461505889893
4	55.77491092681885	pulse	0	t		2.0	2.5	/experiments/Knapen_AOT/AOT_stimuli/rescaled_final/0128_rv.mp4	0.0	70.03067111968994	
4	56.59160089492798	movie	1		300	2.0	2.5	/experiments/Knapen_AOT/AOT_stimuli/rescaled_final/0128_rv.mp4	0.0	70.84736108779907	2.500365734100342
4	57.375176668167114	pulse	1	t		2.0	2.5	/experiments/Knapen_AOT/AOT_stimuli/rescaled_final/0128_rv.mp4	0.0	71.63093686103821	
4	58.97542452812195	pulse	1	t		2.0	2.5	/experiments/Knapen_AOT/AOT_stimuli/rescaled_final/0128_rv.mp4	0.0	73.23118472099304	
4	59.09196662902832	fix_post	2		12	2.0	2.5	/experiments/Knapen_AOT/AOT_stimuli/rescaled_final/0128_rv.mp4	0.0	73.34772682189941	0.10001683235168457
5	59.191983461380005	fix_pre	0		120	3.0	2.5	/experiments/Knapen_AOT/AOT_stimuli/rescaled_final/1903_rv.mp4	0.0	73.4477436542511	1.0001487731933594
5	60.192132234573364	movie	1		299	3.0	2.5	/experiments/Knapen_AOT/AOT_stimuli/rescaled_final/1903_rv.mp4	0.0	74.44789242744446	2.492058515548706
5	60.5756938457489	pulse	1	t		3.0	2.5	/experiments/Knapen_AOT/AOT_stimuli/rescaled_final/1903_rv.mp4	0.0	74.83145403862	
5	62.17594337463379	pulse	1	t		3.0	2.5	/experiments/Knapen_AOT/AOT_stimuli/rescaled_final/1903_rv.mp4	0.0	76.43170356750488	
5	62.68419075012207	fix_post	2		12	3.0	2.5	/experiments/Knapen_AOT/AOT_stimuli/rescaled_final/1903_rv.mp4	0.0	76.93995094299316	0.10002422332763672
6	62.78421497344971	fix_pre	0		120	4.0	2.5	/experiments/Knapen_AOT/AOT_stimuli/rescaled_final/1023_fw.mp4	0.0	77.0399751663208	1.0000994205474854
6	63.77611422538757	pulse	0	t		4.0	2.5	/experiments/Knapen_AOT/AOT_stimuli/rescaled_final/1023_fw.mp4	0.0	78.03187441825867	
6	63.78431439399719	movie	1		301	4.0	2.5	/experiments/Knapen_AOT/AOT_stimuli/rescaled_final/1023_fw.mp4	0.0	78.04007458686829	2.508730173110962
6	65.37239146232605	pulse	1	t		4.0	2.5	/experiments/Knapen_AOT/AOT_stimuli/rescaled_final/1023_fw.mp4	0.0	79.62815165519714	
6	66.29304456710815	fix_post	2		12	4.0	2.5	/experiments/Knapen_AOT/AOT_stimuli/rescaled_final/1023_fw.mp4	0.0	80.54880475997925	0.10001826286315918
7	66.39306282997131	fix_pre	0		120	5.0	2.5	/experiments/Knapen_AOT/AOT_stimuli/rescaled_final/0345_rv.mp4	0.0	80.64882302284241	1.0001580715179443
7	66.97667169570923	pulse	0	t		5.0	2.5	/experiments/Knapen_AOT/AOT_stimuli/rescaled_final/0345_rv.mp4	0.0	81.23243188858032	
7	67.39322090148926	movie	1		300	5.0	2.5	/experiments/Knapen_AOT/AOT_stimuli/rescaled_final/0345_rv.mp4	0.0	81.64898109436035	2.5003952980041504
7	68.57264447212219	pulse	1	t		5.0	2.5	/experiments/Knapen_AOT/AOT_stimuli/rescaled_final/0345_rv.mp4	0.0	82.82840466499329	
7	69.89361619949341	fix_post	2		12	5.0	2.5	/experiments/Knapen_AOT/AOT_stimuli/rescaled_final/0345_rv.mp4	0.0	84.1493763923645	0.1000063419342041
8	69.99362254142761	fix_pre	0		120	6.0	2.5	blank	1.0	84.2493827342987	1.0001392364501953
8	70.17708802223206	pulse	0	t		6.0	2.5	blank	1.0	84.43284821510315	
8	70.99376177787781	movie	1		300	6.0	2.5	blank	1.0	85.2495219707489	2.500387191772461
8	71.7773175239563	pulse	1	t		6.0	2.5	blank	1.0	86.03307771682739	
8	73.37759613990784	pulse	1	t		6.0	2.5	blank	1.0	87.63335633277893	
8	73.49414896965027	fix_post	2		12	6.0	2.5	blank	1.0	87.74990916252136	0.09999895095825195
9	73.59414792060852	fix_pre	0		120	7.0	2.5	/experiments/Knapen_AOT/AOT_stimuli/rescaled_final/0140_fw.mp4	0.0	87.84990811347961	1.000166893005371
9	74.59431481361389	movie	1		299	7.0	2.5	/experiments/Knapen_AOT/AOT_stimuli/rescaled_final/0140_fw.mp4	0.0	88.85007500648499	2.4920356273651123
9	74.97376441955566	pulse	1	t		7.0	2.5	/experiments/Knapen_AOT/AOT_stimuli/rescaled_final/0140_fw.mp4	0.0	89.22952461242676	
9	76.57370209693909	pulse	1	t		7.0	2.5	/experiments/Knapen_AOT/AOT_stimuli/rescaled_final/0140_fw.mp4	0.0	90.82946228981018	
9	77.086350440979	fix_post	2		12	7.0	2.5	/experiments/Knapen_AOT/AOT_stimuli/rescaled_final/0140_fw.mp4	0.0	91.3421106338501	0.1000051498413086
10	77.18635559082031	fix_pre	0		120	8.0	2.5	/experiments/Knapen_AOT/AOT_stimuli/rescaled_final/1953_rv.mp4	0.0	91.4421157836914	1.0001296997070312
10	78.17827105522156	pulse	0	t		8.0	2.5	/experiments/Knapen_AOT/AOT_stimuli/rescaled_final/1953_rv.mp4	0.0	92.43403124809265	
10	78.18648529052734	movie	1		301	8.0	2.5	/experiments/Knapen_AOT/AOT_stimuli/rescaled_final/1953_rv.mp4	0.0	92.44224548339844	2.50875186920166
10	79.77472925186157	pulse	1	t		8.0	2.5	/experiments/Knapen_AOT/AOT_stimuli/rescaled_final/1953_rv.mp4	0.0	94.03048944473267	
10	80.695237159729	fix_post	2		12	8.0	2.5	/experiments/Knapen_AOT/AOT_stimuli/rescaled_final/1953_rv.mp4	0.0	94.9509973526001	0.10000228881835938
11	80.79523944854736	fix_pre	0		120	9.0	2.5	/experiments/Knapen_AOT/AOT_stimuli/rescaled_final/1865_rv.mp4	0.0	95.05099964141846	1.0001444816589355
11	81.37878465652466	pulse	0	t		9.0	2.5	/experiments/Knapen_AOT/AOT_stimuli/rescaled_final/1865_rv.mp4	0.0	95.63454484939575	
11	81.7953839302063	movie	1		300	9.0	2.5	/experiments/Knapen_AOT/AOT_stimuli/rescaled_final/1865_rv.mp4	0.0	96.05114412307739	2.5003809928894043
11	82.97476863861084	pulse	1	t		9.0	2.5	/experiments/Knapen_AOT/AOT_stimuli/rescaled_final/1865_rv.mp4	0.0	97.23052883148193	
11	84.2957649230957	fix_post	2		12	9.0	2.5	/experiments/Knapen_AOT/AOT_stimuli/rescaled_final/1865_rv.mp4	0.0	98.5515251159668	0.10001754760742188
12	84.39578247070312	fix_pre	0		120	10.0	2.5	/experiments/Knapen_AOT/AOT_stimuli/rescaled_final/0675_rv.mp4	0.0	98.65154266357422	1.0001399517059326
12	84.57924509048462	pulse	0	t		10.0	2.5	/experiments/Knapen_AOT/AOT_stimuli/rescaled_final/0675_rv.mp4	0.0	98.83500528335571	
12	85.39592242240906	movie	1		300	10.0	2.5	/experiments/Knapen_AOT/AOT_stimuli/rescaled_final/0675_rv.mp4	0.0	99.65168261528015	2.5003700256347656
12	86.17511820793152	pulse	1	t		10.0	2.5	/experiments/Knapen_AOT/AOT_stimuli/rescaled_final/0675_rv.mp4	0.0	100.43087840080261	
12	87.77545595169067	pulse	1	t		10.0	2.5	/experiments/Knapen_AOT/AOT_stimuli/rescaled_final/0675_rv.mp4	0.0	102.03121614456177	
12	87.89629244804382	fix_post	2		12	10.0	2.5	/experiments/Knapen_AOT/AOT_stimuli/rescaled_final/0675_rv.mp4	0.0	102.15205264091492	0.10002446174621582
13	87.99631690979004	fix_pre	0		120	11.0	2.5	/experiments/Knapen_AOT/AOT_stimuli/rescaled_final/0762_rv.mp4	0.0	102.25207710266113	1.0001556873321533
13	88.99647259712219	movie	1		298	11.0	2.5	/experiments/Knapen_AOT/AOT_stimuli/rescaled_final/0762_rv.mp4	0.0	103.25223278999329	2.4920339584350586
13	89.37580347061157	pulse	1	t		11.0	2.5	/experiments/Knapen_AOT/AOT_stimuli/rescaled_final/0762_rv.mp4	0.0	103.63156366348267	
13	90.9719979763031	pulse	1	t		11.0	2.5	/experiments/Knapen_AOT/AOT_stimuli/rescaled_final/0762_rv.mp4	0.0	105.2277581691742	
13	91.48850655555725	fix_post	2		12	11.0	2.5	/experiments/Knapen_AOT/AOT_stimuli/rescaled_final/0762_rv.mp4	0.0	105.74426674842834	0.10001516342163086
14	91.58852171897888	fix_pre	0		119	12.0	2.5	blank	1.0	105.84428191184998	0.991807222366333
14	92.57215356826782	pulse	0	t		12.0	2.5	blank	1.0	106.82791376113892	
14	92.58032894134521	movie	1		301	12.0	2.5	blank	1.0	106.83608913421631	2.508702278137207
14	94.17236423492432	pulse	1	t		12.0	2.5	blank	1.0	108.42812442779541	
14	95.08903121948242	fix_post	2		12	12.0	2.5	blank	1.0	109.34479141235352	0.10004615783691406
15	95.18907737731934	fix_pre	0		120	13.0	2.5	/experiments/Knapen_AOT/AOT_stimuli/rescaled_final/0073_rv.mp4	0.0	109.44483757019043	1.0003151893615723
15	95.77259397506714	pulse	0	t		13.0	2.5	/experiments/Knapen_AOT/AOT_stimuli/rescaled_final/0073_rv.mp4	0.0	110.02835416793823	
15	96.18939256668091	movie	1		300	13.0	2.5	/experiments/Knapen_AOT/AOT_stimuli/rescaled_final/0073_rv.mp4	0.0	110.445152759552	2.50018572807312
15	97.37287139892578	pulse	1	t		13.0	2.5	/experiments/Knapen_AOT/AOT_stimuli/rescaled_final/0073_rv.mp4	0.0	111.62863159179688	
15	98.68957829475403	fix_post	2		12	13.0	2.5	/experiments/Knapen_AOT/AOT_stimuli/rescaled_final/0073_rv.mp4	0.0	112.94533848762512	0.10001516342163086
16	98.78959345817566	fix_pre	0		120	14.0	2.5	/experiments/Knapen_AOT/AOT_stimuli/rescaled_final/1805_fw.mp4	0.0	113.04535365104675	1.000152826309204
16	98.97309589385986	pulse	0	t		14.0	2.5	/experiments/Knapen_AOT/AOT_stimuli/rescaled_final/1805_fw.mp4	0.0	113.22885608673096	
16	99.78974628448486	movie	1		300	14.0	2.5	/experiments/Knapen_AOT/AOT_stimuli/rescaled_final/1805_fw.mp4	0.0	114.04550647735596	2.500408887863159
16	100.57334494590759	pulse	1	t		14.0	2.5	/experiments/Knapen_AOT/AOT_stimuli/rescaled_final/1805_fw.mp4	0.0	114.82910513877869	
16	102.17361497879028	pulse	1	t		14.0	2.5	/experiments/Knapen_AOT/AOT_stimuli/rescaled_final/1805_fw.mp4	0.0	116.42937517166138	
16	102.29015517234802	fix_post	2		12	14.0	2.5	/experiments/Knapen_AOT/AOT_stimuli/rescaled_final/1805_fw.mp4	0.0	116.54591536521912	0.10001802444458008
17	102.3901731967926	fix_pre	0		120	15.0	2.5	/experiments/Knapen_AOT/AOT_stimuli/rescaled_final/1280_rv.mp4	0.0	116.6459333896637	1.000115156173706
17	103.39028835296631	movie	1		298	15.0	2.5	/experiments/Knapen_AOT/AOT_stimuli/rescaled_final/1280_rv.mp4	0.0	117.6460485458374	2.49204158782959
17	103.77388405799866	pulse	1	t		15.0	2.5	/experiments/Knapen_AOT/AOT_stimuli/rescaled_final/1280_rv.mp4	0.0	118.02964425086975	
17	105.37406325340271	pulse	1	t		15.0	2.5	/experiments/Knapen_AOT/AOT_stimuli/rescaled_final/1280_rv.mp4	0.0	119.6298234462738	
17	105.8823299407959	fix_post	2		12	15.0	2.5	/experiments/Knapen_AOT/AOT_stimuli/rescaled_final/1280_rv.mp4	0.0	120.13809013366699	0.10001587867736816
18	105.98234581947327	fix_pre	0		120	16.0	2.5	/experiments/Knapen_AOT/AOT_stimuli/rescaled_final/0530_fw.mp4	0.0	120.23810601234436	1.0003771781921387
18	106.97436618804932	pulse	0	t		16.0	2.5	/experiments/Knapen_AOT/AOT_stimuli/rescaled_final/0530_fw.mp4	0.0	121.23012638092041	
18	106.9827229976654	movie	1		301	16.0	2.5	/experiments/Knapen_AOT/AOT_stimuli/rescaled_final/0530_fw.mp4	0.0	121.2384831905365	2.5084846019744873
18	108.57472491264343	pulse	1	t		16.0	2.5	/experiments/Knapen_AOT/AOT_stimuli/rescaled_final/0530_fw.mp4	0.0	122.83048510551453	
18	109.49120759963989	fix_post	2		12	16.0	2.5	/experiments/Knapen_AOT/AOT_stimuli/rescaled_final/0530_fw.mp4	0.0	123.74696779251099	0.10001564025878906
19	109.59122323989868	fix_pre	0		120	17.0	2.5	/experiments/Knapen_AOT/AOT_stimuli/rescaled_final/1977_fw.mp4	0.0	123.84698343276978	1.0001566410064697
19	110.17475700378418	pulse	0	t		17.0	2.5	/experiments/Knapen_AOT/AOT_stimuli/rescaled_final/1977_fw.mp4	0.0	124.43051719665527	
19	110.59137988090515	movie	1		300	17.0	2.5	/experiments/Knapen_AOT/AOT_stimuli/rescaled_final/1977_fw.mp4	0.0	124.84714007377625	2.5003867149353027
19	111.77510023117065	pulse	1	t		17.0	2.5	/experiments/Knapen_AOT/AOT_stimuli/rescaled_final/1977_fw.mp4	0.0	126.03086042404175	
19	113.09176659584045	fix_post	2		12	17.0	2.5	/experiments/Knapen_AOT/AOT_stimuli/rescaled_final/1977_fw.mp4	0.0	127.34752678871155	0.1000053882598877
20	113.19177198410034	fix_pre	0		120	18.0	2.5	/experiments/Knapen_AOT/AOT_stimuli/rescaled_final/0121_rv.mp4	0.0	127.44753217697144	1.0001466274261475
20	113.37528347969055	pulse	0	t		18.0	2.5	/experiments/Knapen_AOT/AOT_stimuli/rescaled_final/0121_rv.mp4	0.0	127.63104367256165	
20	114.19191861152649	movie	1		299	18.0	2.5	/experiments/Knapen_AOT/AOT_stimuli/rescaled_final/0121_rv.mp4	0.0	128.44767880439758	2.50040340423584
20	114.97551202774048	pulse	1	t		18.0	2.5	/experiments/Knapen_AOT/AOT_stimuli/rescaled_final/0121_rv.mp4	0.0	129.23127222061157	
20	116.57580256462097	pulse	1	t		18.0	2.5	/experiments/Knapen_AOT/AOT_stimuli/rescaled_final/0121_rv.mp4	0.0	130.83156275749207	
20	116.69232201576233	fix_post	2		12	18.0	2.5	/experiments/Knapen_AOT/AOT_stimuli/rescaled_final/0121_rv.mp4	0.0	130.94808220863342	0.09999346733093262
21	116.79231548309326	fix_pre	0		120	19.0	2.5	blank	1.0	131.04807567596436	1.0001757144927979
21	117.79249119758606	movie	1		299	19.0	2.5	blank	1.0	132.04825139045715	2.4920058250427246
21	118.17598867416382	pulse	1	t		19.0	2.5	blank	1.0	132.4317488670349	
21	119.77618360519409	pulse	1	t		19.0	2.5	blank	1.0	134.03194379806519	
21	120.28449702262878	fix_post	2		12	19.0	2.5	blank	1.0	134.54025721549988	0.10001349449157715
22	120.38451051712036	fix_pre	0		120	20.0	2.5	/experiments/Knapen_AOT/AOT_stimuli/rescaled_final/2132_rv.mp4	0.0	134.64027070999146	1.0085108280181885
22	121.37649536132812	pulse	0	t		20.0	2.5	/experiments/Knapen_AOT/AOT_stimuli/rescaled_final/2132_rv.mp4	0.0	135.63225555419922	
22	121.39302134513855	movie	1		300	20.0	2.5	/experiments/Knapen_AOT/AOT_stimuli/rescaled_final/2132_rv.mp4	0.0	135.64878153800964	2.500369071960449
22	122.97293877601624	pulse	1	t		20.0	2.5	/experiments/Knapen_AOT/AOT_stimuli/rescaled_final/2132_rv.mp4	0.0	137.22869896888733	
22	123.893390417099	fix_post	2		12	20.0	2.5	/experiments/Knapen_AOT/AOT_stimuli/rescaled_final/2132_rv.mp4	0.0	138.1491506099701	0.1000070571899414
23	123.99339747428894	fix_pre	0		120	21.0	2.5	/experiments/Knapen_AOT/AOT_stimuli/rescaled_final/2040_rv.mp4	0.0	138.24915766716003	1.000121831893921
23	124.57695126533508	pulse	0	t		21.0	2.5	/experiments/Knapen_AOT/AOT_stimuli/rescaled_final/2040_rv.mp4	0.0	138.83271145820618	
23	124.99351930618286	movie	1		300	21.0	2.5	/experiments/Knapen_AOT/AOT_stimuli/rescaled_final/2040_rv.mp4	0.0	139.24927949905396	2.5003933906555176
23	126.17293810844421	pulse	1	t		21.0	2.5	/experiments/Knapen_AOT/AOT_stimuli/rescaled_final/2040_rv.mp4	0.0	140.4286983013153	
23	127.49391269683838	fix_post	2		12	21.0	2.5	/experiments/Knapen_AOT/AOT_stimuli/rescaled_final/2040_rv.mp4	0.0	141.74967288970947	0.10003137588500977
24	127.59394407272339	fix_pre	0		120	22.0	2.5	/experiments/Knapen_AOT/AOT_stimuli/rescaled_final/1256_rv.mp4	0.0	141.84970426559448	1.0001428127288818
24	127.77742719650269	pulse	0	t		22.0	2.5	/experiments/Knapen_AOT/AOT_stimuli/rescaled_final/1256_rv.mp4	0.0	142.03318738937378	
24	128.59408688545227	movie	1		300	22.0	2.5	/experiments/Knapen_AOT/AOT_stimuli/rescaled_final/1256_rv.mp4	0.0	142.84984707832336	2.5004332065582275
24	129.37321400642395	pulse	1	t		22.0	2.5	/experiments/Knapen_AOT/AOT_stimuli/rescaled_final/1256_rv.mp4	0.0	143.62897419929504	
24	130.97359585762024	pulse	1	t		22.0	2.5	/experiments/Knapen_AOT/AOT_stimuli/rescaled_final/1256_rv.mp4	0.0	145.22935605049133	
24	131.0945200920105	fix_post	2		12	22.0	2.5	/experiments/Knapen_AOT/AOT_stimuli/rescaled_final/1256_rv.mp4	0.0	145.3502802848816	0.09995698928833008
25	131.19447708129883	fix_pre	0		120	23.0	2.5	/experiments/Knapen_AOT/AOT_stimuli/rescaled_final/2110_rv.mp4	0.0	145.45023727416992	1.0001838207244873
25	132.19466090202332	movie	1		299	23.0	2.5	/experiments/Knapen_AOT/AOT_stimuli/rescaled_final/2110_rv.mp4	0.0	146.4504210948944	2.4920027256011963
25	132.5744013786316	pulse	1	t		23.0	2.5	/experiments/Knapen_AOT/AOT_stimuli/rescaled_final/2110_rv.mp4	0.0	146.83016157150269	
25	134.17389154434204	pulse	1	t		23.0	2.5	/experiments/Knapen_AOT/AOT_stimuli/rescaled_final/2110_rv.mp4	0.0	148.42965173721313	
25	134.6866636276245	fix_post	2		12	23.0	2.5	/experiments/Knapen_AOT/AOT_stimuli/rescaled_final/2110_rv.mp4	0.0	148.9424238204956	0.10001397132873535
26	134.78667759895325	fix_pre	0		120	24.0	2.5	/experiments/Knapen_AOT/AOT_stimuli/rescaled_final/1524_fw.mp4	0.0	149.04243779182434	1.0002894401550293
26	135.7786500453949	pulse	0	t		24.0	2.5	/experiments/Knapen_AOT/AOT_stimuli/rescaled_final/1524_fw.mp4	0.0	150.034410238266	
26	135.78696703910828	movie	1		301	24.0	2.5	/experiments/Knapen_AOT/AOT_stimuli/rescaled_final/1524_fw.mp4	0.0	150.04272723197937	2.508589506149292
26	137.3752520084381	pulse	1	t		24.0	2.5	/experiments/Knapen_AOT/AOT_stimuli/rescaled_final/1524_fw.mp4	0.0	151.6310122013092	
26	138.29555654525757	fix_post	2		12	24.0	2.5	/experiments/Knapen_AOT/AOT_stimuli/rescaled_final/1524_fw.mp4	0.0	152.55131673812866	0.10001015663146973
27	138.39556670188904	fix_pre	0		120	25.0	2.5	/experiments/Knapen_AOT/AOT_stimuli/rescaled_final/1985_fw.mp4	0.0	152.65132689476013	1.0001401901245117
27	138.97910070419312	pulse	0	t		25.0	2.5	/experiments/Knapen_AOT/AOT_stimuli/rescaled_final/1985_fw.mp4	0.0	153.2348608970642	
27	139.39570689201355	movie	1		299	25.0	2.5	/experiments/Knapen_AOT/AOT_stimuli/rescaled_final/1985_fw.mp4	0.0	153.65146708488464	2.5003740787506104
27	140.57515358924866	pulse	1	t		25.0	2.5	/experiments/Knapen_AOT/AOT_stimuli/rescaled_final/1985_fw.mp4	0.0	154.83091378211975	
27	141.89608097076416	fix_post	2		12	25.0	2.5	/experiments/Knapen_AOT/AOT_stimuli/rescaled_final/1985_fw.mp4	0.0	156.15184116363525	0.10001659393310547
28	141.99609756469727	fix_pre	0		120	26.0	2.5	/experiments/Knapen_AOT/AOT_stimuli/rescaled_final/0766_rv.mp4	0.0	156.25185775756836	1.0001494884490967
28	142.17130970954895	pulse	0	t		26.0	2.5	/experiments/Knapen_AOT/AOT_stimuli/rescaled_final/0766_rv.mp4	0.0	156.42706990242004	
28	142.99624705314636	movie	1		300	26.0	2.5	/experiments/Knapen_AOT/AOT_stimuli/rescaled_final/0766_rv.mp4	0.0	157.25200724601746	2.5004024505615234
28	143.77152943611145	pulse	1	t		26.0	2.5	/experiments/Knapen_AOT/AOT_stimuli/rescaled_final/0766_rv.mp4	0.0	158.02728962898254	
28	145.3718340396881	pulse	1	t		26.0	2.5	/experiments/Knapen_AOT/AOT_stimuli/rescaled_final/0766_rv.mp4	0.0	159.6275942325592	
28	145.49664950370789	fix_post	2		12	26.0	2.5	/experiments/Knapen_AOT/AOT_stimuli/rescaled_final/0766_rv.mp4	0.0	159.75240969657898	0.09998846054077148
29	145.59663796424866	fix_pre	0		120	27.0	2.5	blank	1.0	159.85239815711975	1.0001513957977295
29	146.5967893600464	movie	1		299	27.0	2.5	blank	1.0	160.85254955291748	2.4920403957366943
29	146.97201323509216	pulse	1	t		27.0	2.5	blank	1.0	161.22777342796326	
29	148.57225513458252	pulse	1	t		27.0	2.5	blank	1.0	162.8280153274536	
29	149.08882975578308	fix_post	2		12	27.0	2.5	blank	1.0	163.34458994865417	0.10001659393310547
30	149.1888463497162	fix_pre	0		119	28.0	2.5	/experiments/Knapen_AOT/AOT_stimuli/rescaled_final/1149_rv.mp4	0.0	163.44460654258728	0.9921634197235107
30	150.1724693775177	pulse	0	t		28.0	2.5	/experiments/Knapen_AOT/AOT_stimuli/rescaled_final/1149_rv.mp4	0.0	164.4282295703888	
30	150.1810097694397	movie	1		301	28.0	2.5	/experiments/Knapen_AOT/AOT_stimuli/rescaled_final/1149_rv.mp4	0.0	164.4367699623108	2.508405923843384
30	151.77283120155334	pulse	1	t		28.0	2.5	/experiments/Knapen_AOT/AOT_stimuli/rescaled_final/1149_rv.mp4	0.0	166.02859139442444	
30	152.68941569328308	fix_post	2		12	28.0	2.5	/experiments/Knapen_AOT/AOT_stimuli/rescaled_final/1149_rv.mp4	0.0	166.94517588615417	0.09998583793640137
31	152.78940153121948	fix_pre	0		120	29.0	2.5	/experiments/Knapen_AOT/AOT_stimuli/rescaled_final/1433_rv.mp4	0.0	167.04516172409058	1.000107765197754
31	153.37293434143066	pulse	0	t		29.0	2.5	/experiments/Knapen_AOT/AOT_stimuli/rescaled_final/1433_rv.mp4	0.0	167.62869453430176	
31	153.78950929641724	movie	1		300	29.0	2.5	/experiments/Knapen_AOT/AOT_stimuli/rescaled_final/1433_rv.mp4	0.0	168.04526948928833	2.500401496887207
31	154.97341132164001	pulse	1	t		29.0	2.5	/experiments/Knapen_AOT/AOT_stimuli/rescaled_final/1433_rv.mp4	0.0	169.2291715145111	
31	156.28991079330444	fix_post	2		12	29.0	2.5	/experiments/Knapen_AOT/AOT_stimuli/rescaled_final/1433_rv.mp4	0.0	170.54567098617554	0.10002422332763672
32	156.38993501663208	fix_pre	0		120	30.0	2.5	/experiments/Knapen_AOT/AOT_stimuli/rescaled_final/1403_fw.mp4	0.0	170.64569520950317	1.0001184940338135
32	156.57344031333923	pulse	0	t		30.0	2.5	/experiments/Knapen_AOT/AOT_stimuli/rescaled_final/1403_fw.mp4	0.0	170.82920050621033	
32	157.3900535106659	movie	1		300	30.0	2.5	/experiments/Knapen_AOT/AOT_stimuli/rescaled_final/1403_fw.mp4	0.0	171.645813703537	2.5004076957702637
32	158.1736958026886	pulse	1	t		30.0	2.5	/experiments/Knapen_AOT/AOT_stimuli/rescaled_final/1403_fw.mp4	0.0	172.4294559955597	
32	159.7739062309265	pulse	1	t		30.0	2.5	/experiments/Knapen_AOT/AOT_stimuli/rescaled_final/1403_fw.mp4	0.0	174.0296664237976	
32	159.89046120643616	fix_post	2		12	30.0	2.5	/experiments/Knapen_AOT/AOT_stimuli/rescaled_final/1403_fw.mp4	0.0	174.14622139930725	0.10003995895385742
33	159.99050116539001	fix_pre	0		120	31.0	2.5	/experiments/Knapen_AOT/AOT_stimuli/rescaled_final/0465_fw.mp4	0.0	174.2462613582611	1.0001311302185059
33	160.99063229560852	movie	1		299	31.0	2.5	/experiments/Knapen_AOT/AOT_stimuli/rescaled_final/0465_fw.mp4	0.0	175.24639248847961	2.492039680480957
33	161.37416696548462	pulse	1	t		31.0	2.5	/experiments/Knapen_AOT/AOT_stimuli/rescaled_final/0465_fw.mp4	0.0	175.6299271583557	
33	162.97443103790283	pulse	1	t		31.0	2.5	/experiments/Knapen_AOT/AOT_stimuli/rescaled_final/0465_fw.mp4	0.0	177.23019123077393	
33	163.48267197608948	fix_post	2		12	31.0	2.5	/experiments/Knapen_AOT/AOT_stimuli/rescaled_final/0465_fw.mp4	0.0	177.73843216896057	0.1000218391418457
34	163.58269381523132	fix_pre	0		120	32.0	2.5	/experiments/Knapen_AOT/AOT_stimuli/rescaled_final/0847_rv.mp4	0.0	177.83845400810242	1.0084846019744873
34	164.57461977005005	pulse	0	t		32.0	2.5	/experiments/Knapen_AOT/AOT_stimuli/rescaled_final/0847_rv.mp4	0.0	178.83037996292114	
34	164.5911784172058	movie	1		300	32.0	2.5	/experiments/Knapen_AOT/AOT_stimuli/rescaled_final/0847_rv.mp4	0.0	178.8469386100769	2.500455617904663
34	166.17499017715454	pulse	1	t		32.0	2.5	/experiments/Knapen_AOT/AOT_stimuli/rescaled_final/0847_rv.mp4	0.0	180.43075037002563	
34	167.09163403511047	fix_post	2		12	32.0	2.5	/experiments/Knapen_AOT/AOT_stimuli/rescaled_final/0847_rv.mp4	0.0	181.34739422798157	0.09993147850036621
35	167.19156551361084	fix_pre	0		120	33.0	2.5	/experiments/Knapen_AOT/AOT_stimuli/rescaled_final/1966_fw.mp4	0.0	181.44732570648193	1.000136375427246
35	167.77508640289307	pulse	0	t		33.0	2.5	/experiments/Knapen_AOT/AOT_stimuli/rescaled_final/1966_fw.mp4	0.0	182.03084659576416	
35	168.1917018890381	movie	1		300	33.0	2.5	/experiments/Knapen_AOT/AOT_stimuli/rescaled_final/1966_fw.mp4	0.0	182.44746208190918	2.500391721725464
35	169.37544536590576	pulse	1	t		33.0	2.5	/experiments/Knapen_AOT/AOT_stimuli/rescaled_final/1966_fw.mp4	0.0	183.63120555877686	
35	170.69209361076355	fix_post	2		12	33.0	2.5	/experiments/Knapen_AOT/AOT_stimuli/rescaled_final/1966_fw.mp4	0.0	184.94785380363464	0.10000824928283691
36	170.7921018600464	fix_pre	0		120	34.0	2.5	blank	1.0	185.04786205291748	1.0001513957977295
36	170.97558689117432	pulse	0	t		34.0	2.5	blank	1.0	185.2313470840454	
36	171.79225325584412	movie	1		300	34.0	2.5	blank	1.0	186.0480134487152	2.5003740787506104
36	172.57582020759583	pulse	1	t		34.0	2.5	blank	1.0	186.83158040046692	
36	174.17608737945557	pulse	1	t		34.0	2.5	blank	1.0	188.43184757232666	
36	174.29262733459473	fix_post	2		12	34.0	2.5	blank	1.0	188.54838752746582	0.10000848770141602
37	174.39263582229614	fix_pre	0		120	35.0	2.5	/experiments/Knapen_AOT/AOT_stimuli/rescaled_final/1948_fw.mp4	0.0	188.64839601516724	1.0002012252807617
37	175.3928370475769	movie	1		299	35.0	2.5	/experiments/Knapen_AOT/AOT_stimuli/rescaled_final/1948_fw.mp4	0.0	189.648597240448	2.492001533508301
37	175.7722873687744	pulse	1	t		35.0	2.5	/experiments/Knapen_AOT/AOT_stimuli/rescaled_final/1948_fw.mp4	0.0	190.0280475616455	
37	177.37212228775024	pulse	1	t		35.0	2.5	/experiments/Knapen_AOT/AOT_stimuli/rescaled_final/1948_fw.mp4	0.0	191.62788248062134	
37	177.8848385810852	fix_post	2		12	35.0	2.5	/experiments/Knapen_AOT/AOT_stimuli/rescaled_final/1948_fw.mp4	0.0	192.1405987739563	0.1000213623046875
38	177.9848599433899	fix_pre	0		120	36.0	2.5	/experiments/Knapen_AOT/AOT_stimuli/rescaled_final/0269_rv.mp4	0.0	192.240620136261	1.0085105895996094
38	178.97681164741516	pulse	0	t		36.0	2.5	/experiments/Knapen_AOT/AOT_stimuli/rescaled_final/0269_rv.mp4	0.0	193.23257184028625	
38	178.9933705329895	movie	1		300	36.0	2.5	/experiments/Knapen_AOT/AOT_stimuli/rescaled_final/0269_rv.mp4	0.0	193.2491307258606	2.5003349781036377
38	180.57312035560608	pulse	1	t		36.0	2.5	/experiments/Knapen_AOT/AOT_stimuli/rescaled_final/0269_rv.mp4	0.0	194.82888054847717	
38	181.49370551109314	fix_post	2		12	36.0	2.5	/experiments/Knapen_AOT/AOT_stimuli/rescaled_final/0269_rv.mp4	0.0	195.74946570396423	0.10001778602600098
39	181.59372329711914	fix_pre	0		120	37.0	2.5	/experiments/Knapen_AOT/AOT_stimuli/rescaled_final/1027_rv.mp4	0.0	195.84948348999023	1.0001471042633057
39	182.17727375030518	pulse	0	t		37.0	2.5	/experiments/Knapen_AOT/AOT_stimuli/rescaled_final/1027_rv.mp4	0.0	196.43303394317627	
39	182.59387040138245	movie	1		300	37.0	2.5	/experiments/Knapen_AOT/AOT_stimuli/rescaled_final/1027_rv.mp4	0.0	196.84963059425354	2.5004124641418457
39	183.7732172012329	pulse	1	t		37.0	2.5	/experiments/Knapen_AOT/AOT_stimuli/rescaled_final/1027_rv.mp4	0.0	198.028977394104	
39	185.0942828655243	fix_post	2		12	37.0	2.5	/experiments/Knapen_AOT/AOT_stimuli/rescaled_final/1027_rv.mp4	0.0	199.35004305839539	0.09998154640197754
40	185.19426441192627	fix_pre	0		120	38.0	2.5	/experiments/Knapen_AOT/AOT_stimuli/rescaled_final/0324_rv.mp4	0.0	199.45002460479736	1.0001418590545654
40	185.3777358531952	pulse	0	t		38.0	2.5	/experiments/Knapen_AOT/AOT_stimuli/rescaled_final/0324_rv.mp4	0.0	199.63349604606628	
40	186.19440627098083	movie	1		300	38.0	2.5	/experiments/Knapen_AOT/AOT_stimuli/rescaled_final/0324_rv.mp4	0.0	200.45016646385193	2.5003950595855713
40	186.97363591194153	pulse	1	t		38.0	2.5	/experiments/Knapen_AOT/AOT_stimuli/rescaled_final/0324_rv.mp4	0.0	201.22939610481262	
40	188.573965549469	pulse	1	t		38.0	2.5	/experiments/Knapen_AOT/AOT_stimuli/rescaled_final/0324_rv.mp4	0.0	202.8297257423401	
40	188.6948013305664	fix_post	2		12	38.0	2.5	/experiments/Knapen_AOT/AOT_stimuli/rescaled_final/0324_rv.mp4	0.0	202.9505615234375	0.10004162788391113
41	188.79484295845032	fix_pre	0		120	39.0	2.5	/experiments/Knapen_AOT/AOT_stimuli/rescaled_final/1339_fw.mp4	0.0	203.0506031513214	1.0001287460327148
41	189.79497170448303	movie	1		299	39.0	2.5	/experiments/Knapen_AOT/AOT_stimuli/rescaled_final/1339_fw.mp4	0.0	204.05073189735413	2.492034673690796
41	190.17434096336365	pulse	1	t		39.0	2.5	/experiments/Knapen_AOT/AOT_stimuli/rescaled_final/1339_fw.mp4	0.0	204.43010115623474	
41	191.77429103851318	pulse	1	t		39.0	2.5	/experiments/Knapen_AOT/AOT_stimuli/rescaled_final/1339_fw.mp4	0.0	206.03005123138428	
41	192.28700637817383	fix_post	2		12	39.0	2.5	/experiments/Knapen_AOT/AOT_stimuli/rescaled_final/1339_fw.mp4	0.0	206.54276657104492	0.10000848770141602
42	192.38701486587524	fix_pre	0		120	40.0	2.5	/experiments/Knapen_AOT/AOT_stimuli/rescaled_final/0768_rv.mp4	0.0	206.64277505874634	1.008526086807251
42	193.37893795967102	pulse	0	t		40.0	2.5	/experiments/Knapen_AOT/AOT_stimuli/rescaled_final/0768_rv.mp4	0.0	207.63469815254211	
42	193.3955409526825	movie	1		300	40.0	2.5	/experiments/Knapen_AOT/AOT_stimuli/rescaled_final/0768_rv.mp4	0.0	207.6513011455536	2.5003437995910645
42	194.97538328170776	pulse	1	t		40.0	2.5	/experiments/Knapen_AOT/AOT_stimuli/rescaled_final/0768_rv.mp4	0.0	209.23114347457886	
42	195.89588475227356	fix_post	2		12	40.0	2.5	/experiments/Knapen_AOT/AOT_stimuli/rescaled_final/0768_rv.mp4	0.0	210.15164494514465	0.1000375747680664
43	195.99592232704163	fix_pre	0		120	41.0	2.5	blank	1.0	210.25168251991272	1.0001146793365479
43	196.57948327064514	pulse	0	t		41.0	2.5	blank	1.0	210.83524346351624	
43	196.99603700637817	movie	1		300	41.0	2.5	blank	1.0	211.25179719924927	2.500373363494873
43	198.17166328430176	pulse	1	t		41.0	2.5	blank	1.0	212.42742347717285	
43	199.49641036987305	fix_post	2		12	41.0	2.5	blank	1.0	213.75217056274414	0.1000206470489502
44	199.596431016922	fix_pre	0		120	42.0	2.5	/experiments/Knapen_AOT/AOT_stimuli/rescaled_final/2110_fw.mp4	0.0	213.8521912097931	1.0001482963562012
44	199.7716782093048	pulse	0	t		42.0	2.5	/experiments/Knapen_AOT/AOT_stimuli/rescaled_final/2110_fw.mp4	0.0	214.0274384021759	
44	200.5965793132782	movie	1		300	42.0	2.5	/experiments/Knapen_AOT/AOT_stimuli/rescaled_final/2110_fw.mp4	0.0	214.8523395061493	2.500385284423828
44	201.37184500694275	pulse	1	t		42.0	2.5	/experiments/Knapen_AOT/AOT_stimuli/rescaled_final/2110_fw.mp4	0.0	215.62760519981384	
44	202.97208976745605	pulse	1	t		42.0	2.5	/experiments/Knapen_AOT/AOT_stimuli/rescaled_final/2110_fw.mp4	0.0	217.22784996032715	
44	203.09696459770203	fix_post	2		12	42.0	2.5	/experiments/Knapen_AOT/AOT_stimuli/rescaled_final/2110_fw.mp4	0.0	217.35272479057312	0.1000058650970459
45	203.19697046279907	fix_pre	0		120	43.0	2.5	/experiments/Knapen_AOT/AOT_stimuli/rescaled_final/1322_rv.mp4	0.0	217.45273065567017	1.0001232624053955
45	204.19709372520447	movie	1		299	43.0	2.5	/experiments/Knapen_AOT/AOT_stimuli/rescaled_final/1322_rv.mp4	0.0	218.45285391807556	2.4920706748962402
45	204.57247400283813	pulse	1	t		43.0	2.5	/experiments/Knapen_AOT/AOT_stimuli/rescaled_final/1322_rv.mp4	0.0	218.82823419570923	
45	206.17258501052856	pulse	1	t		43.0	2.5	/experiments/Knapen_AOT/AOT_stimuli/rescaled_final/1322_rv.mp4	0.0	220.42834520339966	
45	206.6891644001007	fix_post	2		12	43.0	2.5	/experiments/Knapen_AOT/AOT_stimuli/rescaled_final/1322_rv.mp4	0.0	220.9449245929718	0.10001754760742188
46	206.78918194770813	fix_pre	0		119	44.0	2.5	/experiments/Knapen_AOT/AOT_stimuli/rescaled_final/0061_rv.mp4	0.0	221.04494214057922	1.0002222061157227
46	207.77278089523315	pulse	0	t		44.0	2.5	/experiments/Knapen_AOT/AOT_stimuli/rescaled_final/0061_rv.mp4	0.0	222.02854108810425	
46	207.78940415382385	movie	1		300	44.0	2.5	/experiments/Knapen_AOT/AOT_stimuli/rescaled_final/0061_rv.mp4	0.0	222.04516434669495	2.500298023223877
46	209.3731029033661	pulse	1	t		44.0	2.5	/experiments/Knapen_AOT/AOT_stimuli/rescaled_final/0061_rv.mp4	0.0	223.62886309623718	
46	210.28970217704773	fix_post	2		12	44.0	2.5	/experiments/Knapen_AOT/AOT_stimuli/rescaled_final/0061_rv.mp4	0.0	224.54546236991882	0.10002565383911133
47	210.38972783088684	fix_pre	0		120	45.0	2.5	/experiments/Knapen_AOT/AOT_stimuli/rescaled_final/1952_fw.mp4	0.0	224.64548802375793	1.0001497268676758
47	210.97333979606628	pulse	0	t		45.0	2.5	/experiments/Knapen_AOT/AOT_stimuli/rescaled_final/1952_fw.mp4	0.0	225.22909998893738	
47	211.38987755775452	movie	1		288	45.0	2.5	/experiments/Knapen_AOT/AOT_stimuli/rescaled_final/1952_fw.mp4	0.0	225.6456377506256	2.500424861907959
47	212.57353806495667	pulse	1	t		45.0	2.5	/experiments/Knapen_AOT/AOT_stimuli/rescaled_final/1952_fw.mp4	0.0	226.82929825782776	
47	213.89030241966248	fix_post	2		12	45.0	2.5	/experiments/Knapen_AOT/AOT_stimuli/rescaled_final/1952_fw.mp4	0.0	228.14606261253357	0.10000753402709961
48	213.99030995368958	fix_pre	0		120	46.0	2.5	/experiments/Knapen_AOT/AOT_stimuli/rescaled_final/0369_fw.mp4	0.0	228.24607014656067	1.0000972747802734
48	214.17376017570496	pulse	0	t		46.0	2.5	/experiments/Knapen_AOT/AOT_stimuli/rescaled_final/0369_fw.mp4	0.0	228.42952036857605	
48	214.99040722846985	movie	1		300	46.0	2.5	/experiments/Knapen_AOT/AOT_stimuli/rescaled_final/0369_fw.mp4	0.0	229.24616742134094	2.5003888607025146
48	215.77400517463684	pulse	1	t		46.0	2.5	/experiments/Knapen_AOT/AOT_stimuli/rescaled_final/0369_fw.mp4	0.0	230.02976536750793	
48	217.3742356300354	pulse	1	t		46.0	2.5	/experiments/Knapen_AOT/AOT_stimuli/rescaled_final/0369_fw.mp4	0.0	231.6299958229065	
48	217.49079608917236	fix_post	2		12	46.0	2.5	/experiments/Knapen_AOT/AOT_stimuli/rescaled_final/0369_fw.mp4	0.0	231.74655628204346	0.10007524490356445
49	217.59087133407593	fix_pre	0		120	47.0	2.5	/experiments/Knapen_AOT/AOT_stimuli/rescaled_final/0037_fw.mp4	0.0	231.84663152694702	1.000267505645752
49	218.59113883972168	movie	1		299	47.0	2.5	/experiments/Knapen_AOT/AOT_stimuli/rescaled_final/0037_fw.mp4	0.0	232.84689903259277	2.491886615753174
49	218.97448539733887	pulse	1	t		47.0	2.5	/experiments/Knapen_AOT/AOT_stimuli/rescaled_final/0037_fw.mp4	0.0	233.23024559020996	
49	220.5747413635254	pulse	1	t		47.0	2.5	/experiments/Knapen_AOT/AOT_stimuli/rescaled_final/0037_fw.mp4	0.0	234.83050155639648	
49	221.08302545547485	fix_post	2		12	47.0	2.5	/experiments/Knapen_AOT/AOT_stimuli/rescaled_final/0037_fw.mp4	0.0	235.33878564834595	0.09998393058776855
50	221.18300938606262	fix_pre	0		120	48.0	2.5	blank	1.0	235.43876957893372	1.0001585483551025
50	222.17494559288025	pulse	0	t		48.0	2.5	blank	1.0	236.43070578575134	
50	222.18316793441772	movie	1		301	48.0	2.5	blank	1.0	236.43892812728882	2.508695602416992
50	223.77521991729736	pulse	1	t		48.0	2.5	blank	1.0	238.03098011016846	
50	224.69186353683472	fix_post	2		12	48.0	2.5	blank	1.0	238.9476237297058	0.10002422332763672
51	224.79188776016235	fix_pre	0		120	49.0	2.5	/experiments/Knapen_AOT/AOT_stimuli/rescaled_final/1738_rv.mp4	0.0	239.04764795303345	1.0001614093780518
51	225.37549757957458	pulse	0	t		49.0	2.5	/experiments/Knapen_AOT/AOT_stimuli/rescaled_final/1738_rv.mp4	0.0	239.63125777244568	
51	225.7920491695404	movie	1		300	49.0	2.5	/experiments/Knapen_AOT/AOT_stimuli/rescaled_final/1738_rv.mp4	0.0	240.0478093624115	2.5003626346588135
51	226.9756965637207	pulse	1	t		49.0	2.5	/experiments/Knapen_AOT/AOT_stimuli/rescaled_final/1738_rv.mp4	0.0	241.2314567565918	
51	228.29241180419922	fix_post	2		12	49.0	2.5	/experiments/Knapen_AOT/AOT_stimuli/rescaled_final/1738_rv.mp4	0.0	242.5481719970703	0.10002326965332031
52	228.39243507385254	fix_pre	0		120	50.0	2.5	/experiments/Knapen_AOT/AOT_stimuli/rescaled_final/1256_rv.mp4	0.0	242.64819526672363	1.00014066696167
52	228.57593727111816	pulse	0	t		50.0	2.5	/experiments/Knapen_AOT/AOT_stimuli/rescaled_final/1256_rv.mp4	0.0	242.83169746398926	
52	229.3925757408142	movie	1		300	50.0	2.5	/experiments/Knapen_AOT/AOT_stimuli/rescaled_final/1256_rv.mp4	0.0	243.6483359336853	2.5003674030303955
52	230.1761932373047	pulse	1	t		50.0	2.5	/experiments/Knapen_AOT/AOT_stimuli/rescaled_final/1256_rv.mp4	0.0	244.43195343017578	
52	231.7721300125122	pulse	1	t		50.0	2.5	/experiments/Knapen_AOT/AOT_stimuli/rescaled_final/1256_rv.mp4	0.0	246.0278902053833	
52	231.8929431438446	fix_post	2		12	50.0	2.5	/experiments/Knapen_AOT/AOT_stimuli/rescaled_final/1256_rv.mp4	0.0	246.1487033367157	0.10005640983581543
53	231.99299955368042	fix_pre	0		120	51.0	2.5	/experiments/Knapen_AOT/AOT_stimuli/rescaled_final/0269_rv.mp4	0.0	246.2487597465515	1.0001437664031982
53	232.99314332008362	movie	1		299	51.0	2.5	/experiments/Knapen_AOT/AOT_stimuli/rescaled_final/0269_rv.mp4	0.0	247.2489035129547	2.49202036857605
53	233.37250232696533	pulse	1	t		51.0	2.5	/experiments/Knapen_AOT/AOT_stimuli/rescaled_final/0269_rv.mp4	0.0	247.62826251983643	
53	234.97245073318481	pulse	1	t		51.0	2.5	/experiments/Knapen_AOT/AOT_stimuli/rescaled_final/0269_rv.mp4	0.0	249.2282109260559	
53	235.48516368865967	fix_post	2		12	51.0	2.5	/experiments/Knapen_AOT/AOT_stimuli/rescaled_final/0269_rv.mp4	0.0	249.74092388153076	0.1000223159790039
54	235.58518600463867	fix_pre	0		120	52.0	2.5	/experiments/Knapen_AOT/AOT_stimuli/rescaled_final/1588_fw.mp4	0.0	249.84094619750977	1.0084905624389648
54	236.5770969390869	pulse	0	t		52.0	2.5	/experiments/Knapen_AOT/AOT_stimuli/rescaled_final/1588_fw.mp4	0.0	250.832857131958	
54	236.59367656707764	movie	1		300	52.0	2.5	/experiments/Knapen_AOT/AOT_stimuli/rescaled_final/1588_fw.mp4	0.0	250.84943675994873	2.5003561973571777
54	238.17351245880127	pulse	1	t		52.0	2.5	/experiments/Knapen_AOT/AOT_stimuli/rescaled_final/1588_fw.mp4	0.0	252.42927265167236	
54	239.09403276443481	fix_post	2		12	52.0	2.5	/experiments/Knapen_AOT/AOT_stimuli/rescaled_final/1588_fw.mp4	0.0	253.3497929573059	0.10006976127624512
55	239.19410252571106	fix_pre	0		120	53.0	2.5	/experiments/Knapen_AOT/AOT_stimuli/rescaled_final/1403_fw.mp4	0.0	253.44986271858215	1.0001027584075928
55	239.7775800228119	pulse	0	t		53.0	2.5	/experiments/Knapen_AOT/AOT_stimuli/rescaled_final/1403_fw.mp4	0.0	254.03334021568298	
55	240.19420528411865	movie	1		300	53.0	2.5	/experiments/Knapen_AOT/AOT_stimuli/rescaled_final/1403_fw.mp4	0.0	254.44996547698975	2.5003857612609863
55	241.37378072738647	pulse	1	t		53.0	2.5	/experiments/Knapen_AOT/AOT_stimuli/rescaled_final/1403_fw.mp4	0.0	255.62954092025757	
55	242.69459104537964	fix_post	2		12	53.0	2.5	/experiments/Knapen_AOT/AOT_stimuli/rescaled_final/1403_fw.mp4	0.0	256.95035123825073	0.10012602806091309
56	242.79471707344055	fix_pre	0		120	54.0	2.5	/experiments/Knapen_AOT/AOT_stimuli/rescaled_final/1280_fw.mp4	0.0	257.05047726631165	1.00002121925354
56	242.97810077667236	pulse	0	t		54.0	2.5	/experiments/Knapen_AOT/AOT_stimuli/rescaled_final/1280_fw.mp4	0.0	257.23386096954346	
56	243.7947382926941	movie	1		299	54.0	2.5	/experiments/Knapen_AOT/AOT_stimuli/rescaled_final/1280_fw.mp4	0.0	258.0504984855652	2.500378370285034
56	244.574063539505	pulse	1	t		54.0	2.5	/experiments/Knapen_AOT/AOT_stimuli/rescaled_final/1280_fw.mp4	0.0	258.8298237323761	
56	246.1743803024292	pulse	1	t		54.0	2.5	/experiments/Knapen_AOT/AOT_stimuli/rescaled_final/1280_fw.mp4	0.0	260.4301404953003	
56	246.29511666297913	fix_post	2		12	54.0	2.5	/experiments/Knapen_AOT/AOT_stimuli/rescaled_final/1280_fw.mp4	0.0	260.5508768558502	0.10000801086425781
57	246.39512467384338	fix_pre	0		120	55.0	2.5	/experiments/Knapen_AOT/AOT_stimuli/rescaled_final/1856_fw.mp4	0.0	260.6508848667145	1.0002200603485107
57	247.3953447341919	movie	1		299	55.0	2.5	/experiments/Knapen_AOT/AOT_stimuli/rescaled_final/1856_fw.mp4	0.0	261.651104927063	2.4919707775115967
57	247.77470445632935	pulse	1	t		55.0	2.5	/experiments/Knapen_AOT/AOT_stimuli/rescaled_final/1856_fw.mp4	0.0	262.03046464920044	
57	249.37458181381226	pulse	1	t		55.0	2.5	/experiments/Knapen_AOT/AOT_stimuli/rescaled_final/1856_fw.mp4	0.0	263.63034200668335	
57	249.8873155117035	fix_post	2		12	55.0	2.5	/experiments/Knapen_AOT/AOT_stimuli/rescaled_final/1856_fw.mp4	0.0	264.1430757045746	0.10002613067626953
58	249.98734164237976	fix_pre	0		120	56.0	2.5	blank	1.0	264.24310183525085	1.0001492500305176
58	250.9792664051056	pulse	0	t		56.0	2.5	blank	1.0	265.2350265979767	
58	250.98749089241028	movie	1		301	56.0	2.5	blank	1.0	265.2432510852814	2.5087320804595947
58	252.5794961452484	pulse	1	t		56.0	2.5	blank	1.0	266.8352563381195	
58	253.49622297286987	fix_post	2		12	56.0	2.5	blank	1.0	267.75198316574097	0.0999906063079834
59	253.59621357917786	fix_pre	0		120	57.0	2.5	/experiments/Knapen_AOT/AOT_stimuli/rescaled_final/0734_rv.mp4	0.0	267.85197377204895	1.0002245903015137
59	254.1797947883606	pulse	0	t		57.0	2.5	/experiments/Knapen_AOT/AOT_stimuli/rescaled_final/0734_rv.mp4	0.0	268.4355549812317	
59	254.59643816947937	movie	1		300	57.0	2.5	/experiments/Knapen_AOT/AOT_stimuli/rescaled_final/0734_rv.mp4	0.0	268.85219836235046	2.5003199577331543
59	255.77571368217468	pulse	1	t		57.0	2.5	/experiments/Knapen_AOT/AOT_stimuli/rescaled_final/0734_rv.mp4	0.0	270.0314738750458	
59	257.0967581272125	fix_post	2		12	57.0	2.5	/experiments/Knapen_AOT/AOT_stimuli/rescaled_final/0734_rv.mp4	0.0	271.3525183200836	0.10000991821289062
60	257.1967680454254	fix_pre	0		120	58.0	2.5	/experiments/Knapen_AOT/AOT_stimuli/rescaled_final/0809_rv.mp4	0.0	271.4525282382965	1.0001332759857178
60	257.3722314834595	pulse	0	t		58.0	2.5	/experiments/Knapen_AOT/AOT_stimuli/rescaled_final/0809_rv.mp4	0.0	271.62799167633057	
60	258.19690132141113	movie	1		300	58.0	2.5	/experiments/Knapen_AOT/AOT_stimuli/rescaled_final/0809_rv.mp4	0.0	272.4526615142822	2.5003881454467773
60	258.97226333618164	pulse	1	t		58.0	2.5	/experiments/Knapen_AOT/AOT_stimuli/rescaled_final/0809_rv.mp4	0.0	273.22802352905273	
60	260.57243275642395	pulse	1	t		58.0	2.5	/experiments/Knapen_AOT/AOT_stimuli/rescaled_final/0809_rv.mp4	0.0	274.82819294929504	
60	260.6972894668579	fix_post	2		12	58.0	2.5	/experiments/Knapen_AOT/AOT_stimuli/rescaled_final/0809_rv.mp4	0.0	274.953049659729	0.10004353523254395
61	260.79733300209045	fix_pre	0		120	59.0	2.5	/experiments/Knapen_AOT/AOT_stimuli/rescaled_final/1342_rv.mp4	0.0	275.05309319496155	1.000112533569336
61	261.7974455356598	movie	1		298	59.0	2.5	/experiments/Knapen_AOT/AOT_stimuli/rescaled_final/1342_rv.mp4	0.0	276.0532057285309	2.4920830726623535
61	262.17277455329895	pulse	1	t		59.0	2.5	/experiments/Knapen_AOT/AOT_stimuli/rescaled_final/1342_rv.mp4	0.0	276.42853474617004	
61	263.772901058197	pulse	1	t		59.0	2.5	/experiments/Knapen_AOT/AOT_stimuli/rescaled_final/1342_rv.mp4	0.0	278.0286612510681	
61	264.28952860832214	fix_post	2		12	59.0	2.5	/experiments/Knapen_AOT/AOT_stimuli/rescaled_final/1342_rv.mp4	0.0	278.54528880119324	0.09999775886535645
62	264.3895263671875	fix_pre	0		119	60.0	2.5	/experiments/Knapen_AOT/AOT_stimuli/rescaled_final/1489_fw.mp4	0.0	278.6452865600586	0.991816520690918
62	265.37313508987427	pulse	0	t		60.0	2.5	/experiments/Knapen_AOT/AOT_stimuli/rescaled_final/1489_fw.mp4	0.0	279.62889528274536	
62	265.3813428878784	movie	1		301	60.0	2.5	/experiments/Knapen_AOT/AOT_stimuli/rescaled_final/1489_fw.mp4	0.0	279.6371030807495	2.5086944103240967
62	266.97347354888916	pulse	1	t		60.0	2.5	/experiments/Knapen_AOT/AOT_stimuli/rescaled_final/1489_fw.mp4	0.0	281.22923374176025	
62	267.8900372982025	fix_post	2		12	60.0	2.5	/experiments/Knapen_AOT/AOT_stimuli/rescaled_final/1489_fw.mp4	0.0	282.1457974910736	0.10009455680847168
63	267.990131855011	fix_pre	0		120	61.0	2.5	blank	1.0	282.2458920478821	1.000061273574829
63	268.5735924243927	pulse	0	t		61.0	2.5	blank	1.0	282.8293526172638	
63	268.9901931285858	movie	1		300	61.0	2.5	blank	1.0	283.2459533214569	2.5003738403320312
63	270.17386388778687	pulse	1	t		61.0	2.5	blank	1.0	284.42962408065796	
63	271.49056696891785	fix_post	2		12	61.0	2.5	blank	1.0	285.74632716178894	0.1000223159790039
64	271.59058928489685	fix_pre	0		120	62.0	2.5	/experiments/Knapen_AOT/AOT_stimuli/rescaled_final/2003_fw.mp4	0.0	285.84634947776794	1.0001513957977295
64	271.7741029262543	pulse	0	t		62.0	2.5	/experiments/Knapen_AOT/AOT_stimuli/rescaled_final/2003_fw.mp4	0.0	286.02986311912537	
64	272.5907406806946	movie	1		300	62.0	2.5	/experiments/Knapen_AOT/AOT_stimuli/rescaled_final/2003_fw.mp4	0.0	286.8465008735657	2.5004384517669678
64	273.3743329048157	pulse	1	t		62.0	2.5	/experiments/Knapen_AOT/AOT_stimuli/rescaled_final/2003_fw.mp4	0.0	287.63009309768677	
64	274.9745662212372	pulse	1	t		62.0	2.5	/experiments/Knapen_AOT/AOT_stimuli/rescaled_final/2003_fw.mp4	0.0	289.2303264141083	
64	275.09117913246155	fix_post	2		12	62.0	2.5	/experiments/Knapen_AOT/AOT_stimuli/rescaled_final/2003_fw.mp4	0.0	289.34693932533264	0.10000014305114746
65	275.1911792755127	fix_pre	0		120	63.0	2.5	/experiments/Knapen_AOT/AOT_stimuli/rescaled_final/0306_fw.mp4	0.0	289.4469394683838	1.0001161098480225
65	276.1912953853607	movie	1		299	63.0	2.5	/experiments/Knapen_AOT/AOT_stimuli/rescaled_final/0306_fw.mp4	0.0	290.4470555782318	2.492023468017578
65	276.57481575012207	pulse	1	t		63.0	2.5	/experiments/Knapen_AOT/AOT_stimuli/rescaled_final/0306_fw.mp4	0.0	290.83057594299316	
65	278.17511200904846	pulse	1	t		63.0	2.5	/experiments/Knapen_AOT/AOT_stimuli/rescaled_final/0306_fw.mp4	0.0	292.43087220191956	
65	278.6833188533783	fix_post	2		12	63.0	2.5	/experiments/Knapen_AOT/AOT_stimuli/rescaled_final/0306_fw.mp4	0.0	292.9390790462494	0.10006237030029297
66	278.7833812236786	fix_pre	0		120	64.0	2.5	/experiments/Knapen_AOT/AOT_stimuli/rescaled_final/1398_rv.mp4	0.0	293.0391414165497	1.0000860691070557
66	279.77526569366455	pulse	0	t		64.0	2.5	/experiments/Knapen_AOT/AOT_stimuli/rescaled_final/1398_rv.mp4	0.0	294.03102588653564	
66	279.78346729278564	movie	1		301	64.0	2.5	/experiments/Knapen_AOT/AOT_stimuli/rescaled_final/1398_rv.mp4	0.0	294.03922748565674	2.508727788925171
66	281.3756203651428	pulse	1	t		64.0	2.5	/experiments/Knapen_AOT/AOT_stimuli/rescaled_final/1398_rv.mp4	0.0	295.6313805580139	
66	282.2921950817108	fix_post	2		12	64.0	2.5	/experiments/Knapen_AOT/AOT_stimuli/rescaled_final/1398_rv.mp4	0.0	296.5479552745819	0.10014605522155762
67	282.3923411369324	fix_pre	0		120	65.0	2.5	/experiments/Knapen_AOT/AOT_stimuli/rescaled_final/0306_rv.mp4	0.0	296.64810132980347	1.0003340244293213
67	282.97575545310974	pulse	0	t		65.0	2.5	/experiments/Knapen_AOT/AOT_stimuli/rescaled_final/0306_rv.mp4	0.0	297.23151564598083	
67	283.3926751613617	movie	1		300	65.0	2.5	/experiments/Knapen_AOT/AOT_stimuli/rescaled_final/0306_rv.mp4	0.0	297.6484353542328	2.500054359436035
67	284.57602548599243	pulse	1	t		65.0	2.5	/experiments/Knapen_AOT/AOT_stimuli/rescaled_final/0306_rv.mp4	0.0	298.8317856788635	
67	285.89272952079773	fix_post	2		12	65.0	2.5	/experiments/Knapen_AOT/AOT_stimuli/rescaled_final/0306_rv.mp4	0.0	300.1484897136688	0.10002017021179199
68	285.9927496910095	fix_pre	0		120	66.0	2.5	/experiments/Knapen_AOT/AOT_stimuli/rescaled_final/0118_rv.mp4	0.0	300.2485098838806	1.0001461505889893
68	286.1762373447418	pulse	0	t		66.0	2.5	/experiments/Knapen_AOT/AOT_stimuli/rescaled_final/0118_rv.mp4	0.0	300.4319975376129	
68	286.9928958415985	movie	1		300	66.0	2.5	/experiments/Knapen_AOT/AOT_stimuli/rescaled_final/0118_rv.mp4	0.0	301.2486560344696	2.5003843307495117
68	287.77649998664856	pulse	1	t		66.0	2.5	/experiments/Knapen_AOT/AOT_stimuli/rescaled_final/0118_rv.mp4	0.0	302.03226017951965	
68	289.3767626285553	pulse	1	t		66.0	2.5	/experiments/Knapen_AOT/AOT_stimuli/rescaled_final/0118_rv.mp4	0.0	303.6325228214264	
68	289.493280172348	fix_post	2		12	66.0	2.5	/experiments/Knapen_AOT/AOT_stimuli/rescaled_final/0118_rv.mp4	0.0	303.7490403652191	0.10007667541503906
69	289.59335684776306	fix_pre	0		120	67.0	2.5	/experiments/Knapen_AOT/AOT_stimuli/rescaled_final/1774_fw.mp4	0.0	303.84911704063416	1.0001094341278076
69	290.59346628189087	movie	1		299	67.0	2.5	/experiments/Knapen_AOT/AOT_stimuli/rescaled_final/1774_fw.mp4	0.0	304.84922647476196	2.4920167922973633
69	290.9730327129364	pulse	1	t		67.0	2.5	/experiments/Knapen_AOT/AOT_stimuli/rescaled_final/1774_fw.mp4	0.0	305.2287929058075	
69	292.57280349731445	pulse	1	t		67.0	2.5	/experiments/Knapen_AOT/AOT_stimuli/rescaled_final/1774_fw.mp4	0.0	306.82856369018555	
69	293.08548307418823	fix_post	2		12	67.0	2.5	/experiments/Knapen_AOT/AOT_stimuli/rescaled_final/1774_fw.mp4	0.0	307.3412432670593	0.10003423690795898
70	293.1855173110962	fix_pre	0		120	68.0	2.5	/experiments/Knapen_AOT/AOT_stimuli/rescaled_final/0118_fw.mp4	0.0	307.4412775039673	1.0001182556152344
70	294.1774380207062	pulse	0	t		68.0	2.5	/experiments/Knapen_AOT/AOT_stimuli/rescaled_final/0118_fw.mp4	0.0	308.43319821357727	
70	294.1856355667114	movie	1		301	68.0	2.5	/experiments/Knapen_AOT/AOT_stimuli/rescaled_final/0118_fw.mp4	0.0	308.4413957595825	2.5087695121765137
70	295.774112701416	pulse	1	t		68.0	2.5	/experiments/Knapen_AOT/AOT_stimuli/rescaled_final/0118_fw.mp4	0.0	310.0298728942871	
70	296.69440507888794	fix_post	2		12	68.0	2.5	/experiments/Knapen_AOT/AOT_stimuli/rescaled_final/0118_fw.mp4	0.0	310.95016527175903	0.10008740425109863
71	296.79449248313904	fix_pre	0		120	69.0	2.5	/experiments/Knapen_AOT/AOT_stimuli/rescaled_final/2018_fw.mp4	0.0	311.05025267601013	1.000032901763916
71	297.3779067993164	pulse	0	t		69.0	2.5	/experiments/Knapen_AOT/AOT_stimuli/rescaled_final/2018_fw.mp4	0.0	311.6336669921875	
71	297.79452538490295	movie	1		299	69.0	2.5	/experiments/Knapen_AOT/AOT_stimuli/rescaled_final/2018_fw.mp4	0.0	312.05028557777405	2.500380277633667
71	298.9740047454834	pulse	1	t		69.0	2.5	/experiments/Knapen_AOT/AOT_stimuli/rescaled_final/2018_fw.mp4	0.0	313.2297649383545	
71	300.2949056625366	fix_post	2		12	69.0	2.5	/experiments/Knapen_AOT/AOT_stimuli/rescaled_final/2018_fw.mp4	0.0	314.5506658554077	0.10001587867736816
72	300.394921541214	fix_pre	0		120	70.0	2.5	blank	1.0	314.6506817340851	1.0001366138458252
72	300.57842540740967	pulse	0	t		70.0	2.5	blank	1.0	314.83418560028076	
72	301.3950581550598	movie	1		300	70.0	2.5	blank	1.0	315.6508183479309	2.5004427433013916
72	302.17864060401917	pulse	1	t		70.0	2.5	blank	1.0	316.43440079689026	
72	303.7789180278778	pulse	1	t		70.0	2.5	blank	1.0	318.0346782207489	
72	303.8955008983612	fix_post	2		12	70.0	2.5	blank	1.0	318.1512610912323	0.10001611709594727
73	303.99551701545715	fix_pre	0		120	71.0	2.5	/experiments/Knapen_AOT/AOT_stimuli/rescaled_final/1948_fw.mp4	0.0	318.25127720832825	1.0000944137573242
73	304.9956114292145	movie	1		299	71.0	2.5	/experiments/Knapen_AOT/AOT_stimuli/rescaled_final/1948_fw.mp4	0.0	319.25137162208557	2.492063283920288
73	305.3751094341278	pulse	1	t		71.0	2.5	/experiments/Knapen_AOT/AOT_stimuli/rescaled_final/1948_fw.mp4	0.0	319.6308696269989	
73	306.9749267101288	pulse	1	t		71.0	2.5	/experiments/Knapen_AOT/AOT_stimuli/rescaled_final/1948_fw.mp4	0.0	321.2306869029999	
73	307.48767471313477	fix_post	2		12	71.0	2.5	/experiments/Knapen_AOT/AOT_stimuli/rescaled_final/1948_fw.mp4	0.0	321.74343490600586	0.09999656677246094
74	307.5876712799072	fix_pre	0		120	72.0	2.5	/experiments/Knapen_AOT/AOT_stimuli/rescaled_final/1228_fw.mp4	0.0	321.8434314727783	1.0005338191986084
74	308.57174348831177	pulse	0	t		72.0	2.5	/experiments/Knapen_AOT/AOT_stimuli/rescaled_final/1228_fw.mp4	0.0	322.82750368118286	
74	308.58820509910583	movie	1		301	72.0	2.5	/experiments/Knapen_AOT/AOT_stimuli/rescaled_final/1228_fw.mp4	0.0	322.84396529197693	2.5083653926849365
74	310.171612739563	pulse	1	t		72.0	2.5	/experiments/Knapen_AOT/AOT_stimuli/rescaled_final/1228_fw.mp4	0.0	324.4273729324341	
74	311.09657049179077	fix_post	2		12	72.0	2.5	/experiments/Knapen_AOT/AOT_stimuli/rescaled_final/1228_fw.mp4	0.0	325.35233068466187	0.09998202323913574
75	311.1965525150299	fix_pre	0		120	73.0	2.5	/experiments/Knapen_AOT/AOT_stimuli/rescaled_final/0073_fw.mp4	0.0	325.452312707901	1.000138521194458
75	311.77176809310913	pulse	0	t		73.0	2.5	/experiments/Knapen_AOT/AOT_stimuli/rescaled_final/0073_fw.mp4	0.0	326.0275282859802	
75	312.19669103622437	movie	1		300	73.0	2.5	/experiments/Knapen_AOT/AOT_stimuli/rescaled_final/0073_fw.mp4	0.0	326.45245122909546	2.5003809928894043
75	313.3720545768738	pulse	1	t		73.0	2.5	/experiments/Knapen_AOT/AOT_stimuli/rescaled_final/0073_fw.mp4	0.0	327.6278147697449	
75	314.69707202911377	fix_post	2		12	73.0	2.5	/experiments/Knapen_AOT/AOT_stimuli/rescaled_final/0073_fw.mp4	0.0	328.95283222198486	0.10002851486206055
76	314.79710054397583	fix_pre	0		120	74.0	2.5	/experiments/Knapen_AOT/AOT_stimuli/rescaled_final/2019_rv.mp4	0.0	329.0528607368469	1.000166893005371
76	314.97225189208984	pulse	0	t		74.0	2.5	/experiments/Knapen_AOT/AOT_stimuli/rescaled_final/2019_rv.mp4	0.0	329.22801208496094	
76	315.7972674369812	movie	1		300	74.0	2.5	/experiments/Knapen_AOT/AOT_stimuli/rescaled_final/2019_rv.mp4	0.0	330.0530276298523	2.500345468521118
76	316.5724902153015	pulse	1	t		74.0	2.5	/experiments/Knapen_AOT/AOT_stimuli/rescaled_final/2019_rv.mp4	0.0	330.8282504081726	
76	318.17280554771423	pulse	1	t		74.0	2.5	/experiments/Knapen_AOT/AOT_stimuli/rescaled_final/2019_rv.mp4	0.0	332.4285657405853	
76	318.2976129055023	fix_post	2		12	74.0	2.5	/experiments/Knapen_AOT/AOT_stimuli/rescaled_final/2019_rv.mp4	0.0	332.5533730983734	0.1000525951385498
77	318.39766550064087	fix_pre	0		119	75.0	2.5	/experiments/Knapen_AOT/AOT_stimuli/rescaled_final/0183_fw.mp4	0.0	332.65342569351196	0.9918158054351807
77	319.38948130607605	movie	1		299	75.0	2.5	/experiments/Knapen_AOT/AOT_stimuli/rescaled_final/0183_fw.mp4	0.0	333.64524149894714	2.500337839126587
77	319.7731363773346	pulse	1	t		75.0	2.5	/experiments/Knapen_AOT/AOT_stimuli/rescaled_final/0183_fw.mp4	0.0	334.0288965702057	
77	321.37320923805237	pulse	1	t		75.0	2.5	/experiments/Knapen_AOT/AOT_stimuli/rescaled_final/0183_fw.mp4	0.0	335.62896943092346	
77	321.88981914520264	fix_post	2		12	75.0	2.5	/experiments/Knapen_AOT/AOT_stimuli/rescaled_final/0183_fw.mp4	0.0	336.14557933807373	0.10007119178771973
78	321.98989033699036	fix_pre	0		119	76.0	2.5	/experiments/Knapen_AOT/AOT_stimuli/rescaled_final/0388_fw.mp4	0.0	336.24565052986145	1.0001039505004883
78	322.9734652042389	pulse	0	t		76.0	2.5	/experiments/Knapen_AOT/AOT_stimuli/rescaled_final/0388_fw.mp4	0.0	337.22922539711	
78	322.98999428749084	movie	1		299	76.0	2.5	/experiments/Knapen_AOT/AOT_stimuli/rescaled_final/0388_fw.mp4	0.0	337.24575448036194	2.5003647804260254
78	324.57381534576416	pulse	1	t		76.0	2.5	/experiments/Knapen_AOT/AOT_stimuli/rescaled_final/0388_fw.mp4	0.0	338.82957553863525	
78	325.49035906791687	fix_post	2		12	76.0	2.5	/experiments/Knapen_AOT/AOT_stimuli/rescaled_final/0388_fw.mp4	0.0	339.74611926078796	0.10002255439758301
79	325.59038162231445	fix_pre	0		120	77.0	2.5	blank	1.0	339.84614181518555	1.0001587867736816
79	326.173939704895	pulse	0	t		77.0	2.5	blank	1.0	340.4296998977661	
79	326.59054040908813	movie	1		300	77.0	2.5	blank	1.0	340.84630060195923	2.5003528594970703
79	327.7741422653198	pulse	1	t		77.0	2.5	blank	1.0	342.0299024581909	
79	329.0908932685852	fix_post	2		12	77.0	2.5	blank	1.0	343.3466534614563	0.1000218391418457
80	329.19091510772705	fix_pre	0		120	78.0	2.5	/experiments/Knapen_AOT/AOT_stimuli/rescaled_final/1347_rv.mp4	0.0	343.44667530059814	1.0002970695495605
80	329.3744478225708	pulse	0	t		78.0	2.5	/experiments/Knapen_AOT/AOT_stimuli/rescaled_final/1347_rv.mp4	0.0	343.6302080154419	
80	330.1912121772766	movie	1		300	78.0	2.5	/experiments/Knapen_AOT/AOT_stimuli/rescaled_final/1347_rv.mp4	0.0	344.4469723701477	2.500227689743042
80	330.97467517852783	pulse	1	t		78.0	2.5	/experiments/Knapen_AOT/AOT_stimuli/rescaled_final/1347_rv.mp4	0.0	345.2304353713989	
80	332.57491755485535	pulse	1	t		78.0	2.5	/experiments/Knapen_AOT/AOT_stimuli/rescaled_final/1347_rv.mp4	0.0	346.83067774772644	
80	332.69143986701965	fix_post	2		12	78.0	2.5	/experiments/Knapen_AOT/AOT_stimuli/rescaled_final/1347_rv.mp4	0.0	346.94720005989075	0.10001492500305176
81	332.7914547920227	fix_pre	0		120	79.0	2.5	/experiments/Knapen_AOT/AOT_stimuli/rescaled_final/0866_rv.mp4	0.0	347.0472149848938	1.0001258850097656
81	333.79158067703247	movie	1		299	79.0	2.5	/experiments/Knapen_AOT/AOT_stimuli/rescaled_final/0866_rv.mp4	0.0	348.04734086990356	2.4920411109924316
81	334.17514634132385	pulse	1	t		79.0	2.5	/experiments/Knapen_AOT/AOT_stimuli/rescaled_final/0866_rv.mp4	0.0	348.43090653419495	
81	335.77547311782837	pulse	1	t		79.0	2.5	/experiments/Knapen_AOT/AOT_stimuli/rescaled_final/0866_rv.mp4	0.0	350.03123331069946	
81	336.2836217880249	fix_post	2		12	79.0	2.5	/experiments/Knapen_AOT/AOT_stimuli/rescaled_final/0866_rv.mp4	0.0	350.539381980896	0.10003376007080078
82	336.3836555480957	fix_pre	0		120	80.0	2.5	/experiments/Knapen_AOT/AOT_stimuli/rescaled_final/1974_fw.mp4	0.0	350.6394157409668	1.0085017681121826
82	337.37559604644775	pulse	0	t		80.0	2.5	/experiments/Knapen_AOT/AOT_stimuli/rescaled_final/1974_fw.mp4	0.0	351.63135623931885	
82	337.3921573162079	movie	1		300	80.0	2.5	/experiments/Knapen_AOT/AOT_stimuli/rescaled_final/1974_fw.mp4	0.0	351.647917509079	2.5003855228424072
82	338.97237157821655	pulse	1	t		80.0	2.5	/experiments/Knapen_AOT/AOT_stimuli/rescaled_final/1974_fw.mp4	0.0	353.22813177108765	
82	339.8925428390503	fix_post	2		12	80.0	2.5	/experiments/Knapen_AOT/AOT_stimuli/rescaled_final/1974_fw.mp4	0.0	354.1483030319214	0.10004711151123047
83	339.9925899505615	fix_pre	0		120	81.0	2.5	/experiments/Knapen_AOT/AOT_stimuli/rescaled_final/0498_rv.mp4	0.0	354.2483501434326	1.0001015663146973
83	340.5761172771454	pulse	0	t		81.0	2.5	/experiments/Knapen_AOT/AOT_stimuli/rescaled_final/0498_rv.mp4	0.0	354.8318774700165	
83	340.9926915168762	movie	1		300	81.0	2.5	/experiments/Knapen_AOT/AOT_stimuli/rescaled_final/0498_rv.mp4	0.0	355.2484517097473	2.5003743171691895
83	342.1721887588501	pulse	1	t		81.0	2.5	/experiments/Knapen_AOT/AOT_stimuli/rescaled_final/0498_rv.mp4	0.0	356.4279489517212	
83	343.4930658340454	fix_post	2		12	81.0	2.5	/experiments/Knapen_AOT/AOT_stimuli/rescaled_final/0498_rv.mp4	0.0	357.7488260269165	0.10002970695495605
84	343.59309554100037	fix_pre	0		120	82.0	2.5	/experiments/Knapen_AOT/AOT_stimuli/rescaled_final/0530_rv.mp4	0.0	357.84885573387146	1.0001347064971924
84	343.7765688896179	pulse	0	t		82.0	2.5	/experiments/Knapen_AOT/AOT_stimuli/rescaled_final/0530_rv.mp4	0.0	358.032329082489	
84	344.59323024749756	movie	1		299	82.0	2.5	/experiments/Knapen_AOT/AOT_stimuli/rescaled_final/0530_rv.mp4	0.0	358.84899044036865	2.500401496887207
84	345.3726227283478	pulse	1	t		82.0	2.5	/experiments/Knapen_AOT/AOT_stimuli/rescaled_final/0530_rv.mp4	0.0	359.6283829212189	
84	346.97287249565125	pulse	1	t		82.0	2.5	/experiments/Knapen_AOT/AOT_stimuli/rescaled_final/0530_rv.mp4	0.0	361.22863268852234	
84	347.09363174438477	fix_post	2		12	82.0	2.5	/experiments/Knapen_AOT/AOT_stimuli/rescaled_final/0530_rv.mp4	0.0	361.34939193725586	0.10000109672546387
85	347.19363284111023	fix_pre	0		120	83.0	2.5	blank	1.0	361.4493930339813	1.0001616477966309
85	348.19379448890686	movie	1		299	83.0	2.5	blank	1.0	362.44955468177795	2.492023468017578
85	348.5772786140442	pulse	1	t		83.0	2.5	blank	1.0	362.8330388069153	
85	350.1775016784668	pulse	1	t		83.0	2.5	blank	1.0	364.4332618713379	
85	350.68581795692444	fix_post	2		12	83.0	2.5	blank	1.0	364.94157814979553	0.10001921653747559
87	350.7858371734619	stim	0		1716					365.041597366333	14.302164554595947
87	351.777761220932	pulse	0	t						366.0335214138031	
87	353.3779923915863	pulse	0	t						367.6337525844574	
87	354.978235244751	pulse	0	t						369.23399543762207	
87	356.57855343818665	pulse	0	t						370.83431363105774	
87	358.17871379852295	pulse	0	t						372.43447399139404	
87	359.7789490222931	pulse	0	t						374.0347092151642	
87	361.3791916370392	pulse	0	t						375.6349518299103	
87	362.97946095466614	pulse	0	t						377.23522114753723	
87	364.5719463825226	pulse	0	t						378.8277065753937	
