trial_nr	onset	event_type	phase	response	nr_frames	movie_index	movie_duration	movie_file	blank	onset_abs	duration
0	0.13335394859313965	stim	0		366					24.697723865509033	3.0499589443206787
0	3.1753790378570557	response	0	space						27.73974895477295	
1	3.1833128929138184	stim	0		16232					27.747682809829712	135.27425909042358
1	138.43973803520203	pulse	0	t						163.00410795211792	
1	138.4575719833374	stim	1		1717					163.0219419002533	14.30834698677063
1	140.03361201286316	pulse	1	t						164.59798192977905	
1	141.63322806358337	pulse	1	t						166.19759798049927	
1	143.23343992233276	pulse	1	t						167.79780983924866	
1	144.83362293243408	pulse	1	t						169.39799284934998	
1	146.4335548877716	pulse	1	t						170.9979248046875	
1	148.0327489376068	pulse	1	t						172.5971188545227	
1	149.63271594047546	pulse	1	t						174.19708585739136	
1	151.24104499816895	pulse	1	t						175.80541491508484	
2	152.76591897010803	fix_pre	0		10	0.0	2.5	/experiments/AOT/AOT_stimuli/rescaled_final/0201_rv.mp4	0.0	177.33028888702393	0.08331894874572754
2	152.84109091758728	pulse	0	t		0.0	2.5	/experiments/AOT/AOT_stimuli/rescaled_final/0201_rv.mp4	0.0	177.40546083450317	
2	152.84923791885376	movie	1		247	0.0	2.5	/experiments/AOT/AOT_stimuli/rescaled_final/0201_rv.mp4	0.0	177.41360783576965	2.508275032043457
2	154.44050192832947	pulse	1	t		0.0	2.5	/experiments/AOT/AOT_stimuli/rescaled_final/0201_rv.mp4	0.0	179.00487184524536	
2	155.35751295089722	fix_post	2		12	0.0	2.5	/experiments/AOT/AOT_stimuli/rescaled_final/0201_rv.mp4	0.0	179.9218828678131	0.10005497932434082
3	155.45756793022156	fix_pre	0		120	1.0	2.5	/experiments/AOT/AOT_stimuli/rescaled_final/1519_fw.mp4	0.0	180.02193784713745	1.0000290870666504
3	156.03355193138123	pulse	0	t		1.0	2.5	/experiments/AOT/AOT_stimuli/rescaled_final/1519_fw.mp4	0.0	180.59792184829712	
3	156.4575970172882	movie	1		247	1.0	2.5	/experiments/AOT/AOT_stimuli/rescaled_final/1519_fw.mp4	0.0	181.0219669342041	2.5000109672546387
3	157.64113211631775	pulse	1	t		1.0	2.5	/experiments/AOT/AOT_stimuli/rescaled_final/1519_fw.mp4	0.0	182.20550203323364	
3	158.95760798454285	fix_post	2		12	1.0	2.5	/experiments/AOT/AOT_stimuli/rescaled_final/1519_fw.mp4	0.0	183.52197790145874	0.10002398490905762
4	159.0576319694519	fix_pre	0		120	2.0	2.5	/experiments/AOT/AOT_stimuli/rescaled_final/1937_fw.mp4	0.0	183.6220018863678	0.9999489784240723
4	159.23362588882446	pulse	0	t		2.0	2.5	/experiments/AOT/AOT_stimuli/rescaled_final/1937_fw.mp4	0.0	183.79799580574036	
4	160.05758094787598	movie	1		246	2.0	2.5	/experiments/AOT/AOT_stimuli/rescaled_final/1937_fw.mp4	0.0	184.62195086479187	2.5000240802764893
4	160.83358693122864	pulse	1	t		2.0	2.5	/experiments/AOT/AOT_stimuli/rescaled_final/1937_fw.mp4	0.0	185.39795684814453	
4	162.43978691101074	pulse	1	t		2.0	2.5	/experiments/AOT/AOT_stimuli/rescaled_final/1937_fw.mp4	0.0	187.00415682792664	
4	162.55760502815247	fix_post	2		12	2.0	2.5	/experiments/AOT/AOT_stimuli/rescaled_final/1937_fw.mp4	0.0	187.12197494506836	0.09997701644897461
5	162.65758204460144	fix_pre	0		120	3.0	2.5	/experiments/AOT/AOT_stimuli/rescaled_final/0801_rv.mp4	0.0	187.22195196151733	1.0000739097595215
5	163.65765595436096	movie	1		245	3.0	2.5	/experiments/AOT/AOT_stimuli/rescaled_final/0801_rv.mp4	0.0	188.22202587127686	2.499856948852539
5	164.04066395759583	pulse	1	t		3.0	2.5	/experiments/AOT/AOT_stimuli/rescaled_final/0801_rv.mp4	0.0	188.60503387451172	
5	165.6337010860443	pulse	1	t		3.0	2.5	/experiments/AOT/AOT_stimuli/rescaled_final/0801_rv.mp4	0.0	190.1980710029602	
5	166.1575129032135	fix_post	2		12	3.0	2.5	/experiments/AOT/AOT_stimuli/rescaled_final/0801_rv.mp4	0.0	190.7218828201294	0.10002613067626953
6	166.25753903388977	fix_pre	0		119	4.0	2.5	/experiments/AOT/AOT_stimuli/rescaled_final/0886_fw.mp4	0.0	190.82190895080566	0.9916229248046875
6	167.2410650253296	pulse	0	t		4.0	2.5	/experiments/AOT/AOT_stimuli/rescaled_final/0886_fw.mp4	0.0	191.80543494224548	
6	167.24916195869446	movie	1		246	4.0	2.5	/experiments/AOT/AOT_stimuli/rescaled_final/0886_fw.mp4	0.0	191.81353187561035	2.5083720684051514
6	168.84124207496643	pulse	1	t		4.0	2.5	/experiments/AOT/AOT_stimuli/rescaled_final/0886_fw.mp4	0.0	193.40561199188232	
6	169.7575340270996	fix_post	2		12	4.0	2.5	/experiments/AOT/AOT_stimuli/rescaled_final/0886_fw.mp4	0.0	194.3219039440155	0.10001087188720703
7	169.85754489898682	fix_pre	0		120	5.0	2.5	blank	1.0	194.4219148159027	1.0000500679016113
7	170.44103503227234	pulse	0	t		5.0	2.5	blank	1.0	195.00540494918823	
7	170.85759496688843	movie	1		300	5.0	2.5	blank	1.0	195.42196488380432	2.499937057495117
7	172.03351092338562	pulse	1	t		5.0	2.5	blank	1.0	196.5978808403015	
7	173.35753202438354	fix_post	2		12	5.0	2.5	blank	1.0	197.92190194129944	0.10002803802490234
8	173.45756006240845	fix_pre	0		120	6.0	2.5	/experiments/AOT/AOT_stimuli/rescaled_final/1079_fw.mp4	0.0	198.02192997932434	0.9999790191650391
8	173.6334969997406	pulse	0	t		6.0	2.5	/experiments/AOT/AOT_stimuli/rescaled_final/1079_fw.mp4	0.0	198.1978669166565	
8	174.4575390815735	movie	1		245	6.0	2.5	/experiments/AOT/AOT_stimuli/rescaled_final/1079_fw.mp4	0.0	199.02190899848938	2.4999828338623047
8	175.2335000038147	pulse	1	t		6.0	2.5	/experiments/AOT/AOT_stimuli/rescaled_final/1079_fw.mp4	0.0	199.7978699207306	
8	176.83931803703308	pulse	1	t		6.0	2.5	/experiments/AOT/AOT_stimuli/rescaled_final/1079_fw.mp4	0.0	201.40368795394897	
8	176.9575219154358	fix_post	2		12	6.0	2.5	/experiments/AOT/AOT_stimuli/rescaled_final/1079_fw.mp4	0.0	201.52189183235168	0.09997701644897461
9	177.05749893188477	fix_pre	0		120	7.0	2.5	/experiments/AOT/AOT_stimuli/rescaled_final/0706_rv.mp4	0.0	201.62186884880066	1.0000550746917725
9	178.05755400657654	movie	1		246	7.0	2.5	/experiments/AOT/AOT_stimuli/rescaled_final/0706_rv.mp4	0.0	202.62192392349243	2.4999589920043945
9	178.44059896469116	pulse	1	t		7.0	2.5	/experiments/AOT/AOT_stimuli/rescaled_final/0706_rv.mp4	0.0	203.00496888160706	
9	180.0336139202118	pulse	1	t		7.0	2.5	/experiments/AOT/AOT_stimuli/rescaled_final/0706_rv.mp4	0.0	204.59798383712769	
9	180.55751299858093	fix_post	2		12	7.0	2.5	/experiments/AOT/AOT_stimuli/rescaled_final/0706_rv.mp4	0.0	205.12188291549683	0.1000521183013916
10	180.65756511688232	fix_pre	0		119	8.0	2.5	/experiments/AOT/AOT_stimuli/rescaled_final/2156_fw.mp4	0.0	205.22193503379822	0.9916958808898926
10	181.63348007202148	pulse	0	t		8.0	2.5	/experiments/AOT/AOT_stimuli/rescaled_final/2156_fw.mp4	0.0	206.19784998893738	
10	181.64926099777222	movie	1		247	8.0	2.5	/experiments/AOT/AOT_stimuli/rescaled_final/2156_fw.mp4	0.0	206.2136309146881	2.5082569122314453
10	183.24050402641296	pulse	1	t		8.0	2.5	/experiments/AOT/AOT_stimuli/rescaled_final/2156_fw.mp4	0.0	207.80487394332886	
10	184.15751791000366	fix_post	2		12	8.0	2.5	/experiments/AOT/AOT_stimuli/rescaled_final/2156_fw.mp4	0.0	208.72188782691956	0.09995508193969727
11	184.25747299194336	fix_pre	0		120	9.0	2.5	/experiments/AOT/AOT_stimuli/rescaled_final/1914_rv.mp4	0.0	208.82184290885925	0.9999558925628662
11	184.840980052948	pulse	0	t		9.0	2.5	/experiments/AOT/AOT_stimuli/rescaled_final/1914_rv.mp4	0.0	209.4053499698639	
11	185.25742888450623	movie	1		244	9.0	2.5	/experiments/AOT/AOT_stimuli/rescaled_final/1914_rv.mp4	0.0	209.82179880142212	2.5000250339508057
11	186.43372893333435	pulse	1	t		9.0	2.5	/experiments/AOT/AOT_stimuli/rescaled_final/1914_rv.mp4	0.0	210.99809885025024	
11	187.75745391845703	fix_post	2		12	9.0	2.5	/experiments/AOT/AOT_stimuli/rescaled_final/1914_rv.mp4	0.0	212.32182383537292	0.09993600845336914
12	187.8573899269104	fix_pre	0		120	10.0	2.5	/experiments/AOT/AOT_stimuli/rescaled_final/1058_fw.mp4	0.0	212.4217598438263	1.0001311302185059
12	188.04107999801636	pulse	0	t		10.0	2.5	/experiments/AOT/AOT_stimuli/rescaled_final/1058_fw.mp4	0.0	212.60544991493225	
12	188.8575210571289	movie	1		244	10.0	2.5	/experiments/AOT/AOT_stimuli/rescaled_final/1058_fw.mp4	0.0	213.4218909740448	2.499955892562866
12	189.63360691070557	pulse	1	t		10.0	2.5	/experiments/AOT/AOT_stimuli/rescaled_final/1058_fw.mp4	0.0	214.19797682762146	
12	191.23962688446045	pulse	1	t		10.0	2.5	/experiments/AOT/AOT_stimuli/rescaled_final/1058_fw.mp4	0.0	215.80399680137634	
12	191.35747694969177	fix_post	2		12	10.0	2.5	/experiments/AOT/AOT_stimuli/rescaled_final/1058_fw.mp4	0.0	215.92184686660767	0.09999394416809082
13	191.45747089385986	fix_pre	0		120	11.0	2.5	/experiments/AOT/AOT_stimuli/rescaled_final/0077_rv.mp4	0.0	216.02184081077576	0.9999380111694336
13	192.4574089050293	movie	1		243	11.0	2.5	/experiments/AOT/AOT_stimuli/rescaled_final/0077_rv.mp4	0.0	217.0217788219452	2.500101089477539
13	192.84080600738525	pulse	1	t		11.0	2.5	/experiments/AOT/AOT_stimuli/rescaled_final/0077_rv.mp4	0.0	217.40517592430115	
13	194.43355989456177	pulse	1	t		11.0	2.5	/experiments/AOT/AOT_stimuli/rescaled_final/0077_rv.mp4	0.0	218.99792981147766	
13	194.95750999450684	fix_post	2		12	11.0	2.5	/experiments/AOT/AOT_stimuli/rescaled_final/0077_rv.mp4	0.0	219.52187991142273	0.10001707077026367
14	195.0575270652771	fix_pre	0		119	12.0	2.5	/experiments/AOT/AOT_stimuli/rescaled_final/0157_rv.mp4	0.0	219.621896982193	0.9916119575500488
14	196.03348898887634	pulse	0	t		12.0	2.5	/experiments/AOT/AOT_stimuli/rescaled_final/0157_rv.mp4	0.0	220.59785890579224	
14	196.04913902282715	movie	1		244	12.0	2.5	/experiments/AOT/AOT_stimuli/rescaled_final/0157_rv.mp4	0.0	220.61350893974304	2.5079638957977295
14	197.63988590240479	pulse	1	t		12.0	2.5	/experiments/AOT/AOT_stimuli/rescaled_final/0157_rv.mp4	0.0	222.20425581932068	
14	198.55710291862488	fix_post	2		12	12.0	2.5	/experiments/AOT/AOT_stimuli/rescaled_final/0157_rv.mp4	0.0	223.12147283554077	0.09999918937683105
15	198.6571021080017	fix_pre	0		120	13.0	2.5	/experiments/AOT/AOT_stimuli/rescaled_final/0312_fw.mp4	0.0	223.2214720249176	1.0006098747253418
15	199.24120998382568	pulse	0	t		13.0	2.5	/experiments/AOT/AOT_stimuli/rescaled_final/0312_fw.mp4	0.0	223.80557990074158	
15	199.65771198272705	movie	1		242	13.0	2.5	/experiments/AOT/AOT_stimuli/rescaled_final/0312_fw.mp4	0.0	224.22208189964294	2.4996249675750732
15	200.84100794792175	pulse	1	t		13.0	2.5	/experiments/AOT/AOT_stimuli/rescaled_final/0312_fw.mp4	0.0	225.40537786483765	
15	202.15733695030212	fix_post	2		12	13.0	2.5	/experiments/AOT/AOT_stimuli/rescaled_final/0312_fw.mp4	0.0	226.72170686721802	0.10013699531555176
16	202.25747394561768	fix_pre	0		120	14.0	2.5	blank	1.0	226.82184386253357	0.999845027923584
16	202.44091892242432	pulse	0	t		14.0	2.5	blank	1.0	227.0052888393402	
16	203.25731897354126	movie	1		300	14.0	2.5	blank	1.0	227.82168889045715	2.500075101852417
16	204.04090809822083	pulse	1	t		14.0	2.5	blank	1.0	228.60527801513672	
16	205.6407868862152	pulse	1	t		14.0	2.5	blank	1.0	230.2051568031311	
16	205.75739407539368	fix_post	2		12	14.0	2.5	blank	1.0	230.32176399230957	0.0999598503112793
17	205.85735392570496	fix_pre	0		120	15.0	2.5	/experiments/AOT/AOT_stimuli/rescaled_final/0706_fw.mp4	0.0	230.42172384262085	1.0000531673431396
17	206.8574070930481	movie	1		247	15.0	2.5	/experiments/AOT/AOT_stimuli/rescaled_final/0706_fw.mp4	0.0	231.421777009964	2.4998819828033447
17	207.2403280735016	pulse	1	t		15.0	2.5	/experiments/AOT/AOT_stimuli/rescaled_final/0706_fw.mp4	0.0	231.80469799041748	
17	208.83337688446045	pulse	1	t		15.0	2.5	/experiments/AOT/AOT_stimuli/rescaled_final/0706_fw.mp4	0.0	233.39774680137634	
17	209.35728907585144	fix_post	2		12	15.0	2.5	/experiments/AOT/AOT_stimuli/rescaled_final/0706_fw.mp4	0.0	233.92165899276733	0.10006999969482422
18	209.45735907554626	fix_pre	0		119	16.0	2.5	/experiments/AOT/AOT_stimuli/rescaled_final/0194_fw.mp4	0.0	234.02172899246216	0.9915988445281982
18	210.43333411216736	pulse	0	t		16.0	2.5	/experiments/AOT/AOT_stimuli/rescaled_final/0194_fw.mp4	0.0	234.99770402908325	
18	210.44895792007446	movie	1		248	16.0	2.5	/experiments/AOT/AOT_stimuli/rescaled_final/0194_fw.mp4	0.0	235.01332783699036	2.508392095565796
18	212.04060792922974	pulse	1	t		16.0	2.5	/experiments/AOT/AOT_stimuli/rescaled_final/0194_fw.mp4	0.0	236.60497784614563	
18	212.95735001564026	fix_post	2		12	16.0	2.5	/experiments/AOT/AOT_stimuli/rescaled_final/0194_fw.mp4	0.0	237.52171993255615	0.10000801086425781
19	213.05735802650452	fix_pre	0		120	17.0	2.5	/experiments/AOT/AOT_stimuli/rescaled_final/1113_rv.mp4	0.0	237.6217279434204	0.9999470710754395
19	213.6333680152893	pulse	0	t		17.0	2.5	/experiments/AOT/AOT_stimuli/rescaled_final/1113_rv.mp4	0.0	238.1977379322052	
19	214.05730509757996	movie	1		242	17.0	2.5	/experiments/AOT/AOT_stimuli/rescaled_final/1113_rv.mp4	0.0	238.62167501449585	2.5001118183135986
19	215.24096202850342	pulse	1	t		17.0	2.5	/experiments/AOT/AOT_stimuli/rescaled_final/1113_rv.mp4	0.0	239.8053319454193	
19	216.55741691589355	fix_post	2		12	17.0	2.5	/experiments/AOT/AOT_stimuli/rescaled_final/1113_rv.mp4	0.0	241.12178683280945	0.09995102882385254
20	216.6573679447174	fix_pre	0		120	18.0	2.5	/experiments/AOT/AOT_stimuli/rescaled_final/1184_rv.mp4	0.0	241.2217378616333	0.9999561309814453
20	216.84084105491638	pulse	0	t		18.0	2.5	/experiments/AOT/AOT_stimuli/rescaled_final/1184_rv.mp4	0.0	241.40521097183228	
20	217.65732407569885	movie	1		244	18.0	2.5	/experiments/AOT/AOT_stimuli/rescaled_final/1184_rv.mp4	0.0	242.22169399261475	2.499969005584717
20	218.44076299667358	pulse	1	t		18.0	2.5	/experiments/AOT/AOT_stimuli/rescaled_final/1184_rv.mp4	0.0	243.00513291358948	
20	220.03934502601624	pulse	1	t		18.0	2.5	/experiments/AOT/AOT_stimuli/rescaled_final/1184_rv.mp4	0.0	244.60371494293213	
20	220.15729308128357	fix_post	2		12	18.0	2.5	/experiments/AOT/AOT_stimuli/rescaled_final/1184_rv.mp4	0.0	244.72166299819946	0.09998893737792969
21	220.2572820186615	fix_pre	0		120	19.0	2.5	/experiments/AOT/AOT_stimuli/rescaled_final/0706_rv.mp4	0.0	244.8216519355774	1.0001189708709717
21	221.25740098953247	movie	1		245	19.0	2.5	/experiments/AOT/AOT_stimuli/rescaled_final/0706_rv.mp4	0.0	245.82177090644836	2.4998619556427
21	221.6406409740448	pulse	1	t		19.0	2.5	/experiments/AOT/AOT_stimuli/rescaled_final/0706_rv.mp4	0.0	246.2050108909607	
21	223.23343110084534	pulse	1	t		19.0	2.5	/experiments/AOT/AOT_stimuli/rescaled_final/0706_rv.mp4	0.0	247.79780101776123	
21	223.75726294517517	fix_post	2		12	19.0	2.5	/experiments/AOT/AOT_stimuli/rescaled_final/0706_rv.mp4	0.0	248.32163286209106	0.10003399848937988
22	223.85729694366455	fix_pre	0		119	20.0	2.5	blank	1.0	248.42166686058044	0.9915859699249268
22	224.8333671092987	pulse	0	t		20.0	2.5	blank	1.0	249.3977370262146	
22	224.84888291358948	movie	1		301	20.0	2.5	blank	1.0	249.41325283050537	2.5084011554718018
22	226.43320393562317	pulse	1	t		20.0	2.5	blank	1.0	250.99757385253906	
22	227.35728406906128	fix_post	2		12	20.0	2.5	blank	1.0	251.92165398597717	0.09995889663696289
23	227.45724296569824	fix_pre	0		120	21.0	2.5	/experiments/AOT/AOT_stimuli/rescaled_final/1114_fw.mp4	0.0	252.02161288261414	1.0000059604644775
23	228.03319191932678	pulse	0	t		21.0	2.5	/experiments/AOT/AOT_stimuli/rescaled_final/1114_fw.mp4	0.0	252.59756183624268	
23	228.45724892616272	movie	1		244	21.0	2.5	/experiments/AOT/AOT_stimuli/rescaled_final/1114_fw.mp4	0.0	253.0216188430786	2.500033140182495
23	229.64076900482178	pulse	1	t		21.0	2.5	/experiments/AOT/AOT_stimuli/rescaled_final/1114_fw.mp4	0.0	254.20513892173767	
23	230.95728206634521	fix_post	2		12	21.0	2.5	/experiments/AOT/AOT_stimuli/rescaled_final/1114_fw.mp4	0.0	255.5216519832611	0.09989690780639648
24	231.0571789741516	fix_pre	0		120	22.0	2.5	/experiments/AOT/AOT_stimuli/rescaled_final/0927_rv.mp4	0.0	255.6215488910675	1.0001220703125
24	231.2407898902893	pulse	0	t		22.0	2.5	/experiments/AOT/AOT_stimuli/rescaled_final/0927_rv.mp4	0.0	255.8051598072052	
24	232.0573010444641	movie	1		243	22.0	2.5	/experiments/AOT/AOT_stimuli/rescaled_final/0927_rv.mp4	0.0	256.62167096138	2.5004000663757324
24	232.84074807167053	pulse	1	t		22.0	2.5	/experiments/AOT/AOT_stimuli/rescaled_final/0927_rv.mp4	0.0	257.4051179885864	
24	234.4391839504242	pulse	1	t		22.0	2.5	/experiments/AOT/AOT_stimuli/rescaled_final/0927_rv.mp4	0.0	259.0035538673401	
24	234.55770111083984	fix_post	2		12	22.0	2.5	/experiments/AOT/AOT_stimuli/rescaled_final/0927_rv.mp4	0.0	259.12207102775574	0.09947681427001953
25	234.65717792510986	fix_pre	0		120	23.0	2.5	/experiments/AOT/AOT_stimuli/rescaled_final/1971_rv.mp4	0.0	259.22154784202576	1.000087022781372
25	235.65726494789124	movie	1		244	23.0	2.5	/experiments/AOT/AOT_stimuli/rescaled_final/1971_rv.mp4	0.0	260.22163486480713	2.499964952468872
25	236.04043889045715	pulse	1	t		23.0	2.5	/experiments/AOT/AOT_stimuli/rescaled_final/1971_rv.mp4	0.0	260.60480880737305	
25	237.64077591896057	pulse	1	t		23.0	2.5	/experiments/AOT/AOT_stimuli/rescaled_final/1971_rv.mp4	0.0	262.20514583587646	
25	238.1572299003601	fix_post	2		12	23.0	2.5	/experiments/AOT/AOT_stimuli/rescaled_final/1971_rv.mp4	0.0	262.721599817276	0.09997320175170898
26	238.25720310211182	fix_pre	0		119	24.0	2.5	/experiments/AOT/AOT_stimuli/rescaled_final/0453_fw.mp4	0.0	262.8215730190277	0.9916880130767822
26	239.24081993103027	pulse	0	t		24.0	2.5	/experiments/AOT/AOT_stimuli/rescaled_final/0453_fw.mp4	0.0	263.80518984794617	
26	239.2488911151886	movie	1		245	24.0	2.5	/experiments/AOT/AOT_stimuli/rescaled_final/0453_fw.mp4	0.0	263.8132610321045	2.50834584236145
26	240.84074687957764	pulse	1	t		24.0	2.5	/experiments/AOT/AOT_stimuli/rescaled_final/0453_fw.mp4	0.0	265.40511679649353	
26	241.75723695755005	fix_post	2		12	24.0	2.5	/experiments/AOT/AOT_stimuli/rescaled_final/0453_fw.mp4	0.0	266.32160687446594	0.09999608993530273
27	241.85723304748535	fix_pre	0		120	25.0	2.5	/experiments/AOT/AOT_stimuli/rescaled_final/0522_fw.mp4	0.0	266.42160296440125	0.9999680519104004
27	242.43328189849854	pulse	0	t		25.0	2.5	/experiments/AOT/AOT_stimuli/rescaled_final/0522_fw.mp4	0.0	266.99765181541443	
27	242.85720109939575	movie	1		242	25.0	2.5	/experiments/AOT/AOT_stimuli/rescaled_final/0522_fw.mp4	0.0	267.42157101631165	2.4995338916778564
27	244.0407919883728	pulse	1	t		25.0	2.5	/experiments/AOT/AOT_stimuli/rescaled_final/0522_fw.mp4	0.0	268.6051619052887	
27	245.3567349910736	fix_post	2		12	25.0	2.5	/experiments/AOT/AOT_stimuli/rescaled_final/0522_fw.mp4	0.0	269.9211049079895	0.10052990913391113
28	245.45726490020752	fix_pre	0		120	26.0	2.5	blank	1.0	270.0216348171234	0.999993085861206
28	245.6332049369812	pulse	0	t		26.0	2.5	blank	1.0	270.1975748538971	
28	246.45725798606873	movie	1		300	26.0	2.5	blank	1.0	271.0216279029846	2.499959945678711
28	247.2406361103058	pulse	1	t		26.0	2.5	blank	1.0	271.8050060272217	
28	248.8405680656433	pulse	1	t		26.0	2.5	blank	1.0	273.4049379825592	
28	248.95721793174744	fix_post	2		12	26.0	2.5	blank	1.0	273.52158784866333	0.09999418258666992
29	249.0572121143341	fix_pre	0		120	27.0	2.5	/experiments/AOT/AOT_stimuli/rescaled_final/0705_rv.mp4	0.0	273.62158203125	0.9998908042907715
29	250.05710291862488	movie	1		246	27.0	2.5	/experiments/AOT/AOT_stimuli/rescaled_final/0705_rv.mp4	0.0	274.62147283554077	2.4996800422668457
29	250.44068908691406	pulse	1	t		27.0	2.5	/experiments/AOT/AOT_stimuli/rescaled_final/0705_rv.mp4	0.0	275.00505900382996	
29	252.0406370162964	pulse	1	t		27.0	2.5	/experiments/AOT/AOT_stimuli/rescaled_final/0705_rv.mp4	0.0	276.6050069332123	
29	252.55678296089172	fix_post	2		12	27.0	2.5	/experiments/AOT/AOT_stimuli/rescaled_final/0705_rv.mp4	0.0	277.1211528778076	0.09993910789489746
30	252.65672206878662	fix_pre	0		119	28.0	2.5	/experiments/AOT/AOT_stimuli/rescaled_final/1909_fw.mp4	0.0	277.2210919857025	0.9921250343322754
30	253.6403739452362	pulse	0	t		28.0	2.5	/experiments/AOT/AOT_stimuli/rescaled_final/1909_fw.mp4	0.0	278.2047438621521	
30	253.6488471031189	movie	1		247	28.0	2.5	/experiments/AOT/AOT_stimuli/rescaled_final/1909_fw.mp4	0.0	278.2132170200348	2.5083208084106445
30	255.23983788490295	pulse	1	t		28.0	2.5	/experiments/AOT/AOT_stimuli/rescaled_final/1909_fw.mp4	0.0	279.80420780181885	
30	256.15716791152954	fix_post	2		12	28.0	2.5	/experiments/AOT/AOT_stimuli/rescaled_final/1909_fw.mp4	0.0	280.72153782844543	0.10006904602050781
31	256.25723695755005	fix_pre	0		120	29.0	2.5	/experiments/AOT/AOT_stimuli/rescaled_final/0349_rv.mp4	0.0	280.82160687446594	0.9998719692230225
31	256.84084606170654	pulse	0	t		29.0	2.5	/experiments/AOT/AOT_stimuli/rescaled_final/0349_rv.mp4	0.0	281.40521597862244	
31	257.25710892677307	movie	1		244	29.0	2.5	/experiments/AOT/AOT_stimuli/rescaled_final/0349_rv.mp4	0.0	281.82147884368896	2.499669075012207
31	258.44062995910645	pulse	1	t		29.0	2.5	/experiments/AOT/AOT_stimuli/rescaled_final/0349_rv.mp4	0.0	283.00499987602234	
31	259.7567780017853	fix_post	2		12	29.0	2.5	/experiments/AOT/AOT_stimuli/rescaled_final/0349_rv.mp4	0.0	284.3211479187012	0.10029196739196777
32	259.85706996917725	fix_pre	0		120	30.0	2.5	/experiments/AOT/AOT_stimuli/rescaled_final/1693_rv.mp4	0.0	284.42143988609314	1.0000650882720947
32	260.03306698799133	pulse	0	t		30.0	2.5	/experiments/AOT/AOT_stimuli/rescaled_final/1693_rv.mp4	0.0	284.5974369049072	
32	260.85713505744934	movie	1		244	30.0	2.5	/experiments/AOT/AOT_stimuli/rescaled_final/1693_rv.mp4	0.0	285.42150497436523	2.4999208450317383
32	261.63304710388184	pulse	1	t		30.0	2.5	/experiments/AOT/AOT_stimuli/rescaled_final/1693_rv.mp4	0.0	286.19741702079773	
32	263.2364740371704	pulse	1	t		30.0	2.5	/experiments/AOT/AOT_stimuli/rescaled_final/1693_rv.mp4	0.0	287.8008439540863	
32	263.3570559024811	fix_post	2		12	30.0	2.5	/experiments/AOT/AOT_stimuli/rescaled_final/1693_rv.mp4	0.0	287.921425819397	0.1000370979309082
33	263.457093000412	fix_pre	0		120	31.0	2.5	/experiments/AOT/AOT_stimuli/rescaled_final/1079_rv.mp4	0.0	288.0214629173279	0.9999539852142334
33	264.4570469856262	movie	1		243	31.0	2.5	/experiments/AOT/AOT_stimuli/rescaled_final/1079_rv.mp4	0.0	289.0214169025421	2.499979019165039
33	264.84020495414734	pulse	1	t		31.0	2.5	/experiments/AOT/AOT_stimuli/rescaled_final/1079_rv.mp4	0.0	289.40457487106323	
33	266.4405200481415	pulse	1	t		31.0	2.5	/experiments/AOT/AOT_stimuli/rescaled_final/1079_rv.mp4	0.0	291.0048899650574	
33	266.95702600479126	fix_post	2		12	31.0	2.5	/experiments/AOT/AOT_stimuli/rescaled_final/1079_rv.mp4	0.0	291.52139592170715	0.10001397132873535
34	267.05703997612	fix_pre	0		119	32.0	2.5	/experiments/AOT/AOT_stimuli/rescaled_final/1717_rv.mp4	0.0	291.6214098930359	0.9918150901794434
34	268.0405480861664	pulse	0	t		32.0	2.5	/experiments/AOT/AOT_stimuli/rescaled_final/1717_rv.mp4	0.0	292.6049180030823	
34	268.04885506629944	movie	1		244	32.0	2.5	/experiments/AOT/AOT_stimuli/rescaled_final/1717_rv.mp4	0.0	292.61322498321533	2.5082309246063232
34	269.64017701148987	pulse	1	t		32.0	2.5	/experiments/AOT/AOT_stimuli/rescaled_final/1717_rv.mp4	0.0	294.20454692840576	
34	270.55708599090576	fix_post	2		12	32.0	2.5	/experiments/AOT/AOT_stimuli/rescaled_final/1717_rv.mp4	0.0	295.12145590782166	0.09989690780639648
35	270.65698289871216	fix_pre	0		120	33.0	2.5	blank	1.0	295.22135281562805	1.0000481605529785
35	271.2406270503998	pulse	0	t		33.0	2.5	blank	1.0	295.8049969673157	
35	271.65703105926514	movie	1		300	33.0	2.5	blank	1.0	296.22140097618103	2.500027894973755
35	272.8405919075012	pulse	1	t		33.0	2.5	blank	1.0	297.4049618244171	
35	274.1570589542389	fix_post	2		12	33.0	2.5	blank	1.0	298.7214288711548	0.0999600887298584
36	274.25701904296875	fix_pre	0		120	34.0	2.5	/experiments/AOT/AOT_stimuli/rescaled_final/0106_rv.mp4	0.0	298.82138895988464	1.0000228881835938
36	274.44063210487366	pulse	0	t		34.0	2.5	/experiments/AOT/AOT_stimuli/rescaled_final/0106_rv.mp4	0.0	299.00500202178955	
36	275.25704193115234	movie	1		243	34.0	2.5	/experiments/AOT/AOT_stimuli/rescaled_final/0106_rv.mp4	0.0	299.82141184806824	2.500049114227295
36	276.04053497314453	pulse	1	t		34.0	2.5	/experiments/AOT/AOT_stimuli/rescaled_final/0106_rv.mp4	0.0	300.6049048900604	
36	277.6390280723572	pulse	1	t		34.0	2.5	/experiments/AOT/AOT_stimuli/rescaled_final/0106_rv.mp4	0.0	302.20339798927307	
36	277.75709104537964	fix_post	2		12	34.0	2.5	/experiments/AOT/AOT_stimuli/rescaled_final/0106_rv.mp4	0.0	302.32146096229553	0.09989285469055176
37	277.8569839000702	fix_pre	0		120	35.0	2.5	/experiments/AOT/AOT_stimuli/rescaled_final/1909_rv.mp4	0.0	302.4213538169861	1.0000970363616943
37	278.8570809364319	movie	1		244	35.0	2.5	/experiments/AOT/AOT_stimuli/rescaled_final/1909_rv.mp4	0.0	303.4214508533478	2.4999589920043945
37	279.2404639720917	pulse	1	t		35.0	2.5	/experiments/AOT/AOT_stimuli/rescaled_final/1909_rv.mp4	0.0	303.80483388900757	
37	280.8405759334564	pulse	1	t		35.0	2.5	/experiments/AOT/AOT_stimuli/rescaled_final/1909_rv.mp4	0.0	305.4049458503723	
37	281.3570399284363	fix_post	2		12	35.0	2.5	/experiments/AOT/AOT_stimuli/rescaled_final/1909_rv.mp4	0.0	305.9214098453522	0.0999600887298584
38	281.45700001716614	fix_pre	0		119	36.0	2.5	/experiments/AOT/AOT_stimuli/rescaled_final/1782_fw.mp4	0.0	306.02136993408203	0.9916889667510986
38	282.44049191474915	pulse	0	t		36.0	2.5	/experiments/AOT/AOT_stimuli/rescaled_final/1782_fw.mp4	0.0	307.00486183166504	
38	282.44868898391724	movie	1		244	36.0	2.5	/experiments/AOT/AOT_stimuli/rescaled_final/1782_fw.mp4	0.0	307.01305890083313	2.508284091949463
38	284.0401680469513	pulse	1	t		36.0	2.5	/experiments/AOT/AOT_stimuli/rescaled_final/1782_fw.mp4	0.0	308.6045379638672	
38	284.9569730758667	fix_post	2		12	36.0	2.5	/experiments/AOT/AOT_stimuli/rescaled_final/1782_fw.mp4	0.0	309.5213429927826	0.10006499290466309
39	285.05703806877136	fix_pre	0		120	37.0	2.5	/experiments/AOT/AOT_stimuli/rescaled_final/0176_fw.mp4	0.0	309.62140798568726	0.9999818801879883
39	285.64049911499023	pulse	0	t		37.0	2.5	/experiments/AOT/AOT_stimuli/rescaled_final/0176_fw.mp4	0.0	310.2048690319061	
39	286.05701994895935	movie	1		243	37.0	2.5	/experiments/AOT/AOT_stimuli/rescaled_final/0176_fw.mp4	0.0	310.62138986587524	2.4999849796295166
39	287.2405788898468	pulse	1	t		37.0	2.5	/experiments/AOT/AOT_stimuli/rescaled_final/0176_fw.mp4	0.0	311.8049488067627	
39	288.55700492858887	fix_post	2		12	37.0	2.5	/experiments/AOT/AOT_stimuli/rescaled_final/0176_fw.mp4	0.0	313.12137484550476	0.09996795654296875
40	288.65697288513184	fix_pre	0		120	38.0	2.5	/experiments/AOT/AOT_stimuli/rescaled_final/1071_rv.mp4	0.0	313.22134280204773	1.0000190734863281
40	288.84046506881714	pulse	0	t		38.0	2.5	/experiments/AOT/AOT_stimuli/rescaled_final/1071_rv.mp4	0.0	313.40483498573303	
40	289.65699195861816	movie	1		243	38.0	2.5	/experiments/AOT/AOT_stimuli/rescaled_final/1071_rv.mp4	0.0	314.22136187553406	2.499959945678711
40	290.4404799938202	pulse	1	t		38.0	2.5	/experiments/AOT/AOT_stimuli/rescaled_final/1071_rv.mp4	0.0	315.0048499107361	
40	292.03885197639465	pulse	1	t		38.0	2.5	/experiments/AOT/AOT_stimuli/rescaled_final/1071_rv.mp4	0.0	316.60322189331055	
40	292.1569519042969	fix_post	2		12	38.0	2.5	/experiments/AOT/AOT_stimuli/rescaled_final/1071_rv.mp4	0.0	316.72132182121277	0.10005998611450195
41	292.2570118904114	fix_pre	0		120	39.0	2.5	/experiments/AOT/AOT_stimuli/rescaled_final/1454_rv.mp4	0.0	316.82138180732727	0.9998791217803955
41	293.2568910121918	movie	1		245	39.0	2.5	/experiments/AOT/AOT_stimuli/rescaled_final/1454_rv.mp4	0.0	317.82126092910767	2.50014591217041
41	293.6415870189667	pulse	1	t		39.0	2.5	/experiments/AOT/AOT_stimuli/rescaled_final/1454_rv.mp4	0.0	318.20595693588257	
41	295.2404088973999	pulse	1	t		39.0	2.5	/experiments/AOT/AOT_stimuli/rescaled_final/1454_rv.mp4	0.0	319.8047788143158	
41	295.7570369243622	fix_post	2		12	39.0	2.5	/experiments/AOT/AOT_stimuli/rescaled_final/1454_rv.mp4	0.0	320.3214068412781	0.1000361442565918
42	295.8570730686188	fix_pre	0		119	40.0	2.5	/experiments/AOT/AOT_stimuli/rescaled_final/0520_fw.mp4	0.0	320.42144298553467	0.9915478229522705
42	296.84047293663025	pulse	0	t		40.0	2.5	/experiments/AOT/AOT_stimuli/rescaled_final/0520_fw.mp4	0.0	321.40484285354614	
42	296.84862089157104	movie	1		245	40.0	2.5	/experiments/AOT/AOT_stimuli/rescaled_final/0520_fw.mp4	0.0	321.41299080848694	2.508500099182129
42	298.44012904167175	pulse	1	t		40.0	2.5	/experiments/AOT/AOT_stimuli/rescaled_final/0520_fw.mp4	0.0	323.00449895858765	
42	299.3571209907532	fix_post	2		12	40.0	2.5	/experiments/AOT/AOT_stimuli/rescaled_final/0520_fw.mp4	0.0	323.92149090766907	0.09975004196166992
43	299.45687103271484	fix_pre	0		120	41.0	2.5	/experiments/AOT/AOT_stimuli/rescaled_final/1913_rv.mp4	0.0	324.02124094963074	0.9999918937683105
43	300.04039311408997	pulse	0	t		41.0	2.5	/experiments/AOT/AOT_stimuli/rescaled_final/1913_rv.mp4	0.0	324.60476303100586	
43	300.45686292648315	movie	1		245	41.0	2.5	/experiments/AOT/AOT_stimuli/rescaled_final/1913_rv.mp4	0.0	325.02123284339905	2.5006680488586426
43	301.6404399871826	pulse	1	t		41.0	2.5	/experiments/AOT/AOT_stimuli/rescaled_final/1913_rv.mp4	0.0	326.2048099040985	
43	302.9575309753418	fix_post	2		12	41.0	2.5	/experiments/AOT/AOT_stimuli/rescaled_final/1913_rv.mp4	0.0	327.5219008922577	0.09935498237609863
44	303.0568859577179	fix_pre	0		120	42.0	2.5	blank	1.0	327.6212558746338	1.0000169277191162
44	303.2404749393463	pulse	0	t		42.0	2.5	blank	1.0	327.8048448562622	
44	304.056902885437	movie	1		300	42.0	2.5	blank	1.0	328.6212728023529	2.5000171661376953
44	304.8403859138489	pulse	1	t		42.0	2.5	blank	1.0	329.40475583076477	
44	306.44057393074036	pulse	1	t		42.0	2.5	blank	1.0	331.00494384765625	
44	306.5569200515747	fix_post	2		12	42.0	2.5	blank	1.0	331.1212899684906	0.09996390342712402
45	306.65688395500183	fix_pre	0		120	43.0	2.5	/experiments/AOT/AOT_stimuli/rescaled_final/0264_rv.mp4	0.0	331.2212538719177	1.0000360012054443
45	307.6569199562073	movie	1		243	43.0	2.5	/experiments/AOT/AOT_stimuli/rescaled_final/0264_rv.mp4	0.0	332.22128987312317	2.4997200965881348
45	308.0396909713745	pulse	1	t		43.0	2.5	/experiments/AOT/AOT_stimuli/rescaled_final/0264_rv.mp4	0.0	332.6040608882904	
45	309.63996410369873	pulse	1	t		43.0	2.5	/experiments/AOT/AOT_stimuli/rescaled_final/0264_rv.mp4	0.0	334.2043340206146	
45	310.1566400527954	fix_post	2		12	43.0	2.5	/experiments/AOT/AOT_stimuli/rescaled_final/0264_rv.mp4	0.0	334.7210099697113	0.09999299049377441
46	310.2566330432892	fix_pre	0		119	44.0	2.5	/experiments/AOT/AOT_stimuli/rescaled_final/1680_rv.mp4	0.0	334.8210029602051	0.9921698570251465
46	311.24073791503906	pulse	0	t		44.0	2.5	/experiments/AOT/AOT_stimuli/rescaled_final/1680_rv.mp4	0.0	335.80510783195496	
46	311.24880290031433	movie	1		244	44.0	2.5	/experiments/AOT/AOT_stimuli/rescaled_final/1680_rv.mp4	0.0	335.8131728172302	2.508012056350708
46	312.8399178981781	pulse	1	t		44.0	2.5	/experiments/AOT/AOT_stimuli/rescaled_final/1680_rv.mp4	0.0	337.404287815094	
46	313.75681495666504	fix_post	2		12	44.0	2.5	/experiments/AOT/AOT_stimuli/rescaled_final/1680_rv.mp4	0.0	338.32118487358093	0.10004711151123047
47	313.85686206817627	fix_pre	0		120	45.0	2.5	/experiments/AOT/AOT_stimuli/rescaled_final/0166_fw.mp4	0.0	338.42123198509216	1.0000109672546387
47	314.44051790237427	pulse	0	t		45.0	2.5	/experiments/AOT/AOT_stimuli/rescaled_final/0166_fw.mp4	0.0	339.00488781929016	
47	314.8568730354309	movie	1		244	45.0	2.5	/experiments/AOT/AOT_stimuli/rescaled_final/0166_fw.mp4	0.0	339.4212429523468	2.499971866607666
47	316.04038095474243	pulse	1	t		45.0	2.5	/experiments/AOT/AOT_stimuli/rescaled_final/0166_fw.mp4	0.0	340.6047508716583	
47	317.3568449020386	fix_post	2		12	45.0	2.5	/experiments/AOT/AOT_stimuli/rescaled_final/0166_fw.mp4	0.0	341.92121481895447	0.09996604919433594
48	317.4568109512329	fix_pre	0		120	46.0	2.5	/experiments/AOT/AOT_stimuli/rescaled_final/0277_fw.mp4	0.0	342.0211808681488	1.0001039505004883
48	317.6402440071106	pulse	0	t		46.0	2.5	/experiments/AOT/AOT_stimuli/rescaled_final/0277_fw.mp4	0.0	342.2046139240265	
48	318.4569149017334	movie	1		246	46.0	2.5	/experiments/AOT/AOT_stimuli/rescaled_final/0277_fw.mp4	0.0	343.0212848186493	2.4998981952667236
48	319.24030208587646	pulse	1	t		46.0	2.5	/experiments/AOT/AOT_stimuli/rescaled_final/0277_fw.mp4	0.0	343.80467200279236	
48	320.8387451171875	pulse	1	t		46.0	2.5	/experiments/AOT/AOT_stimuli/rescaled_final/0277_fw.mp4	0.0	345.4031150341034	
48	320.9568130970001	fix_post	2		12	46.0	2.5	/experiments/AOT/AOT_stimuli/rescaled_final/0277_fw.mp4	0.0	345.521183013916	0.10003995895385742
49	321.056853055954	fix_pre	0		120	47.0	2.5	blank	1.0	345.6212229728699	0.9999690055847168
49	322.0568220615387	movie	1		300	47.0	2.5	blank	1.0	346.6211919784546	2.4999189376831055
49	322.44028902053833	pulse	1	t		47.0	2.5	blank	1.0	347.0046589374542	
49	324.04031705856323	pulse	1	t		47.0	2.5	blank	1.0	348.6046869754791	
49	324.5567409992218	fix_post	2		12	47.0	2.5	blank	1.0	349.1211109161377	0.10004496574401855
50	324.6567859649658	fix_pre	0		119	48.0	2.5	/experiments/AOT/AOT_stimuli/rescaled_final/0699_fw.mp4	0.0	349.2211558818817	0.9917240142822266
50	325.6403589248657	pulse	0	t		48.0	2.5	/experiments/AOT/AOT_stimuli/rescaled_final/0699_fw.mp4	0.0	350.2047288417816	
50	325.64850997924805	movie	1		245	48.0	2.5	/experiments/AOT/AOT_stimuli/rescaled_final/0699_fw.mp4	0.0	350.21287989616394	2.5083110332489014
50	327.2405469417572	pulse	1	t		48.0	2.5	/experiments/AOT/AOT_stimuli/rescaled_final/0699_fw.mp4	0.0	351.8049168586731	
50	328.15682101249695	fix_post	2		12	48.0	2.5	/experiments/AOT/AOT_stimuli/rescaled_final/0699_fw.mp4	0.0	352.72119092941284	0.09996509552001953
51	328.25678610801697	fix_pre	0		120	49.0	2.5	/experiments/AOT/AOT_stimuli/rescaled_final/0610_fw.mp4	0.0	352.82115602493286	1.0000219345092773
51	328.84024310112	pulse	0	t		49.0	2.5	/experiments/AOT/AOT_stimuli/rescaled_final/0610_fw.mp4	0.0	353.4046130180359	
51	329.25680804252625	movie	1		242	49.0	2.5	/experiments/AOT/AOT_stimuli/rescaled_final/0610_fw.mp4	0.0	353.82117795944214	2.4999899864196777
51	330.44028306007385	pulse	1	t		49.0	2.5	/experiments/AOT/AOT_stimuli/rescaled_final/0610_fw.mp4	0.0	355.00465297698975	
51	331.7567980289459	fix_post	2		12	49.0	2.5	/experiments/AOT/AOT_stimuli/rescaled_final/0610_fw.mp4	0.0	356.3211679458618	0.09993505477905273
52	331.856733083725	fix_pre	0		120	50.0	2.5	/experiments/AOT/AOT_stimuli/rescaled_final/1648_fw.mp4	0.0	356.42110300064087	0.9999969005584717
52	332.040314912796	pulse	0	t		50.0	2.5	/experiments/AOT/AOT_stimuli/rescaled_final/1648_fw.mp4	0.0	356.6046848297119	
52	332.85672998428345	movie	1		242	50.0	2.5	/experiments/AOT/AOT_stimuli/rescaled_final/1648_fw.mp4	0.0	357.42109990119934	2.499988079071045
52	333.64024591445923	pulse	1	t		50.0	2.5	/experiments/AOT/AOT_stimuli/rescaled_final/1648_fw.mp4	0.0	358.2046158313751	
52	335.2386600971222	pulse	1	t		50.0	2.5	/experiments/AOT/AOT_stimuli/rescaled_final/1648_fw.mp4	0.0	359.8030300140381	
52	335.3567180633545	fix_post	2		12	50.0	2.5	/experiments/AOT/AOT_stimuli/rescaled_final/1648_fw.mp4	0.0	359.9210879802704	0.10002493858337402
53	335.45674300193787	fix_pre	0		120	51.0	2.5	/experiments/AOT/AOT_stimuli/rescaled_final/1233_rv.mp4	0.0	360.02111291885376	1.0000460147857666
53	336.45678901672363	movie	1		247	51.0	2.5	/experiments/AOT/AOT_stimuli/rescaled_final/1233_rv.mp4	0.0	361.0211589336395	2.4999990463256836
53	336.8399419784546	pulse	1	t		51.0	2.5	/experiments/AOT/AOT_stimuli/rescaled_final/1233_rv.mp4	0.0	361.4043118953705	
53	338.4402039051056	pulse	1	t		51.0	2.5	/experiments/AOT/AOT_stimuli/rescaled_final/1233_rv.mp4	0.0	363.0045738220215	
53	338.9567880630493	fix_post	2		12	51.0	2.5	/experiments/AOT/AOT_stimuli/rescaled_final/1233_rv.mp4	0.0	363.5211579799652	0.09987497329711914
54	339.05666303634644	fix_pre	0		119	52.0	2.5	/experiments/AOT/AOT_stimuli/rescaled_final/1974_fw.mp4	0.0	363.62103295326233	0.9917609691619873
54	340.04023909568787	pulse	0	t		52.0	2.5	/experiments/AOT/AOT_stimuli/rescaled_final/1974_fw.mp4	0.0	364.60460901260376	
54	340.0484240055084	movie	1		247	52.0	2.5	/experiments/AOT/AOT_stimuli/rescaled_final/1974_fw.mp4	0.0	364.6127939224243	2.508296012878418
54	341.6402909755707	pulse	1	t		52.0	2.5	/experiments/AOT/AOT_stimuli/rescaled_final/1974_fw.mp4	0.0	366.2046608924866	
54	342.55672001838684	fix_post	2		12	52.0	2.5	/experiments/AOT/AOT_stimuli/rescaled_final/1974_fw.mp4	0.0	367.12108993530273	0.10003805160522461
55	342.65675806999207	fix_pre	0		120	53.0	2.5	/experiments/AOT/AOT_stimuli/rescaled_final/0795_fw.mp4	0.0	367.22112798690796	0.999992847442627
55	343.2401850223541	pulse	0	t		53.0	2.5	/experiments/AOT/AOT_stimuli/rescaled_final/0795_fw.mp4	0.0	367.80455493927	
55	343.6567509174347	movie	1		244	53.0	2.5	/experiments/AOT/AOT_stimuli/rescaled_final/0795_fw.mp4	0.0	368.2211208343506	2.5000290870666504
55	344.8402810096741	pulse	1	t		53.0	2.5	/experiments/AOT/AOT_stimuli/rescaled_final/0795_fw.mp4	0.0	369.40465092658997	
55	346.15678000450134	fix_post	2		12	53.0	2.5	/experiments/AOT/AOT_stimuli/rescaled_final/0795_fw.mp4	0.0	370.72114992141724	0.09990191459655762
56	346.2566819190979	fix_pre	0		120	54.0	2.5	blank	1.0	370.8210518360138	1.0000691413879395
56	346.44021701812744	pulse	0	t		54.0	2.5	blank	1.0	371.00458693504333	
56	347.25675106048584	movie	1		300	54.0	2.5	blank	1.0	371.82112097740173	2.4999709129333496
56	348.04020404815674	pulse	1	t		54.0	2.5	blank	1.0	372.60457396507263	
56	349.64019894599915	pulse	1	t		54.0	2.5	blank	1.0	374.20456886291504	
56	349.7567219734192	fix_post	2		12	54.0	2.5	blank	1.0	374.3210918903351	0.09992504119873047
57	349.8566470146179	fix_pre	0		120	55.0	2.5	/experiments/AOT/AOT_stimuli/rescaled_final/0891_rv.mp4	0.0	374.4210169315338	1.0000829696655273
57	350.85672998428345	movie	1		244	55.0	2.5	/experiments/AOT/AOT_stimuli/rescaled_final/0891_rv.mp4	0.0	375.42109990119934	2.4999871253967285
57	351.23996210098267	pulse	1	t		55.0	2.5	/experiments/AOT/AOT_stimuli/rescaled_final/0891_rv.mp4	0.0	375.80433201789856	
57	352.84007596969604	pulse	1	t		55.0	2.5	/experiments/AOT/AOT_stimuli/rescaled_final/0891_rv.mp4	0.0	377.40444588661194	
57	353.3567171096802	fix_post	2		12	55.0	2.5	/experiments/AOT/AOT_stimuli/rescaled_final/0891_rv.mp4	0.0	377.92108702659607	0.09994387626647949
58	353.45666098594666	fix_pre	0		119	56.0	2.5	/experiments/AOT/AOT_stimuli/rescaled_final/0530_rv.mp4	0.0	378.02103090286255	0.9917280673980713
58	354.4402198791504	pulse	0	t		56.0	2.5	/experiments/AOT/AOT_stimuli/rescaled_final/0530_rv.mp4	0.0	379.0045897960663	
58	354.4483890533447	movie	1		244	56.0	2.5	/experiments/AOT/AOT_stimuli/rescaled_final/0530_rv.mp4	0.0	379.0127589702606	2.508296012878418
58	356.04015493392944	pulse	1	t		56.0	2.5	/experiments/AOT/AOT_stimuli/rescaled_final/0530_rv.mp4	0.0	380.60452485084534	
58	356.95668506622314	fix_post	2		12	56.0	2.5	/experiments/AOT/AOT_stimuli/rescaled_final/0530_rv.mp4	0.0	381.52105498313904	0.09999203681945801
59	357.0566771030426	fix_pre	0		120	57.0	2.5	/experiments/AOT/AOT_stimuli/rescaled_final/1108_rv.mp4	0.0	381.6210470199585	1.0002338886260986
59	357.6401081085205	pulse	0	t		57.0	2.5	/experiments/AOT/AOT_stimuli/rescaled_final/1108_rv.mp4	0.0	382.2044780254364	
59	358.0569109916687	movie	1		243	57.0	2.5	/experiments/AOT/AOT_stimuli/rescaled_final/1108_rv.mp4	0.0	382.6212809085846	2.4997029304504395
59	359.2402329444885	pulse	1	t		57.0	2.5	/experiments/AOT/AOT_stimuli/rescaled_final/1108_rv.mp4	0.0	383.8046028614044	
59	360.55661392211914	fix_post	2		12	57.0	2.5	/experiments/AOT/AOT_stimuli/rescaled_final/1108_rv.mp4	0.0	385.12098383903503	0.10005307197570801
60	360.65666699409485	fix_pre	0		120	58.0	2.5	/experiments/AOT/AOT_stimuli/rescaled_final/0598_fw.mp4	0.0	385.22103691101074	1.0000309944152832
60	360.8402509689331	pulse	0	t		58.0	2.5	/experiments/AOT/AOT_stimuli/rescaled_final/0598_fw.mp4	0.0	385.404620885849	
60	361.65669798851013	movie	1		249	58.0	2.5	/experiments/AOT/AOT_stimuli/rescaled_final/0598_fw.mp4	0.0	386.221067905426	2.4999709129333496
60	362.44011306762695	pulse	1	t		58.0	2.5	/experiments/AOT/AOT_stimuli/rescaled_final/0598_fw.mp4	0.0	387.00448298454285	
60	364.0397250652313	pulse	1	t		58.0	2.5	/experiments/AOT/AOT_stimuli/rescaled_final/0598_fw.mp4	0.0	388.6040949821472	
60	364.1566689014435	fix_post	2		12	58.0	2.5	/experiments/AOT/AOT_stimuli/rescaled_final/0598_fw.mp4	0.0	388.7210388183594	0.10005712509155273
61	364.25672602653503	fix_pre	0		120	59.0	2.5	/experiments/AOT/AOT_stimuli/rescaled_final/1058_rv.mp4	0.0	388.8210959434509	0.9995520114898682
61	365.2562780380249	movie	1		246	59.0	2.5	/experiments/AOT/AOT_stimuli/rescaled_final/1058_rv.mp4	0.0	389.8206479549408	2.5003929138183594
61	365.6397819519043	pulse	1	t		59.0	2.5	/experiments/AOT/AOT_stimuli/rescaled_final/1058_rv.mp4	0.0	390.2041518688202	
61	367.239972114563	pulse	1	t		59.0	2.5	/experiments/AOT/AOT_stimuli/rescaled_final/1058_rv.mp4	0.0	391.8043420314789	
61	367.75667095184326	fix_post	2		12	59.0	2.5	/experiments/AOT/AOT_stimuli/rescaled_final/1058_rv.mp4	0.0	392.32104086875916	0.1000511646270752
62	367.85672211647034	fix_pre	0		119	60.0	2.5	/experiments/AOT/AOT_stimuli/rescaled_final/1959_fw.mp4	0.0	392.42109203338623	0.9916019439697266
62	368.8401110172272	pulse	0	t		60.0	2.5	/experiments/AOT/AOT_stimuli/rescaled_final/1959_fw.mp4	0.0	393.40448093414307	
62	368.84832406044006	movie	1		247	60.0	2.5	/experiments/AOT/AOT_stimuli/rescaled_final/1959_fw.mp4	0.0	393.41269397735596	2.508357048034668
62	370.4393870830536	pulse	1	t		60.0	2.5	/experiments/AOT/AOT_stimuli/rescaled_final/1959_fw.mp4	0.0	395.0037569999695	
62	371.35668110847473	fix_post	2		12	60.0	2.5	/experiments/AOT/AOT_stimuli/rescaled_final/1959_fw.mp4	0.0	395.9210510253906	0.09996581077575684
63	371.4566469192505	fix_pre	0		120	61.0	2.5	blank	1.0	396.0210168361664	0.9999270439147949
63	372.0400071144104	pulse	0	t		61.0	2.5	blank	1.0	396.6043770313263	
63	372.4565739631653	movie	1		300	61.0	2.5	blank	1.0	397.0209438800812	2.5000009536743164
63	373.64001989364624	pulse	1	t		61.0	2.5	blank	1.0	398.20438981056213	
63	374.9565749168396	fix_post	2		12	61.0	2.5	blank	1.0	399.5209448337555	0.10006403923034668
64	375.05663895606995	fix_pre	0		120	62.0	2.5	/experiments/AOT/AOT_stimuli/rescaled_final/1191_fw.mp4	0.0	399.62100887298584	0.9999351501464844
64	375.2400920391083	pulse	0	t		62.0	2.5	/experiments/AOT/AOT_stimuli/rescaled_final/1191_fw.mp4	0.0	399.80446195602417	
64	376.05657410621643	movie	1		244	62.0	2.5	/experiments/AOT/AOT_stimuli/rescaled_final/1191_fw.mp4	0.0	400.6209440231323	2.5000109672546387
64	376.8400089740753	pulse	1	t		62.0	2.5	/experiments/AOT/AOT_stimuli/rescaled_final/1191_fw.mp4	0.0	401.4043788909912	
64	378.43858194351196	pulse	1	t		62.0	2.5	/experiments/AOT/AOT_stimuli/rescaled_final/1191_fw.mp4	0.0	403.00295186042786	
64	378.55658507347107	fix_post	2		12	62.0	2.5	/experiments/AOT/AOT_stimuli/rescaled_final/1191_fw.mp4	0.0	403.12095499038696	0.09997081756591797
65	378.656555891037	fix_pre	0		120	63.0	2.5	/experiments/AOT/AOT_stimuli/rescaled_final/0310_rv.mp4	0.0	403.2209258079529	0.9999861717224121
65	379.6565420627594	movie	1		248	63.0	2.5	/experiments/AOT/AOT_stimuli/rescaled_final/0310_rv.mp4	0.0	404.2209119796753	2.5000598430633545
65	380.04005789756775	pulse	1	t		63.0	2.5	/experiments/AOT/AOT_stimuli/rescaled_final/0310_rv.mp4	0.0	404.60442781448364	
65	381.64000606536865	pulse	1	t		63.0	2.5	/experiments/AOT/AOT_stimuli/rescaled_final/0310_rv.mp4	0.0	406.20437598228455	
65	382.15660190582275	fix_post	2		12	63.0	2.5	/experiments/AOT/AOT_stimuli/rescaled_final/0310_rv.mp4	0.0	406.72097182273865	0.09985208511352539
66	382.2564539909363	fix_pre	0		119	64.0	2.5	/experiments/AOT/AOT_stimuli/rescaled_final/1889_fw.mp4	0.0	406.8208239078522	0.9917130470275879
66	383.2400689125061	pulse	0	t		64.0	2.5	/experiments/AOT/AOT_stimuli/rescaled_final/1889_fw.mp4	0.0	407.804438829422	
66	383.24816703796387	movie	1		248	64.0	2.5	/experiments/AOT/AOT_stimuli/rescaled_final/1889_fw.mp4	0.0	407.81253695487976	2.5083119869232178
66	384.8394989967346	pulse	1	t		64.0	2.5	/experiments/AOT/AOT_stimuli/rescaled_final/1889_fw.mp4	0.0	409.4038689136505	
66	385.7564790248871	fix_post	2		12	64.0	2.5	/experiments/AOT/AOT_stimuli/rescaled_final/1889_fw.mp4	0.0	410.320848941803	0.10007286071777344
67	385.85655188560486	fix_pre	0		120	65.0	2.5	/experiments/AOT/AOT_stimuli/rescaled_final/2142_rv.mp4	0.0	410.42092180252075	0.9999270439147949
67	386.4399790763855	pulse	0	t		65.0	2.5	/experiments/AOT/AOT_stimuli/rescaled_final/2142_rv.mp4	0.0	411.0043489933014	
67	386.85647892951965	movie	1		245	65.0	2.5	/experiments/AOT/AOT_stimuli/rescaled_final/2142_rv.mp4	0.0	411.42084884643555	2.5000550746917725
67	388.0400800704956	pulse	1	t		65.0	2.5	/experiments/AOT/AOT_stimuli/rescaled_final/2142_rv.mp4	0.0	412.6044499874115	
67	389.3565340042114	fix_post	2		12	65.0	2.5	/experiments/AOT/AOT_stimuli/rescaled_final/2142_rv.mp4	0.0	413.9209039211273	0.09994292259216309
68	389.4564769268036	fix_pre	0		120	66.0	2.5	/experiments/AOT/AOT_stimuli/rescaled_final/1564_fw.mp4	0.0	414.0208468437195	0.9999680519104004
68	389.6400089263916	pulse	0	t		66.0	2.5	/experiments/AOT/AOT_stimuli/rescaled_final/1564_fw.mp4	0.0	414.2043788433075	
68	390.456444978714	movie	1		246	66.0	2.5	/experiments/AOT/AOT_stimuli/rescaled_final/1564_fw.mp4	0.0	415.0208148956299	2.500044107437134
68	391.24004888534546	pulse	1	t		66.0	2.5	/experiments/AOT/AOT_stimuli/rescaled_final/1564_fw.mp4	0.0	415.80441880226135	
68	392.83618807792664	pulse	1	t		66.0	2.5	/experiments/AOT/AOT_stimuli/rescaled_final/1564_fw.mp4	0.0	417.40055799484253	
68	392.9564890861511	fix_post	2		12	66.0	2.5	/experiments/AOT/AOT_stimuli/rescaled_final/1564_fw.mp4	0.0	417.520859003067	0.10000801086425781
69	393.0564970970154	fix_pre	0		120	67.0	2.5	/experiments/AOT/AOT_stimuli/rescaled_final/0894_rv.mp4	0.0	417.6208670139313	0.9999449253082275
69	394.0564420223236	movie	1		244	67.0	2.5	/experiments/AOT/AOT_stimuli/rescaled_final/0894_rv.mp4	0.0	418.6208119392395	2.500030040740967
69	394.43970108032227	pulse	1	t		67.0	2.5	/experiments/AOT/AOT_stimuli/rescaled_final/0894_rv.mp4	0.0	419.00407099723816	
69	396.0400369167328	pulse	1	t		67.0	2.5	/experiments/AOT/AOT_stimuli/rescaled_final/0894_rv.mp4	0.0	420.6044068336487	
69	396.5564720630646	fix_post	2		12	67.0	2.5	/experiments/AOT/AOT_stimuli/rescaled_final/0894_rv.mp4	0.0	421.12084197998047	0.09995603561401367
70	396.6564280986786	fix_pre	0		119	68.0	2.5	/experiments/AOT/AOT_stimuli/rescaled_final/0453_fw.mp4	0.0	421.2207980155945	0.9917240142822266
70	397.63998889923096	pulse	0	t		68.0	2.5	/experiments/AOT/AOT_stimuli/rescaled_final/0453_fw.mp4	0.0	422.20435881614685	
70	397.6481521129608	movie	1		248	68.0	2.5	/experiments/AOT/AOT_stimuli/rescaled_final/0453_fw.mp4	0.0	422.2125220298767	2.508293867111206
70	399.23973298072815	pulse	1	t		68.0	2.5	/experiments/AOT/AOT_stimuli/rescaled_final/0453_fw.mp4	0.0	423.80410289764404	
70	400.156445980072	fix_post	2		12	68.0	2.5	/experiments/AOT/AOT_stimuli/rescaled_final/0453_fw.mp4	0.0	424.7208158969879	0.10003995895385742
71	400.2564859390259	fix_pre	0		120	69.0	2.5	blank	1.0	424.8208558559418	0.999906063079834
71	400.83994793891907	pulse	0	t		69.0	2.5	blank	1.0	425.40431785583496	
71	401.2563920021057	movie	1		300	69.0	2.5	blank	1.0	425.8207619190216	2.4999630451202393
71	402.43999195098877	pulse	1	t		69.0	2.5	blank	1.0	427.00436186790466	
71	403.75635504722595	fix_post	2		12	69.0	2.5	blank	1.0	428.32072496414185	0.10005784034729004
72	403.85641288757324	fix_pre	0		120	70.0	2.5	/experiments/AOT/AOT_stimuli/rescaled_final/0494_fw.mp4	0.0	428.42078280448914	1.0000221729278564
72	404.0399820804596	pulse	0	t		70.0	2.5	/experiments/AOT/AOT_stimuli/rescaled_final/0494_fw.mp4	0.0	428.6043519973755	
72	404.8564350605011	movie	1		245	70.0	2.5	/experiments/AOT/AOT_stimuli/rescaled_final/0494_fw.mp4	0.0	429.420804977417	2.5000479221343994
72	405.6400179862976	pulse	1	t		70.0	2.5	/experiments/AOT/AOT_stimuli/rescaled_final/0494_fw.mp4	0.0	430.2043879032135	
72	407.2389249801636	pulse	1	t		70.0	2.5	/experiments/AOT/AOT_stimuli/rescaled_final/0494_fw.mp4	0.0	431.80329489707947	
72	407.3564829826355	fix_post	2		12	70.0	2.5	/experiments/AOT/AOT_stimuli/rescaled_final/0494_fw.mp4	0.0	431.9208528995514	0.09992194175720215
73	407.4564049243927	fix_pre	0		120	71.0	2.5	/experiments/AOT/AOT_stimuli/rescaled_final/1340_rv.mp4	0.0	432.0207748413086	1.0000271797180176
73	408.4564321041107	movie	1		244	71.0	2.5	/experiments/AOT/AOT_stimuli/rescaled_final/1340_rv.mp4	0.0	433.0208020210266	2.5000128746032715
73	408.8402829170227	pulse	1	t		71.0	2.5	/experiments/AOT/AOT_stimuli/rescaled_final/1340_rv.mp4	0.0	433.4046528339386	
73	410.43992590904236	pulse	1	t		71.0	2.5	/experiments/AOT/AOT_stimuli/rescaled_final/1340_rv.mp4	0.0	435.00429582595825	
73	410.956444978714	fix_post	2		12	71.0	2.5	/experiments/AOT/AOT_stimuli/rescaled_final/1340_rv.mp4	0.0	435.5208148956299	0.10000109672546387
74	411.05644607543945	fix_pre	0		119	72.0	2.5	/experiments/AOT/AOT_stimuli/rescaled_final/0610_rv.mp4	0.0	435.62081599235535	0.9916539192199707
74	412.03988695144653	pulse	0	t		72.0	2.5	/experiments/AOT/AOT_stimuli/rescaled_final/0610_rv.mp4	0.0	436.6042568683624	
74	412.0480999946594	movie	1		245	72.0	2.5	/experiments/AOT/AOT_stimuli/rescaled_final/0610_rv.mp4	0.0	436.6124699115753	2.508352041244507
74	413.63943099975586	pulse	1	t		72.0	2.5	/experiments/AOT/AOT_stimuli/rescaled_final/0610_rv.mp4	0.0	438.20380091667175	
74	414.55645203590393	fix_post	2		12	72.0	2.5	/experiments/AOT/AOT_stimuli/rescaled_final/0610_rv.mp4	0.0	439.1208219528198	0.09990501403808594
75	414.656357049942	fix_pre	0		120	73.0	2.5	/experiments/AOT/AOT_stimuli/rescaled_final/0428_rv.mp4	0.0	439.2207269668579	1.000087022781372
75	415.23988795280457	pulse	0	t		73.0	2.5	/experiments/AOT/AOT_stimuli/rescaled_final/0428_rv.mp4	0.0	439.80425786972046	
75	415.6564440727234	movie	1		246	73.0	2.5	/experiments/AOT/AOT_stimuli/rescaled_final/0428_rv.mp4	0.0	440.2208139896393	2.500056028366089
75	416.84007692337036	pulse	1	t		73.0	2.5	/experiments/AOT/AOT_stimuli/rescaled_final/0428_rv.mp4	0.0	441.40444684028625	
75	418.1565001010895	fix_post	2		12	73.0	2.5	/experiments/AOT/AOT_stimuli/rescaled_final/0428_rv.mp4	0.0	442.72087001800537	0.09995293617248535
76	418.25645303726196	fix_pre	0		120	74.0	2.5	/experiments/AOT/AOT_stimuli/rescaled_final/0937_fw.mp4	0.0	442.82082295417786	0.9999680519104004
76	418.4399108886719	pulse	0	t		74.0	2.5	/experiments/AOT/AOT_stimuli/rescaled_final/0937_fw.mp4	0.0	443.00428080558777	
76	419.25642108917236	movie	1		245	74.0	2.5	/experiments/AOT/AOT_stimuli/rescaled_final/0937_fw.mp4	0.0	443.82079100608826	2.4996988773345947
76	420.03945207595825	pulse	1	t		74.0	2.5	/experiments/AOT/AOT_stimuli/rescaled_final/0937_fw.mp4	0.0	444.60382199287415	
76	421.6385200023651	pulse	1	t		74.0	2.5	/experiments/AOT/AOT_stimuli/rescaled_final/0937_fw.mp4	0.0	446.202889919281	
76	421.75611996650696	fix_post	2		12	74.0	2.5	/experiments/AOT/AOT_stimuli/rescaled_final/0937_fw.mp4	0.0	446.32048988342285	0.10048604011535645
77	421.8566060066223	fix_pre	0		120	75.0	2.5	/experiments/AOT/AOT_stimuli/rescaled_final/1279_rv.mp4	0.0	446.4209759235382	1.0000100135803223
77	422.85661602020264	movie	1		245	75.0	2.5	/experiments/AOT/AOT_stimuli/rescaled_final/1279_rv.mp4	0.0	447.42098593711853	2.4997689723968506
77	423.2411870956421	pulse	1	t		75.0	2.5	/experiments/AOT/AOT_stimuli/rescaled_final/1279_rv.mp4	0.0	447.805557012558	
77	424.8398048877716	pulse	1	t		75.0	2.5	/experiments/AOT/AOT_stimuli/rescaled_final/1279_rv.mp4	0.0	449.4041748046875	
77	425.3563849925995	fix_post	2		12	75.0	2.5	/experiments/AOT/AOT_stimuli/rescaled_final/1279_rv.mp4	0.0	449.9207549095154	0.09992003440856934
78	425.45630502700806	fix_pre	0		119	76.0	2.5	/experiments/AOT/AOT_stimuli/rescaled_final/1323_rv.mp4	0.0	450.02067494392395	0.9917209148406982
78	426.43984508514404	pulse	0	t		76.0	2.5	/experiments/AOT/AOT_stimuli/rescaled_final/1323_rv.mp4	0.0	451.00421500205994	
78	426.44802594184875	movie	1		247	76.0	2.5	/experiments/AOT/AOT_stimuli/rescaled_final/1323_rv.mp4	0.0	451.01239585876465	2.5082509517669678
78	428.0393850803375	pulse	1	t		76.0	2.5	/experiments/AOT/AOT_stimuli/rescaled_final/1323_rv.mp4	0.0	452.6037549972534	
78	428.9562768936157	fix_post	2		12	76.0	2.5	/experiments/AOT/AOT_stimuli/rescaled_final/1323_rv.mp4	0.0	453.5206468105316	0.10013818740844727
79	429.05641508102417	fix_pre	0		120	77.0	2.5	blank	1.0	453.62078499794006	0.9999279975891113
79	429.63977909088135	pulse	0	t		77.0	2.5	blank	1.0	454.20414900779724	
79	430.0563430786133	movie	1		300	77.0	2.5	blank	1.0	454.6207129955292	2.4998939037323
79	431.2397310733795	pulse	1	t		77.0	2.5	blank	1.0	455.8041009902954	
79	432.5562369823456	fix_post	2		12	77.0	2.5	blank	1.0	457.1206068992615	0.10002398490905762
80	432.65626096725464	fix_pre	0		120	78.0	2.5	/experiments/AOT/AOT_stimuli/rescaled_final/1071_rv.mp4	0.0	457.22063088417053	1.000093936920166
80	432.839802980423	pulse	0	t		78.0	2.5	/experiments/AOT/AOT_stimuli/rescaled_final/1071_rv.mp4	0.0	457.40417289733887	
80	433.6563549041748	movie	1		245	78.0	2.5	/experiments/AOT/AOT_stimuli/rescaled_final/1071_rv.mp4	0.0	458.2207248210907	2.499998092651367
80	434.4398150444031	pulse	1	t		78.0	2.5	/experiments/AOT/AOT_stimuli/rescaled_final/1071_rv.mp4	0.0	459.00418496131897	
80	436.03834795951843	pulse	1	t		78.0	2.5	/experiments/AOT/AOT_stimuli/rescaled_final/1071_rv.mp4	0.0	460.6027178764343	
80	436.1563529968262	fix_post	2		12	78.0	2.5	/experiments/AOT/AOT_stimuli/rescaled_final/1071_rv.mp4	0.0	460.72072291374207	0.09984803199768066
81	436.25620102882385	fix_pre	0		120	79.0	2.5	/experiments/AOT/AOT_stimuli/rescaled_final/0169_fw.mp4	0.0	460.82057094573975	1.0001320838928223
81	437.2563331127167	movie	1		245	79.0	2.5	/experiments/AOT/AOT_stimuli/rescaled_final/0169_fw.mp4	0.0	461.82070302963257	2.4999477863311768
81	437.6393530368805	pulse	1	t		79.0	2.5	/experiments/AOT/AOT_stimuli/rescaled_final/0169_fw.mp4	0.0	462.2037229537964	
81	439.23982191085815	pulse	1	t		79.0	2.5	/experiments/AOT/AOT_stimuli/rescaled_final/0169_fw.mp4	0.0	463.80419182777405	
81	439.75628089904785	fix_post	2		12	79.0	2.5	/experiments/AOT/AOT_stimuli/rescaled_final/0169_fw.mp4	0.0	464.32065081596375	0.10001015663146973
82	439.8562910556793	fix_pre	0		119	80.0	2.5	/experiments/AOT/AOT_stimuli/rescaled_final/1771_fw.mp4	0.0	464.4206609725952	0.9916260242462158
82	440.839791059494	pulse	0	t		80.0	2.5	/experiments/AOT/AOT_stimuli/rescaled_final/1771_fw.mp4	0.0	465.4041609764099	
82	440.84791707992554	movie	1		245	80.0	2.5	/experiments/AOT/AOT_stimuli/rescaled_final/1771_fw.mp4	0.0	465.41228699684143	2.5083799362182617
82	442.4394180774689	pulse	1	t		80.0	2.5	/experiments/AOT/AOT_stimuli/rescaled_final/1771_fw.mp4	0.0	467.00378799438477	
82	443.3562970161438	fix_post	2		12	80.0	2.5	/experiments/AOT/AOT_stimuli/rescaled_final/1771_fw.mp4	0.0	467.9206669330597	0.09998798370361328
83	443.4562849998474	fix_pre	0		120	81.0	2.5	/experiments/AOT/AOT_stimuli/rescaled_final/2139_fw.mp4	0.0	468.0206549167633	0.9999721050262451
83	444.03979206085205	pulse	0	t		81.0	2.5	/experiments/AOT/AOT_stimuli/rescaled_final/2139_fw.mp4	0.0	468.60416197776794	
83	444.45625710487366	movie	1		247	81.0	2.5	/experiments/AOT/AOT_stimuli/rescaled_final/2139_fw.mp4	0.0	469.02062702178955	2.5000228881835938
83	445.6398069858551	pulse	1	t		81.0	2.5	/experiments/AOT/AOT_stimuli/rescaled_final/2139_fw.mp4	0.0	470.204176902771	
83	446.95627999305725	fix_post	2		12	81.0	2.5	/experiments/AOT/AOT_stimuli/rescaled_final/2139_fw.mp4	0.0	471.52064990997314	0.10000205039978027
84	447.05628204345703	fix_pre	0		120	82.0	2.5	blank	1.0	471.6206519603729	0.9999659061431885
84	447.23976492881775	pulse	0	t		82.0	2.5	blank	1.0	471.80413484573364	
84	448.0562479496002	movie	1		300	82.0	2.5	blank	1.0	472.6206178665161	2.500030040740967
84	448.83978509902954	pulse	1	t		82.0	2.5	blank	1.0	473.40415501594543	
84	450.4397029876709	pulse	1	t		82.0	2.5	blank	1.0	475.0040729045868	
84	450.5562779903412	fix_post	2		12	82.0	2.5	blank	1.0	475.1206479072571	0.09994101524353027
85	450.6562190055847	fix_pre	0		120	83.0	2.5	/experiments/AOT/AOT_stimuli/rescaled_final/1717_fw.mp4	0.0	475.2205889225006	1.0000500679016113
85	451.6562690734863	movie	1		246	83.0	2.5	/experiments/AOT/AOT_stimuli/rescaled_final/1717_fw.mp4	0.0	476.2206389904022	2.4999449253082275
85	452.0393240451813	pulse	1	t		83.0	2.5	/experiments/AOT/AOT_stimuli/rescaled_final/1717_fw.mp4	0.0	476.60369396209717	
85	453.6397430896759	pulse	1	t		83.0	2.5	/experiments/AOT/AOT_stimuli/rescaled_final/1717_fw.mp4	0.0	478.2041130065918	
85	454.15621399879456	fix_post	2		12	83.0	2.5	/experiments/AOT/AOT_stimuli/rescaled_final/1717_fw.mp4	0.0	478.72058391571045	0.10004711151123047
87	454.2562611103058	stim	0		1716					478.8206310272217	14.299879789352417
87	455.23975110054016	pulse	0	t						479.80412101745605	
87	456.83965492248535	pulse	0	t						481.40402483940125	
87	458.43966794013977	pulse	0	t						483.00403785705566	
87	460.03968596458435	pulse	0	t						484.60405588150024	
87	461.63972997665405	pulse	0	t						486.20409989356995	
87	463.2397038936615	pulse	0	t						487.8040738105774	
87	464.8396461009979	pulse	0	t						489.4040160179138	
87	466.4396469593048	pulse	0	t						491.0040168762207	
87	468.0395350456238	pulse	0	t						492.6039049625397	
