trial_nr	onset	event_type	phase	response	nr_frames	movie_index	movie_duration	movie_file	blank	onset_abs	duration
0	0.1250622272491455	stim	0		1814					217.84716057777405	15.118870735168457
0	15.235737800598145	response	0	space						232.95783615112305	
1	15.243932962417603	stim	0		4138					232.9660313129425	34.49784755706787
1	49.73203468322754	pulse	0	t						267.45413303375244	
1	49.741780519485474	stim	1		1715					267.4638788700104	14.301133871078491
1	51.32464241981506	pulse	1	t						269.04674077033997	
1	52.92469668388367	pulse	1	t						270.64679503440857	
1	54.52497100830078	pulse	1	t						272.2470693588257	
1	56.12522006034851	pulse	1	t						273.8473184108734	
1	57.725409507751465	pulse	1	t						275.44750785827637	
1	59.325913190841675	pulse	1	t						277.0480115413666	
1	60.92599010467529	pulse	1	t						278.6480884552002	
1	62.52611827850342	pulse	1	t						280.2482166290283	
2	64.04291439056396	fix_pre	0		11	0.0	2.5	/experiments/Knapen_AOT/AOT_stimuli/rescaled_final/0297_fw.mp4	0.0	281.76501274108887	0.1083214282989502
2	64.12644147872925	pulse	0	t		0.0	2.5	/experiments/Knapen_AOT/AOT_stimuli/rescaled_final/0297_fw.mp4	0.0	281.84853982925415	
2	64.15123581886292	movie	1		278	0.0	2.5	/experiments/Knapen_AOT/AOT_stimuli/rescaled_final/0297_fw.mp4	0.0	281.8733341693878	2.492030382156372
2	65.72500348091125	pulse	1	t		0.0	2.5	/experiments/Knapen_AOT/AOT_stimuli/rescaled_final/0297_fw.mp4	0.0	283.44710183143616	
2	66.64326620101929	fix_post	2		12	0.0	2.5	/experiments/Knapen_AOT/AOT_stimuli/rescaled_final/0297_fw.mp4	0.0	284.3653645515442	0.09996652603149414
3	66.74323272705078	fix_pre	0		120	1.0	2.5	/experiments/Knapen_AOT/AOT_stimuli/rescaled_final/1480_rv.mp4	0.0	284.4653310775757	1.0087876319885254
3	67.32710456848145	pulse	0	t		1.0	2.5	/experiments/Knapen_AOT/AOT_stimuli/rescaled_final/1480_rv.mp4	0.0	285.04920291900635	
3	67.7520203590393	movie	1		286	1.0	2.5	/experiments/Knapen_AOT/AOT_stimuli/rescaled_final/1480_rv.mp4	0.0	285.4741187095642	2.4917728900909424
3	68.92503261566162	pulse	1	t		1.0	2.5	/experiments/Knapen_AOT/AOT_stimuli/rescaled_final/1480_rv.mp4	0.0	286.6471309661865	
3	70.24379324913025	fix_post	2		12	1.0	2.5	/experiments/Knapen_AOT/AOT_stimuli/rescaled_final/1480_rv.mp4	0.0	287.96589159965515	0.09999656677246094
4	70.34378981590271	fix_pre	0		120	2.0	2.5	/experiments/Knapen_AOT/AOT_stimuli/rescaled_final/0400_rv.mp4	0.0	288.0658881664276	1.0086336135864258
4	70.52736449241638	pulse	0	t		2.0	2.5	/experiments/Knapen_AOT/AOT_stimuli/rescaled_final/0400_rv.mp4	0.0	288.2494628429413	
4	71.35242342948914	movie	1		292	2.0	2.5	/experiments/Knapen_AOT/AOT_stimuli/rescaled_final/0400_rv.mp4	0.0	289.07452178001404	2.4919052124023438
4	72.12534761428833	pulse	1	t		2.0	2.5	/experiments/Knapen_AOT/AOT_stimuli/rescaled_final/0400_rv.mp4	0.0	289.84744596481323	
4	73.72607135772705	pulse	1	t		2.0	2.5	/experiments/Knapen_AOT/AOT_stimuli/rescaled_final/0400_rv.mp4	0.0	291.44816970825195	
4	73.84432864189148	fix_post	2		12	2.0	2.5	/experiments/Knapen_AOT/AOT_stimuli/rescaled_final/0400_rv.mp4	0.0	291.5664269924164	0.10007214546203613
5	73.94440078735352	fix_pre	0		120	3.0	2.5	/experiments/Knapen_AOT/AOT_stimuli/rescaled_final/0491_fw.mp4	0.0	291.6664991378784	1.0084254741668701
5	74.95282626152039	movie	1		278	3.0	2.5	/experiments/Knapen_AOT/AOT_stimuli/rescaled_final/0491_fw.mp4	0.0	292.6749246120453	2.491994619369507
5	75.3263566493988	pulse	1	t		3.0	2.5	/experiments/Knapen_AOT/AOT_stimuli/rescaled_final/0491_fw.mp4	0.0	293.0484549999237	
5	76.9259421825409	pulse	1	t		3.0	2.5	/experiments/Knapen_AOT/AOT_stimuli/rescaled_final/0491_fw.mp4	0.0	294.6480405330658	
5	77.44482088088989	fix_post	2		12	3.0	2.5	/experiments/Knapen_AOT/AOT_stimuli/rescaled_final/0491_fw.mp4	0.0	295.1669192314148	0.1000373363494873
6	77.54485821723938	fix_pre	0		119	4.0	2.5	/experiments/Knapen_AOT/AOT_stimuli/rescaled_final/0587_rv.mp4	0.0	295.2669565677643	1.0002708435058594
6	78.52854895591736	pulse	0	t		4.0	2.5	/experiments/Knapen_AOT/AOT_stimuli/rescaled_final/0587_rv.mp4	0.0	296.25064730644226	
6	78.54512906074524	movie	1		284	4.0	2.5	/experiments/Knapen_AOT/AOT_stimuli/rescaled_final/0587_rv.mp4	0.0	296.26722741127014	2.5002617835998535
6	80.12900757789612	pulse	1	t		4.0	2.5	/experiments/Knapen_AOT/AOT_stimuli/rescaled_final/0587_rv.mp4	0.0	297.851105928421	
6	81.04539084434509	fix_post	2		12	4.0	2.5	/experiments/Knapen_AOT/AOT_stimuli/rescaled_final/0587_rv.mp4	0.0	298.76748919487	0.10001540184020996
7	81.1454062461853	fix_pre	0		120	5.0	2.5	blank	1.0	298.8675045967102	1.000133991241455
7	81.7290403842926	pulse	0	t		5.0	2.5	blank	1.0	299.4511387348175	
7	82.14554023742676	movie	1		300	5.0	2.5	blank	1.0	299.86763858795166	2.500370740890503
7	83.3293035030365	pulse	1	t		5.0	2.5	blank	1.0	301.0514018535614	
7	84.64591097831726	fix_post	2		12	5.0	2.5	blank	1.0	302.36800932884216	0.1000509262084961
8	84.74596190452576	fix_pre	0		120	6.0	2.5	/experiments/Knapen_AOT/AOT_stimuli/rescaled_final/0748_rv.mp4	0.0	302.46806025505066	1.0084896087646484
8	84.92194128036499	pulse	0	t		6.0	2.5	/experiments/Knapen_AOT/AOT_stimuli/rescaled_final/0748_rv.mp4	0.0	302.6440396308899	
8	85.7544515132904	movie	1		282	6.0	2.5	/experiments/Knapen_AOT/AOT_stimuli/rescaled_final/0748_rv.mp4	0.0	303.4765498638153	2.492064952850342
8	86.52168226242065	pulse	1	t		6.0	2.5	/experiments/Knapen_AOT/AOT_stimuli/rescaled_final/0748_rv.mp4	0.0	304.24378061294556	
8	88.12172675132751	pulse	1	t		6.0	2.5	/experiments/Knapen_AOT/AOT_stimuli/rescaled_final/0748_rv.mp4	0.0	305.8438251018524	
8	88.24651646614075	fix_post	2		12	6.0	2.5	/experiments/Knapen_AOT/AOT_stimuli/rescaled_final/0748_rv.mp4	0.0	305.96861481666565	0.09996247291564941
9	88.3464789390564	fix_pre	0		120	7.0	2.5	/experiments/Knapen_AOT/AOT_stimuli/rescaled_final/1346_rv.mp4	0.0	306.0685772895813	1.0085079669952393
9	89.35498690605164	movie	1		271	7.0	2.5	/experiments/Knapen_AOT/AOT_stimuli/rescaled_final/1346_rv.mp4	0.0	307.07708525657654	2.500370740890503
9	89.73048329353333	pulse	1	t		7.0	2.5	/experiments/Knapen_AOT/AOT_stimuli/rescaled_final/1346_rv.mp4	0.0	307.4525816440582	
9	91.32213473320007	pulse	1	t		7.0	2.5	/experiments/Knapen_AOT/AOT_stimuli/rescaled_final/1346_rv.mp4	0.0	309.044233083725	
9	91.85535764694214	fix_post	2		11	7.0	2.5	/experiments/Knapen_AOT/AOT_stimuli/rescaled_final/1346_rv.mp4	0.0	309.57745599746704	0.09174609184265137
10	91.94710373878479	fix_pre	0		118	8.0	2.5	/experiments/Knapen_AOT/AOT_stimuli/rescaled_final/0988_rv.mp4	0.0	309.6692020893097	0.9917707443237305
10	92.92244696617126	pulse	0	t		8.0	2.5	/experiments/Knapen_AOT/AOT_stimuli/rescaled_final/0988_rv.mp4	0.0	310.64454531669617	
10	92.93887448310852	movie	1		289	8.0	2.5	/experiments/Knapen_AOT/AOT_stimuli/rescaled_final/0988_rv.mp4	0.0	310.6609728336334	2.500339984893799
10	94.52279019355774	pulse	1	t		8.0	2.5	/experiments/Knapen_AOT/AOT_stimuli/rescaled_final/0988_rv.mp4	0.0	312.24488854408264	
10	95.43921446800232	fix_post	2		12	8.0	2.5	/experiments/Knapen_AOT/AOT_stimuli/rescaled_final/0988_rv.mp4	0.0	313.1613128185272	0.1000511646270752
11	95.5392656326294	fix_pre	0		120	9.0	2.5	/experiments/Knapen_AOT/AOT_stimuli/rescaled_final/1889_fw.mp4	0.0	313.2613639831543	1.008518934249878
11	96.12297081947327	pulse	0	t		9.0	2.5	/experiments/Knapen_AOT/AOT_stimuli/rescaled_final/1889_fw.mp4	0.0	313.84506916999817	
11	96.54778456687927	movie	1		280	9.0	2.5	/experiments/Knapen_AOT/AOT_stimuli/rescaled_final/1889_fw.mp4	0.0	314.2698829174042	2.492034673690796
11	97.72313642501831	pulse	1	t		9.0	2.5	/experiments/Knapen_AOT/AOT_stimuli/rescaled_final/1889_fw.mp4	0.0	315.4452347755432	
11	99.03981924057007	fix_post	2		12	9.0	2.5	/experiments/Knapen_AOT/AOT_stimuli/rescaled_final/1889_fw.mp4	0.0	316.76191759109497	0.09997439384460449
12	99.13979363441467	fix_pre	0		120	10.0	2.5	/experiments/Knapen_AOT/AOT_stimuli/rescaled_final/0018_fw.mp4	0.0	316.8618919849396	1.0085031986236572
12	99.32335615158081	pulse	0	t		10.0	2.5	/experiments/Knapen_AOT/AOT_stimuli/rescaled_final/0018_fw.mp4	0.0	317.0454545021057	
12	100.14829683303833	movie	1		286	10.0	2.5	/experiments/Knapen_AOT/AOT_stimuli/rescaled_final/0018_fw.mp4	0.0	317.87039518356323	2.4920413494110107
12	100.92177200317383	pulse	1	t		10.0	2.5	/experiments/Knapen_AOT/AOT_stimuli/rescaled_final/0018_fw.mp4	0.0	318.64387035369873	
12	102.52240109443665	pulse	1	t		10.0	2.5	/experiments/Knapen_AOT/AOT_stimuli/rescaled_final/0018_fw.mp4	0.0	320.24449944496155	
12	102.64033818244934	fix_post	2		12	10.0	2.5	/experiments/Knapen_AOT/AOT_stimuli/rescaled_final/0018_fw.mp4	0.0	320.36243653297424	0.09998130798339844
13	102.74031949043274	fix_pre	0		120	11.0	2.5	/experiments/Knapen_AOT/AOT_stimuli/rescaled_final/0222_fw.mp4	0.0	320.46241784095764	1.0085089206695557
13	103.7488284111023	movie	1		287	11.0	2.5	/experiments/Knapen_AOT/AOT_stimuli/rescaled_final/0222_fw.mp4	0.0	321.4709267616272	2.492016315460205
13	104.12335467338562	pulse	1	t		11.0	2.5	/experiments/Knapen_AOT/AOT_stimuli/rescaled_final/0222_fw.mp4	0.0	321.8454530239105	
13	105.72232794761658	pulse	1	t		11.0	2.5	/experiments/Knapen_AOT/AOT_stimuli/rescaled_final/0222_fw.mp4	0.0	323.4444262981415	
13	106.2408447265625	fix_post	2		12	11.0	2.5	/experiments/Knapen_AOT/AOT_stimuli/rescaled_final/0222_fw.mp4	0.0	323.9629430770874	0.10007071495056152
14	106.34091544151306	fix_pre	0		119	12.0	2.5	/experiments/Knapen_AOT/AOT_stimuli/rescaled_final/0810_fw.mp4	0.0	324.06301379203796	1.0001075267791748
14	107.3244698047638	pulse	0	t		12.0	2.5	/experiments/Knapen_AOT/AOT_stimuli/rescaled_final/0810_fw.mp4	0.0	325.0465681552887	
14	107.34102296829224	movie	1		279	12.0	2.5	/experiments/Knapen_AOT/AOT_stimuli/rescaled_final/0810_fw.mp4	0.0	325.06312131881714	2.5003743171691895
14	108.92333459854126	pulse	1	t		12.0	2.5	/experiments/Knapen_AOT/AOT_stimuli/rescaled_final/0810_fw.mp4	0.0	326.64543294906616	
14	109.84139728546143	fix_post	2		12	12.0	2.5	/experiments/Knapen_AOT/AOT_stimuli/rescaled_final/0810_fw.mp4	0.0	327.5634956359863	0.10003232955932617
15	109.94142961502075	fix_pre	0		120	13.0	2.5	blank	1.0	327.66352796554565	1.0000998973846436
15	110.52497148513794	pulse	0	t		13.0	2.5	blank	1.0	328.24706983566284	
15	110.9415295124054	movie	1		300	13.0	2.5	blank	1.0	328.6636278629303	2.5003817081451416
15	112.12519836425781	pulse	1	t		13.0	2.5	blank	1.0	329.8472967147827	
15	113.44191122055054	fix_post	2		12	13.0	2.5	blank	1.0	331.16400957107544	0.10837769508361816
16	113.55028891563416	fix_pre	0		119	14.0	2.5	/experiments/Knapen_AOT/AOT_stimuli/rescaled_final/0776_rv.mp4	0.0	331.27238726615906	1.0001804828643799
16	113.7254889011383	pulse	0	t		14.0	2.5	/experiments/Knapen_AOT/AOT_stimuli/rescaled_final/0776_rv.mp4	0.0	331.4475872516632	
16	114.55046939849854	movie	1		275	14.0	2.5	/experiments/Knapen_AOT/AOT_stimuli/rescaled_final/0776_rv.mp4	0.0	332.27256774902344	2.4922215938568115
16	115.32369995117188	pulse	1	t		14.0	2.5	/experiments/Knapen_AOT/AOT_stimuli/rescaled_final/0776_rv.mp4	0.0	333.0457983016968	
16	116.92421293258667	pulse	1	t		14.0	2.5	/experiments/Knapen_AOT/AOT_stimuli/rescaled_final/0776_rv.mp4	0.0	334.6463112831116	
16	117.04269099235535	fix_post	2		12	14.0	2.5	/experiments/Knapen_AOT/AOT_stimuli/rescaled_final/0776_rv.mp4	0.0	334.76478934288025	0.09978842735290527
17	117.14247941970825	fix_pre	0		120	15.0	2.5	/experiments/Knapen_AOT/AOT_stimuli/rescaled_final/1365_fw.mp4	0.0	334.86457777023315	1.0085163116455078
17	118.15099573135376	movie	1		283	15.0	2.5	/experiments/Knapen_AOT/AOT_stimuli/rescaled_final/1365_fw.mp4	0.0	335.87309408187866	2.4920804500579834
17	118.52519869804382	pulse	1	t		15.0	2.5	/experiments/Knapen_AOT/AOT_stimuli/rescaled_final/1365_fw.mp4	0.0	336.2472970485687	
17	120.12454652786255	pulse	1	t		15.0	2.5	/experiments/Knapen_AOT/AOT_stimuli/rescaled_final/1365_fw.mp4	0.0	337.84664487838745	
17	120.64307618141174	fix_post	2		12	15.0	2.5	/experiments/Knapen_AOT/AOT_stimuli/rescaled_final/1365_fw.mp4	0.0	338.36517453193665	0.0999765396118164
18	120.74305272102356	fix_pre	0		119	16.0	2.5	/experiments/Knapen_AOT/AOT_stimuli/rescaled_final/0906_rv.mp4	0.0	338.46515107154846	1.000136137008667
18	121.726633310318	pulse	0	t		16.0	2.5	/experiments/Knapen_AOT/AOT_stimuli/rescaled_final/0906_rv.mp4	0.0	339.4487316608429	
18	121.74318885803223	movie	1		290	16.0	2.5	/experiments/Knapen_AOT/AOT_stimuli/rescaled_final/0906_rv.mp4	0.0	339.46528720855713	2.500354290008545
18	123.32550501823425	pulse	1	t		16.0	2.5	/experiments/Knapen_AOT/AOT_stimuli/rescaled_final/0906_rv.mp4	0.0	341.04760336875916	
18	124.24354314804077	fix_post	2		12	16.0	2.5	/experiments/Knapen_AOT/AOT_stimuli/rescaled_final/0906_rv.mp4	0.0	341.9656414985657	0.10002660751342773
19	124.3435697555542	fix_pre	0		120	17.0	2.5	/experiments/Knapen_AOT/AOT_stimuli/rescaled_final/1583_rv.mp4	0.0	342.0656681060791	1.008535385131836
19	124.92715454101562	pulse	0	t		17.0	2.5	/experiments/Knapen_AOT/AOT_stimuli/rescaled_final/1583_rv.mp4	0.0	342.6492528915405	
19	125.35210514068604	movie	1		283	17.0	2.5	/experiments/Knapen_AOT/AOT_stimuli/rescaled_final/1583_rv.mp4	0.0	343.07420349121094	2.491987466812134
19	126.52545309066772	pulse	1	t		17.0	2.5	/experiments/Knapen_AOT/AOT_stimuli/rescaled_final/1583_rv.mp4	0.0	344.2475514411926	
19	127.84409260749817	fix_post	2		12	17.0	2.5	/experiments/Knapen_AOT/AOT_stimuli/rescaled_final/1583_rv.mp4	0.0	345.56619095802307	0.10004496574401855
20	127.94413757324219	fix_pre	0		120	18.0	2.5	/experiments/Knapen_AOT/AOT_stimuli/rescaled_final/1554_rv.mp4	0.0	345.6662359237671	1.0085928440093994
20	128.1276342868805	pulse	0	t		18.0	2.5	/experiments/Knapen_AOT/AOT_stimuli/rescaled_final/1554_rv.mp4	0.0	345.8497326374054	
20	128.9527304172516	movie	1		287	18.0	2.5	/experiments/Knapen_AOT/AOT_stimuli/rescaled_final/1554_rv.mp4	0.0	346.6748287677765	2.4919071197509766
20	129.7258710861206	pulse	1	t		18.0	2.5	/experiments/Knapen_AOT/AOT_stimuli/rescaled_final/1554_rv.mp4	0.0	347.4479694366455	
20	131.32606267929077	pulse	1	t		18.0	2.5	/experiments/Knapen_AOT/AOT_stimuli/rescaled_final/1554_rv.mp4	0.0	349.0481610298157	
20	131.44463753700256	fix_post	2		12	18.0	2.5	/experiments/Knapen_AOT/AOT_stimuli/rescaled_final/1554_rv.mp4	0.0	349.16673588752747	0.10003495216369629
21	131.54467248916626	fix_pre	0		120	19.0	2.5	/experiments/Knapen_AOT/AOT_stimuli/rescaled_final/0339_fw.mp4	0.0	349.26677083969116	1.0085265636444092
21	132.55319905281067	movie	1		287	19.0	2.5	/experiments/Knapen_AOT/AOT_stimuli/rescaled_final/0339_fw.mp4	0.0	350.27529740333557	2.4920356273651123
21	132.92638158798218	pulse	1	t		19.0	2.5	/experiments/Knapen_AOT/AOT_stimuli/rescaled_final/0339_fw.mp4	0.0	350.6484799385071	
21	134.5265929698944	pulse	1	t		19.0	2.5	/experiments/Knapen_AOT/AOT_stimuli/rescaled_final/0339_fw.mp4	0.0	352.2486913204193	
21	135.04523468017578	fix_post	2		12	19.0	2.5	/experiments/Knapen_AOT/AOT_stimuli/rescaled_final/0339_fw.mp4	0.0	352.7673330307007	0.09996199607849121
22	135.14519667625427	fix_pre	0		119	20.0	2.5	/experiments/Knapen_AOT/AOT_stimuli/rescaled_final/2089_fw.mp4	0.0	352.8672950267792	1.0001652240753174
22	136.12882351875305	pulse	0	t		20.0	2.5	/experiments/Knapen_AOT/AOT_stimuli/rescaled_final/2089_fw.mp4	0.0	353.85092186927795	
22	136.1453619003296	movie	1		286	20.0	2.5	/experiments/Knapen_AOT/AOT_stimuli/rescaled_final/2089_fw.mp4	0.0	353.8674602508545	2.5003437995910645
22	137.7277057170868	pulse	1	t		20.0	2.5	/experiments/Knapen_AOT/AOT_stimuli/rescaled_final/2089_fw.mp4	0.0	355.4498040676117	
22	138.64570569992065	fix_post	2		12	20.0	2.5	/experiments/Knapen_AOT/AOT_stimuli/rescaled_final/2089_fw.mp4	0.0	356.36780405044556	0.10019850730895996
23	138.74590420722961	fix_pre	0		120	21.0	2.5	blank	1.0	356.4680025577545	1.0001029968261719
23	139.32933902740479	pulse	0	t		21.0	2.5	blank	1.0	357.0514373779297	
23	139.7460072040558	movie	1		300	21.0	2.5	blank	1.0	357.4681055545807	2.5002458095550537
23	140.9225869178772	pulse	1	t		21.0	2.5	blank	1.0	358.6446852684021	
23	142.24625301361084	fix_post	2		12	21.0	2.5	blank	1.0	359.96835136413574	0.10002326965332031
24	142.34627628326416	fix_pre	0		120	22.0	2.5	/experiments/Knapen_AOT/AOT_stimuli/rescaled_final/2080_rv.mp4	0.0	360.06837463378906	1.0085361003875732
24	142.52261090278625	pulse	0	t		22.0	2.5	/experiments/Knapen_AOT/AOT_stimuli/rescaled_final/2080_rv.mp4	0.0	360.24470925331116	
24	143.35481238365173	movie	1		275	22.0	2.5	/experiments/Knapen_AOT/AOT_stimuli/rescaled_final/2080_rv.mp4	0.0	361.07691073417664	2.4919958114624023
24	144.12227416038513	pulse	1	t		22.0	2.5	/experiments/Knapen_AOT/AOT_stimuli/rescaled_final/2080_rv.mp4	0.0	361.84437251091003	
24	145.72215151786804	pulse	1	t		22.0	2.5	/experiments/Knapen_AOT/AOT_stimuli/rescaled_final/2080_rv.mp4	0.0	363.44424986839294	
24	145.84680819511414	fix_post	2		12	22.0	2.5	/experiments/Knapen_AOT/AOT_stimuli/rescaled_final/2080_rv.mp4	0.0	363.56890654563904	0.1000223159790039
25	145.94683051109314	fix_pre	0		120	23.0	2.5	/experiments/Knapen_AOT/AOT_stimuli/rescaled_final/2057_rv.mp4	0.0	363.66892886161804	1.008521556854248
25	146.9553520679474	movie	1		274	23.0	2.5	/experiments/Knapen_AOT/AOT_stimuli/rescaled_final/2057_rv.mp4	0.0	364.6774504184723	2.492023468017578
25	147.32218599319458	pulse	1	t		23.0	2.5	/experiments/Knapen_AOT/AOT_stimuli/rescaled_final/2057_rv.mp4	0.0	365.0442843437195	
25	148.92241144180298	pulse	1	t		23.0	2.5	/experiments/Knapen_AOT/AOT_stimuli/rescaled_final/2057_rv.mp4	0.0	366.6445097923279	
25	149.44737553596497	fix_post	2		12	23.0	2.5	/experiments/Knapen_AOT/AOT_stimuli/rescaled_final/2057_rv.mp4	0.0	367.16947388648987	0.09999990463256836
26	149.54737544059753	fix_pre	0		118	24.0	2.5	/experiments/Knapen_AOT/AOT_stimuli/rescaled_final/0483_rv.mp4	0.0	367.26947379112244	0.9918301105499268
26	150.5227415561676	pulse	0	t		24.0	2.5	/experiments/Knapen_AOT/AOT_stimuli/rescaled_final/0483_rv.mp4	0.0	368.2448399066925	
26	150.53920555114746	movie	1		289	24.0	2.5	/experiments/Knapen_AOT/AOT_stimuli/rescaled_final/0483_rv.mp4	0.0	368.26130390167236	2.5003345012664795
26	152.12303757667542	pulse	1	t		24.0	2.5	/experiments/Knapen_AOT/AOT_stimuli/rescaled_final/0483_rv.mp4	0.0	369.8451359272003	
26	153.03954005241394	fix_post	2		12	24.0	2.5	/experiments/Knapen_AOT/AOT_stimuli/rescaled_final/0483_rv.mp4	0.0	370.76163840293884	0.10001802444458008
27	153.13955807685852	fix_pre	0		120	25.0	2.5	/experiments/Knapen_AOT/AOT_stimuli/rescaled_final/1329_fw.mp4	0.0	370.8616564273834	1.0085382461547852
27	153.7231662273407	pulse	0	t		25.0	2.5	/experiments/Knapen_AOT/AOT_stimuli/rescaled_final/1329_fw.mp4	0.0	371.4452645778656	
27	154.1480963230133	movie	1		269	25.0	2.5	/experiments/Knapen_AOT/AOT_stimuli/rescaled_final/1329_fw.mp4	0.0	371.8701946735382	2.4920787811279297
27	155.32253861427307	pulse	1	t		25.0	2.5	/experiments/Knapen_AOT/AOT_stimuli/rescaled_final/1329_fw.mp4	0.0	373.044636964798	
27	156.64017510414124	fix_post	2		12	25.0	2.5	/experiments/Knapen_AOT/AOT_stimuli/rescaled_final/1329_fw.mp4	0.0	374.36227345466614	0.09995222091674805
28	156.74012732505798	fix_pre	0		120	26.0	2.5	/experiments/Knapen_AOT/AOT_stimuli/rescaled_final/0572_rv.mp4	0.0	374.4622256755829	1.0084898471832275
28	156.92370295524597	pulse	0	t		26.0	2.5	/experiments/Knapen_AOT/AOT_stimuli/rescaled_final/0572_rv.mp4	0.0	374.6458013057709	
28	157.7486171722412	movie	1		275	26.0	2.5	/experiments/Knapen_AOT/AOT_stimuli/rescaled_final/0572_rv.mp4	0.0	375.4707155227661	2.4920592308044434
28	158.52203154563904	pulse	1	t		26.0	2.5	/experiments/Knapen_AOT/AOT_stimuli/rescaled_final/0572_rv.mp4	0.0	376.24412989616394	
28	160.12206530570984	pulse	1	t		26.0	2.5	/experiments/Knapen_AOT/AOT_stimuli/rescaled_final/0572_rv.mp4	0.0	377.84416365623474	
28	160.24067640304565	fix_post	2		12	26.0	2.5	/experiments/Knapen_AOT/AOT_stimuli/rescaled_final/0572_rv.mp4	0.0	377.96277475357056	0.09997153282165527
29	160.3406479358673	fix_pre	0		120	27.0	2.5	blank	1.0	378.0627462863922	1.0001769065856934
29	161.340824842453	movie	1		300	27.0	2.5	blank	1.0	379.0629231929779	2.5003347396850586
29	161.7243309020996	pulse	1	t		27.0	2.5	blank	1.0	379.4464292526245	
29	163.32455158233643	pulse	1	t		27.0	2.5	blank	1.0	381.0466499328613	
29	163.84115958213806	fix_post	2		12	27.0	2.5	blank	1.0	381.56325793266296	0.10002756118774414
30	163.9411871433258	fix_pre	0		119	28.0	2.5	/experiments/Knapen_AOT/AOT_stimuli/rescaled_final/1511_fw.mp4	0.0	381.6632854938507	1.0001866817474365
30	164.924946308136	pulse	0	t		28.0	2.5	/experiments/Knapen_AOT/AOT_stimuli/rescaled_final/1511_fw.mp4	0.0	382.6470446586609	
30	164.94137382507324	movie	1		282	28.0	2.5	/experiments/Knapen_AOT/AOT_stimuli/rescaled_final/1511_fw.mp4	0.0	382.66347217559814	2.5003509521484375
30	166.52366423606873	pulse	1	t		28.0	2.5	/experiments/Knapen_AOT/AOT_stimuli/rescaled_final/1511_fw.mp4	0.0	384.2457625865936	
30	167.44172477722168	fix_post	2		12	28.0	2.5	/experiments/Knapen_AOT/AOT_stimuli/rescaled_final/1511_fw.mp4	0.0	385.1638231277466	0.10012173652648926
31	167.54184651374817	fix_pre	0		120	29.0	2.5	/experiments/Knapen_AOT/AOT_stimuli/rescaled_final/1300_rv.mp4	0.0	385.26394486427307	1.0084309577941895
31	168.12543559074402	pulse	0	t		29.0	2.5	/experiments/Knapen_AOT/AOT_stimuli/rescaled_final/1300_rv.mp4	0.0	385.8475339412689	
31	168.55027747154236	movie	1		263	29.0	2.5	/experiments/Knapen_AOT/AOT_stimuli/rescaled_final/1300_rv.mp4	0.0	386.27237582206726	2.491971015930176
31	169.72547698020935	pulse	1	t		29.0	2.5	/experiments/Knapen_AOT/AOT_stimuli/rescaled_final/1300_rv.mp4	0.0	387.44757533073425	
31	171.04224848747253	fix_post	2		12	29.0	2.5	/experiments/Knapen_AOT/AOT_stimuli/rescaled_final/1300_rv.mp4	0.0	388.76434683799744	0.10002899169921875
32	171.14227747917175	fix_pre	0		120	30.0	2.5	/experiments/Knapen_AOT/AOT_stimuli/rescaled_final/1880_rv.mp4	0.0	388.86437582969666	1.0085151195526123
32	171.3258318901062	pulse	0	t		30.0	2.5	/experiments/Knapen_AOT/AOT_stimuli/rescaled_final/1880_rv.mp4	0.0	389.0479302406311	
32	172.15079259872437	movie	1		280	30.0	2.5	/experiments/Knapen_AOT/AOT_stimuli/rescaled_final/1880_rv.mp4	0.0	389.87289094924927	2.4920263290405273
32	172.92601537704468	pulse	1	t		30.0	2.5	/experiments/Knapen_AOT/AOT_stimuli/rescaled_final/1880_rv.mp4	0.0	390.6481137275696	
32	174.52436876296997	pulse	1	t		30.0	2.5	/experiments/Knapen_AOT/AOT_stimuli/rescaled_final/1880_rv.mp4	0.0	392.2464671134949	
32	174.6428189277649	fix_post	2		12	30.0	2.5	/experiments/Knapen_AOT/AOT_stimuli/rescaled_final/1880_rv.mp4	0.0	392.3649172782898	0.09998440742492676
33	174.74280333518982	fix_pre	0		120	31.0	2.5	/experiments/Knapen_AOT/AOT_stimuli/rescaled_final/0150_rv.mp4	0.0	392.4649016857147	1.0085594654083252
33	175.75136280059814	movie	1		281	31.0	2.5	/experiments/Knapen_AOT/AOT_stimuli/rescaled_final/0150_rv.mp4	0.0	393.47346115112305	2.4919800758361816
33	176.12523007392883	pulse	1	t		31.0	2.5	/experiments/Knapen_AOT/AOT_stimuli/rescaled_final/0150_rv.mp4	0.0	393.84732842445374	
33	177.72477865219116	pulse	1	t		31.0	2.5	/experiments/Knapen_AOT/AOT_stimuli/rescaled_final/0150_rv.mp4	0.0	395.44687700271606	
33	178.24334287643433	fix_post	2		12	31.0	2.5	/experiments/Knapen_AOT/AOT_stimuli/rescaled_final/0150_rv.mp4	0.0	395.96544122695923	0.1001133918762207
34	178.34345626831055	fix_pre	0		119	32.0	2.5	/experiments/Knapen_AOT/AOT_stimuli/rescaled_final/0644_rv.mp4	0.0	396.06555461883545	1.0000591278076172
34	179.3269920349121	pulse	0	t		32.0	2.5	/experiments/Knapen_AOT/AOT_stimuli/rescaled_final/0644_rv.mp4	0.0	397.049090385437	
34	179.34351539611816	movie	1		280	32.0	2.5	/experiments/Knapen_AOT/AOT_stimuli/rescaled_final/0644_rv.mp4	0.0	397.06561374664307	2.5003578662872314
34	180.9274411201477	pulse	1	t		32.0	2.5	/experiments/Knapen_AOT/AOT_stimuli/rescaled_final/0644_rv.mp4	0.0	398.6495394706726	
34	181.8438732624054	fix_post	2		12	32.0	2.5	/experiments/Knapen_AOT/AOT_stimuli/rescaled_final/0644_rv.mp4	0.0	399.5659716129303	0.10003662109375
35	181.94390988349915	fix_pre	0		103	33.0	2.5	/experiments/Knapen_AOT/AOT_stimuli/rescaled_final/0080_rv.mp4	0.0	399.66600823402405	1.0084736347198486
35	182.52761602401733	pulse	0	t		33.0	2.5	/experiments/Knapen_AOT/AOT_stimuli/rescaled_final/0080_rv.mp4	0.0	400.24971437454224	
35	182.952383518219	movie	1		269	33.0	2.5	/experiments/Knapen_AOT/AOT_stimuli/rescaled_final/0080_rv.mp4	0.0	400.6744818687439	2.492016553878784
35	184.12618160247803	pulse	1	t		33.0	2.5	/experiments/Knapen_AOT/AOT_stimuli/rescaled_final/0080_rv.mp4	0.0	401.84827995300293	
35	185.44440007209778	fix_post	2		12	33.0	2.5	/experiments/Knapen_AOT/AOT_stimuli/rescaled_final/0080_rv.mp4	0.0	403.1664984226227	0.10009384155273438
36	185.5444939136505	fix_pre	0		120	34.0	2.5	blank	1.0	403.2665922641754	1.000087022781372
36	185.72797632217407	pulse	0	t		34.0	2.5	blank	1.0	403.450074672699	
36	186.54458093643188	movie	1		300	34.0	2.5	blank	1.0	404.2666792869568	2.5003767013549805
36	187.32824969291687	pulse	1	t		34.0	2.5	blank	1.0	405.0503480434418	
36	188.9284770488739	pulse	1	t		34.0	2.5	blank	1.0	406.6505753993988	
36	189.04495763778687	fix_post	2		12	34.0	2.5	blank	1.0	406.76705598831177	0.10003519058227539
37	189.14499282836914	fix_pre	0		120	35.0	2.5	/experiments/Knapen_AOT/AOT_stimuli/rescaled_final/1722_fw.mp4	0.0	406.86709117889404	1.0085117816925049
37	190.15350461006165	movie	1		278	35.0	2.5	/experiments/Knapen_AOT/AOT_stimuli/rescaled_final/1722_fw.mp4	0.0	407.87560296058655	2.4920337200164795
37	190.52714085578918	pulse	1	t		35.0	2.5	/experiments/Knapen_AOT/AOT_stimuli/rescaled_final/1722_fw.mp4	0.0	408.2492392063141	
37	192.12670469284058	pulse	1	t		35.0	2.5	/experiments/Knapen_AOT/AOT_stimuli/rescaled_final/1722_fw.mp4	0.0	409.8488030433655	
37	192.64553833007812	fix_post	2		12	35.0	2.5	/experiments/Knapen_AOT/AOT_stimuli/rescaled_final/1722_fw.mp4	0.0	410.367636680603	0.09997439384460449
38	192.74551272392273	fix_pre	0		119	36.0	2.5	/experiments/Knapen_AOT/AOT_stimuli/rescaled_final/0497_fw.mp4	0.0	410.46761107444763	1.0001819133758545
38	193.72934436798096	pulse	0	t		36.0	2.5	/experiments/Knapen_AOT/AOT_stimuli/rescaled_final/0497_fw.mp4	0.0	411.45144271850586	
38	193.74569463729858	movie	1		276	36.0	2.5	/experiments/Knapen_AOT/AOT_stimuli/rescaled_final/0497_fw.mp4	0.0	411.4677929878235	2.5003817081451416
38	195.3282446861267	pulse	1	t		36.0	2.5	/experiments/Knapen_AOT/AOT_stimuli/rescaled_final/0497_fw.mp4	0.0	413.0503430366516	
38	196.24607634544373	fix_post	2		12	36.0	2.5	/experiments/Knapen_AOT/AOT_stimuli/rescaled_final/0497_fw.mp4	0.0	413.9681746959686	0.0999913215637207
39	196.34606766700745	fix_pre	0		120	37.0	2.5	/experiments/Knapen_AOT/AOT_stimuli/rescaled_final/0506_fw.mp4	0.0	414.06816601753235	1.008516550064087
39	196.92148852348328	pulse	0	t		37.0	2.5	/experiments/Knapen_AOT/AOT_stimuli/rescaled_final/0506_fw.mp4	0.0	414.6435868740082	
39	197.35458421707153	movie	1		276	37.0	2.5	/experiments/Knapen_AOT/AOT_stimuli/rescaled_final/0506_fw.mp4	0.0	415.07668256759644	2.492017984390259
39	198.52177739143372	pulse	1	t		37.0	2.5	/experiments/Knapen_AOT/AOT_stimuli/rescaled_final/0506_fw.mp4	0.0	416.2438757419586	
39	199.8466022014618	fix_post	2		12	37.0	2.5	/experiments/Knapen_AOT/AOT_stimuli/rescaled_final/0506_fw.mp4	0.0	417.5687005519867	0.10002946853637695
40	199.94663166999817	fix_pre	0		120	38.0	2.5	/experiments/Knapen_AOT/AOT_stimuli/rescaled_final/1329_rv.mp4	0.0	417.66873002052307	1.0084891319274902
40	200.1228609085083	pulse	0	t		38.0	2.5	/experiments/Knapen_AOT/AOT_stimuli/rescaled_final/1329_rv.mp4	0.0	417.8449592590332	
40	200.95512080192566	movie	1		269	38.0	2.5	/experiments/Knapen_AOT/AOT_stimuli/rescaled_final/1329_rv.mp4	0.0	418.67721915245056	2.492086410522461
40	201.72208976745605	pulse	1	t		38.0	2.5	/experiments/Knapen_AOT/AOT_stimuli/rescaled_final/1329_rv.mp4	0.0	419.44418811798096	
40	203.32228994369507	pulse	1	t		38.0	2.5	/experiments/Knapen_AOT/AOT_stimuli/rescaled_final/1329_rv.mp4	0.0	421.04438829421997	
40	203.44720721244812	fix_post	2		12	38.0	2.5	/experiments/Knapen_AOT/AOT_stimuli/rescaled_final/1329_rv.mp4	0.0	421.169305562973	0.100067138671875
41	203.54727435112	fix_pre	0		120	39.0	2.5	/experiments/Knapen_AOT/AOT_stimuli/rescaled_final/0968_rv.mp4	0.0	421.2693727016449	1.0084035396575928
41	204.5556778907776	movie	1		280	39.0	2.5	/experiments/Knapen_AOT/AOT_stimuli/rescaled_final/0968_rv.mp4	0.0	422.2777762413025	2.4920103549957275
41	204.92285418510437	pulse	1	t		39.0	2.5	/experiments/Knapen_AOT/AOT_stimuli/rescaled_final/0968_rv.mp4	0.0	422.6449525356293	
41	206.52286314964294	pulse	1	t		39.0	2.5	/experiments/Knapen_AOT/AOT_stimuli/rescaled_final/0968_rv.mp4	0.0	424.24496150016785	
41	207.04768824577332	fix_post	2		12	39.0	2.5	/experiments/Knapen_AOT/AOT_stimuli/rescaled_final/0968_rv.mp4	0.0	424.7697865962982	0.10007667541503906
42	207.14776492118835	fix_pre	0		118	40.0	2.5	blank	1.0	424.86986327171326	0.9833934307098389
42	208.12316393852234	pulse	0	t		40.0	2.5	blank	1.0	425.84526228904724	
42	208.1311583518982	movie	1		301	40.0	2.5	blank	1.0	425.8532567024231	2.508788585662842
42	209.72326827049255	pulse	1	t		40.0	2.5	blank	1.0	427.44536662101746	
42	210.63994693756104	fix_post	2		12	40.0	2.5	blank	1.0	428.36204528808594	0.10001492500305176
43	210.7399618625641	fix_pre	0		120	41.0	2.5	/experiments/Knapen_AOT/AOT_stimuli/rescaled_final/0088_fw.mp4	0.0	428.462060213089	1.008436679840088
43	211.3235902786255	pulse	0	t		41.0	2.5	/experiments/Knapen_AOT/AOT_stimuli/rescaled_final/0088_fw.mp4	0.0	429.0456886291504	
43	211.74839854240417	movie	1		275	41.0	2.5	/experiments/Knapen_AOT/AOT_stimuli/rescaled_final/0088_fw.mp4	0.0	429.4704968929291	2.492039442062378
43	212.92217350006104	pulse	1	t		41.0	2.5	/experiments/Knapen_AOT/AOT_stimuli/rescaled_final/0088_fw.mp4	0.0	430.64427185058594	
43	214.24043798446655	fix_post	2		12	41.0	2.5	/experiments/Knapen_AOT/AOT_stimuli/rescaled_final/0088_fw.mp4	0.0	431.96253633499146	0.10005807876586914
44	214.34049606323242	fix_pre	0		120	42.0	2.5	/experiments/Knapen_AOT/AOT_stimuli/rescaled_final/1359_fw.mp4	0.0	432.0625944137573	1.0084562301635742
44	214.5240375995636	pulse	0	t		42.0	2.5	/experiments/Knapen_AOT/AOT_stimuli/rescaled_final/1359_fw.mp4	0.0	432.2461359500885	
44	215.348952293396	movie	1		281	42.0	2.5	/experiments/Knapen_AOT/AOT_stimuli/rescaled_final/1359_fw.mp4	0.0	433.0710506439209	2.492018222808838
44	216.12273478507996	pulse	1	t		42.0	2.5	/experiments/Knapen_AOT/AOT_stimuli/rescaled_final/1359_fw.mp4	0.0	433.84483313560486	
44	217.72297263145447	pulse	1	t		42.0	2.5	/experiments/Knapen_AOT/AOT_stimuli/rescaled_final/1359_fw.mp4	0.0	435.44507098197937	
44	217.84097051620483	fix_post	2		12	42.0	2.5	/experiments/Knapen_AOT/AOT_stimuli/rescaled_final/1359_fw.mp4	0.0	435.56306886672974	0.10001850128173828
45	217.94098901748657	fix_pre	0		120	43.0	2.5	/experiments/Knapen_AOT/AOT_stimuli/rescaled_final/1066_rv.mp4	0.0	435.6630873680115	1.00850510597229
45	218.94949412345886	movie	1		271	43.0	2.5	/experiments/Knapen_AOT/AOT_stimuli/rescaled_final/1066_rv.mp4	0.0	436.67159247398376	2.49202036857605
45	219.32312965393066	pulse	1	t		43.0	2.5	/experiments/Knapen_AOT/AOT_stimuli/rescaled_final/1066_rv.mp4	0.0	437.04522800445557	
45	220.92342376708984	pulse	1	t		43.0	2.5	/experiments/Knapen_AOT/AOT_stimuli/rescaled_final/1066_rv.mp4	0.0	438.64552211761475	
45	221.4415144920349	fix_post	2		12	43.0	2.5	/experiments/Knapen_AOT/AOT_stimuli/rescaled_final/1066_rv.mp4	0.0	439.1636128425598	0.10000109672546387
46	221.54151558876038	fix_pre	0		119	44.0	2.5	/experiments/Knapen_AOT/AOT_stimuli/rescaled_final/1629_rv.mp4	0.0	439.2636139392853	1.0002269744873047
46	222.52529883384705	pulse	0	t		44.0	2.5	/experiments/Knapen_AOT/AOT_stimuli/rescaled_final/1629_rv.mp4	0.0	440.24739718437195	
46	222.54174256324768	movie	1		270	44.0	2.5	/experiments/Knapen_AOT/AOT_stimuli/rescaled_final/1629_rv.mp4	0.0	440.2638409137726	2.5003552436828613
46	224.12400937080383	pulse	1	t		44.0	2.5	/experiments/Knapen_AOT/AOT_stimuli/rescaled_final/1629_rv.mp4	0.0	441.84610772132874	
46	225.04209780693054	fix_post	2		12	44.0	2.5	/experiments/Knapen_AOT/AOT_stimuli/rescaled_final/1629_rv.mp4	0.0	442.76419615745544	0.09996652603149414
47	225.14206433296204	fix_pre	0		120	45.0	2.5	/experiments/Knapen_AOT/AOT_stimuli/rescaled_final/0319_rv.mp4	0.0	442.86416268348694	1.0085022449493408
47	225.72584199905396	pulse	0	t		45.0	2.5	/experiments/Knapen_AOT/AOT_stimuli/rescaled_final/0319_rv.mp4	0.0	443.44794034957886	
47	226.15056657791138	movie	1		274	45.0	2.5	/experiments/Knapen_AOT/AOT_stimuli/rescaled_final/0319_rv.mp4	0.0	443.8726649284363	2.5003719329833984
47	227.32528281211853	pulse	1	t		45.0	2.5	/experiments/Knapen_AOT/AOT_stimuli/rescaled_final/0319_rv.mp4	0.0	445.04738116264343	
47	228.65093851089478	fix_post	2		11	45.0	2.5	/experiments/Knapen_AOT/AOT_stimuli/rescaled_final/0319_rv.mp4	0.0	446.3730368614197	0.09166812896728516
48	228.74260663986206	fix_pre	0		120	46.0	2.5	/experiments/Knapen_AOT/AOT_stimuli/rescaled_final/0125_fw.mp4	0.0	446.46470499038696	1.008521318435669
48	228.92619156837463	pulse	0	t		46.0	2.5	/experiments/Knapen_AOT/AOT_stimuli/rescaled_final/0125_fw.mp4	0.0	446.64828991889954	
48	229.75112795829773	movie	1		271	46.0	2.5	/experiments/Knapen_AOT/AOT_stimuli/rescaled_final/0125_fw.mp4	0.0	447.47322630882263	2.4920029640197754
48	230.52514505386353	pulse	1	t		46.0	2.5	/experiments/Knapen_AOT/AOT_stimuli/rescaled_final/0125_fw.mp4	0.0	448.2472434043884	
48	232.1251049041748	pulse	1	t		46.0	2.5	/experiments/Knapen_AOT/AOT_stimuli/rescaled_final/0125_fw.mp4	0.0	449.8472032546997	
48	232.2431309223175	fix_post	2		12	46.0	2.5	/experiments/Knapen_AOT/AOT_stimuli/rescaled_final/0125_fw.mp4	0.0	449.9652292728424	0.1000206470489502
49	232.34315156936646	fix_pre	0		120	47.0	2.5	blank	1.0	450.06524991989136	1.0002200603485107
49	233.34337162971497	movie	1		299	47.0	2.5	blank	1.0	451.06546998023987	2.5002949237823486
49	233.72699522972107	pulse	1	t		47.0	2.5	blank	1.0	451.449093580246	
49	235.32718515396118	pulse	1	t		47.0	2.5	blank	1.0	453.0492835044861	
49	235.84366655349731	fix_post	2		12	47.0	2.5	blank	1.0	453.5657649040222	0.10001993179321289
50	235.94368648529053	fix_pre	0		119	48.0	2.5	/experiments/Knapen_AOT/AOT_stimuli/rescaled_final/0644_fw.mp4	0.0	453.66578483581543	1.0003809928894043
50	236.92743062973022	pulse	0	t		48.0	2.5	/experiments/Knapen_AOT/AOT_stimuli/rescaled_final/0644_fw.mp4	0.0	454.6495289802551	
50	236.94406747817993	movie	1		275	48.0	2.5	/experiments/Knapen_AOT/AOT_stimuli/rescaled_final/0644_fw.mp4	0.0	454.66616582870483	2.5084965229034424
50	238.5261504650116	pulse	1	t		48.0	2.5	/experiments/Knapen_AOT/AOT_stimuli/rescaled_final/0644_fw.mp4	0.0	456.2482488155365	
50	239.45256400108337	fix_post	2		11	48.0	2.5	/experiments/Knapen_AOT/AOT_stimuli/rescaled_final/0644_fw.mp4	0.0	457.1746623516083	0.09165525436401367
51	239.5442192554474	fix_pre	0		120	49.0	2.5	/experiments/Knapen_AOT/AOT_stimuli/rescaled_final/0748_fw.mp4	0.0	457.2663176059723	1.0085842609405518
51	240.12788701057434	pulse	0	t		49.0	2.5	/experiments/Knapen_AOT/AOT_stimuli/rescaled_final/0748_fw.mp4	0.0	457.84998536109924	
51	240.55280351638794	movie	1		279	49.0	2.5	/experiments/Knapen_AOT/AOT_stimuli/rescaled_final/0748_fw.mp4	0.0	458.27490186691284	2.492007255554199
51	241.72828793525696	pulse	1	t		49.0	2.5	/experiments/Knapen_AOT/AOT_stimuli/rescaled_final/0748_fw.mp4	0.0	459.45038628578186	
51	243.04481077194214	fix_post	2		12	49.0	2.5	/experiments/Knapen_AOT/AOT_stimuli/rescaled_final/0748_fw.mp4	0.0	460.76690912246704	0.09998869895935059
52	243.1447994709015	fix_pre	0		120	50.0	2.5	/experiments/Knapen_AOT/AOT_stimuli/rescaled_final/0477_rv.mp4	0.0	460.8668978214264	1.0085203647613525
52	243.32832312583923	pulse	0	t		50.0	2.5	/experiments/Knapen_AOT/AOT_stimuli/rescaled_final/0477_rv.mp4	0.0	461.05042147636414	
52	244.15331983566284	movie	1		275	50.0	2.5	/experiments/Knapen_AOT/AOT_stimuli/rescaled_final/0477_rv.mp4	0.0	461.87541818618774	2.492088794708252
52	244.92719054222107	pulse	1	t		50.0	2.5	/experiments/Knapen_AOT/AOT_stimuli/rescaled_final/0477_rv.mp4	0.0	462.649288892746	
52	246.52663373947144	pulse	1	t		50.0	2.5	/experiments/Knapen_AOT/AOT_stimuli/rescaled_final/0477_rv.mp4	0.0	464.24873208999634	
52	246.6454086303711	fix_post	2		12	50.0	2.5	/experiments/Knapen_AOT/AOT_stimuli/rescaled_final/0477_rv.mp4	0.0	464.367506980896	0.09991455078125
53	246.74532318115234	fix_pre	0		120	51.0	2.5	/experiments/Knapen_AOT/AOT_stimuli/rescaled_final/0322_rv.mp4	0.0	464.46742153167725	1.0085532665252686
53	247.7538764476776	movie	1		282	51.0	2.5	/experiments/Knapen_AOT/AOT_stimuli/rescaled_final/0322_rv.mp4	0.0	465.4759747982025	2.4919729232788086
53	248.12750148773193	pulse	1	t		51.0	2.5	/experiments/Knapen_AOT/AOT_stimuli/rescaled_final/0322_rv.mp4	0.0	465.84959983825684	
53	249.72728037834167	pulse	1	t		51.0	2.5	/experiments/Knapen_AOT/AOT_stimuli/rescaled_final/0322_rv.mp4	0.0	467.4493787288666	
53	250.24584937095642	fix_post	2		12	51.0	2.5	/experiments/Knapen_AOT/AOT_stimuli/rescaled_final/0322_rv.mp4	0.0	467.9679477214813	0.10006284713745117
54	250.34591221809387	fix_pre	0		119	52.0	2.5	/experiments/Knapen_AOT/AOT_stimuli/rescaled_final/0438_fw.mp4	0.0	468.0680105686188	1.0003292560577393
54	251.3220980167389	pulse	0	t		52.0	2.5	/experiments/Knapen_AOT/AOT_stimuli/rescaled_final/0438_fw.mp4	0.0	469.0441963672638	
54	251.3462414741516	movie	1		276	52.0	2.5	/experiments/Knapen_AOT/AOT_stimuli/rescaled_final/0438_fw.mp4	0.0	469.0683398246765	2.500164747238159
54	252.9284348487854	pulse	1	t		52.0	2.5	/experiments/Knapen_AOT/AOT_stimuli/rescaled_final/0438_fw.mp4	0.0	470.6505331993103	
54	253.84640622138977	fix_post	2		12	52.0	2.5	/experiments/Knapen_AOT/AOT_stimuli/rescaled_final/0438_fw.mp4	0.0	471.5685045719147	0.1000053882598877
55	253.94641160964966	fix_pre	0		120	53.0	2.5	/experiments/Knapen_AOT/AOT_stimuli/rescaled_final/1048_rv.mp4	0.0	471.66850996017456	1.0085620880126953
55	254.52203607559204	pulse	0	t		53.0	2.5	/experiments/Knapen_AOT/AOT_stimuli/rescaled_final/1048_rv.mp4	0.0	472.24413442611694	
55	254.95497369766235	movie	1		279	53.0	2.5	/experiments/Knapen_AOT/AOT_stimuli/rescaled_final/1048_rv.mp4	0.0	472.67707204818726	2.4919540882110596
55	256.1305778026581	pulse	1	t		53.0	2.5	/experiments/Knapen_AOT/AOT_stimuli/rescaled_final/1048_rv.mp4	0.0	473.852676153183	
55	257.4469277858734	fix_post	2		12	53.0	2.5	/experiments/Knapen_AOT/AOT_stimuli/rescaled_final/1048_rv.mp4	0.0	475.1690261363983	0.10003352165222168
56	257.54696130752563	fix_pre	0		120	54.0	2.5	blank	1.0	475.26905965805054	1.000154972076416
56	257.7223529815674	pulse	0	t		54.0	2.5	blank	1.0	475.4444513320923	
56	258.54711627960205	movie	1		300	54.0	2.5	blank	1.0	476.26921463012695	2.5003888607025146
56	259.32242369651794	pulse	1	t		54.0	2.5	blank	1.0	477.04452204704285	
56	260.92274379730225	pulse	1	t		54.0	2.5	blank	1.0	478.64484214782715	
56	261.04750514030457	fix_post	2		12	54.0	2.5	blank	1.0	478.76960349082947	0.09998536109924316
57	261.1474905014038	fix_pre	0		120	55.0	2.5	/experiments/Knapen_AOT/AOT_stimuli/rescaled_final/1480_fw.mp4	0.0	478.8695888519287	1.0084853172302246
57	262.15597581863403	movie	1		275	55.0	2.5	/experiments/Knapen_AOT/AOT_stimuli/rescaled_final/1480_fw.mp4	0.0	479.87807416915894	2.4920449256896973
57	262.52346181869507	pulse	1	t		55.0	2.5	/experiments/Knapen_AOT/AOT_stimuli/rescaled_final/1480_fw.mp4	0.0	480.24556016921997	
57	264.12311005592346	pulse	1	t		55.0	2.5	/experiments/Knapen_AOT/AOT_stimuli/rescaled_final/1480_fw.mp4	0.0	481.84520840644836	
57	264.64802074432373	fix_post	2		12	55.0	2.5	/experiments/Knapen_AOT/AOT_stimuli/rescaled_final/1480_fw.mp4	0.0	482.37011909484863	0.10000848770141602
58	264.74802923202515	fix_pre	0		118	56.0	2.5	/experiments/Knapen_AOT/AOT_stimuli/rescaled_final/2072_rv.mp4	0.0	482.47012758255005	0.9919295310974121
58	265.72337651252747	pulse	0	t		56.0	2.5	/experiments/Knapen_AOT/AOT_stimuli/rescaled_final/2072_rv.mp4	0.0	483.44547486305237	
58	265.73995876312256	movie	1		282	56.0	2.5	/experiments/Knapen_AOT/AOT_stimuli/rescaled_final/2072_rv.mp4	0.0	483.46205711364746	2.5002622604370117
58	267.32264161109924	pulse	1	t		56.0	2.5	/experiments/Knapen_AOT/AOT_stimuli/rescaled_final/2072_rv.mp4	0.0	485.04473996162415	
58	268.24022102355957	fix_post	2		12	56.0	2.5	/experiments/Knapen_AOT/AOT_stimuli/rescaled_final/2072_rv.mp4	0.0	485.9623193740845	0.10000085830688477
59	268.34022188186646	fix_pre	0		120	57.0	2.5	/experiments/Knapen_AOT/AOT_stimuli/rescaled_final/0137_rv.mp4	0.0	486.06232023239136	1.008533239364624
59	268.9239778518677	pulse	0	t		57.0	2.5	/experiments/Knapen_AOT/AOT_stimuli/rescaled_final/0137_rv.mp4	0.0	486.6460762023926	
59	269.3487551212311	movie	1		276	57.0	2.5	/experiments/Knapen_AOT/AOT_stimuli/rescaled_final/0137_rv.mp4	0.0	487.070853471756	2.4920687675476074
59	270.522212266922	pulse	1	t		57.0	2.5	/experiments/Knapen_AOT/AOT_stimuli/rescaled_final/0137_rv.mp4	0.0	488.2443106174469	
59	271.8408238887787	fix_post	2		12	57.0	2.5	/experiments/Knapen_AOT/AOT_stimuli/rescaled_final/0137_rv.mp4	0.0	489.5629222393036	0.10001826286315918
60	271.94084215164185	fix_pre	0		120	58.0	2.5	/experiments/Knapen_AOT/AOT_stimuli/rescaled_final/1157_rv.mp4	0.0	489.66294050216675	1.0084373950958252
60	272.124635219574	pulse	0	t		58.0	2.5	/experiments/Knapen_AOT/AOT_stimuli/rescaled_final/1157_rv.mp4	0.0	489.8467335700989	
60	272.94927954673767	movie	1		277	58.0	2.5	/experiments/Knapen_AOT/AOT_stimuli/rescaled_final/1157_rv.mp4	0.0	490.6713778972626	2.492058038711548
60	273.7247745990753	pulse	1	t		58.0	2.5	/experiments/Knapen_AOT/AOT_stimuli/rescaled_final/1157_rv.mp4	0.0	491.4468729496002	
60	275.3233449459076	pulse	1	t		58.0	2.5	/experiments/Knapen_AOT/AOT_stimuli/rescaled_final/1157_rv.mp4	0.0	493.0454432964325	
60	275.4413375854492	fix_post	2		12	58.0	2.5	/experiments/Knapen_AOT/AOT_stimuli/rescaled_final/1157_rv.mp4	0.0	493.1634359359741	0.10000300407409668
61	275.5413405895233	fix_pre	0		120	59.0	2.5	/experiments/Knapen_AOT/AOT_stimuli/rescaled_final/1546_fw.mp4	0.0	493.2634389400482	1.0084657669067383
61	276.54980635643005	movie	1		258	59.0	2.5	/experiments/Knapen_AOT/AOT_stimuli/rescaled_final/1546_fw.mp4	0.0	494.27190470695496	2.492037296295166
61	276.9251081943512	pulse	1	t		59.0	2.5	/experiments/Knapen_AOT/AOT_stimuli/rescaled_final/1546_fw.mp4	0.0	494.6472065448761	
61	278.52560544013977	pulse	1	t		59.0	2.5	/experiments/Knapen_AOT/AOT_stimuli/rescaled_final/1546_fw.mp4	0.0	496.2477037906647	
61	279.0418436527252	fix_post	2		12	59.0	2.5	/experiments/Knapen_AOT/AOT_stimuli/rescaled_final/1546_fw.mp4	0.0	496.7639420032501	0.10001778602600098
62	279.1418614387512	fix_pre	0		119	60.0	2.5	/experiments/Knapen_AOT/AOT_stimuli/rescaled_final/0682_fw.mp4	0.0	496.8639597892761	1.008648157119751
62	280.1255748271942	pulse	0	t		60.0	2.5	/experiments/Knapen_AOT/AOT_stimuli/rescaled_final/0682_fw.mp4	0.0	497.8476731777191	
62	280.150509595871	movie	1		280	60.0	2.5	/experiments/Knapen_AOT/AOT_stimuli/rescaled_final/0682_fw.mp4	0.0	497.8726079463959	2.4918735027313232
62	281.7248001098633	pulse	1	t		60.0	2.5	/experiments/Knapen_AOT/AOT_stimuli/rescaled_final/0682_fw.mp4	0.0	499.4468984603882	
62	282.6423830986023	fix_post	2		12	60.0	2.5	/experiments/Knapen_AOT/AOT_stimuli/rescaled_final/0682_fw.mp4	0.0	500.3644814491272	0.1000218391418457
63	282.74240493774414	fix_pre	0		120	61.0	2.5	blank	1.0	500.46450328826904	1.000154972076416
63	283.32624411582947	pulse	0	t		61.0	2.5	blank	1.0	501.04834246635437	
63	283.74255990982056	movie	1		300	61.0	2.5	blank	1.0	501.46465826034546	2.500354766845703
63	284.92640471458435	pulse	1	t		61.0	2.5	blank	1.0	502.64850306510925	
63	286.24291467666626	fix_post	2		12	61.0	2.5	blank	1.0	503.96501302719116	0.10002827644348145
64	286.34294295310974	fix_pre	0		120	62.0	2.5	/experiments/Knapen_AOT/AOT_stimuli/rescaled_final/2027_fw.mp4	0.0	504.06504130363464	1.0085468292236328
64	286.5265769958496	pulse	0	t		62.0	2.5	/experiments/Knapen_AOT/AOT_stimuli/rescaled_final/2027_fw.mp4	0.0	504.2486753463745	
64	287.3514897823334	movie	1		268	62.0	2.5	/experiments/Knapen_AOT/AOT_stimuli/rescaled_final/2027_fw.mp4	0.0	505.0735881328583	2.491971731185913
64	288.1270911693573	pulse	1	t		62.0	2.5	/experiments/Knapen_AOT/AOT_stimuli/rescaled_final/2027_fw.mp4	0.0	505.8491895198822	
64	289.7254159450531	pulse	1	t		62.0	2.5	/experiments/Knapen_AOT/AOT_stimuli/rescaled_final/2027_fw.mp4	0.0	507.447514295578	
64	289.8434615135193	fix_post	2		12	62.0	2.5	/experiments/Knapen_AOT/AOT_stimuli/rescaled_final/2027_fw.mp4	0.0	507.5655598640442	0.10001873970031738
65	289.9434802532196	fix_pre	0		120	63.0	2.5	/experiments/Knapen_AOT/AOT_stimuli/rescaled_final/0438_rv.mp4	0.0	507.6655786037445	1.0085198879241943
65	290.9520001411438	movie	1		275	63.0	2.5	/experiments/Knapen_AOT/AOT_stimuli/rescaled_final/0438_rv.mp4	0.0	508.6740984916687	2.492002248764038
65	291.325941324234	pulse	1	t		63.0	2.5	/experiments/Knapen_AOT/AOT_stimuli/rescaled_final/0438_rv.mp4	0.0	509.0480396747589	
65	292.9273569583893	pulse	1	t		63.0	2.5	/experiments/Knapen_AOT/AOT_stimuli/rescaled_final/0438_rv.mp4	0.0	510.6494553089142	
65	293.44400238990784	fix_post	2		12	63.0	2.5	/experiments/Knapen_AOT/AOT_stimuli/rescaled_final/0438_rv.mp4	0.0	511.16610074043274	0.10003161430358887
66	293.5440340042114	fix_pre	0		119	64.0	2.5	/experiments/Knapen_AOT/AOT_stimuli/rescaled_final/1766_rv.mp4	0.0	511.2661323547363	1.0002107620239258
66	294.52782678604126	pulse	0	t		64.0	2.5	/experiments/Knapen_AOT/AOT_stimuli/rescaled_final/1766_rv.mp4	0.0	512.2499251365662	
66	294.54424476623535	movie	1		279	64.0	2.5	/experiments/Knapen_AOT/AOT_stimuli/rescaled_final/1766_rv.mp4	0.0	512.2663431167603	2.5002896785736084
66	296.1271343231201	pulse	1	t		64.0	2.5	/experiments/Knapen_AOT/AOT_stimuli/rescaled_final/1766_rv.mp4	0.0	513.849232673645	
66	297.04453444480896	fix_post	2		12	64.0	2.5	/experiments/Knapen_AOT/AOT_stimuli/rescaled_final/1766_rv.mp4	0.0	514.7666327953339	0.10003352165222168
67	297.1445679664612	fix_pre	0		120	65.0	2.5	/experiments/Knapen_AOT/AOT_stimuli/rescaled_final/0938_fw.mp4	0.0	514.8666663169861	1.008518934249878
67	297.7282135486603	pulse	0	t		65.0	2.5	/experiments/Knapen_AOT/AOT_stimuli/rescaled_final/0938_fw.mp4	0.0	515.4503118991852	
67	298.15308690071106	movie	1		270	65.0	2.5	/experiments/Knapen_AOT/AOT_stimuli/rescaled_final/0938_fw.mp4	0.0	515.875185251236	2.4919939041137695
67	299.3271117210388	pulse	1	t		65.0	2.5	/experiments/Knapen_AOT/AOT_stimuli/rescaled_final/0938_fw.mp4	0.0	517.0492100715637	
67	300.64508080482483	fix_post	2		12	65.0	2.5	/experiments/Knapen_AOT/AOT_stimuli/rescaled_final/0938_fw.mp4	0.0	518.3671791553497	0.10001230239868164
68	300.7450931072235	fix_pre	0		120	66.0	2.5	/experiments/Knapen_AOT/AOT_stimuli/rescaled_final/1307_fw.mp4	0.0	518.4671914577484	1.0085091590881348
68	300.928719997406	pulse	0	t		66.0	2.5	/experiments/Knapen_AOT/AOT_stimuli/rescaled_final/1307_fw.mp4	0.0	518.6508183479309	
68	301.75360226631165	movie	1		278	66.0	2.5	/experiments/Knapen_AOT/AOT_stimuli/rescaled_final/1307_fw.mp4	0.0	519.4757006168365	2.492032766342163
68	302.5267279148102	pulse	1	t		66.0	2.5	/experiments/Knapen_AOT/AOT_stimuli/rescaled_final/1307_fw.mp4	0.0	520.2488262653351	
68	304.1270475387573	pulse	1	t		66.0	2.5	/experiments/Knapen_AOT/AOT_stimuli/rescaled_final/1307_fw.mp4	0.0	521.8491458892822	
68	304.2456350326538	fix_post	2		12	66.0	2.5	/experiments/Knapen_AOT/AOT_stimuli/rescaled_final/1307_fw.mp4	0.0	521.9677333831787	0.1000361442565918
69	304.3456711769104	fix_pre	0		120	67.0	2.5	/experiments/Knapen_AOT/AOT_stimuli/rescaled_final/0111_rv.mp4	0.0	522.0677695274353	1.0085022449493408
69	305.35417342185974	movie	1		259	67.0	2.5	/experiments/Knapen_AOT/AOT_stimuli/rescaled_final/0111_rv.mp4	0.0	523.0762717723846	2.4920003414154053
69	305.7284655570984	pulse	1	t		67.0	2.5	/experiments/Knapen_AOT/AOT_stimuli/rescaled_final/0111_rv.mp4	0.0	523.4505639076233	
69	307.3291265964508	pulse	1	t		67.0	2.5	/experiments/Knapen_AOT/AOT_stimuli/rescaled_final/0111_rv.mp4	0.0	525.0512249469757	
69	307.84617376327515	fix_post	2		12	67.0	2.5	/experiments/Knapen_AOT/AOT_stimuli/rescaled_final/0111_rv.mp4	0.0	525.5682721138	0.10001134872436523
70	307.9461851119995	fix_pre	0		119	68.0	2.5	/experiments/Knapen_AOT/AOT_stimuli/rescaled_final/2004_fw.mp4	0.0	525.6682834625244	1.0085711479187012
70	308.92989110946655	pulse	0	t		68.0	2.5	/experiments/Knapen_AOT/AOT_stimuli/rescaled_final/2004_fw.mp4	0.0	526.6519894599915	
70	308.9547562599182	movie	1		274	68.0	2.5	/experiments/Knapen_AOT/AOT_stimuli/rescaled_final/2004_fw.mp4	0.0	526.6768546104431	2.491971254348755
70	310.5300250053406	pulse	1	t		68.0	2.5	/experiments/Knapen_AOT/AOT_stimuli/rescaled_final/2004_fw.mp4	0.0	528.2521233558655	
70	311.44672751426697	fix_post	2		12	68.0	2.5	/experiments/Knapen_AOT/AOT_stimuli/rescaled_final/2004_fw.mp4	0.0	529.1688258647919	0.10001873970031738
71	311.5467462539673	fix_pre	0		120	69.0	2.5	/experiments/Knapen_AOT/AOT_stimuli/rescaled_final/1781_fw.mp4	0.0	529.2688446044922	1.0085234642028809
71	312.1224510669708	pulse	0	t		69.0	2.5	/experiments/Knapen_AOT/AOT_stimuli/rescaled_final/1781_fw.mp4	0.0	529.8445494174957	
71	312.55526971817017	movie	1		292	69.0	2.5	/experiments/Knapen_AOT/AOT_stimuli/rescaled_final/1781_fw.mp4	0.0	530.2773680686951	2.4919450283050537
71	313.72269558906555	pulse	1	t		69.0	2.5	/experiments/Knapen_AOT/AOT_stimuli/rescaled_final/1781_fw.mp4	0.0	531.4447939395905	
71	315.0472147464752	fix_post	2		12	69.0	2.5	/experiments/Knapen_AOT/AOT_stimuli/rescaled_final/1781_fw.mp4	0.0	532.7693130970001	0.10006594657897949
72	315.1472806930542	fix_pre	0		120	70.0	2.5	blank	1.0	532.8693790435791	1.0001380443572998
72	315.3226799964905	pulse	0	t		70.0	2.5	blank	1.0	533.0447783470154	
72	316.1474187374115	movie	1		300	70.0	2.5	blank	1.0	533.8695170879364	2.50044846534729
72	316.92299461364746	pulse	1	t		70.0	2.5	blank	1.0	534.6450929641724	
72	318.5230190753937	pulse	1	t		70.0	2.5	blank	1.0	536.2451174259186	
72	318.6478672027588	fix_post	2		12	70.0	2.5	blank	1.0	536.3699655532837	0.09994888305664062
73	318.74781608581543	fix_pre	0		120	71.0	2.5	/experiments/Knapen_AOT/AOT_stimuli/rescaled_final/0258_fw.mp4	0.0	536.4699144363403	1.0084953308105469
73	319.756311416626	movie	1		267	71.0	2.5	/experiments/Knapen_AOT/AOT_stimuli/rescaled_final/0258_fw.mp4	0.0	537.4784097671509	2.4920670986175537
73	320.1232542991638	pulse	1	t		71.0	2.5	/experiments/Knapen_AOT/AOT_stimuli/rescaled_final/0258_fw.mp4	0.0	537.8453526496887	
73	321.72403264045715	pulse	1	t		71.0	2.5	/experiments/Knapen_AOT/AOT_stimuli/rescaled_final/0258_fw.mp4	0.0	539.446130990982	
73	322.24837851524353	fix_post	2		12	71.0	2.5	/experiments/Knapen_AOT/AOT_stimuli/rescaled_final/0258_fw.mp4	0.0	539.9704768657684	0.09997987747192383
74	322.34835839271545	fix_pre	0		118	72.0	2.5	/experiments/Knapen_AOT/AOT_stimuli/rescaled_final/0088_rv.mp4	0.0	540.0704567432404	0.991837739944458
74	323.3239417076111	pulse	0	t		72.0	2.5	/experiments/Knapen_AOT/AOT_stimuli/rescaled_final/0088_rv.mp4	0.0	541.046040058136	
74	323.3401961326599	movie	1		262	72.0	2.5	/experiments/Knapen_AOT/AOT_stimuli/rescaled_final/0088_rv.mp4	0.0	541.0622944831848	2.5004003047943115
74	324.922643661499	pulse	1	t		72.0	2.5	/experiments/Knapen_AOT/AOT_stimuli/rescaled_final/0088_rv.mp4	0.0	542.6447420120239	
74	325.8405964374542	fix_post	2		12	72.0	2.5	/experiments/Knapen_AOT/AOT_stimuli/rescaled_final/0088_rv.mp4	0.0	543.5626947879791	0.09998440742492676
75	325.94058084487915	fix_pre	0		120	73.0	2.5	/experiments/Knapen_AOT/AOT_stimuli/rescaled_final/0988_fw.mp4	0.0	543.662679195404	1.008481502532959
75	326.52436208724976	pulse	0	t		73.0	2.5	/experiments/Knapen_AOT/AOT_stimuli/rescaled_final/0988_fw.mp4	0.0	544.2464604377747	
75	326.9490623474121	movie	1		264	73.0	2.5	/experiments/Knapen_AOT/AOT_stimuli/rescaled_final/0988_fw.mp4	0.0	544.671160697937	2.492079257965088
75	328.1226739883423	pulse	1	t		73.0	2.5	/experiments/Knapen_AOT/AOT_stimuli/rescaled_final/0988_fw.mp4	0.0	545.8447723388672	
75	329.4411416053772	fix_post	2		12	73.0	2.5	/experiments/Knapen_AOT/AOT_stimuli/rescaled_final/0988_fw.mp4	0.0	547.1632399559021	0.09999299049377441
76	329.541134595871	fix_pre	0		120	74.0	2.5	/experiments/Knapen_AOT/AOT_stimuli/rescaled_final/1223_rv.mp4	0.0	547.2632329463959	1.0085160732269287
76	329.72466015815735	pulse	0	t		74.0	2.5	/experiments/Knapen_AOT/AOT_stimuli/rescaled_final/1223_rv.mp4	0.0	547.4467585086823	
76	330.5496506690979	movie	1		270	74.0	2.5	/experiments/Knapen_AOT/AOT_stimuli/rescaled_final/1223_rv.mp4	0.0	548.2717490196228	2.4919679164886475
76	331.3227517604828	pulse	1	t		74.0	2.5	/experiments/Knapen_AOT/AOT_stimuli/rescaled_final/1223_rv.mp4	0.0	549.0448501110077	
76	332.923880815506	pulse	1	t		74.0	2.5	/experiments/Knapen_AOT/AOT_stimuli/rescaled_final/1223_rv.mp4	0.0	550.6459791660309	
76	333.04161858558655	fix_post	2		12	74.0	2.5	/experiments/Knapen_AOT/AOT_stimuli/rescaled_final/1223_rv.mp4	0.0	550.7637169361115	0.10006546974182129
77	333.14168405532837	fix_pre	0		120	75.0	2.5	/experiments/Knapen_AOT/AOT_stimuli/rescaled_final/2001_fw.mp4	0.0	550.8637824058533	1.008470058441162
77	334.15015411376953	movie	1		275	75.0	2.5	/experiments/Knapen_AOT/AOT_stimuli/rescaled_final/2001_fw.mp4	0.0	551.8722524642944	2.492122173309326
77	334.5235688686371	pulse	1	t		75.0	2.5	/experiments/Knapen_AOT/AOT_stimuli/rescaled_final/2001_fw.mp4	0.0	552.245667219162	
77	336.1235852241516	pulse	1	t		75.0	2.5	/experiments/Knapen_AOT/AOT_stimuli/rescaled_final/2001_fw.mp4	0.0	553.8456835746765	
77	336.64227628707886	fix_post	2		12	75.0	2.5	/experiments/Knapen_AOT/AOT_stimuli/rescaled_final/2001_fw.mp4	0.0	554.3643746376038	0.09993791580200195
78	336.74221420288086	fix_pre	0		119	76.0	2.5	blank	1.0	554.4643125534058	0.9918355941772461
78	337.72598123550415	pulse	0	t		76.0	2.5	blank	1.0	555.448079586029	
78	337.7340497970581	movie	1		301	76.0	2.5	blank	1.0	555.456148147583	2.5086638927459717
78	339.3261172771454	pulse	1	t		76.0	2.5	blank	1.0	557.0482156276703	
78	340.2427136898041	fix_post	2		12	76.0	2.5	blank	1.0	557.964812040329	0.1000680923461914
79	340.34278178215027	fix_pre	0		120	77.0	2.5	/experiments/Knapen_AOT/AOT_stimuli/rescaled_final/0337_rv.mp4	0.0	558.0648801326752	1.0084729194641113
79	340.926433801651	pulse	0	t		77.0	2.5	/experiments/Knapen_AOT/AOT_stimuli/rescaled_final/0337_rv.mp4	0.0	558.6485321521759	
79	341.3512547016144	movie	1		281	77.0	2.5	/experiments/Knapen_AOT/AOT_stimuli/rescaled_final/0337_rv.mp4	0.0	559.0733530521393	2.4919958114624023
79	342.52515053749084	pulse	1	t		77.0	2.5	/experiments/Knapen_AOT/AOT_stimuli/rescaled_final/0337_rv.mp4	0.0	560.2472488880157	
79	343.8432505130768	fix_post	2		12	77.0	2.5	/experiments/Knapen_AOT/AOT_stimuli/rescaled_final/0337_rv.mp4	0.0	561.5653488636017	0.10006999969482422
80	343.9433205127716	fix_pre	0		119	78.0	2.5	/experiments/Knapen_AOT/AOT_stimuli/rescaled_final/1051_rv.mp4	0.0	561.6654188632965	1.008460521697998
80	344.12726497650146	pulse	0	t		78.0	2.5	/experiments/Knapen_AOT/AOT_stimuli/rescaled_final/1051_rv.mp4	0.0	561.8493633270264	
80	344.9517810344696	movie	1		272	78.0	2.5	/experiments/Knapen_AOT/AOT_stimuli/rescaled_final/1051_rv.mp4	0.0	562.6738793849945	2.492060899734497
80	345.72501945495605	pulse	1	t		78.0	2.5	/experiments/Knapen_AOT/AOT_stimuli/rescaled_final/1051_rv.mp4	0.0	563.447117805481	
80	347.32596230506897	pulse	1	t		78.0	2.5	/experiments/Knapen_AOT/AOT_stimuli/rescaled_final/1051_rv.mp4	0.0	565.0480606555939	
80	347.4438419342041	fix_post	2		12	78.0	2.5	/experiments/Knapen_AOT/AOT_stimuli/rescaled_final/1051_rv.mp4	0.0	565.165940284729	0.09993934631347656
81	347.5437812805176	fix_pre	0		120	79.0	2.5	/experiments/Knapen_AOT/AOT_stimuli/rescaled_final/1455_rv.mp4	0.0	565.2658796310425	1.0085232257843018
81	348.5523045063019	movie	1		257	79.0	2.5	/experiments/Knapen_AOT/AOT_stimuli/rescaled_final/1455_rv.mp4	0.0	566.2744028568268	2.492030620574951
81	348.9265706539154	pulse	1	t		79.0	2.5	/experiments/Knapen_AOT/AOT_stimuli/rescaled_final/1455_rv.mp4	0.0	566.6486690044403	
81	350.52594470977783	pulse	1	t		79.0	2.5	/experiments/Knapen_AOT/AOT_stimuli/rescaled_final/1455_rv.mp4	0.0	568.2480430603027	
81	351.04433512687683	fix_post	2		11	79.0	2.5	/experiments/Knapen_AOT/AOT_stimuli/rescaled_final/1455_rv.mp4	0.0	568.7664334774017	0.10002517700195312
82	351.1443603038788	fix_pre	0		119	80.0	2.5	/experiments/Knapen_AOT/AOT_stimuli/rescaled_final/1554_fw.mp4	0.0	568.8664586544037	1.0002069473266602
82	352.1281170845032	pulse	0	t		80.0	2.5	/experiments/Knapen_AOT/AOT_stimuli/rescaled_final/1554_fw.mp4	0.0	569.8502154350281	
82	352.14456725120544	movie	1		270	80.0	2.5	/experiments/Knapen_AOT/AOT_stimuli/rescaled_final/1554_fw.mp4	0.0	569.8666656017303	2.500373363494873
82	353.72741055488586	pulse	1	t		80.0	2.5	/experiments/Knapen_AOT/AOT_stimuli/rescaled_final/1554_fw.mp4	0.0	571.4495089054108	
82	354.6449406147003	fix_post	2		12	80.0	2.5	/experiments/Knapen_AOT/AOT_stimuli/rescaled_final/1554_fw.mp4	0.0	572.3670389652252	0.09999895095825195
83	354.74493956565857	fix_pre	0		120	81.0	2.5	/experiments/Knapen_AOT/AOT_stimuli/rescaled_final/0101_fw.mp4	0.0	572.4670379161835	1.0084376335144043
83	355.3285450935364	pulse	0	t		81.0	2.5	/experiments/Knapen_AOT/AOT_stimuli/rescaled_final/0101_fw.mp4	0.0	573.0506434440613	
83	355.753377199173	movie	1		264	81.0	2.5	/experiments/Knapen_AOT/AOT_stimuli/rescaled_final/0101_fw.mp4	0.0	573.4754755496979	2.4920847415924072
83	356.92763471603394	pulse	1	t		81.0	2.5	/experiments/Knapen_AOT/AOT_stimuli/rescaled_final/0101_fw.mp4	0.0	574.6497330665588	
83	358.2454619407654	fix_post	2		12	81.0	2.5	/experiments/Knapen_AOT/AOT_stimuli/rescaled_final/0101_fw.mp4	0.0	575.9675602912903	0.09997296333312988
84	358.3454349040985	fix_pre	0		120	82.0	2.5	/experiments/Knapen_AOT/AOT_stimuli/rescaled_final/0536_fw.mp4	0.0	576.0675332546234	1.0085217952728271
84	358.52302265167236	pulse	0	t		82.0	2.5	/experiments/Knapen_AOT/AOT_stimuli/rescaled_final/0536_fw.mp4	0.0	576.2451210021973	
84	359.35395669937134	movie	1		249	82.0	2.5	/experiments/Knapen_AOT/AOT_stimuli/rescaled_final/0536_fw.mp4	0.0	577.0760550498962	2.4920003414154053
84	360.1272621154785	pulse	1	t		82.0	2.5	/experiments/Knapen_AOT/AOT_stimuli/rescaled_final/0536_fw.mp4	0.0	577.8493604660034	
84	361.7277569770813	pulse	1	t		82.0	2.5	/experiments/Knapen_AOT/AOT_stimuli/rescaled_final/0536_fw.mp4	0.0	579.4498553276062	
84	361.84595704078674	fix_post	2		12	82.0	2.5	/experiments/Knapen_AOT/AOT_stimuli/rescaled_final/0536_fw.mp4	0.0	579.5680553913116	0.10001707077026367
85	361.945974111557	fix_pre	0		120	83.0	2.5	blank	1.0	579.6680724620819	1.0001325607299805
85	362.946106672287	movie	1		300	83.0	2.5	blank	1.0	580.6682050228119	2.500396728515625
85	363.3218107223511	pulse	1	t		83.0	2.5	blank	1.0	581.043909072876	
85	364.9218635559082	pulse	1	t		83.0	2.5	blank	1.0	582.6439619064331	
85	365.4465034008026	fix_post	2		12	83.0	2.5	blank	1.0	583.1686017513275	0.12505197525024414
87	365.57155537605286	stim	0		1713					583.2936537265778	14.27711033821106
87	366.52191162109375	pulse	0	t						584.2440099716187	
87	368.1223130226135	pulse	0	t						585.8444113731384	
87	369.7224040031433	pulse	0	t						587.4445023536682	
87	371.32259941101074	pulse	0	t						589.0446977615356	
87	372.92290711402893	pulse	0	t						590.6450054645538	
87	374.5231890678406	pulse	0	t						592.2452874183655	
87	376.123389005661	pulse	0	t						593.8454873561859	
87	377.7236313819885	pulse	0	t						595.4457297325134	
87	379.32377099990845	pulse	0	t						597.0458693504333	
