trial_nr	onset	event_type	phase	response	nr_frames	movie_index	movie_duration	movie_file	blank	onset_abs	duration
0	0.13305974006652832	stim	0		20					15.943623781204224	0.1667637825012207
0	0.2917752265930176	response	0	space						16.102339267730713	
1	0.299823522567749	stim	0		4660					16.110387563705444	38.84935188293457
1	39.139204263687134	pulse	0	t						54.94976830482483	
1	39.14917540550232	stim	1		1715					54.959739446640015	14.300227403640747
1	40.73103094100952	pulse	1	t						56.54159498214722	
1	42.331233501434326	pulse	1	t						58.14179754257202	
1	43.9315550327301	pulse	1	t						59.7421190738678	
1	45.53168606758118	pulse	1	t						61.34225010871887	
1	47.13189768791199	pulse	1	t						62.94246172904968	
1	48.73222088813782	pulse	1	t						64.54278492927551	
1	50.33246397972107	pulse	1	t						66.14302802085876	
1	51.93271517753601	pulse	1	t						67.7432792186737	
2	53.449402809143066	fix_pre	0		11	0.0	2.5	/experiments/knapen_AOT/AOT_stimuli/rescaled_final/0248_rv.mp4	0.0	69.25996685028076	0.11685037612915039
2	53.53315544128418	pulse	0	t		0.0	2.5	/experiments/knapen_AOT/AOT_stimuli/rescaled_final/0248_rv.mp4	0.0	69.34371948242188	
2	53.56625318527222	movie	1		291	0.0	2.5	/experiments/knapen_AOT/AOT_stimuli/rescaled_final/0248_rv.mp4	0.0	69.37681722640991	2.483569622039795
2	55.13156080245972	pulse	1	t		0.0	2.5	/experiments/knapen_AOT/AOT_stimuli/rescaled_final/0248_rv.mp4	0.0	70.94212484359741	
2	56.04982280731201	fix_post	2		12	0.0	2.5	/experiments/knapen_AOT/AOT_stimuli/rescaled_final/0248_rv.mp4	0.0	71.8603868484497	0.09994196891784668
3	56.14976477622986	fix_pre	0		120	1.0	2.5	/experiments/knapen_AOT/AOT_stimuli/rescaled_final/2079_fw.mp4	0.0	71.96032881736755	1.0085391998291016
3	56.73336863517761	pulse	0	t		1.0	2.5	/experiments/knapen_AOT/AOT_stimuli/rescaled_final/2079_fw.mp4	0.0	72.54393267631531	
3	57.15830397605896	movie	1		291	1.0	2.5	/experiments/knapen_AOT/AOT_stimuli/rescaled_final/2079_fw.mp4	0.0	72.96886801719666	2.4920482635498047
3	58.33145546913147	pulse	1	t		1.0	2.5	/experiments/knapen_AOT/AOT_stimuli/rescaled_final/2079_fw.mp4	0.0	74.14201951026917	
3	59.650352239608765	fix_post	2		12	1.0	2.5	/experiments/knapen_AOT/AOT_stimuli/rescaled_final/2079_fw.mp4	0.0	75.46091628074646	0.09996247291564941
4	59.750314712524414	fix_pre	0		120	2.0	2.5	/experiments/knapen_AOT/AOT_stimuli/rescaled_final/1052_rv.mp4	0.0	75.56087875366211	1.008551836013794
4	59.93388485908508	pulse	0	t		2.0	2.5	/experiments/knapen_AOT/AOT_stimuli/rescaled_final/1052_rv.mp4	0.0	75.74444890022278	
4	60.75886654853821	movie	1		288	2.0	2.5	/experiments/knapen_AOT/AOT_stimuli/rescaled_final/1052_rv.mp4	0.0	76.5694305896759	2.492020845413208
4	61.53177547454834	pulse	1	t		2.0	2.5	/experiments/knapen_AOT/AOT_stimuli/rescaled_final/1052_rv.mp4	0.0	77.34233951568604	
4	63.13234829902649	pulse	1	t		2.0	2.5	/experiments/knapen_AOT/AOT_stimuli/rescaled_final/1052_rv.mp4	0.0	78.94291234016418	
4	63.250887393951416	fix_post	2		12	2.0	2.5	/experiments/knapen_AOT/AOT_stimuli/rescaled_final/1052_rv.mp4	0.0	79.06145143508911	0.09999275207519531
5	63.35088014602661	fix_pre	0		120	3.0	2.5	/experiments/knapen_AOT/AOT_stimuli/rescaled_final/0419_rv.mp4	0.0	79.1614441871643	1.0084738731384277
5	64.35935401916504	movie	1		278	3.0	2.5	/experiments/knapen_AOT/AOT_stimuli/rescaled_final/0419_rv.mp4	0.0	80.16991806030273	2.49204683303833
5	64.73484921455383	pulse	1	t		3.0	2.5	/experiments/knapen_AOT/AOT_stimuli/rescaled_final/0419_rv.mp4	0.0	80.54541325569153	
5	66.33298826217651	pulse	1	t		3.0	2.5	/experiments/knapen_AOT/AOT_stimuli/rescaled_final/0419_rv.mp4	0.0	82.14355230331421	
5	66.85140085220337	fix_post	2		12	3.0	2.5	/experiments/knapen_AOT/AOT_stimuli/rescaled_final/0419_rv.mp4	0.0	82.66196489334106	0.09999346733093262
6	66.9513943195343	fix_pre	0		119	4.0	2.5	/experiments/knapen_AOT/AOT_stimuli/rescaled_final/0513_fw.mp4	0.0	82.761958360672	1.0001912117004395
6	67.93517184257507	pulse	0	t		4.0	2.5	/experiments/knapen_AOT/AOT_stimuli/rescaled_final/0513_fw.mp4	0.0	83.74573588371277	
6	67.95158553123474	movie	1		287	4.0	2.5	/experiments/knapen_AOT/AOT_stimuli/rescaled_final/0513_fw.mp4	0.0	83.76214957237244	2.500387668609619
6	69.5333559513092	pulse	1	t		4.0	2.5	/experiments/knapen_AOT/AOT_stimuli/rescaled_final/0513_fw.mp4	0.0	85.3439199924469	
6	70.45197319984436	fix_post	2		12	4.0	2.5	/experiments/knapen_AOT/AOT_stimuli/rescaled_final/0513_fw.mp4	0.0	86.26253724098206	0.10002017021179199
7	70.55199337005615	fix_pre	0		120	5.0	2.5	/experiments/knapen_AOT/AOT_stimuli/rescaled_final/1377_fw.mp4	0.0	86.36255741119385	1.0084717273712158
7	71.1356041431427	pulse	0	t		5.0	2.5	/experiments/knapen_AOT/AOT_stimuli/rescaled_final/1377_fw.mp4	0.0	86.9461681842804	
7	71.56046509742737	movie	1		284	5.0	2.5	/experiments/knapen_AOT/AOT_stimuli/rescaled_final/1377_fw.mp4	0.0	87.37102913856506	2.491997003555298
7	72.73409390449524	pulse	1	t		5.0	2.5	/experiments/knapen_AOT/AOT_stimuli/rescaled_final/1377_fw.mp4	0.0	88.54465794563293	
7	74.05246210098267	fix_post	2		12	5.0	2.5	/experiments/knapen_AOT/AOT_stimuli/rescaled_final/1377_fw.mp4	0.0	89.86302614212036	0.1000213623046875
8	74.15248346328735	fix_pre	0		120	6.0	2.5	blank	1.0	89.96304750442505	1.000135898590088
8	74.33635783195496	pulse	0	t		6.0	2.5	blank	1.0	90.14692187309265	
8	75.15261936187744	movie	1		300	6.0	2.5	blank	1.0	90.96318340301514	2.5004444122314453
8	75.9362268447876	pulse	1	t		6.0	2.5	blank	1.0	91.7467908859253	
8	77.52938103675842	pulse	1	t		6.0	2.5	blank	1.0	93.33994507789612	
8	77.65306377410889	fix_post	2		12	6.0	2.5	blank	1.0	93.46362781524658	0.10001969337463379
9	77.75308346748352	fix_pre	0		120	7.0	2.5	/experiments/knapen_AOT/AOT_stimuli/rescaled_final/1994_fw.mp4	0.0	93.56364750862122	1.0084586143493652
9	78.76154208183289	movie	1		279	7.0	2.5	/experiments/knapen_AOT/AOT_stimuli/rescaled_final/1994_fw.mp4	0.0	94.57210612297058	2.4920029640197754
9	79.13610577583313	pulse	1	t		7.0	2.5	/experiments/knapen_AOT/AOT_stimuli/rescaled_final/1994_fw.mp4	0.0	94.94666981697083	
9	80.72907423973083	pulse	1	t		7.0	2.5	/experiments/knapen_AOT/AOT_stimuli/rescaled_final/1994_fw.mp4	0.0	96.53963828086853	
9	81.25354504585266	fix_post	2		12	7.0	2.5	/experiments/knapen_AOT/AOT_stimuli/rescaled_final/1994_fw.mp4	0.0	97.06410908699036	0.10001826286315918
10	81.35356330871582	fix_pre	0		118	8.0	2.5	/experiments/knapen_AOT/AOT_stimuli/rescaled_final/0357_rv.mp4	0.0	97.16412734985352	0.9918076992034912
10	82.32946920394897	pulse	0	t		8.0	2.5	/experiments/knapen_AOT/AOT_stimuli/rescaled_final/0357_rv.mp4	0.0	98.14003324508667	
10	82.34537100791931	movie	1		284	8.0	2.5	/experiments/knapen_AOT/AOT_stimuli/rescaled_final/0357_rv.mp4	0.0	98.155935049057	2.500359296798706
10	83.92925024032593	pulse	1	t		8.0	2.5	/experiments/knapen_AOT/AOT_stimuli/rescaled_final/0357_rv.mp4	0.0	99.73981428146362	
10	84.84573030471802	fix_post	2		12	8.0	2.5	/experiments/knapen_AOT/AOT_stimuli/rescaled_final/0357_rv.mp4	0.0	100.65629434585571	0.10002946853637695
11	84.9457597732544	fix_pre	0		120	9.0	2.5	/experiments/knapen_AOT/AOT_stimuli/rescaled_final/0033_fw.mp4	0.0	100.75632381439209	1.0085537433624268
11	85.5294451713562	pulse	0	t		9.0	2.5	/experiments/knapen_AOT/AOT_stimuli/rescaled_final/0033_fw.mp4	0.0	101.3400092124939	
11	85.95431351661682	movie	1		278	9.0	2.5	/experiments/knapen_AOT/AOT_stimuli/rescaled_final/0033_fw.mp4	0.0	101.76487755775452	2.4919536113739014
11	87.1294538974762	pulse	1	t		9.0	2.5	/experiments/knapen_AOT/AOT_stimuli/rescaled_final/0033_fw.mp4	0.0	102.94001793861389	
11	88.44626712799072	fix_post	2		12	9.0	2.5	/experiments/knapen_AOT/AOT_stimuli/rescaled_final/0033_fw.mp4	0.0	104.25683116912842	0.10002851486206055
12	88.54629564285278	fix_pre	0		120	10.0	2.5	/experiments/knapen_AOT/AOT_stimuli/rescaled_final/0315_fw.mp4	0.0	104.35685968399048	1.0085606575012207
12	88.72991943359375	pulse	0	t		10.0	2.5	/experiments/knapen_AOT/AOT_stimuli/rescaled_final/0315_fw.mp4	0.0	104.54048347473145	
12	89.554856300354	movie	1		283	10.0	2.5	/experiments/knapen_AOT/AOT_stimuli/rescaled_final/0315_fw.mp4	0.0	105.3654203414917	2.4920365810394287
12	90.3301248550415	pulse	1	t		10.0	2.5	/experiments/knapen_AOT/AOT_stimuli/rescaled_final/0315_fw.mp4	0.0	106.1406888961792	
12	91.9303674697876	pulse	1	t		10.0	2.5	/experiments/knapen_AOT/AOT_stimuli/rescaled_final/0315_fw.mp4	0.0	107.7409315109253	
12	92.04689288139343	fix_post	2		12	10.0	2.5	/experiments/knapen_AOT/AOT_stimuli/rescaled_final/0315_fw.mp4	0.0	107.85745692253113	0.09994888305664062
13	92.14684176445007	fix_pre	0		120	11.0	2.5	/experiments/knapen_AOT/AOT_stimuli/rescaled_final/1304_rv.mp4	0.0	107.95740580558777	1.0085349082946777
13	93.15537667274475	movie	1		274	11.0	2.5	/experiments/knapen_AOT/AOT_stimuli/rescaled_final/1304_rv.mp4	0.0	108.96594071388245	2.491992950439453
13	93.53044748306274	pulse	1	t		11.0	2.5	/experiments/knapen_AOT/AOT_stimuli/rescaled_final/1304_rv.mp4	0.0	109.34101152420044	
13	95.13083839416504	pulse	1	t		11.0	2.5	/experiments/knapen_AOT/AOT_stimuli/rescaled_final/1304_rv.mp4	0.0	110.94140243530273	
13	95.6473696231842	fix_post	2		12	11.0	2.5	/experiments/knapen_AOT/AOT_stimuli/rescaled_final/1304_rv.mp4	0.0	111.4579336643219	0.10003018379211426
14	95.74739980697632	fix_pre	0		119	12.0	2.5	/experiments/knapen_AOT/AOT_stimuli/rescaled_final/1651_fw.mp4	0.0	111.55796384811401	1.0001800060272217
14	96.7311098575592	pulse	0	t		12.0	2.5	/experiments/knapen_AOT/AOT_stimuli/rescaled_final/1651_fw.mp4	0.0	112.5416738986969	
14	96.74757981300354	movie	1		275	12.0	2.5	/experiments/knapen_AOT/AOT_stimuli/rescaled_final/1651_fw.mp4	0.0	112.55814385414124	2.5003292560577393
14	98.33148074150085	pulse	1	t		12.0	2.5	/experiments/knapen_AOT/AOT_stimuli/rescaled_final/1651_fw.mp4	0.0	114.14204478263855	
14	99.24790906906128	fix_post	2		12	12.0	2.5	/experiments/knapen_AOT/AOT_stimuli/rescaled_final/1651_fw.mp4	0.0	115.05847311019897	0.10002446174621582
15	99.3479335308075	fix_pre	0		120	13.0	2.5	/experiments/knapen_AOT/AOT_stimuli/rescaled_final/0215_rv.mp4	0.0	115.15849757194519	1.0085043907165527
15	99.93184041976929	pulse	0	t		13.0	2.5	/experiments/knapen_AOT/AOT_stimuli/rescaled_final/0215_rv.mp4	0.0	115.74240446090698	
15	100.35643792152405	movie	1		282	13.0	2.5	/experiments/knapen_AOT/AOT_stimuli/rescaled_final/0215_rv.mp4	0.0	116.16700196266174	2.492035150527954
15	101.53079462051392	pulse	1	t		13.0	2.5	/experiments/knapen_AOT/AOT_stimuli/rescaled_final/0215_rv.mp4	0.0	117.34135866165161	
15	102.848473072052	fix_post	2		12	13.0	2.5	/experiments/knapen_AOT/AOT_stimuli/rescaled_final/0215_rv.mp4	0.0	118.6590371131897	0.10001635551452637
16	102.94848942756653	fix_pre	0		120	14.0	2.5	blank	1.0	118.75905346870422	1.000117301940918
16	103.1320550441742	pulse	0	t		14.0	2.5	blank	1.0	118.94261908531189	
16	103.94860672950745	movie	1		300	14.0	2.5	blank	1.0	119.75917077064514	2.5003817081451416
16	104.73226046562195	pulse	1	t		14.0	2.5	blank	1.0	120.54282450675964	
16	106.332524061203	pulse	1	t		14.0	2.5	blank	1.0	122.1430881023407	
16	106.44898843765259	fix_post	2		12	14.0	2.5	blank	1.0	122.25955247879028	0.1000206470489502
17	106.54900908470154	fix_pre	0		120	15.0	2.5	/experiments/knapen_AOT/AOT_stimuli/rescaled_final/1753_fw.mp4	0.0	122.35957312583923	1.008575201034546
17	107.55758428573608	movie	1		283	15.0	2.5	/experiments/knapen_AOT/AOT_stimuli/rescaled_final/1753_fw.mp4	0.0	123.36814832687378	2.4919519424438477
17	107.9316234588623	pulse	1	t		15.0	2.5	/experiments/knapen_AOT/AOT_stimuli/rescaled_final/1753_fw.mp4	0.0	123.7421875	
17	109.53384232521057	pulse	1	t		15.0	2.5	/experiments/knapen_AOT/AOT_stimuli/rescaled_final/1753_fw.mp4	0.0	125.34440636634827	
17	110.04953622817993	fix_post	2		12	15.0	2.5	/experiments/knapen_AOT/AOT_stimuli/rescaled_final/1753_fw.mp4	0.0	125.86010026931763	0.10002493858337402
18	110.1495611667633	fix_pre	0		119	16.0	2.5	/experiments/knapen_AOT/AOT_stimuli/rescaled_final/1343_fw.mp4	0.0	125.960125207901	1.0001566410064697
18	111.13323259353638	pulse	0	t		16.0	2.5	/experiments/knapen_AOT/AOT_stimuli/rescaled_final/1343_fw.mp4	0.0	126.94379663467407	
18	111.14971780776978	movie	1		285	16.0	2.5	/experiments/knapen_AOT/AOT_stimuli/rescaled_final/1343_fw.mp4	0.0	126.96028184890747	2.500396728515625
18	112.73161149024963	pulse	1	t		16.0	2.5	/experiments/knapen_AOT/AOT_stimuli/rescaled_final/1343_fw.mp4	0.0	128.54217553138733	
18	113.6501145362854	fix_post	2		12	16.0	2.5	/experiments/knapen_AOT/AOT_stimuli/rescaled_final/1343_fw.mp4	0.0	129.4606785774231	0.09996914863586426
19	113.75008368492126	fix_pre	0		120	17.0	2.5	/experiments/knapen_AOT/AOT_stimuli/rescaled_final/0101_rv.mp4	0.0	129.56064772605896	1.0085704326629639
19	114.33391261100769	pulse	0	t		17.0	2.5	/experiments/knapen_AOT/AOT_stimuli/rescaled_final/0101_rv.mp4	0.0	130.14447665214539	
19	114.75865411758423	movie	1		275	17.0	2.5	/experiments/knapen_AOT/AOT_stimuli/rescaled_final/0101_rv.mp4	0.0	130.56921815872192	2.491961717605591
19	115.93421292304993	pulse	1	t		17.0	2.5	/experiments/knapen_AOT/AOT_stimuli/rescaled_final/0101_rv.mp4	0.0	131.74477696418762	
19	117.25061583518982	fix_post	2		12	17.0	2.5	/experiments/knapen_AOT/AOT_stimuli/rescaled_final/0101_rv.mp4	0.0	133.06117987632751	0.1000220775604248
20	117.35063791275024	fix_pre	0		120	18.0	2.5	/experiments/knapen_AOT/AOT_stimuli/rescaled_final/1965_rv.mp4	0.0	133.16120195388794	1.0085058212280273
20	117.53425002098083	pulse	0	t		18.0	2.5	/experiments/knapen_AOT/AOT_stimuli/rescaled_final/1965_rv.mp4	0.0	133.34481406211853	
20	118.35914373397827	movie	1		274	18.0	2.5	/experiments/knapen_AOT/AOT_stimuli/rescaled_final/1965_rv.mp4	0.0	134.16970777511597	2.4920125007629395
20	119.13297820091248	pulse	1	t		18.0	2.5	/experiments/knapen_AOT/AOT_stimuli/rescaled_final/1965_rv.mp4	0.0	134.94354224205017	
20	120.73422527313232	pulse	1	t		18.0	2.5	/experiments/knapen_AOT/AOT_stimuli/rescaled_final/1965_rv.mp4	0.0	136.54478931427002	
20	120.85115623474121	fix_post	2		12	18.0	2.5	/experiments/knapen_AOT/AOT_stimuli/rescaled_final/1965_rv.mp4	0.0	136.6617202758789	0.10004377365112305
21	120.95120000839233	fix_pre	0		120	19.0	2.5	blank	1.0	136.76176404953003	1.0001609325408936
21	121.95136094093323	movie	1		300	19.0	2.5	blank	1.0	137.76192498207092	2.500337600708008
21	122.33491086959839	pulse	1	t		19.0	2.5	blank	1.0	138.14547491073608	
21	123.93521356582642	pulse	1	t		19.0	2.5	blank	1.0	139.7457776069641	
21	124.45169854164124	fix_post	2		12	19.0	2.5	blank	1.0	140.26226258277893	0.10003423690795898
22	124.5517327785492	fix_pre	0		119	20.0	2.5	/experiments/knapen_AOT/AOT_stimuli/rescaled_final/1083_rv.mp4	0.0	140.3622968196869	1.000115156173706
22	125.53541421890259	pulse	0	t		20.0	2.5	/experiments/knapen_AOT/AOT_stimuli/rescaled_final/1083_rv.mp4	0.0	141.34597826004028	
22	125.5518479347229	movie	1		269	20.0	2.5	/experiments/knapen_AOT/AOT_stimuli/rescaled_final/1083_rv.mp4	0.0	141.3624119758606	2.5003793239593506
22	127.13479661941528	pulse	1	t		20.0	2.5	/experiments/knapen_AOT/AOT_stimuli/rescaled_final/1083_rv.mp4	0.0	142.94536066055298	
22	128.05222725868225	fix_post	2		12	20.0	2.5	/experiments/knapen_AOT/AOT_stimuli/rescaled_final/1083_rv.mp4	0.0	143.86279129981995	0.1000370979309082
23	128.15226435661316	fix_pre	0		120	21.0	2.5	/experiments/knapen_AOT/AOT_stimuli/rescaled_final/2024_fw.mp4	0.0	143.96282839775085	1.008504867553711
23	128.73585629463196	pulse	0	t		21.0	2.5	/experiments/knapen_AOT/AOT_stimuli/rescaled_final/2024_fw.mp4	0.0	144.54642033576965	
23	129.16076922416687	movie	1		275	21.0	2.5	/experiments/knapen_AOT/AOT_stimuli/rescaled_final/2024_fw.mp4	0.0	144.97133326530457	2.4920215606689453
23	130.33638620376587	pulse	1	t		21.0	2.5	/experiments/knapen_AOT/AOT_stimuli/rescaled_final/2024_fw.mp4	0.0	146.14695024490356	
23	131.65279078483582	fix_post	2		12	21.0	2.5	/experiments/knapen_AOT/AOT_stimuli/rescaled_final/2024_fw.mp4	0.0	147.4633548259735	0.10001587867736816
24	131.75280666351318	fix_pre	0		120	22.0	2.5	/experiments/knapen_AOT/AOT_stimuli/rescaled_final/0131_fw.mp4	0.0	147.56337070465088	1.008533000946045
24	131.92855024337769	pulse	0	t		22.0	2.5	/experiments/knapen_AOT/AOT_stimuli/rescaled_final/0131_fw.mp4	0.0	147.73911428451538	
24	132.76133966445923	movie	1		271	22.0	2.5	/experiments/knapen_AOT/AOT_stimuli/rescaled_final/0131_fw.mp4	0.0	148.57190370559692	2.491983652114868
24	133.528461933136	pulse	1	t		22.0	2.5	/experiments/knapen_AOT/AOT_stimuli/rescaled_final/0131_fw.mp4	0.0	149.33902597427368	
24	135.12852263450623	pulse	1	t		22.0	2.5	/experiments/knapen_AOT/AOT_stimuli/rescaled_final/0131_fw.mp4	0.0	150.93908667564392	
24	135.2533233165741	fix_post	2		12	22.0	2.5	/experiments/knapen_AOT/AOT_stimuli/rescaled_final/0131_fw.mp4	0.0	151.0638873577118	0.10004353523254395
25	135.35336685180664	fix_pre	0		120	23.0	2.5	/experiments/knapen_AOT/AOT_stimuli/rescaled_final/0243_fw.mp4	0.0	151.16393089294434	1.0084774494171143
25	136.36184430122375	movie	1		267	23.0	2.5	/experiments/knapen_AOT/AOT_stimuli/rescaled_final/0243_fw.mp4	0.0	152.17240834236145	2.4920167922973633
25	136.7288007736206	pulse	1	t		23.0	2.5	/experiments/knapen_AOT/AOT_stimuli/rescaled_final/0243_fw.mp4	0.0	152.5393648147583	
25	138.3290135860443	pulse	1	t		23.0	2.5	/experiments/knapen_AOT/AOT_stimuli/rescaled_final/0243_fw.mp4	0.0	154.139577627182	
25	138.85386109352112	fix_post	2		12	23.0	2.5	/experiments/knapen_AOT/AOT_stimuli/rescaled_final/0243_fw.mp4	0.0	154.6644251346588	0.10004973411560059
26	138.95391082763672	fix_pre	0		118	24.0	2.5	/experiments/knapen_AOT/AOT_stimuli/rescaled_final/1842_fw.mp4	0.0	154.7644748687744	0.9917831420898438
26	139.92925477027893	pulse	0	t		24.0	2.5	/experiments/knapen_AOT/AOT_stimuli/rescaled_final/1842_fw.mp4	0.0	155.73981881141663	
26	139.94569396972656	movie	1		283	24.0	2.5	/experiments/knapen_AOT/AOT_stimuli/rescaled_final/1842_fw.mp4	0.0	155.75625801086426	2.500380277633667
26	141.53030824661255	pulse	1	t		24.0	2.5	/experiments/knapen_AOT/AOT_stimuli/rescaled_final/1842_fw.mp4	0.0	157.34087228775024	
26	142.44607424736023	fix_post	2		12	24.0	2.5	/experiments/knapen_AOT/AOT_stimuli/rescaled_final/1842_fw.mp4	0.0	158.25663828849792	0.10006022453308105
27	142.5461344718933	fix_pre	0		120	25.0	2.5	/experiments/knapen_AOT/AOT_stimuli/rescaled_final/1590_rv.mp4	0.0	158.356698513031	1.0086030960083008
27	143.12975144386292	pulse	0	t		25.0	2.5	/experiments/knapen_AOT/AOT_stimuli/rescaled_final/1590_rv.mp4	0.0	158.9403154850006	
27	143.5547375679016	movie	1		276	25.0	2.5	/experiments/knapen_AOT/AOT_stimuli/rescaled_final/1590_rv.mp4	0.0	159.3653016090393	2.4918649196624756
27	144.72852683067322	pulse	1	t		25.0	2.5	/experiments/knapen_AOT/AOT_stimuli/rescaled_final/1590_rv.mp4	0.0	160.5390908718109	
27	146.0466024875641	fix_post	2		12	25.0	2.5	/experiments/knapen_AOT/AOT_stimuli/rescaled_final/1590_rv.mp4	0.0	161.85716652870178	0.10001635551452637
28	146.1466188430786	fix_pre	0		120	26.0	2.5	blank	1.0	161.9571828842163	1.0001440048217773
28	146.3302001953125	pulse	0	t		26.0	2.5	blank	1.0	162.1407642364502	
28	147.1467628479004	movie	1		300	26.0	2.5	blank	1.0	162.9573268890381	2.5003693103790283
28	147.93050456047058	pulse	1	t		26.0	2.5	blank	1.0	163.74106860160828	
28	149.53072333335876	pulse	1	t		26.0	2.5	blank	1.0	165.34128737449646	
28	149.64713215827942	fix_post	2		12	26.0	2.5	blank	1.0	165.45769619941711	0.10001993179321289
29	149.74715209007263	fix_pre	0		120	27.0	2.5	/experiments/knapen_AOT/AOT_stimuli/rescaled_final/0794_fw.mp4	0.0	165.55771613121033	1.00848388671875
29	150.75563597679138	movie	1		275	27.0	2.5	/experiments/knapen_AOT/AOT_stimuli/rescaled_final/0794_fw.mp4	0.0	166.56620001792908	2.49210262298584
29	151.13173484802246	pulse	1	t		27.0	2.5	/experiments/knapen_AOT/AOT_stimuli/rescaled_final/0794_fw.mp4	0.0	166.94229888916016	
29	152.72877669334412	pulse	1	t		27.0	2.5	/experiments/knapen_AOT/AOT_stimuli/rescaled_final/0794_fw.mp4	0.0	168.5393407344818	
29	153.24773859977722	fix_post	2		12	27.0	2.5	/experiments/knapen_AOT/AOT_stimuli/rescaled_final/0794_fw.mp4	0.0	169.05830264091492	0.10006499290466309
30	153.34780359268188	fix_pre	0		119	28.0	2.5	/experiments/knapen_AOT/AOT_stimuli/rescaled_final/2101_fw.mp4	0.0	169.15836763381958	1.000145673751831
30	154.3313422203064	pulse	0	t		28.0	2.5	/experiments/knapen_AOT/AOT_stimuli/rescaled_final/2101_fw.mp4	0.0	170.1419062614441	
30	154.34794926643372	movie	1		280	28.0	2.5	/experiments/knapen_AOT/AOT_stimuli/rescaled_final/2101_fw.mp4	0.0	170.1585133075714	2.5086276531219482
30	155.9299488067627	pulse	1	t		28.0	2.5	/experiments/knapen_AOT/AOT_stimuli/rescaled_final/2101_fw.mp4	0.0	171.7405128479004	
30	156.85657691955566	fix_post	2		11	28.0	2.5	/experiments/knapen_AOT/AOT_stimuli/rescaled_final/2101_fw.mp4	0.0	172.66714096069336	0.09172654151916504
31	156.94830346107483	fix_pre	0		120	29.0	2.5	/experiments/knapen_AOT/AOT_stimuli/rescaled_final/1702_fw.mp4	0.0	172.75886750221252	1.0167944431304932
31	157.5318374633789	pulse	0	t		29.0	2.5	/experiments/knapen_AOT/AOT_stimuli/rescaled_final/1702_fw.mp4	0.0	173.3424015045166	
31	157.96509790420532	movie	1		284	29.0	2.5	/experiments/knapen_AOT/AOT_stimuli/rescaled_final/1702_fw.mp4	0.0	173.77566194534302	2.4836981296539307
31	159.13004088401794	pulse	1	t		29.0	2.5	/experiments/knapen_AOT/AOT_stimuli/rescaled_final/1702_fw.mp4	0.0	174.94060492515564	
31	160.44879603385925	fix_post	2		12	29.0	2.5	/experiments/knapen_AOT/AOT_stimuli/rescaled_final/1702_fw.mp4	0.0	176.25936007499695	0.10000252723693848
32	160.5487985610962	fix_pre	0		120	30.0	2.5	/experiments/knapen_AOT/AOT_stimuli/rescaled_final/0147_rv.mp4	0.0	176.3593626022339	1.0084993839263916
32	160.7323534488678	pulse	0	t		30.0	2.5	/experiments/knapen_AOT/AOT_stimuli/rescaled_final/0147_rv.mp4	0.0	176.5429174900055	
32	161.55729794502258	movie	1		277	30.0	2.5	/experiments/knapen_AOT/AOT_stimuli/rescaled_final/0147_rv.mp4	0.0	177.36786198616028	2.492018699645996
32	162.3306269645691	pulse	1	t		30.0	2.5	/experiments/knapen_AOT/AOT_stimuli/rescaled_final/0147_rv.mp4	0.0	178.1411910057068	
32	163.93065881729126	pulse	1	t		30.0	2.5	/experiments/knapen_AOT/AOT_stimuli/rescaled_final/0147_rv.mp4	0.0	179.74122285842896	
32	164.04931664466858	fix_post	2		12	30.0	2.5	/experiments/knapen_AOT/AOT_stimuli/rescaled_final/0147_rv.mp4	0.0	179.85988068580627	0.10002255439758301
33	164.14933919906616	fix_pre	0		120	31.0	2.5	/experiments/knapen_AOT/AOT_stimuli/rescaled_final/2101_rv.mp4	0.0	179.95990324020386	1.008497714996338
33	165.1578369140625	movie	1		282	31.0	2.5	/experiments/knapen_AOT/AOT_stimuli/rescaled_final/2101_rv.mp4	0.0	180.9684009552002	2.4920806884765625
33	165.53171229362488	pulse	1	t		31.0	2.5	/experiments/knapen_AOT/AOT_stimuli/rescaled_final/2101_rv.mp4	0.0	181.34227633476257	
33	167.13134455680847	pulse	1	t		31.0	2.5	/experiments/knapen_AOT/AOT_stimuli/rescaled_final/2101_rv.mp4	0.0	182.94190859794617	
33	167.64991760253906	fix_post	2		12	31.0	2.5	/experiments/knapen_AOT/AOT_stimuli/rescaled_final/2101_rv.mp4	0.0	183.46048164367676	0.09996747970581055
34	167.74988508224487	fix_pre	0		119	32.0	2.5	/experiments/knapen_AOT/AOT_stimuli/rescaled_final/1005_rv.mp4	0.0	183.56044912338257	1.0001442432403564
34	168.73355841636658	pulse	0	t		32.0	2.5	/experiments/knapen_AOT/AOT_stimuli/rescaled_final/1005_rv.mp4	0.0	184.54412245750427	
34	168.75002932548523	movie	1		281	32.0	2.5	/experiments/knapen_AOT/AOT_stimuli/rescaled_final/1005_rv.mp4	0.0	184.56059336662292	2.5003905296325684
34	170.332989692688	pulse	1	t		32.0	2.5	/experiments/knapen_AOT/AOT_stimuli/rescaled_final/1005_rv.mp4	0.0	186.14355373382568	
34	171.2504198551178	fix_post	2		12	32.0	2.5	/experiments/knapen_AOT/AOT_stimuli/rescaled_final/1005_rv.mp4	0.0	187.0609838962555	0.10000491142272949
35	171.35042476654053	fix_pre	0		120	33.0	2.5	blank	1.0	187.16098880767822	1.0001449584960938
35	171.9340615272522	pulse	0	t		33.0	2.5	blank	1.0	187.7446255683899	
35	172.35056972503662	movie	1		300	33.0	2.5	blank	1.0	188.16113376617432	2.50040602684021
35	173.53428649902344	pulse	1	t		33.0	2.5	blank	1.0	189.34485054016113	
35	174.85097575187683	fix_post	2		12	33.0	2.5	blank	1.0	190.66153979301453	0.10002946853637695
36	174.9510052204132	fix_pre	0		120	34.0	2.5	/experiments/knapen_AOT/AOT_stimuli/rescaled_final/1871_fw.mp4	0.0	190.7615692615509	1.0084600448608398
36	175.13456106185913	pulse	0	t		34.0	2.5	/experiments/knapen_AOT/AOT_stimuli/rescaled_final/1871_fw.mp4	0.0	190.94512510299683	
36	175.95946526527405	movie	1		273	34.0	2.5	/experiments/knapen_AOT/AOT_stimuli/rescaled_final/1871_fw.mp4	0.0	191.77002930641174	2.492117404937744
36	176.7325074672699	pulse	1	t		34.0	2.5	/experiments/knapen_AOT/AOT_stimuli/rescaled_final/1871_fw.mp4	0.0	192.5430715084076	
36	178.33275985717773	pulse	1	t		34.0	2.5	/experiments/knapen_AOT/AOT_stimuli/rescaled_final/1871_fw.mp4	0.0	194.14332389831543	
36	178.4515826702118	fix_post	2		12	34.0	2.5	/experiments/knapen_AOT/AOT_stimuli/rescaled_final/1871_fw.mp4	0.0	194.2621467113495	0.09993481636047363
37	178.55151748657227	fix_pre	0		120	35.0	2.5	/experiments/knapen_AOT/AOT_stimuli/rescaled_final/0031_fw.mp4	0.0	194.36208152770996	1.0085363388061523
37	179.56005382537842	movie	1		273	35.0	2.5	/experiments/knapen_AOT/AOT_stimuli/rescaled_final/0031_fw.mp4	0.0	195.3706178665161	2.4919862747192383
37	179.93472743034363	pulse	1	t		35.0	2.5	/experiments/knapen_AOT/AOT_stimuli/rescaled_final/0031_fw.mp4	0.0	195.74529147148132	
37	181.53310656547546	pulse	1	t		35.0	2.5	/experiments/knapen_AOT/AOT_stimuli/rescaled_final/0031_fw.mp4	0.0	197.34367060661316	
37	182.05204010009766	fix_post	2		12	35.0	2.5	/experiments/knapen_AOT/AOT_stimuli/rescaled_final/0031_fw.mp4	0.0	197.86260414123535	0.10001063346862793
38	182.15205073356628	fix_pre	0		119	36.0	2.5	/experiments/knapen_AOT/AOT_stimuli/rescaled_final/1516_rv.mp4	0.0	197.96261477470398	1.0085151195526123
38	183.13570976257324	pulse	0	t		36.0	2.5	/experiments/knapen_AOT/AOT_stimuli/rescaled_final/1516_rv.mp4	0.0	198.94627380371094	
38	183.1605658531189	movie	1		286	36.0	2.5	/experiments/knapen_AOT/AOT_stimuli/rescaled_final/1516_rv.mp4	0.0	198.9711298942566	2.4919893741607666
38	184.73554372787476	pulse	1	t		36.0	2.5	/experiments/knapen_AOT/AOT_stimuli/rescaled_final/1516_rv.mp4	0.0	200.54610776901245	
38	185.65255522727966	fix_post	2		12	36.0	2.5	/experiments/knapen_AOT/AOT_stimuli/rescaled_final/1516_rv.mp4	0.0	201.46311926841736	0.10003113746643066
39	185.7525863647461	fix_pre	0		120	37.0	2.5	/experiments/knapen_AOT/AOT_stimuli/rescaled_final/1212_rv.mp4	0.0	201.5631504058838	1.0085198879241943
39	186.33619284629822	pulse	0	t		37.0	2.5	/experiments/knapen_AOT/AOT_stimuli/rescaled_final/1212_rv.mp4	0.0	202.1467568874359	
39	186.7611062526703	movie	1		265	37.0	2.5	/experiments/knapen_AOT/AOT_stimuli/rescaled_final/1212_rv.mp4	0.0	202.57167029380798	2.4920263290405273
39	187.93467211723328	pulse	1	t		37.0	2.5	/experiments/knapen_AOT/AOT_stimuli/rescaled_final/1212_rv.mp4	0.0	203.74523615837097	
39	189.25313258171082	fix_post	2		12	37.0	2.5	/experiments/knapen_AOT/AOT_stimuli/rescaled_final/1212_rv.mp4	0.0	205.0636966228485	0.09999918937683105
40	189.35313177108765	fix_pre	0		120	38.0	2.5	/experiments/knapen_AOT/AOT_stimuli/rescaled_final/1994_rv.mp4	0.0	205.16369581222534	1.0084583759307861
40	189.52915573120117	pulse	0	t		38.0	2.5	/experiments/knapen_AOT/AOT_stimuli/rescaled_final/1994_rv.mp4	0.0	205.33971977233887	
40	190.36159014701843	movie	1		272	38.0	2.5	/experiments/knapen_AOT/AOT_stimuli/rescaled_final/1994_rv.mp4	0.0	206.17215418815613	2.4920597076416016
40	191.12888717651367	pulse	1	t		38.0	2.5	/experiments/knapen_AOT/AOT_stimuli/rescaled_final/1994_rv.mp4	0.0	206.93945121765137	
40	192.72926902770996	pulse	1	t		38.0	2.5	/experiments/knapen_AOT/AOT_stimuli/rescaled_final/1994_rv.mp4	0.0	208.53983306884766	
40	192.85364985466003	fix_post	2		12	38.0	2.5	/experiments/knapen_AOT/AOT_stimuli/rescaled_final/1994_rv.mp4	0.0	208.66421389579773	0.1000673770904541
41	192.9537172317505	fix_pre	0		120	39.0	2.5	/experiments/knapen_AOT/AOT_stimuli/rescaled_final/0577_rv.mp4	0.0	208.76428127288818	1.0084381103515625
41	193.96215534210205	movie	1		269	39.0	2.5	/experiments/knapen_AOT/AOT_stimuli/rescaled_final/0577_rv.mp4	0.0	209.77271938323975	2.492030143737793
41	194.32948637008667	pulse	1	t		39.0	2.5	/experiments/knapen_AOT/AOT_stimuli/rescaled_final/0577_rv.mp4	0.0	210.14005041122437	
41	195.92933011054993	pulse	1	t		39.0	2.5	/experiments/knapen_AOT/AOT_stimuli/rescaled_final/0577_rv.mp4	0.0	211.73989415168762	
41	196.45418548583984	fix_post	2		12	39.0	2.5	/experiments/knapen_AOT/AOT_stimuli/rescaled_final/0577_rv.mp4	0.0	212.26474952697754	0.10003304481506348
42	196.5542185306549	fix_pre	0		118	40.0	2.5	/experiments/knapen_AOT/AOT_stimuli/rescaled_final/1187_fw.mp4	0.0	212.3647825717926	0.9918074607849121
42	197.52994394302368	pulse	0	t		40.0	2.5	/experiments/knapen_AOT/AOT_stimuli/rescaled_final/1187_fw.mp4	0.0	213.34050798416138	
42	197.54602599143982	movie	1		289	40.0	2.5	/experiments/knapen_AOT/AOT_stimuli/rescaled_final/1187_fw.mp4	0.0	213.35659003257751	2.5003676414489746
42	199.1299421787262	pulse	1	t		40.0	2.5	/experiments/knapen_AOT/AOT_stimuli/rescaled_final/1187_fw.mp4	0.0	214.9405062198639	
42	200.0463936328888	fix_post	2		12	40.0	2.5	/experiments/knapen_AOT/AOT_stimuli/rescaled_final/1187_fw.mp4	0.0	215.8569576740265	0.09998726844787598
43	200.14638090133667	fix_pre	0		120	41.0	2.5	/experiments/knapen_AOT/AOT_stimuli/rescaled_final/0135_rv.mp4	0.0	215.95694494247437	1.008512020111084
43	200.7300570011139	pulse	0	t		41.0	2.5	/experiments/knapen_AOT/AOT_stimuli/rescaled_final/0135_rv.mp4	0.0	216.5406210422516	
43	201.15489292144775	movie	1		282	41.0	2.5	/experiments/knapen_AOT/AOT_stimuli/rescaled_final/0135_rv.mp4	0.0	216.96545696258545	2.492030143737793
43	202.3306519985199	pulse	1	t		41.0	2.5	/experiments/knapen_AOT/AOT_stimuli/rescaled_final/0135_rv.mp4	0.0	218.1412160396576	
43	203.64692306518555	fix_post	2		12	41.0	2.5	/experiments/knapen_AOT/AOT_stimuli/rescaled_final/0135_rv.mp4	0.0	219.45748710632324	0.10005998611450195
44	203.74698305130005	fix_pre	0		120	42.0	2.5	blank	1.0	219.55754709243774	1.0001037120819092
44	203.93056225776672	pulse	0	t		42.0	2.5	blank	1.0	219.74112629890442	
44	204.74708676338196	movie	1		300	42.0	2.5	blank	1.0	220.55765080451965	2.5003786087036133
44	205.53089356422424	pulse	1	t		42.0	2.5	blank	1.0	221.34145760536194	
44	207.1310224533081	pulse	1	t		42.0	2.5	blank	1.0	222.9415864944458	
44	207.24746537208557	fix_post	2		12	42.0	2.5	blank	1.0	223.05802941322327	0.10004639625549316
45	207.34751176834106	fix_pre	0		120	43.0	2.5	/experiments/knapen_AOT/AOT_stimuli/rescaled_final/0315_rv.mp4	0.0	223.15807580947876	1.0084898471832275
45	208.3560016155243	movie	1		283	43.0	2.5	/experiments/knapen_AOT/AOT_stimuli/rescaled_final/0315_rv.mp4	0.0	224.166565656662	2.491999387741089
45	208.72977781295776	pulse	1	t		43.0	2.5	/experiments/knapen_AOT/AOT_stimuli/rescaled_final/0315_rv.mp4	0.0	224.54034185409546	
45	210.3294186592102	pulse	1	t		43.0	2.5	/experiments/knapen_AOT/AOT_stimuli/rescaled_final/0315_rv.mp4	0.0	226.1399827003479	
45	210.84800100326538	fix_post	2		12	43.0	2.5	/experiments/knapen_AOT/AOT_stimuli/rescaled_final/0315_rv.mp4	0.0	226.65856504440308	0.10001921653747559
46	210.94802021980286	fix_pre	0		119	44.0	2.5	/experiments/knapen_AOT/AOT_stimuli/rescaled_final/1704_rv.mp4	0.0	226.75858426094055	1.0001552104949951
46	211.9316964149475	pulse	0	t		44.0	2.5	/experiments/knapen_AOT/AOT_stimuli/rescaled_final/1704_rv.mp4	0.0	227.7422604560852	
46	211.94817543029785	movie	1		282	44.0	2.5	/experiments/knapen_AOT/AOT_stimuli/rescaled_final/1704_rv.mp4	0.0	227.75873947143555	2.500380516052246
46	213.53184914588928	pulse	1	t		44.0	2.5	/experiments/knapen_AOT/AOT_stimuli/rescaled_final/1704_rv.mp4	0.0	229.34241318702698	
46	214.4485559463501	fix_post	2		12	44.0	2.5	/experiments/knapen_AOT/AOT_stimuli/rescaled_final/1704_rv.mp4	0.0	230.2591199874878	0.10001063346862793
47	214.54856657981873	fix_pre	0		120	45.0	2.5	/experiments/knapen_AOT/AOT_stimuli/rescaled_final/0025_rv.mp4	0.0	230.35913062095642	1.0085058212280273
47	215.13220024108887	pulse	0	t		45.0	2.5	/experiments/knapen_AOT/AOT_stimuli/rescaled_final/0025_rv.mp4	0.0	230.94276428222656	
47	215.55707240104675	movie	1		274	45.0	2.5	/experiments/knapen_AOT/AOT_stimuli/rescaled_final/0025_rv.mp4	0.0	231.36763644218445	2.4920144081115723
47	216.73171019554138	pulse	1	t		45.0	2.5	/experiments/knapen_AOT/AOT_stimuli/rescaled_final/0025_rv.mp4	0.0	232.54227423667908	
47	218.04908680915833	fix_post	2		12	45.0	2.5	/experiments/knapen_AOT/AOT_stimuli/rescaled_final/0025_rv.mp4	0.0	233.85965085029602	0.1000220775604248
48	218.14910888671875	fix_pre	0		120	46.0	2.5	/experiments/knapen_AOT/AOT_stimuli/rescaled_final/1223_rv.mp4	0.0	233.95967292785645	1.0085160732269287
48	218.33294558525085	pulse	0	t		46.0	2.5	/experiments/knapen_AOT/AOT_stimuli/rescaled_final/1223_rv.mp4	0.0	234.14350962638855	
48	219.15762495994568	movie	1		249	46.0	2.5	/experiments/knapen_AOT/AOT_stimuli/rescaled_final/1223_rv.mp4	0.0	234.96818900108337	2.4922218322753906
48	219.93097043037415	pulse	1	t		46.0	2.5	/experiments/knapen_AOT/AOT_stimuli/rescaled_final/1223_rv.mp4	0.0	235.74153447151184	
48	221.53326034545898	pulse	1	t		46.0	2.5	/experiments/knapen_AOT/AOT_stimuli/rescaled_final/1223_rv.mp4	0.0	237.34382438659668	
48	221.64984679222107	fix_post	2		12	46.0	2.5	/experiments/knapen_AOT/AOT_stimuli/rescaled_final/1223_rv.mp4	0.0	237.46041083335876	0.09985232353210449
49	221.74969911575317	fix_pre	0		120	47.0	2.5	/experiments/knapen_AOT/AOT_stimuli/rescaled_final/1688_fw.mp4	0.0	237.56026315689087	1.0084333419799805
49	222.75813245773315	movie	1		272	47.0	2.5	/experiments/knapen_AOT/AOT_stimuli/rescaled_final/1688_fw.mp4	0.0	238.56869649887085	2.4920740127563477
49	223.1316819190979	pulse	1	t		47.0	2.5	/experiments/knapen_AOT/AOT_stimuli/rescaled_final/1688_fw.mp4	0.0	238.9422459602356	
49	224.73150873184204	pulse	1	t		47.0	2.5	/experiments/knapen_AOT/AOT_stimuli/rescaled_final/1688_fw.mp4	0.0	240.54207277297974	
49	225.2502064704895	fix_post	2		12	47.0	2.5	/experiments/knapen_AOT/AOT_stimuli/rescaled_final/1688_fw.mp4	0.0	241.0607705116272	0.09999346733093262
50	225.35019993782043	fix_pre	0		119	48.0	2.5	/experiments/knapen_AOT/AOT_stimuli/rescaled_final/1591_fw.mp4	0.0	241.16076397895813	1.0001635551452637
50	226.3340184688568	pulse	0	t		48.0	2.5	/experiments/knapen_AOT/AOT_stimuli/rescaled_final/1591_fw.mp4	0.0	242.1445825099945	
50	226.3503634929657	movie	1		273	48.0	2.5	/experiments/knapen_AOT/AOT_stimuli/rescaled_final/1591_fw.mp4	0.0	242.1609275341034	2.5003669261932373
50	227.93330454826355	pulse	1	t		48.0	2.5	/experiments/knapen_AOT/AOT_stimuli/rescaled_final/1591_fw.mp4	0.0	243.74386858940125	
50	228.85073041915894	fix_post	2		12	48.0	2.5	/experiments/knapen_AOT/AOT_stimuli/rescaled_final/1591_fw.mp4	0.0	244.66129446029663	0.10003471374511719
51	228.95076513290405	fix_pre	0		120	49.0	2.5	blank	1.0	244.76132917404175	1.0001933574676514
51	229.53444123268127	pulse	0	t		49.0	2.5	blank	1.0	245.34500527381897	
51	229.9509584903717	movie	1		300	49.0	2.5	blank	1.0	245.7615225315094	2.500321388244629
51	231.13461923599243	pulse	1	t		49.0	2.5	blank	1.0	246.94518327713013	
51	232.45127987861633	fix_post	2		12	49.0	2.5	blank	1.0	248.26184391975403	0.10001683235168457
52	232.55129671096802	fix_pre	0		120	50.0	2.5	/experiments/knapen_AOT/AOT_stimuli/rescaled_final/1343_rv.mp4	0.0	248.3618607521057	1.0084989070892334
52	232.73490571975708	pulse	0	t		50.0	2.5	/experiments/knapen_AOT/AOT_stimuli/rescaled_final/1343_rv.mp4	0.0	248.54546976089478	
52	233.55979561805725	movie	1		286	50.0	2.5	/experiments/knapen_AOT/AOT_stimuli/rescaled_final/1343_rv.mp4	0.0	249.37035965919495	2.49202823638916
52	234.3329770565033	pulse	1	t		50.0	2.5	/experiments/knapen_AOT/AOT_stimuli/rescaled_final/1343_rv.mp4	0.0	250.143541097641	
52	235.9334592819214	pulse	1	t		50.0	2.5	/experiments/knapen_AOT/AOT_stimuli/rescaled_final/1343_rv.mp4	0.0	251.74402332305908	
52	236.0518238544464	fix_post	2		12	50.0	2.5	/experiments/knapen_AOT/AOT_stimuli/rescaled_final/1343_rv.mp4	0.0	251.8623878955841	0.09999728202819824
53	236.1518211364746	fix_pre	0		120	51.0	2.5	/experiments/knapen_AOT/AOT_stimuli/rescaled_final/0280_fw.mp4	0.0	251.9623851776123	1.008561372756958
53	237.16038250923157	movie	1		272	51.0	2.5	/experiments/knapen_AOT/AOT_stimuli/rescaled_final/0280_fw.mp4	0.0	252.97094655036926	2.492039918899536
53	237.53454613685608	pulse	1	t		51.0	2.5	/experiments/knapen_AOT/AOT_stimuli/rescaled_final/0280_fw.mp4	0.0	253.34511017799377	
53	239.1336545944214	pulse	1	t		51.0	2.5	/experiments/knapen_AOT/AOT_stimuli/rescaled_final/0280_fw.mp4	0.0	254.94421863555908	
53	239.6524224281311	fix_post	2		12	51.0	2.5	/experiments/knapen_AOT/AOT_stimuli/rescaled_final/0280_fw.mp4	0.0	255.4629864692688	0.09994173049926758
54	239.75236415863037	fix_pre	0		119	52.0	2.5	/experiments/knapen_AOT/AOT_stimuli/rescaled_final/0215_rv.mp4	0.0	255.56292819976807	1.0002243518829346
54	240.73646116256714	pulse	0	t		52.0	2.5	/experiments/knapen_AOT/AOT_stimuli/rescaled_final/0215_rv.mp4	0.0	256.54702520370483	
54	240.7525885105133	movie	1		283	52.0	2.5	/experiments/knapen_AOT/AOT_stimuli/rescaled_final/0215_rv.mp4	0.0	256.563152551651	2.500535011291504
54	242.33590841293335	pulse	1	t		52.0	2.5	/experiments/knapen_AOT/AOT_stimuli/rescaled_final/0215_rv.mp4	0.0	258.14647245407104	
54	243.2531235218048	fix_post	2		12	52.0	2.5	/experiments/knapen_AOT/AOT_stimuli/rescaled_final/0215_rv.mp4	0.0	259.0636875629425	0.0997457504272461
55	243.35286927223206	fix_pre	0		120	53.0	2.5	/experiments/knapen_AOT/AOT_stimuli/rescaled_final/1135_rv.mp4	0.0	259.16343331336975	1.0086050033569336
55	243.9365348815918	pulse	0	t		53.0	2.5	/experiments/knapen_AOT/AOT_stimuli/rescaled_final/1135_rv.mp4	0.0	259.7470989227295	
55	244.361474275589	movie	1		275	53.0	2.5	/experiments/knapen_AOT/AOT_stimuli/rescaled_final/1135_rv.mp4	0.0	260.1720383167267	2.4919474124908447
55	245.5354425907135	pulse	1	t		53.0	2.5	/experiments/knapen_AOT/AOT_stimuli/rescaled_final/1135_rv.mp4	0.0	261.3460066318512	
55	246.85342168807983	fix_post	2		12	53.0	2.5	/experiments/knapen_AOT/AOT_stimuli/rescaled_final/1135_rv.mp4	0.0	262.66398572921753	0.10002470016479492
56	246.95344638824463	fix_pre	0		120	54.0	2.5	/experiments/knapen_AOT/AOT_stimuli/rescaled_final/0204_fw.mp4	0.0	262.7640104293823	1.0085201263427734
56	247.12923073768616	pulse	0	t		54.0	2.5	/experiments/knapen_AOT/AOT_stimuli/rescaled_final/0204_fw.mp4	0.0	262.93979477882385	
56	247.9619665145874	movie	1		274	54.0	2.5	/experiments/knapen_AOT/AOT_stimuli/rescaled_final/0204_fw.mp4	0.0	263.7725305557251	2.4920103549957275
56	248.7293210029602	pulse	1	t		54.0	2.5	/experiments/knapen_AOT/AOT_stimuli/rescaled_final/0204_fw.mp4	0.0	264.5398850440979	
56	250.32947278022766	pulse	1	t		54.0	2.5	/experiments/knapen_AOT/AOT_stimuli/rescaled_final/0204_fw.mp4	0.0	266.14003682136536	
56	250.45397686958313	fix_post	2		12	54.0	2.5	/experiments/knapen_AOT/AOT_stimuli/rescaled_final/0204_fw.mp4	0.0	266.2645409107208	0.09997773170471191
57	250.55395460128784	fix_pre	0		120	55.0	2.5	/experiments/knapen_AOT/AOT_stimuli/rescaled_final/1775_rv.mp4	0.0	266.36451864242554	1.008577823638916
57	251.56253242492676	movie	1		276	55.0	2.5	/experiments/knapen_AOT/AOT_stimuli/rescaled_final/1775_rv.mp4	0.0	267.37309646606445	2.4920461177825928
57	251.93028855323792	pulse	1	t		55.0	2.5	/experiments/knapen_AOT/AOT_stimuli/rescaled_final/1775_rv.mp4	0.0	267.7408525943756	
57	253.52986693382263	pulse	1	t		55.0	2.5	/experiments/knapen_AOT/AOT_stimuli/rescaled_final/1775_rv.mp4	0.0	269.3404309749603	
57	254.05457854270935	fix_post	2		12	55.0	2.5	/experiments/knapen_AOT/AOT_stimuli/rescaled_final/1775_rv.mp4	0.0	269.86514258384705	0.09995818138122559
58	254.15453672409058	fix_pre	0		118	56.0	2.5	blank	1.0	269.96510076522827	0.983546257019043
58	255.1299021244049	pulse	0	t		56.0	2.5	blank	1.0	270.9404661655426	
58	255.13808298110962	movie	1		301	56.0	2.5	blank	1.0	270.9486470222473	2.5086183547973633
58	256.73019790649414	pulse	1	t		56.0	2.5	blank	1.0	272.54076194763184	
58	257.646701335907	fix_post	2		12	56.0	2.5	blank	1.0	273.4572653770447	0.10001206398010254
59	257.7467133998871	fix_pre	0		120	57.0	2.5	/experiments/knapen_AOT/AOT_stimuli/rescaled_final/1842_rv.mp4	0.0	273.5572774410248	1.0085208415985107
59	258.33042764663696	pulse	0	t		57.0	2.5	/experiments/knapen_AOT/AOT_stimuli/rescaled_final/1842_rv.mp4	0.0	274.14099168777466	
59	258.7552342414856	movie	1		278	57.0	2.5	/experiments/knapen_AOT/AOT_stimuli/rescaled_final/1842_rv.mp4	0.0	274.5657982826233	2.4920177459716797
59	259.9306170940399	pulse	1	t		57.0	2.5	/experiments/knapen_AOT/AOT_stimuli/rescaled_final/1842_rv.mp4	0.0	275.7411811351776	
59	261.2472519874573	fix_post	2		12	57.0	2.5	/experiments/knapen_AOT/AOT_stimuli/rescaled_final/1842_rv.mp4	0.0	277.05781602859497	0.10001039505004883
60	261.3472623825073	fix_pre	0		120	58.0	2.5	/experiments/knapen_AOT/AOT_stimuli/rescaled_final/2154_rv.mp4	0.0	277.157826423645	1.0085186958312988
60	261.53088545799255	pulse	0	t		58.0	2.5	/experiments/knapen_AOT/AOT_stimuli/rescaled_final/2154_rv.mp4	0.0	277.34144949913025	
60	262.3557810783386	movie	1		288	58.0	2.5	/experiments/knapen_AOT/AOT_stimuli/rescaled_final/2154_rv.mp4	0.0	278.1663451194763	2.491999864578247
60	263.1310737133026	pulse	1	t		58.0	2.5	/experiments/knapen_AOT/AOT_stimuli/rescaled_final/2154_rv.mp4	0.0	278.9416377544403	
60	264.72947359085083	pulse	1	t		58.0	2.5	/experiments/knapen_AOT/AOT_stimuli/rescaled_final/2154_rv.mp4	0.0	280.5400376319885	
60	264.84778094291687	fix_post	2		12	58.0	2.5	/experiments/knapen_AOT/AOT_stimuli/rescaled_final/2154_rv.mp4	0.0	280.65834498405457	0.1000216007232666
61	264.94780254364014	fix_pre	0		120	59.0	2.5	/experiments/knapen_AOT/AOT_stimuli/rescaled_final/1843_fw.mp4	0.0	280.75836658477783	1.0085351467132568
61	265.9563376903534	movie	1		280	59.0	2.5	/experiments/knapen_AOT/AOT_stimuli/rescaled_final/1843_fw.mp4	0.0	281.7669017314911	2.4920055866241455
61	266.3316342830658	pulse	1	t		59.0	2.5	/experiments/knapen_AOT/AOT_stimuli/rescaled_final/1843_fw.mp4	0.0	282.1421983242035	
61	267.9295494556427	pulse	1	t		59.0	2.5	/experiments/knapen_AOT/AOT_stimuli/rescaled_final/1843_fw.mp4	0.0	283.7401134967804	
61	268.44834327697754	fix_post	2		12	59.0	2.5	/experiments/knapen_AOT/AOT_stimuli/rescaled_final/1843_fw.mp4	0.0	284.25890731811523	0.10006880760192871
62	268.54841208457947	fix_pre	0		119	60.0	2.5	/experiments/knapen_AOT/AOT_stimuli/rescaled_final/1656_fw.mp4	0.0	284.35897612571716	1.0003674030303955
62	269.5320634841919	pulse	0	t		60.0	2.5	/experiments/knapen_AOT/AOT_stimuli/rescaled_final/1656_fw.mp4	0.0	285.3426275253296	
62	269.54877948760986	movie	1		277	60.0	2.5	/experiments/knapen_AOT/AOT_stimuli/rescaled_final/1656_fw.mp4	0.0	285.35934352874756	2.500124216079712
62	271.13092398643494	pulse	1	t		60.0	2.5	/experiments/knapen_AOT/AOT_stimuli/rescaled_final/1656_fw.mp4	0.0	286.94148802757263	
62	272.0489037036896	fix_post	2		12	60.0	2.5	/experiments/knapen_AOT/AOT_stimuli/rescaled_final/1656_fw.mp4	0.0	287.85946774482727	0.10004138946533203
63	272.1489450931549	fix_pre	0		120	61.0	2.5	/experiments/knapen_AOT/AOT_stimuli/rescaled_final/1510_fw.mp4	0.0	287.9595091342926	1.0084748268127441
63	272.73287177085876	pulse	0	t		61.0	2.5	/experiments/knapen_AOT/AOT_stimuli/rescaled_final/1510_fw.mp4	0.0	288.54343581199646	
63	273.15741991996765	movie	1		276	61.0	2.5	/experiments/knapen_AOT/AOT_stimuli/rescaled_final/1510_fw.mp4	0.0	288.96798396110535	2.492006540298462
63	274.3309190273285	pulse	1	t		61.0	2.5	/experiments/knapen_AOT/AOT_stimuli/rescaled_final/1510_fw.mp4	0.0	290.1414830684662	
63	275.6494264602661	fix_post	2		12	61.0	2.5	/experiments/knapen_AOT/AOT_stimuli/rescaled_final/1510_fw.mp4	0.0	291.4599905014038	0.10001444816589355
64	275.749440908432	fix_pre	0		120	62.0	2.5	blank	1.0	291.5600049495697	1.0001296997070312
64	275.9337649345398	pulse	0	t		62.0	2.5	blank	1.0	291.7443289756775	
64	276.74957060813904	movie	1		300	62.0	2.5	blank	1.0	292.56013464927673	2.5003976821899414
64	277.5335023403168	pulse	1	t		62.0	2.5	blank	1.0	293.34406638145447	
64	279.13389897346497	pulse	1	t		62.0	2.5	blank	1.0	294.94446301460266	
64	279.249968290329	fix_post	2		12	62.0	2.5	blank	1.0	295.0605323314667	0.1000056266784668
65	279.34997391700745	fix_pre	0		120	63.0	2.5	/experiments/knapen_AOT/AOT_stimuli/rescaled_final/0474_rv.mp4	0.0	295.16053795814514	1.0084898471832275
65	280.3584637641907	movie	1		278	63.0	2.5	/experiments/knapen_AOT/AOT_stimuli/rescaled_final/0474_rv.mp4	0.0	296.16902780532837	2.4921274185180664
65	280.7321193218231	pulse	1	t		63.0	2.5	/experiments/knapen_AOT/AOT_stimuli/rescaled_final/0474_rv.mp4	0.0	296.5426833629608	
65	282.3342490196228	pulse	1	t		63.0	2.5	/experiments/knapen_AOT/AOT_stimuli/rescaled_final/0474_rv.mp4	0.0	298.1448130607605	
65	282.85059118270874	fix_post	2		12	63.0	2.5	/experiments/knapen_AOT/AOT_stimuli/rescaled_final/0474_rv.mp4	0.0	298.66115522384644	0.0999448299407959
66	282.95053601264954	fix_pre	0		119	64.0	2.5	/experiments/knapen_AOT/AOT_stimuli/rescaled_final/1656_fw.mp4	0.0	298.76110005378723	1.0001299381256104
66	283.9341974258423	pulse	0	t		64.0	2.5	/experiments/knapen_AOT/AOT_stimuli/rescaled_final/1656_fw.mp4	0.0	299.74476146698	
66	283.95066595077515	movie	1		288	64.0	2.5	/experiments/knapen_AOT/AOT_stimuli/rescaled_final/1656_fw.mp4	0.0	299.76122999191284	2.5003695487976074
66	285.5327694416046	pulse	1	t		64.0	2.5	/experiments/knapen_AOT/AOT_stimuli/rescaled_final/1656_fw.mp4	0.0	301.3433334827423	
66	286.45103549957275	fix_post	2		12	64.0	2.5	/experiments/knapen_AOT/AOT_stimuli/rescaled_final/1656_fw.mp4	0.0	302.26159954071045	0.10000991821289062
67	286.55104541778564	fix_pre	0		120	65.0	2.5	/experiments/knapen_AOT/AOT_stimuli/rescaled_final/0593_fw.mp4	0.0	302.36160945892334	1.0085217952728271
67	287.13504123687744	pulse	0	t		65.0	2.5	/experiments/knapen_AOT/AOT_stimuli/rescaled_final/0593_fw.mp4	0.0	302.94560527801514	
67	287.5595672130585	movie	1		283	65.0	2.5	/experiments/knapen_AOT/AOT_stimuli/rescaled_final/0593_fw.mp4	0.0	303.37013125419617	2.492011785507202
67	288.733206987381	pulse	1	t		65.0	2.5	/experiments/knapen_AOT/AOT_stimuli/rescaled_final/0593_fw.mp4	0.0	304.5437710285187	
67	290.0515789985657	fix_post	2		12	65.0	2.5	/experiments/knapen_AOT/AOT_stimuli/rescaled_final/0593_fw.mp4	0.0	305.86214303970337	0.10002326965332031
68	290.151602268219	fix_pre	0		120	66.0	2.5	/experiments/knapen_AOT/AOT_stimuli/rescaled_final/1962_fw.mp4	0.0	305.9621663093567	1.0084984302520752
68	290.3352372646332	pulse	0	t		66.0	2.5	/experiments/knapen_AOT/AOT_stimuli/rescaled_final/1962_fw.mp4	0.0	306.1458013057709	
68	291.16010069847107	movie	1		289	66.0	2.5	/experiments/knapen_AOT/AOT_stimuli/rescaled_final/1962_fw.mp4	0.0	306.97066473960876	2.492046356201172
68	291.9332046508789	pulse	1	t		66.0	2.5	/experiments/knapen_AOT/AOT_stimuli/rescaled_final/1962_fw.mp4	0.0	307.7437686920166	
68	293.53406262397766	pulse	1	t		66.0	2.5	/experiments/knapen_AOT/AOT_stimuli/rescaled_final/1962_fw.mp4	0.0	309.34462666511536	
68	293.65214705467224	fix_post	2		12	66.0	2.5	/experiments/knapen_AOT/AOT_stimuli/rescaled_final/1962_fw.mp4	0.0	309.46271109580994	0.09999299049377441
69	293.752140045166	fix_pre	0		120	67.0	2.5	/experiments/knapen_AOT/AOT_stimuli/rescaled_final/1505_rv.mp4	0.0	309.5627040863037	1.0085012912750244
69	294.76064133644104	movie	1		272	67.0	2.5	/experiments/knapen_AOT/AOT_stimuli/rescaled_final/1505_rv.mp4	0.0	310.57120537757874	2.49202036857605
69	295.1351339817047	pulse	1	t		67.0	2.5	/experiments/knapen_AOT/AOT_stimuli/rescaled_final/1505_rv.mp4	0.0	310.9456980228424	
69	296.733993768692	pulse	1	t		67.0	2.5	/experiments/knapen_AOT/AOT_stimuli/rescaled_final/1505_rv.mp4	0.0	312.5445578098297	
69	297.2526617050171	fix_post	2		12	67.0	2.5	/experiments/knapen_AOT/AOT_stimuli/rescaled_final/1505_rv.mp4	0.0	313.0632257461548	0.10003113746643066
70	297.3526928424835	fix_pre	0		119	68.0	2.5	/experiments/knapen_AOT/AOT_stimuli/rescaled_final/0119_fw.mp4	0.0	313.1632568836212	1.0001471042633057
70	298.3363609313965	pulse	0	t		68.0	2.5	/experiments/knapen_AOT/AOT_stimuli/rescaled_final/0119_fw.mp4	0.0	314.1469249725342	
70	298.3528399467468	movie	1		290	68.0	2.5	/experiments/knapen_AOT/AOT_stimuli/rescaled_final/0119_fw.mp4	0.0	314.1634039878845	2.500389814376831
70	299.93510127067566	pulse	1	t		68.0	2.5	/experiments/knapen_AOT/AOT_stimuli/rescaled_final/0119_fw.mp4	0.0	315.74566531181335	
70	300.85322976112366	fix_post	2		12	68.0	2.5	/experiments/knapen_AOT/AOT_stimuli/rescaled_final/0119_fw.mp4	0.0	316.66379380226135	0.09998536109924316
71	300.9532151222229	fix_pre	0		120	69.0	2.5	/experiments/knapen_AOT/AOT_stimuli/rescaled_final/1605_rv.mp4	0.0	316.7637791633606	1.0085194110870361
71	301.52961564064026	pulse	0	t		69.0	2.5	/experiments/knapen_AOT/AOT_stimuli/rescaled_final/1605_rv.mp4	0.0	317.34017968177795	
71	301.96173453330994	movie	1		281	69.0	2.5	/experiments/knapen_AOT/AOT_stimuli/rescaled_final/1605_rv.mp4	0.0	317.77229857444763	2.492001533508301
71	303.12878036499023	pulse	1	t		69.0	2.5	/experiments/knapen_AOT/AOT_stimuli/rescaled_final/1605_rv.mp4	0.0	318.93934440612793	
71	304.45373606681824	fix_post	2		12	69.0	2.5	/experiments/knapen_AOT/AOT_stimuli/rescaled_final/1605_rv.mp4	0.0	320.26430010795593	0.09998917579650879
72	304.55372524261475	fix_pre	0		120	70.0	2.5	blank	1.0	320.36428928375244	1.0001890659332275
72	304.7290081977844	pulse	0	t		70.0	2.5	blank	1.0	320.5395722389221	
72	305.553914308548	movie	1		300	70.0	2.5	blank	1.0	321.36447834968567	2.50036883354187
72	306.329297542572	pulse	1	t		70.0	2.5	blank	1.0	322.1398615837097	
72	307.92970275878906	pulse	1	t		70.0	2.5	blank	1.0	323.74026679992676	
72	308.05428314208984	fix_post	2		12	70.0	2.5	blank	1.0	323.86484718322754	0.10001945495605469
73	308.1543025970459	fix_pre	0		120	71.0	2.5	/experiments/knapen_AOT/AOT_stimuli/rescaled_final/1101_rv.mp4	0.0	323.9648666381836	1.0084617137908936
73	309.1627643108368	movie	1		276	71.0	2.5	/experiments/knapen_AOT/AOT_stimuli/rescaled_final/1101_rv.mp4	0.0	324.9733283519745	2.4920737743377686
73	309.5298488140106	pulse	1	t		71.0	2.5	/experiments/knapen_AOT/AOT_stimuli/rescaled_final/1101_rv.mp4	0.0	325.3404128551483	
73	311.12993359565735	pulse	1	t		71.0	2.5	/experiments/knapen_AOT/AOT_stimuli/rescaled_final/1101_rv.mp4	0.0	326.94049763679504	
73	311.65483808517456	fix_post	2		12	71.0	2.5	/experiments/knapen_AOT/AOT_stimuli/rescaled_final/1101_rv.mp4	0.0	327.46540212631226	0.10000467300415039
74	311.7548427581787	fix_pre	0		118	72.0	2.5	/experiments/knapen_AOT/AOT_stimuli/rescaled_final/1245_rv.mp4	0.0	327.5654067993164	0.9918086528778076
74	312.73045897483826	pulse	0	t		72.0	2.5	/experiments/knapen_AOT/AOT_stimuli/rescaled_final/1245_rv.mp4	0.0	328.54102301597595	
74	312.7466514110565	movie	1		270	72.0	2.5	/experiments/knapen_AOT/AOT_stimuli/rescaled_final/1245_rv.mp4	0.0	328.5572154521942	2.500363349914551
74	314.33013010025024	pulse	1	t		72.0	2.5	/experiments/knapen_AOT/AOT_stimuli/rescaled_final/1245_rv.mp4	0.0	330.14069414138794	
74	315.24701476097107	fix_post	2		12	72.0	2.5	/experiments/knapen_AOT/AOT_stimuli/rescaled_final/1245_rv.mp4	0.0	331.05757880210876	0.10010886192321777
75	315.3471236228943	fix_pre	0		120	73.0	2.5	/experiments/knapen_AOT/AOT_stimuli/rescaled_final/2131_fw.mp4	0.0	331.157687664032	1.0084331035614014
75	315.9308032989502	pulse	0	t		73.0	2.5	/experiments/knapen_AOT/AOT_stimuli/rescaled_final/2131_fw.mp4	0.0	331.7413673400879	
75	316.3555567264557	movie	1		280	73.0	2.5	/experiments/knapen_AOT/AOT_stimuli/rescaled_final/2131_fw.mp4	0.0	332.1661207675934	2.49200177192688
75	317.52948331832886	pulse	1	t		73.0	2.5	/experiments/knapen_AOT/AOT_stimuli/rescaled_final/2131_fw.mp4	0.0	333.34004735946655	
75	318.84755849838257	fix_post	2		12	73.0	2.5	/experiments/knapen_AOT/AOT_stimuli/rescaled_final/2131_fw.mp4	0.0	334.65812253952026	0.10001873970031738
76	318.9475772380829	fix_pre	0		120	74.0	2.5	/experiments/knapen_AOT/AOT_stimuli/rescaled_final/0497_rv.mp4	0.0	334.7581412792206	1.0085060596466064
76	319.13125491142273	pulse	0	t		74.0	2.5	/experiments/knapen_AOT/AOT_stimuli/rescaled_final/0497_rv.mp4	0.0	334.9418189525604	
76	319.9560832977295	movie	1		273	74.0	2.5	/experiments/knapen_AOT/AOT_stimuli/rescaled_final/0497_rv.mp4	0.0	335.7666473388672	2.492014169692993
76	320.7294487953186	pulse	1	t		74.0	2.5	/experiments/knapen_AOT/AOT_stimuli/rescaled_final/0497_rv.mp4	0.0	336.5400128364563	
76	322.3294999599457	pulse	1	t		74.0	2.5	/experiments/knapen_AOT/AOT_stimuli/rescaled_final/0497_rv.mp4	0.0	338.1400640010834	
76	322.4480974674225	fix_post	2		12	74.0	2.5	/experiments/knapen_AOT/AOT_stimuli/rescaled_final/0497_rv.mp4	0.0	338.2586615085602	0.10002660751342773
77	322.5481240749359	fix_pre	0		120	75.0	2.5	/experiments/knapen_AOT/AOT_stimuli/rescaled_final/1485_rv.mp4	0.0	338.3586881160736	1.0085203647613525
77	323.55664443969727	movie	1		282	75.0	2.5	/experiments/knapen_AOT/AOT_stimuli/rescaled_final/1485_rv.mp4	0.0	339.36720848083496	2.4920315742492676
77	323.93017864227295	pulse	1	t		75.0	2.5	/experiments/knapen_AOT/AOT_stimuli/rescaled_final/1485_rv.mp4	0.0	339.74074268341064	
77	325.53031945228577	pulse	1	t		75.0	2.5	/experiments/knapen_AOT/AOT_stimuli/rescaled_final/1485_rv.mp4	0.0	341.34088349342346	
77	326.04867601394653	fix_post	2		12	75.0	2.5	/experiments/knapen_AOT/AOT_stimuli/rescaled_final/1485_rv.mp4	0.0	341.85924005508423	0.09998345375061035
78	326.14865946769714	fix_pre	0		119	76.0	2.5	/experiments/knapen_AOT/AOT_stimuli/rescaled_final/1605_rv.mp4	0.0	341.95922350883484	1.0002148151397705
78	327.13242626190186	pulse	0	t		76.0	2.5	/experiments/knapen_AOT/AOT_stimuli/rescaled_final/1605_rv.mp4	0.0	342.94299030303955	
78	327.1488742828369	movie	1		284	76.0	2.5	/experiments/knapen_AOT/AOT_stimuli/rescaled_final/1605_rv.mp4	0.0	342.9594383239746	2.5003199577331543
78	328.7318847179413	pulse	1	t		76.0	2.5	/experiments/knapen_AOT/AOT_stimuli/rescaled_final/1605_rv.mp4	0.0	344.542448759079	
78	329.64919424057007	fix_post	2		12	76.0	2.5	/experiments/knapen_AOT/AOT_stimuli/rescaled_final/1605_rv.mp4	0.0	345.45975828170776	0.09999251365661621
79	329.7491867542267	fix_pre	0		120	77.0	2.5	blank	1.0	345.5597507953644	1.0001499652862549
79	330.3329083919525	pulse	0	t		77.0	2.5	blank	1.0	346.1434724330902	
79	330.74933671951294	movie	1		300	77.0	2.5	blank	1.0	346.55990076065063	2.5003888607025146
79	331.93310618400574	pulse	1	t		77.0	2.5	blank	1.0	347.74367022514343	
79	333.24972558021545	fix_post	2		12	77.0	2.5	blank	1.0	349.06028962135315	0.1000216007232666
80	333.3497471809387	fix_pre	0		120	78.0	2.5	/experiments/knapen_AOT/AOT_stimuli/rescaled_final/0503_rv.mp4	0.0	349.1603112220764	1.00850248336792
80	333.53334617614746	pulse	0	t		78.0	2.5	/experiments/knapen_AOT/AOT_stimuli/rescaled_final/0503_rv.mp4	0.0	349.34391021728516	
80	334.35824966430664	movie	1		285	78.0	2.5	/experiments/knapen_AOT/AOT_stimuli/rescaled_final/0503_rv.mp4	0.0	350.16881370544434	2.4921634197235107
80	335.1315932273865	pulse	1	t		78.0	2.5	/experiments/knapen_AOT/AOT_stimuli/rescaled_final/0503_rv.mp4	0.0	350.94215726852417	
80	336.73230051994324	pulse	1	t		78.0	2.5	/experiments/knapen_AOT/AOT_stimuli/rescaled_final/0503_rv.mp4	0.0	352.54286456108093	
80	336.85041308403015	fix_post	2		12	78.0	2.5	/experiments/knapen_AOT/AOT_stimuli/rescaled_final/0503_rv.mp4	0.0	352.66097712516785	0.09987759590148926
81	336.95029067993164	fix_pre	0		120	79.0	2.5	/experiments/knapen_AOT/AOT_stimuli/rescaled_final/0841_fw.mp4	0.0	352.76085472106934	1.0085067749023438
81	337.958797454834	movie	1		288	79.0	2.5	/experiments/knapen_AOT/AOT_stimuli/rescaled_final/0841_fw.mp4	0.0	353.7693614959717	2.4920644760131836
81	338.33244132995605	pulse	1	t		79.0	2.5	/experiments/knapen_AOT/AOT_stimuli/rescaled_final/0841_fw.mp4	0.0	354.14300537109375	
81	339.9318928718567	pulse	1	t		79.0	2.5	/experiments/knapen_AOT/AOT_stimuli/rescaled_final/0841_fw.mp4	0.0	355.7424569129944	
81	340.45086193084717	fix_post	2		12	79.0	2.5	/experiments/knapen_AOT/AOT_stimuli/rescaled_final/0841_fw.mp4	0.0	356.26142597198486	0.09997701644897461
82	340.55083894729614	fix_pre	0		119	80.0	2.5	/experiments/knapen_AOT/AOT_stimuli/rescaled_final/1878_fw.mp4	0.0	356.36140298843384	1.0003232955932617
82	341.5345194339752	pulse	0	t		80.0	2.5	/experiments/knapen_AOT/AOT_stimuli/rescaled_final/1878_fw.mp4	0.0	357.3450834751129	
82	341.5511622428894	movie	1		288	80.0	2.5	/experiments/knapen_AOT/AOT_stimuli/rescaled_final/1878_fw.mp4	0.0	357.3617262840271	2.500197410583496
82	343.1337158679962	pulse	1	t		80.0	2.5	/experiments/knapen_AOT/AOT_stimuli/rescaled_final/1878_fw.mp4	0.0	358.9442799091339	
82	344.0513596534729	fix_post	2		12	80.0	2.5	/experiments/knapen_AOT/AOT_stimuli/rescaled_final/1878_fw.mp4	0.0	359.8619236946106	0.1000218391418457
83	344.15138149261475	fix_pre	0		120	81.0	2.5	/experiments/knapen_AOT/AOT_stimuli/rescaled_final/1994_fw.mp4	0.0	359.96194553375244	1.0084872245788574
83	344.73521184921265	pulse	0	t		81.0	2.5	/experiments/knapen_AOT/AOT_stimuli/rescaled_final/1994_fw.mp4	0.0	360.54577589035034	
83	345.1598687171936	movie	1		278	81.0	2.5	/experiments/knapen_AOT/AOT_stimuli/rescaled_final/1994_fw.mp4	0.0	360.9704327583313	2.4920241832733154
83	346.33371472358704	pulse	1	t		81.0	2.5	/experiments/knapen_AOT/AOT_stimuli/rescaled_final/1994_fw.mp4	0.0	362.14427876472473	
83	347.6518929004669	fix_post	2		12	81.0	2.5	/experiments/knapen_AOT/AOT_stimuli/rescaled_final/1994_fw.mp4	0.0	363.4624569416046	0.1000218391418457
84	347.75191473960876	fix_pre	0		120	82.0	2.5	/experiments/knapen_AOT/AOT_stimuli/rescaled_final/1249_fw.mp4	0.0	363.56247878074646	1.0084619522094727
84	347.9355309009552	pulse	0	t		82.0	2.5	/experiments/knapen_AOT/AOT_stimuli/rescaled_final/1249_fw.mp4	0.0	363.7460949420929	
84	348.76037669181824	movie	1		271	82.0	2.5	/experiments/knapen_AOT/AOT_stimuli/rescaled_final/1249_fw.mp4	0.0	364.57094073295593	2.4920923709869385
84	349.53437519073486	pulse	1	t		82.0	2.5	/experiments/knapen_AOT/AOT_stimuli/rescaled_final/1249_fw.mp4	0.0	365.34493923187256	
84	351.1342511177063	pulse	1	t		82.0	2.5	/experiments/knapen_AOT/AOT_stimuli/rescaled_final/1249_fw.mp4	0.0	366.944815158844	
84	351.2524690628052	fix_post	2		12	82.0	2.5	/experiments/knapen_AOT/AOT_stimuli/rescaled_final/1249_fw.mp4	0.0	367.06303310394287	0.10000443458557129
85	351.35247349739075	fix_pre	0		120	83.0	2.5	blank	1.0	367.16303753852844	1.0001425743103027
85	352.35261607170105	movie	1		300	83.0	2.5	blank	1.0	368.16318011283875	2.5003533363342285
85	352.7362232208252	pulse	1	t		83.0	2.5	blank	1.0	368.5467872619629	
85	354.3364646434784	pulse	1	t		83.0	2.5	blank	1.0	370.1470286846161	
85	354.8529694080353	fix_post	2		12	83.0	2.5	blank	1.0	370.663533449173	0.10002970695495605
87	354.95299911499023	stim	0		1715					370.76356315612793	14.293790578842163
87	355.9367735385895	pulse	0	t						371.7473375797272	
87	357.52919816970825	pulse	0	t						373.33976221084595	
87	359.1289527416229	pulse	0	t						374.9395167827606	
87	360.72909355163574	pulse	0	t						376.53965759277344	
87	362.32943081855774	pulse	0	t						378.13999485969543	
87	363.929701089859	pulse	0	t						379.7402651309967	
87	365.52978801727295	pulse	0	t						381.34035205841064	
87	367.1300137042999	pulse	0	t						382.9405777454376	
87	368.73030638694763	pulse	0	t						384.5408704280853	
