trial_nr	onset	event_type	phase	response	nr_frames	movie_index	movie_duration	movie_file	blank	onset_abs	duration
0	0.16649270057678223	stim	0		9					17.003604412078857	0.07489538192749023
0	0.23325777053833008	response	0	space						17.070369482040405	
1	0.24138808250427246	stim	0		4577					17.078499794006348	38.15917897224426
1	38.390639781951904	pulse	0	t						55.22775149345398	
1	38.400567054748535	stim	1		1716					55.23767876625061	14.307096004486084
1	39.98105525970459	pulse	1	t						56.818166971206665	
1	41.581249713897705	pulse	1	t						58.41836142539978	
1	43.181477308273315	pulse	1	t						60.01858901977539	
1	44.781644105911255	pulse	1	t						61.61875581741333	
1	46.38188862800598	pulse	1	t						63.21900033950806	
1	47.98217296600342	pulse	1	t						64.8192846775055	
1	49.58238649368286	pulse	1	t						66.41949820518494	
1	51.18269324302673	pulse	1	t						68.01980495452881	
2	52.70766305923462	fix_pre	0		10	0.0	2.5	/experiments/knapen_AOT/AOT_stimuli/rescaled_final/0155_fw.mp4	0.0	69.5447747707367	0.10001492500305176
2	52.782859802246094	pulse	0	t		0.0	2.5	/experiments/knapen_AOT/AOT_stimuli/rescaled_final/0155_fw.mp4	0.0	69.61997151374817	
2	52.80767798423767	movie	1		264	0.0	2.5	/experiments/knapen_AOT/AOT_stimuli/rescaled_final/0155_fw.mp4	0.0	69.64478969573975	2.4920644760131836
2	54.38367748260498	pulse	1	t		0.0	2.5	/experiments/knapen_AOT/AOT_stimuli/rescaled_final/0155_fw.mp4	0.0	71.22078919410706	
2	55.299742460250854	fix_post	2		12	0.0	2.5	/experiments/knapen_AOT/AOT_stimuli/rescaled_final/0155_fw.mp4	0.0	72.13685417175293	0.10014581680297852
3	55.39988827705383	fix_pre	0		120	1.0	2.5	/experiments/knapen_AOT/AOT_stimuli/rescaled_final/1152_fw.mp4	0.0	72.23699998855591	1.0083458423614502
3	55.98337435722351	pulse	0	t		1.0	2.5	/experiments/knapen_AOT/AOT_stimuli/rescaled_final/1152_fw.mp4	0.0	72.82048606872559	
3	56.40823411941528	movie	1		275	1.0	2.5	/experiments/knapen_AOT/AOT_stimuli/rescaled_final/1152_fw.mp4	0.0	73.24534583091736	2.492011547088623
3	57.58158326148987	pulse	1	t		1.0	2.5	/experiments/knapen_AOT/AOT_stimuli/rescaled_final/1152_fw.mp4	0.0	74.41869497299194	
3	58.900245666503906	fix_post	2		12	1.0	2.5	/experiments/knapen_AOT/AOT_stimuli/rescaled_final/1152_fw.mp4	0.0	75.73735737800598	0.10001039505004883
4	59.000256061553955	fix_pre	0		120	2.0	2.5	/experiments/knapen_AOT/AOT_stimuli/rescaled_final/0976_rv.mp4	0.0	75.83736777305603	1.0085318088531494
4	59.18419885635376	pulse	0	t		2.0	2.5	/experiments/knapen_AOT/AOT_stimuli/rescaled_final/0976_rv.mp4	0.0	76.02131056785583	
4	60.008787870407104	movie	1		267	2.0	2.5	/experiments/knapen_AOT/AOT_stimuli/rescaled_final/0976_rv.mp4	0.0	76.84589958190918	2.5003340244293213
4	60.78224968910217	pulse	1	t		2.0	2.5	/experiments/knapen_AOT/AOT_stimuli/rescaled_final/0976_rv.mp4	0.0	77.61936140060425	
4	62.382102251052856	pulse	1	t		2.0	2.5	/experiments/knapen_AOT/AOT_stimuli/rescaled_final/0976_rv.mp4	0.0	79.21921396255493	
4	62.509121894836426	fix_post	2		11	2.0	2.5	/experiments/knapen_AOT/AOT_stimuli/rescaled_final/0976_rv.mp4	0.0	79.3462336063385	0.09171342849731445
5	62.60083532333374	fix_pre	0		120	3.0	2.5	/experiments/knapen_AOT/AOT_stimuli/rescaled_final/2175_rv.mp4	0.0	79.43794703483582	1.0085029602050781
5	63.60933828353882	movie	1		276	3.0	2.5	/experiments/knapen_AOT/AOT_stimuli/rescaled_final/2175_rv.mp4	0.0	80.4464499950409	2.4922289848327637
5	63.982640743255615	pulse	1	t		3.0	2.5	/experiments/knapen_AOT/AOT_stimuli/rescaled_final/2175_rv.mp4	0.0	80.81975245475769	
5	65.58324837684631	pulse	1	t		3.0	2.5	/experiments/knapen_AOT/AOT_stimuli/rescaled_final/2175_rv.mp4	0.0	82.42036008834839	
5	66.10156726837158	fix_post	2		12	3.0	2.5	/experiments/knapen_AOT/AOT_stimuli/rescaled_final/2175_rv.mp4	0.0	82.93867897987366	0.09978342056274414
6	66.20135068893433	fix_pre	0		119	4.0	2.5	/experiments/knapen_AOT/AOT_stimuli/rescaled_final/1666_rv.mp4	0.0	83.0384624004364	1.0001423358917236
6	67.18503141403198	pulse	0	t		4.0	2.5	/experiments/knapen_AOT/AOT_stimuli/rescaled_final/1666_rv.mp4	0.0	84.02214312553406	
6	67.20149302482605	movie	1		277	4.0	2.5	/experiments/knapen_AOT/AOT_stimuli/rescaled_final/1666_rv.mp4	0.0	84.03860473632812	2.500371217727661
6	68.78354024887085	pulse	1	t		4.0	2.5	/experiments/knapen_AOT/AOT_stimuli/rescaled_final/1666_rv.mp4	0.0	85.62065196037292	
6	69.70186424255371	fix_post	2		12	4.0	2.5	/experiments/knapen_AOT/AOT_stimuli/rescaled_final/1666_rv.mp4	0.0	86.53897595405579	0.10004210472106934
7	69.80190634727478	fix_pre	0		120	5.0	2.5	blank	1.0	86.63901805877686	1.0001506805419922
7	70.38552856445312	pulse	0	t		5.0	2.5	blank	1.0	87.2226402759552	
7	70.80205702781677	movie	1		300	5.0	2.5	blank	1.0	87.63916873931885	2.500380516052246
7	71.98587203025818	pulse	1	t		5.0	2.5	blank	1.0	88.82298374176025	
7	73.30243754386902	fix_post	2		12	5.0	2.5	blank	1.0	90.1395492553711	0.10001754760742188
8	73.40245509147644	fix_pre	0		120	6.0	2.5	/experiments/knapen_AOT/AOT_stimuli/rescaled_final/0483_fw.mp4	0.0	90.23956680297852	1.0084898471832275
8	73.58604049682617	pulse	0	t		6.0	2.5	/experiments/knapen_AOT/AOT_stimuli/rescaled_final/0483_fw.mp4	0.0	90.42315220832825	
8	74.41094493865967	movie	1		286	6.0	2.5	/experiments/knapen_AOT/AOT_stimuli/rescaled_final/0483_fw.mp4	0.0	91.24805665016174	2.4920191764831543
8	75.18417024612427	pulse	1	t		6.0	2.5	/experiments/knapen_AOT/AOT_stimuli/rescaled_final/0483_fw.mp4	0.0	92.02128195762634	
8	76.78427076339722	pulse	1	t		6.0	2.5	/experiments/knapen_AOT/AOT_stimuli/rescaled_final/0483_fw.mp4	0.0	93.62138247489929	
8	76.90296411514282	fix_post	2		12	6.0	2.5	/experiments/knapen_AOT/AOT_stimuli/rescaled_final/0483_fw.mp4	0.0	93.7400758266449	0.10006308555603027
9	77.00302720069885	fix_pre	0		120	7.0	2.5	/experiments/knapen_AOT/AOT_stimuli/rescaled_final/0667_rv.mp4	0.0	93.84013891220093	1.008436918258667
9	78.01146411895752	movie	1		284	7.0	2.5	/experiments/knapen_AOT/AOT_stimuli/rescaled_final/0667_rv.mp4	0.0	94.8485758304596	2.4920670986175537
9	78.38523316383362	pulse	1	t		7.0	2.5	/experiments/knapen_AOT/AOT_stimuli/rescaled_final/0667_rv.mp4	0.0	95.2223448753357	
9	79.98486280441284	pulse	1	t		7.0	2.5	/experiments/knapen_AOT/AOT_stimuli/rescaled_final/0667_rv.mp4	0.0	96.82197451591492	
9	80.50353121757507	fix_post	2		12	7.0	2.5	/experiments/knapen_AOT/AOT_stimuli/rescaled_final/0667_rv.mp4	0.0	97.34064292907715	0.10002636909484863
10	80.60355758666992	fix_pre	0		118	8.0	2.5	/experiments/knapen_AOT/AOT_stimuli/rescaled_final/0011_fw.mp4	0.0	97.440669298172	0.9918379783630371
10	81.5791985988617	pulse	0	t		8.0	2.5	/experiments/knapen_AOT/AOT_stimuli/rescaled_final/0011_fw.mp4	0.0	98.41631031036377	
10	81.59539556503296	movie	1		277	8.0	2.5	/experiments/knapen_AOT/AOT_stimuli/rescaled_final/0011_fw.mp4	0.0	98.43250727653503	2.500338077545166
10	83.17925953865051	pulse	1	t		8.0	2.5	/experiments/knapen_AOT/AOT_stimuli/rescaled_final/0011_fw.mp4	0.0	100.01637125015259	
10	84.09573364257812	fix_post	2		12	8.0	2.5	/experiments/knapen_AOT/AOT_stimuli/rescaled_final/0011_fw.mp4	0.0	100.9328453540802	0.10000920295715332
11	84.19574284553528	fix_pre	0		120	9.0	2.5	/experiments/knapen_AOT/AOT_stimuli/rescaled_final/1616_rv.mp4	0.0	101.03285455703735	1.0085203647613525
11	84.77952909469604	pulse	0	t		9.0	2.5	/experiments/knapen_AOT/AOT_stimuli/rescaled_final/1616_rv.mp4	0.0	101.61664080619812	
11	85.20426321029663	movie	1		274	9.0	2.5	/experiments/knapen_AOT/AOT_stimuli/rescaled_final/1616_rv.mp4	0.0	102.0413749217987	2.4921188354492188
11	86.37990832328796	pulse	1	t		9.0	2.5	/experiments/knapen_AOT/AOT_stimuli/rescaled_final/1616_rv.mp4	0.0	103.21702003479004	
11	87.69638204574585	fix_post	2		12	9.0	2.5	/experiments/knapen_AOT/AOT_stimuli/rescaled_final/1616_rv.mp4	0.0	104.53349375724792	0.09987330436706543
12	87.79625535011292	fix_pre	0		120	10.0	2.5	/experiments/knapen_AOT/AOT_stimuli/rescaled_final/1389_rv.mp4	0.0	104.63336706161499	1.0085315704345703
12	87.97987580299377	pulse	0	t		10.0	2.5	/experiments/knapen_AOT/AOT_stimuli/rescaled_final/1389_rv.mp4	0.0	104.81698751449585	
12	88.80478692054749	movie	1		276	10.0	2.5	/experiments/knapen_AOT/AOT_stimuli/rescaled_final/1389_rv.mp4	0.0	105.64189863204956	2.4920573234558105
12	89.58020806312561	pulse	1	t		10.0	2.5	/experiments/knapen_AOT/AOT_stimuli/rescaled_final/1389_rv.mp4	0.0	106.41731977462769	
12	91.1803388595581	pulse	1	t		10.0	2.5	/experiments/knapen_AOT/AOT_stimuli/rescaled_final/1389_rv.mp4	0.0	108.01745057106018	
12	91.2968442440033	fix_post	2		12	10.0	2.5	/experiments/knapen_AOT/AOT_stimuli/rescaled_final/1389_rv.mp4	0.0	108.13395595550537	0.09999537467956543
13	91.39683961868286	fix_pre	0		120	11.0	2.5	/experiments/knapen_AOT/AOT_stimuli/rescaled_final/0006_fw.mp4	0.0	108.23395133018494	1.008556604385376
13	92.40539622306824	movie	1		272	11.0	2.5	/experiments/knapen_AOT/AOT_stimuli/rescaled_final/0006_fw.mp4	0.0	109.24250793457031	2.49192214012146
13	92.78016948699951	pulse	1	t		11.0	2.5	/experiments/knapen_AOT/AOT_stimuli/rescaled_final/0006_fw.mp4	0.0	109.61728119850159	
13	94.38177275657654	pulse	1	t		11.0	2.5	/experiments/knapen_AOT/AOT_stimuli/rescaled_final/0006_fw.mp4	0.0	111.21888446807861	
13	94.8973183631897	fix_post	2		12	11.0	2.5	/experiments/knapen_AOT/AOT_stimuli/rescaled_final/0006_fw.mp4	0.0	111.73443007469177	0.1000216007232666
14	94.99733996391296	fix_pre	0		119	12.0	2.5	/experiments/knapen_AOT/AOT_stimuli/rescaled_final/1632_rv.mp4	0.0	111.83445167541504	1.0001957416534424
14	95.98106908798218	pulse	0	t		12.0	2.5	/experiments/knapen_AOT/AOT_stimuli/rescaled_final/1632_rv.mp4	0.0	112.81818079948425	
14	95.9975357055664	movie	1		272	12.0	2.5	/experiments/knapen_AOT/AOT_stimuli/rescaled_final/1632_rv.mp4	0.0	112.83464741706848	2.500365734100342
14	97.57994771003723	pulse	1	t		12.0	2.5	/experiments/knapen_AOT/AOT_stimuli/rescaled_final/1632_rv.mp4	0.0	114.4170594215393	
14	98.49790143966675	fix_post	2		12	12.0	2.5	/experiments/knapen_AOT/AOT_stimuli/rescaled_final/1632_rv.mp4	0.0	115.33501315116882	0.0999910831451416
15	98.59789252281189	fix_pre	0		120	13.0	2.5	/experiments/knapen_AOT/AOT_stimuli/rescaled_final/1897_fw.mp4	0.0	115.43500423431396	1.008488416671753
15	99.18182158470154	pulse	0	t		13.0	2.5	/experiments/knapen_AOT/AOT_stimuli/rescaled_final/1897_fw.mp4	0.0	116.01893329620361	
15	99.60638093948364	movie	1		276	13.0	2.5	/experiments/knapen_AOT/AOT_stimuli/rescaled_final/1897_fw.mp4	0.0	116.44349265098572	2.4920382499694824
15	100.78026294708252	pulse	1	t		13.0	2.5	/experiments/knapen_AOT/AOT_stimuli/rescaled_final/1897_fw.mp4	0.0	117.6173746585846	
15	102.09841918945312	fix_post	2		12	13.0	2.5	/experiments/knapen_AOT/AOT_stimuli/rescaled_final/1897_fw.mp4	0.0	118.9355309009552	0.10010933876037598
16	102.1985285282135	fix_pre	0		120	14.0	2.5	blank	1.0	119.03564023971558	1.0000371932983398
16	102.38211512565613	pulse	0	t		14.0	2.5	blank	1.0	119.2192268371582	
16	103.19856572151184	movie	1		300	14.0	2.5	blank	1.0	120.03567743301392	2.5004374980926514
16	103.98233580589294	pulse	1	t		14.0	2.5	blank	1.0	120.81944751739502	
16	105.58252167701721	pulse	1	t		14.0	2.5	blank	1.0	122.41963338851929	
16	105.69900321960449	fix_post	2		12	14.0	2.5	blank	1.0	122.53611493110657	0.0999608039855957
17	105.79896402359009	fix_pre	0		120	15.0	2.5	/experiments/knapen_AOT/AOT_stimuli/rescaled_final/0797_rv.mp4	0.0	122.63607573509216	1.0084881782531738
17	106.80745220184326	movie	1		275	15.0	2.5	/experiments/knapen_AOT/AOT_stimuli/rescaled_final/0797_rv.mp4	0.0	123.64456391334534	2.49204421043396
17	107.18079352378845	pulse	1	t		15.0	2.5	/experiments/knapen_AOT/AOT_stimuli/rescaled_final/0797_rv.mp4	0.0	124.01790523529053	
17	108.78066825866699	pulse	1	t		15.0	2.5	/experiments/knapen_AOT/AOT_stimuli/rescaled_final/0797_rv.mp4	0.0	125.61777997016907	
17	109.29949641227722	fix_post	2		12	15.0	2.5	/experiments/knapen_AOT/AOT_stimuli/rescaled_final/0797_rv.mp4	0.0	126.1366081237793	0.10004138946533203
18	109.39953780174255	fix_pre	0		119	16.0	2.5	/experiments/knapen_AOT/AOT_stimuli/rescaled_final/0567_rv.mp4	0.0	126.23664951324463	1.0001676082611084
18	110.38347482681274	pulse	0	t		16.0	2.5	/experiments/knapen_AOT/AOT_stimuli/rescaled_final/0567_rv.mp4	0.0	127.22058653831482	
18	110.39970541000366	movie	1		284	16.0	2.5	/experiments/knapen_AOT/AOT_stimuli/rescaled_final/0567_rv.mp4	0.0	127.23681712150574	2.5003247261047363
18	111.98186135292053	pulse	1	t		16.0	2.5	/experiments/knapen_AOT/AOT_stimuli/rescaled_final/0567_rv.mp4	0.0	128.8189730644226	
18	112.9000301361084	fix_post	2		12	16.0	2.5	/experiments/knapen_AOT/AOT_stimuli/rescaled_final/0567_rv.mp4	0.0	129.73714184761047	0.10007309913635254
19	113.00010323524475	fix_pre	0		120	17.0	2.5	/experiments/knapen_AOT/AOT_stimuli/rescaled_final/0639_fw.mp4	0.0	129.83721494674683	1.008542776107788
19	113.58368444442749	pulse	0	t		17.0	2.5	/experiments/knapen_AOT/AOT_stimuli/rescaled_final/0639_fw.mp4	0.0	130.42079615592957	
19	114.00864601135254	movie	1		279	17.0	2.5	/experiments/knapen_AOT/AOT_stimuli/rescaled_final/0639_fw.mp4	0.0	130.84575772285461	2.4919216632843018
19	115.1832160949707	pulse	1	t		17.0	2.5	/experiments/knapen_AOT/AOT_stimuli/rescaled_final/0639_fw.mp4	0.0	132.02032780647278	
19	116.50056767463684	fix_post	2		12	17.0	2.5	/experiments/knapen_AOT/AOT_stimuli/rescaled_final/0639_fw.mp4	0.0	133.33767938613892	0.1000223159790039
20	116.60058999061584	fix_pre	0		120	18.0	2.5	/experiments/knapen_AOT/AOT_stimuli/rescaled_final/2007_fw.mp4	0.0	133.43770170211792	1.0085465908050537
20	116.78412938117981	pulse	0	t		18.0	2.5	/experiments/knapen_AOT/AOT_stimuli/rescaled_final/2007_fw.mp4	0.0	133.62124109268188	
20	117.6091365814209	movie	1		275	18.0	2.5	/experiments/knapen_AOT/AOT_stimuli/rescaled_final/2007_fw.mp4	0.0	134.44624829292297	2.4920737743377686
20	118.38312983512878	pulse	1	t		18.0	2.5	/experiments/knapen_AOT/AOT_stimuli/rescaled_final/2007_fw.mp4	0.0	135.22024154663086	
20	119.9823956489563	pulse	1	t		18.0	2.5	/experiments/knapen_AOT/AOT_stimuli/rescaled_final/2007_fw.mp4	0.0	136.81950736045837	
20	120.10121035575867	fix_post	2		12	18.0	2.5	/experiments/knapen_AOT/AOT_stimuli/rescaled_final/2007_fw.mp4	0.0	136.93832206726074	0.09997940063476562
21	120.20118975639343	fix_pre	0		120	19.0	2.5	/experiments/knapen_AOT/AOT_stimuli/rescaled_final/0874_fw.mp4	0.0	137.0383014678955	1.0084445476531982
21	121.20963430404663	movie	1		280	19.0	2.5	/experiments/knapen_AOT/AOT_stimuli/rescaled_final/0874_fw.mp4	0.0	138.0467460155487	2.49200701713562
21	121.58323884010315	pulse	1	t		19.0	2.5	/experiments/knapen_AOT/AOT_stimuli/rescaled_final/0874_fw.mp4	0.0	138.42035055160522	
21	123.18283796310425	pulse	1	t		19.0	2.5	/experiments/knapen_AOT/AOT_stimuli/rescaled_final/0874_fw.mp4	0.0	140.01994967460632	
21	123.70164132118225	fix_post	2		12	19.0	2.5	/experiments/knapen_AOT/AOT_stimuli/rescaled_final/0874_fw.mp4	0.0	140.53875303268433	0.10002279281616211
22	123.80166411399841	fix_pre	0		119	20.0	2.5	blank	1.0	140.6387758255005	0.9918241500854492
22	124.78535747528076	pulse	0	t		20.0	2.5	blank	1.0	141.62246918678284	
22	124.79348826408386	movie	1		301	20.0	2.5	blank	1.0	141.63059997558594	2.508737087249756
22	126.38569188117981	pulse	1	t		20.0	2.5	blank	1.0	143.22280359268188	
22	127.30222535133362	fix_post	2		12	20.0	2.5	blank	1.0	144.1393370628357	0.09998750686645508
23	127.40221285820007	fix_pre	0		120	21.0	2.5	/experiments/knapen_AOT/AOT_stimuli/rescaled_final/2039_rv.mp4	0.0	144.23932456970215	1.008544683456421
23	127.98607993125916	pulse	0	t		21.0	2.5	/experiments/knapen_AOT/AOT_stimuli/rescaled_final/2039_rv.mp4	0.0	144.82319164276123	
23	128.4107575416565	movie	1		273	21.0	2.5	/experiments/knapen_AOT/AOT_stimuli/rescaled_final/2039_rv.mp4	0.0	145.24786925315857	2.4919748306274414
23	129.58418440818787	pulse	1	t		21.0	2.5	/experiments/knapen_AOT/AOT_stimuli/rescaled_final/2039_rv.mp4	0.0	146.42129611968994	
23	130.90273237228394	fix_post	2		12	21.0	2.5	/experiments/knapen_AOT/AOT_stimuli/rescaled_final/2039_rv.mp4	0.0	147.739844083786	0.10002517700195312
24	131.0027575492859	fix_pre	0		120	22.0	2.5	/experiments/knapen_AOT/AOT_stimuli/rescaled_final/1034_rv.mp4	0.0	147.83986926078796	1.0084877014160156
24	131.18640851974487	pulse	0	t		22.0	2.5	/experiments/knapen_AOT/AOT_stimuli/rescaled_final/1034_rv.mp4	0.0	148.02352023124695	
24	132.0112452507019	movie	1		280	22.0	2.5	/experiments/knapen_AOT/AOT_stimuli/rescaled_final/1034_rv.mp4	0.0	148.84835696220398	2.492048501968384
24	132.78430700302124	pulse	1	t		22.0	2.5	/experiments/knapen_AOT/AOT_stimuli/rescaled_final/1034_rv.mp4	0.0	149.62141871452332	
24	134.3850781917572	pulse	1	t		22.0	2.5	/experiments/knapen_AOT/AOT_stimuli/rescaled_final/1034_rv.mp4	0.0	151.22218990325928	
24	134.5032937526703	fix_post	2		12	22.0	2.5	/experiments/knapen_AOT/AOT_stimuli/rescaled_final/1034_rv.mp4	0.0	151.34040546417236	0.10001134872436523
25	134.60330510139465	fix_pre	0		120	23.0	2.5	/experiments/knapen_AOT/AOT_stimuli/rescaled_final/0105_fw.mp4	0.0	151.44041681289673	1.008598804473877
25	135.61190390586853	movie	1		274	23.0	2.5	/experiments/knapen_AOT/AOT_stimuli/rescaled_final/0105_fw.mp4	0.0	152.4490156173706	2.4919207096099854
25	135.98583698272705	pulse	1	t		23.0	2.5	/experiments/knapen_AOT/AOT_stimuli/rescaled_final/0105_fw.mp4	0.0	152.82294869422913	
25	137.5866870880127	pulse	1	t		23.0	2.5	/experiments/knapen_AOT/AOT_stimuli/rescaled_final/0105_fw.mp4	0.0	154.42379879951477	
25	138.10382461547852	fix_post	2		12	23.0	2.5	/experiments/knapen_AOT/AOT_stimuli/rescaled_final/0105_fw.mp4	0.0	154.9409363269806	0.10001254081726074
26	138.20383715629578	fix_pre	0		118	24.0	2.5	/experiments/knapen_AOT/AOT_stimuli/rescaled_final/1833_rv.mp4	0.0	155.04094886779785	0.9918208122253418
26	139.17952179908752	pulse	0	t		24.0	2.5	/experiments/knapen_AOT/AOT_stimuli/rescaled_final/1833_rv.mp4	0.0	156.0166335105896	
26	139.19565796852112	movie	1		267	24.0	2.5	/experiments/knapen_AOT/AOT_stimuli/rescaled_final/1833_rv.mp4	0.0	156.0327696800232	2.5003561973571777
26	140.77953481674194	pulse	1	t		24.0	2.5	/experiments/knapen_AOT/AOT_stimuli/rescaled_final/1833_rv.mp4	0.0	157.61664652824402	
26	141.6960141658783	fix_post	2		12	24.0	2.5	/experiments/knapen_AOT/AOT_stimuli/rescaled_final/1833_rv.mp4	0.0	158.53312587738037	0.10007500648498535
27	141.79608917236328	fix_pre	0		120	25.0	2.5	/experiments/knapen_AOT/AOT_stimuli/rescaled_final/0333_fw.mp4	0.0	158.63320088386536	1.008488416671753
27	142.3798053264618	pulse	0	t		25.0	2.5	/experiments/knapen_AOT/AOT_stimuli/rescaled_final/0333_fw.mp4	0.0	159.21691703796387	
27	142.80457758903503	movie	1		281	25.0	2.5	/experiments/knapen_AOT/AOT_stimuli/rescaled_final/0333_fw.mp4	0.0	159.6416893005371	2.492016315460205
27	143.97987008094788	pulse	1	t		25.0	2.5	/experiments/knapen_AOT/AOT_stimuli/rescaled_final/0333_fw.mp4	0.0	160.81698179244995	
27	145.29659390449524	fix_post	2		12	25.0	2.5	/experiments/knapen_AOT/AOT_stimuli/rescaled_final/0333_fw.mp4	0.0	162.13370561599731	0.09998154640197754
28	145.39657545089722	fix_pre	0		120	26.0	2.5	/experiments/knapen_AOT/AOT_stimuli/rescaled_final/0231_rv.mp4	0.0	162.2336871623993	1.0084953308105469
28	145.5801703929901	pulse	0	t		26.0	2.5	/experiments/knapen_AOT/AOT_stimuli/rescaled_final/0231_rv.mp4	0.0	162.4172821044922	
28	146.40507078170776	movie	1		260	26.0	2.5	/experiments/knapen_AOT/AOT_stimuli/rescaled_final/0231_rv.mp4	0.0	163.24218249320984	2.4920382499694824
28	147.18053531646729	pulse	1	t		26.0	2.5	/experiments/knapen_AOT/AOT_stimuli/rescaled_final/0231_rv.mp4	0.0	164.01764702796936	
28	148.7806339263916	pulse	1	t		26.0	2.5	/experiments/knapen_AOT/AOT_stimuli/rescaled_final/0231_rv.mp4	0.0	165.61774563789368	
28	148.89710903167725	fix_post	2		12	26.0	2.5	/experiments/knapen_AOT/AOT_stimuli/rescaled_final/0231_rv.mp4	0.0	165.73422074317932	0.1001729965209961
29	148.99728202819824	fix_pre	0		120	27.0	2.5	blank	1.0	165.83439373970032	0.9999778270721436
29	149.99725985527039	movie	1		300	27.0	2.5	blank	1.0	166.83437156677246	2.500426769256592
29	150.38091325759888	pulse	1	t		27.0	2.5	blank	1.0	167.21802496910095	
29	151.98110365867615	pulse	1	t		27.0	2.5	blank	1.0	168.81821537017822	
29	152.49768662452698	fix_post	2		12	27.0	2.5	blank	1.0	169.33479833602905	0.09999513626098633
30	152.59768176078796	fix_pre	0		119	28.0	2.5	/experiments/knapen_AOT/AOT_stimuli/rescaled_final/1017_fw.mp4	0.0	169.43479347229004	1.0001599788665771
30	153.58135318756104	pulse	0	t		28.0	2.5	/experiments/knapen_AOT/AOT_stimuli/rescaled_final/1017_fw.mp4	0.0	170.4184648990631	
30	153.59784173965454	movie	1		275	28.0	2.5	/experiments/knapen_AOT/AOT_stimuli/rescaled_final/1017_fw.mp4	0.0	170.43495345115662	2.5003578662872314
30	155.1799018383026	pulse	1	t		28.0	2.5	/experiments/knapen_AOT/AOT_stimuli/rescaled_final/1017_fw.mp4	0.0	172.0170135498047	
30	156.09819960594177	fix_post	2		12	28.0	2.5	/experiments/knapen_AOT/AOT_stimuli/rescaled_final/1017_fw.mp4	0.0	172.93531131744385	0.10013294219970703
31	156.19833254814148	fix_pre	0		120	29.0	2.5	/experiments/knapen_AOT/AOT_stimuli/rescaled_final/1386_rv.mp4	0.0	173.03544425964355	1.0083987712860107
31	156.78184700012207	pulse	0	t		29.0	2.5	/experiments/knapen_AOT/AOT_stimuli/rescaled_final/1386_rv.mp4	0.0	173.61895871162415	
31	157.2067313194275	movie	1		277	29.0	2.5	/experiments/knapen_AOT/AOT_stimuli/rescaled_final/1386_rv.mp4	0.0	174.04384303092957	2.4920473098754883
31	158.38024425506592	pulse	1	t		29.0	2.5	/experiments/knapen_AOT/AOT_stimuli/rescaled_final/1386_rv.mp4	0.0	175.217355966568	
31	159.69877862930298	fix_post	2		12	29.0	2.5	/experiments/knapen_AOT/AOT_stimuli/rescaled_final/1386_rv.mp4	0.0	176.53589034080505	0.10003399848937988
32	159.79881262779236	fix_pre	0		120	30.0	2.5	/experiments/knapen_AOT/AOT_stimuli/rescaled_final/1530_fw.mp4	0.0	176.63592433929443	1.0084161758422852
32	159.98234057426453	pulse	0	t		30.0	2.5	/experiments/knapen_AOT/AOT_stimuli/rescaled_final/1530_fw.mp4	0.0	176.8194522857666	
32	160.80722880363464	movie	1		274	30.0	2.5	/experiments/knapen_AOT/AOT_stimuli/rescaled_final/1530_fw.mp4	0.0	177.64434051513672	2.4920337200164795
32	161.58051013946533	pulse	1	t		30.0	2.5	/experiments/knapen_AOT/AOT_stimuli/rescaled_final/1530_fw.mp4	0.0	178.4176218509674	
32	163.18073081970215	pulse	1	t		30.0	2.5	/experiments/knapen_AOT/AOT_stimuli/rescaled_final/1530_fw.mp4	0.0	180.01784253120422	
32	163.29926252365112	fix_post	2		12	30.0	2.5	/experiments/knapen_AOT/AOT_stimuli/rescaled_final/1530_fw.mp4	0.0	180.1363742351532	0.1000220775604248
33	163.39928460121155	fix_pre	0		120	31.0	2.5	/experiments/knapen_AOT/AOT_stimuli/rescaled_final/0433_rv.mp4	0.0	180.23639631271362	1.0085844993591309
33	164.40786910057068	movie	1		281	31.0	2.5	/experiments/knapen_AOT/AOT_stimuli/rescaled_final/0433_rv.mp4	0.0	181.24498081207275	2.4919793605804443
33	164.78101181983948	pulse	1	t		31.0	2.5	/experiments/knapen_AOT/AOT_stimuli/rescaled_final/0433_rv.mp4	0.0	181.61812353134155	
33	166.38117861747742	pulse	1	t		31.0	2.5	/experiments/knapen_AOT/AOT_stimuli/rescaled_final/0433_rv.mp4	0.0	183.2182903289795	
33	166.89984846115112	fix_post	2		12	31.0	2.5	/experiments/knapen_AOT/AOT_stimuli/rescaled_final/0433_rv.mp4	0.0	183.7369601726532	0.10000324249267578
34	166.9998517036438	fix_pre	0		119	32.0	2.5	/experiments/knapen_AOT/AOT_stimuli/rescaled_final/0594_fw.mp4	0.0	183.83696341514587	1.0001351833343506
34	167.98350954055786	pulse	0	t		32.0	2.5	/experiments/knapen_AOT/AOT_stimuli/rescaled_final/0594_fw.mp4	0.0	184.82062125205994	
34	167.99998688697815	movie	1		277	32.0	2.5	/experiments/knapen_AOT/AOT_stimuli/rescaled_final/0594_fw.mp4	0.0	184.83709859848022	2.5003578662872314
34	169.58192443847656	pulse	1	t		32.0	2.5	/experiments/knapen_AOT/AOT_stimuli/rescaled_final/0594_fw.mp4	0.0	186.41903614997864	
34	170.50034475326538	fix_post	2		12	32.0	2.5	/experiments/knapen_AOT/AOT_stimuli/rescaled_final/0594_fw.mp4	0.0	187.33745646476746	0.10001444816589355
35	170.60035920143127	fix_pre	0		120	33.0	2.5	blank	1.0	187.43747091293335	1.0001399517059326
35	171.1840045452118	pulse	0	t		33.0	2.5	blank	1.0	188.02111625671387	
35	171.6004991531372	movie	1		300	33.0	2.5	blank	1.0	188.43761086463928	2.500408887863159
35	172.784245967865	pulse	1	t		33.0	2.5	blank	1.0	189.62135767936707	
35	174.10090804100037	fix_post	2		12	33.0	2.5	blank	1.0	190.93801975250244	0.10001015663146973
36	174.20091819763184	fix_pre	0		120	34.0	2.5	/experiments/knapen_AOT/AOT_stimuli/rescaled_final/1357_rv.mp4	0.0	191.0380299091339	1.0085039138793945
36	174.3844838142395	pulse	0	t		34.0	2.5	/experiments/knapen_AOT/AOT_stimuli/rescaled_final/1357_rv.mp4	0.0	191.22159552574158	
36	175.20942211151123	movie	1		275	34.0	2.5	/experiments/knapen_AOT/AOT_stimuli/rescaled_final/1357_rv.mp4	0.0	192.0465338230133	2.492004871368408
36	175.98262810707092	pulse	1	t		34.0	2.5	/experiments/knapen_AOT/AOT_stimuli/rescaled_final/1357_rv.mp4	0.0	192.819739818573	
36	177.58300518989563	pulse	1	t		34.0	2.5	/experiments/knapen_AOT/AOT_stimuli/rescaled_final/1357_rv.mp4	0.0	194.4201169013977	
36	177.70142698287964	fix_post	2		12	34.0	2.5	/experiments/knapen_AOT/AOT_stimuli/rescaled_final/1357_rv.mp4	0.0	194.5385386943817	0.10004854202270508
37	177.80147552490234	fix_pre	0		120	35.0	2.5	/experiments/knapen_AOT/AOT_stimuli/rescaled_final/0571_fw.mp4	0.0	194.63858723640442	1.0085175037384033
37	178.80999302864075	movie	1		258	35.0	2.5	/experiments/knapen_AOT/AOT_stimuli/rescaled_final/0571_fw.mp4	0.0	195.64710474014282	2.492035150527954
37	179.1846582889557	pulse	1	t		35.0	2.5	/experiments/knapen_AOT/AOT_stimuli/rescaled_final/0571_fw.mp4	0.0	196.02177000045776	
37	180.7833960056305	pulse	1	t		35.0	2.5	/experiments/knapen_AOT/AOT_stimuli/rescaled_final/0571_fw.mp4	0.0	197.62050771713257	
37	181.3020281791687	fix_post	2		12	35.0	2.5	/experiments/knapen_AOT/AOT_stimuli/rescaled_final/0571_fw.mp4	0.0	198.13913989067078	0.09998750686645508
38	181.40201568603516	fix_pre	0		119	36.0	2.5	/experiments/knapen_AOT/AOT_stimuli/rescaled_final/1388_rv.mp4	0.0	198.23912739753723	1.0001566410064697
38	182.38565754890442	pulse	0	t		36.0	2.5	/experiments/knapen_AOT/AOT_stimuli/rescaled_final/1388_rv.mp4	0.0	199.2227692604065	
38	182.40217232704163	movie	1		284	36.0	2.5	/experiments/knapen_AOT/AOT_stimuli/rescaled_final/1388_rv.mp4	0.0	199.2392840385437	2.50034236907959
38	183.98439812660217	pulse	1	t		36.0	2.5	/experiments/knapen_AOT/AOT_stimuli/rescaled_final/1388_rv.mp4	0.0	200.82150983810425	
38	184.90251469612122	fix_post	2		12	36.0	2.5	/experiments/knapen_AOT/AOT_stimuli/rescaled_final/1388_rv.mp4	0.0	201.7396264076233	0.10000252723693848
39	185.00251722335815	fix_pre	0		120	37.0	2.5	/experiments/knapen_AOT/AOT_stimuli/rescaled_final/1852_fw.mp4	0.0	201.83962893486023	1.008605718612671
39	185.58640837669373	pulse	0	t		37.0	2.5	/experiments/knapen_AOT/AOT_stimuli/rescaled_final/1852_fw.mp4	0.0	202.4235200881958	
39	186.01112294197083	movie	1		276	37.0	2.5	/experiments/knapen_AOT/AOT_stimuli/rescaled_final/1852_fw.mp4	0.0	202.8482346534729	2.4922192096710205
39	187.1844699382782	pulse	1	t		37.0	2.5	/experiments/knapen_AOT/AOT_stimuli/rescaled_final/1852_fw.mp4	0.0	204.02158164978027	
39	188.50334215164185	fix_post	2		12	37.0	2.5	/experiments/knapen_AOT/AOT_stimuli/rescaled_final/1852_fw.mp4	0.0	205.34045386314392	0.09981465339660645
40	188.60315680503845	fix_pre	0		120	38.0	2.5	/experiments/knapen_AOT/AOT_stimuli/rescaled_final/1389_rv.mp4	0.0	205.44026851654053	1.0084068775177002
40	188.78677892684937	pulse	0	t		38.0	2.5	/experiments/knapen_AOT/AOT_stimuli/rescaled_final/1389_rv.mp4	0.0	205.62389063835144	
40	189.61156368255615	movie	1		268	38.0	2.5	/experiments/knapen_AOT/AOT_stimuli/rescaled_final/1389_rv.mp4	0.0	206.44867539405823	2.4920313358306885
40	190.3869378566742	pulse	1	t		38.0	2.5	/experiments/knapen_AOT/AOT_stimuli/rescaled_final/1389_rv.mp4	0.0	207.22404956817627	
40	191.9851598739624	pulse	1	t		38.0	2.5	/experiments/knapen_AOT/AOT_stimuli/rescaled_final/1389_rv.mp4	0.0	208.82227158546448	
40	192.10359501838684	fix_post	2		12	38.0	2.5	/experiments/knapen_AOT/AOT_stimuli/rescaled_final/1389_rv.mp4	0.0	208.94070672988892	0.1000220775604248
41	192.20361709594727	fix_pre	0		120	39.0	2.5	/experiments/knapen_AOT/AOT_stimuli/rescaled_final/1458_rv.mp4	0.0	209.04072880744934	1.0085630416870117
41	193.21218013763428	movie	1		275	39.0	2.5	/experiments/knapen_AOT/AOT_stimuli/rescaled_final/1458_rv.mp4	0.0	210.04929184913635	2.492006301879883
41	193.58595871925354	pulse	1	t		39.0	2.5	/experiments/knapen_AOT/AOT_stimuli/rescaled_final/1458_rv.mp4	0.0	210.42307043075562	
41	195.18791818618774	pulse	1	t		39.0	2.5	/experiments/knapen_AOT/AOT_stimuli/rescaled_final/1458_rv.mp4	0.0	212.02502989768982	
41	195.70418643951416	fix_post	2		12	39.0	2.5	/experiments/knapen_AOT/AOT_stimuli/rescaled_final/1458_rv.mp4	0.0	212.54129815101624	0.09999585151672363
42	195.80418229103088	fix_pre	0		119	40.0	2.5	/experiments/knapen_AOT/AOT_stimuli/rescaled_final/1846_fw.mp4	0.0	212.64129400253296	1.0001678466796875
42	196.77994966506958	pulse	0	t		40.0	2.5	/experiments/knapen_AOT/AOT_stimuli/rescaled_final/1846_fw.mp4	0.0	213.61706137657166	
42	196.80435013771057	movie	1		289	40.0	2.5	/experiments/knapen_AOT/AOT_stimuli/rescaled_final/1846_fw.mp4	0.0	213.64146184921265	2.5003161430358887
42	198.3801829814911	pulse	1	t		40.0	2.5	/experiments/knapen_AOT/AOT_stimuli/rescaled_final/1846_fw.mp4	0.0	215.21729469299316	
42	199.30466628074646	fix_post	2		12	40.0	2.5	/experiments/knapen_AOT/AOT_stimuli/rescaled_final/1846_fw.mp4	0.0	216.14177799224854	0.1000814437866211
43	199.40474772453308	fix_pre	0		120	41.0	2.5	blank	1.0	216.24185943603516	1.0000970363616943
43	199.98010873794556	pulse	0	t		41.0	2.5	blank	1.0	216.81722044944763	
43	200.40484476089478	movie	1		300	41.0	2.5	blank	1.0	217.24195647239685	2.500391960144043
43	201.58029699325562	pulse	1	t		41.0	2.5	blank	1.0	218.4174087047577	
43	202.90523672103882	fix_post	2		12	41.0	2.5	blank	1.0	219.7423484325409	0.10002970695495605
44	203.00526642799377	fix_pre	0		120	42.0	2.5	/experiments/knapen_AOT/AOT_stimuli/rescaled_final/0915_fw.mp4	0.0	219.84237813949585	1.0084559917449951
44	203.18049025535583	pulse	0	t		42.0	2.5	/experiments/knapen_AOT/AOT_stimuli/rescaled_final/0915_fw.mp4	0.0	220.0176019668579	
44	204.01372241973877	movie	1		290	42.0	2.5	/experiments/knapen_AOT/AOT_stimuli/rescaled_final/0915_fw.mp4	0.0	220.85083413124084	2.492050886154175
44	204.7807261943817	pulse	1	t		42.0	2.5	/experiments/knapen_AOT/AOT_stimuli/rescaled_final/0915_fw.mp4	0.0	221.6178379058838	
44	206.38095712661743	pulse	1	t		42.0	2.5	/experiments/knapen_AOT/AOT_stimuli/rescaled_final/0915_fw.mp4	0.0	223.2180688381195	
44	206.50577330589294	fix_post	2		12	42.0	2.5	/experiments/knapen_AOT/AOT_stimuli/rescaled_final/0915_fw.mp4	0.0	223.34288501739502	0.10001492500305176
45	206.605788230896	fix_pre	0		120	43.0	2.5	/experiments/knapen_AOT/AOT_stimuli/rescaled_final/0919_rv.mp4	0.0	223.44289994239807	1.008495569229126
45	207.61428380012512	movie	1		273	43.0	2.5	/experiments/knapen_AOT/AOT_stimuli/rescaled_final/0919_rv.mp4	0.0	224.4513955116272	2.492063045501709
45	207.98134303092957	pulse	1	t		43.0	2.5	/experiments/knapen_AOT/AOT_stimuli/rescaled_final/0919_rv.mp4	0.0	224.81845474243164	
45	209.58154773712158	pulse	1	t		43.0	2.5	/experiments/knapen_AOT/AOT_stimuli/rescaled_final/0919_rv.mp4	0.0	226.41865944862366	
45	210.10634684562683	fix_post	2		12	43.0	2.5	/experiments/knapen_AOT/AOT_stimuli/rescaled_final/0919_rv.mp4	0.0	226.9434585571289	0.10000801086425781
46	210.2063548564911	fix_pre	0		118	44.0	2.5	/experiments/knapen_AOT/AOT_stimuli/rescaled_final/2024_fw.mp4	0.0	227.04346656799316	0.9920816421508789
46	211.1817271709442	pulse	0	t		44.0	2.5	/experiments/knapen_AOT/AOT_stimuli/rescaled_final/2024_fw.mp4	0.0	228.0188388824463	
46	211.19843649864197	movie	1		285	44.0	2.5	/experiments/knapen_AOT/AOT_stimuli/rescaled_final/2024_fw.mp4	0.0	228.03554821014404	2.5000722408294678
46	212.78078436851501	pulse	1	t		44.0	2.5	/experiments/knapen_AOT/AOT_stimuli/rescaled_final/2024_fw.mp4	0.0	229.6178960800171	
46	213.69850873947144	fix_post	2		12	44.0	2.5	/experiments/knapen_AOT/AOT_stimuli/rescaled_final/2024_fw.mp4	0.0	230.5356204509735	0.10001373291015625
47	213.7985224723816	fix_pre	0		120	45.0	2.5	/experiments/knapen_AOT/AOT_stimuli/rescaled_final/1919_rv.mp4	0.0	230.63563418388367	1.0085415840148926
47	214.38216137886047	pulse	0	t		45.0	2.5	/experiments/knapen_AOT/AOT_stimuli/rescaled_final/1919_rv.mp4	0.0	231.21927309036255	
47	214.80706405639648	movie	1		272	45.0	2.5	/experiments/knapen_AOT/AOT_stimuli/rescaled_final/1919_rv.mp4	0.0	231.64417576789856	2.5004045963287354
47	215.98256397247314	pulse	1	t		45.0	2.5	/experiments/knapen_AOT/AOT_stimuli/rescaled_final/1919_rv.mp4	0.0	232.81967568397522	
47	217.30746865272522	fix_post	2		11	45.0	2.5	/experiments/knapen_AOT/AOT_stimuli/rescaled_final/1919_rv.mp4	0.0	234.1445803642273	0.09159159660339355
48	217.3990602493286	fix_pre	0		120	46.0	2.5	/experiments/knapen_AOT/AOT_stimuli/rescaled_final/1974_rv.mp4	0.0	234.2361719608307	1.0084798336029053
48	217.58288955688477	pulse	0	t		46.0	2.5	/experiments/knapen_AOT/AOT_stimuli/rescaled_final/1974_rv.mp4	0.0	234.42000126838684	
48	218.40754008293152	movie	1		260	46.0	2.5	/experiments/knapen_AOT/AOT_stimuli/rescaled_final/1974_rv.mp4	0.0	235.2446517944336	2.492046356201172
48	219.18080472946167	pulse	1	t		46.0	2.5	/experiments/knapen_AOT/AOT_stimuli/rescaled_final/1974_rv.mp4	0.0	236.01791644096375	
48	220.78085350990295	pulse	1	t		46.0	2.5	/experiments/knapen_AOT/AOT_stimuli/rescaled_final/1974_rv.mp4	0.0	237.61796522140503	
48	220.8995864391327	fix_post	2		12	46.0	2.5	/experiments/knapen_AOT/AOT_stimuli/rescaled_final/1974_rv.mp4	0.0	237.73669815063477	0.10001063346862793
49	220.99959707260132	fix_pre	0		120	47.0	2.5	/experiments/knapen_AOT/AOT_stimuli/rescaled_final/1231_fw.mp4	0.0	237.8367087841034	1.008521556854248
49	222.00811862945557	movie	1		268	47.0	2.5	/experiments/knapen_AOT/AOT_stimuli/rescaled_final/1231_fw.mp4	0.0	238.84523034095764	2.4919984340667725
49	222.3828682899475	pulse	1	t		47.0	2.5	/experiments/knapen_AOT/AOT_stimuli/rescaled_final/1231_fw.mp4	0.0	239.21998000144958	
49	223.98128199577332	pulse	1	t		47.0	2.5	/experiments/knapen_AOT/AOT_stimuli/rescaled_final/1231_fw.mp4	0.0	240.8183937072754	
49	224.50011706352234	fix_post	2		12	47.0	2.5	/experiments/knapen_AOT/AOT_stimuli/rescaled_final/1231_fw.mp4	0.0	241.3372287750244	0.10005688667297363
50	224.6001739501953	fix_pre	0		119	48.0	2.5	blank	1.0	241.4372856616974	0.9917707443237305
50	225.5838737487793	pulse	0	t		48.0	2.5	blank	1.0	242.42098546028137	
50	225.59194469451904	movie	1		301	48.0	2.5	blank	1.0	242.42905640602112	2.5087153911590576
50	227.18424034118652	pulse	1	t		48.0	2.5	blank	1.0	244.0213520526886	
50	228.1006600856781	fix_post	2		12	48.0	2.5	blank	1.0	244.93777179718018	0.10002708435058594
51	228.2006871700287	fix_pre	0		120	49.0	2.5	/experiments/knapen_AOT/AOT_stimuli/rescaled_final/1424_rv.mp4	0.0	245.03779888153076	1.008498191833496
51	228.78431248664856	pulse	0	t		49.0	2.5	/experiments/knapen_AOT/AOT_stimuli/rescaled_final/1424_rv.mp4	0.0	245.62142419815063	
51	229.20918536186218	movie	1		267	49.0	2.5	/experiments/knapen_AOT/AOT_stimuli/rescaled_final/1424_rv.mp4	0.0	246.04629707336426	2.492143154144287
51	230.3841450214386	pulse	1	t		49.0	2.5	/experiments/knapen_AOT/AOT_stimuli/rescaled_final/1424_rv.mp4	0.0	247.22125673294067	
51	231.70132851600647	fix_post	2		12	49.0	2.5	/experiments/knapen_AOT/AOT_stimuli/rescaled_final/1424_rv.mp4	0.0	248.53844022750854	0.09989762306213379
52	231.8012261390686	fix_pre	0		120	50.0	2.5	/experiments/knapen_AOT/AOT_stimuli/rescaled_final/2079_rv.mp4	0.0	248.63833785057068	1.0084800720214844
52	231.98481464385986	pulse	0	t		50.0	2.5	/experiments/knapen_AOT/AOT_stimuli/rescaled_final/2079_rv.mp4	0.0	248.82192635536194	
52	232.8097062110901	movie	1		262	50.0	2.5	/experiments/knapen_AOT/AOT_stimuli/rescaled_final/2079_rv.mp4	0.0	249.64681792259216	2.492084264755249
52	233.58424496650696	pulse	1	t		50.0	2.5	/experiments/knapen_AOT/AOT_stimuli/rescaled_final/2079_rv.mp4	0.0	250.42135667800903	
52	235.18308877944946	pulse	1	t		50.0	2.5	/experiments/knapen_AOT/AOT_stimuli/rescaled_final/2079_rv.mp4	0.0	252.02020049095154	
52	235.30179047584534	fix_post	2		12	50.0	2.5	/experiments/knapen_AOT/AOT_stimuli/rescaled_final/2079_rv.mp4	0.0	252.1389021873474	0.09998035430908203
53	235.40177083015442	fix_pre	0		120	51.0	2.5	/experiments/knapen_AOT/AOT_stimuli/rescaled_final/1511_fw.mp4	0.0	252.2388825416565	1.0084989070892334
53	236.41026973724365	movie	1		285	51.0	2.5	/experiments/knapen_AOT/AOT_stimuli/rescaled_final/1511_fw.mp4	0.0	253.24738144874573	2.492007255554199
53	236.7837097644806	pulse	1	t		51.0	2.5	/experiments/knapen_AOT/AOT_stimuli/rescaled_final/1511_fw.mp4	0.0	253.62082147598267	
53	238.38373374938965	pulse	1	t		51.0	2.5	/experiments/knapen_AOT/AOT_stimuli/rescaled_final/1511_fw.mp4	0.0	255.22084546089172	
53	238.90227699279785	fix_post	2		12	51.0	2.5	/experiments/knapen_AOT/AOT_stimuli/rescaled_final/1511_fw.mp4	0.0	255.73938870429993	0.10002636909484863
54	239.0023033618927	fix_pre	0		119	52.0	2.5	/experiments/knapen_AOT/AOT_stimuli/rescaled_final/2047_fw.mp4	0.0	255.83941507339478	1.0085968971252441
54	239.98609161376953	pulse	0	t		52.0	2.5	/experiments/knapen_AOT/AOT_stimuli/rescaled_final/2047_fw.mp4	0.0	256.8232033252716	
54	240.01090025901794	movie	1		288	52.0	2.5	/experiments/knapen_AOT/AOT_stimuli/rescaled_final/2047_fw.mp4	0.0	256.84801197052	2.4919309616088867
54	241.58471012115479	pulse	1	t		52.0	2.5	/experiments/knapen_AOT/AOT_stimuli/rescaled_final/2047_fw.mp4	0.0	258.42182183265686	
54	242.50283122062683	fix_post	2		12	52.0	2.5	/experiments/knapen_AOT/AOT_stimuli/rescaled_final/2047_fw.mp4	0.0	259.3399429321289	0.10007143020629883
55	242.60290265083313	fix_pre	0		120	53.0	2.5	/experiments/knapen_AOT/AOT_stimuli/rescaled_final/2024_rv.mp4	0.0	259.4400143623352	1.0084388256072998
55	243.1865472793579	pulse	0	t		53.0	2.5	/experiments/knapen_AOT/AOT_stimuli/rescaled_final/2024_rv.mp4	0.0	260.02365899086	
55	243.61134147644043	movie	1		275	53.0	2.5	/experiments/knapen_AOT/AOT_stimuli/rescaled_final/2024_rv.mp4	0.0	260.4484531879425	2.492015838623047
55	244.78540515899658	pulse	1	t		53.0	2.5	/experiments/knapen_AOT/AOT_stimuli/rescaled_final/2024_rv.mp4	0.0	261.62251687049866	
55	246.10335731506348	fix_post	2		12	53.0	2.5	/experiments/knapen_AOT/AOT_stimuli/rescaled_final/2024_rv.mp4	0.0	262.94046902656555	0.1000208854675293
56	246.203378200531	fix_pre	0		120	54.0	2.5	/experiments/knapen_AOT/AOT_stimuli/rescaled_final/1092_fw.mp4	0.0	263.0404899120331	1.0084974765777588
56	246.37950730323792	pulse	0	t		54.0	2.5	/experiments/knapen_AOT/AOT_stimuli/rescaled_final/1092_fw.mp4	0.0	263.21661901474	
56	247.21187567710876	movie	1		284	54.0	2.5	/experiments/knapen_AOT/AOT_stimuli/rescaled_final/1092_fw.mp4	0.0	264.04898738861084	2.492037296295166
56	247.98555183410645	pulse	1	t		54.0	2.5	/experiments/knapen_AOT/AOT_stimuli/rescaled_final/1092_fw.mp4	0.0	264.8226635456085	
56	249.57928657531738	pulse	1	t		54.0	2.5	/experiments/knapen_AOT/AOT_stimuli/rescaled_final/1092_fw.mp4	0.0	266.41639828681946	
56	249.70391297340393	fix_post	2		12	54.0	2.5	/experiments/knapen_AOT/AOT_stimuli/rescaled_final/1092_fw.mp4	0.0	266.541024684906	0.10001444816589355
57	249.80392742156982	fix_pre	0		120	55.0	2.5	blank	1.0	266.6410391330719	1.0001516342163086
57	250.80407905578613	movie	1		300	55.0	2.5	blank	1.0	267.6411907672882	2.5003888607025146
57	251.17932319641113	pulse	1	t		55.0	2.5	blank	1.0	268.0164349079132	
57	252.7796552181244	pulse	1	t		55.0	2.5	blank	1.0	269.61676692962646	
57	253.30446791648865	fix_post	2		12	55.0	2.5	blank	1.0	270.1415796279907	0.10002803802490234
58	253.40449595451355	fix_pre	0		118	56.0	2.5	/experiments/knapen_AOT/AOT_stimuli/rescaled_final/0243_fw.mp4	0.0	270.2416076660156	0.9919002056121826
58	254.38047671318054	pulse	0	t		56.0	2.5	/experiments/knapen_AOT/AOT_stimuli/rescaled_final/0243_fw.mp4	0.0	271.2175884246826	
58	254.39639616012573	movie	1		281	56.0	2.5	/experiments/knapen_AOT/AOT_stimuli/rescaled_final/0243_fw.mp4	0.0	271.2335078716278	2.5002613067626953
58	255.98027276992798	pulse	1	t		56.0	2.5	/experiments/knapen_AOT/AOT_stimuli/rescaled_final/0243_fw.mp4	0.0	272.81738448143005	
58	256.8966574668884	fix_post	2		12	56.0	2.5	/experiments/knapen_AOT/AOT_stimuli/rescaled_final/0243_fw.mp4	0.0	273.7337691783905	0.10002589225769043
59	256.9966833591461	fix_pre	0		120	57.0	2.5	/experiments/knapen_AOT/AOT_stimuli/rescaled_final/1306_fw.mp4	0.0	273.8337950706482	1.008481502532959
59	257.5802655220032	pulse	0	t		57.0	2.5	/experiments/knapen_AOT/AOT_stimuli/rescaled_final/1306_fw.mp4	0.0	274.41737723350525	
59	258.0051648616791	movie	1		285	57.0	2.5	/experiments/knapen_AOT/AOT_stimuli/rescaled_final/1306_fw.mp4	0.0	274.84227657318115	2.492030143737793
59	259.18091082572937	pulse	1	t		57.0	2.5	/experiments/knapen_AOT/AOT_stimuli/rescaled_final/1306_fw.mp4	0.0	276.01802253723145	
59	260.49719500541687	fix_post	2		12	57.0	2.5	/experiments/knapen_AOT/AOT_stimuli/rescaled_final/1306_fw.mp4	0.0	277.33430671691895	0.10001850128173828
60	260.5972135066986	fix_pre	0		120	58.0	2.5	/experiments/knapen_AOT/AOT_stimuli/rescaled_final/0519_rv.mp4	0.0	277.4343252182007	1.0085198879241943
60	260.78085136413574	pulse	0	t		58.0	2.5	/experiments/knapen_AOT/AOT_stimuli/rescaled_final/0519_rv.mp4	0.0	277.6179630756378	
60	261.6057333946228	movie	1		276	58.0	2.5	/experiments/knapen_AOT/AOT_stimuli/rescaled_final/0519_rv.mp4	0.0	278.4428451061249	2.492013931274414
60	262.3810749053955	pulse	1	t		58.0	2.5	/experiments/knapen_AOT/AOT_stimuli/rescaled_final/0519_rv.mp4	0.0	279.2181866168976	
60	263.9812865257263	pulse	1	t		58.0	2.5	/experiments/knapen_AOT/AOT_stimuli/rescaled_final/0519_rv.mp4	0.0	280.8183982372284	
60	264.0977473258972	fix_post	2		12	58.0	2.5	/experiments/knapen_AOT/AOT_stimuli/rescaled_final/0519_rv.mp4	0.0	280.9348590373993	0.10002851486206055
61	264.1977758407593	fix_pre	0		120	59.0	2.5	/experiments/knapen_AOT/AOT_stimuli/rescaled_final/1034_fw.mp4	0.0	281.03488755226135	1.0084741115570068
61	265.2062499523163	movie	1		270	59.0	2.5	/experiments/knapen_AOT/AOT_stimuli/rescaled_final/1034_fw.mp4	0.0	282.04336166381836	2.4920260906219482
61	265.58173298835754	pulse	1	t		59.0	2.5	/experiments/knapen_AOT/AOT_stimuli/rescaled_final/1034_fw.mp4	0.0	282.4188446998596	
61	267.17946696281433	pulse	1	t		59.0	2.5	/experiments/knapen_AOT/AOT_stimuli/rescaled_final/1034_fw.mp4	0.0	284.0165786743164	
61	267.69827604293823	fix_post	2		12	59.0	2.5	/experiments/knapen_AOT/AOT_stimuli/rescaled_final/1034_fw.mp4	0.0	284.5353877544403	0.10001778602600098
62	267.79829382896423	fix_pre	0		119	60.0	2.5	/experiments/knapen_AOT/AOT_stimuli/rescaled_final/0785_rv.mp4	0.0	284.6354055404663	1.0001356601715088
62	268.78241991996765	pulse	0	t		60.0	2.5	/experiments/knapen_AOT/AOT_stimuli/rescaled_final/0785_rv.mp4	0.0	285.6195316314697	
62	268.79842948913574	movie	1		286	60.0	2.5	/experiments/knapen_AOT/AOT_stimuli/rescaled_final/0785_rv.mp4	0.0	285.6355412006378	2.5005409717559814
62	270.38086438179016	pulse	1	t		60.0	2.5	/experiments/knapen_AOT/AOT_stimuli/rescaled_final/0785_rv.mp4	0.0	287.21797609329224	
62	271.2989704608917	fix_post	2		12	60.0	2.5	/experiments/knapen_AOT/AOT_stimuli/rescaled_final/0785_rv.mp4	0.0	288.1360821723938	0.09989380836486816
63	271.3988642692566	fix_pre	0		120	61.0	2.5	/experiments/knapen_AOT/AOT_stimuli/rescaled_final/1581_rv.mp4	0.0	288.23597598075867	1.0085053443908691
63	271.9826157093048	pulse	0	t		61.0	2.5	/experiments/knapen_AOT/AOT_stimuli/rescaled_final/1581_rv.mp4	0.0	288.8197274208069	
63	272.40736961364746	movie	1		284	61.0	2.5	/experiments/knapen_AOT/AOT_stimuli/rescaled_final/1581_rv.mp4	0.0	289.24448132514954	2.4919838905334473
63	273.5828261375427	pulse	1	t		61.0	2.5	/experiments/knapen_AOT/AOT_stimuli/rescaled_final/1581_rv.mp4	0.0	290.4199378490448	
63	274.8993535041809	fix_post	2		12	61.0	2.5	/experiments/knapen_AOT/AOT_stimuli/rescaled_final/1581_rv.mp4	0.0	291.736465215683	0.10000872611999512
64	274.9993622303009	fix_pre	0		120	62.0	2.5	/experiments/knapen_AOT/AOT_stimuli/rescaled_final/0740_rv.mp4	0.0	291.836473941803	1.0085325241088867
64	275.1828954219818	pulse	0	t		62.0	2.5	/experiments/knapen_AOT/AOT_stimuli/rescaled_final/0740_rv.mp4	0.0	292.0200071334839	
64	276.0078947544098	movie	1		289	62.0	2.5	/experiments/knapen_AOT/AOT_stimuli/rescaled_final/0740_rv.mp4	0.0	292.84500646591187	2.4920334815979004
64	276.7810232639313	pulse	1	t		62.0	2.5	/experiments/knapen_AOT/AOT_stimuli/rescaled_final/0740_rv.mp4	0.0	293.61813497543335	
64	278.3815553188324	pulse	1	t		62.0	2.5	/experiments/knapen_AOT/AOT_stimuli/rescaled_final/0740_rv.mp4	0.0	295.2186670303345	
64	278.4999282360077	fix_post	2		12	62.0	2.5	/experiments/knapen_AOT/AOT_stimuli/rescaled_final/0740_rv.mp4	0.0	295.33703994750977	0.1000368595123291
65	278.59996509552	fix_pre	0		120	63.0	2.5	blank	1.0	295.4370768070221	1.0000934600830078
65	279.600058555603	movie	1		300	63.0	2.5	blank	1.0	296.4371702671051	2.5005040168762207
65	279.98364639282227	pulse	1	t		63.0	2.5	blank	1.0	296.82075810432434	
65	281.5839729309082	pulse	1	t		63.0	2.5	blank	1.0	298.4210846424103	
65	282.10056257247925	fix_post	2		12	63.0	2.5	blank	1.0	298.9376742839813	0.09989142417907715
66	282.2004539966583	fix_pre	0		119	64.0	2.5	/experiments/knapen_AOT/AOT_stimuli/rescaled_final/0604_rv.mp4	0.0	299.0375657081604	1.0001559257507324
66	283.18426513671875	pulse	0	t		64.0	2.5	/experiments/knapen_AOT/AOT_stimuli/rescaled_final/0604_rv.mp4	0.0	300.0213768482208	
66	283.20060992240906	movie	1		285	64.0	2.5	/experiments/knapen_AOT/AOT_stimuli/rescaled_final/0604_rv.mp4	0.0	300.03772163391113	2.5003693103790283
66	284.78281259536743	pulse	1	t		64.0	2.5	/experiments/knapen_AOT/AOT_stimuli/rescaled_final/0604_rv.mp4	0.0	301.6199243068695	
66	285.7009792327881	fix_post	2		12	64.0	2.5	/experiments/knapen_AOT/AOT_stimuli/rescaled_final/0604_rv.mp4	0.0	302.53809094429016	0.1000511646270752
67	285.80103039741516	fix_pre	0		120	65.0	2.5	/experiments/knapen_AOT/AOT_stimuli/rescaled_final/1352_fw.mp4	0.0	302.63814210891724	1.0085828304290771
67	286.3847692012787	pulse	0	t		65.0	2.5	/experiments/knapen_AOT/AOT_stimuli/rescaled_final/1352_fw.mp4	0.0	303.22188091278076	
67	286.80961322784424	movie	1		286	65.0	2.5	/experiments/knapen_AOT/AOT_stimuli/rescaled_final/1352_fw.mp4	0.0	303.6467249393463	2.4919300079345703
67	287.9841482639313	pulse	1	t		65.0	2.5	/experiments/knapen_AOT/AOT_stimuli/rescaled_final/1352_fw.mp4	0.0	304.82125997543335	
67	289.3015432357788	fix_post	2		12	65.0	2.5	/experiments/knapen_AOT/AOT_stimuli/rescaled_final/1352_fw.mp4	0.0	306.1386549472809	0.0999903678894043
68	289.4015336036682	fix_pre	0		120	66.0	2.5	/experiments/knapen_AOT/AOT_stimuli/rescaled_final/0779_rv.mp4	0.0	306.2386453151703	1.0085182189941406
68	289.58514857292175	pulse	0	t		66.0	2.5	/experiments/knapen_AOT/AOT_stimuli/rescaled_final/0779_rv.mp4	0.0	306.4222602844238	
68	290.41005182266235	movie	1		291	66.0	2.5	/experiments/knapen_AOT/AOT_stimuli/rescaled_final/0779_rv.mp4	0.0	307.24716353416443	2.4920103549957275
68	291.1836099624634	pulse	1	t		66.0	2.5	/experiments/knapen_AOT/AOT_stimuli/rescaled_final/0779_rv.mp4	0.0	308.02072167396545	
68	292.78464818000793	pulse	1	t		66.0	2.5	/experiments/knapen_AOT/AOT_stimuli/rescaled_final/0779_rv.mp4	0.0	309.62175989151	
68	292.9020621776581	fix_post	2		12	66.0	2.5	/experiments/knapen_AOT/AOT_stimuli/rescaled_final/0779_rv.mp4	0.0	309.73917388916016	0.10002779960632324
69	293.0020899772644	fix_pre	0		120	67.0	2.5	/experiments/knapen_AOT/AOT_stimuli/rescaled_final/2069_fw.mp4	0.0	309.8392016887665	1.0084972381591797
69	294.0105872154236	movie	1		278	67.0	2.5	/experiments/knapen_AOT/AOT_stimuli/rescaled_final/2069_fw.mp4	0.0	310.84769892692566	2.4920082092285156
69	294.3865485191345	pulse	1	t		67.0	2.5	/experiments/knapen_AOT/AOT_stimuli/rescaled_final/2069_fw.mp4	0.0	311.2236602306366	
69	295.9840383529663	pulse	1	t		67.0	2.5	/experiments/knapen_AOT/AOT_stimuli/rescaled_final/2069_fw.mp4	0.0	312.8211500644684	
69	296.5025954246521	fix_post	2		12	67.0	2.5	/experiments/knapen_AOT/AOT_stimuli/rescaled_final/2069_fw.mp4	0.0	313.3397071361542	0.10002350807189941
70	296.602618932724	fix_pre	0		119	68.0	2.5	/experiments/knapen_AOT/AOT_stimuli/rescaled_final/0333_rv.mp4	0.0	313.4397306442261	1.0001769065856934
70	297.5864040851593	pulse	0	t		68.0	2.5	/experiments/knapen_AOT/AOT_stimuli/rescaled_final/0333_rv.mp4	0.0	314.4235157966614	
70	297.6027958393097	movie	1		278	68.0	2.5	/experiments/knapen_AOT/AOT_stimuli/rescaled_final/0333_rv.mp4	0.0	314.43990755081177	2.5003578662872314
70	299.18490982055664	pulse	1	t		68.0	2.5	/experiments/knapen_AOT/AOT_stimuli/rescaled_final/0333_rv.mp4	0.0	316.0220215320587	
70	300.1031537055969	fix_post	2		12	68.0	2.5	/experiments/knapen_AOT/AOT_stimuli/rescaled_final/0333_rv.mp4	0.0	316.940265417099	0.10001397132873535
71	300.20316767692566	fix_pre	0		120	69.0	2.5	blank	1.0	317.04027938842773	1.0001955032348633
71	300.7870626449585	pulse	0	t		69.0	2.5	blank	1.0	317.62417435646057	
71	301.2033631801605	movie	1		300	69.0	2.5	blank	1.0	318.0404748916626	2.5003111362457275
71	302.3870859146118	pulse	1	t		69.0	2.5	blank	1.0	319.2241976261139	
71	303.70367431640625	fix_post	2		12	69.0	2.5	blank	1.0	320.5407860279083	0.1000216007232666
72	303.8036959171295	fix_pre	0		120	70.0	2.5	/experiments/knapen_AOT/AOT_stimuli/rescaled_final/0976_rv.mp4	0.0	320.6408076286316	1.0085248947143555
72	303.98725295066833	pulse	0	t		70.0	2.5	/experiments/knapen_AOT/AOT_stimuli/rescaled_final/0976_rv.mp4	0.0	320.8243646621704	
72	304.8122208118439	movie	1		275	70.0	2.5	/experiments/knapen_AOT/AOT_stimuli/rescaled_final/0976_rv.mp4	0.0	321.64933252334595	2.4920427799224854
72	305.5870485305786	pulse	1	t		70.0	2.5	/experiments/knapen_AOT/AOT_stimuli/rescaled_final/0976_rv.mp4	0.0	322.4241602420807	
72	307.18088269233704	pulse	1	t		70.0	2.5	/experiments/knapen_AOT/AOT_stimuli/rescaled_final/0976_rv.mp4	0.0	324.0179944038391	
72	307.30426359176636	fix_post	2		12	70.0	2.5	/experiments/knapen_AOT/AOT_stimuli/rescaled_final/0976_rv.mp4	0.0	324.14137530326843	0.10008716583251953
73	307.4043507575989	fix_pre	0		120	71.0	2.5	/experiments/knapen_AOT/AOT_stimuli/rescaled_final/1897_fw.mp4	0.0	324.24146246910095	1.0084218978881836
73	308.41277265548706	movie	1		288	71.0	2.5	/experiments/knapen_AOT/AOT_stimuli/rescaled_final/1897_fw.mp4	0.0	325.24988436698914	2.4920032024383545
73	308.77981662750244	pulse	1	t		71.0	2.5	/experiments/knapen_AOT/AOT_stimuli/rescaled_final/1897_fw.mp4	0.0	325.6169283390045	
73	310.3799045085907	pulse	1	t		71.0	2.5	/experiments/knapen_AOT/AOT_stimuli/rescaled_final/1897_fw.mp4	0.0	327.2170162200928	
73	310.9047758579254	fix_post	2		12	71.0	2.5	/experiments/knapen_AOT/AOT_stimuli/rescaled_final/1897_fw.mp4	0.0	327.7418875694275	0.10002279281616211
74	311.0047986507416	fix_pre	0		118	72.0	2.5	/experiments/knapen_AOT/AOT_stimuli/rescaled_final/0938_fw.mp4	0.0	327.84191036224365	0.9918034076690674
74	311.9801597595215	pulse	0	t		72.0	2.5	/experiments/knapen_AOT/AOT_stimuli/rescaled_final/0938_fw.mp4	0.0	328.81727147102356	
74	311.99660205841064	movie	1		274	72.0	2.5	/experiments/knapen_AOT/AOT_stimuli/rescaled_final/0938_fw.mp4	0.0	328.8337137699127	2.5003390312194824
74	313.580486536026	pulse	1	t		72.0	2.5	/experiments/knapen_AOT/AOT_stimuli/rescaled_final/0938_fw.mp4	0.0	330.4175982475281	
74	314.4969410896301	fix_post	2		12	72.0	2.5	/experiments/knapen_AOT/AOT_stimuli/rescaled_final/0938_fw.mp4	0.0	331.3340528011322	0.10004591941833496
75	314.59698700904846	fix_pre	0		120	73.0	2.5	/experiments/knapen_AOT/AOT_stimuli/rescaled_final/0395_rv.mp4	0.0	331.43409872055054	1.008448600769043
75	315.18067264556885	pulse	0	t		73.0	2.5	/experiments/knapen_AOT/AOT_stimuli/rescaled_final/0395_rv.mp4	0.0	332.0177843570709	
75	315.6054356098175	movie	1		282	73.0	2.5	/experiments/knapen_AOT/AOT_stimuli/rescaled_final/0395_rv.mp4	0.0	332.4425473213196	2.4920661449432373
75	316.7808611392975	pulse	1	t		73.0	2.5	/experiments/knapen_AOT/AOT_stimuli/rescaled_final/0395_rv.mp4	0.0	333.61797285079956	
75	318.09750175476074	fix_post	2		12	73.0	2.5	/experiments/knapen_AOT/AOT_stimuli/rescaled_final/0395_rv.mp4	0.0	334.9346134662628	0.10007166862487793
76	318.1975734233856	fix_pre	0		120	74.0	2.5	/experiments/knapen_AOT/AOT_stimuli/rescaled_final/0743_fw.mp4	0.0	335.0346851348877	1.0084314346313477
76	318.3810889720917	pulse	0	t		74.0	2.5	/experiments/knapen_AOT/AOT_stimuli/rescaled_final/0743_fw.mp4	0.0	335.21820068359375	
76	319.20600485801697	movie	1		285	74.0	2.5	/experiments/knapen_AOT/AOT_stimuli/rescaled_final/0743_fw.mp4	0.0	336.04311656951904	2.4920549392700195
76	319.9814782142639	pulse	1	t		74.0	2.5	/experiments/knapen_AOT/AOT_stimuli/rescaled_final/0743_fw.mp4	0.0	336.818589925766	
76	321.5815567970276	pulse	1	t		74.0	2.5	/experiments/knapen_AOT/AOT_stimuli/rescaled_final/0743_fw.mp4	0.0	338.41866850852966	
76	321.698059797287	fix_post	2		12	74.0	2.5	/experiments/knapen_AOT/AOT_stimuli/rescaled_final/0743_fw.mp4	0.0	338.53517150878906	0.09996294975280762
77	321.7980227470398	fix_pre	0		120	75.0	2.5	blank	1.0	338.63513445854187	1.0001695156097412
77	322.79819226264954	movie	1		300	75.0	2.5	blank	1.0	339.6353039741516	2.5004048347473145
77	323.1819808483124	pulse	1	t		75.0	2.5	blank	1.0	340.01909255981445	
77	324.7820854187012	pulse	1	t		75.0	2.5	blank	1.0	341.61919713020325	
77	325.29859709739685	fix_post	2		12	75.0	2.5	blank	1.0	342.1357088088989	0.10002779960632324
78	325.3986248970032	fix_pre	0		119	76.0	2.5	/experiments/knapen_AOT/AOT_stimuli/rescaled_final/1872_rv.mp4	0.0	342.23573660850525	1.0001862049102783
78	326.38239645957947	pulse	0	t		76.0	2.5	/experiments/knapen_AOT/AOT_stimuli/rescaled_final/1872_rv.mp4	0.0	343.21950817108154	
78	326.39881110191345	movie	1		272	76.0	2.5	/experiments/knapen_AOT/AOT_stimuli/rescaled_final/1872_rv.mp4	0.0	343.2359228134155	2.500361919403076
78	327.9811198711395	pulse	1	t		76.0	2.5	/experiments/knapen_AOT/AOT_stimuli/rescaled_final/1872_rv.mp4	0.0	344.8182315826416	
78	328.8991730213165	fix_post	2		12	76.0	2.5	/experiments/knapen_AOT/AOT_stimuli/rescaled_final/1872_rv.mp4	0.0	345.7362847328186	0.0999760627746582
79	328.9991490840912	fix_pre	0		120	77.0	2.5	/experiments/knapen_AOT/AOT_stimuli/rescaled_final/1530_rv.mp4	0.0	345.83626079559326	1.0084819793701172
79	329.58285093307495	pulse	0	t		77.0	2.5	/experiments/knapen_AOT/AOT_stimuli/rescaled_final/1530_rv.mp4	0.0	346.419962644577	
79	330.0076310634613	movie	1		281	77.0	2.5	/experiments/knapen_AOT/AOT_stimuli/rescaled_final/1530_rv.mp4	0.0	346.8447427749634	2.492044448852539
79	331.1814522743225	pulse	1	t		77.0	2.5	/experiments/knapen_AOT/AOT_stimuli/rescaled_final/1530_rv.mp4	0.0	348.0185639858246	
79	332.49967551231384	fix_post	2		12	77.0	2.5	/experiments/knapen_AOT/AOT_stimuli/rescaled_final/1530_rv.mp4	0.0	349.3367872238159	0.10001373291015625
80	332.599689245224	fix_pre	0		120	78.0	2.5	/experiments/knapen_AOT/AOT_stimuli/rescaled_final/1396_fw.mp4	0.0	349.4368009567261	1.0085010528564453
80	332.78325033187866	pulse	0	t		78.0	2.5	/experiments/knapen_AOT/AOT_stimuli/rescaled_final/1396_fw.mp4	0.0	349.62036204338074	
80	333.60819029808044	movie	1		279	78.0	2.5	/experiments/knapen_AOT/AOT_stimuli/rescaled_final/1396_fw.mp4	0.0	350.4453020095825	2.492039918899536
80	334.38174080848694	pulse	1	t		78.0	2.5	/experiments/knapen_AOT/AOT_stimuli/rescaled_final/1396_fw.mp4	0.0	351.218852519989	
80	335.981929063797	pulse	1	t		78.0	2.5	/experiments/knapen_AOT/AOT_stimuli/rescaled_final/1396_fw.mp4	0.0	352.8190407752991	
80	336.10023021698	fix_post	2		12	78.0	2.5	/experiments/knapen_AOT/AOT_stimuli/rescaled_final/1396_fw.mp4	0.0	352.93734192848206	0.10000085830688477
81	336.20023107528687	fix_pre	0		120	79.0	2.5	/experiments/knapen_AOT/AOT_stimuli/rescaled_final/1388_fw.mp4	0.0	353.03734278678894	1.0084893703460693
81	337.20872044563293	movie	1		274	79.0	2.5	/experiments/knapen_AOT/AOT_stimuli/rescaled_final/1388_fw.mp4	0.0	354.045832157135	2.4920482635498047
81	337.58427453041077	pulse	1	t		79.0	2.5	/experiments/knapen_AOT/AOT_stimuli/rescaled_final/1388_fw.mp4	0.0	354.42138624191284	
81	339.18232798576355	pulse	1	t		79.0	2.5	/experiments/knapen_AOT/AOT_stimuli/rescaled_final/1388_fw.mp4	0.0	356.0194396972656	
81	339.70076870918274	fix_post	2		12	79.0	2.5	/experiments/knapen_AOT/AOT_stimuli/rescaled_final/1388_fw.mp4	0.0	356.5378804206848	0.10001230239868164
82	339.8007810115814	fix_pre	0		119	80.0	2.5	/experiments/knapen_AOT/AOT_stimuli/rescaled_final/2024_fw.mp4	0.0	356.6378927230835	1.0086109638214111
82	340.78458976745605	pulse	0	t		80.0	2.5	/experiments/knapen_AOT/AOT_stimuli/rescaled_final/2024_fw.mp4	0.0	357.62170147895813	
82	340.80939197540283	movie	1		282	80.0	2.5	/experiments/knapen_AOT/AOT_stimuli/rescaled_final/2024_fw.mp4	0.0	357.6465036869049	2.4919228553771973
82	342.38324332237244	pulse	1	t		80.0	2.5	/experiments/knapen_AOT/AOT_stimuli/rescaled_final/2024_fw.mp4	0.0	359.2203550338745	
82	343.30131483078003	fix_post	2		12	80.0	2.5	/experiments/knapen_AOT/AOT_stimuli/rescaled_final/2024_fw.mp4	0.0	360.1384265422821	0.10000300407409668
83	343.4013178348541	fix_pre	0		120	81.0	2.5	/experiments/knapen_AOT/AOT_stimuli/rescaled_final/1290_rv.mp4	0.0	360.2384295463562	1.0085170269012451
83	343.9849636554718	pulse	0	t		81.0	2.5	/experiments/knapen_AOT/AOT_stimuli/rescaled_final/1290_rv.mp4	0.0	360.8220753669739	
83	344.40983486175537	movie	1		283	81.0	2.5	/experiments/knapen_AOT/AOT_stimuli/rescaled_final/1290_rv.mp4	0.0	361.24694657325745	2.492013454437256
83	345.5833411216736	pulse	1	t		81.0	2.5	/experiments/knapen_AOT/AOT_stimuli/rescaled_final/1290_rv.mp4	0.0	362.42045283317566	
83	346.9018483161926	fix_post	2		12	81.0	2.5	/experiments/knapen_AOT/AOT_stimuli/rescaled_final/1290_rv.mp4	0.0	363.7389600276947	0.10017037391662598
84	347.00201869010925	fix_pre	0		120	82.0	2.5	/experiments/knapen_AOT/AOT_stimuli/rescaled_final/0434_fw.mp4	0.0	363.8391304016113	1.0083339214324951
84	347.1854922771454	pulse	0	t		82.0	2.5	/experiments/knapen_AOT/AOT_stimuli/rescaled_final/0434_fw.mp4	0.0	364.02260398864746	
84	348.01035261154175	movie	1		279	82.0	2.5	/experiments/knapen_AOT/AOT_stimuli/rescaled_final/0434_fw.mp4	0.0	364.8474643230438	2.4919936656951904
84	348.7837460041046	pulse	1	t		82.0	2.5	/experiments/knapen_AOT/AOT_stimuli/rescaled_final/0434_fw.mp4	0.0	365.6208577156067	
84	350.38388085365295	pulse	1	t		82.0	2.5	/experiments/knapen_AOT/AOT_stimuli/rescaled_final/0434_fw.mp4	0.0	367.22099256515503	
84	350.50234627723694	fix_post	2		12	82.0	2.5	/experiments/knapen_AOT/AOT_stimuli/rescaled_final/0434_fw.mp4	0.0	367.339457988739	0.10004663467407227
85	350.602392911911	fix_pre	0		120	83.0	2.5	blank	1.0	367.4395046234131	1.000162124633789
85	351.6025550365448	movie	1		300	83.0	2.5	blank	1.0	368.4396667480469	2.5003514289855957
85	351.98617911338806	pulse	1	t		83.0	2.5	blank	1.0	368.82329082489014	
85	353.58638310432434	pulse	1	t		83.0	2.5	blank	1.0	370.4234948158264	
85	354.1029064655304	fix_post	2		12	83.0	2.5	blank	1.0	370.94001817703247	0.1000363826751709
87	354.20294284820557	stim	0		1716					371.04005455970764	14.30214786529541
87	355.18670988082886	pulse	0	t						372.02382159233093	
87	356.78698444366455	pulse	0	t						373.6240961551666	
87	358.38737654685974	pulse	0	t						375.2244882583618	
87	359.98752880096436	pulse	0	t						376.82464051246643	
87	361.5877842903137	pulse	0	t						378.4248960018158	
87	363.18013882637024	pulse	0	t						380.0172505378723	
87	364.7804465293884	pulse	0	t						381.6175582408905	
87	366.3800723552704	pulse	0	t						383.21718406677246	
87	367.98020696640015	pulse	0	t						384.8173186779022	
