trial_nr	onset	event_type	phase	response	nr_frames	movie_index	movie_duration	movie_file	blank	onset_abs	duration
0	0.14998221397399902	stim	0		2					19.28248119354248	0.017102956771850586
0	0.1532270908355713	response	0	space						19.285726070404053	
1	0.1670851707458496	stim	0		2611					19.29958415031433	21.757129907608032
1	21.921333074569702	pulse	0	t						41.053832054138184	
1	21.924215078353882	stim	1		1717					41.05671405792236	14.308311939239502
1	23.516646146774292	pulse	1	t						42.64914512634277	
1	25.11742615699768	pulse	1	t						44.24992513656616	
1	26.71657419204712	pulse	1	t						45.8490731716156	
1	28.317439079284668	pulse	1	t						47.44993805885315	
1	29.916567087173462	pulse	1	t						49.04906606674194	
1	31.516496181488037	pulse	1	t						50.64899516105652	
1	33.11647701263428	pulse	1	t						52.24897599220276	
1	34.71650505065918	pulse	1	t						53.84900403022766	
2	36.232527017593384	fix_pre	0		11	0.0	2.5	/experiments/AOT/AOT_stimuli/rescaled_final/0757_rv.mp4	0.0	55.365025997161865	0.09218502044677734
2	36.31654715538025	pulse	0	t		0.0	2.5	/experiments/AOT/AOT_stimuli/rescaled_final/0757_rv.mp4	0.0	55.44904613494873	
2	36.32471203804016	movie	1		247	0.0	2.5	/experiments/AOT/AOT_stimuli/rescaled_final/0757_rv.mp4	0.0	55.45721101760864	2.5082311630249023
2	37.9160041809082	pulse	1	t		0.0	2.5	/experiments/AOT/AOT_stimuli/rescaled_final/0757_rv.mp4	0.0	57.048503160476685	
2	38.83294320106506	fix_post	2		12	0.0	2.5	/experiments/AOT/AOT_stimuli/rescaled_final/0757_rv.mp4	0.0	57.965442180633545	0.10001993179321289
3	38.932963132858276	fix_pre	0		120	1.0	2.5	/experiments/AOT/AOT_stimuli/rescaled_final/1728_fw.mp4	0.0	58.06546211242676	0.9999408721923828
3	39.51650619506836	pulse	0	t		1.0	2.5	/experiments/AOT/AOT_stimuli/rescaled_final/1728_fw.mp4	0.0	58.64900517463684	
3	39.93290400505066	movie	1		243	1.0	2.5	/experiments/AOT/AOT_stimuli/rescaled_final/1728_fw.mp4	0.0	59.06540298461914	2.500089168548584
3	41.11666512489319	pulse	1	t		1.0	2.5	/experiments/AOT/AOT_stimuli/rescaled_final/1728_fw.mp4	0.0	60.24916410446167	
3	42.43299317359924	fix_post	2		12	1.0	2.5	/experiments/AOT/AOT_stimuli/rescaled_final/1728_fw.mp4	0.0	61.565492153167725	0.09993696212768555
4	42.53293013572693	fix_pre	0		120	2.0	2.5	/experiments/AOT/AOT_stimuli/rescaled_final/0406_rv.mp4	0.0	61.66542911529541	1.0000898838043213
4	42.71737813949585	pulse	0	t		2.0	2.5	/experiments/AOT/AOT_stimuli/rescaled_final/0406_rv.mp4	0.0	61.84987711906433	
4	43.53302001953125	movie	1		242	2.0	2.5	/experiments/AOT/AOT_stimuli/rescaled_final/0406_rv.mp4	0.0	62.66551899909973	2.499958038330078
4	44.31743001937866	pulse	1	t		2.0	2.5	/experiments/AOT/AOT_stimuli/rescaled_final/0406_rv.mp4	0.0	63.449928998947144	
4	45.924856185913086	pulse	1	t		2.0	2.5	/experiments/AOT/AOT_stimuli/rescaled_final/0406_rv.mp4	0.0	65.05735516548157	
4	46.03297805786133	fix_post	2		12	2.0	2.5	/experiments/AOT/AOT_stimuli/rescaled_final/0406_rv.mp4	0.0	65.16547703742981	0.0999610424041748
5	46.1329391002655	fix_pre	0		120	3.0	2.5	/experiments/AOT/AOT_stimuli/rescaled_final/0851_fw.mp4	0.0	65.26543807983398	1.0000789165496826
5	47.133018016815186	movie	1		243	3.0	2.5	/experiments/AOT/AOT_stimuli/rescaled_final/0851_fw.mp4	0.0	66.26551699638367	2.4999489784240723
5	47.52483606338501	pulse	1	t		3.0	2.5	/experiments/AOT/AOT_stimuli/rescaled_final/0851_fw.mp4	0.0	66.65733504295349	
5	49.11638808250427	pulse	1	t		3.0	2.5	/experiments/AOT/AOT_stimuli/rescaled_final/0851_fw.mp4	0.0	68.24888706207275	
5	49.63296699523926	fix_post	2		12	3.0	2.5	/experiments/AOT/AOT_stimuli/rescaled_final/0851_fw.mp4	0.0	68.76546597480774	0.09996414184570312
6	49.73293113708496	fix_pre	0		119	4.0	2.5	/experiments/AOT/AOT_stimuli/rescaled_final/1047_rv.mp4	0.0	68.86543011665344	0.9916939735412598
6	50.716445207595825	pulse	0	t		4.0	2.5	/experiments/AOT/AOT_stimuli/rescaled_final/1047_rv.mp4	0.0	69.8489441871643	
6	50.72462511062622	movie	1		244	4.0	2.5	/experiments/AOT/AOT_stimuli/rescaled_final/1047_rv.mp4	0.0	69.8571240901947	2.5083560943603516
6	52.31601810455322	pulse	1	t		4.0	2.5	/experiments/AOT/AOT_stimuli/rescaled_final/1047_rv.mp4	0.0	71.4485170841217	
6	53.23298120498657	fix_post	2		12	4.0	2.5	/experiments/AOT/AOT_stimuli/rescaled_final/1047_rv.mp4	0.0	72.36548018455505	0.09993290901184082
7	53.33291411399841	fix_pre	0		120	5.0	2.5	/experiments/AOT/AOT_stimuli/rescaled_final/0625_fw.mp4	0.0	72.4654130935669	1.0001599788665771
7	53.916402101516724	pulse	0	t		5.0	2.5	/experiments/AOT/AOT_stimuli/rescaled_final/0625_fw.mp4	0.0	73.0489010810852	
7	54.33307409286499	movie	1		244	5.0	2.5	/experiments/AOT/AOT_stimuli/rescaled_final/0625_fw.mp4	0.0	73.46557307243347	2.4993700981140137
7	55.51640605926514	pulse	1	t		5.0	2.5	/experiments/AOT/AOT_stimuli/rescaled_final/0625_fw.mp4	0.0	74.64890503883362	
7	56.832444190979004	fix_post	2		12	5.0	2.5	/experiments/AOT/AOT_stimuli/rescaled_final/0625_fw.mp4	0.0	75.96494317054749	0.10006999969482422
8	56.93251419067383	fix_pre	0		120	6.0	2.5	blank	1.0	76.06501317024231	1.0004348754882812
8	57.11638808250427	pulse	0	t		6.0	2.5	blank	1.0	76.24888706207275	
8	57.93294906616211	movie	1		300	6.0	2.5	blank	1.0	77.06544804573059	2.4995479583740234
8	58.71694016456604	pulse	1	t		6.0	2.5	blank	1.0	77.84943914413452	
8	60.317185163497925	pulse	1	t		6.0	2.5	blank	1.0	79.4496841430664	
8	60.43249702453613	fix_post	2		12	6.0	2.5	blank	1.0	79.56499600410461	0.10042905807495117
9	60.532926082611084	fix_pre	0		120	7.0	2.5	/experiments/AOT/AOT_stimuli/rescaled_final/0798_fw.mp4	0.0	79.66542506217957	1.0000529289245605
9	61.532979011535645	movie	1		244	7.0	2.5	/experiments/AOT/AOT_stimuli/rescaled_final/0798_fw.mp4	0.0	80.66547799110413	2.4995200634002686
9	61.92469120025635	pulse	1	t		7.0	2.5	/experiments/AOT/AOT_stimuli/rescaled_final/0798_fw.mp4	0.0	81.05719017982483	
9	63.51719808578491	pulse	1	t		7.0	2.5	/experiments/AOT/AOT_stimuli/rescaled_final/0798_fw.mp4	0.0	82.6496970653534	
9	64.03249907493591	fix_post	2		12	7.0	2.5	/experiments/AOT/AOT_stimuli/rescaled_final/0798_fw.mp4	0.0	83.1649980545044	0.10037112236022949
10	64.13287019729614	fix_pre	0		119	8.0	2.5	/experiments/AOT/AOT_stimuli/rescaled_final/1981_rv.mp4	0.0	83.26536917686462	0.9915828704833984
10	65.11633706092834	pulse	0	t		8.0	2.5	/experiments/AOT/AOT_stimuli/rescaled_final/1981_rv.mp4	0.0	84.24883604049683	
10	65.12445306777954	movie	1		243	8.0	2.5	/experiments/AOT/AOT_stimuli/rescaled_final/1981_rv.mp4	0.0	84.25695204734802	2.5083789825439453
10	66.72476720809937	pulse	1	t		8.0	2.5	/experiments/AOT/AOT_stimuli/rescaled_final/1981_rv.mp4	0.0	85.85726618766785	
10	67.63283205032349	fix_post	2		12	8.0	2.5	/experiments/AOT/AOT_stimuli/rescaled_final/1981_rv.mp4	0.0	86.76533102989197	0.09998703002929688
11	67.73281908035278	fix_pre	0		120	9.0	2.5	/experiments/AOT/AOT_stimuli/rescaled_final/1676_fw.mp4	0.0	86.86531805992126	0.9999830722808838
11	68.31637215614319	pulse	0	t		9.0	2.5	/experiments/AOT/AOT_stimuli/rescaled_final/1676_fw.mp4	0.0	87.44887113571167	
11	68.73280215263367	movie	1		242	9.0	2.5	/experiments/AOT/AOT_stimuli/rescaled_final/1676_fw.mp4	0.0	87.86530113220215	2.499727964401245
11	69.916344165802	pulse	1	t		9.0	2.5	/experiments/AOT/AOT_stimuli/rescaled_final/1676_fw.mp4	0.0	89.04884314537048	
11	71.23253011703491	fix_post	2		12	9.0	2.5	/experiments/AOT/AOT_stimuli/rescaled_final/1676_fw.mp4	0.0	90.3650290966034	0.10027194023132324
12	71.33280205726624	fix_pre	0		120	10.0	2.5	/experiments/AOT/AOT_stimuli/rescaled_final/0162_rv.mp4	0.0	90.46530103683472	0.9996099472045898
12	71.5163300037384	pulse	0	t		10.0	2.5	/experiments/AOT/AOT_stimuli/rescaled_final/0162_rv.mp4	0.0	90.64882898330688	
12	72.33241200447083	movie	1		244	10.0	2.5	/experiments/AOT/AOT_stimuli/rescaled_final/0162_rv.mp4	0.0	91.4649109840393	2.499953031539917
12	73.11721205711365	pulse	1	t		10.0	2.5	/experiments/AOT/AOT_stimuli/rescaled_final/0162_rv.mp4	0.0	92.24971103668213	
12	74.72469210624695	pulse	1	t		10.0	2.5	/experiments/AOT/AOT_stimuli/rescaled_final/0162_rv.mp4	0.0	93.85719108581543	
12	74.83236503601074	fix_post	2		12	10.0	2.5	/experiments/AOT/AOT_stimuli/rescaled_final/0162_rv.mp4	0.0	93.96486401557922	0.10048413276672363
13	74.93284916877747	fix_pre	0		120	11.0	2.5	/experiments/AOT/AOT_stimuli/rescaled_final/0736_fw.mp4	0.0	94.06534814834595	1.000006914138794
13	75.93285608291626	movie	1		247	11.0	2.5	/experiments/AOT/AOT_stimuli/rescaled_final/0736_fw.mp4	0.0	95.06535506248474	2.499582052230835
13	76.32467412948608	pulse	1	t		11.0	2.5	/experiments/AOT/AOT_stimuli/rescaled_final/0736_fw.mp4	0.0	95.45717310905457	
13	77.91716599464417	pulse	1	t		11.0	2.5	/experiments/AOT/AOT_stimuli/rescaled_final/0736_fw.mp4	0.0	97.04966497421265	
13	78.4324381351471	fix_post	2		12	11.0	2.5	/experiments/AOT/AOT_stimuli/rescaled_final/0736_fw.mp4	0.0	97.56493711471558	0.1003110408782959
14	78.53274917602539	fix_pre	0		119	12.0	2.5	blank	1.0	97.66524815559387	0.99167799949646
14	79.51637005805969	pulse	0	t		12.0	2.5	blank	1.0	98.64886903762817	
14	79.52442717552185	movie	1		301	12.0	2.5	blank	1.0	98.65692615509033	2.5083630084991455
14	81.11625599861145	pulse	1	t		12.0	2.5	blank	1.0	100.24875497817993	
14	82.032790184021	fix_post	2		12	12.0	2.5	blank	1.0	101.16528916358948	0.09999799728393555
15	82.13278818130493	fix_pre	0		120	13.0	2.5	/experiments/AOT/AOT_stimuli/rescaled_final/1774_fw.mp4	0.0	101.26528716087341	0.9999909400939941
15	82.71628713607788	pulse	0	t		13.0	2.5	/experiments/AOT/AOT_stimuli/rescaled_final/1774_fw.mp4	0.0	101.84878611564636	
15	83.13277912139893	movie	1		243	13.0	2.5	/experiments/AOT/AOT_stimuli/rescaled_final/1774_fw.mp4	0.0	102.26527810096741	2.500079870223999
15	84.31628608703613	pulse	1	t		13.0	2.5	/experiments/AOT/AOT_stimuli/rescaled_final/1774_fw.mp4	0.0	103.44878506660461	
15	85.63285899162292	fix_post	2		12	13.0	2.5	/experiments/AOT/AOT_stimuli/rescaled_final/1774_fw.mp4	0.0	104.7653579711914	0.0998530387878418
16	85.73271203041077	fix_pre	0		120	14.0	2.5	/experiments/AOT/AOT_stimuli/rescaled_final/1744_fw.mp4	0.0	104.86521100997925	1.0001161098480225
16	85.9162220954895	pulse	0	t		14.0	2.5	/experiments/AOT/AOT_stimuli/rescaled_final/1744_fw.mp4	0.0	105.04872107505798	
16	86.73282814025879	movie	1		243	14.0	2.5	/experiments/AOT/AOT_stimuli/rescaled_final/1744_fw.mp4	0.0	105.86532711982727	2.4998998641967773
16	87.51618313789368	pulse	1	t		14.0	2.5	/experiments/AOT/AOT_stimuli/rescaled_final/1744_fw.mp4	0.0	106.64868211746216	
16	89.1245801448822	pulse	1	t		14.0	2.5	/experiments/AOT/AOT_stimuli/rescaled_final/1744_fw.mp4	0.0	108.25707912445068	
16	89.23272800445557	fix_post	2		12	14.0	2.5	/experiments/AOT/AOT_stimuli/rescaled_final/1744_fw.mp4	0.0	108.36522698402405	0.09999203681945801
17	89.33272004127502	fix_pre	0		120	15.0	2.5	/experiments/AOT/AOT_stimuli/rescaled_final/1143_fw.mp4	0.0	108.4652190208435	0.9999480247497559
17	90.33266806602478	movie	1		243	15.0	2.5	/experiments/AOT/AOT_stimuli/rescaled_final/1143_fw.mp4	0.0	109.46516704559326	2.500041961669922
17	90.72457909584045	pulse	1	t		15.0	2.5	/experiments/AOT/AOT_stimuli/rescaled_final/1143_fw.mp4	0.0	109.85707807540894	
17	92.31714200973511	pulse	1	t		15.0	2.5	/experiments/AOT/AOT_stimuli/rescaled_final/1143_fw.mp4	0.0	111.44964098930359	
17	92.8327100276947	fix_post	2		12	15.0	2.5	/experiments/AOT/AOT_stimuli/rescaled_final/1143_fw.mp4	0.0	111.96520900726318	0.10000300407409668
18	92.9327130317688	fix_pre	0		120	16.0	2.5	/experiments/AOT/AOT_stimuli/rescaled_final/0950_fw.mp4	0.0	112.06521201133728	1.0000131130218506
18	93.9170331954956	pulse	0	t		16.0	2.5	/experiments/AOT/AOT_stimuli/rescaled_final/0950_fw.mp4	0.0	113.04953217506409	
18	93.93272614479065	movie	1		244	16.0	2.5	/experiments/AOT/AOT_stimuli/rescaled_final/0950_fw.mp4	0.0	113.06522512435913	2.5084190368652344
18	95.52409100532532	pulse	1	t		16.0	2.5	/experiments/AOT/AOT_stimuli/rescaled_final/0950_fw.mp4	0.0	114.6565899848938	
18	96.44114518165588	fix_post	2		12	16.0	2.5	/experiments/AOT/AOT_stimuli/rescaled_final/0950_fw.mp4	0.0	115.57364416122437	0.09985899925231934
19	96.5410041809082	fix_pre	0		120	17.0	2.5	/experiments/AOT/AOT_stimuli/rescaled_final/0376_fw.mp4	0.0	115.67350316047668	1.000128984451294
19	97.11698603630066	pulse	0	t		17.0	2.5	/experiments/AOT/AOT_stimuli/rescaled_final/0376_fw.mp4	0.0	116.24948501586914	
19	97.5411331653595	movie	1		246	17.0	2.5	/experiments/AOT/AOT_stimuli/rescaled_final/0376_fw.mp4	0.0	116.67363214492798	2.499955892562866
19	98.72451901435852	pulse	1	t		17.0	2.5	/experiments/AOT/AOT_stimuli/rescaled_final/0376_fw.mp4	0.0	117.857017993927	
19	100.04108905792236	fix_post	2		12	17.0	2.5	/experiments/AOT/AOT_stimuli/rescaled_final/0376_fw.mp4	0.0	119.17358803749084	0.09995794296264648
20	100.14104700088501	fix_pre	0		120	18.0	2.5	/experiments/AOT/AOT_stimuli/rescaled_final/1359_rv.mp4	0.0	119.27354598045349	0.9995450973510742
20	100.31621503829956	pulse	0	t		18.0	2.5	/experiments/AOT/AOT_stimuli/rescaled_final/1359_rv.mp4	0.0	119.44871401786804	
20	101.14059209823608	movie	1		242	18.0	2.5	/experiments/AOT/AOT_stimuli/rescaled_final/1359_rv.mp4	0.0	120.27309107780457	2.500058889389038
20	101.91627216339111	pulse	1	t		18.0	2.5	/experiments/AOT/AOT_stimuli/rescaled_final/1359_rv.mp4	0.0	121.0487711429596	
20	103.51612401008606	pulse	1	t		18.0	2.5	/experiments/AOT/AOT_stimuli/rescaled_final/1359_rv.mp4	0.0	122.64862298965454	
20	103.64065098762512	fix_post	2		12	18.0	2.5	/experiments/AOT/AOT_stimuli/rescaled_final/1359_rv.mp4	0.0	122.7731499671936	0.10039305686950684
21	103.74104404449463	fix_pre	0		120	19.0	2.5	/experiments/AOT/AOT_stimuli/rescaled_final/0626_fw.mp4	0.0	122.87354302406311	0.9999921321868896
21	104.74103617668152	movie	1		245	19.0	2.5	/experiments/AOT/AOT_stimuli/rescaled_final/0626_fw.mp4	0.0	123.87353515625	2.499958038330078
21	105.11608719825745	pulse	1	t		19.0	2.5	/experiments/AOT/AOT_stimuli/rescaled_final/0626_fw.mp4	0.0	124.24858617782593	
21	106.71724605560303	pulse	1	t		19.0	2.5	/experiments/AOT/AOT_stimuli/rescaled_final/0626_fw.mp4	0.0	125.84974503517151	
21	107.2409942150116	fix_post	2		12	19.0	2.5	/experiments/AOT/AOT_stimuli/rescaled_final/0626_fw.mp4	0.0	126.37349319458008	0.09999585151672363
22	107.34099006652832	fix_pre	0		119	20.0	2.5	/experiments/AOT/AOT_stimuli/rescaled_final/1659_fw.mp4	0.0	126.4734890460968	0.9916539192199707
22	108.31700706481934	pulse	0	t		20.0	2.5	/experiments/AOT/AOT_stimuli/rescaled_final/1659_fw.mp4	0.0	127.44950604438782	
22	108.33264398574829	movie	1		246	20.0	2.5	/experiments/AOT/AOT_stimuli/rescaled_final/1659_fw.mp4	0.0	127.46514296531677	2.50838303565979
22	109.92425918579102	pulse	1	t		20.0	2.5	/experiments/AOT/AOT_stimuli/rescaled_final/1659_fw.mp4	0.0	129.0567581653595	
22	110.84102702140808	fix_post	2		12	20.0	2.5	/experiments/AOT/AOT_stimuli/rescaled_final/1659_fw.mp4	0.0	129.97352600097656	0.09996700286865234
23	110.94099402427673	fix_pre	0		120	21.0	2.5	blank	1.0	130.07349300384521	0.9995651245117188
23	111.5169792175293	pulse	0	t		21.0	2.5	blank	1.0	130.64947819709778	
23	111.94055914878845	movie	1		300	21.0	2.5	blank	1.0	131.07305812835693	2.5005319118499756
23	113.11668920516968	pulse	1	t		21.0	2.5	blank	1.0	132.24918818473816	
23	114.44109106063843	fix_post	2		12	21.0	2.5	blank	1.0	133.5735900402069	0.09958505630493164
24	114.54067611694336	fix_pre	0		120	22.0	2.5	/experiments/AOT/AOT_stimuli/rescaled_final/1254_rv.mp4	0.0	133.67317509651184	1.0006239414215088
24	114.7163360118866	pulse	0	t		22.0	2.5	/experiments/AOT/AOT_stimuli/rescaled_final/1254_rv.mp4	0.0	133.84883499145508	
24	115.54130005836487	movie	1		244	22.0	2.5	/experiments/AOT/AOT_stimuli/rescaled_final/1254_rv.mp4	0.0	134.67379903793335	2.499643087387085
24	116.31698703765869	pulse	1	t		22.0	2.5	/experiments/AOT/AOT_stimuli/rescaled_final/1254_rv.mp4	0.0	135.44948601722717	
24	117.91607403755188	pulse	1	t		22.0	2.5	/experiments/AOT/AOT_stimuli/rescaled_final/1254_rv.mp4	0.0	137.04857301712036	
24	118.04094314575195	fix_post	2		12	22.0	2.5	/experiments/AOT/AOT_stimuli/rescaled_final/1254_rv.mp4	0.0	137.17344212532043	0.10000085830688477
25	118.14094400405884	fix_pre	0		120	23.0	2.5	/experiments/AOT/AOT_stimuli/rescaled_final/0774_fw.mp4	0.0	137.27344298362732	0.9999580383300781
25	119.14090204238892	movie	1		247	23.0	2.5	/experiments/AOT/AOT_stimuli/rescaled_final/0774_fw.mp4	0.0	138.2734010219574	2.5000221729278564
25	119.51604008674622	pulse	1	t		23.0	2.5	/experiments/AOT/AOT_stimuli/rescaled_final/0774_fw.mp4	0.0	138.6485390663147	
25	121.11624908447266	pulse	1	t		23.0	2.5	/experiments/AOT/AOT_stimuli/rescaled_final/0774_fw.mp4	0.0	140.24874806404114	
25	121.64092421531677	fix_post	2		12	23.0	2.5	/experiments/AOT/AOT_stimuli/rescaled_final/0774_fw.mp4	0.0	140.77342319488525	0.09997987747192383
26	121.7409040927887	fix_pre	0		119	24.0	2.5	/experiments/AOT/AOT_stimuli/rescaled_final/1430_rv.mp4	0.0	140.87340307235718	0.9917819499969482
26	122.71684122085571	pulse	0	t		24.0	2.5	/experiments/AOT/AOT_stimuli/rescaled_final/1430_rv.mp4	0.0	141.8493402004242	
26	122.73268604278564	movie	1		248	24.0	2.5	/experiments/AOT/AOT_stimuli/rescaled_final/1430_rv.mp4	0.0	141.86518502235413	2.508228063583374
26	124.32382702827454	pulse	1	t		24.0	2.5	/experiments/AOT/AOT_stimuli/rescaled_final/1430_rv.mp4	0.0	143.45632600784302	
26	125.24091410636902	fix_post	2		12	24.0	2.5	/experiments/AOT/AOT_stimuli/rescaled_final/1430_rv.mp4	0.0	144.3734130859375	0.09962797164916992
27	125.34054207801819	fix_pre	0		120	25.0	2.5	/experiments/AOT/AOT_stimuli/rescaled_final/1259_fw.mp4	0.0	144.47304105758667	1.0000331401824951
27	125.91686415672302	pulse	0	t		25.0	2.5	/experiments/AOT/AOT_stimuli/rescaled_final/1259_fw.mp4	0.0	145.0493631362915	
27	126.34057521820068	movie	1		246	25.0	2.5	/experiments/AOT/AOT_stimuli/rescaled_final/1259_fw.mp4	0.0	145.47307419776917	2.500363826751709
27	127.5169939994812	pulse	1	t		25.0	2.5	/experiments/AOT/AOT_stimuli/rescaled_final/1259_fw.mp4	0.0	146.64949297904968	
27	128.8409390449524	fix_post	2		12	25.0	2.5	/experiments/AOT/AOT_stimuli/rescaled_final/1259_fw.mp4	0.0	147.97343802452087	0.09990096092224121
28	128.94084000587463	fix_pre	0		120	26.0	2.5	/experiments/AOT/AOT_stimuli/rescaled_final/1043_fw.mp4	0.0	148.07333898544312	0.9999790191650391
28	129.11683106422424	pulse	0	t		26.0	2.5	/experiments/AOT/AOT_stimuli/rescaled_final/1043_fw.mp4	0.0	148.24933004379272	
28	129.94081902503967	movie	1		245	26.0	2.5	/experiments/AOT/AOT_stimuli/rescaled_final/1043_fw.mp4	0.0	149.07331800460815	2.500063180923462
28	130.7168641090393	pulse	1	t		26.0	2.5	/experiments/AOT/AOT_stimuli/rescaled_final/1043_fw.mp4	0.0	149.8493630886078	
28	132.32312202453613	pulse	1	t		26.0	2.5	/experiments/AOT/AOT_stimuli/rescaled_final/1043_fw.mp4	0.0	151.45562100410461	
28	132.44088220596313	fix_post	2		12	26.0	2.5	/experiments/AOT/AOT_stimuli/rescaled_final/1043_fw.mp4	0.0	151.57338118553162	0.09954595565795898
29	132.5404281616211	fix_pre	0		120	27.0	2.5	/experiments/AOT/AOT_stimuli/rescaled_final/1435_fw.mp4	0.0	151.67292714118958	1.0004959106445312
29	133.54092407226562	movie	1		243	27.0	2.5	/experiments/AOT/AOT_stimuli/rescaled_final/1435_fw.mp4	0.0	152.6734230518341	2.4998669624328613
29	133.92550206184387	pulse	1	t		27.0	2.5	/experiments/AOT/AOT_stimuli/rescaled_final/1435_fw.mp4	0.0	153.05800104141235	
29	135.5160632133484	pulse	1	t		27.0	2.5	/experiments/AOT/AOT_stimuli/rescaled_final/1435_fw.mp4	0.0	154.64856219291687	
29	136.0407910346985	fix_post	2		12	27.0	2.5	/experiments/AOT/AOT_stimuli/rescaled_final/1435_fw.mp4	0.0	155.17329001426697	0.09964513778686523
30	136.14043617248535	fix_pre	0		118	28.0	2.5	blank	1.0	155.27293515205383	0.9836950302124023
30	137.11601305007935	pulse	0	t		28.0	2.5	blank	1.0	156.24851202964783	
30	137.12413120269775	movie	1		301	28.0	2.5	blank	1.0	156.25663018226624	2.50849986076355
30	138.71687817573547	pulse	1	t		28.0	2.5	blank	1.0	157.84937715530396	
30	139.6326310634613	fix_post	2		12	28.0	2.5	blank	1.0	158.76513004302979	0.09987592697143555
31	139.73250699043274	fix_pre	0		120	29.0	2.5	/experiments/AOT/AOT_stimuli/rescaled_final/1569_fw.mp4	0.0	158.86500597000122	1.0000550746917725
31	140.3167781829834	pulse	0	t		29.0	2.5	/experiments/AOT/AOT_stimuli/rescaled_final/1569_fw.mp4	0.0	159.44927716255188	
31	140.7325620651245	movie	1		243	29.0	2.5	/experiments/AOT/AOT_stimuli/rescaled_final/1569_fw.mp4	0.0	159.865061044693	2.499890089035034
31	141.91699504852295	pulse	1	t		29.0	2.5	/experiments/AOT/AOT_stimuli/rescaled_final/1569_fw.mp4	0.0	161.04949402809143	
31	143.23245215415955	fix_post	2		12	29.0	2.5	/experiments/AOT/AOT_stimuli/rescaled_final/1569_fw.mp4	0.0	162.36495113372803	0.10000205039978027
32	143.33245420455933	fix_pre	0		120	30.0	2.5	/experiments/AOT/AOT_stimuli/rescaled_final/0379_rv.mp4	0.0	162.4649531841278	1.0000858306884766
32	143.51686215400696	pulse	0	t		30.0	2.5	/experiments/AOT/AOT_stimuli/rescaled_final/0379_rv.mp4	0.0	162.64936113357544	
32	144.3325400352478	movie	1		243	30.0	2.5	/experiments/AOT/AOT_stimuli/rescaled_final/0379_rv.mp4	0.0	163.46503901481628	2.4999570846557617
32	145.11692714691162	pulse	1	t		30.0	2.5	/experiments/AOT/AOT_stimuli/rescaled_final/0379_rv.mp4	0.0	164.2494261264801	
32	146.72429203987122	pulse	1	t		30.0	2.5	/experiments/AOT/AOT_stimuli/rescaled_final/0379_rv.mp4	0.0	165.8567910194397	
32	146.83249711990356	fix_post	2		12	30.0	2.5	/experiments/AOT/AOT_stimuli/rescaled_final/0379_rv.mp4	0.0	165.96499609947205	0.0999610424041748
33	146.93245816230774	fix_pre	0		120	31.0	2.5	/experiments/AOT/AOT_stimuli/rescaled_final/1085_fw.mp4	0.0	166.06495714187622	1.0000379085540771
33	147.93249607086182	movie	1		246	31.0	2.5	/experiments/AOT/AOT_stimuli/rescaled_final/1085_fw.mp4	0.0	167.0649950504303	2.4996910095214844
33	148.32433414459229	pulse	1	t		31.0	2.5	/experiments/AOT/AOT_stimuli/rescaled_final/1085_fw.mp4	0.0	167.45683312416077	
33	149.91683506965637	pulse	1	t		31.0	2.5	/experiments/AOT/AOT_stimuli/rescaled_final/1085_fw.mp4	0.0	169.04933404922485	
33	150.4321870803833	fix_post	2		12	31.0	2.5	/experiments/AOT/AOT_stimuli/rescaled_final/1085_fw.mp4	0.0	169.56468605995178	0.10025691986083984
34	150.53244400024414	fix_pre	0		120	32.0	2.5	/experiments/AOT/AOT_stimuli/rescaled_final/2126_rv.mp4	0.0	169.66494297981262	0.9999580383300781
34	151.51668214797974	pulse	0	t		32.0	2.5	/experiments/AOT/AOT_stimuli/rescaled_final/2126_rv.mp4	0.0	170.64918112754822	
34	151.53240203857422	movie	1		244	32.0	2.5	/experiments/AOT/AOT_stimuli/rescaled_final/2126_rv.mp4	0.0	170.6649010181427	2.5083491802215576
34	153.1159381866455	pulse	1	t		32.0	2.5	/experiments/AOT/AOT_stimuli/rescaled_final/2126_rv.mp4	0.0	172.248437166214	
34	154.04075121879578	fix_post	2		12	32.0	2.5	/experiments/AOT/AOT_stimuli/rescaled_final/2126_rv.mp4	0.0	173.17325019836426	0.09996199607849121
35	154.14071321487427	fix_pre	0		120	33.0	2.5	/experiments/AOT/AOT_stimuli/rescaled_final/0237_fw.mp4	0.0	173.27321219444275	1.0000228881835938
35	154.71684312820435	pulse	0	t		33.0	2.5	/experiments/AOT/AOT_stimuli/rescaled_final/0237_fw.mp4	0.0	173.84934210777283	
35	155.14073610305786	movie	1		245	33.0	2.5	/experiments/AOT/AOT_stimuli/rescaled_final/0237_fw.mp4	0.0	174.27323508262634	2.4995899200439453
35	156.32436203956604	pulse	1	t		33.0	2.5	/experiments/AOT/AOT_stimuli/rescaled_final/0237_fw.mp4	0.0	175.45686101913452	
35	157.6403260231018	fix_post	2		12	33.0	2.5	/experiments/AOT/AOT_stimuli/rescaled_final/0237_fw.mp4	0.0	176.7728250026703	0.10046505928039551
36	157.7407910823822	fix_pre	0		120	34.0	2.5	blank	1.0	176.87329006195068	0.9999620914459229
36	157.91672205924988	pulse	0	t		34.0	2.5	blank	1.0	177.04922103881836	
36	158.74075317382812	movie	1		300	34.0	2.5	blank	1.0	177.8732521533966	2.500074863433838
36	159.51675415039062	pulse	1	t		34.0	2.5	blank	1.0	178.6492531299591	
36	161.11663699150085	pulse	1	t		34.0	2.5	blank	1.0	180.24913597106934	
36	161.24082803726196	fix_post	2		12	34.0	2.5	blank	1.0	180.37332701683044	0.09994816780090332
37	161.34077620506287	fix_pre	0		120	35.0	2.5	/experiments/AOT/AOT_stimuli/rescaled_final/1143_rv.mp4	0.0	180.47327518463135	1.0000519752502441
37	162.3408281803131	movie	1		244	35.0	2.5	/experiments/AOT/AOT_stimuli/rescaled_final/1143_rv.mp4	0.0	181.4733271598816	2.4999358654022217
37	162.72407913208008	pulse	1	t		35.0	2.5	/experiments/AOT/AOT_stimuli/rescaled_final/1143_rv.mp4	0.0	181.85657811164856	
37	164.31682109832764	pulse	1	t		35.0	2.5	/experiments/AOT/AOT_stimuli/rescaled_final/1143_rv.mp4	0.0	183.44932007789612	
37	164.84076404571533	fix_post	2		12	35.0	2.5	/experiments/AOT/AOT_stimuli/rescaled_final/1143_rv.mp4	0.0	183.9732630252838	0.0999760627746582
38	164.94074010849	fix_pre	0		119	36.0	2.5	/experiments/AOT/AOT_stimuli/rescaled_final/0626_rv.mp4	0.0	184.07323908805847	0.9916689395904541
38	165.9166100025177	pulse	0	t		36.0	2.5	/experiments/AOT/AOT_stimuli/rescaled_final/0626_rv.mp4	0.0	185.04910898208618	
38	165.93240904808044	movie	1		248	36.0	2.5	/experiments/AOT/AOT_stimuli/rescaled_final/0626_rv.mp4	0.0	185.06490802764893	2.5078861713409424
38	167.52389907836914	pulse	1	t		36.0	2.5	/experiments/AOT/AOT_stimuli/rescaled_final/0626_rv.mp4	0.0	186.65639805793762	
38	168.4402952194214	fix_post	2		12	36.0	2.5	/experiments/AOT/AOT_stimuli/rescaled_final/0626_rv.mp4	0.0	187.57279419898987	0.09998083114624023
39	168.54027605056763	fix_pre	0		120	37.0	2.5	/experiments/AOT/AOT_stimuli/rescaled_final/0212_fw.mp4	0.0	187.6727750301361	1.000460147857666
39	169.11662411689758	pulse	0	t		37.0	2.5	/experiments/AOT/AOT_stimuli/rescaled_final/0212_fw.mp4	0.0	188.24912309646606	
39	169.5407361984253	movie	1		245	37.0	2.5	/experiments/AOT/AOT_stimuli/rescaled_final/0212_fw.mp4	0.0	188.67323517799377	2.4995248317718506
39	170.72442412376404	pulse	1	t		37.0	2.5	/experiments/AOT/AOT_stimuli/rescaled_final/0212_fw.mp4	0.0	189.85692310333252	
39	172.04026103019714	fix_post	2		12	37.0	2.5	/experiments/AOT/AOT_stimuli/rescaled_final/0212_fw.mp4	0.0	191.17276000976562	0.10043716430664062
40	172.14069819450378	fix_pre	0		120	38.0	2.5	/experiments/AOT/AOT_stimuli/rescaled_final/1317_rv.mp4	0.0	191.27319717407227	1.0000298023223877
40	172.3243532180786	pulse	0	t		38.0	2.5	/experiments/AOT/AOT_stimuli/rescaled_final/1317_rv.mp4	0.0	191.4568521976471	
40	173.14072799682617	movie	1		245	38.0	2.5	/experiments/AOT/AOT_stimuli/rescaled_final/1317_rv.mp4	0.0	192.27322697639465	2.499994993209839
40	173.92409110069275	pulse	1	t		38.0	2.5	/experiments/AOT/AOT_stimuli/rescaled_final/1317_rv.mp4	0.0	193.05659008026123	
40	175.52259802818298	pulse	1	t		38.0	2.5	/experiments/AOT/AOT_stimuli/rescaled_final/1317_rv.mp4	0.0	194.65509700775146	
40	175.640722990036	fix_post	2		12	38.0	2.5	/experiments/AOT/AOT_stimuli/rescaled_final/1317_rv.mp4	0.0	194.7732219696045	0.09984803199768066
41	175.7405710220337	fix_pre	0		120	39.0	2.5	/experiments/AOT/AOT_stimuli/rescaled_final/1435_rv.mp4	0.0	194.87307000160217	1.000256061553955
41	176.74082708358765	movie	1		244	39.0	2.5	/experiments/AOT/AOT_stimuli/rescaled_final/1435_rv.mp4	0.0	195.87332606315613	2.4998109340667725
41	177.1236560344696	pulse	1	t		39.0	2.5	/experiments/AOT/AOT_stimuli/rescaled_final/1435_rv.mp4	0.0	196.2561550140381	
41	178.71672821044922	pulse	1	t		39.0	2.5	/experiments/AOT/AOT_stimuli/rescaled_final/1435_rv.mp4	0.0	197.8492271900177	
41	179.24063801765442	fix_post	2		12	39.0	2.5	/experiments/AOT/AOT_stimuli/rescaled_final/1435_rv.mp4	0.0	198.3731369972229	0.0999901294708252
42	179.34062814712524	fix_pre	0		119	40.0	2.5	/experiments/AOT/AOT_stimuli/rescaled_final/0061_fw.mp4	0.0	198.47312712669373	0.9916448593139648
42	180.316486120224	pulse	0	t		40.0	2.5	/experiments/AOT/AOT_stimuli/rescaled_final/0061_fw.mp4	0.0	199.44898509979248	
42	180.3322730064392	movie	1		246	40.0	2.5	/experiments/AOT/AOT_stimuli/rescaled_final/0061_fw.mp4	0.0	199.4647719860077	2.5079309940338135
42	181.92362117767334	pulse	1	t		40.0	2.5	/experiments/AOT/AOT_stimuli/rescaled_final/0061_fw.mp4	0.0	201.05612015724182	
42	182.84020400047302	fix_post	2		12	40.0	2.5	/experiments/AOT/AOT_stimuli/rescaled_final/0061_fw.mp4	0.0	201.9727029800415	0.1003880500793457
43	182.94059205055237	fix_pre	0		120	41.0	2.5	/experiments/AOT/AOT_stimuli/rescaled_final/0392_rv.mp4	0.0	202.07309103012085	0.9999890327453613
43	183.51648807525635	pulse	0	t		41.0	2.5	/experiments/AOT/AOT_stimuli/rescaled_final/0392_rv.mp4	0.0	202.64898705482483	
43	183.94058108329773	movie	1		243	41.0	2.5	/experiments/AOT/AOT_stimuli/rescaled_final/0392_rv.mp4	0.0	203.0730800628662	2.499758005142212
43	185.12414407730103	pulse	1	t		41.0	2.5	/experiments/AOT/AOT_stimuli/rescaled_final/0392_rv.mp4	0.0	204.2566430568695	
43	186.44033908843994	fix_post	2		12	41.0	2.5	/experiments/AOT/AOT_stimuli/rescaled_final/0392_rv.mp4	0.0	205.57283806800842	0.10033893585205078
44	186.540678024292	fix_pre	0		120	42.0	2.5	blank	1.0	205.67317700386047	0.9999380111694336
44	186.72406911849976	pulse	0	t		42.0	2.5	blank	1.0	205.85656809806824	
44	187.54061603546143	movie	1		300	42.0	2.5	blank	1.0	206.6731150150299	2.4999680519104004
44	188.32402300834656	pulse	1	t		42.0	2.5	blank	1.0	207.45652198791504	
44	189.92405319213867	pulse	1	t		42.0	2.5	blank	1.0	209.05655217170715	
44	190.04058408737183	fix_post	2		12	42.0	2.5	blank	1.0	209.1730830669403	0.099945068359375
45	190.1405291557312	fix_pre	0		120	43.0	2.5	/experiments/AOT/AOT_stimuli/rescaled_final/0201_rv.mp4	0.0	209.27302813529968	1.0000739097595215
45	191.14060306549072	movie	1		246	43.0	2.5	/experiments/AOT/AOT_stimuli/rescaled_final/0201_rv.mp4	0.0	210.2731020450592	2.4999921321868896
45	191.524405002594	pulse	1	t		43.0	2.5	/experiments/AOT/AOT_stimuli/rescaled_final/0201_rv.mp4	0.0	210.65690398216248	
45	193.1168990135193	pulse	1	t		43.0	2.5	/experiments/AOT/AOT_stimuli/rescaled_final/0201_rv.mp4	0.0	212.24939799308777	
45	193.6405951976776	fix_post	2		12	43.0	2.5	/experiments/AOT/AOT_stimuli/rescaled_final/0201_rv.mp4	0.0	212.7730941772461	0.09998083114624023
46	193.74057602882385	fix_pre	0		119	44.0	2.5	/experiments/AOT/AOT_stimuli/rescaled_final/0701_rv.mp4	0.0	212.87307500839233	0.9916579723358154
46	194.71667218208313	pulse	0	t		44.0	2.5	/experiments/AOT/AOT_stimuli/rescaled_final/0701_rv.mp4	0.0	213.8491711616516	
46	194.73223400115967	movie	1		246	44.0	2.5	/experiments/AOT/AOT_stimuli/rescaled_final/0701_rv.mp4	0.0	213.86473298072815	2.508272171020508
46	196.32514309883118	pulse	1	t		44.0	2.5	/experiments/AOT/AOT_stimuli/rescaled_final/0701_rv.mp4	0.0	215.45764207839966	
46	197.24050617218018	fix_post	2		12	44.0	2.5	/experiments/AOT/AOT_stimuli/rescaled_final/0701_rv.mp4	0.0	216.37300515174866	0.10004281997680664
47	197.34054899215698	fix_pre	0		120	45.0	2.5	/experiments/AOT/AOT_stimuli/rescaled_final/1819_rv.mp4	0.0	216.47304797172546	0.9999651908874512
47	197.9165060520172	pulse	0	t		45.0	2.5	/experiments/AOT/AOT_stimuli/rescaled_final/1819_rv.mp4	0.0	217.0490050315857	
47	198.34051418304443	movie	1		243	45.0	2.5	/experiments/AOT/AOT_stimuli/rescaled_final/1819_rv.mp4	0.0	217.47301316261292	2.500037908554077
47	199.52410316467285	pulse	1	t		45.0	2.5	/experiments/AOT/AOT_stimuli/rescaled_final/1819_rv.mp4	0.0	218.65660214424133	
47	200.8405520915985	fix_post	2		12	45.0	2.5	/experiments/AOT/AOT_stimuli/rescaled_final/1819_rv.mp4	0.0	219.973051071167	0.09999895095825195
48	200.94055104255676	fix_pre	0		120	46.0	2.5	/experiments/AOT/AOT_stimuli/rescaled_final/0456_fw.mp4	0.0	220.07305002212524	1.000025987625122
48	201.1164951324463	pulse	0	t		46.0	2.5	/experiments/AOT/AOT_stimuli/rescaled_final/0456_fw.mp4	0.0	220.24899411201477	
48	201.94057703018188	movie	1		243	46.0	2.5	/experiments/AOT/AOT_stimuli/rescaled_final/0456_fw.mp4	0.0	221.07307600975037	2.4995360374450684
48	202.72404313087463	pulse	1	t		46.0	2.5	/experiments/AOT/AOT_stimuli/rescaled_final/0456_fw.mp4	0.0	221.85654211044312	
48	204.32265710830688	pulse	1	t		46.0	2.5	/experiments/AOT/AOT_stimuli/rescaled_final/0456_fw.mp4	0.0	223.45515608787537	
48	204.44011306762695	fix_post	2		12	46.0	2.5	/experiments/AOT/AOT_stimuli/rescaled_final/0456_fw.mp4	0.0	223.57261204719543	0.10045909881591797
49	204.54057216644287	fix_pre	0		120	47.0	2.5	blank	1.0	223.67307114601135	0.9999208450317383
49	205.5404930114746	movie	1		300	47.0	2.5	blank	1.0	224.6729919910431	2.4999489784240723
49	205.92405605316162	pulse	1	t		47.0	2.5	blank	1.0	225.0565550327301	
49	207.52411007881165	pulse	1	t		47.0	2.5	blank	1.0	226.65660905838013	
49	208.04044198989868	fix_post	2		12	47.0	2.5	blank	1.0	227.17294096946716	0.10004305839538574
50	208.14048504829407	fix_pre	0		119	48.0	2.5	/experiments/AOT/AOT_stimuli/rescaled_final/1613_fw.mp4	0.0	227.27298402786255	0.9916081428527832
50	209.1239731311798	pulse	0	t		48.0	2.5	/experiments/AOT/AOT_stimuli/rescaled_final/1613_fw.mp4	0.0	228.2564721107483	
50	209.13209319114685	movie	1		247	48.0	2.5	/experiments/AOT/AOT_stimuli/rescaled_final/1613_fw.mp4	0.0	228.26459217071533	2.507962942123413
50	210.72384405136108	pulse	1	t		48.0	2.5	/experiments/AOT/AOT_stimuli/rescaled_final/1613_fw.mp4	0.0	229.85634303092957	
50	211.64005613327026	fix_post	2		12	48.0	2.5	/experiments/AOT/AOT_stimuli/rescaled_final/1613_fw.mp4	0.0	230.77255511283875	0.10044288635253906
51	211.7404990196228	fix_pre	0		120	49.0	2.5	/experiments/AOT/AOT_stimuli/rescaled_final/1359_fw.mp4	0.0	230.87299799919128	1.0000669956207275
51	212.3164291381836	pulse	0	t		49.0	2.5	/experiments/AOT/AOT_stimuli/rescaled_final/1359_fw.mp4	0.0	231.44892811775208	
51	212.74056601524353	movie	1		243	49.0	2.5	/experiments/AOT/AOT_stimuli/rescaled_final/1359_fw.mp4	0.0	231.873064994812	2.499541997909546
51	213.9239890575409	pulse	1	t		49.0	2.5	/experiments/AOT/AOT_stimuli/rescaled_final/1359_fw.mp4	0.0	233.05648803710938	
51	215.24010801315308	fix_post	2		12	49.0	2.5	/experiments/AOT/AOT_stimuli/rescaled_final/1359_fw.mp4	0.0	234.37260699272156	0.10033798217773438
52	215.3404459953308	fix_pre	0		120	50.0	2.5	/experiments/AOT/AOT_stimuli/rescaled_final/1997_fw.mp4	0.0	234.4729449748993	0.9999451637268066
52	215.51644802093506	pulse	0	t		50.0	2.5	/experiments/AOT/AOT_stimuli/rescaled_final/1997_fw.mp4	0.0	234.64894700050354	
52	216.34039115905762	movie	1		244	50.0	2.5	/experiments/AOT/AOT_stimuli/rescaled_final/1997_fw.mp4	0.0	235.4728901386261	2.500005006790161
52	217.11650013923645	pulse	1	t		50.0	2.5	/experiments/AOT/AOT_stimuli/rescaled_final/1997_fw.mp4	0.0	236.24899911880493	
52	218.72240710258484	pulse	1	t		50.0	2.5	/experiments/AOT/AOT_stimuli/rescaled_final/1997_fw.mp4	0.0	237.85490608215332	
52	218.84039616584778	fix_post	2		12	50.0	2.5	/experiments/AOT/AOT_stimuli/rescaled_final/1997_fw.mp4	0.0	237.97289514541626	0.10006403923034668
53	218.94046020507812	fix_pre	0		120	51.0	2.5	/experiments/AOT/AOT_stimuli/rescaled_final/0851_rv.mp4	0.0	238.0729591846466	1.000011920928955
53	219.94047212600708	movie	1		243	51.0	2.5	/experiments/AOT/AOT_stimuli/rescaled_final/0851_rv.mp4	0.0	239.07297110557556	2.4999759197235107
53	220.32413411140442	pulse	1	t		51.0	2.5	/experiments/AOT/AOT_stimuli/rescaled_final/0851_rv.mp4	0.0	239.4566330909729	
53	221.9239251613617	pulse	1	t		51.0	2.5	/experiments/AOT/AOT_stimuli/rescaled_final/0851_rv.mp4	0.0	241.05642414093018	
53	222.4404480457306	fix_post	2		12	51.0	2.5	/experiments/AOT/AOT_stimuli/rescaled_final/0851_rv.mp4	0.0	241.57294702529907	0.09998703002929688
54	222.5404350757599	fix_pre	0		119	52.0	2.5	/experiments/AOT/AOT_stimuli/rescaled_final/0763_rv.mp4	0.0	241.67293405532837	0.9916911125183105
54	223.5238811969757	pulse	0	t		52.0	2.5	/experiments/AOT/AOT_stimuli/rescaled_final/0763_rv.mp4	0.0	242.6563801765442	
54	223.5321261882782	movie	1		246	52.0	2.5	/experiments/AOT/AOT_stimuli/rescaled_final/0763_rv.mp4	0.0	242.66462516784668	2.508448839187622
54	225.123113155365	pulse	1	t		52.0	2.5	/experiments/AOT/AOT_stimuli/rescaled_final/0763_rv.mp4	0.0	244.25561213493347	
54	226.04057502746582	fix_post	2		12	52.0	2.5	/experiments/AOT/AOT_stimuli/rescaled_final/0763_rv.mp4	0.0	245.1730740070343	0.099761962890625
55	226.14033699035645	fix_pre	0		120	53.0	2.5	/experiments/AOT/AOT_stimuli/rescaled_final/1829_rv.mp4	0.0	245.27283596992493	0.9999880790710449
55	226.7237091064453	pulse	0	t		53.0	2.5	/experiments/AOT/AOT_stimuli/rescaled_final/1829_rv.mp4	0.0	245.8562080860138	
55	227.1403250694275	movie	1		244	53.0	2.5	/experiments/AOT/AOT_stimuli/rescaled_final/1829_rv.mp4	0.0	246.27282404899597	2.5000600814819336
55	228.32390308380127	pulse	1	t		53.0	2.5	/experiments/AOT/AOT_stimuli/rescaled_final/1829_rv.mp4	0.0	247.45640206336975	
55	229.64038515090942	fix_post	2		12	53.0	2.5	/experiments/AOT/AOT_stimuli/rescaled_final/1829_rv.mp4	0.0	248.7728841304779	0.1000518798828125
56	229.74043703079224	fix_pre	0		120	54.0	2.5	blank	1.0	248.87293601036072	0.9999101161956787
56	229.91636109352112	pulse	0	t		54.0	2.5	blank	1.0	249.0488600730896	
56	230.74034714698792	movie	1		300	54.0	2.5	blank	1.0	249.8728461265564	2.500114917755127
56	231.51634120941162	pulse	1	t		54.0	2.5	blank	1.0	250.6488401889801	
56	233.11627507209778	pulse	1	t		54.0	2.5	blank	1.0	252.24877405166626	
56	233.24046206474304	fix_post	2		12	54.0	2.5	blank	1.0	252.37296104431152	0.0998690128326416
57	233.34033107757568	fix_pre	0		120	55.0	2.5	/experiments/AOT/AOT_stimuli/rescaled_final/0981_rv.mp4	0.0	252.47283005714417	0.9996519088745117
57	234.3399829864502	movie	1		246	55.0	2.5	/experiments/AOT/AOT_stimuli/rescaled_final/0981_rv.mp4	0.0	253.47248196601868	2.4999501705169678
57	234.72348809242249	pulse	1	t		55.0	2.5	/experiments/AOT/AOT_stimuli/rescaled_final/0981_rv.mp4	0.0	253.85598707199097	
57	236.32377219200134	pulse	1	t		55.0	2.5	/experiments/AOT/AOT_stimuli/rescaled_final/0981_rv.mp4	0.0	255.45627117156982	
57	236.83993315696716	fix_post	2		12	55.0	2.5	/experiments/AOT/AOT_stimuli/rescaled_final/0981_rv.mp4	0.0	255.97243213653564	0.10043191909790039
58	236.94036507606506	fix_pre	0		119	56.0	2.5	/experiments/AOT/AOT_stimuli/rescaled_final/0428_fw.mp4	0.0	256.07286405563354	0.9915690422058105
58	237.9238030910492	pulse	0	t		56.0	2.5	/experiments/AOT/AOT_stimuli/rescaled_final/0428_fw.mp4	0.0	257.0563020706177	
58	237.93193411827087	movie	1		246	56.0	2.5	/experiments/AOT/AOT_stimuli/rescaled_final/0428_fw.mp4	0.0	257.06443309783936	2.5083510875701904
58	239.5232400894165	pulse	1	t		56.0	2.5	/experiments/AOT/AOT_stimuli/rescaled_final/0428_fw.mp4	0.0	258.655739068985	
58	240.44028520584106	fix_post	2		12	56.0	2.5	/experiments/AOT/AOT_stimuli/rescaled_final/0428_fw.mp4	0.0	259.57278418540955	0.10002589225769043
59	240.54031109809875	fix_pre	0		120	57.0	2.5	/experiments/AOT/AOT_stimuli/rescaled_final/0161_fw.mp4	0.0	259.67281007766724	1.0000650882720947
59	241.12381410598755	pulse	0	t		57.0	2.5	/experiments/AOT/AOT_stimuli/rescaled_final/0161_fw.mp4	0.0	260.25631308555603	
59	241.54037618637085	movie	1		245	57.0	2.5	/experiments/AOT/AOT_stimuli/rescaled_final/0161_fw.mp4	0.0	260.67287516593933	2.499565839767456
59	242.72385621070862	pulse	1	t		57.0	2.5	/experiments/AOT/AOT_stimuli/rescaled_final/0161_fw.mp4	0.0	261.8563551902771	
59	244.0399420261383	fix_post	2		12	57.0	2.5	/experiments/AOT/AOT_stimuli/rescaled_final/0161_fw.mp4	0.0	263.1724410057068	0.10032105445861816
60	244.14026308059692	fix_pre	0		120	58.0	2.5	/experiments/AOT/AOT_stimuli/rescaled_final/2083_rv.mp4	0.0	263.2727620601654	1.000040054321289
60	244.3237202167511	pulse	0	t		58.0	2.5	/experiments/AOT/AOT_stimuli/rescaled_final/2083_rv.mp4	0.0	263.4562191963196	
60	245.1403031349182	movie	1		243	58.0	2.5	/experiments/AOT/AOT_stimuli/rescaled_final/2083_rv.mp4	0.0	264.2728021144867	2.499953031539917
60	245.9164800643921	pulse	1	t		58.0	2.5	/experiments/AOT/AOT_stimuli/rescaled_final/2083_rv.mp4	0.0	265.04897904396057	
60	247.5222430229187	pulse	1	t		58.0	2.5	/experiments/AOT/AOT_stimuli/rescaled_final/2083_rv.mp4	0.0	266.6547420024872	
60	247.64025616645813	fix_post	2		12	58.0	2.5	/experiments/AOT/AOT_stimuli/rescaled_final/2083_rv.mp4	0.0	266.7727551460266	0.10005998611450195
61	247.74031615257263	fix_pre	0		120	59.0	2.5	/experiments/AOT/AOT_stimuli/rescaled_final/1254_rv.mp4	0.0	266.8728151321411	1.0000040531158447
61	248.74032020568848	movie	1		244	59.0	2.5	/experiments/AOT/AOT_stimuli/rescaled_final/1254_rv.mp4	0.0	267.87281918525696	2.5000100135803223
61	249.1236481666565	pulse	1	t		59.0	2.5	/experiments/AOT/AOT_stimuli/rescaled_final/1254_rv.mp4	0.0	268.256147146225	
61	250.72377514839172	pulse	1	t		59.0	2.5	/experiments/AOT/AOT_stimuli/rescaled_final/1254_rv.mp4	0.0	269.8562741279602	
61	251.2403302192688	fix_post	2		12	59.0	2.5	/experiments/AOT/AOT_stimuli/rescaled_final/1254_rv.mp4	0.0	270.3728291988373	0.09994077682495117
62	251.34027099609375	fix_pre	0		119	60.0	2.5	/experiments/AOT/AOT_stimuli/rescaled_final/1798_rv.mp4	0.0	270.47276997566223	0.9917910099029541
62	252.3237431049347	pulse	0	t		60.0	2.5	/experiments/AOT/AOT_stimuli/rescaled_final/1798_rv.mp4	0.0	271.4562420845032	
62	252.3320620059967	movie	1		244	60.0	2.5	/experiments/AOT/AOT_stimuli/rescaled_final/1798_rv.mp4	0.0	271.4645609855652	2.5078351497650146
62	253.9235601425171	pulse	1	t		60.0	2.5	/experiments/AOT/AOT_stimuli/rescaled_final/1798_rv.mp4	0.0	273.05605912208557	
62	254.83989715576172	fix_post	2		12	60.0	2.5	/experiments/AOT/AOT_stimuli/rescaled_final/1798_rv.mp4	0.0	273.9723961353302	0.10032391548156738
63	254.9402210712433	fix_pre	0		120	61.0	2.5	/experiments/AOT/AOT_stimuli/rescaled_final/0162_fw.mp4	0.0	274.07272005081177	1.0000441074371338
63	255.52369904518127	pulse	0	t		61.0	2.5	/experiments/AOT/AOT_stimuli/rescaled_final/0162_fw.mp4	0.0	274.65619802474976	
63	255.94026517868042	movie	1		244	61.0	2.5	/experiments/AOT/AOT_stimuli/rescaled_final/0162_fw.mp4	0.0	275.0727641582489	2.499884843826294
63	257.1238281726837	pulse	1	t		61.0	2.5	/experiments/AOT/AOT_stimuli/rescaled_final/0162_fw.mp4	0.0	276.2563271522522	
63	258.4401500225067	fix_post	2		12	61.0	2.5	/experiments/AOT/AOT_stimuli/rescaled_final/0162_fw.mp4	0.0	277.5726490020752	0.09968113899230957
64	258.539831161499	fix_pre	0		120	62.0	2.5	blank	1.0	277.6723301410675	1.0003468990325928
64	258.72384309768677	pulse	0	t		62.0	2.5	blank	1.0	277.85634207725525	
64	259.5401780605316	movie	1		300	62.0	2.5	blank	1.0	278.6726770401001	2.500159978866577
64	260.32382702827454	pulse	1	t		62.0	2.5	blank	1.0	279.456326007843	
64	261.91622519493103	pulse	1	t		62.0	2.5	blank	1.0	281.0487241744995	
64	262.0403380393982	fix_post	2		12	62.0	2.5	blank	1.0	281.1728370189667	0.09990096092224121
65	262.14023900032043	fix_pre	0		120	63.0	2.5	/experiments/AOT/AOT_stimuli/rescaled_final/0851_fw.mp4	0.0	281.2727379798889	0.9999690055847168
65	263.14020800590515	movie	1		243	63.0	2.5	/experiments/AOT/AOT_stimuli/rescaled_final/0851_fw.mp4	0.0	282.27270698547363	2.5001330375671387
65	263.5235011577606	pulse	1	t		63.0	2.5	/experiments/AOT/AOT_stimuli/rescaled_final/0851_fw.mp4	0.0	282.6560001373291	
65	265.1163411140442	pulse	1	t		63.0	2.5	/experiments/AOT/AOT_stimuli/rescaled_final/0851_fw.mp4	0.0	284.24884009361267	
65	265.6403410434723	fix_post	2		12	63.0	2.5	/experiments/AOT/AOT_stimuli/rescaled_final/0851_fw.mp4	0.0	284.77284002304077	0.09946298599243164
66	265.7398040294647	fix_pre	0		119	64.0	2.5	/experiments/AOT/AOT_stimuli/rescaled_final/1383_rv.mp4	0.0	284.8723030090332	0.9920480251312256
66	266.7237570285797	pulse	0	t		64.0	2.5	/experiments/AOT/AOT_stimuli/rescaled_final/1383_rv.mp4	0.0	285.8562560081482	
66	266.73185205459595	movie	1		245	64.0	2.5	/experiments/AOT/AOT_stimuli/rescaled_final/1383_rv.mp4	0.0	285.86435103416443	2.507904052734375
66	268.3236482143402	pulse	1	t		64.0	2.5	/experiments/AOT/AOT_stimuli/rescaled_final/1383_rv.mp4	0.0	287.4561471939087	
66	269.2397561073303	fix_post	2		12	64.0	2.5	/experiments/AOT/AOT_stimuli/rescaled_final/1383_rv.mp4	0.0	288.3722550868988	0.09997987747192383
67	269.33973598480225	fix_pre	0		120	65.0	2.5	/experiments/AOT/AOT_stimuli/rescaled_final/0757_rv.mp4	0.0	288.4722349643707	0.9999980926513672
67	269.92368602752686	pulse	0	t		65.0	2.5	/experiments/AOT/AOT_stimuli/rescaled_final/0757_rv.mp4	0.0	289.05618500709534	
67	270.3397340774536	movie	1		244	65.0	2.5	/experiments/AOT/AOT_stimuli/rescaled_final/0757_rv.mp4	0.0	289.4722330570221	2.500533103942871
67	271.5237491130829	pulse	1	t		65.0	2.5	/experiments/AOT/AOT_stimuli/rescaled_final/0757_rv.mp4	0.0	290.65624809265137	
67	272.8402671813965	fix_post	2		12	65.0	2.5	/experiments/AOT/AOT_stimuli/rescaled_final/0757_rv.mp4	0.0	291.97276616096497	0.09996199607849121
68	272.940229177475	fix_pre	0		120	66.0	2.5	/experiments/AOT/AOT_stimuli/rescaled_final/0701_rv.mp4	0.0	292.07272815704346	0.999992847442627
68	273.12377309799194	pulse	0	t		66.0	2.5	/experiments/AOT/AOT_stimuli/rescaled_final/0701_rv.mp4	0.0	292.2562720775604	
68	273.9402220249176	movie	1		243	66.0	2.5	/experiments/AOT/AOT_stimuli/rescaled_final/0701_rv.mp4	0.0	293.0727210044861	2.5000531673431396
68	274.72366213798523	pulse	1	t		66.0	2.5	/experiments/AOT/AOT_stimuli/rescaled_final/0701_rv.mp4	0.0	293.8561611175537	
68	276.3218500614166	pulse	1	t		66.0	2.5	/experiments/AOT/AOT_stimuli/rescaled_final/0701_rv.mp4	0.0	295.4543490409851	
68	276.44027519226074	fix_post	2		12	66.0	2.5	/experiments/AOT/AOT_stimuli/rescaled_final/0701_rv.mp4	0.0	295.5727741718292	0.09996390342712402
69	276.54023909568787	fix_pre	0		120	67.0	2.5	/experiments/AOT/AOT_stimuli/rescaled_final/0936_fw.mp4	0.0	295.67273807525635	0.9999270439147949
69	277.54016613960266	movie	1		245	67.0	2.5	/experiments/AOT/AOT_stimuli/rescaled_final/0936_fw.mp4	0.0	296.67266511917114	2.500051975250244
69	277.923495054245	pulse	1	t		67.0	2.5	/experiments/AOT/AOT_stimuli/rescaled_final/0936_fw.mp4	0.0	297.0559940338135	
69	279.51624512672424	pulse	1	t		67.0	2.5	/experiments/AOT/AOT_stimuli/rescaled_final/0936_fw.mp4	0.0	298.6487441062927	
69	280.0402181148529	fix_post	2		12	67.0	2.5	/experiments/AOT/AOT_stimuli/rescaled_final/0936_fw.mp4	0.0	299.1727170944214	0.09951400756835938
70	280.13973212242126	fix_pre	0		119	68.0	2.5	/experiments/AOT/AOT_stimuli/rescaled_final/0420_rv.mp4	0.0	299.27223110198975	0.991642951965332
70	281.1232740879059	pulse	0	t		68.0	2.5	/experiments/AOT/AOT_stimuli/rescaled_final/0420_rv.mp4	0.0	300.25577306747437	
70	281.1313750743866	movie	1		246	68.0	2.5	/experiments/AOT/AOT_stimuli/rescaled_final/0420_rv.mp4	0.0	300.2638740539551	2.508363962173462
70	282.72336506843567	pulse	1	t		68.0	2.5	/experiments/AOT/AOT_stimuli/rescaled_final/0420_rv.mp4	0.0	301.85586404800415	
70	283.63973903656006	fix_post	2		12	68.0	2.5	/experiments/AOT/AOT_stimuli/rescaled_final/0420_rv.mp4	0.0	302.77223801612854	0.10040712356567383
71	283.74014616012573	fix_pre	0		120	69.0	2.5	/experiments/AOT/AOT_stimuli/rescaled_final/1848_fw.mp4	0.0	302.8726451396942	1.0000338554382324
71	284.32365703582764	pulse	0	t		69.0	2.5	/experiments/AOT/AOT_stimuli/rescaled_final/1848_fw.mp4	0.0	303.4561560153961	
71	284.74018001556396	movie	1		243	69.0	2.5	/experiments/AOT/AOT_stimuli/rescaled_final/1848_fw.mp4	0.0	303.87267899513245	2.4999501705169678
71	285.92370319366455	pulse	1	t		69.0	2.5	/experiments/AOT/AOT_stimuli/rescaled_final/1848_fw.mp4	0.0	305.05620217323303	
71	287.24013018608093	fix_post	2		12	69.0	2.5	/experiments/AOT/AOT_stimuli/rescaled_final/1848_fw.mp4	0.0	306.3726291656494	0.0995488166809082
72	287.33967900276184	fix_pre	0		120	70.0	2.5	blank	1.0	306.4721779823303	1.000380039215088
72	287.5236201286316	pulse	0	t		70.0	2.5	blank	1.0	306.6561191082001	
72	288.34005904197693	movie	1		300	70.0	2.5	blank	1.0	307.4725580215454	2.5000100135803223
72	289.12354803085327	pulse	1	t		70.0	2.5	blank	1.0	308.25604701042175	
72	290.7235550880432	pulse	1	t		70.0	2.5	blank	1.0	309.8560540676117	
72	290.84006905555725	fix_post	2		12	70.0	2.5	blank	1.0	309.97256803512573	0.10000395774841309
73	290.94007301330566	fix_pre	0		120	71.0	2.5	/experiments/AOT/AOT_stimuli/rescaled_final/0868_fw.mp4	0.0	310.07257199287415	0.999589204788208
73	291.9396622180939	movie	1		246	71.0	2.5	/experiments/AOT/AOT_stimuli/rescaled_final/0868_fw.mp4	0.0	311.07216119766235	2.5000369548797607
73	292.3232581615448	pulse	1	t		71.0	2.5	/experiments/AOT/AOT_stimuli/rescaled_final/0868_fw.mp4	0.0	311.4557571411133	
73	293.9235911369324	pulse	1	t		71.0	2.5	/experiments/AOT/AOT_stimuli/rescaled_final/0868_fw.mp4	0.0	313.05609011650085	
73	294.43969917297363	fix_post	2		12	71.0	2.5	/experiments/AOT/AOT_stimuli/rescaled_final/0868_fw.mp4	0.0	313.5721981525421	0.10032987594604492
74	294.5400290489197	fix_pre	0		119	72.0	2.5	/experiments/AOT/AOT_stimuli/rescaled_final/0455_fw.mp4	0.0	313.67252802848816	0.9917371273040771
74	295.5235221385956	pulse	0	t		72.0	2.5	/experiments/AOT/AOT_stimuli/rescaled_final/0455_fw.mp4	0.0	314.65602111816406	
74	295.53176617622375	movie	1		246	72.0	2.5	/experiments/AOT/AOT_stimuli/rescaled_final/0455_fw.mp4	0.0	314.66426515579224	2.5082809925079346
74	297.123122215271	pulse	1	t		72.0	2.5	/experiments/AOT/AOT_stimuli/rescaled_final/0455_fw.mp4	0.0	316.2556211948395	
74	298.0400471687317	fix_post	2		12	72.0	2.5	/experiments/AOT/AOT_stimuli/rescaled_final/0455_fw.mp4	0.0	317.17254614830017	0.09998703002929688
75	298.140034198761	fix_pre	0		120	73.0	2.5	/experiments/AOT/AOT_stimuli/rescaled_final/2024_fw.mp4	0.0	317.27253317832947	1.0000078678131104
75	298.7235732078552	pulse	0	t		73.0	2.5	/experiments/AOT/AOT_stimuli/rescaled_final/2024_fw.mp4	0.0	317.8560721874237	
75	299.1400420665741	movie	1		245	73.0	2.5	/experiments/AOT/AOT_stimuli/rescaled_final/2024_fw.mp4	0.0	318.2725410461426	2.5000720024108887
75	300.32357001304626	pulse	1	t		73.0	2.5	/experiments/AOT/AOT_stimuli/rescaled_final/2024_fw.mp4	0.0	319.45606899261475	
75	301.640114068985	fix_post	2		12	73.0	2.5	/experiments/AOT/AOT_stimuli/rescaled_final/2024_fw.mp4	0.0	320.77261304855347	0.09994101524353027
76	301.7400550842285	fix_pre	0		120	74.0	2.5	/experiments/AOT/AOT_stimuli/rescaled_final/0835_fw.mp4	0.0	320.872554063797	1.0000369548797607
76	301.92357206344604	pulse	0	t		74.0	2.5	/experiments/AOT/AOT_stimuli/rescaled_final/0835_fw.mp4	0.0	321.0560710430145	
76	302.7400920391083	movie	1		245	74.0	2.5	/experiments/AOT/AOT_stimuli/rescaled_final/0835_fw.mp4	0.0	321.87259101867676	2.499488115310669
76	303.5235080718994	pulse	1	t		74.0	2.5	/experiments/AOT/AOT_stimuli/rescaled_final/0835_fw.mp4	0.0	322.6560070514679	
76	305.12247920036316	pulse	1	t		74.0	2.5	/experiments/AOT/AOT_stimuli/rescaled_final/0835_fw.mp4	0.0	324.25497817993164	
76	305.23958015441895	fix_post	2		12	74.0	2.5	/experiments/AOT/AOT_stimuli/rescaled_final/0835_fw.mp4	0.0	324.3720791339874	0.10057187080383301
77	305.3401520252228	fix_pre	0		120	75.0	2.5	/experiments/AOT/AOT_stimuli/rescaled_final/0597_rv.mp4	0.0	324.47265100479126	0.9994571208953857
77	306.33960914611816	movie	1		245	75.0	2.5	/experiments/AOT/AOT_stimuli/rescaled_final/0597_rv.mp4	0.0	325.47210812568665	2.4999279975891113
77	306.72287607192993	pulse	1	t		75.0	2.5	/experiments/AOT/AOT_stimuli/rescaled_final/0597_rv.mp4	0.0	325.8553750514984	
77	308.3234701156616	pulse	1	t		75.0	2.5	/experiments/AOT/AOT_stimuli/rescaled_final/0597_rv.mp4	0.0	327.4559690952301	
77	308.8395371437073	fix_post	2		12	75.0	2.5	/experiments/AOT/AOT_stimuli/rescaled_final/0597_rv.mp4	0.0	327.97203612327576	0.1004788875579834
78	308.94001603126526	fix_pre	0		119	76.0	2.5	blank	1.0	328.07251501083374	0.9916150569915771
78	309.92353200912476	pulse	0	t		76.0	2.5	blank	1.0	329.05603098869324	
78	309.93163108825684	movie	1		301	76.0	2.5	blank	1.0	329.0641300678253	2.5083580017089844
78	311.5234491825104	pulse	1	t		76.0	2.5	blank	1.0	330.65594816207886	
78	312.4399890899658	fix_post	2		12	76.0	2.5	blank	1.0	331.5724880695343	0.09998011589050293
79	312.5399692058563	fix_pre	0		120	77.0	2.5	/experiments/AOT/AOT_stimuli/rescaled_final/0185_rv.mp4	0.0	331.6724681854248	0.9995579719543457
79	313.1234772205353	pulse	0	t		77.0	2.5	/experiments/AOT/AOT_stimuli/rescaled_final/0185_rv.mp4	0.0	332.25597620010376	
79	313.53952717781067	movie	1		245	77.0	2.5	/experiments/AOT/AOT_stimuli/rescaled_final/0185_rv.mp4	0.0	332.67202615737915	2.5003998279571533
79	314.7235531806946	pulse	1	t		77.0	2.5	/experiments/AOT/AOT_stimuli/rescaled_final/0185_rv.mp4	0.0	333.85605216026306	
79	316.0399270057678	fix_post	2		12	77.0	2.5	/experiments/AOT/AOT_stimuli/rescaled_final/0185_rv.mp4	0.0	335.1724259853363	0.1000070571899414
80	316.13993406295776	fix_pre	0		120	78.0	2.5	/experiments/AOT/AOT_stimuli/rescaled_final/0839_rv.mp4	0.0	335.27243304252625	0.9999699592590332
80	316.32355308532715	pulse	0	t		78.0	2.5	/experiments/AOT/AOT_stimuli/rescaled_final/0839_rv.mp4	0.0	335.45605206489563	
80	317.1399040222168	movie	1		244	78.0	2.5	/experiments/AOT/AOT_stimuli/rescaled_final/0839_rv.mp4	0.0	336.2724030017853	2.50003719329834
80	317.92345905303955	pulse	1	t		78.0	2.5	/experiments/AOT/AOT_stimuli/rescaled_final/0839_rv.mp4	0.0	337.05595803260803	
80	319.521879196167	pulse	1	t		78.0	2.5	/experiments/AOT/AOT_stimuli/rescaled_final/0839_rv.mp4	0.0	338.6543781757355	
80	319.63994121551514	fix_post	2		12	78.0	2.5	/experiments/AOT/AOT_stimuli/rescaled_final/0839_rv.mp4	0.0	338.7724401950836	0.10001683235168457
81	319.7399580478668	fix_pre	0		120	79.0	2.5	/experiments/AOT/AOT_stimuli/rescaled_final/0863_rv.mp4	0.0	338.8724570274353	0.9999270439147949
81	320.7398850917816	movie	1		243	79.0	2.5	/experiments/AOT/AOT_stimuli/rescaled_final/0863_rv.mp4	0.0	339.8723840713501	2.500019073486328
81	321.1228790283203	pulse	1	t		79.0	2.5	/experiments/AOT/AOT_stimuli/rescaled_final/0863_rv.mp4	0.0	340.2553780078888	
81	322.72345900535583	pulse	1	t		79.0	2.5	/experiments/AOT/AOT_stimuli/rescaled_final/0863_rv.mp4	0.0	341.8559579849243	
81	323.23990416526794	fix_post	2		12	79.0	2.5	/experiments/AOT/AOT_stimuli/rescaled_final/0863_rv.mp4	0.0	342.3724031448364	0.09998583793640137
82	323.33989000320435	fix_pre	0		119	80.0	2.5	/experiments/AOT/AOT_stimuli/rescaled_final/0199_rv.mp4	0.0	342.4723889827728	0.9916501045227051
82	324.3233721256256	pulse	0	t		80.0	2.5	/experiments/AOT/AOT_stimuli/rescaled_final/0199_rv.mp4	0.0	343.4558711051941	
82	324.33154010772705	movie	1		246	80.0	2.5	/experiments/AOT/AOT_stimuli/rescaled_final/0199_rv.mp4	0.0	343.46403908729553	2.507917881011963
82	325.92299008369446	pulse	1	t		80.0	2.5	/experiments/AOT/AOT_stimuli/rescaled_final/0199_rv.mp4	0.0	345.05548906326294	
82	326.839457988739	fix_post	2		12	80.0	2.5	/experiments/AOT/AOT_stimuli/rescaled_final/0199_rv.mp4	0.0	345.9719569683075	0.10048913955688477
83	326.9399471282959	fix_pre	0		120	81.0	2.5	/experiments/AOT/AOT_stimuli/rescaled_final/0562_rv.mp4	0.0	346.0724461078644	0.9994969367980957
83	327.52337408065796	pulse	0	t		81.0	2.5	/experiments/AOT/AOT_stimuli/rescaled_final/0562_rv.mp4	0.0	346.65587306022644	
83	327.939444065094	movie	1		243	81.0	2.5	/experiments/AOT/AOT_stimuli/rescaled_final/0562_rv.mp4	0.0	347.0719430446625	2.500483989715576
83	329.1235342025757	pulse	1	t		81.0	2.5	/experiments/AOT/AOT_stimuli/rescaled_final/0562_rv.mp4	0.0	348.25603318214417	
83	330.43992805480957	fix_post	2		12	81.0	2.5	/experiments/AOT/AOT_stimuli/rescaled_final/0562_rv.mp4	0.0	349.57242703437805	0.10001897811889648
84	330.53994703292847	fix_pre	0		120	82.0	2.5	blank	1.0	349.67244601249695	0.9999430179595947
84	330.72332215309143	pulse	0	t		82.0	2.5	blank	1.0	349.8558211326599	
84	331.53989005088806	movie	1		300	82.0	2.5	blank	1.0	350.67238903045654	2.5000691413879395
84	332.3233251571655	pulse	1	t		82.0	2.5	blank	1.0	351.455824136734	
84	333.9233441352844	pulse	1	t		82.0	2.5	blank	1.0	353.0558431148529	
84	334.039959192276	fix_post	2		12	82.0	2.5	blank	1.0	353.1724581718445	0.09991884231567383
85	334.1398780345917	fix_pre	0		120	83.0	2.5	/experiments/AOT/AOT_stimuli/rescaled_final/0561_rv.mp4	0.0	353.27237701416016	1.0000240802764893
85	335.13990211486816	movie	1		243	83.0	2.5	/experiments/AOT/AOT_stimuli/rescaled_final/0561_rv.mp4	0.0	354.27240109443665	2.4997169971466064
85	335.52311420440674	pulse	1	t		83.0	2.5	/experiments/AOT/AOT_stimuli/rescaled_final/0561_rv.mp4	0.0	354.6556131839752	
85	337.12335419654846	pulse	1	t		83.0	2.5	/experiments/AOT/AOT_stimuli/rescaled_final/0561_rv.mp4	0.0	356.25585317611694	
85	337.63961911201477	fix_post	2		12	83.0	2.5	/experiments/AOT/AOT_stimuli/rescaled_final/0561_rv.mp4	0.0	356.77211809158325	0.09994292259216309
87	337.73956203460693	stim	0		1716					356.8720610141754	14.300239086151123
87	338.72362208366394	pulse	0	t						357.8561210632324	
87	340.3233439922333	pulse	0	t						359.45584297180176	
87	341.92333221435547	pulse	0	t						361.05583119392395	
87	343.5233430862427	pulse	0	t						362.65584206581116	
87	345.1232681274414	pulse	0	t						364.2557671070099	
87	346.7232542037964	pulse	0	t						365.85575318336487	
87	348.32326912879944	pulse	0	t						367.4557681083679	
87	349.9232339859009	pulse	0	t						369.05573296546936	
87	351.5232331752777	pulse	0	t						370.6557321548462	
