trial_nr	onset	event_type	phase	response	nr_frames	movie_index	movie_duration	movie_file	blank	onset_abs	duration
0	0.1578049659729004	stim	0		152					22.731262922286987	1.267064094543457
0	1.4168970584869385	response	0	space						23.990355014801025	
1	1.4248690605163574	stim	0		3015					23.998327016830444	25.13296103477478
1	26.54634404182434	pulse	0	t						49.11980199813843	
1	26.557830095291138	stim	1		1716					49.131288051605225	14.300164937973022
1	28.14134407043457	pulse	1	t						50.71480202674866	
1	29.74164891242981	pulse	1	t						52.3151068687439	
1	31.341609954833984	pulse	1	t						53.91506791114807	
1	32.941519021987915	pulse	1	t						55.514976978302	
1	34.54148507118225	pulse	1	t						57.11494302749634	
1	36.14152789115906	pulse	1	t						58.714985847473145	
1	37.74152588844299	pulse	1	t						60.31498384475708	
1	39.341469049453735	pulse	1	t						61.91492700576782	
2	40.85799503326416	fix_pre	0		11	0.0	2.5	/experiments/AOT/AOT_stimuli/rescaled_final/0062_fw.mp4	0.0	63.43145298957825	0.0917048454284668
2	40.94150710105896	pulse	0	t		0.0	2.5	/experiments/AOT/AOT_stimuli/rescaled_final/0062_fw.mp4	0.0	63.51496505737305	
2	40.94969987869263	movie	1		243	0.0	2.5	/experiments/AOT/AOT_stimuli/rescaled_final/0062_fw.mp4	0.0	63.523157835006714	2.5083200931549072
2	42.54253101348877	pulse	1	t		0.0	2.5	/experiments/AOT/AOT_stimuli/rescaled_final/0062_fw.mp4	0.0	65.11598896980286	
2	43.458019971847534	fix_post	2		12	0.0	2.5	/experiments/AOT/AOT_stimuli/rescaled_final/0062_fw.mp4	0.0	66.03147792816162	0.09995794296264648
3	43.55797791481018	fix_pre	0		120	1.0	2.5	/experiments/AOT/AOT_stimuli/rescaled_final/0684_fw.mp4	0.0	66.13143587112427	0.9999489784240723
3	44.14155697822571	pulse	0	t		1.0	2.5	/experiments/AOT/AOT_stimuli/rescaled_final/0684_fw.mp4	0.0	66.7150149345398	
3	44.55792689323425	movie	1		243	1.0	2.5	/experiments/AOT/AOT_stimuli/rescaled_final/0684_fw.mp4	0.0	67.13138484954834	2.5000081062316895
3	45.741591930389404	pulse	1	t		1.0	2.5	/experiments/AOT/AOT_stimuli/rescaled_final/0684_fw.mp4	0.0	68.31504988670349	
3	47.05793499946594	fix_post	2		12	1.0	2.5	/experiments/AOT/AOT_stimuli/rescaled_final/0684_fw.mp4	0.0	69.63139295578003	0.10019302368164062
4	47.15812802314758	fix_pre	0		120	2.0	2.5	/experiments/AOT/AOT_stimuli/rescaled_final/2015_fw.mp4	0.0	69.73158597946167	0.9998588562011719
4	47.34144592285156	pulse	0	t		2.0	2.5	/experiments/AOT/AOT_stimuli/rescaled_final/2015_fw.mp4	0.0	69.91490387916565	
4	48.157986879348755	movie	1		243	2.0	2.5	/experiments/AOT/AOT_stimuli/rescaled_final/2015_fw.mp4	0.0	70.73144483566284	2.5000500679016113
4	48.94142389297485	pulse	1	t		2.0	2.5	/experiments/AOT/AOT_stimuli/rescaled_final/2015_fw.mp4	0.0	71.51488184928894	
4	50.54990196228027	pulse	1	t		2.0	2.5	/experiments/AOT/AOT_stimuli/rescaled_final/2015_fw.mp4	0.0	73.12335991859436	
4	50.658036947250366	fix_post	2		12	2.0	2.5	/experiments/AOT/AOT_stimuli/rescaled_final/2015_fw.mp4	0.0	73.23149490356445	0.09992313385009766
5	50.757960081100464	fix_pre	0		120	3.0	2.5	/experiments/AOT/AOT_stimuli/rescaled_final/0435_rv.mp4	0.0	73.33141803741455	1.000152826309204
5	51.75811290740967	movie	1		246	3.0	2.5	/experiments/AOT/AOT_stimuli/rescaled_final/0435_rv.mp4	0.0	74.33157086372375	2.4998371601104736
5	52.14115595817566	pulse	1	t		3.0	2.5	/experiments/AOT/AOT_stimuli/rescaled_final/0435_rv.mp4	0.0	74.71461391448975	
5	53.74144697189331	pulse	1	t		3.0	2.5	/experiments/AOT/AOT_stimuli/rescaled_final/0435_rv.mp4	0.0	76.3149049282074	
5	54.25795006752014	fix_post	2		12	3.0	2.5	/experiments/AOT/AOT_stimuli/rescaled_final/0435_rv.mp4	0.0	76.83140802383423	0.09958600997924805
6	54.35753607749939	fix_pre	0		119	4.0	2.5	/experiments/AOT/AOT_stimuli/rescaled_final/0138_fw.mp4	0.0	76.93099403381348	0.9921019077301025
6	55.34147787094116	pulse	0	t		4.0	2.5	/experiments/AOT/AOT_stimuli/rescaled_final/0138_fw.mp4	0.0	77.91493582725525	
6	55.34963798522949	movie	1		244	4.0	2.5	/experiments/AOT/AOT_stimuli/rescaled_final/0138_fw.mp4	0.0	77.92309594154358	2.5078890323638916
6	56.94098496437073	pulse	1	t		4.0	2.5	/experiments/AOT/AOT_stimuli/rescaled_final/0138_fw.mp4	0.0	79.51444292068481	
6	57.857527017593384	fix_post	2		12	4.0	2.5	/experiments/AOT/AOT_stimuli/rescaled_final/0138_fw.mp4	0.0	80.43098497390747	0.10047197341918945
7	57.95799899101257	fix_pre	0		120	5.0	2.5	/experiments/AOT/AOT_stimuli/rescaled_final/0660_rv.mp4	0.0	80.53145694732666	1.0000219345092773
7	58.54146695137024	pulse	0	t		5.0	2.5	/experiments/AOT/AOT_stimuli/rescaled_final/0660_rv.mp4	0.0	81.11492490768433	
7	58.95802092552185	movie	1		243	5.0	2.5	/experiments/AOT/AOT_stimuli/rescaled_final/0660_rv.mp4	0.0	81.53147888183594	2.4999330043792725
7	60.141464948654175	pulse	1	t		5.0	2.5	/experiments/AOT/AOT_stimuli/rescaled_final/0660_rv.mp4	0.0	82.71492290496826	
7	61.45795392990112	fix_post	2		12	5.0	2.5	/experiments/AOT/AOT_stimuli/rescaled_final/0660_rv.mp4	0.0	84.03141188621521	0.10000205039978027
8	61.5579559803009	fix_pre	0		120	6.0	2.5	/experiments/AOT/AOT_stimuli/rescaled_final/0035_fw.mp4	0.0	84.13141393661499	1.0000019073486328
8	61.74148392677307	pulse	0	t		6.0	2.5	/experiments/AOT/AOT_stimuli/rescaled_final/0035_fw.mp4	0.0	84.31494188308716	
8	62.557957887649536	movie	1		245	6.0	2.5	/experiments/AOT/AOT_stimuli/rescaled_final/0035_fw.mp4	0.0	85.13141584396362	2.4996180534362793
8	63.34160304069519	pulse	1	t		6.0	2.5	/experiments/AOT/AOT_stimuli/rescaled_final/0035_fw.mp4	0.0	85.91506099700928	
8	64.9497480392456	pulse	1	t		6.0	2.5	/experiments/AOT/AOT_stimuli/rescaled_final/0035_fw.mp4	0.0	87.52320599555969	
8	65.05757594108582	fix_post	2		12	6.0	2.5	/experiments/AOT/AOT_stimuli/rescaled_final/0035_fw.mp4	0.0	87.6310338973999	0.10042095184326172
9	65.15799689292908	fix_pre	0		120	7.0	2.5	blank	1.0	87.73145484924316	0.9999310970306396
9	66.15792798995972	movie	1		300	7.0	2.5	blank	1.0	88.7313859462738	2.499950885772705
9	66.5413749217987	pulse	1	t		7.0	2.5	blank	1.0	89.1148328781128	
9	68.14143395423889	pulse	1	t		7.0	2.5	blank	1.0	90.71489191055298	
9	68.65787887573242	fix_post	2		12	7.0	2.5	blank	1.0	91.23133683204651	0.10008716583251953
10	68.75796604156494	fix_pre	0		119	8.0	2.5	/experiments/AOT/AOT_stimuli/rescaled_final/0271_fw.mp4	0.0	91.33142399787903	0.9915978908538818
10	69.74144387245178	pulse	0	t		8.0	2.5	/experiments/AOT/AOT_stimuli/rescaled_final/0271_fw.mp4	0.0	92.31490182876587	
10	69.74956393241882	movie	1		245	8.0	2.5	/experiments/AOT/AOT_stimuli/rescaled_final/0271_fw.mp4	0.0	92.32302188873291	2.5083200931549072
10	71.34976506233215	pulse	1	t		8.0	2.5	/experiments/AOT/AOT_stimuli/rescaled_final/0271_fw.mp4	0.0	93.92322301864624	
10	72.25788402557373	fix_post	2		12	8.0	2.5	/experiments/AOT/AOT_stimuli/rescaled_final/0271_fw.mp4	0.0	94.83134198188782	0.10002803802490234
11	72.35791206359863	fix_pre	0		120	9.0	2.5	/experiments/AOT/AOT_stimuli/rescaled_final/1531_rv.mp4	0.0	94.93137001991272	0.9999220371246338
11	72.94138693809509	pulse	0	t		9.0	2.5	/experiments/AOT/AOT_stimuli/rescaled_final/1531_rv.mp4	0.0	95.51484489440918	
11	73.35783410072327	movie	1		245	9.0	2.5	/experiments/AOT/AOT_stimuli/rescaled_final/1531_rv.mp4	0.0	95.93129205703735	2.5000908374786377
11	74.54138898849487	pulse	1	t		9.0	2.5	/experiments/AOT/AOT_stimuli/rescaled_final/1531_rv.mp4	0.0	97.11484694480896	
11	75.8579249382019	fix_post	2		12	9.0	2.5	/experiments/AOT/AOT_stimuli/rescaled_final/1531_rv.mp4	0.0	98.43138289451599	0.09992194175720215
12	75.9578468799591	fix_pre	0		120	10.0	2.5	/experiments/AOT/AOT_stimuli/rescaled_final/0306_fw.mp4	0.0	98.5313048362732	1.0000832080841064
12	76.14134287834167	pulse	0	t		10.0	2.5	/experiments/AOT/AOT_stimuli/rescaled_final/0306_fw.mp4	0.0	98.71480083465576	
12	76.95793008804321	movie	1		246	10.0	2.5	/experiments/AOT/AOT_stimuli/rescaled_final/0306_fw.mp4	0.0	99.5313880443573	2.4999759197235107
12	77.74134588241577	pulse	1	t		10.0	2.5	/experiments/AOT/AOT_stimuli/rescaled_final/0306_fw.mp4	0.0	100.31480383872986	
12	79.34107995033264	pulse	1	t		10.0	2.5	/experiments/AOT/AOT_stimuli/rescaled_final/0306_fw.mp4	0.0	101.91453790664673	
12	79.45790600776672	fix_post	2		12	10.0	2.5	/experiments/AOT/AOT_stimuli/rescaled_final/0306_fw.mp4	0.0	102.03136396408081	0.09993791580200195
13	79.55784392356873	fix_pre	0		120	11.0	2.5	/experiments/AOT/AOT_stimuli/rescaled_final/0606_rv.mp4	0.0	102.13130187988281	1.0000619888305664
13	80.55790591239929	movie	1		246	11.0	2.5	/experiments/AOT/AOT_stimuli/rescaled_final/0606_rv.mp4	0.0	103.13136386871338	2.499962091445923
13	80.94130992889404	pulse	1	t		11.0	2.5	/experiments/AOT/AOT_stimuli/rescaled_final/0606_rv.mp4	0.0	103.51476788520813	
13	82.54091787338257	pulse	1	t		11.0	2.5	/experiments/AOT/AOT_stimuli/rescaled_final/0606_rv.mp4	0.0	105.11437582969666	
13	83.05786800384521	fix_post	2		12	11.0	2.5	/experiments/AOT/AOT_stimuli/rescaled_final/0606_rv.mp4	0.0	105.6313259601593	0.09961199760437012
14	83.15748000144958	fix_pre	0		119	12.0	2.5	blank	1.0	105.73093795776367	0.991818904876709
14	84.14117503166199	pulse	0	t		12.0	2.5	blank	1.0	106.71463298797607	
14	84.1492989063263	movie	1		301	12.0	2.5	blank	1.0	106.72275686264038	2.5085201263427734
14	85.74129605293274	pulse	1	t		12.0	2.5	blank	1.0	108.31475400924683	
14	86.65781903266907	fix_post	2		12	12.0	2.5	blank	1.0	109.23127698898315	0.10004496574401855
15	86.75786399841309	fix_pre	0		120	13.0	2.5	/experiments/AOT/AOT_stimuli/rescaled_final/0219_fw.mp4	0.0	109.33132195472717	1.0000228881835938
15	87.34129095077515	pulse	0	t		13.0	2.5	/experiments/AOT/AOT_stimuli/rescaled_final/0219_fw.mp4	0.0	109.91474890708923	
15	87.75788688659668	movie	1		244	13.0	2.5	/experiments/AOT/AOT_stimuli/rescaled_final/0219_fw.mp4	0.0	110.33134484291077	2.500009059906006
15	88.94136309623718	pulse	1	t		13.0	2.5	/experiments/AOT/AOT_stimuli/rescaled_final/0219_fw.mp4	0.0	111.51482105255127	
15	90.25789594650269	fix_post	2		12	13.0	2.5	/experiments/AOT/AOT_stimuli/rescaled_final/0219_fw.mp4	0.0	112.83135390281677	0.09989809989929199
16	90.35779404640198	fix_pre	0		120	14.0	2.5	/experiments/AOT/AOT_stimuli/rescaled_final/1788_rv.mp4	0.0	112.93125200271606	0.9999990463256836
16	90.54126191139221	pulse	0	t		14.0	2.5	/experiments/AOT/AOT_stimuli/rescaled_final/1788_rv.mp4	0.0	113.1147198677063	
16	91.35779309272766	movie	1		244	14.0	2.5	/experiments/AOT/AOT_stimuli/rescaled_final/1788_rv.mp4	0.0	113.93125104904175	2.4999709129333496
16	92.141352891922	pulse	1	t		14.0	2.5	/experiments/AOT/AOT_stimuli/rescaled_final/1788_rv.mp4	0.0	114.71481084823608	
16	93.7413580417633	pulse	1	t		14.0	2.5	/experiments/AOT/AOT_stimuli/rescaled_final/1788_rv.mp4	0.0	116.31481599807739	
16	93.85776400566101	fix_post	2		12	14.0	2.5	/experiments/AOT/AOT_stimuli/rescaled_final/1788_rv.mp4	0.0	116.4312219619751	0.10001707077026367
17	93.95778107643127	fix_pre	0		120	15.0	2.5	/experiments/AOT/AOT_stimuli/rescaled_final/1812_fw.mp4	0.0	116.53123903274536	1.0000247955322266
17	94.9578058719635	movie	1		246	15.0	2.5	/experiments/AOT/AOT_stimuli/rescaled_final/1812_fw.mp4	0.0	117.53126382827759	2.4999070167541504
17	95.340665102005	pulse	1	t		15.0	2.5	/experiments/AOT/AOT_stimuli/rescaled_final/1812_fw.mp4	0.0	117.91412305831909	
17	96.94126605987549	pulse	1	t		15.0	2.5	/experiments/AOT/AOT_stimuli/rescaled_final/1812_fw.mp4	0.0	119.51472401618958	
17	97.45771288871765	fix_post	2		12	15.0	2.5	/experiments/AOT/AOT_stimuli/rescaled_final/1812_fw.mp4	0.0	120.03117084503174	0.10003113746643066
18	97.55774402618408	fix_pre	0		119	16.0	2.5	/experiments/AOT/AOT_stimuli/rescaled_final/0706_rv.mp4	0.0	120.13120198249817	0.9916520118713379
18	98.54123187065125	pulse	0	t		16.0	2.5	/experiments/AOT/AOT_stimuli/rescaled_final/0706_rv.mp4	0.0	121.11468982696533	
18	98.54939603805542	movie	1		248	16.0	2.5	/experiments/AOT/AOT_stimuli/rescaled_final/0706_rv.mp4	0.0	121.1228539943695	2.5082919597625732
18	100.14100408554077	pulse	1	t		16.0	2.5	/experiments/AOT/AOT_stimuli/rescaled_final/0706_rv.mp4	0.0	122.71446204185486	
18	101.057687997818	fix_post	2		12	16.0	2.5	/experiments/AOT/AOT_stimuli/rescaled_final/0706_rv.mp4	0.0	123.63114595413208	0.09999299049377441
19	101.15768098831177	fix_pre	0		120	17.0	2.5	/experiments/AOT/AOT_stimuli/rescaled_final/1396_rv.mp4	0.0	123.73113894462585	1.0001099109649658
19	101.74245810508728	pulse	0	t		17.0	2.5	/experiments/AOT/AOT_stimuli/rescaled_final/1396_rv.mp4	0.0	124.31591606140137	
19	102.15779089927673	movie	1		245	17.0	2.5	/experiments/AOT/AOT_stimuli/rescaled_final/1396_rv.mp4	0.0	124.73124885559082	2.49996018409729
19	103.34125709533691	pulse	1	t		17.0	2.5	/experiments/AOT/AOT_stimuli/rescaled_final/1396_rv.mp4	0.0	125.914715051651	
19	104.65775108337402	fix_post	2		12	17.0	2.5	/experiments/AOT/AOT_stimuli/rescaled_final/1396_rv.mp4	0.0	127.23120903968811	0.09995889663696289
20	104.75770998001099	fix_pre	0		120	18.0	2.5	/experiments/AOT/AOT_stimuli/rescaled_final/0530_rv.mp4	0.0	127.33116793632507	0.9999959468841553
20	104.94122099876404	pulse	0	t		18.0	2.5	/experiments/AOT/AOT_stimuli/rescaled_final/0530_rv.mp4	0.0	127.51467895507812	
20	105.75770592689514	movie	1		243	18.0	2.5	/experiments/AOT/AOT_stimuli/rescaled_final/0530_rv.mp4	0.0	128.33116388320923	2.5000410079956055
20	106.54127907752991	pulse	1	t		18.0	2.5	/experiments/AOT/AOT_stimuli/rescaled_final/0530_rv.mp4	0.0	129.114737033844	
20	108.14959406852722	pulse	1	t		18.0	2.5	/experiments/AOT/AOT_stimuli/rescaled_final/0530_rv.mp4	0.0	130.7230520248413	
20	108.25774693489075	fix_post	2		12	18.0	2.5	/experiments/AOT/AOT_stimuli/rescaled_final/0530_rv.mp4	0.0	130.83120489120483	0.09950900077819824
21	108.35725593566895	fix_pre	0		120	19.0	2.5	/experiments/AOT/AOT_stimuli/rescaled_final/2038_fw.mp4	0.0	130.93071389198303	1.000378131866455
21	109.3576340675354	movie	1		247	19.0	2.5	/experiments/AOT/AOT_stimuli/rescaled_final/2038_fw.mp4	0.0	131.9310920238495	2.499631881713867
21	109.74135494232178	pulse	1	t		19.0	2.5	/experiments/AOT/AOT_stimuli/rescaled_final/2038_fw.mp4	0.0	132.31481289863586	
21	111.34117698669434	pulse	1	t		19.0	2.5	/experiments/AOT/AOT_stimuli/rescaled_final/2038_fw.mp4	0.0	133.91463494300842	
21	111.85726594924927	fix_post	2		12	19.0	2.5	/experiments/AOT/AOT_stimuli/rescaled_final/2038_fw.mp4	0.0	134.43072390556335	0.10050296783447266
22	111.95776891708374	fix_pre	0		119	20.0	2.5	blank	1.0	134.53122687339783	0.9915471076965332
22	112.94115591049194	pulse	0	t		20.0	2.5	blank	1.0	135.51461386680603	
22	112.94931602478027	movie	1		301	20.0	2.5	blank	1.0	135.52277398109436	2.5083909034729004
22	114.54119491577148	pulse	1	t		20.0	2.5	blank	1.0	137.11465287208557	
22	115.45770692825317	fix_post	2		12	20.0	2.5	blank	1.0	138.03116488456726	0.09989595413208008
23	115.55760288238525	fix_pre	0		120	21.0	2.5	/experiments/AOT/AOT_stimuli/rescaled_final/0828_rv.mp4	0.0	138.13106083869934	1.000089168548584
23	116.14120101928711	pulse	0	t		21.0	2.5	/experiments/AOT/AOT_stimuli/rescaled_final/0828_rv.mp4	0.0	138.7146589756012	
23	116.55769205093384	movie	1		244	21.0	2.5	/experiments/AOT/AOT_stimuli/rescaled_final/0828_rv.mp4	0.0	139.13115000724792	2.4999749660491943
23	117.74215793609619	pulse	1	t		21.0	2.5	/experiments/AOT/AOT_stimuli/rescaled_final/0828_rv.mp4	0.0	140.31561589241028	
23	119.05766701698303	fix_post	2		12	21.0	2.5	/experiments/AOT/AOT_stimuli/rescaled_final/0828_rv.mp4	0.0	141.63112497329712	0.0999898910522461
24	119.15765690803528	fix_pre	0		120	22.0	2.5	/experiments/AOT/AOT_stimuli/rescaled_final/0493_fw.mp4	0.0	141.73111486434937	0.9999690055847168
24	119.34118294715881	pulse	0	t		22.0	2.5	/experiments/AOT/AOT_stimuli/rescaled_final/0493_fw.mp4	0.0	141.9146409034729	
24	120.15762591362	movie	1		246	22.0	2.5	/experiments/AOT/AOT_stimuli/rescaled_final/0493_fw.mp4	0.0	142.73108386993408	2.499969959259033
24	120.94113206863403	pulse	1	t		22.0	2.5	/experiments/AOT/AOT_stimuli/rescaled_final/0493_fw.mp4	0.0	143.51459002494812	
24	122.5508360862732	pulse	1	t		22.0	2.5	/experiments/AOT/AOT_stimuli/rescaled_final/0493_fw.mp4	0.0	145.12429404258728	
24	122.65759587287903	fix_post	2		12	22.0	2.5	/experiments/AOT/AOT_stimuli/rescaled_final/0493_fw.mp4	0.0	145.23105382919312	0.10006403923034668
25	122.75765991210938	fix_pre	0		120	23.0	2.5	/experiments/AOT/AOT_stimuli/rescaled_final/0928_rv.mp4	0.0	145.33111786842346	0.9999821186065674
25	123.75764203071594	movie	1		243	23.0	2.5	/experiments/AOT/AOT_stimuli/rescaled_final/0928_rv.mp4	0.0	146.33109998703003	2.4999799728393555
25	124.14955997467041	pulse	1	t		23.0	2.5	/experiments/AOT/AOT_stimuli/rescaled_final/0928_rv.mp4	0.0	146.7230179309845	
25	125.7410740852356	pulse	1	t		23.0	2.5	/experiments/AOT/AOT_stimuli/rescaled_final/0928_rv.mp4	0.0	148.31453204154968	
25	126.2576220035553	fix_post	2		12	23.0	2.5	/experiments/AOT/AOT_stimuli/rescaled_final/0928_rv.mp4	0.0	148.83107995986938	0.09999203681945801
26	126.35761404037476	fix_pre	0		119	24.0	2.5	/experiments/AOT/AOT_stimuli/rescaled_final/0306_rv.mp4	0.0	148.93107199668884	0.9916269779205322
26	127.34117007255554	pulse	0	t		24.0	2.5	/experiments/AOT/AOT_stimuli/rescaled_final/0306_rv.mp4	0.0	149.91462802886963	
26	127.34924101829529	movie	1		247	24.0	2.5	/experiments/AOT/AOT_stimuli/rescaled_final/0306_rv.mp4	0.0	149.92269897460938	2.508044958114624
26	128.94104290008545	pulse	1	t		24.0	2.5	/experiments/AOT/AOT_stimuli/rescaled_final/0306_rv.mp4	0.0	151.51450085639954	
26	129.8572859764099	fix_post	2		12	24.0	2.5	/experiments/AOT/AOT_stimuli/rescaled_final/0306_rv.mp4	0.0	152.430743932724	0.10029292106628418
27	129.9575788974762	fix_pre	0		120	25.0	2.5	/experiments/AOT/AOT_stimuli/rescaled_final/1048_fw.mp4	0.0	152.53103685379028	1.0001161098480225
27	130.54225397109985	pulse	0	t		25.0	2.5	/experiments/AOT/AOT_stimuli/rescaled_final/1048_fw.mp4	0.0	153.11571192741394	
27	130.95769500732422	movie	1		243	25.0	2.5	/experiments/AOT/AOT_stimuli/rescaled_final/1048_fw.mp4	0.0	153.5311529636383	2.4997990131378174
27	132.14121890068054	pulse	1	t		25.0	2.5	/experiments/AOT/AOT_stimuli/rescaled_final/1048_fw.mp4	0.0	154.71467685699463	
27	133.45749402046204	fix_post	2		12	25.0	2.5	/experiments/AOT/AOT_stimuli/rescaled_final/1048_fw.mp4	0.0	156.03095197677612	0.10008597373962402
28	133.55757999420166	fix_pre	0		120	26.0	2.5	blank	1.0	156.13103795051575	0.9999690055847168
28	133.74184608459473	pulse	0	t		26.0	2.5	blank	1.0	156.3153040409088	
28	134.55754899978638	movie	1		300	26.0	2.5	blank	1.0	157.13100695610046	2.500091075897217
28	135.34111499786377	pulse	1	t		26.0	2.5	blank	1.0	157.91457295417786	
28	136.94103002548218	pulse	1	t		26.0	2.5	blank	1.0	159.51448798179626	
28	137.0576400756836	fix_post	2		12	26.0	2.5	blank	1.0	159.63109803199768	0.09999489784240723
29	137.157634973526	fix_pre	0		120	27.0	2.5	/experiments/AOT/AOT_stimuli/rescaled_final/2040_rv.mp4	0.0	159.7310929298401	0.9996120929718018
29	138.1572470664978	movie	1		248	27.0	2.5	/experiments/AOT/AOT_stimuli/rescaled_final/2040_rv.mp4	0.0	160.7307050228119	2.5001978874206543
29	138.54187297821045	pulse	1	t		27.0	2.5	/experiments/AOT/AOT_stimuli/rescaled_final/2040_rv.mp4	0.0	161.11533093452454	
29	140.14124703407288	pulse	1	t		27.0	2.5	/experiments/AOT/AOT_stimuli/rescaled_final/2040_rv.mp4	0.0	162.71470499038696	
29	140.65744495391846	fix_post	2		12	27.0	2.5	/experiments/AOT/AOT_stimuli/rescaled_final/2040_rv.mp4	0.0	163.23090291023254	0.10006093978881836
30	140.75750589370728	fix_pre	0		119	28.0	2.5	/experiments/AOT/AOT_stimuli/rescaled_final/0375_rv.mp4	0.0	163.33096385002136	0.991779088973999
30	141.74112010002136	pulse	0	t		28.0	2.5	/experiments/AOT/AOT_stimuli/rescaled_final/0375_rv.mp4	0.0	164.31457805633545	
30	141.74928498268127	movie	1		247	28.0	2.5	/experiments/AOT/AOT_stimuli/rescaled_final/0375_rv.mp4	0.0	164.32274293899536	2.5082530975341797
30	143.34209609031677	pulse	1	t		28.0	2.5	/experiments/AOT/AOT_stimuli/rescaled_final/0375_rv.mp4	0.0	165.91555404663086	
30	144.25753808021545	fix_post	2		12	28.0	2.5	/experiments/AOT/AOT_stimuli/rescaled_final/0375_rv.mp4	0.0	166.83099603652954	0.09994387626647949
31	144.35748195648193	fix_pre	0		120	29.0	2.5	/experiments/AOT/AOT_stimuli/rescaled_final/0684_fw.mp4	0.0	166.93093991279602	1.0001139640808105
31	144.94101905822754	pulse	0	t		29.0	2.5	/experiments/AOT/AOT_stimuli/rescaled_final/0684_fw.mp4	0.0	167.51447701454163	
31	145.35759592056274	movie	1		244	29.0	2.5	/experiments/AOT/AOT_stimuli/rescaled_final/0684_fw.mp4	0.0	167.93105387687683	2.4999260902404785
31	146.54108095169067	pulse	1	t		29.0	2.5	/experiments/AOT/AOT_stimuli/rescaled_final/0684_fw.mp4	0.0	169.11453890800476	
31	147.85752201080322	fix_post	2		12	29.0	2.5	/experiments/AOT/AOT_stimuli/rescaled_final/0684_fw.mp4	0.0	170.4309799671173	0.10001993179321289
32	147.95754194259644	fix_pre	0		120	30.0	2.5	/experiments/AOT/AOT_stimuli/rescaled_final/0973_fw.mp4	0.0	170.53099989891052	0.9999279975891113
32	148.14102292060852	pulse	0	t		30.0	2.5	/experiments/AOT/AOT_stimuli/rescaled_final/0973_fw.mp4	0.0	170.7144808769226	
32	148.95746994018555	movie	1		244	30.0	2.5	/experiments/AOT/AOT_stimuli/rescaled_final/0973_fw.mp4	0.0	171.53092789649963	2.5000369548797607
32	149.741858959198	pulse	1	t		30.0	2.5	/experiments/AOT/AOT_stimuli/rescaled_final/0973_fw.mp4	0.0	172.31531691551208	
32	151.34188604354858	pulse	1	t		30.0	2.5	/experiments/AOT/AOT_stimuli/rescaled_final/0973_fw.mp4	0.0	173.91534399986267	
32	151.4575068950653	fix_post	2		12	30.0	2.5	/experiments/AOT/AOT_stimuli/rescaled_final/0973_fw.mp4	0.0	174.0309648513794	0.0999300479888916
33	151.5574369430542	fix_pre	0		120	31.0	2.5	/experiments/AOT/AOT_stimuli/rescaled_final/1624_rv.mp4	0.0	174.1308948993683	1.0000369548797607
33	152.55747389793396	movie	1		244	31.0	2.5	/experiments/AOT/AOT_stimuli/rescaled_final/1624_rv.mp4	0.0	175.13093185424805	2.4999771118164062
33	152.94942593574524	pulse	1	t		31.0	2.5	/experiments/AOT/AOT_stimuli/rescaled_final/1624_rv.mp4	0.0	175.52288389205933	
33	154.541836977005	pulse	1	t		31.0	2.5	/experiments/AOT/AOT_stimuli/rescaled_final/1624_rv.mp4	0.0	177.1152949333191	
33	155.05745100975037	fix_post	2		12	31.0	2.5	/experiments/AOT/AOT_stimuli/rescaled_final/1624_rv.mp4	0.0	177.63090896606445	0.09996891021728516
34	155.15741991996765	fix_pre	0		119	32.0	2.5	/experiments/AOT/AOT_stimuli/rescaled_final/1316_rv.mp4	0.0	177.73087787628174	0.9916341304779053
34	156.14095401763916	pulse	0	t		32.0	2.5	/experiments/AOT/AOT_stimuli/rescaled_final/1316_rv.mp4	0.0	178.71441197395325	
34	156.14905405044556	movie	1		245	32.0	2.5	/experiments/AOT/AOT_stimuli/rescaled_final/1316_rv.mp4	0.0	178.72251200675964	2.5080418586730957
34	157.74074006080627	pulse	1	t		32.0	2.5	/experiments/AOT/AOT_stimuli/rescaled_final/1316_rv.mp4	0.0	180.31419801712036	
34	158.65709590911865	fix_post	2		12	32.0	2.5	/experiments/AOT/AOT_stimuli/rescaled_final/1316_rv.mp4	0.0	181.23055386543274	0.1004190444946289
35	158.75751495361328	fix_pre	0		120	33.0	2.5	blank	1.0	181.33097290992737	0.9999339580535889
35	159.34102296829224	pulse	0	t		33.0	2.5	blank	1.0	181.91448092460632	
35	159.75744891166687	movie	1		300	33.0	2.5	blank	1.0	182.33090686798096	2.5
35	160.94087100028992	pulse	1	t		33.0	2.5	blank	1.0	183.514328956604	
35	162.25744891166687	fix_post	2		12	33.0	2.5	blank	1.0	184.83090686798096	0.09994196891784668
36	162.35739088058472	fix_pre	0		120	34.0	2.5	/experiments/AOT/AOT_stimuli/rescaled_final/1708_fw.mp4	0.0	184.9308488368988	1.0000941753387451
36	162.54103088378906	pulse	0	t		34.0	2.5	/experiments/AOT/AOT_stimuli/rescaled_final/1708_fw.mp4	0.0	185.11448884010315	
36	163.35748505592346	movie	1		245	34.0	2.5	/experiments/AOT/AOT_stimuli/rescaled_final/1708_fw.mp4	0.0	185.93094301223755	2.499919891357422
36	164.14093589782715	pulse	1	t		34.0	2.5	/experiments/AOT/AOT_stimuli/rescaled_final/1708_fw.mp4	0.0	186.71439385414124	
36	165.749351978302	pulse	1	t		34.0	2.5	/experiments/AOT/AOT_stimuli/rescaled_final/1708_fw.mp4	0.0	188.3228099346161	
36	165.85740494728088	fix_post	2		12	34.0	2.5	/experiments/AOT/AOT_stimuli/rescaled_final/1708_fw.mp4	0.0	188.43086290359497	0.0999760627746582
37	165.95738101005554	fix_pre	0		120	35.0	2.5	/experiments/AOT/AOT_stimuli/rescaled_final/0776_fw.mp4	0.0	188.53083896636963	0.9999449253082275
37	166.95732593536377	movie	1		245	35.0	2.5	/experiments/AOT/AOT_stimuli/rescaled_final/0776_fw.mp4	0.0	189.53078389167786	2.500035047531128
37	167.34937500953674	pulse	1	t		35.0	2.5	/experiments/AOT/AOT_stimuli/rescaled_final/0776_fw.mp4	0.0	189.92283296585083	
37	168.9417998790741	pulse	1	t		35.0	2.5	/experiments/AOT/AOT_stimuli/rescaled_final/0776_fw.mp4	0.0	191.51525783538818	
37	169.4573609828949	fix_post	2		12	35.0	2.5	/experiments/AOT/AOT_stimuli/rescaled_final/0776_fw.mp4	0.0	192.03081893920898	0.10001707077026367
38	169.55737805366516	fix_pre	0		120	36.0	2.5	/experiments/AOT/AOT_stimuli/rescaled_final/0138_rv.mp4	0.0	192.13083600997925	0.9999949932098389
38	170.54157900810242	pulse	0	t		36.0	2.5	/experiments/AOT/AOT_stimuli/rescaled_final/0138_rv.mp4	0.0	193.1150369644165	
38	170.557373046875	movie	1		245	36.0	2.5	/experiments/AOT/AOT_stimuli/rescaled_final/0138_rv.mp4	0.0	193.1308310031891	2.5083019733428955
38	172.14938592910767	pulse	1	t		36.0	2.5	/experiments/AOT/AOT_stimuli/rescaled_final/0138_rv.mp4	0.0	194.72284388542175	
38	173.0656750202179	fix_post	2		12	36.0	2.5	/experiments/AOT/AOT_stimuli/rescaled_final/0138_rv.mp4	0.0	195.63913297653198	0.10004496574401855
39	173.1657199859619	fix_pre	0		120	37.0	2.5	/experiments/AOT/AOT_stimuli/rescaled_final/0483_rv.mp4	0.0	195.739177942276	0.9999969005584717
39	173.7408950328827	pulse	0	t		37.0	2.5	/experiments/AOT/AOT_stimuli/rescaled_final/0483_rv.mp4	0.0	196.31435298919678	
39	174.16571688652039	movie	1		244	37.0	2.5	/experiments/AOT/AOT_stimuli/rescaled_final/0483_rv.mp4	0.0	196.73917484283447	2.4999730587005615
39	175.34922909736633	pulse	1	t		37.0	2.5	/experiments/AOT/AOT_stimuli/rescaled_final/0483_rv.mp4	0.0	197.92268705368042	
39	176.66568994522095	fix_post	2		12	37.0	2.5	/experiments/AOT/AOT_stimuli/rescaled_final/0483_rv.mp4	0.0	199.23914790153503	0.09998297691345215
40	176.7656729221344	fix_pre	0		120	38.0	2.5	/experiments/AOT/AOT_stimuli/rescaled_final/1433_rv.mp4	0.0	199.3391308784485	1.0001189708709717
40	176.94169187545776	pulse	0	t		38.0	2.5	/experiments/AOT/AOT_stimuli/rescaled_final/1433_rv.mp4	0.0	199.51514983177185	
40	177.76579189300537	movie	1		243	38.0	2.5	/experiments/AOT/AOT_stimuli/rescaled_final/1433_rv.mp4	0.0	200.33924984931946	2.499885082244873
40	178.540785074234	pulse	1	t		38.0	2.5	/experiments/AOT/AOT_stimuli/rescaled_final/1433_rv.mp4	0.0	201.1142430305481	
40	180.14083695411682	pulse	1	t		38.0	2.5	/experiments/AOT/AOT_stimuli/rescaled_final/1433_rv.mp4	0.0	202.7142949104309	
40	180.26567697525024	fix_post	2		12	38.0	2.5	/experiments/AOT/AOT_stimuli/rescaled_final/1433_rv.mp4	0.0	202.83913493156433	0.10001111030578613
41	180.36568808555603	fix_pre	0		120	39.0	2.5	/experiments/AOT/AOT_stimuli/rescaled_final/0696_rv.mp4	0.0	202.93914604187012	1.0000288486480713
41	181.3657169342041	movie	1		242	39.0	2.5	/experiments/AOT/AOT_stimuli/rescaled_final/0696_rv.mp4	0.0	203.9391748905182	2.499981164932251
41	181.7489628791809	pulse	1	t		39.0	2.5	/experiments/AOT/AOT_stimuli/rescaled_final/0696_rv.mp4	0.0	204.322420835495	
41	183.34184789657593	pulse	1	t		39.0	2.5	/experiments/AOT/AOT_stimuli/rescaled_final/0696_rv.mp4	0.0	205.91530585289001	
41	183.86569809913635	fix_post	2		12	39.0	2.5	/experiments/AOT/AOT_stimuli/rescaled_final/0696_rv.mp4	0.0	206.43915605545044	0.09997987747192383
42	183.96567797660828	fix_pre	0		119	40.0	2.5	/experiments/AOT/AOT_stimuli/rescaled_final/1152_fw.mp4	0.0	206.53913593292236	0.9916219711303711
42	184.94164991378784	pulse	0	t		40.0	2.5	/experiments/AOT/AOT_stimuli/rescaled_final/1152_fw.mp4	0.0	207.51510787010193	
42	184.95729994773865	movie	1		245	40.0	2.5	/experiments/AOT/AOT_stimuli/rescaled_final/1152_fw.mp4	0.0	207.53075790405273	2.508394956588745
42	186.54904198646545	pulse	1	t		40.0	2.5	/experiments/AOT/AOT_stimuli/rescaled_final/1152_fw.mp4	0.0	209.12249994277954	
42	187.4656949043274	fix_post	2		12	40.0	2.5	/experiments/AOT/AOT_stimuli/rescaled_final/1152_fw.mp4	0.0	210.03915286064148	0.10001707077026367
43	187.56571197509766	fix_pre	0		120	41.0	2.5	/experiments/AOT/AOT_stimuli/rescaled_final/1401_fw.mp4	0.0	210.13916993141174	0.999985933303833
43	188.141606092453	pulse	0	t		41.0	2.5	/experiments/AOT/AOT_stimuli/rescaled_final/1401_fw.mp4	0.0	210.7150640487671	
43	188.5656979084015	movie	1		243	41.0	2.5	/experiments/AOT/AOT_stimuli/rescaled_final/1401_fw.mp4	0.0	211.13915586471558	2.4999489784240723
43	189.74925589561462	pulse	1	t		41.0	2.5	/experiments/AOT/AOT_stimuli/rescaled_final/1401_fw.mp4	0.0	212.3227138519287	
43	191.06564688682556	fix_post	2		12	41.0	2.5	/experiments/AOT/AOT_stimuli/rescaled_final/1401_fw.mp4	0.0	213.63910484313965	0.10004615783691406
44	191.16569304466248	fix_pre	0		120	42.0	2.5	blank	1.0	213.73915100097656	1.0000050067901611
44	191.34083104133606	pulse	0	t		42.0	2.5	blank	1.0	213.91428899765015	
44	192.16569805145264	movie	1		300	42.0	2.5	blank	1.0	214.73915600776672	2.4995930194854736
44	192.94082903862	pulse	1	t		42.0	2.5	blank	1.0	215.51428699493408	
44	194.54125499725342	pulse	1	t		42.0	2.5	blank	1.0	217.1147129535675	
44	194.6652910709381	fix_post	2		12	42.0	2.5	blank	1.0	217.2387490272522	0.09998798370361328
45	194.76527905464172	fix_pre	0		120	43.0	2.5	/experiments/AOT/AOT_stimuli/rescaled_final/1313_fw.mp4	0.0	217.3387370109558	1.0005078315734863
45	195.7657868862152	movie	1		243	43.0	2.5	/experiments/AOT/AOT_stimuli/rescaled_final/1313_fw.mp4	0.0	218.3392448425293	2.4998600482940674
45	196.1405770778656	pulse	1	t		43.0	2.5	/experiments/AOT/AOT_stimuli/rescaled_final/1313_fw.mp4	0.0	218.7140350341797	
45	197.74181008338928	pulse	1	t		43.0	2.5	/experiments/AOT/AOT_stimuli/rescaled_final/1313_fw.mp4	0.0	220.31526803970337	
45	198.26564693450928	fix_post	2		12	43.0	2.5	/experiments/AOT/AOT_stimuli/rescaled_final/1313_fw.mp4	0.0	220.83910489082336	0.09998202323913574
46	198.3656289577484	fix_pre	0		119	44.0	2.5	/experiments/AOT/AOT_stimuli/rescaled_final/1879_rv.mp4	0.0	220.9390869140625	0.9916210174560547
46	199.3415229320526	pulse	0	t		44.0	2.5	/experiments/AOT/AOT_stimuli/rescaled_final/1879_rv.mp4	0.0	221.9149808883667	
46	199.35724997520447	movie	1		245	44.0	2.5	/experiments/AOT/AOT_stimuli/rescaled_final/1879_rv.mp4	0.0	221.93070793151855	2.50839900970459
46	200.94880294799805	pulse	1	t		44.0	2.5	/experiments/AOT/AOT_stimuli/rescaled_final/1879_rv.mp4	0.0	223.52226090431213	
46	201.86564898490906	fix_post	2		12	44.0	2.5	/experiments/AOT/AOT_stimuli/rescaled_final/1879_rv.mp4	0.0	224.43910694122314	0.10003399848937988
47	201.96568298339844	fix_pre	0		120	45.0	2.5	/experiments/AOT/AOT_stimuli/rescaled_final/0074_fw.mp4	0.0	224.53914093971252	0.9999120235443115
47	202.54148697853088	pulse	0	t		45.0	2.5	/experiments/AOT/AOT_stimuli/rescaled_final/0074_fw.mp4	0.0	225.11494493484497	
47	202.96559500694275	movie	1		247	45.0	2.5	/experiments/AOT/AOT_stimuli/rescaled_final/0074_fw.mp4	0.0	225.53905296325684	2.4995810985565186
47	204.14911890029907	pulse	1	t		45.0	2.5	/experiments/AOT/AOT_stimuli/rescaled_final/0074_fw.mp4	0.0	226.72257685661316	
47	205.46517610549927	fix_post	2		12	45.0	2.5	/experiments/AOT/AOT_stimuli/rescaled_final/0074_fw.mp4	0.0	228.03863406181335	0.1003568172454834
48	205.56553292274475	fix_pre	0		120	46.0	2.5	/experiments/AOT/AOT_stimuli/rescaled_final/2038_rv.mp4	0.0	228.13899087905884	1.0000700950622559
48	205.74158692359924	pulse	0	t		46.0	2.5	/experiments/AOT/AOT_stimuli/rescaled_final/2038_rv.mp4	0.0	228.31504487991333	
48	206.565603017807	movie	1		248	46.0	2.5	/experiments/AOT/AOT_stimuli/rescaled_final/2038_rv.mp4	0.0	229.1390609741211	2.49995493888855
48	207.34149599075317	pulse	1	t		46.0	2.5	/experiments/AOT/AOT_stimuli/rescaled_final/2038_rv.mp4	0.0	229.91495394706726	
48	208.94071292877197	pulse	1	t		46.0	2.5	/experiments/AOT/AOT_stimuli/rescaled_final/2038_rv.mp4	0.0	231.51417088508606	
48	209.06555795669556	fix_post	2		12	46.0	2.5	/experiments/AOT/AOT_stimuli/rescaled_final/2038_rv.mp4	0.0	231.63901591300964	0.10010004043579102
49	209.16565799713135	fix_pre	0		120	47.0	2.5	/experiments/AOT/AOT_stimuli/rescaled_final/1854_fw.mp4	0.0	231.73911595344543	0.9999210834503174
49	210.16557908058167	movie	1		242	47.0	2.5	/experiments/AOT/AOT_stimuli/rescaled_final/1854_fw.mp4	0.0	232.73903703689575	2.499955892562866
49	210.54074001312256	pulse	1	t		47.0	2.5	/experiments/AOT/AOT_stimuli/rescaled_final/1854_fw.mp4	0.0	233.11419796943665	
49	212.1407630443573	pulse	1	t		47.0	2.5	/experiments/AOT/AOT_stimuli/rescaled_final/1854_fw.mp4	0.0	234.7142210006714	
49	212.66553497314453	fix_post	2		12	47.0	2.5	/experiments/AOT/AOT_stimuli/rescaled_final/1854_fw.mp4	0.0	235.23899292945862	0.10003399848937988
50	212.7655689716339	fix_pre	0		119	48.0	2.5	/experiments/AOT/AOT_stimuli/rescaled_final/0299_rv.mp4	0.0	235.339026927948	0.9916291236877441
50	213.74152088165283	pulse	0	t		48.0	2.5	/experiments/AOT/AOT_stimuli/rescaled_final/0299_rv.mp4	0.0	236.31497883796692	
50	213.75719809532166	movie	1		245	48.0	2.5	/experiments/AOT/AOT_stimuli/rescaled_final/0299_rv.mp4	0.0	236.33065605163574	2.5083727836608887
50	215.3489899635315	pulse	1	t		48.0	2.5	/experiments/AOT/AOT_stimuli/rescaled_final/0299_rv.mp4	0.0	237.92244791984558	
50	216.26557087898254	fix_post	2		12	48.0	2.5	/experiments/AOT/AOT_stimuli/rescaled_final/0299_rv.mp4	0.0	238.83902883529663	0.09991002082824707
51	216.3654808998108	fix_pre	0		120	49.0	2.5	blank	1.0	238.93893885612488	1.0000510215759277
51	216.94141793251038	pulse	0	t		49.0	2.5	blank	1.0	239.51487588882446	
51	217.36553192138672	movie	1		300	49.0	2.5	blank	1.0	239.9389898777008	2.499906063079834
51	218.54144597053528	pulse	1	t		49.0	2.5	blank	1.0	241.11490392684937	
51	219.86543798446655	fix_post	2		12	49.0	2.5	blank	1.0	242.43889594078064	0.10004901885986328
52	219.96548700332642	fix_pre	0		120	50.0	2.5	/experiments/AOT/AOT_stimuli/rescaled_final/1540_rv.mp4	0.0	242.5389449596405	1.000006914138794
52	220.1414520740509	pulse	0	t		50.0	2.5	/experiments/AOT/AOT_stimuli/rescaled_final/1540_rv.mp4	0.0	242.714910030365	
52	220.9654939174652	movie	1		244	50.0	2.5	/experiments/AOT/AOT_stimuli/rescaled_final/1540_rv.mp4	0.0	243.5389518737793	2.499937057495117
52	221.7415370941162	pulse	1	t		50.0	2.5	/experiments/AOT/AOT_stimuli/rescaled_final/1540_rv.mp4	0.0	244.3149950504303	
52	223.34795594215393	pulse	1	t		50.0	2.5	/experiments/AOT/AOT_stimuli/rescaled_final/1540_rv.mp4	0.0	245.92141389846802	
52	223.46543097496033	fix_post	2		12	50.0	2.5	/experiments/AOT/AOT_stimuli/rescaled_final/1540_rv.mp4	0.0	246.0388889312744	0.1000680923461914
53	223.56549906730652	fix_pre	0		120	51.0	2.5	/experiments/AOT/AOT_stimuli/rescaled_final/0482_fw.mp4	0.0	246.1389570236206	0.9999949932098389
53	224.56549406051636	movie	1		242	51.0	2.5	/experiments/AOT/AOT_stimuli/rescaled_final/0482_fw.mp4	0.0	247.13895201683044	2.5000009536743164
53	224.94062089920044	pulse	1	t		51.0	2.5	/experiments/AOT/AOT_stimuli/rescaled_final/0482_fw.mp4	0.0	247.51407885551453	
53	226.54077792167664	pulse	1	t		51.0	2.5	/experiments/AOT/AOT_stimuli/rescaled_final/0482_fw.mp4	0.0	249.11423587799072	
53	227.06549501419067	fix_post	2		12	51.0	2.5	/experiments/AOT/AOT_stimuli/rescaled_final/0482_fw.mp4	0.0	249.63895297050476	0.10000300407409668
54	227.16549801826477	fix_pre	0		118	52.0	2.5	/experiments/AOT/AOT_stimuli/rescaled_final/1516_rv.mp4	0.0	249.73895597457886	0.9832608699798584
54	228.14055490493774	pulse	0	t		52.0	2.5	/experiments/AOT/AOT_stimuli/rescaled_final/1516_rv.mp4	0.0	250.71401286125183	
54	228.14875888824463	movie	1		246	52.0	2.5	/experiments/AOT/AOT_stimuli/rescaled_final/1516_rv.mp4	0.0	250.72221684455872	2.507966995239258
54	229.7489869594574	pulse	1	t		52.0	2.5	/experiments/AOT/AOT_stimuli/rescaled_final/1516_rv.mp4	0.0	252.32244491577148	
54	230.6567258834839	fix_post	2		12	52.0	2.5	/experiments/AOT/AOT_stimuli/rescaled_final/1516_rv.mp4	0.0	253.23018383979797	0.1003570556640625
55	230.75708293914795	fix_pre	0		120	53.0	2.5	/experiments/AOT/AOT_stimuli/rescaled_final/1870_rv.mp4	0.0	253.33054089546204	1.0000050067901611
55	231.34146690368652	pulse	0	t		53.0	2.5	/experiments/AOT/AOT_stimuli/rescaled_final/1870_rv.mp4	0.0	253.9149248600006	
55	231.7570879459381	movie	1		244	53.0	2.5	/experiments/AOT/AOT_stimuli/rescaled_final/1870_rv.mp4	0.0	254.3305459022522	2.5000159740448
55	232.94164204597473	pulse	1	t		53.0	2.5	/experiments/AOT/AOT_stimuli/rescaled_final/1870_rv.mp4	0.0	255.51510000228882	
55	234.2571039199829	fix_post	2		12	53.0	2.5	/experiments/AOT/AOT_stimuli/rescaled_final/1870_rv.mp4	0.0	256.830561876297	0.10010004043579102
56	234.3572039604187	fix_pre	0		120	54.0	2.5	blank	1.0	256.9306619167328	1.000067949295044
56	234.5414068698883	pulse	0	t		54.0	2.5	blank	1.0	257.1148648262024	
56	235.35727190971375	movie	1		300	54.0	2.5	blank	1.0	257.93072986602783	2.4997949600219727
56	236.14139890670776	pulse	1	t		54.0	2.5	blank	1.0	258.71485686302185	
56	237.74137592315674	pulse	1	t		54.0	2.5	blank	1.0	260.3148338794708	
56	237.85706686973572	fix_post	2		12	54.0	2.5	blank	1.0	260.4305248260498	0.10001015663146973
57	237.9570770263672	fix_pre	0		120	55.0	2.5	/experiments/AOT/AOT_stimuli/rescaled_final/0941_fw.mp4	0.0	260.5305349826813	0.9999969005584717
57	238.95707392692566	movie	1		245	55.0	2.5	/experiments/AOT/AOT_stimuli/rescaled_final/0941_fw.mp4	0.0	261.53053188323975	2.500005006790161
57	239.3489329814911	pulse	1	t		55.0	2.5	/experiments/AOT/AOT_stimuli/rescaled_final/0941_fw.mp4	0.0	261.9223909378052	
57	240.94157004356384	pulse	1	t		55.0	2.5	/experiments/AOT/AOT_stimuli/rescaled_final/0941_fw.mp4	0.0	263.51502799987793	
57	241.45707893371582	fix_post	2		12	55.0	2.5	/experiments/AOT/AOT_stimuli/rescaled_final/0941_fw.mp4	0.0	264.0305368900299	0.09993815422058105
58	241.5570170879364	fix_pre	0		120	56.0	2.5	/experiments/AOT/AOT_stimuli/rescaled_final/1391_rv.mp4	0.0	264.1304750442505	1.0000638961791992
58	242.54129910469055	pulse	0	t		56.0	2.5	/experiments/AOT/AOT_stimuli/rescaled_final/1391_rv.mp4	0.0	265.11475706100464	
58	242.5570809841156	movie	1		244	56.0	2.5	/experiments/AOT/AOT_stimuli/rescaled_final/1391_rv.mp4	0.0	265.1305389404297	2.5082879066467285
58	244.14845299720764	pulse	1	t		56.0	2.5	/experiments/AOT/AOT_stimuli/rescaled_final/1391_rv.mp4	0.0	266.72191095352173	
58	245.06536889076233	fix_post	2		12	56.0	2.5	/experiments/AOT/AOT_stimuli/rescaled_final/1391_rv.mp4	0.0	267.6388268470764	0.09998798370361328
59	245.16535687446594	fix_pre	0		120	57.0	2.5	/experiments/AOT/AOT_stimuli/rescaled_final/2179_fw.mp4	0.0	267.73881483078003	1.0000300407409668
59	245.7488670349121	pulse	0	t		57.0	2.5	/experiments/AOT/AOT_stimuli/rescaled_final/2179_fw.mp4	0.0	268.3223249912262	
59	246.1653869152069	movie	1		244	57.0	2.5	/experiments/AOT/AOT_stimuli/rescaled_final/2179_fw.mp4	0.0	268.738844871521	2.4999961853027344
59	247.34893488883972	pulse	1	t		57.0	2.5	/experiments/AOT/AOT_stimuli/rescaled_final/2179_fw.mp4	0.0	269.9223928451538	
59	248.66538310050964	fix_post	2		12	57.0	2.5	/experiments/AOT/AOT_stimuli/rescaled_final/2179_fw.mp4	0.0	271.23884105682373	0.09997677803039551
60	248.76535987854004	fix_pre	0		120	58.0	2.5	/experiments/AOT/AOT_stimuli/rescaled_final/0706_fw.mp4	0.0	271.3388178348541	0.9995541572570801
60	248.9483859539032	pulse	0	t		58.0	2.5	/experiments/AOT/AOT_stimuli/rescaled_final/0706_fw.mp4	0.0	271.5218439102173	
60	249.76491403579712	movie	1		246	58.0	2.5	/experiments/AOT/AOT_stimuli/rescaled_final/0706_fw.mp4	0.0	272.3383719921112	2.5007400512695312
60	250.5484960079193	pulse	1	t		58.0	2.5	/experiments/AOT/AOT_stimuli/rescaled_final/0706_fw.mp4	0.0	273.1219539642334	
60	252.14127707481384	pulse	1	t		58.0	2.5	/experiments/AOT/AOT_stimuli/rescaled_final/0706_fw.mp4	0.0	274.71473503112793	
60	252.26565408706665	fix_post	2		12	58.0	2.5	/experiments/AOT/AOT_stimuli/rescaled_final/0706_fw.mp4	0.0	274.83911204338074	0.09960699081420898
61	252.36526107788086	fix_pre	0		120	59.0	2.5	/experiments/AOT/AOT_stimuli/rescaled_final/2028_fw.mp4	0.0	274.93871903419495	1.0001699924468994
61	253.36543107032776	movie	1		246	59.0	2.5	/experiments/AOT/AOT_stimuli/rescaled_final/2028_fw.mp4	0.0	275.93888902664185	2.4999148845672607
61	253.74835395812988	pulse	1	t		59.0	2.5	/experiments/AOT/AOT_stimuli/rescaled_final/2028_fw.mp4	0.0	276.32181191444397	
61	255.3414330482483	pulse	1	t		59.0	2.5	/experiments/AOT/AOT_stimuli/rescaled_final/2028_fw.mp4	0.0	277.9148910045624	
61	255.86534595489502	fix_post	2		12	59.0	2.5	/experiments/AOT/AOT_stimuli/rescaled_final/2028_fw.mp4	0.0	278.4388039112091	0.10009503364562988
62	255.96544098854065	fix_pre	0		119	60.0	2.5	/experiments/AOT/AOT_stimuli/rescaled_final/1011_rv.mp4	0.0	278.53889894485474	0.9914939403533936
62	256.9412829875946	pulse	0	t		60.0	2.5	/experiments/AOT/AOT_stimuli/rescaled_final/1011_rv.mp4	0.0	279.5147409439087	
62	256.95693492889404	movie	1		247	60.0	2.5	/experiments/AOT/AOT_stimuli/rescaled_final/1011_rv.mp4	0.0	279.53039288520813	2.5084080696105957
62	258.54855489730835	pulse	1	t		60.0	2.5	/experiments/AOT/AOT_stimuli/rescaled_final/1011_rv.mp4	0.0	281.12201285362244	
62	259.46534299850464	fix_post	2		12	60.0	2.5	/experiments/AOT/AOT_stimuli/rescaled_final/1011_rv.mp4	0.0	282.0388009548187	0.0999000072479248
63	259.56524300575256	fix_pre	0		120	61.0	2.5	/experiments/AOT/AOT_stimuli/rescaled_final/1322_fw.mp4	0.0	282.13870096206665	1.0001540184020996
63	260.14135098457336	pulse	0	t		61.0	2.5	/experiments/AOT/AOT_stimuli/rescaled_final/1322_fw.mp4	0.0	282.71480894088745	
63	260.56539702415466	movie	1		244	61.0	2.5	/experiments/AOT/AOT_stimuli/rescaled_final/1322_fw.mp4	0.0	283.13885498046875	2.4998550415039062
63	261.74884510040283	pulse	1	t		61.0	2.5	/experiments/AOT/AOT_stimuli/rescaled_final/1322_fw.mp4	0.0	284.3223030567169	
63	263.06525206565857	fix_post	2		12	61.0	2.5	/experiments/AOT/AOT_stimuli/rescaled_final/1322_fw.mp4	0.0	285.63871002197266	0.09996294975280762
64	263.1652150154114	fix_pre	0		120	62.0	2.5	blank	1.0	285.73867297172546	1.0000290870666504
64	263.34874987602234	pulse	0	t		62.0	2.5	blank	1.0	285.9222078323364	
64	264.165244102478	movie	1		300	62.0	2.5	blank	1.0	286.7387020587921	2.4995529651641846
64	264.94131898880005	pulse	1	t		62.0	2.5	blank	1.0	287.51477694511414	
64	266.541296005249	pulse	1	t		62.0	2.5	blank	1.0	289.1147539615631	
64	266.6647970676422	fix_post	2		12	62.0	2.5	blank	1.0	289.2382550239563	0.10045981407165527
65	266.76525688171387	fix_pre	0		120	63.0	2.5	/experiments/AOT/AOT_stimuli/rescaled_final/1242_rv.mp4	0.0	289.33871483802795	1.000035047531128
65	267.765291929245	movie	1		244	63.0	2.5	/experiments/AOT/AOT_stimuli/rescaled_final/1242_rv.mp4	0.0	290.3387498855591	2.4995241165161133
65	268.1485369205475	pulse	1	t		63.0	2.5	/experiments/AOT/AOT_stimuli/rescaled_final/1242_rv.mp4	0.0	290.7219948768616	
65	269.7413969039917	pulse	1	t		63.0	2.5	/experiments/AOT/AOT_stimuli/rescaled_final/1242_rv.mp4	0.0	292.3148548603058	
65	270.2648160457611	fix_post	2		12	63.0	2.5	/experiments/AOT/AOT_stimuli/rescaled_final/1242_rv.mp4	0.0	292.8382740020752	0.10042405128479004
66	270.3652400970459	fix_pre	0		119	64.0	2.5	/experiments/AOT/AOT_stimuli/rescaled_final/0768_rv.mp4	0.0	292.93869805336	0.9915919303894043
66	271.34124088287354	pulse	0	t		64.0	2.5	/experiments/AOT/AOT_stimuli/rescaled_final/0768_rv.mp4	0.0	293.9146988391876	
66	271.3568320274353	movie	1		249	64.0	2.5	/experiments/AOT/AOT_stimuli/rescaled_final/0768_rv.mp4	0.0	293.9302899837494	2.5084450244903564
66	272.9482719898224	pulse	1	t		64.0	2.5	/experiments/AOT/AOT_stimuli/rescaled_final/0768_rv.mp4	0.0	295.5217299461365	
66	273.86527705192566	fix_post	2		12	64.0	2.5	/experiments/AOT/AOT_stimuli/rescaled_final/0768_rv.mp4	0.0	296.43873500823975	0.10002493858337402
67	273.96530199050903	fix_pre	0		120	65.0	2.5	/experiments/AOT/AOT_stimuli/rescaled_final/0764_fw.mp4	0.0	296.5387599468231	1.0000250339508057
67	274.54119300842285	pulse	0	t		65.0	2.5	/experiments/AOT/AOT_stimuli/rescaled_final/0764_fw.mp4	0.0	297.11465096473694	
67	274.96532702445984	movie	1		246	65.0	2.5	/experiments/AOT/AOT_stimuli/rescaled_final/0764_fw.mp4	0.0	297.5387849807739	2.4999449253082275
67	276.14878702163696	pulse	1	t		65.0	2.5	/experiments/AOT/AOT_stimuli/rescaled_final/0764_fw.mp4	0.0	298.72224497795105	
67	277.46527194976807	fix_post	2		12	65.0	2.5	/experiments/AOT/AOT_stimuli/rescaled_final/0764_fw.mp4	0.0	300.03872990608215	0.09993910789489746
68	277.56521105766296	fix_pre	0		120	66.0	2.5	/experiments/AOT/AOT_stimuli/rescaled_final/1152_rv.mp4	0.0	300.13866901397705	1.0000228881835938
68	277.74864292144775	pulse	0	t		66.0	2.5	/experiments/AOT/AOT_stimuli/rescaled_final/1152_rv.mp4	0.0	300.32210087776184	
68	278.56523394584656	movie	1		244	66.0	2.5	/experiments/AOT/AOT_stimuli/rescaled_final/1152_rv.mp4	0.0	301.13869190216064	2.4999101161956787
68	279.34870886802673	pulse	1	t		66.0	2.5	/experiments/AOT/AOT_stimuli/rescaled_final/1152_rv.mp4	0.0	301.9221668243408	
68	280.94750595092773	pulse	1	t		66.0	2.5	/experiments/AOT/AOT_stimuli/rescaled_final/1152_rv.mp4	0.0	303.5209639072418	
68	281.06514406204224	fix_post	2		12	66.0	2.5	/experiments/AOT/AOT_stimuli/rescaled_final/1152_rv.mp4	0.0	303.6386020183563	0.09998488426208496
69	281.1651289463043	fix_pre	0		120	67.0	2.5	/experiments/AOT/AOT_stimuli/rescaled_final/1088_fw.mp4	0.0	303.7385869026184	1.0001730918884277
69	282.16530203819275	movie	1		246	67.0	2.5	/experiments/AOT/AOT_stimuli/rescaled_final/1088_fw.mp4	0.0	304.73875999450684	2.4994919300079346
69	282.54818201065063	pulse	1	t		67.0	2.5	/experiments/AOT/AOT_stimuli/rescaled_final/1088_fw.mp4	0.0	305.1216399669647	
69	284.14128494262695	pulse	1	t		67.0	2.5	/experiments/AOT/AOT_stimuli/rescaled_final/1088_fw.mp4	0.0	306.71474289894104	
69	284.6647939682007	fix_post	2		12	67.0	2.5	/experiments/AOT/AOT_stimuli/rescaled_final/1088_fw.mp4	0.0	307.23825192451477	0.10039591789245605
70	284.76518988609314	fix_pre	0		119	68.0	2.5	/experiments/AOT/AOT_stimuli/rescaled_final/0928_fw.mp4	0.0	307.3386478424072	0.9916200637817383
70	285.7412340641022	pulse	0	t		68.0	2.5	/experiments/AOT/AOT_stimuli/rescaled_final/0928_fw.mp4	0.0	308.31469202041626	
70	285.7568099498749	movie	1		244	68.0	2.5	/experiments/AOT/AOT_stimuli/rescaled_final/0928_fw.mp4	0.0	308.33026790618896	2.507949113845825
70	287.34847688674927	pulse	1	t		68.0	2.5	/experiments/AOT/AOT_stimuli/rescaled_final/0928_fw.mp4	0.0	309.92193484306335	
70	288.2647590637207	fix_post	2		12	68.0	2.5	/experiments/AOT/AOT_stimuli/rescaled_final/0928_fw.mp4	0.0	310.8382170200348	0.10042190551757812
71	288.3651809692383	fix_pre	0		120	69.0	2.5	/experiments/AOT/AOT_stimuli/rescaled_final/0098_rv.mp4	0.0	310.93863892555237	0.9999229907989502
71	288.941123008728	pulse	0	t		69.0	2.5	/experiments/AOT/AOT_stimuli/rescaled_final/0098_rv.mp4	0.0	311.5145809650421	
71	289.36510396003723	movie	1		245	69.0	2.5	/experiments/AOT/AOT_stimuli/rescaled_final/0098_rv.mp4	0.0	311.9385619163513	2.500033140182495
71	290.5415620803833	pulse	1	t		69.0	2.5	/experiments/AOT/AOT_stimuli/rescaled_final/0098_rv.mp4	0.0	313.1150200366974	
71	291.8651371002197	fix_post	2		12	69.0	2.5	/experiments/AOT/AOT_stimuli/rescaled_final/0098_rv.mp4	0.0	314.4385950565338	0.09996485710144043
72	291.96510195732117	fix_pre	0		120	70.0	2.5	blank	1.0	314.53855991363525	1.0000369548797607
72	292.14110803604126	pulse	0	t		70.0	2.5	blank	1.0	314.71456599235535	
72	292.9651389122009	movie	1		300	70.0	2.5	blank	1.0	315.538596868515	2.4999501705169678
72	293.7486538887024	pulse	1	t		70.0	2.5	blank	1.0	316.3221118450165	
72	295.3486180305481	pulse	1	t		70.0	2.5	blank	1.0	317.9220759868622	
72	295.4650890827179	fix_post	2		12	70.0	2.5	blank	1.0	318.038547039032	0.10003089904785156
73	295.56511998176575	fix_pre	0		120	71.0	2.5	/experiments/AOT/AOT_stimuli/rescaled_final/2102_rv.mp4	0.0	318.13857793807983	1.0000169277191162
73	296.56513690948486	movie	1		244	71.0	2.5	/experiments/AOT/AOT_stimuli/rescaled_final/2102_rv.mp4	0.0	319.13859486579895	2.4995510578155518
73	296.94842886924744	pulse	1	t		71.0	2.5	/experiments/AOT/AOT_stimuli/rescaled_final/2102_rv.mp4	0.0	319.5218868255615	
73	298.54119896888733	pulse	1	t		71.0	2.5	/experiments/AOT/AOT_stimuli/rescaled_final/2102_rv.mp4	0.0	321.1146569252014	
73	299.0646879673004	fix_post	2		12	71.0	2.5	/experiments/AOT/AOT_stimuli/rescaled_final/2102_rv.mp4	0.0	321.6381459236145	0.10048198699951172
74	299.1651699542999	fix_pre	0		119	72.0	2.5	/experiments/AOT/AOT_stimuli/rescaled_final/0493_fw.mp4	0.0	321.738627910614	0.9916000366210938
74	300.14107298851013	pulse	0	t		72.0	2.5	/experiments/AOT/AOT_stimuli/rescaled_final/0493_fw.mp4	0.0	322.7145309448242	
74	300.156769990921	movie	1		245	72.0	2.5	/experiments/AOT/AOT_stimuli/rescaled_final/0493_fw.mp4	0.0	322.7302279472351	2.5083889961242676
74	301.74819898605347	pulse	1	t		72.0	2.5	/experiments/AOT/AOT_stimuli/rescaled_final/0493_fw.mp4	0.0	324.32165694236755	
74	302.6651589870453	fix_post	2		12	72.0	2.5	/experiments/AOT/AOT_stimuli/rescaled_final/0493_fw.mp4	0.0	325.2386169433594	0.09991908073425293
75	302.76507806777954	fix_pre	0		120	73.0	2.5	/experiments/AOT/AOT_stimuli/rescaled_final/0219_rv.mp4	0.0	325.3385360240936	0.9999589920043945
75	303.3410849571228	pulse	0	t		73.0	2.5	/experiments/AOT/AOT_stimuli/rescaled_final/0219_rv.mp4	0.0	325.9145429134369	
75	303.76503705978394	movie	1		247	73.0	2.5	/experiments/AOT/AOT_stimuli/rescaled_final/0219_rv.mp4	0.0	326.338495016098	2.4996328353881836
75	304.94859504699707	pulse	1	t		73.0	2.5	/experiments/AOT/AOT_stimuli/rescaled_final/0219_rv.mp4	0.0	327.52205300331116	
75	306.2646698951721	fix_post	2		12	73.0	2.5	/experiments/AOT/AOT_stimuli/rescaled_final/0219_rv.mp4	0.0	328.8381278514862	0.10000014305114746
76	306.36467003822327	fix_pre	0		120	74.0	2.5	/experiments/AOT/AOT_stimuli/rescaled_final/2102_rv.mp4	0.0	328.93812799453735	1.0002200603485107
76	306.5412940979004	pulse	0	t		74.0	2.5	/experiments/AOT/AOT_stimuli/rescaled_final/2102_rv.mp4	0.0	329.1147520542145	
76	307.3648900985718	movie	1		244	74.0	2.5	/experiments/AOT/AOT_stimuli/rescaled_final/2102_rv.mp4	0.0	329.93834805488586	2.500170946121216
76	308.1410028934479	pulse	1	t		74.0	2.5	/experiments/AOT/AOT_stimuli/rescaled_final/2102_rv.mp4	0.0	330.71446084976196	
76	309.74734687805176	pulse	1	t		74.0	2.5	/experiments/AOT/AOT_stimuli/rescaled_final/2102_rv.mp4	0.0	332.32080483436584	
76	309.865061044693	fix_post	2		12	74.0	2.5	/experiments/AOT/AOT_stimuli/rescaled_final/2102_rv.mp4	0.0	332.4385190010071	0.0999908447265625
77	309.96505188941956	fix_pre	0		120	75.0	2.5	blank	1.0	332.53850984573364	0.999967098236084
77	310.96501898765564	movie	1		300	75.0	2.5	blank	1.0	333.5384769439697	2.4999890327453613
77	311.34864592552185	pulse	1	t		75.0	2.5	blank	1.0	333.92210388183594	
77	312.94864892959595	pulse	1	t		75.0	2.5	blank	1.0	335.52210688591003	
77	313.465008020401	fix_post	2		12	75.0	2.5	blank	1.0	336.0384659767151	0.09994888305664062
78	313.56495690345764	fix_pre	0		119	76.0	2.5	/experiments/AOT/AOT_stimuli/rescaled_final/0836_rv.mp4	0.0	336.13841485977173	0.9917581081390381
78	314.54856395721436	pulse	0	t		76.0	2.5	/experiments/AOT/AOT_stimuli/rescaled_final/0836_rv.mp4	0.0	337.12202191352844	
78	314.5567150115967	movie	1		247	76.0	2.5	/experiments/AOT/AOT_stimuli/rescaled_final/0836_rv.mp4	0.0	337.13017296791077	2.5082449913024902
78	316.14820408821106	pulse	1	t		76.0	2.5	/experiments/AOT/AOT_stimuli/rescaled_final/0836_rv.mp4	0.0	338.72166204452515	
78	317.06496000289917	fix_post	2		12	76.0	2.5	/experiments/AOT/AOT_stimuli/rescaled_final/0836_rv.mp4	0.0	339.63841795921326	0.1001138687133789
79	317.16507387161255	fix_pre	0		120	77.0	2.5	/experiments/AOT/AOT_stimuli/rescaled_final/1373_fw.mp4	0.0	339.73853182792664	0.9999301433563232
79	317.74856305122375	pulse	0	t		77.0	2.5	/experiments/AOT/AOT_stimuli/rescaled_final/1373_fw.mp4	0.0	340.32202100753784	
79	318.1650040149689	movie	1		246	77.0	2.5	/experiments/AOT/AOT_stimuli/rescaled_final/1373_fw.mp4	0.0	340.73846197128296	2.5000360012054443
79	319.3485310077667	pulse	1	t		77.0	2.5	/experiments/AOT/AOT_stimuli/rescaled_final/1373_fw.mp4	0.0	341.9219889640808	
79	320.6650400161743	fix_post	2		12	77.0	2.5	/experiments/AOT/AOT_stimuli/rescaled_final/1373_fw.mp4	0.0	343.2384979724884	0.09990787506103516
80	320.76494789123535	fix_pre	0		120	78.0	2.5	/experiments/AOT/AOT_stimuli/rescaled_final/1812_fw.mp4	0.0	343.33840584754944	1.0001440048217773
80	320.9410650730133	pulse	0	t		78.0	2.5	/experiments/AOT/AOT_stimuli/rescaled_final/1812_fw.mp4	0.0	343.5145230293274	
80	321.76509189605713	movie	1		245	78.0	2.5	/experiments/AOT/AOT_stimuli/rescaled_final/1812_fw.mp4	0.0	344.3385498523712	2.4998910427093506
80	322.5410039424896	pulse	1	t		78.0	2.5	/experiments/AOT/AOT_stimuli/rescaled_final/1812_fw.mp4	0.0	345.1144618988037	
80	324.1468999385834	pulse	1	t		78.0	2.5	/experiments/AOT/AOT_stimuli/rescaled_final/1812_fw.mp4	0.0	346.72035789489746	
80	324.2649829387665	fix_post	2		12	78.0	2.5	/experiments/AOT/AOT_stimuli/rescaled_final/1812_fw.mp4	0.0	346.83844089508057	0.10001206398010254
81	324.3649950027466	fix_pre	0		120	79.0	2.5	/experiments/AOT/AOT_stimuli/rescaled_final/0584_fw.mp4	0.0	346.93845295906067	1.0000438690185547
81	325.36503887176514	movie	1		246	79.0	2.5	/experiments/AOT/AOT_stimuli/rescaled_final/0584_fw.mp4	0.0	347.9384968280792	2.499986171722412
81	325.7494308948517	pulse	1	t		79.0	2.5	/experiments/AOT/AOT_stimuli/rescaled_final/0584_fw.mp4	0.0	348.32288885116577	
81	327.34841108322144	pulse	1	t		79.0	2.5	/experiments/AOT/AOT_stimuli/rescaled_final/0584_fw.mp4	0.0	349.9218690395355	
81	327.86502504348755	fix_post	2		12	79.0	2.5	/experiments/AOT/AOT_stimuli/rescaled_final/0584_fw.mp4	0.0	350.43848299980164	0.09990286827087402
82	327.9649279117584	fix_pre	0		119	80.0	2.5	/experiments/AOT/AOT_stimuli/rescaled_final/0085_rv.mp4	0.0	350.5383858680725	0.9917030334472656
82	328.94844698905945	pulse	0	t		80.0	2.5	/experiments/AOT/AOT_stimuli/rescaled_final/0085_rv.mp4	0.0	351.52190494537354	
82	328.9566309452057	movie	1		246	80.0	2.5	/experiments/AOT/AOT_stimuli/rescaled_final/0085_rv.mp4	0.0	351.5300889015198	2.5080130100250244
82	330.5482380390167	pulse	1	t		80.0	2.5	/experiments/AOT/AOT_stimuli/rescaled_final/0085_rv.mp4	0.0	353.1216959953308	
82	331.4646439552307	fix_post	2		12	80.0	2.5	/experiments/AOT/AOT_stimuli/rescaled_final/0085_rv.mp4	0.0	354.0381019115448	0.10030198097229004
83	331.564945936203	fix_pre	0		120	81.0	2.5	/experiments/AOT/AOT_stimuli/rescaled_final/0035_rv.mp4	0.0	354.1384038925171	1.0000791549682617
83	332.14846301078796	pulse	0	t		81.0	2.5	/experiments/AOT/AOT_stimuli/rescaled_final/0035_rv.mp4	0.0	354.72192096710205	
83	332.56502509117126	movie	1		243	81.0	2.5	/experiments/AOT/AOT_stimuli/rescaled_final/0035_rv.mp4	0.0	355.13848304748535	2.499898910522461
83	333.74854493141174	pulse	1	t		81.0	2.5	/experiments/AOT/AOT_stimuli/rescaled_final/0035_rv.mp4	0.0	356.32200288772583	
83	335.0649240016937	fix_post	2		12	81.0	2.5	/experiments/AOT/AOT_stimuli/rescaled_final/0035_rv.mp4	0.0	357.6383819580078	0.09995293617248535
84	335.1648769378662	fix_pre	0		120	82.0	2.5	/experiments/AOT/AOT_stimuli/rescaled_final/0836_fw.mp4	0.0	357.7383348941803	1.000093936920166
84	335.3483440876007	pulse	0	t		82.0	2.5	/experiments/AOT/AOT_stimuli/rescaled_final/0836_fw.mp4	0.0	357.9218020439148	
84	336.1649708747864	movie	1		242	82.0	2.5	/experiments/AOT/AOT_stimuli/rescaled_final/0836_fw.mp4	0.0	358.73842883110046	2.4999802112579346
84	336.9411690235138	pulse	1	t		82.0	2.5	/experiments/AOT/AOT_stimuli/rescaled_final/0836_fw.mp4	0.0	359.5146269798279	
84	338.5469069480896	pulse	1	t		82.0	2.5	/experiments/AOT/AOT_stimuli/rescaled_final/0836_fw.mp4	0.0	361.1203649044037	
84	338.6649510860443	fix_post	2		12	82.0	2.5	/experiments/AOT/AOT_stimuli/rescaled_final/0836_fw.mp4	0.0	361.2384090423584	0.09996390342712402
85	338.76491498947144	fix_pre	0		120	83.0	2.5	blank	1.0	361.3383729457855	0.9999139308929443
85	339.7648289203644	movie	1		300	83.0	2.5	blank	1.0	362.33828687667847	2.5001220703125
85	340.14087104797363	pulse	1	t		83.0	2.5	blank	1.0	362.7143290042877	
85	341.7483880519867	pulse	1	t		83.0	2.5	blank	1.0	364.3218460083008	
85	342.2649509906769	fix_post	2		12	83.0	2.5	blank	1.0	364.83840894699097	0.0999910831451416
87	342.364942073822	stim	0		1716					364.9384000301361	14.299865961074829
87	343.3483929634094	pulse	0	t						365.9218509197235	
87	344.948322057724	pulse	0	t						367.5217800140381	
87	346.5483260154724	pulse	0	t						369.1217839717865	
87	348.1483929157257	pulse	0	t						370.7218508720398	
87	349.7410490512848	pulse	0	t						372.3145070075989	
87	351.34097695350647	pulse	0	t						373.91443490982056	
87	352.94103598594666	pulse	0	t						375.51449394226074	
87	354.5409450531006	pulse	0	t						377.1144030094147	
87	356.1409869194031	pulse	0	t						378.71444487571716	
