trial_nr	onset	event_type	phase	response	nr_frames	movie_index	movie_duration	movie_file	blank	onset_abs	duration
0	0.14993691444396973	stim	0		21					23.11169171333313	0.18315744400024414
0	0.3251328468322754	response	0	space						23.286887645721436	
1	0.33309435844421387	stim	0		4640					23.294849157333374	38.67354393005371
1	38.998016119003296	pulse	0	t						61.959770917892456	
1	39.006638288497925	stim	1		1715					61.968393087387085	14.30946946144104
1	40.597671031951904	pulse	1	t						63.559425830841064	
1	42.198002099990845	pulse	1	t						65.15975689888	
1	43.798174142837524	pulse	1	t						66.75992894172668	
1	45.398457050323486	pulse	1	t						68.36021184921265	
1	46.99865674972534	pulse	1	t						69.9604115486145	
1	48.59887146949768	pulse	1	t						71.56062626838684	
1	50.19914436340332	pulse	1	t						73.16089916229248	
1	51.79962611198425	pulse	1	t						74.76138091087341	
2	53.316107749938965	fix_pre	0		11	0.0	2.5	/experiments/knapen_AOT/AOT_stimuli/rescaled_final/0147_rv.mp4	0.0	76.27786254882812	0.12511491775512695
2	53.3996057510376	pulse	0	t		0.0	2.5	/experiments/knapen_AOT/AOT_stimuli/rescaled_final/0147_rv.mp4	0.0	76.36136054992676	
2	53.44122266769409	movie	1		278	0.0	2.5	/experiments/knapen_AOT/AOT_stimuli/rescaled_final/0147_rv.mp4	0.0	76.40297746658325	2.4753589630126953
2	54.99861216545105	pulse	1	t		0.0	2.5	/experiments/knapen_AOT/AOT_stimuli/rescaled_final/0147_rv.mp4	0.0	77.96036696434021	
2	55.91658163070679	fix_post	2		12	0.0	2.5	/experiments/knapen_AOT/AOT_stimuli/rescaled_final/0147_rv.mp4	0.0	78.87833642959595	0.09991979598999023
3	56.01650142669678	fix_pre	0		120	1.0	2.5	/experiments/knapen_AOT/AOT_stimuli/rescaled_final/2061_rv.mp4	0.0	78.97825622558594	1.008542776107788
3	56.600104093551636	pulse	0	t		1.0	2.5	/experiments/knapen_AOT/AOT_stimuli/rescaled_final/2061_rv.mp4	0.0	79.5618588924408	
3	57.025044202804565	movie	1		274	1.0	2.5	/experiments/knapen_AOT/AOT_stimuli/rescaled_final/2061_rv.mp4	0.0	79.98679900169373	2.4920194149017334
3	58.19862103462219	pulse	1	t		1.0	2.5	/experiments/knapen_AOT/AOT_stimuli/rescaled_final/2061_rv.mp4	0.0	81.16037583351135	
3	59.5170636177063	fix_post	2		12	1.0	2.5	/experiments/knapen_AOT/AOT_stimuli/rescaled_final/2061_rv.mp4	0.0	82.47881841659546	0.09995889663696289
4	59.61702251434326	fix_pre	0		120	2.0	2.5	/experiments/knapen_AOT/AOT_stimuli/rescaled_final/1704_fw.mp4	0.0	82.57877731323242	1.017160177230835
4	59.79263234138489	pulse	0	t		2.0	2.5	/experiments/knapen_AOT/AOT_stimuli/rescaled_final/1704_fw.mp4	0.0	82.75438714027405	
4	60.6341826915741	movie	1		259	2.0	2.5	/experiments/knapen_AOT/AOT_stimuli/rescaled_final/1704_fw.mp4	0.0	83.59593749046326	2.483530044555664
4	61.39259171485901	pulse	1	t		2.0	2.5	/experiments/knapen_AOT/AOT_stimuli/rescaled_final/1704_fw.mp4	0.0	84.35434651374817	
4	62.992807388305664	pulse	1	t		2.0	2.5	/experiments/knapen_AOT/AOT_stimuli/rescaled_final/1704_fw.mp4	0.0	85.95456218719482	
4	63.11771273612976	fix_post	2		12	2.0	2.5	/experiments/knapen_AOT/AOT_stimuli/rescaled_final/1704_fw.mp4	0.0	86.07946753501892	0.0998687744140625
5	63.21758151054382	fix_pre	0		120	3.0	2.5	/experiments/knapen_AOT/AOT_stimuli/rescaled_final/0169_fw.mp4	0.0	86.17933630943298	1.0084834098815918
5	64.22606492042542	movie	1		258	3.0	2.5	/experiments/knapen_AOT/AOT_stimuli/rescaled_final/0169_fw.mp4	0.0	87.18781971931458	2.492227792739868
5	64.59311866760254	pulse	1	t		3.0	2.5	/experiments/knapen_AOT/AOT_stimuli/rescaled_final/0169_fw.mp4	0.0	87.5548734664917	
5	66.19487047195435	pulse	1	t		3.0	2.5	/experiments/knapen_AOT/AOT_stimuli/rescaled_final/0169_fw.mp4	0.0	89.1566252708435	
5	66.71829271316528	fix_post	2		12	3.0	2.5	/experiments/knapen_AOT/AOT_stimuli/rescaled_final/0169_fw.mp4	0.0	89.68004751205444	0.09984850883483887
6	66.81814122200012	fix_pre	0		118	4.0	2.5	/experiments/knapen_AOT/AOT_stimuli/rescaled_final/0444_rv.mp4	0.0	89.77989602088928	0.9918160438537598
6	67.79354619979858	pulse	0	t		4.0	2.5	/experiments/knapen_AOT/AOT_stimuli/rescaled_final/0444_rv.mp4	0.0	90.75530099868774	
6	67.80995726585388	movie	1		268	4.0	2.5	/experiments/knapen_AOT/AOT_stimuli/rescaled_final/0444_rv.mp4	0.0	90.77171206474304	2.5088324546813965
6	69.39373087882996	pulse	1	t		4.0	2.5	/experiments/knapen_AOT/AOT_stimuli/rescaled_final/0444_rv.mp4	0.0	92.35548567771912	
6	70.31878972053528	fix_post	2		11	4.0	2.5	/experiments/knapen_AOT/AOT_stimuli/rescaled_final/0444_rv.mp4	0.0	93.28054451942444	0.09151196479797363
7	70.41030168533325	fix_pre	0		120	5.0	2.5	/experiments/knapen_AOT/AOT_stimuli/rescaled_final/0816_fw.mp4	0.0	93.37205648422241	1.0170960426330566
7	70.99401235580444	pulse	0	t		5.0	2.5	/experiments/knapen_AOT/AOT_stimuli/rescaled_final/0816_fw.mp4	0.0	93.9557671546936	
7	71.42739772796631	movie	1		279	5.0	2.5	/experiments/knapen_AOT/AOT_stimuli/rescaled_final/0816_fw.mp4	0.0	94.38915252685547	2.4836647510528564
7	72.5925567150116	pulse	1	t		5.0	2.5	/experiments/knapen_AOT/AOT_stimuli/rescaled_final/0816_fw.mp4	0.0	95.55431151390076	
7	73.91106247901917	fix_post	2		12	5.0	2.5	/experiments/knapen_AOT/AOT_stimuli/rescaled_final/0816_fw.mp4	0.0	96.87281727790833	0.09987998008728027
8	74.01094245910645	fix_pre	0		120	6.0	2.5	blank	1.0	96.9726972579956	1.000070571899414
8	74.1944670677185	pulse	0	t		6.0	2.5	blank	1.0	97.15622186660767	
8	75.01101303100586	movie	1		300	6.0	2.5	blank	1.0	97.97276782989502	2.5003974437713623
8	75.79468822479248	pulse	1	t		6.0	2.5	blank	1.0	98.75644302368164	
8	77.39508819580078	pulse	1	t		6.0	2.5	blank	1.0	100.35684299468994	
8	77.51141047477722	fix_post	2		12	6.0	2.5	blank	1.0	100.47316527366638	0.09998822212219238
9	77.61139869689941	fix_pre	0		120	7.0	2.5	/experiments/knapen_AOT/AOT_stimuli/rescaled_final/1770_rv.mp4	0.0	100.57315349578857	1.0085136890411377
9	78.61991238594055	movie	1		276	7.0	2.5	/experiments/knapen_AOT/AOT_stimuli/rescaled_final/1770_rv.mp4	0.0	101.58166718482971	2.492098569869995
9	78.99555325508118	pulse	1	t		7.0	2.5	/experiments/knapen_AOT/AOT_stimuli/rescaled_final/1770_rv.mp4	0.0	101.95730805397034	
9	80.59300756454468	pulse	1	t		7.0	2.5	/experiments/knapen_AOT/AOT_stimuli/rescaled_final/1770_rv.mp4	0.0	103.55476236343384	
9	81.11201095581055	fix_post	2		12	7.0	2.5	/experiments/knapen_AOT/AOT_stimuli/rescaled_final/1770_rv.mp4	0.0	104.0737657546997	0.09992647171020508
10	81.21193742752075	fix_pre	0		119	8.0	2.5	/experiments/knapen_AOT/AOT_stimuli/rescaled_final/1778_rv.mp4	0.0	104.17369222640991	1.0001530647277832
10	82.19560384750366	pulse	0	t		8.0	2.5	/experiments/knapen_AOT/AOT_stimuli/rescaled_final/1778_rv.mp4	0.0	105.15735864639282	
10	82.21209049224854	movie	1		270	8.0	2.5	/experiments/knapen_AOT/AOT_stimuli/rescaled_final/1778_rv.mp4	0.0	105.1738452911377	2.5092391967773438
10	83.79398584365845	pulse	1	t		8.0	2.5	/experiments/knapen_AOT/AOT_stimuli/rescaled_final/1778_rv.mp4	0.0	106.75574064254761	
10	84.72132968902588	fix_post	2		11	8.0	2.5	/experiments/knapen_AOT/AOT_stimuli/rescaled_final/1778_rv.mp4	0.0	107.68308448791504	0.09116911888122559
11	84.8124988079071	fix_pre	0		120	9.0	2.5	/experiments/knapen_AOT/AOT_stimuli/rescaled_final/1163_fw.mp4	0.0	107.77425360679626	1.0084669589996338
11	85.39611268043518	pulse	0	t		9.0	2.5	/experiments/knapen_AOT/AOT_stimuli/rescaled_final/1163_fw.mp4	0.0	108.35786747932434	
11	85.82096576690674	movie	1		271	9.0	2.5	/experiments/knapen_AOT/AOT_stimuli/rescaled_final/1163_fw.mp4	0.0	108.7827205657959	2.4920310974121094
11	86.99463772773743	pulse	1	t		9.0	2.5	/experiments/knapen_AOT/AOT_stimuli/rescaled_final/1163_fw.mp4	0.0	109.95639252662659	
11	88.31299686431885	fix_post	2		12	9.0	2.5	/experiments/knapen_AOT/AOT_stimuli/rescaled_final/1163_fw.mp4	0.0	111.27475166320801	0.10023665428161621
12	88.41323351860046	fix_pre	0		120	10.0	2.5	/experiments/knapen_AOT/AOT_stimuli/rescaled_final/1766_rv.mp4	0.0	111.37498831748962	1.0083203315734863
12	88.59664416313171	pulse	0	t		10.0	2.5	/experiments/knapen_AOT/AOT_stimuli/rescaled_final/1766_rv.mp4	0.0	111.55839896202087	
12	89.42155385017395	movie	1		255	10.0	2.5	/experiments/knapen_AOT/AOT_stimuli/rescaled_final/1766_rv.mp4	0.0	112.38330864906311	2.492027759552002
12	90.19785451889038	pulse	1	t		10.0	2.5	/experiments/knapen_AOT/AOT_stimuli/rescaled_final/1766_rv.mp4	0.0	113.15960931777954	
12	91.79506826400757	pulse	1	t		10.0	2.5	/experiments/knapen_AOT/AOT_stimuli/rescaled_final/1766_rv.mp4	0.0	114.75682306289673	
12	91.91358160972595	fix_post	2		12	10.0	2.5	/experiments/knapen_AOT/AOT_stimuli/rescaled_final/1766_rv.mp4	0.0	114.87533640861511	0.10002827644348145
13	92.01360988616943	fix_pre	0		120	11.0	2.5	/experiments/knapen_AOT/AOT_stimuli/rescaled_final/0738_fw.mp4	0.0	114.9753646850586	1.0085883140563965
13	93.02219820022583	movie	1		262	11.0	2.5	/experiments/knapen_AOT/AOT_stimuli/rescaled_final/0738_fw.mp4	0.0	115.98395299911499	2.49202299118042
13	93.39751410484314	pulse	1	t		11.0	2.5	/experiments/knapen_AOT/AOT_stimuli/rescaled_final/0738_fw.mp4	0.0	116.3592689037323	
13	94.99562644958496	pulse	1	t		11.0	2.5	/experiments/knapen_AOT/AOT_stimuli/rescaled_final/0738_fw.mp4	0.0	117.95738124847412	
13	95.51422119140625	fix_post	2		12	11.0	2.5	/experiments/knapen_AOT/AOT_stimuli/rescaled_final/0738_fw.mp4	0.0	118.47597599029541	0.0998837947845459
14	95.6141049861908	fix_pre	0		119	12.0	2.5	/experiments/knapen_AOT/AOT_stimuli/rescaled_final/0697_rv.mp4	0.0	118.57585978507996	1.0003204345703125
14	96.59787321090698	pulse	0	t		12.0	2.5	/experiments/knapen_AOT/AOT_stimuli/rescaled_final/0697_rv.mp4	0.0	119.55962800979614	
14	96.61442542076111	movie	1		252	12.0	2.5	/experiments/knapen_AOT/AOT_stimuli/rescaled_final/0697_rv.mp4	0.0	119.57618021965027	2.5003387928009033
14	98.19842886924744	pulse	1	t		12.0	2.5	/experiments/knapen_AOT/AOT_stimuli/rescaled_final/0697_rv.mp4	0.0	121.1601836681366	
14	99.11476421356201	fix_post	2		12	12.0	2.5	/experiments/knapen_AOT/AOT_stimuli/rescaled_final/0697_rv.mp4	0.0	122.07651901245117	0.09988188743591309
15	99.21464610099792	fix_pre	0		120	13.0	2.5	blank	1.0	122.17640089988708	1.00014328956604
15	99.79836893081665	pulse	0	t		13.0	2.5	blank	1.0	122.76012372970581	
15	100.21478939056396	movie	1		300	13.0	2.5	blank	1.0	123.17654418945312	2.5003838539123535
15	101.39865159988403	pulse	1	t		13.0	2.5	blank	1.0	124.3604063987732	
15	102.71517324447632	fix_post	2		12	13.0	2.5	blank	1.0	125.67692804336548	0.1000373363494873
16	102.8152105808258	fix_pre	0		120	14.0	2.5	/experiments/knapen_AOT/AOT_stimuli/rescaled_final/1539_rv.mp4	0.0	125.77696537971497	1.0085456371307373
16	102.9989709854126	pulse	0	t		14.0	2.5	/experiments/knapen_AOT/AOT_stimuli/rescaled_final/1539_rv.mp4	0.0	125.96072578430176	
16	103.82375621795654	movie	1		263	14.0	2.5	/experiments/knapen_AOT/AOT_stimuli/rescaled_final/1539_rv.mp4	0.0	126.7855110168457	2.4920318126678467
16	104.59689211845398	pulse	1	t		14.0	2.5	/experiments/knapen_AOT/AOT_stimuli/rescaled_final/1539_rv.mp4	0.0	127.55864691734314	
16	106.1974265575409	pulse	1	t		14.0	2.5	/experiments/knapen_AOT/AOT_stimuli/rescaled_final/1539_rv.mp4	0.0	129.15918135643005	
16	106.31578803062439	fix_post	2		12	14.0	2.5	/experiments/knapen_AOT/AOT_stimuli/rescaled_final/1539_rv.mp4	0.0	129.27754282951355	0.09995913505554199
17	106.41574716567993	fix_pre	0		120	15.0	2.5	/experiments/knapen_AOT/AOT_stimuli/rescaled_final/1940_fw.mp4	0.0	129.3775019645691	1.0085787773132324
17	107.42432594299316	movie	1		267	15.0	2.5	/experiments/knapen_AOT/AOT_stimuli/rescaled_final/1940_fw.mp4	0.0	130.38608074188232	2.4923956394195557
17	107.79985022544861	pulse	1	t		15.0	2.5	/experiments/knapen_AOT/AOT_stimuli/rescaled_final/1940_fw.mp4	0.0	130.76160502433777	
17	109.39757800102234	pulse	1	t		15.0	2.5	/experiments/knapen_AOT/AOT_stimuli/rescaled_final/1940_fw.mp4	0.0	132.3593327999115	
17	109.91672158241272	fix_post	2		12	15.0	2.5	/experiments/knapen_AOT/AOT_stimuli/rescaled_final/1940_fw.mp4	0.0	132.87847638130188	0.09960579872131348
18	110.01632738113403	fix_pre	0		119	16.0	2.5	/experiments/knapen_AOT/AOT_stimuli/rescaled_final/1022_fw.mp4	0.0	132.9780821800232	1.000257968902588
18	110.99283456802368	pulse	0	t		16.0	2.5	/experiments/knapen_AOT/AOT_stimuli/rescaled_final/1022_fw.mp4	0.0	133.95458936691284	
18	111.01658535003662	movie	1		261	16.0	2.5	/experiments/knapen_AOT/AOT_stimuli/rescaled_final/1022_fw.mp4	0.0	133.97834014892578	2.5005338191986084
18	112.59910678863525	pulse	1	t		16.0	2.5	/experiments/knapen_AOT/AOT_stimuli/rescaled_final/1022_fw.mp4	0.0	135.5608615875244	
18	113.51711916923523	fix_post	2		12	16.0	2.5	/experiments/knapen_AOT/AOT_stimuli/rescaled_final/1022_fw.mp4	0.0	136.4788739681244	0.09972643852233887
19	113.61684560775757	fix_pre	0		120	17.0	2.5	/experiments/knapen_AOT/AOT_stimuli/rescaled_final/0918_rv.mp4	0.0	136.57860040664673	1.0085127353668213
19	114.19318294525146	pulse	0	t		17.0	2.5	/experiments/knapen_AOT/AOT_stimuli/rescaled_final/0918_rv.mp4	0.0	137.15493774414062	
19	114.62535834312439	movie	1		257	17.0	2.5	/experiments/knapen_AOT/AOT_stimuli/rescaled_final/0918_rv.mp4	0.0	137.58711314201355	2.500319719314575
19	115.8004949092865	pulse	1	t		17.0	2.5	/experiments/knapen_AOT/AOT_stimuli/rescaled_final/0918_rv.mp4	0.0	138.76224970817566	
19	117.12567806243896	fix_post	2		11	17.0	2.5	/experiments/knapen_AOT/AOT_stimuli/rescaled_final/0918_rv.mp4	0.0	140.08743286132812	0.09169173240661621
20	117.21736979484558	fix_pre	0		120	18.0	2.5	/experiments/knapen_AOT/AOT_stimuli/rescaled_final/0455_fw.mp4	0.0	140.17912459373474	1.008676290512085
20	117.39337873458862	pulse	0	t		18.0	2.5	/experiments/knapen_AOT/AOT_stimuli/rescaled_final/0455_fw.mp4	0.0	140.35513353347778	
20	118.22604608535767	movie	1		270	18.0	2.5	/experiments/knapen_AOT/AOT_stimuli/rescaled_final/0455_fw.mp4	0.0	141.18780088424683	2.4918251037597656
20	118.99295568466187	pulse	1	t		18.0	2.5	/experiments/knapen_AOT/AOT_stimuli/rescaled_final/0455_fw.mp4	0.0	141.95471048355103	
20	120.59303522109985	pulse	1	t		18.0	2.5	/experiments/knapen_AOT/AOT_stimuli/rescaled_final/0455_fw.mp4	0.0	143.554790019989	
20	120.71787118911743	fix_post	2		12	18.0	2.5	/experiments/knapen_AOT/AOT_stimuli/rescaled_final/0455_fw.mp4	0.0	143.6796259880066	0.10030198097229004
21	120.81817317008972	fix_pre	0		120	19.0	2.5	/experiments/knapen_AOT/AOT_stimuli/rescaled_final/1755_fw.mp4	0.0	143.77992796897888	1.0082378387451172
21	121.82641100883484	movie	1		257	19.0	2.5	/experiments/knapen_AOT/AOT_stimuli/rescaled_final/1755_fw.mp4	0.0	144.788165807724	2.4920589923858643
21	122.19386553764343	pulse	1	t		19.0	2.5	/experiments/knapen_AOT/AOT_stimuli/rescaled_final/1755_fw.mp4	0.0	145.1556203365326	
21	123.79354691505432	pulse	1	t		19.0	2.5	/experiments/knapen_AOT/AOT_stimuli/rescaled_final/1755_fw.mp4	0.0	146.75530171394348	
21	124.3184700012207	fix_post	2		12	19.0	2.5	/experiments/knapen_AOT/AOT_stimuli/rescaled_final/1755_fw.mp4	0.0	147.28022480010986	0.09997820854187012
22	124.41844820976257	fix_pre	0		118	20.0	2.5	blank	1.0	147.38020300865173	0.9834375381469727
22	125.39382743835449	pulse	0	t		20.0	2.5	blank	1.0	148.35558223724365	
22	125.40188574790955	movie	1		301	20.0	2.5	blank	1.0	148.3636405467987	2.5087575912475586
22	126.99410653114319	pulse	1	t		20.0	2.5	blank	1.0	149.95586133003235	
22	127.9106433391571	fix_post	2		12	20.0	2.5	blank	1.0	150.87239813804626	0.10001420974731445
23	128.01065754890442	fix_pre	0		120	21.0	2.5	/experiments/knapen_AOT/AOT_stimuli/rescaled_final/0963_fw.mp4	0.0	150.97241234779358	1.0086841583251953
23	128.59467554092407	pulse	0	t		21.0	2.5	/experiments/knapen_AOT/AOT_stimuli/rescaled_final/0963_fw.mp4	0.0	151.55643033981323	
23	129.01934170722961	movie	1		284	21.0	2.5	/experiments/knapen_AOT/AOT_stimuli/rescaled_final/0963_fw.mp4	0.0	151.98109650611877	2.5004215240478516
23	130.19453716278076	pulse	1	t		21.0	2.5	/experiments/knapen_AOT/AOT_stimuli/rescaled_final/0963_fw.mp4	0.0	153.15629196166992	
23	131.51976323127747	fix_post	2		11	21.0	2.5	/experiments/knapen_AOT/AOT_stimuli/rescaled_final/0963_fw.mp4	0.0	154.48151803016663	0.09149909019470215
24	131.61126232147217	fix_pre	0		120	22.0	2.5	/experiments/knapen_AOT/AOT_stimuli/rescaled_final/0944_rv.mp4	0.0	154.57301712036133	1.0088317394256592
24	131.7947986125946	pulse	0	t		22.0	2.5	/experiments/knapen_AOT/AOT_stimuli/rescaled_final/0944_rv.mp4	0.0	154.75655341148376	
24	132.62009406089783	movie	1		259	22.0	2.5	/experiments/knapen_AOT/AOT_stimuli/rescaled_final/0944_rv.mp4	0.0	155.581848859787	2.4916276931762695
24	133.39503812789917	pulse	1	t		22.0	2.5	/experiments/knapen_AOT/AOT_stimuli/rescaled_final/0944_rv.mp4	0.0	156.35679292678833	
24	134.99331974983215	pulse	1	t		22.0	2.5	/experiments/knapen_AOT/AOT_stimuli/rescaled_final/0944_rv.mp4	0.0	157.9550745487213	
24	135.1117217540741	fix_post	2		12	22.0	2.5	/experiments/knapen_AOT/AOT_stimuli/rescaled_final/0944_rv.mp4	0.0	158.07347655296326	0.10016369819641113
25	135.2118854522705	fix_pre	0		120	23.0	2.5	/experiments/knapen_AOT/AOT_stimuli/rescaled_final/1247_rv.mp4	0.0	158.17364025115967	1.0083634853363037
25	136.2202489376068	movie	1		265	23.0	2.5	/experiments/knapen_AOT/AOT_stimuli/rescaled_final/1247_rv.mp4	0.0	159.18200373649597	2.492136001586914
25	136.59373784065247	pulse	1	t		23.0	2.5	/experiments/knapen_AOT/AOT_stimuli/rescaled_final/1247_rv.mp4	0.0	159.55549263954163	
25	138.1934847831726	pulse	1	t		23.0	2.5	/experiments/knapen_AOT/AOT_stimuli/rescaled_final/1247_rv.mp4	0.0	161.15523958206177	
25	138.71238493919373	fix_post	2		12	23.0	2.5	/experiments/knapen_AOT/AOT_stimuli/rescaled_final/1247_rv.mp4	0.0	161.67413973808289	0.09989786148071289
26	138.81228280067444	fix_pre	0		119	24.0	2.5	/experiments/knapen_AOT/AOT_stimuli/rescaled_final/0846_fw.mp4	0.0	161.7740375995636	1.000295877456665
26	139.79603791236877	pulse	0	t		24.0	2.5	/experiments/knapen_AOT/AOT_stimuli/rescaled_final/0846_fw.mp4	0.0	162.75779271125793	
26	139.8125786781311	movie	1		273	24.0	2.5	/experiments/knapen_AOT/AOT_stimuli/rescaled_final/0846_fw.mp4	0.0	162.77433347702026	2.5002243518829346
26	141.39485836029053	pulse	1	t		24.0	2.5	/experiments/knapen_AOT/AOT_stimuli/rescaled_final/0846_fw.mp4	0.0	164.3566131591797	
26	142.31280303001404	fix_post	2		12	24.0	2.5	/experiments/knapen_AOT/AOT_stimuli/rescaled_final/0846_fw.mp4	0.0	165.2745578289032	0.09999704360961914
27	142.41280007362366	fix_pre	0		120	25.0	2.5	/experiments/knapen_AOT/AOT_stimuli/rescaled_final/1387_fw.mp4	0.0	165.37455487251282	1.0085711479187012
27	142.99650955200195	pulse	0	t		25.0	2.5	/experiments/knapen_AOT/AOT_stimuli/rescaled_final/1387_fw.mp4	0.0	165.9582643508911	
27	143.42137122154236	movie	1		287	25.0	2.5	/experiments/knapen_AOT/AOT_stimuli/rescaled_final/1387_fw.mp4	0.0	166.38312602043152	2.4919581413269043
27	144.59451341629028	pulse	1	t		25.0	2.5	/experiments/knapen_AOT/AOT_stimuli/rescaled_final/1387_fw.mp4	0.0	167.55626821517944	
27	145.91332936286926	fix_post	2		12	25.0	2.5	/experiments/knapen_AOT/AOT_stimuli/rescaled_final/1387_fw.mp4	0.0	168.87508416175842	0.1000218391418457
28	146.0133512020111	fix_pre	0		120	26.0	2.5	blank	1.0	168.97510600090027	1.0002882480621338
28	146.19699668884277	pulse	0	t		26.0	2.5	blank	1.0	169.15875148773193	
28	147.01363945007324	movie	1		300	26.0	2.5	blank	1.0	169.9753942489624	2.5002341270446777
28	147.797265291214	pulse	1	t		26.0	2.5	blank	1.0	170.75902009010315	
28	149.3974950313568	pulse	1	t		26.0	2.5	blank	1.0	172.35924983024597	
28	149.51387357711792	fix_post	2		12	26.0	2.5	blank	1.0	172.47562837600708	0.1000368595123291
29	149.61391043663025	fix_pre	0		120	27.0	2.5	/experiments/knapen_AOT/AOT_stimuli/rescaled_final/1053_rv.mp4	0.0	172.5756652355194	1.008530855178833
29	150.62244129180908	movie	1		256	27.0	2.5	/experiments/knapen_AOT/AOT_stimuli/rescaled_final/1053_rv.mp4	0.0	173.58419609069824	2.492095708847046
29	150.99813842773438	pulse	1	t		27.0	2.5	/experiments/knapen_AOT/AOT_stimuli/rescaled_final/1053_rv.mp4	0.0	173.95989322662354	
29	152.59724640846252	pulse	1	t		27.0	2.5	/experiments/knapen_AOT/AOT_stimuli/rescaled_final/1053_rv.mp4	0.0	175.55900120735168	
29	153.11453700065613	fix_post	2		12	27.0	2.5	/experiments/knapen_AOT/AOT_stimuli/rescaled_final/1053_rv.mp4	0.0	176.0762917995453	0.09995198249816895
30	153.2144889831543	fix_pre	0		119	28.0	2.5	/experiments/knapen_AOT/AOT_stimuli/rescaled_final/1522_fw.mp4	0.0	176.17624378204346	1.0001182556152344
30	154.19811463356018	pulse	0	t		28.0	2.5	/experiments/knapen_AOT/AOT_stimuli/rescaled_final/1522_fw.mp4	0.0	177.15986943244934	
30	154.21460723876953	movie	1		263	28.0	2.5	/experiments/knapen_AOT/AOT_stimuli/rescaled_final/1522_fw.mp4	0.0	177.1763620376587	2.5004396438598633
30	155.79743075370789	pulse	1	t		28.0	2.5	/experiments/knapen_AOT/AOT_stimuli/rescaled_final/1522_fw.mp4	0.0	178.75918555259705	
30	156.7150468826294	fix_post	2		12	28.0	2.5	/experiments/knapen_AOT/AOT_stimuli/rescaled_final/1522_fw.mp4	0.0	179.67680168151855	0.0999135971069336
31	156.81496047973633	fix_pre	0		120	29.0	2.5	/experiments/knapen_AOT/AOT_stimuli/rescaled_final/2059_fw.mp4	0.0	179.7767152786255	1.0085039138793945
31	157.39862537384033	pulse	0	t		29.0	2.5	/experiments/knapen_AOT/AOT_stimuli/rescaled_final/2059_fw.mp4	0.0	180.3603801727295	
31	157.82346439361572	movie	1		278	29.0	2.5	/experiments/knapen_AOT/AOT_stimuli/rescaled_final/2059_fw.mp4	0.0	180.78521919250488	2.4923095703125
31	158.99692487716675	pulse	1	t		29.0	2.5	/experiments/knapen_AOT/AOT_stimuli/rescaled_final/2059_fw.mp4	0.0	181.9586796760559	
31	160.31577396392822	fix_post	2		12	29.0	2.5	/experiments/knapen_AOT/AOT_stimuli/rescaled_final/2059_fw.mp4	0.0	183.27752876281738	0.09974908828735352
32	160.41552305221558	fix_pre	0		120	30.0	2.5	/experiments/knapen_AOT/AOT_stimuli/rescaled_final/1156_rv.mp4	0.0	183.37727785110474	1.0084853172302246
32	160.59918665885925	pulse	0	t		30.0	2.5	/experiments/knapen_AOT/AOT_stimuli/rescaled_final/1156_rv.mp4	0.0	183.5609414577484	
32	161.4240083694458	movie	1		255	30.0	2.5	/experiments/knapen_AOT/AOT_stimuli/rescaled_final/1156_rv.mp4	0.0	184.38576316833496	2.4920146465301514
32	162.1997275352478	pulse	1	t		30.0	2.5	/experiments/knapen_AOT/AOT_stimuli/rescaled_final/1156_rv.mp4	0.0	185.16148233413696	
32	163.79895782470703	pulse	1	t		30.0	2.5	/experiments/knapen_AOT/AOT_stimuli/rescaled_final/1156_rv.mp4	0.0	186.7607126235962	
32	163.91602301597595	fix_post	2		12	30.0	2.5	/experiments/knapen_AOT/AOT_stimuli/rescaled_final/1156_rv.mp4	0.0	186.8777778148651	0.10001945495605469
33	164.016042470932	fix_pre	0		120	31.0	2.5	/experiments/knapen_AOT/AOT_stimuli/rescaled_final/1758_rv.mp4	0.0	186.97779726982117	1.0087110996246338
33	165.02475357055664	movie	1		270	31.0	2.5	/experiments/knapen_AOT/AOT_stimuli/rescaled_final/1758_rv.mp4	0.0	187.9865083694458	2.492065191268921
33	165.398015499115	pulse	1	t		31.0	2.5	/experiments/knapen_AOT/AOT_stimuli/rescaled_final/1758_rv.mp4	0.0	188.35977029800415	
33	166.99953246116638	pulse	1	t		31.0	2.5	/experiments/knapen_AOT/AOT_stimuli/rescaled_final/1758_rv.mp4	0.0	189.96128726005554	
33	167.51681876182556	fix_post	2		12	31.0	2.5	/experiments/knapen_AOT/AOT_stimuli/rescaled_final/1758_rv.mp4	0.0	190.47857356071472	0.09977197647094727
34	167.6165907382965	fix_pre	0		119	32.0	2.5	/experiments/knapen_AOT/AOT_stimuli/rescaled_final/1414_rv.mp4	0.0	190.57834553718567	1.0002081394195557
34	168.60056471824646	pulse	0	t		32.0	2.5	/experiments/knapen_AOT/AOT_stimuli/rescaled_final/1414_rv.mp4	0.0	191.56231951713562	
34	168.61679887771606	movie	1		258	32.0	2.5	/experiments/knapen_AOT/AOT_stimuli/rescaled_final/1414_rv.mp4	0.0	191.57855367660522	2.5004031658172607
34	170.20002508163452	pulse	1	t		32.0	2.5	/experiments/knapen_AOT/AOT_stimuli/rescaled_final/1414_rv.mp4	0.0	193.16177988052368	
34	171.11720204353333	fix_post	2		12	32.0	2.5	/experiments/knapen_AOT/AOT_stimuli/rescaled_final/1414_rv.mp4	0.0	194.07895684242249	0.09991955757141113
35	171.21712160110474	fix_pre	0		120	33.0	2.5	/experiments/knapen_AOT/AOT_stimuli/rescaled_final/1758_fw.mp4	0.0	194.1788763999939	1.0085256099700928
35	171.8007276058197	pulse	0	t		33.0	2.5	/experiments/knapen_AOT/AOT_stimuli/rescaled_final/1758_fw.mp4	0.0	194.76248240470886	
35	172.22564721107483	movie	1		265	33.0	2.5	/experiments/knapen_AOT/AOT_stimuli/rescaled_final/1758_fw.mp4	0.0	195.187402009964	2.492111921310425
35	173.3989598751068	pulse	1	t		33.0	2.5	/experiments/knapen_AOT/AOT_stimuli/rescaled_final/1758_fw.mp4	0.0	196.36071467399597	
35	174.71775913238525	fix_post	2		12	33.0	2.5	/experiments/knapen_AOT/AOT_stimuli/rescaled_final/1758_fw.mp4	0.0	197.6795139312744	0.10003423690795898
36	174.8177933692932	fix_pre	0		120	34.0	2.5	/experiments/knapen_AOT/AOT_stimuli/rescaled_final/1212_fw.mp4	0.0	197.77954816818237	1.0083777904510498
36	174.99348425865173	pulse	0	t		34.0	2.5	/experiments/knapen_AOT/AOT_stimuli/rescaled_final/1212_fw.mp4	0.0	197.9552390575409	
36	175.82617115974426	movie	1		268	34.0	2.5	/experiments/knapen_AOT/AOT_stimuli/rescaled_final/1212_fw.mp4	0.0	198.78792595863342	2.492213010787964
36	176.59328985214233	pulse	1	t		34.0	2.5	/experiments/knapen_AOT/AOT_stimuli/rescaled_final/1212_fw.mp4	0.0	199.5550446510315	
36	178.2024483680725	pulse	1	t		34.0	2.5	/experiments/knapen_AOT/AOT_stimuli/rescaled_final/1212_fw.mp4	0.0	201.16420316696167	
36	178.31838417053223	fix_post	2		12	34.0	2.5	/experiments/knapen_AOT/AOT_stimuli/rescaled_final/1212_fw.mp4	0.0	201.2801389694214	0.09983110427856445
37	178.4182152748108	fix_pre	0		120	35.0	2.5	blank	1.0	201.37997007369995	1.0002245903015137
37	179.4184398651123	movie	1		300	35.0	2.5	blank	1.0	202.38019466400146	2.500576972961426
37	179.79367423057556	pulse	1	t		35.0	2.5	blank	1.0	202.75542902946472	
37	181.3938717842102	pulse	1	t		35.0	2.5	blank	1.0	204.35562658309937	
37	181.91901683807373	fix_post	2		12	35.0	2.5	blank	1.0	204.8807716369629	0.09974455833435059
38	182.01876139640808	fix_pre	0		118	36.0	2.5	/experiments/knapen_AOT/AOT_stimuli/rescaled_final/2137_fw.mp4	0.0	204.98051619529724	0.9918160438537598
38	182.99416732788086	pulse	0	t		36.0	2.5	/experiments/knapen_AOT/AOT_stimuli/rescaled_final/2137_fw.mp4	0.0	205.95592212677002	
38	183.01057744026184	movie	1		269	36.0	2.5	/experiments/knapen_AOT/AOT_stimuli/rescaled_final/2137_fw.mp4	0.0	205.972332239151	2.5003867149353027
38	184.59450387954712	pulse	1	t		36.0	2.5	/experiments/knapen_AOT/AOT_stimuli/rescaled_final/2137_fw.mp4	0.0	207.55625867843628	
38	185.51096415519714	fix_post	2		12	36.0	2.5	/experiments/knapen_AOT/AOT_stimuli/rescaled_final/2137_fw.mp4	0.0	208.4727189540863	0.09999346733093262
39	185.61095762252808	fix_pre	0		120	37.0	2.5	/experiments/knapen_AOT/AOT_stimuli/rescaled_final/2166_fw.mp4	0.0	208.57271242141724	1.0084969997406006
39	186.19458389282227	pulse	0	t		37.0	2.5	/experiments/knapen_AOT/AOT_stimuli/rescaled_final/2166_fw.mp4	0.0	209.15633869171143	
39	186.61945462226868	movie	1		276	37.0	2.5	/experiments/knapen_AOT/AOT_stimuli/rescaled_final/2166_fw.mp4	0.0	209.58120942115784	2.492058515548706
39	187.794837474823	pulse	1	t		37.0	2.5	/experiments/knapen_AOT/AOT_stimuli/rescaled_final/2166_fw.mp4	0.0	210.75659227371216	
39	189.11151313781738	fix_post	2		12	37.0	2.5	/experiments/knapen_AOT/AOT_stimuli/rescaled_final/2166_fw.mp4	0.0	212.07326793670654	0.10013842582702637
40	189.2116515636444	fix_pre	0		120	38.0	2.5	/experiments/knapen_AOT/AOT_stimuli/rescaled_final/1097_rv.mp4	0.0	212.17340636253357	1.0083410739898682
40	189.3952181339264	pulse	0	t		38.0	2.5	/experiments/knapen_AOT/AOT_stimuli/rescaled_final/1097_rv.mp4	0.0	212.35697293281555	
40	190.21999263763428	movie	1		282	38.0	2.5	/experiments/knapen_AOT/AOT_stimuli/rescaled_final/1097_rv.mp4	0.0	213.18174743652344	2.492042064666748
40	190.99375939369202	pulse	1	t		38.0	2.5	/experiments/knapen_AOT/AOT_stimuli/rescaled_final/1097_rv.mp4	0.0	213.95551419258118	
40	192.59345412254333	pulse	1	t		38.0	2.5	/experiments/knapen_AOT/AOT_stimuli/rescaled_final/1097_rv.mp4	0.0	215.5552089214325	
40	192.71203470230103	fix_post	2		12	38.0	2.5	/experiments/knapen_AOT/AOT_stimuli/rescaled_final/1097_rv.mp4	0.0	215.67378950119019	0.1000063419342041
41	192.81204104423523	fix_pre	0		120	39.0	2.5	/experiments/knapen_AOT/AOT_stimuli/rescaled_final/1339_fw.mp4	0.0	215.7737958431244	1.0085647106170654
41	193.8206057548523	movie	1		269	39.0	2.5	/experiments/knapen_AOT/AOT_stimuli/rescaled_final/1339_fw.mp4	0.0	216.78236055374146	2.4919588565826416
41	194.19393634796143	pulse	1	t		39.0	2.5	/experiments/knapen_AOT/AOT_stimuli/rescaled_final/1339_fw.mp4	0.0	217.1556911468506	
41	195.79420447349548	pulse	1	t		39.0	2.5	/experiments/knapen_AOT/AOT_stimuli/rescaled_final/1339_fw.mp4	0.0	218.75595927238464	
41	196.31256461143494	fix_post	2		12	39.0	2.5	/experiments/knapen_AOT/AOT_stimuli/rescaled_final/1339_fw.mp4	0.0	219.2743194103241	0.1000511646270752
42	196.412615776062	fix_pre	0		119	40.0	2.5	blank	1.0	219.37437057495117	0.9918248653411865
42	197.39629292488098	pulse	0	t		40.0	2.5	blank	1.0	220.35804772377014	
42	197.4044406414032	movie	1		301	40.0	2.5	blank	1.0	220.36619544029236	2.508697748184204
42	198.99674034118652	pulse	1	t		40.0	2.5	blank	1.0	221.95849514007568	
42	199.9131383895874	fix_post	2		12	40.0	2.5	blank	1.0	222.87489318847656	0.09997224807739258
43	200.0131106376648	fix_pre	0		120	41.0	2.5	/experiments/knapen_AOT/AOT_stimuli/rescaled_final/0374_rv.mp4	0.0	222.97486543655396	1.0085082054138184
43	200.59677386283875	pulse	0	t		41.0	2.5	/experiments/knapen_AOT/AOT_stimuli/rescaled_final/0374_rv.mp4	0.0	223.5585286617279	
43	201.0216188430786	movie	1		261	41.0	2.5	/experiments/knapen_AOT/AOT_stimuli/rescaled_final/0374_rv.mp4	0.0	223.98337364196777	2.492128849029541
43	202.19640231132507	pulse	1	t		41.0	2.5	/experiments/knapen_AOT/AOT_stimuli/rescaled_final/0374_rv.mp4	0.0	225.15815711021423	
43	203.51374769210815	fix_post	2		12	41.0	2.5	/experiments/knapen_AOT/AOT_stimuli/rescaled_final/0374_rv.mp4	0.0	226.47550249099731	0.09993457794189453
44	203.61368227005005	fix_pre	0		120	42.0	2.5	/experiments/knapen_AOT/AOT_stimuli/rescaled_final/0402_fw.mp4	0.0	226.5754370689392	1.0087110996246338
44	203.7974820137024	pulse	0	t		42.0	2.5	/experiments/knapen_AOT/AOT_stimuli/rescaled_final/0402_fw.mp4	0.0	226.75923681259155	
44	204.62239336967468	movie	1		270	42.0	2.5	/experiments/knapen_AOT/AOT_stimuli/rescaled_final/0402_fw.mp4	0.0	227.58414816856384	2.491806983947754
44	205.3975124359131	pulse	1	t		42.0	2.5	/experiments/knapen_AOT/AOT_stimuli/rescaled_final/0402_fw.mp4	0.0	228.35926723480225	
44	206.99574947357178	pulse	1	t		42.0	2.5	/experiments/knapen_AOT/AOT_stimuli/rescaled_final/0402_fw.mp4	0.0	229.95750427246094	
44	207.11420035362244	fix_post	2		12	42.0	2.5	/experiments/knapen_AOT/AOT_stimuli/rescaled_final/0402_fw.mp4	0.0	230.0759551525116	0.10020589828491211
45	207.21440625190735	fix_pre	0		120	43.0	2.5	/experiments/knapen_AOT/AOT_stimuli/rescaled_final/1473_fw.mp4	0.0	230.1761610507965	1.008284091949463
45	208.2226903438568	movie	1		273	43.0	2.5	/experiments/knapen_AOT/AOT_stimuli/rescaled_final/1473_fw.mp4	0.0	231.18444514274597	2.4920339584350586
45	208.5963215827942	pulse	1	t		43.0	2.5	/experiments/knapen_AOT/AOT_stimuli/rescaled_final/1473_fw.mp4	0.0	231.55807638168335	
45	210.19856357574463	pulse	1	t		43.0	2.5	/experiments/knapen_AOT/AOT_stimuli/rescaled_final/1473_fw.mp4	0.0	233.1603183746338	
45	210.71472430229187	fix_post	2		12	43.0	2.5	/experiments/knapen_AOT/AOT_stimuli/rescaled_final/1473_fw.mp4	0.0	233.67647910118103	0.10003423690795898
46	210.81475853919983	fix_pre	0		119	44.0	2.5	/experiments/knapen_AOT/AOT_stimuli/rescaled_final/0509_rv.mp4	0.0	233.776513338089	1.0001554489135742
46	211.79851365089417	pulse	0	t		44.0	2.5	/experiments/knapen_AOT/AOT_stimuli/rescaled_final/0509_rv.mp4	0.0	234.76026844978333	
46	211.8149139881134	movie	1		277	44.0	2.5	/experiments/knapen_AOT/AOT_stimuli/rescaled_final/0509_rv.mp4	0.0	234.77666878700256	2.500387668609619
46	213.39739203453064	pulse	1	t		44.0	2.5	/experiments/knapen_AOT/AOT_stimuli/rescaled_final/0509_rv.mp4	0.0	236.3591468334198	
46	214.31530165672302	fix_post	2		12	44.0	2.5	/experiments/knapen_AOT/AOT_stimuli/rescaled_final/0509_rv.mp4	0.0	237.27705645561218	0.10012626647949219
47	214.41542792320251	fix_pre	0		120	45.0	2.5	/experiments/knapen_AOT/AOT_stimuli/rescaled_final/0455_fw.mp4	0.0	237.37718272209167	1.0083589553833008
47	214.99899578094482	pulse	0	t		45.0	2.5	/experiments/knapen_AOT/AOT_stimuli/rescaled_final/0455_fw.mp4	0.0	237.96075057983398	
47	215.42378687858582	movie	1		270	45.0	2.5	/experiments/knapen_AOT/AOT_stimuli/rescaled_final/0455_fw.mp4	0.0	238.38554167747498	2.4920454025268555
47	216.59746313095093	pulse	1	t		45.0	2.5	/experiments/knapen_AOT/AOT_stimuli/rescaled_final/0455_fw.mp4	0.0	239.5592179298401	
47	217.91583228111267	fix_post	2		12	45.0	2.5	/experiments/knapen_AOT/AOT_stimuli/rescaled_final/0455_fw.mp4	0.0	240.87758708000183	0.1000063419342041
48	218.01583862304688	fix_pre	0		120	46.0	2.5	/experiments/knapen_AOT/AOT_stimuli/rescaled_final/0774_fw.mp4	0.0	240.97759342193604	1.0084972381591797
48	218.19942665100098	pulse	0	t		46.0	2.5	/experiments/knapen_AOT/AOT_stimuli/rescaled_final/0774_fw.mp4	0.0	241.16118144989014	
48	219.02433586120605	movie	1		273	46.0	2.5	/experiments/knapen_AOT/AOT_stimuli/rescaled_final/0774_fw.mp4	0.0	241.98609066009521	2.4920315742492676
48	219.79944610595703	pulse	1	t		46.0	2.5	/experiments/knapen_AOT/AOT_stimuli/rescaled_final/0774_fw.mp4	0.0	242.7612009048462	
48	221.39844155311584	pulse	1	t		46.0	2.5	/experiments/knapen_AOT/AOT_stimuli/rescaled_final/0774_fw.mp4	0.0	244.360196352005	
48	221.51636743545532	fix_post	2		12	46.0	2.5	/experiments/knapen_AOT/AOT_stimuli/rescaled_final/0774_fw.mp4	0.0	244.47812223434448	0.10004353523254395
49	221.61641097068787	fix_pre	0		120	47.0	2.5	blank	1.0	244.57816576957703	1.0001206398010254
49	222.6165316104889	movie	1		281	47.0	2.5	blank	1.0	245.57828640937805	2.500365972518921
49	223.1529769897461	pulse	1	t		47.0	2.5	blank	1.0	246.11473178863525	
49	224.60101437568665	pulse	1	t		47.0	2.5	blank	1.0	247.5627691745758	
49	225.1168975830078	fix_post	2		12	47.0	2.5	blank	1.0	248.07865238189697	0.10004925727844238
50	225.21694684028625	fix_pre	0		119	48.0	2.5	/experiments/knapen_AOT/AOT_stimuli/rescaled_final/1648_rv.mp4	0.0	248.17870163917542	1.0001540184020996
50	226.20068836212158	pulse	0	t		48.0	2.5	/experiments/knapen_AOT/AOT_stimuli/rescaled_final/1648_rv.mp4	0.0	249.16244316101074	
50	226.21710085868835	movie	1		276	48.0	2.5	/experiments/knapen_AOT/AOT_stimuli/rescaled_final/1648_rv.mp4	0.0	249.17885565757751	2.5004818439483643
50	227.7994260787964	pulse	1	t		48.0	2.5	/experiments/knapen_AOT/AOT_stimuli/rescaled_final/1648_rv.mp4	0.0	250.76118087768555	
50	228.71758270263672	fix_post	2		12	48.0	2.5	/experiments/knapen_AOT/AOT_stimuli/rescaled_final/1648_rv.mp4	0.0	251.67933750152588	0.09987306594848633
51	228.8174557685852	fix_pre	0		120	49.0	2.5	/experiments/knapen_AOT/AOT_stimuli/rescaled_final/2090_fw.mp4	0.0	251.77921056747437	1.0085229873657227
51	229.40125465393066	pulse	0	t		49.0	2.5	/experiments/knapen_AOT/AOT_stimuli/rescaled_final/2090_fw.mp4	0.0	252.36300945281982	
51	229.82597875595093	movie	1		280	49.0	2.5	/experiments/knapen_AOT/AOT_stimuli/rescaled_final/2090_fw.mp4	0.0	252.7877335548401	2.492107391357422
51	231.00033736228943	pulse	1	t		49.0	2.5	/experiments/knapen_AOT/AOT_stimuli/rescaled_final/2090_fw.mp4	0.0	253.9620921611786	
51	232.31808614730835	fix_post	2		12	49.0	2.5	/experiments/knapen_AOT/AOT_stimuli/rescaled_final/2090_fw.mp4	0.0	255.2798409461975	0.0999152660369873
52	232.41800141334534	fix_pre	0		120	50.0	2.5	/experiments/knapen_AOT/AOT_stimuli/rescaled_final/1481_rv.mp4	0.0	255.3797562122345	1.0085523128509521
52	232.59340023994446	pulse	0	t		50.0	2.5	/experiments/knapen_AOT/AOT_stimuli/rescaled_final/1481_rv.mp4	0.0	255.55515503883362	
52	233.4265537261963	movie	1		273	50.0	2.5	/experiments/knapen_AOT/AOT_stimuli/rescaled_final/1481_rv.mp4	0.0	256.38830852508545	2.4921789169311523
52	234.1935694217682	pulse	1	t		50.0	2.5	/experiments/knapen_AOT/AOT_stimuli/rescaled_final/1481_rv.mp4	0.0	257.15532422065735	
52	235.79481744766235	pulse	1	t		50.0	2.5	/experiments/knapen_AOT/AOT_stimuli/rescaled_final/1481_rv.mp4	0.0	258.7565722465515	
52	235.91873264312744	fix_post	2		12	50.0	2.5	/experiments/knapen_AOT/AOT_stimuli/rescaled_final/1481_rv.mp4	0.0	258.8804874420166	0.09985780715942383
53	236.01859045028687	fix_pre	0		120	51.0	2.5	/experiments/knapen_AOT/AOT_stimuli/rescaled_final/1438_rv.mp4	0.0	258.980345249176	1.0084757804870605
53	237.02706623077393	movie	1		274	51.0	2.5	/experiments/knapen_AOT/AOT_stimuli/rescaled_final/1438_rv.mp4	0.0	259.9888210296631	2.492568016052246
53	237.39354515075684	pulse	1	t		51.0	2.5	/experiments/knapen_AOT/AOT_stimuli/rescaled_final/1438_rv.mp4	0.0	260.355299949646	
53	238.9939091205597	pulse	1	t		51.0	2.5	/experiments/knapen_AOT/AOT_stimuli/rescaled_final/1438_rv.mp4	0.0	261.95566391944885	
53	239.51963424682617	fix_post	2		12	51.0	2.5	/experiments/knapen_AOT/AOT_stimuli/rescaled_final/1438_rv.mp4	0.0	262.48138904571533	0.09972786903381348
54	239.61936211585999	fix_pre	0		118	52.0	2.5	/experiments/knapen_AOT/AOT_stimuli/rescaled_final/1683_rv.mp4	0.0	262.58111691474915	0.9915492534637451
54	240.59448313713074	pulse	0	t		52.0	2.5	/experiments/knapen_AOT/AOT_stimuli/rescaled_final/1683_rv.mp4	0.0	263.5562379360199	
54	240.61091136932373	movie	1		277	52.0	2.5	/experiments/knapen_AOT/AOT_stimuli/rescaled_final/1683_rv.mp4	0.0	263.5726661682129	2.5006868839263916
54	242.19500184059143	pulse	1	t		52.0	2.5	/experiments/knapen_AOT/AOT_stimuli/rescaled_final/1683_rv.mp4	0.0	265.1567566394806	
54	243.11159825325012	fix_post	2		12	52.0	2.5	/experiments/knapen_AOT/AOT_stimuli/rescaled_final/1683_rv.mp4	0.0	266.0733530521393	0.09972548484802246
55	243.21132373809814	fix_pre	0		120	53.0	2.5	/experiments/knapen_AOT/AOT_stimuli/rescaled_final/2103_fw.mp4	0.0	266.1730785369873	1.0084748268127441
55	243.7949023246765	pulse	0	t		53.0	2.5	/experiments/knapen_AOT/AOT_stimuli/rescaled_final/2103_fw.mp4	0.0	266.7566571235657	
55	244.2197985649109	movie	1		273	53.0	2.5	/experiments/knapen_AOT/AOT_stimuli/rescaled_final/2103_fw.mp4	0.0	267.18155336380005	2.4922640323638916
55	245.3945894241333	pulse	1	t		53.0	2.5	/experiments/knapen_AOT/AOT_stimuli/rescaled_final/2103_fw.mp4	0.0	268.35634422302246	
55	246.71206259727478	fix_post	2		12	53.0	2.5	/experiments/knapen_AOT/AOT_stimuli/rescaled_final/2103_fw.mp4	0.0	269.67381739616394	0.09976005554199219
56	246.81182265281677	fix_pre	0		120	54.0	2.5	/experiments/knapen_AOT/AOT_stimuli/rescaled_final/1330_fw.mp4	0.0	269.77357745170593	1.008509874343872
56	246.9954640865326	pulse	0	t		54.0	2.5	/experiments/knapen_AOT/AOT_stimuli/rescaled_final/1330_fw.mp4	0.0	269.95721888542175	
56	247.82033252716064	movie	1		283	54.0	2.5	/experiments/knapen_AOT/AOT_stimuli/rescaled_final/1330_fw.mp4	0.0	270.7820873260498	2.492244005203247
56	248.5936896800995	pulse	1	t		54.0	2.5	/experiments/knapen_AOT/AOT_stimuli/rescaled_final/1330_fw.mp4	0.0	271.55544447898865	
56	250.1938841342926	pulse	1	t		54.0	2.5	/experiments/knapen_AOT/AOT_stimuli/rescaled_final/1330_fw.mp4	0.0	273.15563893318176	
56	250.3125765323639	fix_post	2		12	54.0	2.5	/experiments/knapen_AOT/AOT_stimuli/rescaled_final/1330_fw.mp4	0.0	273.27433133125305	0.09979915618896484
57	250.41237568855286	fix_pre	0		120	55.0	2.5	blank	1.0	273.374130487442	1.0001535415649414
57	251.4125292301178	movie	1		300	55.0	2.5	blank	1.0	274.37428402900696	2.5003767013549805
57	251.79607605934143	pulse	1	t		55.0	2.5	blank	1.0	274.7578308582306	
57	253.3964548110962	pulse	1	t		55.0	2.5	blank	1.0	276.35820960998535	
57	253.91290593147278	fix_post	2		12	55.0	2.5	blank	1.0	276.87466073036194	0.09999394416809082
58	254.01289987564087	fix_pre	0		119	56.0	2.5	/experiments/knapen_AOT/AOT_stimuli/rescaled_final/2006_rv.mp4	0.0	276.97465467453003	1.000190019607544
58	254.996591091156	pulse	0	t		56.0	2.5	/experiments/knapen_AOT/AOT_stimuli/rescaled_final/2006_rv.mp4	0.0	277.95834589004517	
58	255.0130898952484	movie	1		273	56.0	2.5	/experiments/knapen_AOT/AOT_stimuli/rescaled_final/2006_rv.mp4	0.0	277.9748446941376	2.5004498958587646
58	256.59521675109863	pulse	1	t		56.0	2.5	/experiments/knapen_AOT/AOT_stimuli/rescaled_final/2006_rv.mp4	0.0	279.5569715499878	
58	257.5135397911072	fix_post	2		12	56.0	2.5	/experiments/knapen_AOT/AOT_stimuli/rescaled_final/2006_rv.mp4	0.0	280.47529458999634	0.09991002082824707
59	257.6134498119354	fix_pre	0		120	57.0	2.5	/experiments/knapen_AOT/AOT_stimuli/rescaled_final/1339_fw.mp4	0.0	280.5752046108246	1.0084795951843262
59	258.19705986976624	pulse	0	t		57.0	2.5	/experiments/knapen_AOT/AOT_stimuli/rescaled_final/1339_fw.mp4	0.0	281.1588146686554	
59	258.62192940711975	movie	1		284	57.0	2.5	/experiments/knapen_AOT/AOT_stimuli/rescaled_final/1339_fw.mp4	0.0	281.5836842060089	2.4920501708984375
59	259.79581475257874	pulse	1	t		57.0	2.5	/experiments/knapen_AOT/AOT_stimuli/rescaled_final/1339_fw.mp4	0.0	282.7575695514679	
59	261.1139795780182	fix_post	2		12	57.0	2.5	/experiments/knapen_AOT/AOT_stimuli/rescaled_final/1339_fw.mp4	0.0	284.07573437690735	0.10007524490356445
60	261.21405482292175	fix_pre	0		120	58.0	2.5	/experiments/knapen_AOT/AOT_stimuli/rescaled_final/0709_fw.mp4	0.0	284.1758096218109	1.0084538459777832
60	261.3975467681885	pulse	0	t		58.0	2.5	/experiments/knapen_AOT/AOT_stimuli/rescaled_final/0709_fw.mp4	0.0	284.35930156707764	
60	262.22250866889954	movie	1		273	58.0	2.5	/experiments/knapen_AOT/AOT_stimuli/rescaled_final/0709_fw.mp4	0.0	285.1842634677887	2.4920969009399414
60	262.99839329719543	pulse	1	t		58.0	2.5	/experiments/knapen_AOT/AOT_stimuli/rescaled_final/0709_fw.mp4	0.0	285.9601480960846	
60	264.59637355804443	pulse	1	t		58.0	2.5	/experiments/knapen_AOT/AOT_stimuli/rescaled_final/0709_fw.mp4	0.0	287.5581283569336	
60	264.7146055698395	fix_post	2		12	58.0	2.5	/experiments/knapen_AOT/AOT_stimuli/rescaled_final/0709_fw.mp4	0.0	287.67636036872864	0.09992337226867676
61	264.81452894210815	fix_pre	0		120	59.0	2.5	/experiments/knapen_AOT/AOT_stimuli/rescaled_final/1769_fw.mp4	0.0	287.7762837409973	1.0085093975067139
61	265.82303833961487	movie	1		275	59.0	2.5	/experiments/knapen_AOT/AOT_stimuli/rescaled_final/1769_fw.mp4	0.0	288.784793138504	2.4921302795410156
61	266.19641757011414	pulse	1	t		59.0	2.5	/experiments/knapen_AOT/AOT_stimuli/rescaled_final/1769_fw.mp4	0.0	289.1581723690033	
61	267.7967298030853	pulse	1	t		59.0	2.5	/experiments/knapen_AOT/AOT_stimuli/rescaled_final/1769_fw.mp4	0.0	290.7584846019745	
61	268.3151686191559	fix_post	2		12	59.0	2.5	/experiments/knapen_AOT/AOT_stimuli/rescaled_final/1769_fw.mp4	0.0	291.27692341804504	0.09991049766540527
62	268.4150791168213	fix_pre	0		119	60.0	2.5	/experiments/knapen_AOT/AOT_stimuli/rescaled_final/1940_fw.mp4	0.0	291.37683391571045	1.0002784729003906
62	269.39898920059204	pulse	0	t		60.0	2.5	/experiments/knapen_AOT/AOT_stimuli/rescaled_final/1940_fw.mp4	0.0	292.3607439994812	
62	269.4153575897217	movie	1		275	60.0	2.5	/experiments/knapen_AOT/AOT_stimuli/rescaled_final/1940_fw.mp4	0.0	292.37711238861084	2.500309705734253
62	270.99838733673096	pulse	1	t		60.0	2.5	/experiments/knapen_AOT/AOT_stimuli/rescaled_final/1940_fw.mp4	0.0	293.9601421356201	
62	271.91566729545593	fix_post	2		12	60.0	2.5	/experiments/knapen_AOT/AOT_stimuli/rescaled_final/1940_fw.mp4	0.0	294.8774220943451	0.09996604919433594
63	272.01563334465027	fix_pre	0		120	61.0	2.5	blank	1.0	294.97738814353943	1.0002610683441162
63	272.599324464798	pulse	0	t		61.0	2.5	blank	1.0	295.56107926368713	
63	273.0158944129944	movie	1		300	61.0	2.5	blank	1.0	295.97764921188354	2.5002479553222656
63	274.19955253601074	pulse	1	t		61.0	2.5	blank	1.0	297.1613073348999	
63	275.51614236831665	fix_post	2		12	61.0	2.5	blank	1.0	298.4778971672058	0.10003304481506348
64	275.6161754131317	fix_pre	0		120	62.0	2.5	/experiments/knapen_AOT/AOT_stimuli/rescaled_final/1961_fw.mp4	0.0	298.5779302120209	1.0084786415100098
64	275.7997143268585	pulse	0	t		62.0	2.5	/experiments/knapen_AOT/AOT_stimuli/rescaled_final/1961_fw.mp4	0.0	298.7614691257477	
64	276.6246540546417	movie	1		284	62.0	2.5	/experiments/knapen_AOT/AOT_stimuli/rescaled_final/1961_fw.mp4	0.0	299.5864088535309	2.492033004760742
64	277.3984889984131	pulse	1	t		62.0	2.5	/experiments/knapen_AOT/AOT_stimuli/rescaled_final/1961_fw.mp4	0.0	300.36024379730225	
64	278.9981691837311	pulse	1	t		62.0	2.5	/experiments/knapen_AOT/AOT_stimuli/rescaled_final/1961_fw.mp4	0.0	301.95992398262024	
64	279.11668705940247	fix_post	2		12	62.0	2.5	/experiments/knapen_AOT/AOT_stimuli/rescaled_final/1961_fw.mp4	0.0	302.0784418582916	0.09998679161071777
65	279.2166738510132	fix_pre	0		120	63.0	2.5	/experiments/knapen_AOT/AOT_stimuli/rescaled_final/0146_rv.mp4	0.0	302.17842864990234	1.0085580348968506
65	280.22523188591003	movie	1		274	63.0	2.5	/experiments/knapen_AOT/AOT_stimuli/rescaled_final/0146_rv.mp4	0.0	303.1869866847992	2.492002487182617
65	280.5988621711731	pulse	1	t		63.0	2.5	/experiments/knapen_AOT/AOT_stimuli/rescaled_final/0146_rv.mp4	0.0	303.56061697006226	
65	282.1983940601349	pulse	1	t		63.0	2.5	/experiments/knapen_AOT/AOT_stimuli/rescaled_final/0146_rv.mp4	0.0	305.16014885902405	
65	282.71723437309265	fix_post	2		12	63.0	2.5	/experiments/knapen_AOT/AOT_stimuli/rescaled_final/0146_rv.mp4	0.0	305.6789891719818	0.10006237030029297
66	282.81729674339294	fix_pre	0		119	64.0	2.5	/experiments/knapen_AOT/AOT_stimuli/rescaled_final/0169_rv.mp4	0.0	305.7790515422821	1.0001516342163086
66	283.7945716381073	pulse	0	t		64.0	2.5	/experiments/knapen_AOT/AOT_stimuli/rescaled_final/0169_rv.mp4	0.0	306.75632643699646	
66	283.81744837760925	movie	1		283	64.0	2.5	/experiments/knapen_AOT/AOT_stimuli/rescaled_final/0169_rv.mp4	0.0	306.7792031764984	2.50041127204895
66	285.3930621147156	pulse	1	t		64.0	2.5	/experiments/knapen_AOT/AOT_stimuli/rescaled_final/0169_rv.mp4	0.0	308.35481691360474	
66	286.3178596496582	fix_post	2		12	64.0	2.5	/experiments/knapen_AOT/AOT_stimuli/rescaled_final/0169_rv.mp4	0.0	309.27961444854736	0.09992384910583496
67	286.41778349876404	fix_pre	0		120	65.0	2.5	/experiments/knapen_AOT/AOT_stimuli/rescaled_final/0078_fw.mp4	0.0	309.3795382976532	1.008528470993042
67	286.9931037425995	pulse	0	t		65.0	2.5	/experiments/knapen_AOT/AOT_stimuli/rescaled_final/0078_fw.mp4	0.0	309.95485854148865	
67	287.4263119697571	movie	1		277	65.0	2.5	/experiments/knapen_AOT/AOT_stimuli/rescaled_final/0078_fw.mp4	0.0	310.38806676864624	2.4920856952667236
67	288.5934250354767	pulse	1	t		65.0	2.5	/experiments/knapen_AOT/AOT_stimuli/rescaled_final/0078_fw.mp4	0.0	311.55517983436584	
67	289.9183976650238	fix_post	2		12	65.0	2.5	/experiments/knapen_AOT/AOT_stimuli/rescaled_final/0078_fw.mp4	0.0	312.88015246391296	0.09994196891784668
68	290.01833963394165	fix_pre	0		120	66.0	2.5	/experiments/knapen_AOT/AOT_stimuli/rescaled_final/0215_fw.mp4	0.0	312.9800944328308	1.0085599422454834
68	290.1935684680939	pulse	0	t		66.0	2.5	/experiments/knapen_AOT/AOT_stimuli/rescaled_final/0215_fw.mp4	0.0	313.15532326698303	
68	291.02689957618713	movie	1		268	66.0	2.5	/experiments/knapen_AOT/AOT_stimuli/rescaled_final/0215_fw.mp4	0.0	313.9886543750763	2.4919590950012207
68	291.7937915325165	pulse	1	t		66.0	2.5	/experiments/knapen_AOT/AOT_stimuli/rescaled_final/0215_fw.mp4	0.0	314.75554633140564	
68	293.3940773010254	pulse	1	t		66.0	2.5	/experiments/knapen_AOT/AOT_stimuli/rescaled_final/0215_fw.mp4	0.0	316.35583209991455	
68	293.51885867118835	fix_post	2		12	66.0	2.5	/experiments/knapen_AOT/AOT_stimuli/rescaled_final/0215_fw.mp4	0.0	316.4806134700775	0.10001873970031738
69	293.6188774108887	fix_pre	0		120	67.0	2.5	/experiments/knapen_AOT/AOT_stimuli/rescaled_final/0497_rv.mp4	0.0	316.58063220977783	1.008669137954712
69	294.6275465488434	movie	1		272	67.0	2.5	/experiments/knapen_AOT/AOT_stimuli/rescaled_final/0497_rv.mp4	0.0	317.58930134773254	2.4919257164001465
69	294.99312567710876	pulse	1	t		67.0	2.5	/experiments/knapen_AOT/AOT_stimuli/rescaled_final/0497_rv.mp4	0.0	317.9548804759979	
69	296.5948860645294	pulse	1	t		67.0	2.5	/experiments/knapen_AOT/AOT_stimuli/rescaled_final/0497_rv.mp4	0.0	319.5566408634186	
69	297.11947226524353	fix_post	2		12	67.0	2.5	/experiments/knapen_AOT/AOT_stimuli/rescaled_final/0497_rv.mp4	0.0	320.0812270641327	0.1000525951385498
70	297.2195248603821	fix_pre	0		118	68.0	2.5	/experiments/knapen_AOT/AOT_stimuli/rescaled_final/0497_fw.mp4	0.0	320.18127965927124	1.0001792907714844
70	298.194762468338	pulse	0	t		68.0	2.5	/experiments/knapen_AOT/AOT_stimuli/rescaled_final/0497_fw.mp4	0.0	321.1565172672272	
70	298.21970415115356	movie	1		271	68.0	2.5	/experiments/knapen_AOT/AOT_stimuli/rescaled_final/0497_fw.mp4	0.0	321.1814589500427	2.491945266723633
70	299.7955996990204	pulse	1	t		68.0	2.5	/experiments/knapen_AOT/AOT_stimuli/rescaled_final/0497_fw.mp4	0.0	322.75735449790955	
70	300.7116494178772	fix_post	2		12	68.0	2.5	/experiments/knapen_AOT/AOT_stimuli/rescaled_final/0497_fw.mp4	0.0	323.67340421676636	0.0999603271484375
71	300.81160974502563	fix_pre	0		120	69.0	2.5	blank	1.0	323.7733645439148	1.0002448558807373
71	301.3952841758728	pulse	0	t		69.0	2.5	blank	1.0	324.35703897476196	
71	301.8118546009064	movie	1		300	69.0	2.5	blank	1.0	324.77360939979553	2.500304937362671
71	302.9955749511719	pulse	1	t		69.0	2.5	blank	1.0	325.95732975006104	
71	304.31215953826904	fix_post	2		12	69.0	2.5	blank	1.0	327.2739143371582	0.10003042221069336
72	304.41218996047974	fix_pre	0		120	70.0	2.5	/experiments/knapen_AOT/AOT_stimuli/rescaled_final/0369_rv.mp4	0.0	327.3739447593689	1.0086359977722168
72	304.59572744369507	pulse	0	t		70.0	2.5	/experiments/knapen_AOT/AOT_stimuli/rescaled_final/0369_rv.mp4	0.0	327.55748224258423	
72	305.42082595825195	movie	1		269	70.0	2.5	/experiments/knapen_AOT/AOT_stimuli/rescaled_final/0369_rv.mp4	0.0	328.3825807571411	2.4918739795684814
72	306.1963667869568	pulse	1	t		70.0	2.5	/experiments/knapen_AOT/AOT_stimuli/rescaled_final/0369_rv.mp4	0.0	329.15812158584595	
72	307.7942383289337	pulse	1	t		70.0	2.5	/experiments/knapen_AOT/AOT_stimuli/rescaled_final/0369_rv.mp4	0.0	330.7559931278229	
72	307.91269993782043	fix_post	2		12	70.0	2.5	/experiments/knapen_AOT/AOT_stimuli/rescaled_final/0369_rv.mp4	0.0	330.8744547367096	0.10008502006530762
73	308.01278495788574	fix_pre	0		120	71.0	2.5	/experiments/knapen_AOT/AOT_stimuli/rescaled_final/1606_rv.mp4	0.0	330.9745397567749	1.008521318435669
73	309.0213062763214	movie	1		281	71.0	2.5	/experiments/knapen_AOT/AOT_stimuli/rescaled_final/1606_rv.mp4	0.0	331.98306107521057	2.4920926094055176
73	309.39483976364136	pulse	1	t		71.0	2.5	/experiments/knapen_AOT/AOT_stimuli/rescaled_final/1606_rv.mp4	0.0	332.3565945625305	
73	310.99519968032837	pulse	1	t		71.0	2.5	/experiments/knapen_AOT/AOT_stimuli/rescaled_final/1606_rv.mp4	0.0	333.95695447921753	
73	311.51339888572693	fix_post	2		12	71.0	2.5	/experiments/knapen_AOT/AOT_stimuli/rescaled_final/1606_rv.mp4	0.0	334.4751536846161	0.09988522529602051
74	311.61328411102295	fix_pre	0		119	72.0	2.5	/experiments/knapen_AOT/AOT_stimuli/rescaled_final/0341_fw.mp4	0.0	334.5750389099121	1.0002999305725098
74	312.5969715118408	pulse	0	t		72.0	2.5	/experiments/knapen_AOT/AOT_stimuli/rescaled_final/0341_fw.mp4	0.0	335.55872631073	
74	312.61358404159546	movie	1		280	72.0	2.5	/experiments/knapen_AOT/AOT_stimuli/rescaled_final/0341_fw.mp4	0.0	335.5753388404846	2.500173807144165
74	314.19544887542725	pulse	1	t		72.0	2.5	/experiments/knapen_AOT/AOT_stimuli/rescaled_final/0341_fw.mp4	0.0	337.1572036743164	
74	315.1137578487396	fix_post	2		12	72.0	2.5	/experiments/knapen_AOT/AOT_stimuli/rescaled_final/0341_fw.mp4	0.0	338.0755126476288	0.1001276969909668
75	315.2138855457306	fix_pre	0		120	73.0	2.5	/experiments/knapen_AOT/AOT_stimuli/rescaled_final/1053_fw.mp4	0.0	338.17564034461975	1.0084130764007568
75	315.7973880767822	pulse	0	t		73.0	2.5	/experiments/knapen_AOT/AOT_stimuli/rescaled_final/1053_fw.mp4	0.0	338.7591428756714	
75	316.22229862213135	movie	1		277	73.0	2.5	/experiments/knapen_AOT/AOT_stimuli/rescaled_final/1053_fw.mp4	0.0	339.1840534210205	2.492121458053589
75	317.3980212211609	pulse	1	t		73.0	2.5	/experiments/knapen_AOT/AOT_stimuli/rescaled_final/1053_fw.mp4	0.0	340.35977602005005	
75	318.71442008018494	fix_post	2		12	73.0	2.5	/experiments/knapen_AOT/AOT_stimuli/rescaled_final/1053_fw.mp4	0.0	341.6761748790741	0.09992742538452148
76	318.81434750556946	fix_pre	0		120	74.0	2.5	/experiments/knapen_AOT/AOT_stimuli/rescaled_final/0122_rv.mp4	0.0	341.7761023044586	1.0084893703460693
76	318.9979524612427	pulse	0	t		74.0	2.5	/experiments/knapen_AOT/AOT_stimuli/rescaled_final/0122_rv.mp4	0.0	341.95970726013184	
76	319.8228368759155	movie	1		283	74.0	2.5	/experiments/knapen_AOT/AOT_stimuli/rescaled_final/0122_rv.mp4	0.0	342.7845916748047	2.492255926132202
76	320.5960178375244	pulse	1	t		74.0	2.5	/experiments/knapen_AOT/AOT_stimuli/rescaled_final/0122_rv.mp4	0.0	343.5577726364136	
76	322.1962399482727	pulse	1	t		74.0	2.5	/experiments/knapen_AOT/AOT_stimuli/rescaled_final/0122_rv.mp4	0.0	345.15799474716187	
76	322.31509280204773	fix_post	2		12	74.0	2.5	/experiments/knapen_AOT/AOT_stimuli/rescaled_final/0122_rv.mp4	0.0	345.2768476009369	0.09993100166320801
77	322.41502380371094	fix_pre	0		119	75.0	2.5	/experiments/knapen_AOT/AOT_stimuli/rescaled_final/2103_rv.mp4	0.0	345.3767786026001	1.0083317756652832
77	323.4233555793762	movie	1		266	75.0	2.5	/experiments/knapen_AOT/AOT_stimuli/rescaled_final/2103_rv.mp4	0.0	346.3851103782654	2.4921467304229736
77	323.7967436313629	pulse	1	t		75.0	2.5	/experiments/knapen_AOT/AOT_stimuli/rescaled_final/2103_rv.mp4	0.0	346.7584984302521	
77	325.3975281715393	pulse	1	t		75.0	2.5	/experiments/knapen_AOT/AOT_stimuli/rescaled_final/2103_rv.mp4	0.0	348.35928297042847	
77	325.9155023097992	fix_post	2		12	75.0	2.5	/experiments/knapen_AOT/AOT_stimuli/rescaled_final/2103_rv.mp4	0.0	348.87725710868835	0.10000205039978027
78	326.015504360199	fix_pre	0		119	76.0	2.5	/experiments/knapen_AOT/AOT_stimuli/rescaled_final/0400_fw.mp4	0.0	348.97725915908813	1.0000886917114258
78	326.99911856651306	pulse	0	t		76.0	2.5	/experiments/knapen_AOT/AOT_stimuli/rescaled_final/0400_fw.mp4	0.0	349.9608733654022	
78	327.0155930519104	movie	1		272	76.0	2.5	/experiments/knapen_AOT/AOT_stimuli/rescaled_final/0400_fw.mp4	0.0	349.97734785079956	2.500478506088257
78	328.5985996723175	pulse	1	t		76.0	2.5	/experiments/knapen_AOT/AOT_stimuli/rescaled_final/0400_fw.mp4	0.0	351.56035447120667	
78	329.51607155799866	fix_post	2		12	76.0	2.5	/experiments/knapen_AOT/AOT_stimuli/rescaled_final/0400_fw.mp4	0.0	352.4778263568878	0.09984397888183594
79	329.6159155368805	fix_pre	0		120	77.0	2.5	blank	1.0	352.57767033576965	1.0001752376556396
79	330.19972825050354	pulse	0	t		77.0	2.5	blank	1.0	353.1614830493927	
79	330.61609077453613	movie	1		300	77.0	2.5	blank	1.0	353.5778455734253	2.5004403591156006
79	331.79988837242126	pulse	1	t		77.0	2.5	blank	1.0	354.7616431713104	
79	333.11653113365173	fix_post	2		12	77.0	2.5	blank	1.0	356.0782859325409	0.1000833511352539
80	333.216614484787	fix_pre	0		120	78.0	2.5	/experiments/knapen_AOT/AOT_stimuli/rescaled_final/1683_fw.mp4	0.0	356.17836928367615	1.0083754062652588
80	333.40013360977173	pulse	0	t		78.0	2.5	/experiments/knapen_AOT/AOT_stimuli/rescaled_final/1683_fw.mp4	0.0	356.3618884086609	
80	334.22498989105225	movie	1		280	78.0	2.5	/experiments/knapen_AOT/AOT_stimuli/rescaled_final/1683_fw.mp4	0.0	357.1867446899414	2.4921205043792725
80	334.99876737594604	pulse	1	t		78.0	2.5	/experiments/knapen_AOT/AOT_stimuli/rescaled_final/1683_fw.mp4	0.0	357.9605221748352	
80	336.5998990535736	pulse	1	t		78.0	2.5	/experiments/knapen_AOT/AOT_stimuli/rescaled_final/1683_fw.mp4	0.0	359.56165385246277	
80	336.7171103954315	fix_post	2		12	78.0	2.5	/experiments/knapen_AOT/AOT_stimuli/rescaled_final/1683_fw.mp4	0.0	359.6788651943207	0.0999441146850586
81	336.8170545101166	fix_pre	0		120	79.0	2.5	/experiments/knapen_AOT/AOT_stimuli/rescaled_final/1307_fw.mp4	0.0	359.77880930900574	1.0087015628814697
81	337.82575607299805	movie	1		284	79.0	2.5	/experiments/knapen_AOT/AOT_stimuli/rescaled_final/1307_fw.mp4	0.0	360.7875108718872	2.491828203201294
81	338.1995520591736	pulse	1	t		79.0	2.5	/experiments/knapen_AOT/AOT_stimuli/rescaled_final/1307_fw.mp4	0.0	361.16130685806274	
81	339.79917001724243	pulse	1	t		79.0	2.5	/experiments/knapen_AOT/AOT_stimuli/rescaled_final/1307_fw.mp4	0.0	362.7609248161316	
81	340.31758427619934	fix_post	2		12	79.0	2.5	/experiments/knapen_AOT/AOT_stimuli/rescaled_final/1307_fw.mp4	0.0	363.2793390750885	0.1000518798828125
82	340.41763615608215	fix_pre	0		119	80.0	2.5	/experiments/knapen_AOT/AOT_stimuli/rescaled_final/0899_fw.mp4	0.0	363.3793909549713	1.0001182556152344
82	341.3937063217163	pulse	0	t		80.0	2.5	/experiments/knapen_AOT/AOT_stimuli/rescaled_final/0899_fw.mp4	0.0	364.35546112060547	
82	341.4177544116974	movie	1		277	80.0	2.5	/experiments/knapen_AOT/AOT_stimuli/rescaled_final/0899_fw.mp4	0.0	364.37950921058655	2.5003533363342285
82	342.9999635219574	pulse	1	t		80.0	2.5	/experiments/knapen_AOT/AOT_stimuli/rescaled_final/0899_fw.mp4	0.0	365.96171832084656	
82	343.9181077480316	fix_post	2		12	80.0	2.5	/experiments/knapen_AOT/AOT_stimuli/rescaled_final/0899_fw.mp4	0.0	366.8798625469208	0.10000753402709961
83	344.0181152820587	fix_pre	0		120	81.0	2.5	/experiments/knapen_AOT/AOT_stimuli/rescaled_final/2038_rv.mp4	0.0	366.9798700809479	1.0087637901306152
83	344.59347558021545	pulse	0	t		81.0	2.5	/experiments/knapen_AOT/AOT_stimuli/rescaled_final/2038_rv.mp4	0.0	367.5552303791046	
83	345.02687907218933	movie	1		272	81.0	2.5	/experiments/knapen_AOT/AOT_stimuli/rescaled_final/2038_rv.mp4	0.0	367.9886338710785	2.4920144081115723
83	346.1939342021942	pulse	1	t		81.0	2.5	/experiments/knapen_AOT/AOT_stimuli/rescaled_final/2038_rv.mp4	0.0	369.1556890010834	
83	347.5188934803009	fix_post	2		12	81.0	2.5	/experiments/knapen_AOT/AOT_stimuli/rescaled_final/2038_rv.mp4	0.0	370.48064827919006	0.09980463981628418
84	347.6186981201172	fix_pre	0		120	82.0	2.5	/experiments/knapen_AOT/AOT_stimuli/rescaled_final/0343_rv.mp4	0.0	370.58045291900635	1.008467435836792
84	347.794043302536	pulse	0	t		82.0	2.5	/experiments/knapen_AOT/AOT_stimuli/rescaled_final/0343_rv.mp4	0.0	370.75579810142517	
84	348.627165555954	movie	1		278	82.0	2.5	/experiments/knapen_AOT/AOT_stimuli/rescaled_final/0343_rv.mp4	0.0	371.58892035484314	2.4923582077026367
84	349.3944535255432	pulse	1	t		82.0	2.5	/experiments/knapen_AOT/AOT_stimuli/rescaled_final/0343_rv.mp4	0.0	372.3562083244324	
84	350.9946184158325	pulse	1	t		82.0	2.5	/experiments/knapen_AOT/AOT_stimuli/rescaled_final/0343_rv.mp4	0.0	373.9563732147217	
84	351.1195237636566	fix_post	2		11	82.0	2.5	/experiments/knapen_AOT/AOT_stimuli/rescaled_final/0343_rv.mp4	0.0	374.0812785625458	0.09970235824584961
85	351.21922612190247	fix_pre	0		120	83.0	2.5	blank	1.0	374.1809809207916	1.0001366138458252
85	352.2193627357483	movie	1		300	83.0	2.5	blank	1.0	375.18111753463745	2.5004022121429443
85	352.5946054458618	pulse	1	t		83.0	2.5	blank	1.0	375.556360244751	
85	354.19488310813904	pulse	1	t		83.0	2.5	blank	1.0	377.1566379070282	
85	354.71976494789124	fix_post	2		12	83.0	2.5	blank	1.0	377.6815197467804	0.10004591941833496
87	354.81981086730957	stim	0		1715					377.78156566619873	14.293746709823608
87	355.79511761665344	pulse	0	t						378.7568724155426	
87	357.3958978652954	pulse	0	t						380.35765266418457	
87	358.9959056377411	pulse	0	t						381.95766043663025	
87	360.596045255661	pulse	0	t						383.55780005455017	
87	362.19632291793823	pulse	0	t						385.1580777168274	
87	363.7964217662811	pulse	0	t						386.7581765651703	
87	365.39653635025024	pulse	0	t						388.3582911491394	
87	366.9967827796936	pulse	0	t						389.95853757858276	
87	368.59700560569763	pulse	0	t						391.5587604045868	
