trial_nr	onset	event_type	phase	response	nr_frames	movie_index	movie_duration	movie_file	blank	onset_abs	duration
0	0.14988493919372559	stim	0		413					23.83196210861206	3.4416890144348145
0	3.5836548805236816	response	0	space						27.265732049942017	
1	3.59157395362854	stim	0		11043					27.273651123046875	92.02456903457642
1	95.6099009513855	pulse	0	t						119.29197812080383	
1	95.61614298820496	stim	1		1717					119.29822015762329	14.30826187133789
1	97.20788598060608	pulse	1	t						120.88996315002441	
1	98.80788493156433	pulse	1	t						122.48996210098267	
1	100.40786480903625	pulse	1	t						124.08994197845459	
1	102.00788688659668	pulse	1	t						125.68996405601501	
1	103.60780787467957	pulse	1	t						127.2898850440979	
1	105.20784592628479	pulse	1	t						128.88992309570312	
1	106.80791997909546	pulse	1	t						130.4899971485138	
1	108.40781688690186	pulse	1	t						132.0898940563202	
2	109.92440485954285	fix_pre	0		11	0.0	2.5	/experiments/AOT/AOT_stimuli/rescaled_final/0389_fw.mp4	0.0	133.60648202896118	0.0916600227355957
2	110.0079128742218	pulse	0	t		0.0	2.5	/experiments/AOT/AOT_stimuli/rescaled_final/0389_fw.mp4	0.0	133.68999004364014	
2	110.01606488227844	movie	1		243	0.0	2.5	/experiments/AOT/AOT_stimuli/rescaled_final/0389_fw.mp4	0.0	133.69814205169678	2.5079150199890137
2	111.60724377632141	pulse	1	t		0.0	2.5	/experiments/AOT/AOT_stimuli/rescaled_final/0389_fw.mp4	0.0	135.28932094573975	
2	112.52397990226746	fix_post	2		12	0.0	2.5	/experiments/AOT/AOT_stimuli/rescaled_final/0389_fw.mp4	0.0	136.2060570716858	0.10038495063781738
3	112.62436485290527	fix_pre	0		120	1.0	2.5	/experiments/AOT/AOT_stimuli/rescaled_final/0245_fw.mp4	0.0	136.3064420223236	1.000054121017456
3	113.2079827785492	pulse	0	t		1.0	2.5	/experiments/AOT/AOT_stimuli/rescaled_final/0245_fw.mp4	0.0	136.89005994796753	
3	113.62441897392273	movie	1		244	1.0	2.5	/experiments/AOT/AOT_stimuli/rescaled_final/0245_fw.mp4	0.0	137.30649614334106	2.500051975250244
3	114.80791997909546	pulse	1	t		1.0	2.5	/experiments/AOT/AOT_stimuli/rescaled_final/0245_fw.mp4	0.0	138.4899971485138	
3	116.12447094917297	fix_post	2		12	1.0	2.5	/experiments/AOT/AOT_stimuli/rescaled_final/0245_fw.mp4	0.0	139.8065481185913	0.09991598129272461
4	116.2243869304657	fix_pre	0		120	2.0	2.5	/experiments/AOT/AOT_stimuli/rescaled_final/1952_rv.mp4	0.0	139.90646409988403	0.9999940395355225
4	116.40787196159363	pulse	0	t		2.0	2.5	/experiments/AOT/AOT_stimuli/rescaled_final/1952_rv.mp4	0.0	140.08994913101196	
4	117.22438097000122	movie	1		244	2.0	2.5	/experiments/AOT/AOT_stimuli/rescaled_final/1952_rv.mp4	0.0	140.90645813941956	2.499979019165039
4	118.00785899162292	pulse	1	t		2.0	2.5	/experiments/AOT/AOT_stimuli/rescaled_final/1952_rv.mp4	0.0	141.68993616104126	
4	119.60639190673828	pulse	1	t		2.0	2.5	/experiments/AOT/AOT_stimuli/rescaled_final/1952_rv.mp4	0.0	143.28846907615662	
4	119.72435998916626	fix_post	2		12	2.0	2.5	/experiments/AOT/AOT_stimuli/rescaled_final/1952_rv.mp4	0.0	143.4064371585846	0.09998083114624023
5	119.8243408203125	fix_pre	0		120	3.0	2.5	/experiments/AOT/AOT_stimuli/rescaled_final/2004_rv.mp4	0.0	143.50641798973083	0.9999430179595947
5	120.8242838382721	movie	1		243	3.0	2.5	/experiments/AOT/AOT_stimuli/rescaled_final/2004_rv.mp4	0.0	144.50636100769043	2.5000691413879395
5	121.20823979377747	pulse	1	t		3.0	2.5	/experiments/AOT/AOT_stimuli/rescaled_final/2004_rv.mp4	0.0	144.8903169631958	
5	122.80784177780151	pulse	1	t		3.0	2.5	/experiments/AOT/AOT_stimuli/rescaled_final/2004_rv.mp4	0.0	146.48991894721985	
5	123.32435297966003	fix_post	2		12	3.0	2.5	/experiments/AOT/AOT_stimuli/rescaled_final/2004_rv.mp4	0.0	147.00643014907837	0.09996795654296875
6	123.424320936203	fix_pre	0		119	4.0	2.5	/experiments/AOT/AOT_stimuli/rescaled_final/0799_fw.mp4	0.0	147.10639810562134	0.9915828704833984
6	124.40779399871826	pulse	0	t		4.0	2.5	/experiments/AOT/AOT_stimuli/rescaled_final/0799_fw.mp4	0.0	148.0898711681366	
6	124.4159038066864	movie	1		245	4.0	2.5	/experiments/AOT/AOT_stimuli/rescaled_final/0799_fw.mp4	0.0	148.09798097610474	2.5084331035614014
6	126.00814080238342	pulse	1	t		4.0	2.5	/experiments/AOT/AOT_stimuli/rescaled_final/0799_fw.mp4	0.0	149.69021797180176	
6	126.9243369102478	fix_post	2		12	4.0	2.5	/experiments/AOT/AOT_stimuli/rescaled_final/0799_fw.mp4	0.0	150.60641407966614	0.09992098808288574
7	127.02425789833069	fix_pre	0		120	5.0	2.5	blank	1.0	150.70633506774902	1.0000290870666504
7	127.60776591300964	pulse	0	t		5.0	2.5	blank	1.0	151.28984308242798	
7	128.02428698539734	movie	1		300	5.0	2.5	blank	1.0	151.70636415481567	2.499969005584717
7	129.2077579498291	pulse	1	t		5.0	2.5	blank	1.0	152.88983511924744	
7	130.52425599098206	fix_post	2		12	5.0	2.5	blank	1.0	154.2063331604004	0.10002279281616211
8	130.62427878379822	fix_pre	0		120	6.0	2.5	/experiments/AOT/AOT_stimuli/rescaled_final/2008_rv.mp4	0.0	154.30635595321655	1.0001001358032227
8	130.80777382850647	pulse	0	t		6.0	2.5	/experiments/AOT/AOT_stimuli/rescaled_final/2008_rv.mp4	0.0	154.4898509979248	
8	131.62437891960144	movie	1		243	6.0	2.5	/experiments/AOT/AOT_stimuli/rescaled_final/2008_rv.mp4	0.0	155.30645608901978	2.500140905380249
8	132.4076738357544	pulse	1	t		6.0	2.5	/experiments/AOT/AOT_stimuli/rescaled_final/2008_rv.mp4	0.0	156.08975100517273	
8	134.00615882873535	pulse	1	t		6.0	2.5	/experiments/AOT/AOT_stimuli/rescaled_final/2008_rv.mp4	0.0	157.6882359981537	
8	134.1245198249817	fix_post	2		12	6.0	2.5	/experiments/AOT/AOT_stimuli/rescaled_final/2008_rv.mp4	0.0	157.80659699440002	0.09978008270263672
9	134.22429990768433	fix_pre	0		120	7.0	2.5	/experiments/AOT/AOT_stimuli/rescaled_final/0317_rv.mp4	0.0	157.90637707710266	1.0000050067901611
9	135.2243049144745	movie	1		244	7.0	2.5	/experiments/AOT/AOT_stimuli/rescaled_final/0317_rv.mp4	0.0	158.90638208389282	2.4998619556427
9	135.60749197006226	pulse	1	t		7.0	2.5	/experiments/AOT/AOT_stimuli/rescaled_final/0317_rv.mp4	0.0	159.2895691394806	
9	137.20769691467285	pulse	1	t		7.0	2.5	/experiments/AOT/AOT_stimuli/rescaled_final/0317_rv.mp4	0.0	160.8897740840912	
9	137.7241668701172	fix_post	2		12	7.0	2.5	/experiments/AOT/AOT_stimuli/rescaled_final/0317_rv.mp4	0.0	161.40624403953552	0.10001897811889648
10	137.82418584823608	fix_pre	0		119	8.0	2.5	/experiments/AOT/AOT_stimuli/rescaled_final/1220_fw.mp4	0.0	161.50626301765442	0.9917459487915039
10	138.80769181251526	pulse	0	t		8.0	2.5	/experiments/AOT/AOT_stimuli/rescaled_final/1220_fw.mp4	0.0	162.4897689819336	
10	138.8159317970276	movie	1		244	8.0	2.5	/experiments/AOT/AOT_stimuli/rescaled_final/1220_fw.mp4	0.0	162.49800896644592	2.508378028869629
10	140.40750885009766	pulse	1	t		8.0	2.5	/experiments/AOT/AOT_stimuli/rescaled_final/1220_fw.mp4	0.0	164.089586019516	
10	141.32430982589722	fix_post	2		12	8.0	2.5	/experiments/AOT/AOT_stimuli/rescaled_final/1220_fw.mp4	0.0	165.00638699531555	0.09996294975280762
11	141.42427277565002	fix_pre	0		120	9.0	2.5	/experiments/AOT/AOT_stimuli/rescaled_final/1908_rv.mp4	0.0	165.10634994506836	1.0000460147857666
11	142.00776886940002	pulse	0	t		9.0	2.5	/experiments/AOT/AOT_stimuli/rescaled_final/1908_rv.mp4	0.0	165.68984603881836	
11	142.4243187904358	movie	1		244	9.0	2.5	/experiments/AOT/AOT_stimuli/rescaled_final/1908_rv.mp4	0.0	166.10639595985413	2.4994900226593018
11	143.6072859764099	pulse	1	t		9.0	2.5	/experiments/AOT/AOT_stimuli/rescaled_final/1908_rv.mp4	0.0	167.28936314582825	
11	144.9238088130951	fix_post	2		12	9.0	2.5	/experiments/AOT/AOT_stimuli/rescaled_final/1908_rv.mp4	0.0	168.60588598251343	0.09998512268066406
12	145.02379393577576	fix_pre	0		120	10.0	2.5	/experiments/AOT/AOT_stimuli/rescaled_final/1911_rv.mp4	0.0	168.7058711051941	1.0001590251922607
12	145.2073268890381	pulse	0	t		10.0	2.5	/experiments/AOT/AOT_stimuli/rescaled_final/1911_rv.mp4	0.0	168.88940405845642	
12	146.02395296096802	movie	1		244	10.0	2.5	/experiments/AOT/AOT_stimuli/rescaled_final/1911_rv.mp4	0.0	169.70603013038635	2.500277042388916
12	146.80796194076538	pulse	1	t		10.0	2.5	/experiments/AOT/AOT_stimuli/rescaled_final/1911_rv.mp4	0.0	170.49003911018372	
12	148.40607500076294	pulse	1	t		10.0	2.5	/experiments/AOT/AOT_stimuli/rescaled_final/1911_rv.mp4	0.0	172.08815217018127	
12	148.52423000335693	fix_post	2		12	10.0	2.5	/experiments/AOT/AOT_stimuli/rescaled_final/1911_rv.mp4	0.0	172.20630717277527	0.09994888305664062
13	148.62417888641357	fix_pre	0		120	11.0	2.5	/experiments/AOT/AOT_stimuli/rescaled_final/1343_fw.mp4	0.0	172.3062560558319	1.000032901763916
13	149.6242117881775	movie	1		245	11.0	2.5	/experiments/AOT/AOT_stimuli/rescaled_final/1343_fw.mp4	0.0	173.30628895759583	2.499852180480957
13	150.00897789001465	pulse	1	t		11.0	2.5	/experiments/AOT/AOT_stimuli/rescaled_final/1343_fw.mp4	0.0	173.69105505943298	
13	151.60754895210266	pulse	1	t		11.0	2.5	/experiments/AOT/AOT_stimuli/rescaled_final/1343_fw.mp4	0.0	175.289626121521	
13	152.12406396865845	fix_post	2		12	11.0	2.5	/experiments/AOT/AOT_stimuli/rescaled_final/1343_fw.mp4	0.0	175.80614113807678	0.10005402565002441
14	152.22411799430847	fix_pre	0		119	12.0	2.5	/experiments/AOT/AOT_stimuli/rescaled_final/0038_fw.mp4	0.0	175.9061951637268	0.9916768074035645
14	153.20761680603027	pulse	0	t		12.0	2.5	/experiments/AOT/AOT_stimuli/rescaled_final/0038_fw.mp4	0.0	176.8896939754486	
14	153.21579480171204	movie	1		247	12.0	2.5	/experiments/AOT/AOT_stimuli/rescaled_final/0038_fw.mp4	0.0	176.89787197113037	2.508430004119873
14	154.80772399902344	pulse	1	t		12.0	2.5	/experiments/AOT/AOT_stimuli/rescaled_final/0038_fw.mp4	0.0	178.48980116844177	
14	155.7242248058319	fix_post	2		12	12.0	2.5	/experiments/AOT/AOT_stimuli/rescaled_final/0038_fw.mp4	0.0	179.40630197525024	0.099945068359375
15	155.82416987419128	fix_pre	0		120	13.0	2.5	/experiments/AOT/AOT_stimuli/rescaled_final/1522_rv.mp4	0.0	179.50624704360962	1.000046968460083
15	156.40760588645935	pulse	0	t		13.0	2.5	/experiments/AOT/AOT_stimuli/rescaled_final/1522_rv.mp4	0.0	180.08968305587769	
15	156.82421684265137	movie	1		244	13.0	2.5	/experiments/AOT/AOT_stimuli/rescaled_final/1522_rv.mp4	0.0	180.5062940120697	2.4999120235443115
15	158.00760889053345	pulse	1	t		13.0	2.5	/experiments/AOT/AOT_stimuli/rescaled_final/1522_rv.mp4	0.0	181.68968605995178	
15	159.32412886619568	fix_post	2		12	13.0	2.5	/experiments/AOT/AOT_stimuli/rescaled_final/1522_rv.mp4	0.0	183.006206035614	0.09993290901184082
16	159.42406177520752	fix_pre	0		120	14.0	2.5	blank	1.0	183.10613894462585	1.0000860691070557
16	159.6076238155365	pulse	0	t		14.0	2.5	blank	1.0	183.28970098495483	
16	160.42414784431458	movie	1		300	14.0	2.5	blank	1.0	184.1062250137329	2.5000159740448
16	161.20752477645874	pulse	1	t		14.0	2.5	blank	1.0	184.88960194587708	
16	162.8075749874115	pulse	1	t		14.0	2.5	blank	1.0	186.48965215682983	
16	162.92416381835938	fix_post	2		12	14.0	2.5	blank	1.0	186.6062409877777	0.09995508193969727
17	163.02411890029907	fix_pre	0		120	15.0	2.5	/experiments/AOT/AOT_stimuli/rescaled_final/1286_rv.mp4	0.0	186.7061960697174	1.0000040531158447
17	164.02412295341492	movie	1		243	15.0	2.5	/experiments/AOT/AOT_stimuli/rescaled_final/1286_rv.mp4	0.0	187.70620012283325	2.4999568462371826
17	164.40727996826172	pulse	1	t		15.0	2.5	/experiments/AOT/AOT_stimuli/rescaled_final/1286_rv.mp4	0.0	188.08935713768005	
17	166.00746893882751	pulse	1	t		15.0	2.5	/experiments/AOT/AOT_stimuli/rescaled_final/1286_rv.mp4	0.0	189.68954610824585	
17	166.5240797996521	fix_post	2		12	15.0	2.5	/experiments/AOT/AOT_stimuli/rescaled_final/1286_rv.mp4	0.0	190.20615696907043	0.09998607635498047
18	166.62406587600708	fix_pre	0		119	16.0	2.5	/experiments/AOT/AOT_stimuli/rescaled_final/1873_fw.mp4	0.0	190.30614304542542	0.9917030334472656
18	167.60760283470154	pulse	0	t		16.0	2.5	/experiments/AOT/AOT_stimuli/rescaled_final/1873_fw.mp4	0.0	191.28968000411987	
18	167.61576890945435	movie	1		248	16.0	2.5	/experiments/AOT/AOT_stimuli/rescaled_final/1873_fw.mp4	0.0	191.29784607887268	2.508370876312256
18	169.20703291893005	pulse	1	t		16.0	2.5	/experiments/AOT/AOT_stimuli/rescaled_final/1873_fw.mp4	0.0	192.8891100883484	
18	170.1241397857666	fix_post	2		12	16.0	2.5	/experiments/AOT/AOT_stimuli/rescaled_final/1873_fw.mp4	0.0	193.80621695518494	0.09993505477905273
19	170.22407484054565	fix_pre	0		120	17.0	2.5	/experiments/AOT/AOT_stimuli/rescaled_final/0226_rv.mp4	0.0	193.906152009964	1.0000791549682617
19	170.80747079849243	pulse	0	t		17.0	2.5	/experiments/AOT/AOT_stimuli/rescaled_final/0226_rv.mp4	0.0	194.48954796791077	
19	171.22415399551392	movie	1		246	17.0	2.5	/experiments/AOT/AOT_stimuli/rescaled_final/0226_rv.mp4	0.0	194.90623116493225	2.4998199939727783
19	172.407616853714	pulse	1	t		17.0	2.5	/experiments/AOT/AOT_stimuli/rescaled_final/0226_rv.mp4	0.0	196.08969402313232	
19	173.7239739894867	fix_post	2		12	17.0	2.5	/experiments/AOT/AOT_stimuli/rescaled_final/0226_rv.mp4	0.0	197.40605115890503	0.10009479522705078
20	173.82406878471375	fix_pre	0		120	18.0	2.5	/experiments/AOT/AOT_stimuli/rescaled_final/1528_rv.mp4	0.0	197.50614595413208	0.9999651908874512
20	174.00761485099792	pulse	0	t		18.0	2.5	/experiments/AOT/AOT_stimuli/rescaled_final/1528_rv.mp4	0.0	197.68969202041626	
20	174.8240339756012	movie	1		247	18.0	2.5	/experiments/AOT/AOT_stimuli/rescaled_final/1528_rv.mp4	0.0	198.50611114501953	2.500072956085205
20	175.60755491256714	pulse	1	t		18.0	2.5	/experiments/AOT/AOT_stimuli/rescaled_final/1528_rv.mp4	0.0	199.28963208198547	
20	177.20715188980103	pulse	1	t		18.0	2.5	/experiments/AOT/AOT_stimuli/rescaled_final/1528_rv.mp4	0.0	200.88922905921936	
20	177.3241069316864	fix_post	2		12	18.0	2.5	/experiments/AOT/AOT_stimuli/rescaled_final/1528_rv.mp4	0.0	201.00618410110474	0.09989786148071289
21	177.42400479316711	fix_pre	0		120	19.0	2.5	/experiments/AOT/AOT_stimuli/rescaled_final/1487_rv.mp4	0.0	201.10608196258545	1.0001070499420166
21	178.42411184310913	movie	1		243	19.0	2.5	/experiments/AOT/AOT_stimuli/rescaled_final/1487_rv.mp4	0.0	202.10618901252747	2.4999210834503174
21	178.80711698532104	pulse	1	t		19.0	2.5	/experiments/AOT/AOT_stimuli/rescaled_final/1487_rv.mp4	0.0	202.48919415473938	
21	180.40754079818726	pulse	1	t		19.0	2.5	/experiments/AOT/AOT_stimuli/rescaled_final/1487_rv.mp4	0.0	204.0896179676056	
21	180.92403292655945	fix_post	2		12	19.0	2.5	/experiments/AOT/AOT_stimuli/rescaled_final/1487_rv.mp4	0.0	204.60611009597778	0.09999799728393555
22	181.02403092384338	fix_pre	0		119	20.0	2.5	/experiments/AOT/AOT_stimuli/rescaled_final/1063_rv.mp4	0.0	204.70610809326172	0.9916319847106934
22	182.00755882263184	pulse	0	t		20.0	2.5	/experiments/AOT/AOT_stimuli/rescaled_final/1063_rv.mp4	0.0	205.68963599205017	
22	182.01566290855408	movie	1		246	20.0	2.5	/experiments/AOT/AOT_stimuli/rescaled_final/1063_rv.mp4	0.0	205.6977400779724	2.5083370208740234
22	183.6070158481598	pulse	1	t		20.0	2.5	/experiments/AOT/AOT_stimuli/rescaled_final/1063_rv.mp4	0.0	207.28909301757812	
22	184.5239999294281	fix_post	2		12	20.0	2.5	/experiments/AOT/AOT_stimuli/rescaled_final/1063_rv.mp4	0.0	208.20607709884644	0.10002803802490234
23	184.624027967453	fix_pre	0		120	21.0	2.5	blank	1.0	208.30610513687134	0.9999909400939941
23	185.2075319290161	pulse	0	t		21.0	2.5	blank	1.0	208.88960909843445	
23	185.624018907547	movie	1		300	21.0	2.5	blank	1.0	209.30609607696533	2.499959945678711
23	186.80745697021484	pulse	1	t		21.0	2.5	blank	1.0	210.48953413963318	
23	188.1239788532257	fix_post	2		12	21.0	2.5	blank	1.0	211.80605602264404	0.10009312629699707
24	188.2240719795227	fix_pre	0		120	22.0	2.5	/experiments/AOT/AOT_stimuli/rescaled_final/0829_rv.mp4	0.0	211.90614914894104	0.9999098777770996
24	188.40762281417847	pulse	0	t		22.0	2.5	/experiments/AOT/AOT_stimuli/rescaled_final/0829_rv.mp4	0.0	212.0896999835968	
24	189.2239818572998	movie	1		243	22.0	2.5	/experiments/AOT/AOT_stimuli/rescaled_final/0829_rv.mp4	0.0	212.90605902671814	2.5000081062316895
24	190.0074999332428	pulse	1	t		22.0	2.5	/experiments/AOT/AOT_stimuli/rescaled_final/0829_rv.mp4	0.0	213.68957710266113	
24	191.60573887825012	pulse	1	t		22.0	2.5	/experiments/AOT/AOT_stimuli/rescaled_final/0829_rv.mp4	0.0	215.28781604766846	
24	191.7239899635315	fix_post	2		12	22.0	2.5	/experiments/AOT/AOT_stimuli/rescaled_final/0829_rv.mp4	0.0	215.40606713294983	0.10015702247619629
25	191.8241469860077	fix_pre	0		120	23.0	2.5	/experiments/AOT/AOT_stimuli/rescaled_final/0133_rv.mp4	0.0	215.50622415542603	0.9999489784240723
25	192.82409596443176	movie	1		243	23.0	2.5	/experiments/AOT/AOT_stimuli/rescaled_final/0133_rv.mp4	0.0	216.5061731338501	2.499879837036133
25	193.2070438861847	pulse	1	t		23.0	2.5	/experiments/AOT/AOT_stimuli/rescaled_final/0133_rv.mp4	0.0	216.88912105560303	
25	194.80750799179077	pulse	1	t		23.0	2.5	/experiments/AOT/AOT_stimuli/rescaled_final/0133_rv.mp4	0.0	218.4895851612091	
25	195.3239758014679	fix_post	2		12	23.0	2.5	/experiments/AOT/AOT_stimuli/rescaled_final/0133_rv.mp4	0.0	219.00605297088623	0.09994816780090332
26	195.4239239692688	fix_pre	0		119	24.0	2.5	/experiments/AOT/AOT_stimuli/rescaled_final/0722_rv.mp4	0.0	219.10600113868713	0.9916799068450928
26	196.40741896629333	pulse	0	t		24.0	2.5	/experiments/AOT/AOT_stimuli/rescaled_final/0722_rv.mp4	0.0	220.08949613571167	
26	196.4156038761139	movie	1		246	24.0	2.5	/experiments/AOT/AOT_stimuli/rescaled_final/0722_rv.mp4	0.0	220.09768104553223	2.508312940597534
26	198.00700497627258	pulse	1	t		24.0	2.5	/experiments/AOT/AOT_stimuli/rescaled_final/0722_rv.mp4	0.0	221.68908214569092	
26	198.92391681671143	fix_post	2		11	24.0	2.5	/experiments/AOT/AOT_stimuli/rescaled_final/0722_rv.mp4	0.0	222.60599398612976	0.10004711151123047
27	199.02396392822266	fix_pre	0		120	25.0	2.5	/experiments/AOT/AOT_stimuli/rescaled_final/1793_rv.mp4	0.0	222.706041097641	1.0000889301300049
27	199.60747480392456	pulse	0	t		25.0	2.5	/experiments/AOT/AOT_stimuli/rescaled_final/1793_rv.mp4	0.0	223.2895519733429	
27	200.02405285835266	movie	1		245	25.0	2.5	/experiments/AOT/AOT_stimuli/rescaled_final/1793_rv.mp4	0.0	223.706130027771	2.499709129333496
27	201.2070598602295	pulse	1	t		25.0	2.5	/experiments/AOT/AOT_stimuli/rescaled_final/1793_rv.mp4	0.0	224.88913702964783	
27	202.52376198768616	fix_post	2		12	25.0	2.5	/experiments/AOT/AOT_stimuli/rescaled_final/1793_rv.mp4	0.0	226.2058391571045	0.09997296333312988
28	202.6237349510193	fix_pre	0		120	26.0	2.5	blank	1.0	226.30581212043762	1.000321865081787
28	202.8072760105133	pulse	0	t		26.0	2.5	blank	1.0	226.48935317993164	
28	203.62405681610107	movie	1		300	26.0	2.5	blank	1.0	227.3061339855194	2.499894142150879
28	204.40745282173157	pulse	1	t		26.0	2.5	blank	1.0	228.0895299911499	
28	206.0074110031128	pulse	1	t		26.0	2.5	blank	1.0	229.68948817253113	
28	206.12395095825195	fix_post	2		12	26.0	2.5	blank	1.0	229.8060281276703	0.10003900527954102
29	206.2239899635315	fix_pre	0		120	27.0	2.5	/experiments/AOT/AOT_stimuli/rescaled_final/0317_fw.mp4	0.0	229.90606713294983	1.0000009536743164
29	207.2239909172058	movie	1		244	27.0	2.5	/experiments/AOT/AOT_stimuli/rescaled_final/0317_fw.mp4	0.0	230.90606808662415	2.499890089035034
29	207.60712599754333	pulse	1	t		27.0	2.5	/experiments/AOT/AOT_stimuli/rescaled_final/0317_fw.mp4	0.0	231.28920316696167	
29	209.20734786987305	pulse	1	t		27.0	2.5	/experiments/AOT/AOT_stimuli/rescaled_final/0317_fw.mp4	0.0	232.88942503929138	
29	209.72388100624084	fix_post	2		12	27.0	2.5	/experiments/AOT/AOT_stimuli/rescaled_final/0317_fw.mp4	0.0	233.40595817565918	0.10008096694946289
30	209.8239619731903	fix_pre	0		119	28.0	2.5	/experiments/AOT/AOT_stimuli/rescaled_final/1765_rv.mp4	0.0	233.50603914260864	0.9916448593139648
30	210.80739998817444	pulse	0	t		28.0	2.5	/experiments/AOT/AOT_stimuli/rescaled_final/1765_rv.mp4	0.0	234.48947715759277	
30	210.81560683250427	movie	1		245	28.0	2.5	/experiments/AOT/AOT_stimuli/rescaled_final/1765_rv.mp4	0.0	234.4976840019226	2.508319139480591
30	212.40683698654175	pulse	1	t		28.0	2.5	/experiments/AOT/AOT_stimuli/rescaled_final/1765_rv.mp4	0.0	236.08891415596008	
30	213.32392597198486	fix_post	2		12	28.0	2.5	/experiments/AOT/AOT_stimuli/rescaled_final/1765_rv.mp4	0.0	237.0060031414032	0.0998690128326416
31	213.4237949848175	fix_pre	0		120	29.0	2.5	/experiments/AOT/AOT_stimuli/rescaled_final/0133_fw.mp4	0.0	237.10587215423584	1.0001327991485596
31	214.00731086730957	pulse	0	t		29.0	2.5	/experiments/AOT/AOT_stimuli/rescaled_final/0133_fw.mp4	0.0	237.6893880367279	
31	214.42392778396606	movie	1		245	29.0	2.5	/experiments/AOT/AOT_stimuli/rescaled_final/0133_fw.mp4	0.0	238.1060049533844	2.4998891353607178
31	215.60738396644592	pulse	1	t		29.0	2.5	/experiments/AOT/AOT_stimuli/rescaled_final/0133_fw.mp4	0.0	239.28946113586426	
31	216.92381691932678	fix_post	2		12	29.0	2.5	/experiments/AOT/AOT_stimuli/rescaled_final/0133_fw.mp4	0.0	240.60589408874512	0.10000991821289062
32	217.02382683753967	fix_pre	0		120	30.0	2.5	/experiments/AOT/AOT_stimuli/rescaled_final/0038_rv.mp4	0.0	240.705904006958	0.9999840259552002
32	217.20741295814514	pulse	0	t		30.0	2.5	/experiments/AOT/AOT_stimuli/rescaled_final/0038_rv.mp4	0.0	240.88949012756348	
32	218.02381086349487	movie	1		245	30.0	2.5	/experiments/AOT/AOT_stimuli/rescaled_final/0038_rv.mp4	0.0	241.7058880329132	2.5001120567321777
32	218.80725288391113	pulse	1	t		30.0	2.5	/experiments/AOT/AOT_stimuli/rescaled_final/0038_rv.mp4	0.0	242.48933005332947	
32	220.40580487251282	pulse	1	t		30.0	2.5	/experiments/AOT/AOT_stimuli/rescaled_final/0038_rv.mp4	0.0	244.08788204193115	
32	220.52392292022705	fix_post	2		12	30.0	2.5	/experiments/AOT/AOT_stimuli/rescaled_final/0038_rv.mp4	0.0	244.20600008964539	0.0998830795288086
33	220.62380599975586	fix_pre	0		120	31.0	2.5	/experiments/AOT/AOT_stimuli/rescaled_final/1924_rv.mp4	0.0	244.3058831691742	1.0000858306884766
33	221.62389183044434	movie	1		246	31.0	2.5	/experiments/AOT/AOT_stimuli/rescaled_final/1924_rv.mp4	0.0	245.30596899986267	2.4994421005249023
33	222.00692796707153	pulse	1	t		31.0	2.5	/experiments/AOT/AOT_stimuli/rescaled_final/1924_rv.mp4	0.0	245.68900513648987	
33	223.60736989974976	pulse	1	t		31.0	2.5	/experiments/AOT/AOT_stimuli/rescaled_final/1924_rv.mp4	0.0	247.2894470691681	
33	224.12333393096924	fix_post	2		12	31.0	2.5	/experiments/AOT/AOT_stimuli/rescaled_final/1924_rv.mp4	0.0	247.80541110038757	0.1005558967590332
34	224.22388982772827	fix_pre	0		119	32.0	2.5	/experiments/AOT/AOT_stimuli/rescaled_final/1879_rv.mp4	0.0	247.9059669971466	0.9915251731872559
34	225.20725178718567	pulse	0	t		32.0	2.5	/experiments/AOT/AOT_stimuli/rescaled_final/1879_rv.mp4	0.0	248.889328956604	
34	225.21541500091553	movie	1		245	32.0	2.5	/experiments/AOT/AOT_stimuli/rescaled_final/1879_rv.mp4	0.0	248.89749217033386	2.5084187984466553
34	226.80692100524902	pulse	1	t		32.0	2.5	/experiments/AOT/AOT_stimuli/rescaled_final/1879_rv.mp4	0.0	250.48899817466736	
34	227.72383379936218	fix_post	2		12	32.0	2.5	/experiments/AOT/AOT_stimuli/rescaled_final/1879_rv.mp4	0.0	251.40591096878052	0.09996604919433594
35	227.82379984855652	fix_pre	0		120	33.0	2.5	blank	1.0	251.50587701797485	0.9999301433563232
35	228.40732383728027	pulse	0	t		33.0	2.5	blank	1.0	252.0894010066986	
35	228.82372999191284	movie	1		300	33.0	2.5	blank	1.0	252.50580716133118	2.5000698566436768
35	230.0072968006134	pulse	1	t		33.0	2.5	blank	1.0	253.68937397003174	
35	231.32379984855652	fix_post	2		12	33.0	2.5	blank	1.0	255.00587701797485	0.1000220775604248
36	231.42382192611694	fix_pre	0		120	34.0	2.5	/experiments/AOT/AOT_stimuli/rescaled_final/0371_fw.mp4	0.0	255.10589909553528	1.0000159740447998
36	231.6072609424591	pulse	0	t		34.0	2.5	/experiments/AOT/AOT_stimuli/rescaled_final/0371_fw.mp4	0.0	255.28933811187744	
36	232.42383790016174	movie	1		246	34.0	2.5	/experiments/AOT/AOT_stimuli/rescaled_final/0371_fw.mp4	0.0	256.1059150695801	2.499936103820801
36	233.2072877883911	pulse	1	t		34.0	2.5	/experiments/AOT/AOT_stimuli/rescaled_final/0371_fw.mp4	0.0	256.88936495780945	
36	234.80582690238953	pulse	1	t		34.0	2.5	/experiments/AOT/AOT_stimuli/rescaled_final/0371_fw.mp4	0.0	258.48790407180786	
36	234.92377400398254	fix_post	2		12	34.0	2.5	/experiments/AOT/AOT_stimuli/rescaled_final/0371_fw.mp4	0.0	258.6058511734009	0.09995698928833008
37	235.02373099327087	fix_pre	0		120	35.0	2.5	/experiments/AOT/AOT_stimuli/rescaled_final/0024_fw.mp4	0.0	258.7058081626892	1.000020980834961
37	236.02375197410583	movie	1		247	35.0	2.5	/experiments/AOT/AOT_stimuli/rescaled_final/0024_fw.mp4	0.0	259.70582914352417	2.5000720024108887
37	236.40694284439087	pulse	1	t		35.0	2.5	/experiments/AOT/AOT_stimuli/rescaled_final/0024_fw.mp4	0.0	260.0890200138092	
37	238.00724577903748	pulse	1	t		35.0	2.5	/experiments/AOT/AOT_stimuli/rescaled_final/0024_fw.mp4	0.0	261.6893229484558	
37	238.52382397651672	fix_post	2		12	35.0	2.5	/experiments/AOT/AOT_stimuli/rescaled_final/0024_fw.mp4	0.0	262.20590114593506	0.09989190101623535
38	238.62371587753296	fix_pre	0		119	36.0	2.5	/experiments/AOT/AOT_stimuli/rescaled_final/0656_rv.mp4	0.0	262.3057930469513	0.9916930198669434
38	239.60722184181213	pulse	0	t		36.0	2.5	/experiments/AOT/AOT_stimuli/rescaled_final/0656_rv.mp4	0.0	263.28929901123047	
38	239.6154088973999	movie	1		244	36.0	2.5	/experiments/AOT/AOT_stimuli/rescaled_final/0656_rv.mp4	0.0	263.29748606681824	2.5082249641418457
38	241.20689582824707	pulse	1	t		36.0	2.5	/experiments/AOT/AOT_stimuli/rescaled_final/0656_rv.mp4	0.0	264.8889729976654	
38	242.12363386154175	fix_post	2		12	36.0	2.5	/experiments/AOT/AOT_stimuli/rescaled_final/0656_rv.mp4	0.0	265.8057110309601	0.10013198852539062
39	242.22376585006714	fix_pre	0		120	37.0	2.5	/experiments/AOT/AOT_stimuli/rescaled_final/1285_fw.mp4	0.0	265.9058430194855	0.9999160766601562
39	242.8072488307953	pulse	0	t		37.0	2.5	/experiments/AOT/AOT_stimuli/rescaled_final/1285_fw.mp4	0.0	266.4893260002136	
39	243.2236819267273	movie	1		246	37.0	2.5	/experiments/AOT/AOT_stimuli/rescaled_final/1285_fw.mp4	0.0	266.90575909614563	2.500093936920166
39	244.4072937965393	pulse	1	t		37.0	2.5	/experiments/AOT/AOT_stimuli/rescaled_final/1285_fw.mp4	0.0	268.08937096595764	
39	245.72377586364746	fix_post	2		12	37.0	2.5	/experiments/AOT/AOT_stimuli/rescaled_final/1285_fw.mp4	0.0	269.4058530330658	0.09994792938232422
40	245.82372379302979	fix_pre	0		120	38.0	2.5	/experiments/AOT/AOT_stimuli/rescaled_final/1057_fw.mp4	0.0	269.5058009624481	0.9999971389770508
40	246.007150888443	pulse	0	t		38.0	2.5	/experiments/AOT/AOT_stimuli/rescaled_final/1057_fw.mp4	0.0	269.6892280578613	
40	246.82372093200684	movie	1		243	38.0	2.5	/experiments/AOT/AOT_stimuli/rescaled_final/1057_fw.mp4	0.0	270.50579810142517	2.499987840652466
40	247.60717678070068	pulse	1	t		38.0	2.5	/experiments/AOT/AOT_stimuli/rescaled_final/1057_fw.mp4	0.0	271.289253950119	
40	249.2055308818817	pulse	1	t		38.0	2.5	/experiments/AOT/AOT_stimuli/rescaled_final/1057_fw.mp4	0.0	272.88760805130005	
40	249.3237087726593	fix_post	2		12	38.0	2.5	/experiments/AOT/AOT_stimuli/rescaled_final/1057_fw.mp4	0.0	273.00578594207764	0.10004019737243652
41	249.42374897003174	fix_pre	0		120	39.0	2.5	/experiments/AOT/AOT_stimuli/rescaled_final/0456_rv.mp4	0.0	273.1058261394501	0.9998979568481445
41	250.42364692687988	movie	1		243	39.0	2.5	/experiments/AOT/AOT_stimuli/rescaled_final/0456_rv.mp4	0.0	274.1057240962982	2.500040054321289
41	250.80685687065125	pulse	1	t		39.0	2.5	/experiments/AOT/AOT_stimuli/rescaled_final/0456_rv.mp4	0.0	274.4889340400696	
41	252.40720891952515	pulse	1	t		39.0	2.5	/experiments/AOT/AOT_stimuli/rescaled_final/0456_rv.mp4	0.0	276.0892860889435	
41	252.92368698120117	fix_post	2		12	39.0	2.5	/experiments/AOT/AOT_stimuli/rescaled_final/0456_rv.mp4	0.0	276.6057641506195	0.09994387626647949
42	253.02363085746765	fix_pre	0		119	40.0	2.5	blank	1.0	276.705708026886	0.9917781352996826
42	254.00742387771606	pulse	0	t		40.0	2.5	blank	1.0	277.6895010471344	
42	254.01540899276733	movie	1		301	40.0	2.5	blank	1.0	277.69748616218567	2.508262872695923
42	255.6067337989807	pulse	1	t		40.0	2.5	blank	1.0	279.28881096839905	
42	256.52367186546326	fix_post	2		12	40.0	2.5	blank	1.0	280.2057490348816	0.10000395774841309
43	256.62367582321167	fix_pre	0		120	41.0	2.5	/experiments/AOT/AOT_stimuli/rescaled_final/0242_fw.mp4	0.0	280.30575299263	1.0000879764556885
43	257.2068657875061	pulse	0	t		41.0	2.5	/experiments/AOT/AOT_stimuli/rescaled_final/0242_fw.mp4	0.0	280.88894295692444	
43	257.62376379966736	movie	1		247	41.0	2.5	/experiments/AOT/AOT_stimuli/rescaled_final/0242_fw.mp4	0.0	281.3058409690857	2.499993085861206
43	258.8071048259735	pulse	1	t		41.0	2.5	/experiments/AOT/AOT_stimuli/rescaled_final/0242_fw.mp4	0.0	282.48918199539185	
43	260.12375688552856	fix_post	2		12	41.0	2.5	/experiments/AOT/AOT_stimuli/rescaled_final/0242_fw.mp4	0.0	283.8058340549469	0.0999290943145752
44	260.22368597984314	fix_pre	0		120	42.0	2.5	/experiments/AOT/AOT_stimuli/rescaled_final/0372_rv.mp4	0.0	283.9057631492615	0.9999408721923828
44	260.40716791152954	pulse	0	t		42.0	2.5	/experiments/AOT/AOT_stimuli/rescaled_final/0372_rv.mp4	0.0	284.0892450809479	
44	261.2236268520355	movie	1		245	42.0	2.5	/experiments/AOT/AOT_stimuli/rescaled_final/0372_rv.mp4	0.0	284.90570402145386	2.4999639987945557
44	262.0070598125458	pulse	1	t		42.0	2.5	/experiments/AOT/AOT_stimuli/rescaled_final/0372_rv.mp4	0.0	285.6891369819641	
44	263.60557889938354	pulse	1	t		42.0	2.5	/experiments/AOT/AOT_stimuli/rescaled_final/0372_rv.mp4	0.0	287.2876560688019	
44	263.7235908508301	fix_post	2		12	42.0	2.5	/experiments/AOT/AOT_stimuli/rescaled_final/0372_rv.mp4	0.0	287.4056680202484	0.09997010231018066
45	263.82356095314026	fix_pre	0		120	43.0	2.5	/experiments/AOT/AOT_stimuli/rescaled_final/1911_rv.mp4	0.0	287.5056381225586	1.0000519752502441
45	264.8236129283905	movie	1		243	43.0	2.5	/experiments/AOT/AOT_stimuli/rescaled_final/1911_rv.mp4	0.0	288.50569009780884	2.5000078678131104
45	265.20714592933655	pulse	1	t		43.0	2.5	/experiments/AOT/AOT_stimuli/rescaled_final/1911_rv.mp4	0.0	288.8892230987549	
45	266.80703687667847	pulse	1	t		43.0	2.5	/experiments/AOT/AOT_stimuli/rescaled_final/1911_rv.mp4	0.0	290.4891140460968	
45	267.3236207962036	fix_post	2		12	43.0	2.5	/experiments/AOT/AOT_stimuli/rescaled_final/1911_rv.mp4	0.0	291.00569796562195	0.09998917579650879
46	267.4236099720001	fix_pre	0		119	44.0	2.5	/experiments/AOT/AOT_stimuli/rescaled_final/1578_fw.mp4	0.0	291.10568714141846	0.9915978908538818
46	268.40704584121704	pulse	0	t		44.0	2.5	/experiments/AOT/AOT_stimuli/rescaled_final/1578_fw.mp4	0.0	292.0891230106354	
46	268.415207862854	movie	1		249	44.0	2.5	/experiments/AOT/AOT_stimuli/rescaled_final/1578_fw.mp4	0.0	292.09728503227234	2.508413076400757
46	270.0066738128662	pulse	1	t		44.0	2.5	/experiments/AOT/AOT_stimuli/rescaled_final/1578_fw.mp4	0.0	293.68875098228455	
46	270.92362093925476	fix_post	2		12	44.0	2.5	/experiments/AOT/AOT_stimuli/rescaled_final/1578_fw.mp4	0.0	294.6056981086731	0.09997200965881348
47	271.0235929489136	fix_pre	0		120	45.0	2.5	/experiments/AOT/AOT_stimuli/rescaled_final/1332_rv.mp4	0.0	294.7056701183319	0.9999940395355225
47	271.60702085494995	pulse	0	t		45.0	2.5	/experiments/AOT/AOT_stimuli/rescaled_final/1332_rv.mp4	0.0	295.2890980243683	
47	272.0235869884491	movie	1		243	45.0	2.5	/experiments/AOT/AOT_stimuli/rescaled_final/1332_rv.mp4	0.0	295.70566415786743	2.5000109672546387
47	273.20717787742615	pulse	1	t		45.0	2.5	/experiments/AOT/AOT_stimuli/rescaled_final/1332_rv.mp4	0.0	296.8892550468445	
47	274.52359795570374	fix_post	2		12	45.0	2.5	/experiments/AOT/AOT_stimuli/rescaled_final/1332_rv.mp4	0.0	298.20567512512207	0.10002803802490234
48	274.62362599372864	fix_pre	0		120	46.0	2.5	/experiments/AOT/AOT_stimuli/rescaled_final/2133_rv.mp4	0.0	298.305703163147	0.9999740123748779
48	274.8070738315582	pulse	0	t		46.0	2.5	/experiments/AOT/AOT_stimuli/rescaled_final/2133_rv.mp4	0.0	298.48915100097656	
48	275.6236000061035	movie	1		243	46.0	2.5	/experiments/AOT/AOT_stimuli/rescaled_final/2133_rv.mp4	0.0	299.30567717552185	2.499959945678711
48	276.4070408344269	pulse	1	t		46.0	2.5	/experiments/AOT/AOT_stimuli/rescaled_final/2133_rv.mp4	0.0	300.0891180038452	
48	278.00531792640686	pulse	1	t		46.0	2.5	/experiments/AOT/AOT_stimuli/rescaled_final/2133_rv.mp4	0.0	301.6873950958252	
48	278.1235599517822	fix_post	2		12	46.0	2.5	/experiments/AOT/AOT_stimuli/rescaled_final/2133_rv.mp4	0.0	301.80563712120056	0.09988999366760254
49	278.22344994544983	fix_pre	0		120	47.0	2.5	/experiments/AOT/AOT_stimuli/rescaled_final/0878_fw.mp4	0.0	301.90552711486816	1.0000288486480713
49	279.2234787940979	movie	1		243	47.0	2.5	/experiments/AOT/AOT_stimuli/rescaled_final/0878_fw.mp4	0.0	302.90555596351624	2.4999990463256836
49	279.60801696777344	pulse	1	t		47.0	2.5	/experiments/AOT/AOT_stimuli/rescaled_final/0878_fw.mp4	0.0	303.2900941371918	
49	281.2070939540863	pulse	1	t		47.0	2.5	/experiments/AOT/AOT_stimuli/rescaled_final/0878_fw.mp4	0.0	304.88917112350464	
49	281.7234778404236	fix_post	2		12	47.0	2.5	/experiments/AOT/AOT_stimuli/rescaled_final/0878_fw.mp4	0.0	305.4055550098419	0.10000109672546387
50	281.82347893714905	fix_pre	0		119	48.0	2.5	/experiments/AOT/AOT_stimuli/rescaled_final/0589_fw.mp4	0.0	305.5055561065674	0.9917318820953369
50	282.8069818019867	pulse	0	t		48.0	2.5	/experiments/AOT/AOT_stimuli/rescaled_final/0589_fw.mp4	0.0	306.48905897140503	
50	282.8152108192444	movie	1		250	48.0	2.5	/experiments/AOT/AOT_stimuli/rescaled_final/0589_fw.mp4	0.0	306.4972879886627	2.508347988128662
50	284.40692496299744	pulse	1	t		48.0	2.5	/experiments/AOT/AOT_stimuli/rescaled_final/0589_fw.mp4	0.0	308.08900213241577	
50	285.32355880737305	fix_post	2		12	48.0	2.5	/experiments/AOT/AOT_stimuli/rescaled_final/0589_fw.mp4	0.0	309.0056359767914	0.09996604919433594
51	285.4235248565674	fix_pre	0		120	49.0	2.5	blank	1.0	309.1056020259857	1.0001311302185059
51	286.008407831192	pulse	0	t		49.0	2.5	blank	1.0	309.69048500061035	
51	286.4236559867859	movie	1		300	49.0	2.5	blank	1.0	310.1057331562042	2.4998908042907715
51	287.6070280075073	pulse	1	t		49.0	2.5	blank	1.0	311.28910517692566	
51	288.92354679107666	fix_post	2		12	49.0	2.5	blank	1.0	312.605623960495	0.09997701644897461
52	289.02352380752563	fix_pre	0		120	50.0	2.5	/experiments/AOT/AOT_stimuli/rescaled_final/1571_fw.mp4	0.0	312.70560097694397	0.9999251365661621
52	289.2069230079651	pulse	0	t		50.0	2.5	/experiments/AOT/AOT_stimuli/rescaled_final/1571_fw.mp4	0.0	312.8890001773834	
52	290.0234489440918	movie	1		243	50.0	2.5	/experiments/AOT/AOT_stimuli/rescaled_final/1571_fw.mp4	0.0	313.70552611351013	2.5000369548797607
52	290.807030916214	pulse	1	t		50.0	2.5	/experiments/AOT/AOT_stimuli/rescaled_final/1571_fw.mp4	0.0	314.4891080856323	
52	292.4056808948517	pulse	1	t		50.0	2.5	/experiments/AOT/AOT_stimuli/rescaled_final/1571_fw.mp4	0.0	316.08775806427	
52	292.52348589897156	fix_post	2		12	50.0	2.5	/experiments/AOT/AOT_stimuli/rescaled_final/1571_fw.mp4	0.0	316.2055630683899	0.10000896453857422
53	292.62349486351013	fix_pre	0		120	51.0	2.5	/experiments/AOT/AOT_stimuli/rescaled_final/0500_rv.mp4	0.0	316.30557203292847	0.9999990463256836
53	293.6234939098358	movie	1		243	51.0	2.5	/experiments/AOT/AOT_stimuli/rescaled_final/0500_rv.mp4	0.0	317.30557107925415	2.4999589920043945
53	294.00695180892944	pulse	1	t		51.0	2.5	/experiments/AOT/AOT_stimuli/rescaled_final/0500_rv.mp4	0.0	317.6890289783478	
53	295.6070628166199	pulse	1	t		51.0	2.5	/experiments/AOT/AOT_stimuli/rescaled_final/0500_rv.mp4	0.0	319.2891399860382	
53	296.1234529018402	fix_post	2		12	51.0	2.5	/experiments/AOT/AOT_stimuli/rescaled_final/0500_rv.mp4	0.0	319.80553007125854	0.10003209114074707
54	296.22348499298096	fix_pre	0		119	52.0	2.5	/experiments/AOT/AOT_stimuli/rescaled_final/1848_rv.mp4	0.0	319.9055621623993	0.9915978908538818
54	297.20694398880005	pulse	0	t		52.0	2.5	/experiments/AOT/AOT_stimuli/rescaled_final/1848_rv.mp4	0.0	320.8890211582184	
54	297.21508288383484	movie	1		242	52.0	2.5	/experiments/AOT/AOT_stimuli/rescaled_final/1848_rv.mp4	0.0	320.8971600532532	2.5084140300750732
54	298.8067858219147	pulse	1	t		52.0	2.5	/experiments/AOT/AOT_stimuli/rescaled_final/1848_rv.mp4	0.0	322.488862991333	
54	299.7234969139099	fix_post	2		12	52.0	2.5	/experiments/AOT/AOT_stimuli/rescaled_final/1848_rv.mp4	0.0	323.40557408332825	0.09995794296264648
55	299.82345485687256	fix_pre	0		120	53.0	2.5	/experiments/AOT/AOT_stimuli/rescaled_final/0405_rv.mp4	0.0	323.5055320262909	0.9999570846557617
55	300.40690779685974	pulse	0	t		53.0	2.5	/experiments/AOT/AOT_stimuli/rescaled_final/0405_rv.mp4	0.0	324.0889849662781	
55	300.8234119415283	movie	1		243	53.0	2.5	/experiments/AOT/AOT_stimuli/rescaled_final/0405_rv.mp4	0.0	324.50548911094666	2.500066041946411
55	302.00693798065186	pulse	1	t		53.0	2.5	/experiments/AOT/AOT_stimuli/rescaled_final/0405_rv.mp4	0.0	325.6890151500702	
55	303.32347798347473	fix_post	2		12	53.0	2.5	/experiments/AOT/AOT_stimuli/rescaled_final/0405_rv.mp4	0.0	327.00555515289307	0.09996485710144043
56	303.4234428405762	fix_pre	0		120	54.0	2.5	/experiments/AOT/AOT_stimuli/rescaled_final/1037_rv.mp4	0.0	327.1055200099945	1.000014066696167
56	303.6068699359894	pulse	0	t		54.0	2.5	/experiments/AOT/AOT_stimuli/rescaled_final/1037_rv.mp4	0.0	327.2889471054077	
56	304.42345690727234	movie	1		244	54.0	2.5	/experiments/AOT/AOT_stimuli/rescaled_final/1037_rv.mp4	0.0	328.1055340766907	2.500025987625122
56	305.2069218158722	pulse	1	t		54.0	2.5	/experiments/AOT/AOT_stimuli/rescaled_final/1037_rv.mp4	0.0	328.8889989852905	
56	306.80560779571533	pulse	1	t		54.0	2.5	/experiments/AOT/AOT_stimuli/rescaled_final/1037_rv.mp4	0.0	330.48768496513367	
56	306.92348289489746	fix_post	2		12	54.0	2.5	/experiments/AOT/AOT_stimuli/rescaled_final/1037_rv.mp4	0.0	330.6055600643158	0.100006103515625
57	307.0234889984131	fix_pre	0		120	55.0	2.5	/experiments/AOT/AOT_stimuli/rescaled_final/1055_rv.mp4	0.0	330.7055661678314	1.0000088214874268
57	308.0234978199005	movie	1		243	55.0	2.5	/experiments/AOT/AOT_stimuli/rescaled_final/1055_rv.mp4	0.0	331.70557498931885	2.499912977218628
57	308.4068088531494	pulse	1	t		55.0	2.5	/experiments/AOT/AOT_stimuli/rescaled_final/1055_rv.mp4	0.0	332.08888602256775	
57	310.0068759918213	pulse	1	t		55.0	2.5	/experiments/AOT/AOT_stimuli/rescaled_final/1055_rv.mp4	0.0	333.6889531612396	
57	310.52341079711914	fix_post	2		12	55.0	2.5	/experiments/AOT/AOT_stimuli/rescaled_final/1055_rv.mp4	0.0	334.2054879665375	0.09993219375610352
58	310.62334299087524	fix_pre	0		119	56.0	2.5	blank	1.0	334.3054201602936	0.9917488098144531
58	311.60651779174805	pulse	0	t		56.0	2.5	blank	1.0	335.2885949611664	
58	311.6150918006897	movie	1		301	56.0	2.5	blank	1.0	335.29716897010803	2.508519172668457
58	313.20663595199585	pulse	1	t		56.0	2.5	blank	1.0	336.8887131214142	
58	314.12361097335815	fix_post	2		12	56.0	2.5	blank	1.0	337.8056881427765	0.09965395927429199
59	314.22326493263245	fix_pre	0		119	57.0	2.5	/experiments/AOT/AOT_stimuli/rescaled_final/0663_fw.mp4	0.0	337.9053421020508	1.0001649856567383
59	314.8072040081024	pulse	0	t		57.0	2.5	/experiments/AOT/AOT_stimuli/rescaled_final/0663_fw.mp4	0.0	338.48928117752075	
59	315.2234299182892	movie	1		244	57.0	2.5	/experiments/AOT/AOT_stimuli/rescaled_final/0663_fw.mp4	0.0	338.9055070877075	2.499979019165039
59	316.40687584877014	pulse	1	t		57.0	2.5	/experiments/AOT/AOT_stimuli/rescaled_final/0663_fw.mp4	0.0	340.0889530181885	
59	317.7234089374542	fix_post	2		12	57.0	2.5	/experiments/AOT/AOT_stimuli/rescaled_final/0663_fw.mp4	0.0	341.40548610687256	0.09993600845336914
60	317.8233449459076	fix_pre	0		120	58.0	2.5	/experiments/AOT/AOT_stimuli/rescaled_final/1063_rv.mp4	0.0	341.5054221153259	1.0000319480895996
60	318.0068199634552	pulse	0	t		58.0	2.5	/experiments/AOT/AOT_stimuli/rescaled_final/1063_rv.mp4	0.0	341.68889713287354	
60	318.8233768939972	movie	1		244	58.0	2.5	/experiments/AOT/AOT_stimuli/rescaled_final/1063_rv.mp4	0.0	342.5054540634155	2.499955892562866
60	319.6067898273468	pulse	1	t		58.0	2.5	/experiments/AOT/AOT_stimuli/rescaled_final/1063_rv.mp4	0.0	343.28886699676514	
60	321.2054328918457	pulse	1	t		58.0	2.5	/experiments/AOT/AOT_stimuli/rescaled_final/1063_rv.mp4	0.0	344.88751006126404	
60	321.32333278656006	fix_post	2		12	58.0	2.5	/experiments/AOT/AOT_stimuli/rescaled_final/1063_rv.mp4	0.0	345.0054099559784	0.09999418258666992
61	321.42332696914673	fix_pre	0		120	59.0	2.5	/experiments/AOT/AOT_stimuli/rescaled_final/0235_fw.mp4	0.0	345.10540413856506	0.9999659061431885
61	322.4232928752899	movie	1		244	59.0	2.5	/experiments/AOT/AOT_stimuli/rescaled_final/0235_fw.mp4	0.0	346.10537004470825	2.499972105026245
61	322.8072578907013	pulse	1	t		59.0	2.5	/experiments/AOT/AOT_stimuli/rescaled_final/0235_fw.mp4	0.0	346.48933506011963	
61	324.40678191185	pulse	1	t		59.0	2.5	/experiments/AOT/AOT_stimuli/rescaled_final/0235_fw.mp4	0.0	348.0888590812683	
61	324.92326498031616	fix_post	2		12	59.0	2.5	/experiments/AOT/AOT_stimuli/rescaled_final/0235_fw.mp4	0.0	348.6053421497345	0.10002779960632324
62	325.0232927799225	fix_pre	0		119	60.0	2.5	/experiments/AOT/AOT_stimuli/rescaled_final/0004_fw.mp4	0.0	348.7053699493408	0.9916830062866211
62	326.0067458152771	pulse	0	t		60.0	2.5	/experiments/AOT/AOT_stimuli/rescaled_final/0004_fw.mp4	0.0	349.68882298469543	
62	326.0149757862091	movie	1		247	60.0	2.5	/experiments/AOT/AOT_stimuli/rescaled_final/0004_fw.mp4	0.0	349.69705295562744	2.508324146270752
62	327.60615587234497	pulse	1	t		60.0	2.5	/experiments/AOT/AOT_stimuli/rescaled_final/0004_fw.mp4	0.0	351.2882330417633	
62	328.52329993247986	fix_post	2		12	60.0	2.5	/experiments/AOT/AOT_stimuli/rescaled_final/0004_fw.mp4	0.0	352.2053771018982	0.09994196891784668
63	328.6232419013977	fix_pre	0		120	61.0	2.5	/experiments/AOT/AOT_stimuli/rescaled_final/1424_fw.mp4	0.0	352.30531907081604	1.0000309944152832
63	329.2068769931793	pulse	0	t		61.0	2.5	/experiments/AOT/AOT_stimuli/rescaled_final/1424_fw.mp4	0.0	352.88895416259766	
63	329.623272895813	movie	1		244	61.0	2.5	/experiments/AOT/AOT_stimuli/rescaled_final/1424_fw.mp4	0.0	353.3053500652313	2.4999749660491943
63	330.80687189102173	pulse	1	t		61.0	2.5	/experiments/AOT/AOT_stimuli/rescaled_final/1424_fw.mp4	0.0	354.48894906044006	
63	332.1232478618622	fix_post	2		12	61.0	2.5	/experiments/AOT/AOT_stimuli/rescaled_final/1424_fw.mp4	0.0	355.8053250312805	0.10001111030578613
64	332.22325897216797	fix_pre	0		120	62.0	2.5	blank	1.0	355.9053361415863	0.999985933303833
64	332.40679597854614	pulse	0	t		62.0	2.5	blank	1.0	356.0888731479645	
64	333.2232449054718	movie	1		300	62.0	2.5	blank	1.0	356.90532207489014	2.500048875808716
64	334.0068099498749	pulse	1	t		62.0	2.5	blank	1.0	357.6888871192932	
64	335.6066858768463	pulse	1	t		62.0	2.5	blank	1.0	359.28876304626465	
64	335.7232937812805	fix_post	2		12	62.0	2.5	blank	1.0	359.40537095069885	0.09996819496154785
65	335.82326197624207	fix_pre	0		120	63.0	2.5	/experiments/AOT/AOT_stimuli/rescaled_final/2035_fw.mp4	0.0	359.5053391456604	1.0000159740447998
65	336.82327795028687	movie	1		243	63.0	2.5	/experiments/AOT/AOT_stimuli/rescaled_final/2035_fw.mp4	0.0	360.5053551197052	2.5000228881835938
65	337.2063539028168	pulse	1	t		63.0	2.5	/experiments/AOT/AOT_stimuli/rescaled_final/2035_fw.mp4	0.0	360.8884310722351	
65	338.80669379234314	pulse	1	t		63.0	2.5	/experiments/AOT/AOT_stimuli/rescaled_final/2035_fw.mp4	0.0	362.4887709617615	
65	339.32330083847046	fix_post	2		12	63.0	2.5	/experiments/AOT/AOT_stimuli/rescaled_final/2035_fw.mp4	0.0	363.0053780078888	0.09998798370361328
66	339.4232888221741	fix_pre	0		119	64.0	2.5	/experiments/AOT/AOT_stimuli/rescaled_final/1293_fw.mp4	0.0	363.1053659915924	0.9916090965270996
66	340.40669989585876	pulse	0	t		64.0	2.5	/experiments/AOT/AOT_stimuli/rescaled_final/1293_fw.mp4	0.0	364.0887770652771	
66	340.4148979187012	movie	1		243	64.0	2.5	/experiments/AOT/AOT_stimuli/rescaled_final/1293_fw.mp4	0.0	364.0969750881195	2.5083959102630615
66	342.0064079761505	pulse	1	t		64.0	2.5	/experiments/AOT/AOT_stimuli/rescaled_final/1293_fw.mp4	0.0	365.68848514556885	
66	342.92329382896423	fix_post	2		12	64.0	2.5	/experiments/AOT/AOT_stimuli/rescaled_final/1293_fw.mp4	0.0	366.60537099838257	0.09995198249816895
67	343.0232458114624	fix_pre	0		120	65.0	2.5	/experiments/AOT/AOT_stimuli/rescaled_final/1141_rv.mp4	0.0	366.70532298088074	1.0000519752502441
67	343.60667085647583	pulse	0	t		65.0	2.5	/experiments/AOT/AOT_stimuli/rescaled_final/1141_rv.mp4	0.0	367.28874802589417	
67	344.02329778671265	movie	1		244	65.0	2.5	/experiments/AOT/AOT_stimuli/rescaled_final/1141_rv.mp4	0.0	367.705374956131	2.499979019165039
67	345.206768989563	pulse	1	t		65.0	2.5	/experiments/AOT/AOT_stimuli/rescaled_final/1141_rv.mp4	0.0	368.8888461589813	
67	346.5232768058777	fix_post	2		12	65.0	2.5	/experiments/AOT/AOT_stimuli/rescaled_final/1141_rv.mp4	0.0	370.205353975296	0.099884033203125
68	346.6231608390808	fix_pre	0		120	66.0	2.5	/experiments/AOT/AOT_stimuli/rescaled_final/0828_fw.mp4	0.0	370.30523800849915	1.0000851154327393
68	346.8066258430481	pulse	0	t		66.0	2.5	/experiments/AOT/AOT_stimuli/rescaled_final/0828_fw.mp4	0.0	370.48870301246643	
68	347.62324595451355	movie	1		246	66.0	2.5	/experiments/AOT/AOT_stimuli/rescaled_final/0828_fw.mp4	0.0	371.3053231239319	2.49995493888855
68	348.4067358970642	pulse	1	t		66.0	2.5	/experiments/AOT/AOT_stimuli/rescaled_final/0828_fw.mp4	0.0	372.08881306648254	
68	350.0055389404297	pulse	1	t		66.0	2.5	/experiments/AOT/AOT_stimuli/rescaled_final/0828_fw.mp4	0.0	373.687616109848	
68	350.1232008934021	fix_post	2		12	66.0	2.5	/experiments/AOT/AOT_stimuli/rescaled_final/0828_fw.mp4	0.0	373.80527806282043	0.09998297691345215
69	350.22318387031555	fix_pre	0		120	67.0	2.5	/experiments/AOT/AOT_stimuli/rescaled_final/0096_fw.mp4	0.0	373.9052610397339	1.0000500679016113
69	351.22323393821716	movie	1		246	67.0	2.5	/experiments/AOT/AOT_stimuli/rescaled_final/0096_fw.mp4	0.0	374.9053111076355	2.499987840652466
69	351.60676288604736	pulse	1	t		67.0	2.5	/experiments/AOT/AOT_stimuli/rescaled_final/0096_fw.mp4	0.0	375.2888400554657	
69	353.206759929657	pulse	1	t		67.0	2.5	/experiments/AOT/AOT_stimuli/rescaled_final/0096_fw.mp4	0.0	376.8888370990753	
69	353.72322177886963	fix_post	2		12	67.0	2.5	/experiments/AOT/AOT_stimuli/rescaled_final/0096_fw.mp4	0.0	377.40529894828796	0.0999600887298584
70	353.8231818675995	fix_pre	0		119	68.0	2.5	blank	1.0	377.5052590370178	0.9916439056396484
70	354.806706905365	pulse	0	t		68.0	2.5	blank	1.0	378.4887840747833	
70	354.81482577323914	movie	1		301	68.0	2.5	blank	1.0	378.49690294265747	2.5083930492401123
70	356.4067587852478	pulse	1	t		68.0	2.5	blank	1.0	380.08883595466614	
70	357.32321882247925	fix_post	2		12	68.0	2.5	blank	1.0	381.0052959918976	0.09993195533752441
71	357.4231507778168	fix_pre	0		120	69.0	2.5	/experiments/AOT/AOT_stimuli/rescaled_final/2021_fw.mp4	0.0	381.1052279472351	0.9999961853027344
71	358.006707906723	pulse	0	t		69.0	2.5	/experiments/AOT/AOT_stimuli/rescaled_final/2021_fw.mp4	0.0	381.68878507614136	
71	358.4231469631195	movie	1		243	69.0	2.5	/experiments/AOT/AOT_stimuli/rescaled_final/2021_fw.mp4	0.0	382.10522413253784	2.5000250339508057
71	359.60674381256104	pulse	1	t		69.0	2.5	/experiments/AOT/AOT_stimuli/rescaled_final/2021_fw.mp4	0.0	383.28882098197937	
71	360.9231719970703	fix_post	2		12	69.0	2.5	/experiments/AOT/AOT_stimuli/rescaled_final/2021_fw.mp4	0.0	384.60524916648865	0.1000669002532959
72	361.0232388973236	fix_pre	0		120	70.0	2.5	/experiments/AOT/AOT_stimuli/rescaled_final/2008_rv.mp4	0.0	384.70531606674194	0.9999361038208008
72	361.2066469192505	pulse	0	t		70.0	2.5	/experiments/AOT/AOT_stimuli/rescaled_final/2008_rv.mp4	0.0	384.8887240886688	
72	362.0231750011444	movie	1		244	70.0	2.5	/experiments/AOT/AOT_stimuli/rescaled_final/2008_rv.mp4	0.0	385.70525217056274	2.5001349449157715
72	362.80655097961426	pulse	1	t		70.0	2.5	/experiments/AOT/AOT_stimuli/rescaled_final/2008_rv.mp4	0.0	386.4886281490326	
72	364.4053499698639	pulse	1	t		70.0	2.5	/experiments/AOT/AOT_stimuli/rescaled_final/2008_rv.mp4	0.0	388.0874271392822	
72	364.5233099460602	fix_post	2		12	70.0	2.5	/experiments/AOT/AOT_stimuli/rescaled_final/2008_rv.mp4	0.0	388.2053871154785	0.09979701042175293
73	364.62310695648193	fix_pre	0		120	71.0	2.5	/experiments/AOT/AOT_stimuli/rescaled_final/0096_rv.mp4	0.0	388.30518412590027	1.0002260208129883
73	365.6233329772949	movie	1		245	71.0	2.5	/experiments/AOT/AOT_stimuli/rescaled_final/0096_rv.mp4	0.0	389.30541014671326	2.4998159408569336
73	366.0065519809723	pulse	1	t		71.0	2.5	/experiments/AOT/AOT_stimuli/rescaled_final/0096_rv.mp4	0.0	389.6886291503906	
73	367.60618782043457	pulse	1	t		71.0	2.5	/experiments/AOT/AOT_stimuli/rescaled_final/0096_rv.mp4	0.0	391.2882649898529	
73	368.12314891815186	fix_post	2		12	71.0	2.5	/experiments/AOT/AOT_stimuli/rescaled_final/0096_rv.mp4	0.0	391.8052260875702	0.09998798370361328
74	368.22313690185547	fix_pre	0		119	72.0	2.5	/experiments/AOT/AOT_stimuli/rescaled_final/0235_fw.mp4	0.0	391.9052140712738	0.9917619228363037
74	369.2063307762146	pulse	0	t		72.0	2.5	/experiments/AOT/AOT_stimuli/rescaled_final/0235_fw.mp4	0.0	392.88840794563293	
74	369.2148988246918	movie	1		249	72.0	2.5	/experiments/AOT/AOT_stimuli/rescaled_final/0235_fw.mp4	0.0	392.8969759941101	2.5082919597625732
74	370.80620098114014	pulse	1	t		72.0	2.5	/experiments/AOT/AOT_stimuli/rescaled_final/0235_fw.mp4	0.0	394.4882781505585	
74	371.72319078445435	fix_post	2		12	72.0	2.5	/experiments/AOT/AOT_stimuli/rescaled_final/0235_fw.mp4	0.0	395.4052679538727	0.09995222091674805
75	371.8231430053711	fix_pre	0		120	73.0	2.5	/experiments/AOT/AOT_stimuli/rescaled_final/1487_fw.mp4	0.0	395.50522017478943	0.9999368190765381
75	372.4078938961029	pulse	0	t		73.0	2.5	/experiments/AOT/AOT_stimuli/rescaled_final/1487_fw.mp4	0.0	396.08997106552124	
75	372.82307982444763	movie	1		247	73.0	2.5	/experiments/AOT/AOT_stimuli/rescaled_final/1487_fw.mp4	0.0	396.50515699386597	2.500056028366089
75	374.0066797733307	pulse	1	t		73.0	2.5	/experiments/AOT/AOT_stimuli/rescaled_final/1487_fw.mp4	0.0	397.688756942749	
75	375.3231358528137	fix_post	2		12	73.0	2.5	/experiments/AOT/AOT_stimuli/rescaled_final/1487_fw.mp4	0.0	399.00521302223206	0.09995293617248535
76	375.4230887889862	fix_pre	0		120	74.0	2.5	/experiments/AOT/AOT_stimuli/rescaled_final/1691_fw.mp4	0.0	399.10516595840454	0.9998960494995117
76	375.6065979003906	pulse	0	t		74.0	2.5	/experiments/AOT/AOT_stimuli/rescaled_final/1691_fw.mp4	0.0	399.28867506980896	
76	376.4229848384857	movie	1		245	74.0	2.5	/experiments/AOT/AOT_stimuli/rescaled_final/1691_fw.mp4	0.0	400.10506200790405	2.500033140182495
76	377.20659494400024	pulse	1	t		74.0	2.5	/experiments/AOT/AOT_stimuli/rescaled_final/1691_fw.mp4	0.0	400.8886721134186	
76	378.805193901062	pulse	1	t		74.0	2.5	/experiments/AOT/AOT_stimuli/rescaled_final/1691_fw.mp4	0.0	402.48727107048035	
76	378.9230179786682	fix_post	2		12	74.0	2.5	/experiments/AOT/AOT_stimuli/rescaled_final/1691_fw.mp4	0.0	402.60509514808655	0.10000896453857422
77	379.0230269432068	fix_pre	0		120	75.0	2.5	/experiments/AOT/AOT_stimuli/rescaled_final/1765_rv.mp4	0.0	402.7051041126251	0.9999630451202393
77	380.022989988327	movie	1		244	75.0	2.5	/experiments/AOT/AOT_stimuli/rescaled_final/1765_rv.mp4	0.0	403.70506715774536	2.500074863433838
77	380.40605783462524	pulse	1	t		75.0	2.5	/experiments/AOT/AOT_stimuli/rescaled_final/1765_rv.mp4	0.0	404.0881350040436	
77	382.0064768791199	pulse	1	t		75.0	2.5	/experiments/AOT/AOT_stimuli/rescaled_final/1765_rv.mp4	0.0	405.6885540485382	
77	382.52306485176086	fix_post	2		12	75.0	2.5	/experiments/AOT/AOT_stimuli/rescaled_final/1765_rv.mp4	0.0	406.2051420211792	0.09995412826538086
78	382.62301898002625	fix_pre	0		119	76.0	2.5	blank	1.0	406.3050961494446	0.9916999340057373
78	383.6065649986267	pulse	0	t		76.0	2.5	blank	1.0	407.28864216804504	
78	383.614718914032	movie	1		301	76.0	2.5	blank	1.0	407.2967960834503	2.5083858966827393
78	385.2065598964691	pulse	1	t		76.0	2.5	blank	1.0	408.88863706588745	
78	386.1231048107147	fix_post	2		12	76.0	2.5	blank	1.0	409.80518198013306	0.09994912147521973
79	386.22305393218994	fix_pre	0		120	77.0	2.5	/experiments/AOT/AOT_stimuli/rescaled_final/0756_fw.mp4	0.0	409.9051311016083	0.9999618530273438
79	386.80655694007874	pulse	0	t		77.0	2.5	/experiments/AOT/AOT_stimuli/rescaled_final/0756_fw.mp4	0.0	410.48863410949707	
79	387.2230157852173	movie	1		246	77.0	2.5	/experiments/AOT/AOT_stimuli/rescaled_final/0756_fw.mp4	0.0	410.9050929546356	2.499934196472168
79	388.4065828323364	pulse	1	t		77.0	2.5	/experiments/AOT/AOT_stimuli/rescaled_final/0756_fw.mp4	0.0	412.08866000175476	
79	389.72294998168945	fix_post	2		12	77.0	2.5	/experiments/AOT/AOT_stimuli/rescaled_final/0756_fw.mp4	0.0	413.4050271511078	0.10009193420410156
80	389.82304191589355	fix_pre	0		120	78.0	2.5	/experiments/AOT/AOT_stimuli/rescaled_final/1477_fw.mp4	0.0	413.5051190853119	0.9999709129333496
80	390.00657081604004	pulse	0	t		78.0	2.5	/experiments/AOT/AOT_stimuli/rescaled_final/1477_fw.mp4	0.0	413.6886479854584	
80	390.8230128288269	movie	1		245	78.0	2.5	/experiments/AOT/AOT_stimuli/rescaled_final/1477_fw.mp4	0.0	414.50508999824524	2.5000970363616943
80	391.6064658164978	pulse	1	t		78.0	2.5	/experiments/AOT/AOT_stimuli/rescaled_final/1477_fw.mp4	0.0	415.28854298591614	
80	393.20649886131287	pulse	1	t		78.0	2.5	/experiments/AOT/AOT_stimuli/rescaled_final/1477_fw.mp4	0.0	416.8885760307312	
80	393.3231098651886	fix_post	2		12	78.0	2.5	/experiments/AOT/AOT_stimuli/rescaled_final/1477_fw.mp4	0.0	417.00518703460693	0.09998106956481934
81	393.4230909347534	fix_pre	0		120	79.0	2.5	/experiments/AOT/AOT_stimuli/rescaled_final/1185_rv.mp4	0.0	417.10516810417175	0.9999840259552002
81	394.4230749607086	movie	1		248	79.0	2.5	/experiments/AOT/AOT_stimuli/rescaled_final/1185_rv.mp4	0.0	418.10515213012695	2.499987840652466
81	394.8061327934265	pulse	1	t		79.0	2.5	/experiments/AOT/AOT_stimuli/rescaled_final/1185_rv.mp4	0.0	418.48820996284485	
81	396.4064619541168	pulse	1	t		79.0	2.5	/experiments/AOT/AOT_stimuli/rescaled_final/1185_rv.mp4	0.0	420.08853912353516	
81	396.9230628013611	fix_post	2		12	79.0	2.5	/experiments/AOT/AOT_stimuli/rescaled_final/1185_rv.mp4	0.0	420.6051399707794	0.09996414184570312
82	397.0230269432068	fix_pre	0		119	80.0	2.5	/experiments/AOT/AOT_stimuli/rescaled_final/2008_fw.mp4	0.0	420.7051041126251	0.9916219711303711
82	398.00649881362915	pulse	0	t		80.0	2.5	/experiments/AOT/AOT_stimuli/rescaled_final/2008_fw.mp4	0.0	421.6885759830475	
82	398.01464891433716	movie	1		248	80.0	2.5	/experiments/AOT/AOT_stimuli/rescaled_final/2008_fw.mp4	0.0	421.6967260837555	2.508262872695923
82	399.6059579849243	pulse	1	t		80.0	2.5	/experiments/AOT/AOT_stimuli/rescaled_final/2008_fw.mp4	0.0	423.28803515434265	
82	400.5229117870331	fix_post	2		12	80.0	2.5	/experiments/AOT/AOT_stimuli/rescaled_final/2008_fw.mp4	0.0	424.2049889564514	0.10006499290466309
83	400.62297677993774	fix_pre	0		120	81.0	2.5	/experiments/AOT/AOT_stimuli/rescaled_final/1711_rv.mp4	0.0	424.3050539493561	0.9999911785125732
83	401.2077338695526	pulse	0	t		81.0	2.5	/experiments/AOT/AOT_stimuli/rescaled_final/1711_rv.mp4	0.0	424.88981103897095	
83	401.6229679584503	movie	1		245	81.0	2.5	/experiments/AOT/AOT_stimuli/rescaled_final/1711_rv.mp4	0.0	425.30504512786865	2.500016927719116
83	402.80651783943176	pulse	1	t		81.0	2.5	/experiments/AOT/AOT_stimuli/rescaled_final/1711_rv.mp4	0.0	426.4885950088501	
83	404.12298488616943	fix_post	2		12	81.0	2.5	/experiments/AOT/AOT_stimuli/rescaled_final/1711_rv.mp4	0.0	427.80506205558777	0.09993791580200195
84	404.22292280197144	fix_pre	0		120	82.0	2.5	blank	1.0	427.90499997138977	1.0000460147857666
84	404.406457901001	pulse	0	t		82.0	2.5	blank	1.0	428.0885350704193	
84	405.2229688167572	movie	1		300	82.0	2.5	blank	1.0	428.90504598617554	2.500063180923462
84	406.00636982917786	pulse	1	t		82.0	2.5	blank	1.0	429.6884469985962	
84	407.60645484924316	pulse	1	t		82.0	2.5	blank	1.0	431.2885320186615	
84	407.72303199768066	fix_post	2		12	82.0	2.5	blank	1.0	431.405109167099	0.0999898910522461
85	407.8230218887329	fix_pre	0		120	83.0	2.5	/experiments/AOT/AOT_stimuli/rescaled_final/1080_rv.mp4	0.0	431.50509905815125	0.999859094619751
85	408.82288098335266	movie	1		245	83.0	2.5	/experiments/AOT/AOT_stimuli/rescaled_final/1080_rv.mp4	0.0	432.504958152771	2.5000598430633545
85	409.20626282691956	pulse	1	t		83.0	2.5	/experiments/AOT/AOT_stimuli/rescaled_final/1080_rv.mp4	0.0	432.8883399963379	
85	410.80643796920776	pulse	1	t		83.0	2.5	/experiments/AOT/AOT_stimuli/rescaled_final/1080_rv.mp4	0.0	434.4885151386261	
85	411.322940826416	fix_post	2		12	83.0	2.5	/experiments/AOT/AOT_stimuli/rescaled_final/1080_rv.mp4	0.0	435.00501799583435	0.09995913505554199
87	411.42289996147156	stim	0		1716					435.1049771308899	14.299743890762329
87	412.4064869880676	pulse	0	t						436.08856415748596	
87	414.0064377784729	pulse	0	t						437.68851494789124	
87	415.60629987716675	pulse	0	t						439.2883770465851	
87	417.20639991760254	pulse	0	t						440.8884770870209	
87	418.80637097358704	pulse	0	t						442.48844814300537	
87	420.40638995170593	pulse	0	t						444.08846712112427	
87	422.0063359737396	pulse	0	t						445.68841314315796	
87	423.60590291023254	pulse	0	t						447.2879800796509	
87	425.20602679252625	pulse	0	t						448.8881039619446	
