trial_nr	onset	event_type	phase	response	nr_frames	movie_index	movie_duration	movie_file	blank	onset_abs	duration
0	0.18889093399047852	stim	0		2678					121.31074285507202	22.32822012901306
0	22.50888204574585	response	0	space						143.6307339668274	
1	22.51711106300354	stim	0		4461					143.63896298408508	37.19084596633911
1	59.6981520652771	pulse	0	t						180.82000398635864	
1	59.70795702934265	stim	1		1715					180.8298089504242	14.30014705657959
1	61.28967094421387	pulse	1	t						182.4115228652954	
1	62.89007806777954	pulse	1	t						184.01192998886108	
1	64.49024200439453	pulse	1	t						185.61209392547607	
1	66.09045791625977	pulse	1	t						187.2123098373413	
1	67.69068598747253	pulse	1	t						188.81253790855408	
1	69.29095888137817	pulse	1	t						190.41281080245972	
1	70.8912079334259	pulse	1	t						192.01305985450745	
1	72.49141788482666	pulse	1	t						193.6132698059082	
2	74.00810408592224	fix_pre	0		11	0.0	2.5	/experiments/knapen_AOT/AOT_stimuli/rescaled_final/1737_rv.mp4	0.0	195.12995600700378	0.10024285316467285
2	74.09166193008423	pulse	0	t		0.0	2.5	/experiments/knapen_AOT/AOT_stimuli/rescaled_final/1737_rv.mp4	0.0	195.21351385116577	
2	74.10834693908691	movie	1		236	0.0	2.5	/experiments/knapen_AOT/AOT_stimuli/rescaled_final/1737_rv.mp4	0.0	195.23019886016846	2.5123090744018555
2	75.6923439502716	pulse	1	t		0.0	2.5	/experiments/knapen_AOT/AOT_stimuli/rescaled_final/1737_rv.mp4	0.0	196.81419587135315	
2	76.62065601348877	fix_post	2		11	0.0	2.5	/experiments/knapen_AOT/AOT_stimuli/rescaled_final/1737_rv.mp4	0.0	197.7425079345703	0.08783102035522461
3	76.708487033844	fix_pre	0		120	1.0	2.5	/experiments/knapen_AOT/AOT_stimuli/rescaled_final/1707_rv.mp4	0.0	197.83033895492554	1.0001728534698486
3	77.29218888282776	pulse	0	t		1.0	2.5	/experiments/knapen_AOT/AOT_stimuli/rescaled_final/1707_rv.mp4	0.0	198.4140408039093	
3	77.70865988731384	movie	1		243	1.0	2.5	/experiments/knapen_AOT/AOT_stimuli/rescaled_final/1707_rv.mp4	0.0	198.83051180839539	2.500361204147339
3	78.89249610900879	pulse	1	t		1.0	2.5	/experiments/knapen_AOT/AOT_stimuli/rescaled_final/1707_rv.mp4	0.0	200.01434803009033	
3	80.20902109146118	fix_post	2		12	1.0	2.5	/experiments/knapen_AOT/AOT_stimuli/rescaled_final/1707_rv.mp4	0.0	201.33087301254272	0.09997797012329102
4	80.30899906158447	fix_pre	0		120	2.0	2.5	/experiments/knapen_AOT/AOT_stimuli/rescaled_final/0413_fw.mp4	0.0	201.43085098266602	1.0002529621124268
4	80.49262499809265	pulse	0	t		2.0	2.5	/experiments/knapen_AOT/AOT_stimuli/rescaled_final/0413_fw.mp4	0.0	201.6144769191742	
4	81.3092520236969	movie	1		244	2.0	2.5	/experiments/knapen_AOT/AOT_stimuli/rescaled_final/0413_fw.mp4	0.0	202.43110394477844	2.500298023223877
4	82.09276700019836	pulse	1	t		2.0	2.5	/experiments/knapen_AOT/AOT_stimuli/rescaled_final/0413_fw.mp4	0.0	203.2146189212799	
4	83.69293904304504	pulse	1	t		2.0	2.5	/experiments/knapen_AOT/AOT_stimuli/rescaled_final/0413_fw.mp4	0.0	204.8147909641266	
4	83.80955004692078	fix_post	2		12	2.0	2.5	/experiments/knapen_AOT/AOT_stimuli/rescaled_final/0413_fw.mp4	0.0	204.93140196800232	0.10003399848937988
5	83.90958404541016	fix_pre	0		119	3.0	2.5	/experiments/knapen_AOT/AOT_stimuli/rescaled_final/1981_fw.mp4	0.0	205.0314359664917	0.9917969703674316
5	84.90138101577759	movie	1		244	3.0	2.5	/experiments/knapen_AOT/AOT_stimuli/rescaled_final/1981_fw.mp4	0.0	206.02323293685913	2.5003550052642822
5	85.29348587989807	pulse	1	t		3.0	2.5	/experiments/knapen_AOT/AOT_stimuli/rescaled_final/1981_fw.mp4	0.0	206.41533780097961	
5	86.89357495307922	pulse	1	t		3.0	2.5	/experiments/knapen_AOT/AOT_stimuli/rescaled_final/1981_fw.mp4	0.0	208.01542687416077	
5	87.40173602104187	fix_post	2		12	3.0	2.5	/experiments/knapen_AOT/AOT_stimuli/rescaled_final/1981_fw.mp4	0.0	208.5235879421234	0.10005903244018555
6	87.50179505348206	fix_pre	0		120	4.0	2.5	/experiments/knapen_AOT/AOT_stimuli/rescaled_final/0746_fw.mp4	0.0	208.6236469745636	1.0001330375671387
6	88.48631691932678	pulse	0	t		4.0	2.5	/experiments/knapen_AOT/AOT_stimuli/rescaled_final/0746_fw.mp4	0.0	209.60816884040833	
6	88.5019280910492	movie	1		245	4.0	2.5	/experiments/knapen_AOT/AOT_stimuli/rescaled_final/0746_fw.mp4	0.0	209.62378001213074	2.5086989402770996
6	90.09437298774719	pulse	1	t		4.0	2.5	/experiments/knapen_AOT/AOT_stimuli/rescaled_final/0746_fw.mp4	0.0	211.21622490882874	
6	91.0106270313263	fix_post	2		12	4.0	2.5	/experiments/knapen_AOT/AOT_stimuli/rescaled_final/0746_fw.mp4	0.0	212.13247895240784	0.10004305839538574
7	91.11067008972168	fix_pre	0		120	5.0	2.5	/experiments/knapen_AOT/AOT_stimuli/rescaled_final/1330_rv.mp4	0.0	212.23252201080322	1.0001318454742432
7	91.68667006492615	pulse	0	t		5.0	2.5	/experiments/knapen_AOT/AOT_stimuli/rescaled_final/1330_rv.mp4	0.0	212.8085219860077	
7	92.11080193519592	movie	1		243	5.0	2.5	/experiments/knapen_AOT/AOT_stimuli/rescaled_final/1330_rv.mp4	0.0	213.23265385627747	2.500357151031494
7	93.286945104599	pulse	1	t		5.0	2.5	/experiments/knapen_AOT/AOT_stimuli/rescaled_final/1330_rv.mp4	0.0	214.40879702568054	
7	94.61115908622742	fix_post	2		12	5.0	2.5	/experiments/knapen_AOT/AOT_stimuli/rescaled_final/1330_rv.mp4	0.0	215.73301100730896	0.10002994537353516
8	94.71118903160095	fix_pre	0		120	6.0	2.5	/experiments/knapen_AOT/AOT_stimuli/rescaled_final/2114_fw.mp4	0.0	215.8330409526825	1.0001468658447266
8	94.8871738910675	pulse	0	t		6.0	2.5	/experiments/knapen_AOT/AOT_stimuli/rescaled_final/2114_fw.mp4	0.0	216.00902581214905	
8	95.71133589744568	movie	1		244	6.0	2.5	/experiments/knapen_AOT/AOT_stimuli/rescaled_final/2114_fw.mp4	0.0	216.83318781852722	2.49202299118042
8	96.48673510551453	pulse	1	t		6.0	2.5	/experiments/knapen_AOT/AOT_stimuli/rescaled_final/2114_fw.mp4	0.0	217.60858702659607	
8	98.08686709403992	pulse	1	t		6.0	2.5	/experiments/knapen_AOT/AOT_stimuli/rescaled_final/2114_fw.mp4	0.0	219.20871901512146	
8	98.2033588886261	fix_post	2		12	6.0	2.5	/experiments/knapen_AOT/AOT_stimuli/rescaled_final/2114_fw.mp4	0.0	219.32521080970764	0.10002398490905762
9	98.30338287353516	fix_pre	0		120	7.0	2.5	blank	1.0	219.4252347946167	1.0001511573791504
9	99.3035340309143	movie	1		300	7.0	2.5	blank	1.0	220.42538595199585	2.5003788471221924
9	99.68724489212036	pulse	1	t		7.0	2.5	blank	1.0	220.8090968132019	
9	101.28752493858337	pulse	1	t		7.0	2.5	blank	1.0	222.40937685966492	
9	101.8039128780365	fix_post	2		12	7.0	2.5	blank	1.0	222.92576479911804	0.1000220775604248
10	101.90393495559692	fix_pre	0		119	8.0	2.5	/experiments/knapen_AOT/AOT_stimuli/rescaled_final/2137_fw.mp4	0.0	223.02578687667847	0.991873025894165
10	102.88764500617981	pulse	0	t		8.0	2.5	/experiments/knapen_AOT/AOT_stimuli/rescaled_final/2137_fw.mp4	0.0	224.00949692726135	
10	102.89580798149109	movie	1		245	8.0	2.5	/experiments/knapen_AOT/AOT_stimuli/rescaled_final/2137_fw.mp4	0.0	224.01765990257263	2.50862193107605
10	104.48845911026001	pulse	1	t		8.0	2.5	/experiments/knapen_AOT/AOT_stimuli/rescaled_final/2137_fw.mp4	0.0	225.61031103134155	
10	105.40442991256714	fix_post	2		12	8.0	2.5	/experiments/knapen_AOT/AOT_stimuli/rescaled_final/2137_fw.mp4	0.0	226.52628183364868	0.10007214546203613
11	105.50450205802917	fix_pre	0		120	9.0	2.5	/experiments/knapen_AOT/AOT_stimuli/rescaled_final/1456_rv.mp4	0.0	226.62635397911072	1.0001568794250488
11	106.08804607391357	pulse	0	t		9.0	2.5	/experiments/knapen_AOT/AOT_stimuli/rescaled_final/1456_rv.mp4	0.0	227.20989799499512	
11	106.50465893745422	movie	1		243	9.0	2.5	/experiments/knapen_AOT/AOT_stimuli/rescaled_final/1456_rv.mp4	0.0	227.62651085853577	2.500331163406372
11	107.68856501579285	pulse	1	t		9.0	2.5	/experiments/knapen_AOT/AOT_stimuli/rescaled_final/1456_rv.mp4	0.0	228.8104169368744	
11	109.0049901008606	fix_post	2		12	9.0	2.5	/experiments/knapen_AOT/AOT_stimuli/rescaled_final/1456_rv.mp4	0.0	230.12684202194214	0.09999585151672363
12	109.10498595237732	fix_pre	0		120	10.0	2.5	/experiments/knapen_AOT/AOT_stimuli/rescaled_final/1920_fw.mp4	0.0	230.22683787345886	1.0001449584960938
12	109.2886209487915	pulse	0	t		10.0	2.5	/experiments/knapen_AOT/AOT_stimuli/rescaled_final/1920_fw.mp4	0.0	230.41047286987305	
12	110.10513091087341	movie	1		243	10.0	2.5	/experiments/knapen_AOT/AOT_stimuli/rescaled_final/1920_fw.mp4	0.0	231.22698283195496	2.500339984893799
12	110.8887619972229	pulse	1	t		10.0	2.5	/experiments/knapen_AOT/AOT_stimuli/rescaled_final/1920_fw.mp4	0.0	232.01061391830444	
12	112.48890495300293	pulse	1	t		10.0	2.5	/experiments/knapen_AOT/AOT_stimuli/rescaled_final/1920_fw.mp4	0.0	233.61075687408447	
12	112.60547089576721	fix_post	2		12	10.0	2.5	/experiments/knapen_AOT/AOT_stimuli/rescaled_final/1920_fw.mp4	0.0	233.72732281684875	0.1000511646270752
13	112.70552206039429	fix_pre	0		120	11.0	2.5	/experiments/knapen_AOT/AOT_stimuli/rescaled_final/0670_rv.mp4	0.0	233.82737398147583	1.0001540184020996
13	113.70567607879639	movie	1		242	11.0	2.5	/experiments/knapen_AOT/AOT_stimuli/rescaled_final/0670_rv.mp4	0.0	234.82752799987793	2.492033004760742
13	114.08970808982849	pulse	1	t		11.0	2.5	/experiments/knapen_AOT/AOT_stimuli/rescaled_final/0670_rv.mp4	0.0	235.21156001091003	
13	115.68955993652344	pulse	1	t		11.0	2.5	/experiments/knapen_AOT/AOT_stimuli/rescaled_final/0670_rv.mp4	0.0	236.81141185760498	
13	116.19770908355713	fix_post	2		12	11.0	2.5	/experiments/knapen_AOT/AOT_stimuli/rescaled_final/0670_rv.mp4	0.0	237.31956100463867	0.10005497932434082
14	116.29776406288147	fix_pre	0		120	12.0	2.5	/experiments/knapen_AOT/AOT_stimuli/rescaled_final/0589_fw.mp4	0.0	237.419615983963	1.0001139640808105
14	117.28969502449036	pulse	0	t		12.0	2.5	/experiments/knapen_AOT/AOT_stimuli/rescaled_final/0589_fw.mp4	0.0	238.4115469455719	
14	117.29787802696228	movie	1		247	12.0	2.5	/experiments/knapen_AOT/AOT_stimuli/rescaled_final/0589_fw.mp4	0.0	238.41972994804382	2.508671998977661
14	118.89069199562073	pulse	1	t		12.0	2.5	/experiments/knapen_AOT/AOT_stimuli/rescaled_final/0589_fw.mp4	0.0	240.01254391670227	
14	119.80655002593994	fix_post	2		12	12.0	2.5	/experiments/knapen_AOT/AOT_stimuli/rescaled_final/0589_fw.mp4	0.0	240.92840194702148	0.10003304481506348
15	119.906583070755	fix_pre	0		120	13.0	2.5	/experiments/knapen_AOT/AOT_stimuli/rescaled_final/0227_rv.mp4	0.0	241.02843499183655	1.0001919269561768
15	120.49021410942078	pulse	0	t		13.0	2.5	/experiments/knapen_AOT/AOT_stimuli/rescaled_final/0227_rv.mp4	0.0	241.61206603050232	
15	120.90677499771118	movie	1		244	13.0	2.5	/experiments/knapen_AOT/AOT_stimuli/rescaled_final/0227_rv.mp4	0.0	242.02862691879272	2.500307083129883
15	122.09066104888916	pulse	1	t		13.0	2.5	/experiments/knapen_AOT/AOT_stimuli/rescaled_final/0227_rv.mp4	0.0	243.2125129699707	
15	123.40708208084106	fix_post	2		12	13.0	2.5	/experiments/knapen_AOT/AOT_stimuli/rescaled_final/0227_rv.mp4	0.0	244.5289340019226	0.1000518798828125
16	123.50713396072388	fix_pre	0		120	14.0	2.5	blank	1.0	244.62898588180542	1.0001680850982666
16	123.69068098068237	pulse	0	t		14.0	2.5	blank	1.0	244.81253290176392	
16	124.50730204582214	movie	1		300	14.0	2.5	blank	1.0	245.6291539669037	2.5003578662872314
16	125.2910521030426	pulse	1	t		14.0	2.5	blank	1.0	246.41290402412415	
16	126.89117789268494	pulse	1	t		14.0	2.5	blank	1.0	248.01302981376648	
16	127.00765991210938	fix_post	2		12	14.0	2.5	blank	1.0	248.12951183319092	0.09999799728393555
17	127.10765790939331	fix_pre	0		119	15.0	2.5	/experiments/knapen_AOT/AOT_stimuli/rescaled_final/1384_fw.mp4	0.0	248.22950983047485	0.9917871952056885
17	128.099445104599	movie	1		243	15.0	2.5	/experiments/knapen_AOT/AOT_stimuli/rescaled_final/1384_fw.mp4	0.0	249.22129702568054	2.5004279613494873
17	128.49152898788452	pulse	1	t		15.0	2.5	/experiments/knapen_AOT/AOT_stimuli/rescaled_final/1384_fw.mp4	0.0	249.61338090896606	
17	130.0916669368744	pulse	1	t		15.0	2.5	/experiments/knapen_AOT/AOT_stimuli/rescaled_final/1384_fw.mp4	0.0	251.21351885795593	
17	130.5998730659485	fix_post	2		12	15.0	2.5	/experiments/knapen_AOT/AOT_stimuli/rescaled_final/1384_fw.mp4	0.0	251.72172498703003	0.09999489784240723
18	130.6998679637909	fix_pre	0		120	16.0	2.5	/experiments/knapen_AOT/AOT_stimuli/rescaled_final/1395_fw.mp4	0.0	251.82171988487244	1.000148057937622
18	131.6919128894806	pulse	0	t		16.0	2.5	/experiments/knapen_AOT/AOT_stimuli/rescaled_final/1395_fw.mp4	0.0	252.81376481056213	
18	131.70001602172852	movie	1		245	16.0	2.5	/experiments/knapen_AOT/AOT_stimuli/rescaled_final/1395_fw.mp4	0.0	252.82186794281006	2.5086770057678223
18	133.29257607460022	pulse	1	t		16.0	2.5	/experiments/knapen_AOT/AOT_stimuli/rescaled_final/1395_fw.mp4	0.0	254.41442799568176	
18	134.20869302749634	fix_post	2		12	16.0	2.5	/experiments/knapen_AOT/AOT_stimuli/rescaled_final/1395_fw.mp4	0.0	255.33054494857788	0.10004496574401855
19	134.30873799324036	fix_pre	0		120	17.0	2.5	/experiments/knapen_AOT/AOT_stimuli/rescaled_final/0030_fw.mp4	0.0	255.4305899143219	1.0001649856567383
19	134.89257502555847	pulse	0	t		17.0	2.5	/experiments/knapen_AOT/AOT_stimuli/rescaled_final/0030_fw.mp4	0.0	256.01442694664	
19	135.3089029788971	movie	1		241	17.0	2.5	/experiments/knapen_AOT/AOT_stimuli/rescaled_final/0030_fw.mp4	0.0	256.43075489997864	2.5003371238708496
19	136.4926459789276	pulse	1	t		17.0	2.5	/experiments/knapen_AOT/AOT_stimuli/rescaled_final/0030_fw.mp4	0.0	257.61449790000916	
19	137.80924010276794	fix_post	2		12	17.0	2.5	/experiments/knapen_AOT/AOT_stimuli/rescaled_final/0030_fw.mp4	0.0	258.9310920238495	0.10004377365112305
20	137.90928387641907	fix_pre	0		120	18.0	2.5	/experiments/knapen_AOT/AOT_stimuli/rescaled_final/0227_fw.mp4	0.0	259.0311357975006	1.0001380443572998
20	138.09286093711853	pulse	0	t		18.0	2.5	/experiments/knapen_AOT/AOT_stimuli/rescaled_final/0227_fw.mp4	0.0	259.2147128582001	
20	138.90942192077637	movie	1		243	18.0	2.5	/experiments/knapen_AOT/AOT_stimuli/rescaled_final/0227_fw.mp4	0.0	260.0312738418579	2.5004019737243652
20	139.69310903549194	pulse	1	t		18.0	2.5	/experiments/knapen_AOT/AOT_stimuli/rescaled_final/0227_fw.mp4	0.0	260.8149609565735	
20	141.29346895217896	pulse	1	t		18.0	2.5	/experiments/knapen_AOT/AOT_stimuli/rescaled_final/0227_fw.mp4	0.0	262.4153208732605	
20	141.40982389450073	fix_post	2		12	18.0	2.5	/experiments/knapen_AOT/AOT_stimuli/rescaled_final/0227_fw.mp4	0.0	262.5316758155823	0.0999910831451416
21	141.50981497764587	fix_pre	0		120	19.0	2.5	blank	1.0	262.6316668987274	1.0001931190490723
21	142.51000809669495	movie	1		299	19.0	2.5	blank	1.0	263.6318600177765	2.492017984390259
21	142.89353609085083	pulse	1	t		19.0	2.5	blank	1.0	264.0153880119324	
21	144.4938530921936	pulse	1	t		19.0	2.5	blank	1.0	265.61570501327515	
21	145.0020260810852	fix_post	2		12	19.0	2.5	blank	1.0	266.12387800216675	0.0999917984008789
22	145.10201787948608	fix_pre	0		120	20.0	2.5	/experiments/knapen_AOT/AOT_stimuli/rescaled_final/1174_fw.mp4	0.0	266.2238698005676	1.0001490116119385
22	146.0940248966217	pulse	0	t		20.0	2.5	/experiments/knapen_AOT/AOT_stimuli/rescaled_final/1174_fw.mp4	0.0	267.21587681770325	
22	146.10216689109802	movie	1		244	20.0	2.5	/experiments/knapen_AOT/AOT_stimuli/rescaled_final/1174_fw.mp4	0.0	267.22401881217957	2.5086750984191895
22	147.6955120563507	pulse	1	t		20.0	2.5	/experiments/knapen_AOT/AOT_stimuli/rescaled_final/1174_fw.mp4	0.0	268.81736397743225	
22	148.6108419895172	fix_post	2		12	20.0	2.5	/experiments/knapen_AOT/AOT_stimuli/rescaled_final/1174_fw.mp4	0.0	269.73269391059875	0.10000991821289062
23	148.7108519077301	fix_pre	0		120	21.0	2.5	/experiments/knapen_AOT/AOT_stimuli/rescaled_final/0329_fw.mp4	0.0	269.83270382881165	1.0001630783081055
23	149.294517993927	pulse	0	t		21.0	2.5	/experiments/knapen_AOT/AOT_stimuli/rescaled_final/0329_fw.mp4	0.0	270.41636991500854	
23	149.7110149860382	movie	1		243	21.0	2.5	/experiments/knapen_AOT/AOT_stimuli/rescaled_final/0329_fw.mp4	0.0	270.83286690711975	2.500443935394287
23	150.89482307434082	pulse	1	t		21.0	2.5	/experiments/knapen_AOT/AOT_stimuli/rescaled_final/0329_fw.mp4	0.0	272.01667499542236	
23	152.2114589214325	fix_post	2		12	21.0	2.5	/experiments/knapen_AOT/AOT_stimuli/rescaled_final/0329_fw.mp4	0.0	273.33331084251404	0.09997105598449707
24	152.311429977417	fix_pre	0		120	22.0	2.5	/experiments/knapen_AOT/AOT_stimuli/rescaled_final/0946_rv.mp4	0.0	273.43328189849854	1.0001249313354492
24	152.48740100860596	pulse	0	t		22.0	2.5	/experiments/knapen_AOT/AOT_stimuli/rescaled_final/0946_rv.mp4	0.0	273.6092529296875	
24	153.31155490875244	movie	1		243	22.0	2.5	/experiments/knapen_AOT/AOT_stimuli/rescaled_final/0946_rv.mp4	0.0	274.433406829834	2.500394105911255
24	154.08781790733337	pulse	1	t		22.0	2.5	/experiments/knapen_AOT/AOT_stimuli/rescaled_final/0946_rv.mp4	0.0	275.2096698284149	
24	155.69541001319885	pulse	1	t		22.0	2.5	/experiments/knapen_AOT/AOT_stimuli/rescaled_final/0946_rv.mp4	0.0	276.8172619342804	
24	155.8119490146637	fix_post	2		12	22.0	2.5	/experiments/knapen_AOT/AOT_stimuli/rescaled_final/0946_rv.mp4	0.0	276.93380093574524	0.10001707077026367
25	155.91196608543396	fix_pre	0		120	23.0	2.5	/experiments/knapen_AOT/AOT_stimuli/rescaled_final/0480_fw.mp4	0.0	277.0338180065155	1.0001518726348877
25	156.91211795806885	movie	1		244	23.0	2.5	/experiments/knapen_AOT/AOT_stimuli/rescaled_final/0480_fw.mp4	0.0	278.0339698791504	2.4920549392700195
25	157.28747701644897	pulse	1	t		23.0	2.5	/experiments/knapen_AOT/AOT_stimuli/rescaled_final/0480_fw.mp4	0.0	278.4093289375305	
25	158.88760209083557	pulse	1	t		23.0	2.5	/experiments/knapen_AOT/AOT_stimuli/rescaled_final/0480_fw.mp4	0.0	280.0094540119171	
25	159.40417289733887	fix_post	2		12	23.0	2.5	/experiments/knapen_AOT/AOT_stimuli/rescaled_final/0480_fw.mp4	0.0	280.5260248184204	0.100006103515625
26	159.5041790008545	fix_pre	0		119	24.0	2.5	/experiments/knapen_AOT/AOT_stimuli/rescaled_final/2044_fw.mp4	0.0	280.62603092193604	0.9918229579925537
26	160.4878830909729	pulse	0	t		24.0	2.5	/experiments/knapen_AOT/AOT_stimuli/rescaled_final/2044_fw.mp4	0.0	281.60973501205444	
26	160.49600195884705	movie	1		245	24.0	2.5	/experiments/knapen_AOT/AOT_stimuli/rescaled_final/2044_fw.mp4	0.0	281.6178538799286	2.5086829662323
26	162.08835101127625	pulse	1	t		24.0	2.5	/experiments/knapen_AOT/AOT_stimuli/rescaled_final/2044_fw.mp4	0.0	283.2102029323578	
26	163.00468492507935	fix_post	2		12	24.0	2.5	/experiments/knapen_AOT/AOT_stimuli/rescaled_final/2044_fw.mp4	0.0	284.1265368461609	0.10001397132873535
27	163.10469889640808	fix_pre	0		120	25.0	2.5	/experiments/knapen_AOT/AOT_stimuli/rescaled_final/0664_fw.mp4	0.0	284.2265508174896	1.000190019607544
27	163.68840789794922	pulse	0	t		25.0	2.5	/experiments/knapen_AOT/AOT_stimuli/rescaled_final/0664_fw.mp4	0.0	284.81025981903076	
27	164.10488891601562	movie	1		245	25.0	2.5	/experiments/knapen_AOT/AOT_stimuli/rescaled_final/0664_fw.mp4	0.0	285.22674083709717	2.500333070755005
27	165.28859901428223	pulse	1	t		25.0	2.5	/experiments/knapen_AOT/AOT_stimuli/rescaled_final/0664_fw.mp4	0.0	286.41045093536377	
27	166.60522198677063	fix_post	2		12	25.0	2.5	/experiments/knapen_AOT/AOT_stimuli/rescaled_final/0664_fw.mp4	0.0	287.7270739078522	0.10001492500305176
28	166.70523691177368	fix_pre	0		120	26.0	2.5	blank	1.0	287.8270888328552	1.0001189708709717
28	166.88877892494202	pulse	0	t		26.0	2.5	blank	1.0	288.01063084602356	
28	167.70535588264465	movie	1		300	26.0	2.5	blank	1.0	288.8272078037262	2.5004050731658936
28	168.4891700744629	pulse	1	t		26.0	2.5	blank	1.0	289.61102199554443	
28	170.08929204940796	pulse	1	t		26.0	2.5	blank	1.0	291.2111439704895	
28	170.20576095581055	fix_post	2		12	26.0	2.5	blank	1.0	291.3276128768921	0.100006103515625
29	170.30576705932617	fix_pre	0		120	27.0	2.5	/experiments/knapen_AOT/AOT_stimuli/rescaled_final/1452_fw.mp4	0.0	291.4276189804077	1.000187873840332
29	171.3059549331665	movie	1		242	27.0	2.5	/experiments/knapen_AOT/AOT_stimuli/rescaled_final/1452_fw.mp4	0.0	292.42780685424805	2.4919991493225098
29	171.6901249885559	pulse	1	t		27.0	2.5	/experiments/knapen_AOT/AOT_stimuli/rescaled_final/1452_fw.mp4	0.0	292.81197690963745	
29	173.28971791267395	pulse	1	t		27.0	2.5	/experiments/knapen_AOT/AOT_stimuli/rescaled_final/1452_fw.mp4	0.0	294.4115698337555	
29	173.797954082489	fix_post	2		12	27.0	2.5	/experiments/knapen_AOT/AOT_stimuli/rescaled_final/1452_fw.mp4	0.0	294.91980600357056	0.10004782676696777
30	173.89800190925598	fix_pre	0		120	28.0	2.5	/experiments/knapen_AOT/AOT_stimuli/rescaled_final/1547_rv.mp4	0.0	295.0198538303375	1.0001451969146729
30	174.89005708694458	pulse	0	t		28.0	2.5	/experiments/knapen_AOT/AOT_stimuli/rescaled_final/1547_rv.mp4	0.0	296.0119090080261	
30	174.89814710617065	movie	1		246	28.0	2.5	/experiments/knapen_AOT/AOT_stimuli/rescaled_final/1547_rv.mp4	0.0	296.0199990272522	2.5086498260498047
30	176.49494099617004	pulse	1	t		28.0	2.5	/experiments/knapen_AOT/AOT_stimuli/rescaled_final/1547_rv.mp4	0.0	297.6167929172516	
30	177.40679693222046	fix_post	2		12	28.0	2.5	/experiments/knapen_AOT/AOT_stimuli/rescaled_final/1547_rv.mp4	0.0	298.528648853302	0.10004115104675293
31	177.5068380832672	fix_pre	0		120	29.0	2.5	/experiments/knapen_AOT/AOT_stimuli/rescaled_final/1368_fw.mp4	0.0	298.62869000434875	1.000243902206421
31	178.0904769897461	pulse	0	t		29.0	2.5	/experiments/knapen_AOT/AOT_stimuli/rescaled_final/1368_fw.mp4	0.0	299.21232891082764	
31	178.50708198547363	movie	1		243	29.0	2.5	/experiments/knapen_AOT/AOT_stimuli/rescaled_final/1368_fw.mp4	0.0	299.6289339065552	2.500269889831543
31	179.69079494476318	pulse	1	t		29.0	2.5	/experiments/knapen_AOT/AOT_stimuli/rescaled_final/1368_fw.mp4	0.0	300.8126468658447	
31	181.00735187530518	fix_post	2		12	29.0	2.5	/experiments/knapen_AOT/AOT_stimuli/rescaled_final/1368_fw.mp4	0.0	302.1292037963867	0.10007119178771973
32	181.1074230670929	fix_pre	0		120	30.0	2.5	/experiments/knapen_AOT/AOT_stimuli/rescaled_final/2138_rv.mp4	0.0	302.22927498817444	1.000121831893921
32	181.29093408584595	pulse	0	t		30.0	2.5	/experiments/knapen_AOT/AOT_stimuli/rescaled_final/2138_rv.mp4	0.0	302.4127860069275	
32	182.10754489898682	movie	1		244	30.0	2.5	/experiments/knapen_AOT/AOT_stimuli/rescaled_final/2138_rv.mp4	0.0	303.22939682006836	2.5004091262817383
32	182.8912649154663	pulse	1	t		30.0	2.5	/experiments/knapen_AOT/AOT_stimuli/rescaled_final/2138_rv.mp4	0.0	304.01311683654785	
32	184.49123001098633	pulse	1	t		30.0	2.5	/experiments/knapen_AOT/AOT_stimuli/rescaled_final/2138_rv.mp4	0.0	305.61308193206787	
32	184.60795402526855	fix_post	2		12	30.0	2.5	/experiments/knapen_AOT/AOT_stimuli/rescaled_final/2138_rv.mp4	0.0	305.7298059463501	0.0999898910522461
33	184.7079439163208	fix_pre	0		120	31.0	2.5	/experiments/knapen_AOT/AOT_stimuli/rescaled_final/0026_rv.mp4	0.0	305.82979583740234	1.000171184539795
33	185.7081151008606	movie	1		243	31.0	2.5	/experiments/knapen_AOT/AOT_stimuli/rescaled_final/0026_rv.mp4	0.0	306.82996702194214	2.491959810256958
33	186.09232997894287	pulse	1	t		31.0	2.5	/experiments/knapen_AOT/AOT_stimuli/rescaled_final/0026_rv.mp4	0.0	307.2141819000244	
33	187.69187593460083	pulse	1	t		31.0	2.5	/experiments/knapen_AOT/AOT_stimuli/rescaled_final/0026_rv.mp4	0.0	308.8137278556824	
33	188.20007491111755	fix_post	2		12	31.0	2.5	/experiments/knapen_AOT/AOT_stimuli/rescaled_final/0026_rv.mp4	0.0	309.3219268321991	0.10005307197570801
34	188.30012798309326	fix_pre	0		120	32.0	2.5	/experiments/knapen_AOT/AOT_stimuli/rescaled_final/0581_rv.mp4	0.0	309.4219799041748	1.0001308917999268
34	189.2922670841217	pulse	0	t		32.0	2.5	/experiments/knapen_AOT/AOT_stimuli/rescaled_final/0581_rv.mp4	0.0	310.41411900520325	
34	189.3002588748932	movie	1		245	32.0	2.5	/experiments/knapen_AOT/AOT_stimuli/rescaled_final/0581_rv.mp4	0.0	310.42211079597473	2.5087220668792725
34	190.8927788734436	pulse	1	t		32.0	2.5	/experiments/knapen_AOT/AOT_stimuli/rescaled_final/0581_rv.mp4	0.0	312.01463079452515	
34	191.80898094177246	fix_post	2		12	32.0	2.5	/experiments/knapen_AOT/AOT_stimuli/rescaled_final/0581_rv.mp4	0.0	312.930832862854	0.100006103515625
35	191.9089870452881	fix_pre	0		120	33.0	2.5	blank	1.0	313.03083896636963	1.0002009868621826
35	192.4925820827484	pulse	0	t		33.0	2.5	blank	1.0	313.61443400382996	
35	192.90918803215027	movie	1		300	33.0	2.5	blank	1.0	314.0310399532318	2.5003440380096436
35	194.09282207489014	pulse	1	t		33.0	2.5	blank	1.0	315.2146739959717	
35	195.4095320701599	fix_post	2		12	33.0	2.5	blank	1.0	316.53138399124146	0.09995293617248535
36	195.5094850063324	fix_pre	0		117	34.0	2.5	/experiments/knapen_AOT/AOT_stimuli/rescaled_final/0305_fw.mp4	0.0	316.63133692741394	1.0002210140228271
36	195.69306302070618	pulse	0	t		34.0	2.5	/experiments/knapen_AOT/AOT_stimuli/rescaled_final/0305_fw.mp4	0.0	316.8149149417877	
36	196.50970602035522	movie	1		243	34.0	2.5	/experiments/knapen_AOT/AOT_stimuli/rescaled_final/0305_fw.mp4	0.0	317.63155794143677	2.5003440380096436
36	197.29344391822815	pulse	1	t		34.0	2.5	/experiments/knapen_AOT/AOT_stimuli/rescaled_final/0305_fw.mp4	0.0	318.4152958393097	
36	198.89357209205627	pulse	1	t		34.0	2.5	/experiments/knapen_AOT/AOT_stimuli/rescaled_final/0305_fw.mp4	0.0	320.0154240131378	
36	199.01005005836487	fix_post	2		12	34.0	2.5	/experiments/knapen_AOT/AOT_stimuli/rescaled_final/0305_fw.mp4	0.0	320.1319019794464	0.10000991821289062
37	199.11005997657776	fix_pre	0		120	35.0	2.5	/experiments/knapen_AOT/AOT_stimuli/rescaled_final/2114_rv.mp4	0.0	320.2319118976593	1.0001769065856934
37	200.11023688316345	movie	1		244	35.0	2.5	/experiments/knapen_AOT/AOT_stimuli/rescaled_final/2114_rv.mp4	0.0	321.232088804245	2.4920132160186768
37	200.4948868751526	pulse	1	t		35.0	2.5	/experiments/knapen_AOT/AOT_stimuli/rescaled_final/2114_rv.mp4	0.0	321.61673879623413	
37	202.08680701255798	pulse	1	t		35.0	2.5	/experiments/knapen_AOT/AOT_stimuli/rescaled_final/2114_rv.mp4	0.0	323.2086589336395	
37	202.60225009918213	fix_post	2		12	35.0	2.5	/experiments/knapen_AOT/AOT_stimuli/rescaled_final/2114_rv.mp4	0.0	323.7241020202637	0.1000218391418457
38	202.70227193832397	fix_pre	0		120	36.0	2.5	/experiments/knapen_AOT/AOT_stimuli/rescaled_final/0250_fw.mp4	0.0	323.8241238594055	1.0001840591430664
38	203.68672704696655	pulse	0	t		36.0	2.5	/experiments/knapen_AOT/AOT_stimuli/rescaled_final/0250_fw.mp4	0.0	324.8085789680481	
38	203.70245599746704	movie	1		246	36.0	2.5	/experiments/knapen_AOT/AOT_stimuli/rescaled_final/0250_fw.mp4	0.0	324.8243079185486	2.5086669921875
38	205.29533410072327	pulse	1	t		36.0	2.5	/experiments/knapen_AOT/AOT_stimuli/rescaled_final/0250_fw.mp4	0.0	326.4171860218048	
38	206.21112298965454	fix_post	2		12	36.0	2.5	/experiments/knapen_AOT/AOT_stimuli/rescaled_final/0250_fw.mp4	0.0	327.3329749107361	0.10009598731994629
39	206.3112189769745	fix_pre	0		120	37.0	2.5	/experiments/knapen_AOT/AOT_stimuli/rescaled_final/1452_rv.mp4	0.0	327.43307089805603	1.000093936920166
39	206.88737797737122	pulse	0	t		37.0	2.5	/experiments/knapen_AOT/AOT_stimuli/rescaled_final/1452_rv.mp4	0.0	328.00922989845276	
39	207.31131291389465	movie	1		243	37.0	2.5	/experiments/knapen_AOT/AOT_stimuli/rescaled_final/1452_rv.mp4	0.0	328.4331648349762	2.5003581047058105
39	208.48731994628906	pulse	1	t		37.0	2.5	/experiments/knapen_AOT/AOT_stimuli/rescaled_final/1452_rv.mp4	0.0	329.6091718673706	
39	209.81167101860046	fix_post	2		12	37.0	2.5	/experiments/knapen_AOT/AOT_stimuli/rescaled_final/1452_rv.mp4	0.0	330.933522939682	0.10002899169921875
40	209.91170001029968	fix_pre	0		120	38.0	2.5	/experiments/knapen_AOT/AOT_stimuli/rescaled_final/1449_fw.mp4	0.0	331.0335519313812	1.0001630783081055
40	210.08691596984863	pulse	0	t		38.0	2.5	/experiments/knapen_AOT/AOT_stimuli/rescaled_final/1449_fw.mp4	0.0	331.2087678909302	
40	210.9118630886078	movie	1		246	38.0	2.5	/experiments/knapen_AOT/AOT_stimuli/rescaled_final/1449_fw.mp4	0.0	332.03371500968933	2.5003650188446045
40	211.6870720386505	pulse	1	t		38.0	2.5	/experiments/knapen_AOT/AOT_stimuli/rescaled_final/1449_fw.mp4	0.0	332.80892395973206	
40	213.2874939441681	pulse	1	t		38.0	2.5	/experiments/knapen_AOT/AOT_stimuli/rescaled_final/1449_fw.mp4	0.0	334.40934586524963	
40	213.4122281074524	fix_post	2		12	38.0	2.5	/experiments/knapen_AOT/AOT_stimuli/rescaled_final/1449_fw.mp4	0.0	334.53408002853394	0.10000395774841309
41	213.5122320652008	fix_pre	0		119	39.0	2.5	/experiments/knapen_AOT/AOT_stimuli/rescaled_final/1452_rv.mp4	0.0	334.63408398628235	0.9917960166931152
41	214.50402808189392	movie	1		244	39.0	2.5	/experiments/knapen_AOT/AOT_stimuli/rescaled_final/1452_rv.mp4	0.0	335.62588000297546	2.500379800796509
41	214.889004945755	pulse	1	t		39.0	2.5	/experiments/knapen_AOT/AOT_stimuli/rescaled_final/1452_rv.mp4	0.0	336.01085686683655	
41	216.48783993721008	pulse	1	t		39.0	2.5	/experiments/knapen_AOT/AOT_stimuli/rescaled_final/1452_rv.mp4	0.0	337.6096918582916	
41	217.00440788269043	fix_post	2		12	39.0	2.5	/experiments/knapen_AOT/AOT_stimuli/rescaled_final/1452_rv.mp4	0.0	338.126259803772	0.09997820854187012
42	217.1043860912323	fix_pre	0		119	40.0	2.5	/experiments/knapen_AOT/AOT_stimuli/rescaled_final/1320_fw.mp4	0.0	338.22623801231384	0.9918649196624756
42	218.08807802200317	pulse	0	t		40.0	2.5	/experiments/knapen_AOT/AOT_stimuli/rescaled_final/1320_fw.mp4	0.0	339.2099299430847	
42	218.09625101089478	movie	1		245	40.0	2.5	/experiments/knapen_AOT/AOT_stimuli/rescaled_final/1320_fw.mp4	0.0	339.2181029319763	2.508646011352539
42	219.68883991241455	pulse	1	t		40.0	2.5	/experiments/knapen_AOT/AOT_stimuli/rescaled_final/1320_fw.mp4	0.0	340.8106918334961	
42	220.60489702224731	fix_post	2		12	40.0	2.5	/experiments/knapen_AOT/AOT_stimuli/rescaled_final/1320_fw.mp4	0.0	341.72674894332886	0.1000828742980957
43	220.7049798965454	fix_pre	0		120	41.0	2.5	blank	1.0	341.82683181762695	1.0001270771026611
43	221.28859901428223	pulse	0	t		41.0	2.5	blank	1.0	342.41045093536377	
43	221.70510697364807	movie	1		300	41.0	2.5	blank	1.0	342.8269588947296	2.5003859996795654
43	222.88876795768738	pulse	1	t		41.0	2.5	blank	1.0	344.0106198787689	
43	224.20549297332764	fix_post	2		12	41.0	2.5	blank	1.0	345.3273448944092	0.09997892379760742
44	224.30547189712524	fix_pre	0		120	42.0	2.5	/experiments/knapen_AOT/AOT_stimuli/rescaled_final/1489_rv.mp4	0.0	345.4273238182068	1.0001721382141113
44	224.48908805847168	pulse	0	t		42.0	2.5	/experiments/knapen_AOT/AOT_stimuli/rescaled_final/1489_rv.mp4	0.0	345.6109399795532	
44	225.30564403533936	movie	1		245	42.0	2.5	/experiments/knapen_AOT/AOT_stimuli/rescaled_final/1489_rv.mp4	0.0	346.4274959564209	2.5003440380096436
44	226.0892629623413	pulse	1	t		42.0	2.5	/experiments/knapen_AOT/AOT_stimuli/rescaled_final/1489_rv.mp4	0.0	347.21111488342285	
44	227.68955087661743	pulse	1	t		42.0	2.5	/experiments/knapen_AOT/AOT_stimuli/rescaled_final/1489_rv.mp4	0.0	348.811402797699	
44	227.805988073349	fix_post	2		12	42.0	2.5	/experiments/knapen_AOT/AOT_stimuli/rescaled_final/1489_rv.mp4	0.0	348.92783999443054	0.10002779960632324
45	227.90601587295532	fix_pre	0		119	43.0	2.5	/experiments/knapen_AOT/AOT_stimuli/rescaled_final/1572_fw.mp4	0.0	349.02786779403687	0.991826057434082
45	228.8978419303894	movie	1		244	43.0	2.5	/experiments/knapen_AOT/AOT_stimuli/rescaled_final/1572_fw.mp4	0.0	350.01969385147095	2.5004310607910156
45	229.28983688354492	pulse	1	t		43.0	2.5	/experiments/knapen_AOT/AOT_stimuli/rescaled_final/1572_fw.mp4	0.0	350.41168880462646	
45	230.8900969028473	pulse	1	t		43.0	2.5	/experiments/knapen_AOT/AOT_stimuli/rescaled_final/1572_fw.mp4	0.0	352.01194882392883	
45	231.39827299118042	fix_post	2		12	43.0	2.5	/experiments/knapen_AOT/AOT_stimuli/rescaled_final/1572_fw.mp4	0.0	352.52012491226196	0.09993791580200195
46	231.49821090698242	fix_pre	0		120	44.0	2.5	/experiments/knapen_AOT/AOT_stimuli/rescaled_final/0361_fw.mp4	0.0	352.62006282806396	1.0001871585845947
46	232.4902539253235	pulse	0	t		44.0	2.5	/experiments/knapen_AOT/AOT_stimuli/rescaled_final/0361_fw.mp4	0.0	353.61210584640503	
46	232.49839806556702	movie	1		246	44.0	2.5	/experiments/knapen_AOT/AOT_stimuli/rescaled_final/0361_fw.mp4	0.0	353.62024998664856	2.5087029933929443
46	234.09465193748474	pulse	1	t		44.0	2.5	/experiments/knapen_AOT/AOT_stimuli/rescaled_final/0361_fw.mp4	0.0	355.2165038585663	
46	235.00710105895996	fix_post	2		12	44.0	2.5	/experiments/knapen_AOT/AOT_stimuli/rescaled_final/0361_fw.mp4	0.0	356.1289529800415	0.1000218391418457
47	235.1071228981018	fix_pre	0		120	45.0	2.5	/experiments/knapen_AOT/AOT_stimuli/rescaled_final/0225_fw.mp4	0.0	356.22897481918335	1.0001912117004395
47	235.69068002700806	pulse	0	t		45.0	2.5	/experiments/knapen_AOT/AOT_stimuli/rescaled_final/0225_fw.mp4	0.0	356.8125319480896	
47	236.10731410980225	movie	1		243	45.0	2.5	/experiments/knapen_AOT/AOT_stimuli/rescaled_final/0225_fw.mp4	0.0	357.2291660308838	2.5002808570861816
47	237.29110503196716	pulse	1	t		45.0	2.5	/experiments/knapen_AOT/AOT_stimuli/rescaled_final/0225_fw.mp4	0.0	358.4129569530487	
47	238.60759496688843	fix_post	2		12	45.0	2.5	/experiments/knapen_AOT/AOT_stimuli/rescaled_final/0225_fw.mp4	0.0	359.72944688796997	0.10003805160522461
48	238.70763301849365	fix_pre	0		120	46.0	2.5	/experiments/knapen_AOT/AOT_stimuli/rescaled_final/1043_fw.mp4	0.0	359.8294849395752	1.000114917755127
48	238.89122891426086	pulse	0	t		46.0	2.5	/experiments/knapen_AOT/AOT_stimuli/rescaled_final/1043_fw.mp4	0.0	360.0130808353424	
48	239.70774793624878	movie	1		245	46.0	2.5	/experiments/knapen_AOT/AOT_stimuli/rescaled_final/1043_fw.mp4	0.0	360.8295998573303	2.500385046005249
48	240.4914128780365	pulse	1	t		46.0	2.5	/experiments/knapen_AOT/AOT_stimuli/rescaled_final/1043_fw.mp4	0.0	361.61326479911804	
48	242.08944010734558	pulse	1	t		46.0	2.5	/experiments/knapen_AOT/AOT_stimuli/rescaled_final/1043_fw.mp4	0.0	363.2112920284271	
48	242.20813298225403	fix_post	2		12	46.0	2.5	/experiments/knapen_AOT/AOT_stimuli/rescaled_final/1043_fw.mp4	0.0	363.32998490333557	0.1000220775604248
49	242.30815505981445	fix_pre	0		119	47.0	2.5	/experiments/knapen_AOT/AOT_stimuli/rescaled_final/1456_fw.mp4	0.0	363.430006980896	0.991797924041748
49	243.2999529838562	movie	1		243	47.0	2.5	/experiments/knapen_AOT/AOT_stimuli/rescaled_final/1456_fw.mp4	0.0	364.42180490493774	2.500380039215088
49	243.6921079158783	pulse	1	t		47.0	2.5	/experiments/knapen_AOT/AOT_stimuli/rescaled_final/1456_fw.mp4	0.0	364.81395983695984	
49	245.29226207733154	pulse	1	t		47.0	2.5	/experiments/knapen_AOT/AOT_stimuli/rescaled_final/1456_fw.mp4	0.0	366.4141139984131	
49	245.8003330230713	fix_post	2		12	47.0	2.5	/experiments/knapen_AOT/AOT_stimuli/rescaled_final/1456_fw.mp4	0.0	366.92218494415283	0.10003805160522461
50	245.9003710746765	fix_pre	0		120	48.0	2.5	/experiments/knapen_AOT/AOT_stimuli/rescaled_final/1010_fw.mp4	0.0	367.02222299575806	1.0001449584960938
50	246.89245009422302	pulse	0	t		48.0	2.5	/experiments/knapen_AOT/AOT_stimuli/rescaled_final/1010_fw.mp4	0.0	368.01430201530457	
50	246.9005160331726	movie	1		245	48.0	2.5	/experiments/knapen_AOT/AOT_stimuli/rescaled_final/1010_fw.mp4	0.0	368.02236795425415	2.5087389945983887
50	248.4928479194641	pulse	1	t		48.0	2.5	/experiments/knapen_AOT/AOT_stimuli/rescaled_final/1010_fw.mp4	0.0	369.61469984054565	
50	249.409255027771	fix_post	2		12	48.0	2.5	/experiments/knapen_AOT/AOT_stimuli/rescaled_final/1010_fw.mp4	0.0	370.53110694885254	0.09999489784240723
51	249.5092499256134	fix_pre	0		120	49.0	2.5	blank	1.0	370.63110184669495	1.0001490116119385
51	250.09292602539062	pulse	0	t		49.0	2.5	blank	1.0	371.21477794647217	
51	250.50939893722534	movie	1		300	49.0	2.5	blank	1.0	371.6312508583069	2.5003621578216553
51	251.69319105148315	pulse	1	t		49.0	2.5	blank	1.0	372.8150429725647	
51	253.009761095047	fix_post	2		12	49.0	2.5	blank	1.0	374.13161301612854	0.1000368595123291
52	253.10979795455933	fix_pre	0		120	50.0	2.5	/experiments/knapen_AOT/AOT_stimuli/rescaled_final/1708_rv.mp4	0.0	374.23164987564087	1.0001521110534668
52	253.2934000492096	pulse	0	t		50.0	2.5	/experiments/knapen_AOT/AOT_stimuli/rescaled_final/1708_rv.mp4	0.0	374.41525197029114	
52	254.1099500656128	movie	1		244	50.0	2.5	/experiments/knapen_AOT/AOT_stimuli/rescaled_final/1708_rv.mp4	0.0	375.23180198669434	2.5003139972686768
52	254.8935809135437	pulse	1	t		50.0	2.5	/experiments/knapen_AOT/AOT_stimuli/rescaled_final/1708_rv.mp4	0.0	376.01543283462524	
52	256.49393010139465	pulse	1	t		50.0	2.5	/experiments/knapen_AOT/AOT_stimuli/rescaled_final/1708_rv.mp4	0.0	377.6157820224762	
52	256.61026406288147	fix_post	2		12	50.0	2.5	/experiments/knapen_AOT/AOT_stimuli/rescaled_final/1708_rv.mp4	0.0	377.732115983963	0.10004591941833496
53	256.7103099822998	fix_pre	0		119	51.0	2.5	/experiments/knapen_AOT/AOT_stimuli/rescaled_final/1493_rv.mp4	0.0	377.83216190338135	1.0001530647277832
53	257.7104630470276	movie	1		244	51.0	2.5	/experiments/knapen_AOT/AOT_stimuli/rescaled_final/1493_rv.mp4	0.0	378.83231496810913	2.4920148849487305
53	258.09450602531433	pulse	1	t		51.0	2.5	/experiments/knapen_AOT/AOT_stimuli/rescaled_final/1493_rv.mp4	0.0	379.2163579463959	
53	259.68702006340027	pulse	1	t		51.0	2.5	/experiments/knapen_AOT/AOT_stimuli/rescaled_final/1493_rv.mp4	0.0	380.8088719844818	
53	260.2024779319763	fix_post	2		12	51.0	2.5	/experiments/knapen_AOT/AOT_stimuli/rescaled_final/1493_rv.mp4	0.0	381.32432985305786	0.10002613067626953
54	260.3025040626526	fix_pre	0		120	52.0	2.5	/experiments/knapen_AOT/AOT_stimuli/rescaled_final/0914_fw.mp4	0.0	381.42435598373413	1.000166893005371
54	261.28710293769836	pulse	0	t		52.0	2.5	/experiments/knapen_AOT/AOT_stimuli/rescaled_final/0914_fw.mp4	0.0	382.4089548587799	
54	261.30267095565796	movie	1		248	52.0	2.5	/experiments/knapen_AOT/AOT_stimuli/rescaled_final/0914_fw.mp4	0.0	382.4245228767395	2.5086851119995117
54	262.89607310295105	pulse	1	t		52.0	2.5	/experiments/knapen_AOT/AOT_stimuli/rescaled_final/0914_fw.mp4	0.0	384.0179250240326	
54	263.81135606765747	fix_post	2		12	52.0	2.5	/experiments/knapen_AOT/AOT_stimuli/rescaled_final/0914_fw.mp4	0.0	384.933207988739	0.10004687309265137
55	263.9114029407501	fix_pre	0		120	53.0	2.5	/experiments/knapen_AOT/AOT_stimuli/rescaled_final/0064_rv.mp4	0.0	385.03325486183167	1.0001389980316162
55	264.4866828918457	pulse	0	t		53.0	2.5	/experiments/knapen_AOT/AOT_stimuli/rescaled_final/0064_rv.mp4	0.0	385.60853481292725	
55	264.91154193878174	movie	1		245	53.0	2.5	/experiments/knapen_AOT/AOT_stimuli/rescaled_final/0064_rv.mp4	0.0	386.0333938598633	2.5004000663757324
55	266.0878930091858	pulse	1	t		53.0	2.5	/experiments/knapen_AOT/AOT_stimuli/rescaled_final/0064_rv.mp4	0.0	387.20974493026733	
55	267.41194200515747	fix_post	2		12	53.0	2.5	/experiments/knapen_AOT/AOT_stimuli/rescaled_final/0064_rv.mp4	0.0	388.533793926239	0.09999799728393555
56	267.5119400024414	fix_pre	0		120	54.0	2.5	/experiments/knapen_AOT/AOT_stimuli/rescaled_final/0760_rv.mp4	0.0	388.63379192352295	1.0001740455627441
56	267.6872720718384	pulse	0	t		54.0	2.5	/experiments/knapen_AOT/AOT_stimuli/rescaled_final/0760_rv.mp4	0.0	388.8091239929199	
56	268.51211404800415	movie	1		250	54.0	2.5	/experiments/knapen_AOT/AOT_stimuli/rescaled_final/0760_rv.mp4	0.0	389.6339659690857	2.5002999305725098
56	269.2875978946686	pulse	1	t		54.0	2.5	/experiments/knapen_AOT/AOT_stimuli/rescaled_final/0760_rv.mp4	0.0	390.4094498157501	
56	270.8876368999481	pulse	1	t		54.0	2.5	/experiments/knapen_AOT/AOT_stimuli/rescaled_final/0760_rv.mp4	0.0	392.00948882102966	
56	271.01241397857666	fix_post	2		12	54.0	2.5	/experiments/knapen_AOT/AOT_stimuli/rescaled_final/0760_rv.mp4	0.0	392.1342658996582	0.10007095336914062
57	271.1124849319458	fix_pre	0		119	55.0	2.5	/experiments/knapen_AOT/AOT_stimuli/rescaled_final/0476_rv.mp4	0.0	392.23433685302734	0.9918031692504883
57	272.1042881011963	movie	1		247	55.0	2.5	/experiments/knapen_AOT/AOT_stimuli/rescaled_final/0476_rv.mp4	0.0	393.22614002227783	2.500342845916748
57	272.48830795288086	pulse	1	t		55.0	2.5	/experiments/knapen_AOT/AOT_stimuli/rescaled_final/0476_rv.mp4	0.0	393.6101598739624	
57	274.08810210227966	pulse	1	t		55.0	2.5	/experiments/knapen_AOT/AOT_stimuli/rescaled_final/0476_rv.mp4	0.0	395.2099540233612	
57	274.60463094711304	fix_post	2		12	55.0	2.5	/experiments/knapen_AOT/AOT_stimuli/rescaled_final/0476_rv.mp4	0.0	395.7264828681946	0.10008811950683594
58	274.7047190666199	fix_pre	0		119	56.0	2.5	blank	1.0	395.8265709877014	0.9917500019073486
58	275.6883409023285	pulse	0	t		56.0	2.5	blank	1.0	396.81019282341003	
58	275.6964690685272	movie	1		301	56.0	2.5	blank	1.0	396.81832098960876	2.508760929107666
58	277.28860902786255	pulse	1	t		56.0	2.5	blank	1.0	398.4104609489441	
58	278.2052299976349	fix_post	2		12	56.0	2.5	blank	1.0	399.32708191871643	0.09995889663696289
59	278.30518889427185	fix_pre	0		120	57.0	2.5	/experiments/knapen_AOT/AOT_stimuli/rescaled_final/1621_rv.mp4	0.0	399.4270408153534	1.000169038772583
59	278.8887450695038	pulse	0	t		57.0	2.5	/experiments/knapen_AOT/AOT_stimuli/rescaled_final/1621_rv.mp4	0.0	400.0105969905853	
59	279.30535793304443	movie	1		244	57.0	2.5	/experiments/knapen_AOT/AOT_stimuli/rescaled_final/1621_rv.mp4	0.0	400.427209854126	2.5003581047058105
59	280.489187002182	pulse	1	t		57.0	2.5	/experiments/knapen_AOT/AOT_stimuli/rescaled_final/1621_rv.mp4	0.0	401.61103892326355	
59	281.80571603775024	fix_post	2		12	57.0	2.5	/experiments/knapen_AOT/AOT_stimuli/rescaled_final/1621_rv.mp4	0.0	402.9275679588318	0.10000991821289062
60	281.90572595596313	fix_pre	0		120	58.0	2.5	/experiments/knapen_AOT/AOT_stimuli/rescaled_final/1258_fw.mp4	0.0	403.0275778770447	1.0001509189605713
60	282.08928203582764	pulse	0	t		58.0	2.5	/experiments/knapen_AOT/AOT_stimuli/rescaled_final/1258_fw.mp4	0.0	403.2111339569092	
60	282.9058768749237	movie	1		247	58.0	2.5	/experiments/knapen_AOT/AOT_stimuli/rescaled_final/1258_fw.mp4	0.0	404.02772879600525	2.5003981590270996
60	283.6895959377289	pulse	1	t		58.0	2.5	/experiments/knapen_AOT/AOT_stimuli/rescaled_final/1258_fw.mp4	0.0	404.8114478588104	
60	285.2896990776062	pulse	1	t		58.0	2.5	/experiments/knapen_AOT/AOT_stimuli/rescaled_final/1258_fw.mp4	0.0	406.41155099868774	
60	285.4062750339508	fix_post	2		12	58.0	2.5	/experiments/knapen_AOT/AOT_stimuli/rescaled_final/1258_fw.mp4	0.0	406.52812695503235	0.09998703002929688
61	285.5062620639801	fix_pre	0		120	59.0	2.5	/experiments/knapen_AOT/AOT_stimuli/rescaled_final/1996_fw.mp4	0.0	406.62811398506165	1.0001590251922607
61	286.50642108917236	movie	1		243	59.0	2.5	/experiments/knapen_AOT/AOT_stimuli/rescaled_final/1996_fw.mp4	0.0	407.6282730102539	2.4920129776000977
61	286.891154050827	pulse	1	t		59.0	2.5	/experiments/knapen_AOT/AOT_stimuli/rescaled_final/1996_fw.mp4	0.0	408.01300597190857	
61	288.4903509616852	pulse	1	t		59.0	2.5	/experiments/knapen_AOT/AOT_stimuli/rescaled_final/1996_fw.mp4	0.0	409.6122028827667	
61	288.99843406677246	fix_post	2		12	59.0	2.5	/experiments/knapen_AOT/AOT_stimuli/rescaled_final/1996_fw.mp4	0.0	410.120285987854	0.10006284713745117
62	289.0984969139099	fix_pre	0		120	60.0	2.5	/experiments/knapen_AOT/AOT_stimuli/rescaled_final/0814_fw.mp4	0.0	410.22034883499146	1.0001320838928223
62	290.09047508239746	pulse	0	t		60.0	2.5	/experiments/knapen_AOT/AOT_stimuli/rescaled_final/0814_fw.mp4	0.0	411.212327003479	
62	290.09862899780273	movie	1		247	60.0	2.5	/experiments/knapen_AOT/AOT_stimuli/rescaled_final/0814_fw.mp4	0.0	411.2204809188843	2.508671998977661
62	291.69504404067993	pulse	1	t		60.0	2.5	/experiments/knapen_AOT/AOT_stimuli/rescaled_final/0814_fw.mp4	0.0	412.8168959617615	
62	292.6073009967804	fix_post	2		12	60.0	2.5	/experiments/knapen_AOT/AOT_stimuli/rescaled_final/0814_fw.mp4	0.0	413.72915291786194	0.10004806518554688
63	292.70734906196594	fix_pre	0		120	61.0	2.5	/experiments/knapen_AOT/AOT_stimuli/rescaled_final/0090_fw.mp4	0.0	413.8292009830475	1.0001819133758545
63	293.29104709625244	pulse	0	t		61.0	2.5	/experiments/knapen_AOT/AOT_stimuli/rescaled_final/0090_fw.mp4	0.0	414.412899017334	
63	293.7075309753418	movie	1		246	61.0	2.5	/experiments/knapen_AOT/AOT_stimuli/rescaled_final/0090_fw.mp4	0.0	414.82938289642334	2.500339984893799
63	294.8913929462433	pulse	1	t		61.0	2.5	/experiments/knapen_AOT/AOT_stimuli/rescaled_final/0090_fw.mp4	0.0	416.01324486732483	
63	296.2078709602356	fix_post	2		12	61.0	2.5	/experiments/knapen_AOT/AOT_stimuli/rescaled_final/0090_fw.mp4	0.0	417.32972288131714	0.09998106956481934
64	296.3078520298004	fix_pre	0		120	62.0	2.5	/experiments/knapen_AOT/AOT_stimuli/rescaled_final/1461_rv.mp4	0.0	417.42970395088196	1.0001490116119385
64	296.4915680885315	pulse	0	t		62.0	2.5	/experiments/knapen_AOT/AOT_stimuli/rescaled_final/1461_rv.mp4	0.0	417.61342000961304	
64	297.30800104141235	movie	1		245	62.0	2.5	/experiments/knapen_AOT/AOT_stimuli/rescaled_final/1461_rv.mp4	0.0	418.4298529624939	2.5004000663757324
64	298.09175300598145	pulse	1	t		62.0	2.5	/experiments/knapen_AOT/AOT_stimuli/rescaled_final/1461_rv.mp4	0.0	419.213604927063	
64	299.692018032074	pulse	1	t		62.0	2.5	/experiments/knapen_AOT/AOT_stimuli/rescaled_final/1461_rv.mp4	0.0	420.8138699531555	
64	299.8084011077881	fix_post	2		12	62.0	2.5	/experiments/knapen_AOT/AOT_stimuli/rescaled_final/1461_rv.mp4	0.0	420.93025302886963	0.10000491142272949
65	299.9084060192108	fix_pre	0		120	63.0	2.5	blank	1.0	421.03025794029236	1.000154972076416
65	300.90856099128723	movie	1		299	63.0	2.5	blank	1.0	422.0304129123688	2.492060899734497
65	301.2921380996704	pulse	1	t		63.0	2.5	blank	1.0	422.41399002075195	
65	302.8924911022186	pulse	1	t		63.0	2.5	blank	1.0	424.01434302330017	
65	303.40062189102173	fix_post	2		12	63.0	2.5	blank	1.0	424.52247381210327	0.10000920295715332
66	303.5006310939789	fix_pre	0		120	64.0	2.5	/experiments/knapen_AOT/AOT_stimuli/rescaled_final/1863_fw.mp4	0.0	424.6224830150604	1.0001227855682373
66	304.4926989078522	pulse	0	t		64.0	2.5	/experiments/knapen_AOT/AOT_stimuli/rescaled_final/1863_fw.mp4	0.0	425.6145508289337	
66	304.5007538795471	movie	1		246	64.0	2.5	/experiments/knapen_AOT/AOT_stimuli/rescaled_final/1863_fw.mp4	0.0	425.62260580062866	2.5086920261383057
66	306.09355306625366	pulse	1	t		64.0	2.5	/experiments/knapen_AOT/AOT_stimuli/rescaled_final/1863_fw.mp4	0.0	427.2154049873352	
66	307.0094459056854	fix_post	2		12	64.0	2.5	/experiments/knapen_AOT/AOT_stimuli/rescaled_final/1863_fw.mp4	0.0	428.13129782676697	0.1000370979309082
67	307.10948300361633	fix_pre	0		120	65.0	2.5	/experiments/knapen_AOT/AOT_stimuli/rescaled_final/1159_rv.mp4	0.0	428.2313349246979	1.000187873840332
67	307.693146944046	pulse	0	t		65.0	2.5	/experiments/knapen_AOT/AOT_stimuli/rescaled_final/1159_rv.mp4	0.0	428.81499886512756	
67	308.10967087745667	movie	1		245	65.0	2.5	/experiments/knapen_AOT/AOT_stimuli/rescaled_final/1159_rv.mp4	0.0	429.2315227985382	2.500296115875244
67	309.28928399086	pulse	1	t		65.0	2.5	/experiments/knapen_AOT/AOT_stimuli/rescaled_final/1159_rv.mp4	0.0	430.4111359119415	
67	310.6099669933319	fix_post	2		12	65.0	2.5	/experiments/knapen_AOT/AOT_stimuli/rescaled_final/1159_rv.mp4	0.0	431.73181891441345	0.10006403923034668
68	310.71003103256226	fix_pre	0		120	66.0	2.5	/experiments/knapen_AOT/AOT_stimuli/rescaled_final/0030_rv.mp4	0.0	431.8318829536438	1.000140905380249
68	310.8936140537262	pulse	0	t		66.0	2.5	/experiments/knapen_AOT/AOT_stimuli/rescaled_final/0030_rv.mp4	0.0	432.01546597480774	
68	311.7101719379425	movie	1		246	66.0	2.5	/experiments/knapen_AOT/AOT_stimuli/rescaled_final/0030_rv.mp4	0.0	432.83202385902405	2.5003950595855713
68	312.49378204345703	pulse	1	t		66.0	2.5	/experiments/knapen_AOT/AOT_stimuli/rescaled_final/0030_rv.mp4	0.0	433.6156339645386	
68	314.0943229198456	pulse	1	t		66.0	2.5	/experiments/knapen_AOT/AOT_stimuli/rescaled_final/0030_rv.mp4	0.0	435.2161748409271	
68	314.2105669975281	fix_post	2		12	66.0	2.5	/experiments/knapen_AOT/AOT_stimuli/rescaled_final/0030_rv.mp4	0.0	435.3324189186096	0.09999489784240723
69	314.3105618953705	fix_pre	0		117	67.0	2.5	/experiments/knapen_AOT/AOT_stimuli/rescaled_final/0506_rv.mp4	0.0	435.432413816452	1.0001490116119385
69	315.3107109069824	movie	1		244	67.0	2.5	/experiments/knapen_AOT/AOT_stimuli/rescaled_final/0506_rv.mp4	0.0	436.43256282806396	2.4920480251312256
69	315.69483399391174	pulse	1	t		67.0	2.5	/experiments/knapen_AOT/AOT_stimuli/rescaled_final/0506_rv.mp4	0.0	436.8166859149933	
69	317.2873179912567	pulse	1	t		67.0	2.5	/experiments/knapen_AOT/AOT_stimuli/rescaled_final/0506_rv.mp4	0.0	438.40916991233826	
69	317.80275893211365	fix_post	2		12	67.0	2.5	/experiments/knapen_AOT/AOT_stimuli/rescaled_final/0506_rv.mp4	0.0	438.9246108531952	0.10001015663146973
70	317.9027690887451	fix_pre	0		120	68.0	2.5	/experiments/knapen_AOT/AOT_stimuli/rescaled_final/0803_rv.mp4	0.0	439.02462100982666	1.0001559257507324
70	318.88732290267944	pulse	0	t		68.0	2.5	/experiments/knapen_AOT/AOT_stimuli/rescaled_final/0803_rv.mp4	0.0	440.009174823761	
70	318.90292501449585	movie	1		244	68.0	2.5	/experiments/knapen_AOT/AOT_stimuli/rescaled_final/0803_rv.mp4	0.0	440.0247769355774	2.508708953857422
70	320.4958140850067	pulse	1	t		68.0	2.5	/experiments/knapen_AOT/AOT_stimuli/rescaled_final/0803_rv.mp4	0.0	441.61766600608826	
70	321.41163396835327	fix_post	2		12	68.0	2.5	/experiments/knapen_AOT/AOT_stimuli/rescaled_final/0803_rv.mp4	0.0	442.5334858894348	0.10004401206970215
71	321.511677980423	fix_pre	0		120	69.0	2.5	blank	1.0	442.6335299015045	1.0000989437103271
71	322.0877330303192	pulse	0	t		69.0	2.5	blank	1.0	443.20958495140076	
71	322.5117769241333	movie	1		300	69.0	2.5	blank	1.0	443.63362884521484	2.5004160404205322
71	323.687952041626	pulse	1	t		69.0	2.5	blank	1.0	444.8098039627075	
71	325.01219296455383	fix_post	2		12	69.0	2.5	blank	1.0	446.1340448856354	0.0999901294708252
72	325.11218309402466	fix_pre	0		120	70.0	2.5	/experiments/knapen_AOT/AOT_stimuli/rescaled_final/1892_fw.mp4	0.0	446.2340350151062	1.0002069473266602
72	325.28737688064575	pulse	0	t		70.0	2.5	/experiments/knapen_AOT/AOT_stimuli/rescaled_final/1892_fw.mp4	0.0	446.4092288017273	
72	326.1123900413513	movie	1		244	70.0	2.5	/experiments/knapen_AOT/AOT_stimuli/rescaled_final/1892_fw.mp4	0.0	447.23424196243286	2.500311851501465
72	326.8875560760498	pulse	1	t		70.0	2.5	/experiments/knapen_AOT/AOT_stimuli/rescaled_final/1892_fw.mp4	0.0	448.00940799713135	
72	328.48791790008545	pulse	1	t		70.0	2.5	/experiments/knapen_AOT/AOT_stimuli/rescaled_final/1892_fw.mp4	0.0	449.609769821167	
72	328.6127018928528	fix_post	2		12	70.0	2.5	/experiments/knapen_AOT/AOT_stimuli/rescaled_final/1892_fw.mp4	0.0	449.7345538139343	0.10002613067626953
73	328.71272802352905	fix_pre	0		119	71.0	2.5	/experiments/knapen_AOT/AOT_stimuli/rescaled_final/1741_fw.mp4	0.0	449.8345799446106	0.9917938709259033
73	329.70452189445496	movie	1		244	71.0	2.5	/experiments/knapen_AOT/AOT_stimuli/rescaled_final/1741_fw.mp4	0.0	450.8263738155365	2.5003721714019775
73	330.08851289749146	pulse	1	t		71.0	2.5	/experiments/knapen_AOT/AOT_stimuli/rescaled_final/1741_fw.mp4	0.0	451.210364818573	
73	331.68841910362244	pulse	1	t		71.0	2.5	/experiments/knapen_AOT/AOT_stimuli/rescaled_final/1741_fw.mp4	0.0	452.810271024704	
73	332.20489406585693	fix_post	2		12	71.0	2.5	/experiments/knapen_AOT/AOT_stimuli/rescaled_final/1741_fw.mp4	0.0	453.3267459869385	0.10003399848937988
74	332.3049280643463	fix_pre	0		119	72.0	2.5	/experiments/knapen_AOT/AOT_stimuli/rescaled_final/0469_fw.mp4	0.0	453.42677998542786	0.9917969703674316
74	333.2886219024658	pulse	0	t		72.0	2.5	/experiments/knapen_AOT/AOT_stimuli/rescaled_final/0469_fw.mp4	0.0	454.41047382354736	
74	333.29672503471375	movie	1		245	72.0	2.5	/experiments/knapen_AOT/AOT_stimuli/rescaled_final/0469_fw.mp4	0.0	454.4185769557953	2.5086770057678223
74	334.88998007774353	pulse	1	t		72.0	2.5	/experiments/knapen_AOT/AOT_stimuli/rescaled_final/0469_fw.mp4	0.0	456.0118319988251	
74	335.80540204048157	fix_post	2		12	72.0	2.5	/experiments/knapen_AOT/AOT_stimuli/rescaled_final/0469_fw.mp4	0.0	456.9272539615631	0.10007405281066895
75	335.90547609329224	fix_pre	0		120	73.0	2.5	/experiments/knapen_AOT/AOT_stimuli/rescaled_final/0696_fw.mp4	0.0	457.0273280143738	1.0001499652862549
75	336.4891290664673	pulse	0	t		73.0	2.5	/experiments/knapen_AOT/AOT_stimuli/rescaled_final/0696_fw.mp4	0.0	457.6109809875488	
75	336.9056260585785	movie	1		243	73.0	2.5	/experiments/knapen_AOT/AOT_stimuli/rescaled_final/0696_fw.mp4	0.0	458.02747797966003	2.5003528594970703
75	338.08945202827454	pulse	1	t		73.0	2.5	/experiments/knapen_AOT/AOT_stimuli/rescaled_final/0696_fw.mp4	0.0	459.2113039493561	
75	339.40597891807556	fix_post	2		12	73.0	2.5	/experiments/knapen_AOT/AOT_stimuli/rescaled_final/0696_fw.mp4	0.0	460.5278308391571	0.09998202323913574
76	339.5059609413147	fix_pre	0		120	74.0	2.5	/experiments/knapen_AOT/AOT_stimuli/rescaled_final/0291_fw.mp4	0.0	460.62781286239624	1.000230073928833
76	339.68953490257263	pulse	0	t		74.0	2.5	/experiments/knapen_AOT/AOT_stimuli/rescaled_final/0291_fw.mp4	0.0	460.8113868236542	
76	340.50619101524353	movie	1		245	74.0	2.5	/experiments/knapen_AOT/AOT_stimuli/rescaled_final/0291_fw.mp4	0.0	461.6280429363251	2.5002729892730713
76	341.2898619174957	pulse	1	t		74.0	2.5	/experiments/knapen_AOT/AOT_stimuli/rescaled_final/0291_fw.mp4	0.0	462.41171383857727	
76	342.89014410972595	pulse	1	t		74.0	2.5	/experiments/knapen_AOT/AOT_stimuli/rescaled_final/0291_fw.mp4	0.0	464.0119960308075	
76	343.0064640045166	fix_post	2		12	74.0	2.5	/experiments/knapen_AOT/AOT_stimuli/rescaled_final/0291_fw.mp4	0.0	464.12831592559814	0.10003805160522461
77	343.1065020561218	fix_pre	0		119	75.0	2.5	/experiments/knapen_AOT/AOT_stimuli/rescaled_final/1606_fw.mp4	0.0	464.22835397720337	0.9917969703674316
77	344.09829902648926	movie	1		244	75.0	2.5	/experiments/knapen_AOT/AOT_stimuli/rescaled_final/1606_fw.mp4	0.0	465.2201509475708	2.5003669261932373
77	344.4903390407562	pulse	1	t		75.0	2.5	/experiments/knapen_AOT/AOT_stimuli/rescaled_final/1606_fw.mp4	0.0	465.61219096183777	
77	346.09053206443787	pulse	1	t		75.0	2.5	/experiments/knapen_AOT/AOT_stimuli/rescaled_final/1606_fw.mp4	0.0	467.2123839855194	
77	346.5986659526825	fix_post	2		12	75.0	2.5	/experiments/knapen_AOT/AOT_stimuli/rescaled_final/1606_fw.mp4	0.0	467.72051787376404	0.10022306442260742
78	346.6988890171051	fix_pre	0		120	76.0	2.5	blank	1.0	467.82074093818665	1.0000059604644775
78	347.6907000541687	pulse	0	t		76.0	2.5	blank	1.0	468.81255197525024	
78	347.6988949775696	movie	1		301	76.0	2.5	blank	1.0	468.8207468986511	2.5086989402770996
78	349.2909879684448	pulse	1	t		76.0	2.5	blank	1.0	470.41283988952637	
78	350.2075939178467	fix_post	2		12	76.0	2.5	blank	1.0	471.3294458389282	0.10001516342163086
79	350.3076090812683	fix_pre	0		120	77.0	2.5	/experiments/knapen_AOT/AOT_stimuli/rescaled_final/0893_fw.mp4	0.0	471.42946100234985	1.0001428127288818
79	350.89130091667175	pulse	0	t		77.0	2.5	/experiments/knapen_AOT/AOT_stimuli/rescaled_final/0893_fw.mp4	0.0	472.0131528377533	
79	351.3077518939972	movie	1		244	77.0	2.5	/experiments/knapen_AOT/AOT_stimuli/rescaled_final/0893_fw.mp4	0.0	472.42960381507874	2.500352144241333
79	352.4916019439697	pulse	1	t		77.0	2.5	/experiments/knapen_AOT/AOT_stimuli/rescaled_final/0893_fw.mp4	0.0	473.61345386505127	
79	353.8081040382385	fix_post	2		12	77.0	2.5	/experiments/knapen_AOT/AOT_stimuli/rescaled_final/0893_fw.mp4	0.0	474.92995595932007	0.10000801086425781
80	353.9081120491028	fix_pre	0		120	78.0	2.5	/experiments/knapen_AOT/AOT_stimuli/rescaled_final/0484_fw.mp4	0.0	475.0299639701843	1.000175952911377
80	354.0916359424591	pulse	0	t		78.0	2.5	/experiments/knapen_AOT/AOT_stimuli/rescaled_final/0484_fw.mp4	0.0	475.21348786354065	
80	354.90828800201416	movie	1		245	78.0	2.5	/experiments/knapen_AOT/AOT_stimuli/rescaled_final/0484_fw.mp4	0.0	476.0301399230957	2.5003609657287598
80	355.6920819282532	pulse	1	t		78.0	2.5	/experiments/knapen_AOT/AOT_stimuli/rescaled_final/0484_fw.mp4	0.0	476.8139338493347	
80	357.28981709480286	pulse	1	t		78.0	2.5	/experiments/knapen_AOT/AOT_stimuli/rescaled_final/0484_fw.mp4	0.0	478.4116690158844	
80	357.4086489677429	fix_post	2		12	78.0	2.5	/experiments/knapen_AOT/AOT_stimuli/rescaled_final/0484_fw.mp4	0.0	478.53050088882446	0.10000991821289062
81	357.5086588859558	fix_pre	0		119	79.0	2.5	/experiments/knapen_AOT/AOT_stimuli/rescaled_final/1341_fw.mp4	0.0	478.63051080703735	0.991793155670166
81	358.500452041626	movie	1		245	79.0	2.5	/experiments/knapen_AOT/AOT_stimuli/rescaled_final/1341_fw.mp4	0.0	479.6223039627075	2.500364065170288
81	358.8924779891968	pulse	1	t		79.0	2.5	/experiments/knapen_AOT/AOT_stimuli/rescaled_final/1341_fw.mp4	0.0	480.0143299102783	
81	360.4925971031189	pulse	1	t		79.0	2.5	/experiments/knapen_AOT/AOT_stimuli/rescaled_final/1341_fw.mp4	0.0	481.61444902420044	
81	361.00081610679626	fix_post	2		12	79.0	2.5	/experiments/knapen_AOT/AOT_stimuli/rescaled_final/1341_fw.mp4	0.0	482.1226680278778	0.1000969409942627
82	361.1009130477905	fix_pre	0		120	80.0	2.5	/experiments/knapen_AOT/AOT_stimuli/rescaled_final/0874_rv.mp4	0.0	482.22276496887207	1.0001029968261719
82	362.09286189079285	pulse	0	t		80.0	2.5	/experiments/knapen_AOT/AOT_stimuli/rescaled_final/0874_rv.mp4	0.0	483.2147138118744	
82	362.1010160446167	movie	1		245	80.0	2.5	/experiments/knapen_AOT/AOT_stimuli/rescaled_final/0874_rv.mp4	0.0	483.22286796569824	2.508694887161255
82	363.69354605674744	pulse	1	t		80.0	2.5	/experiments/knapen_AOT/AOT_stimuli/rescaled_final/0874_rv.mp4	0.0	484.815397977829	
82	364.60971093177795	fix_post	2		12	80.0	2.5	/experiments/knapen_AOT/AOT_stimuli/rescaled_final/0874_rv.mp4	0.0	485.7315628528595	0.0999901294708252
83	364.7097010612488	fix_pre	0		120	81.0	2.5	/experiments/knapen_AOT/AOT_stimuli/rescaled_final/1281_rv.mp4	0.0	485.8315529823303	1.000213861465454
83	365.29344391822815	pulse	0	t		81.0	2.5	/experiments/knapen_AOT/AOT_stimuli/rescaled_final/1281_rv.mp4	0.0	486.4152958393097	
83	365.70991492271423	movie	1		246	81.0	2.5	/experiments/knapen_AOT/AOT_stimuli/rescaled_final/1281_rv.mp4	0.0	486.8317668437958	2.50040602684021
83	366.893758058548	pulse	1	t		81.0	2.5	/experiments/knapen_AOT/AOT_stimuli/rescaled_final/1281_rv.mp4	0.0	488.0156099796295	
83	368.21032094955444	fix_post	2		12	81.0	2.5	/experiments/knapen_AOT/AOT_stimuli/rescaled_final/1281_rv.mp4	0.0	489.332172870636	0.09997010231018066
84	368.3102910518646	fix_pre	0		120	82.0	2.5	blank	1.0	489.43214297294617	1.000135898590088
84	368.49377393722534	pulse	0	t		82.0	2.5	blank	1.0	489.6156258583069	
84	369.3104269504547	movie	1		300	82.0	2.5	blank	1.0	490.43227887153625	2.50039005279541
84	370.0941400527954	pulse	1	t		82.0	2.5	blank	1.0	491.21599197387695	
84	371.68681502342224	pulse	1	t		82.0	2.5	blank	1.0	492.8086669445038	
84	371.8108170032501	fix_post	2		12	82.0	2.5	blank	1.0	492.93266892433167	0.10004997253417969
85	371.9108669757843	fix_pre	0		119	83.0	2.5	/experiments/knapen_AOT/AOT_stimuli/rescaled_final/2102_fw.mp4	0.0	493.03271889686584	0.991765022277832
85	372.90263199806213	movie	1		244	83.0	2.5	/experiments/knapen_AOT/AOT_stimuli/rescaled_final/2102_fw.mp4	0.0	494.0244839191437	2.500936985015869
85	373.2946720123291	pulse	1	t		83.0	2.5	/experiments/knapen_AOT/AOT_stimuli/rescaled_final/2102_fw.mp4	0.0	494.41652393341064	
85	374.887482881546	pulse	1	t		83.0	2.5	/experiments/knapen_AOT/AOT_stimuli/rescaled_final/2102_fw.mp4	0.0	496.00933480262756	
85	375.403568983078	fix_post	2		9	83.0	2.5	/experiments/knapen_AOT/AOT_stimuli/rescaled_final/2102_fw.mp4	0.0	496.52542090415955	0.09946703910827637
87	375.5030360221863	stim	0		1716					496.6248879432678	14.302211046218872
87	376.4876139163971	pulse	0	t						497.60946583747864	
87	378.0868170261383	pulse	0	t						499.20866894721985	
87	379.68717193603516	pulse	0	t						500.8090238571167	
87	381.28748893737793	pulse	0	t						502.4093408584595	
87	382.8875539302826	pulse	0	t						504.00940585136414	
87	384.48780703544617	pulse	0	t						505.6096589565277	
87	386.08811497688293	pulse	0	t						507.2099668979645	
87	387.6884489059448	pulse	0	t						508.81030082702637	
87	389.2886140346527	pulse	0	t						510.41046595573425	
