trial_nr	onset	event_type	phase	response	nr_frames	movie_index	movie_duration	movie_file	blank	onset_abs	duration
0	0.1667184829711914	stim	0		4					15.836843490600586	0.03314471244812012
0	0.19196462631225586	response	0	space						15.86208963394165	
1	0.19986319541931152	stim	0		3972					15.869988203048706	33.11657428741455
1	33.306671380996704	pulse	0	t						48.9767963886261	
1	33.31643748283386	stim	1		1716					48.98656249046326	14.30726408958435
1	34.897080183029175	pulse	1	t						50.56720519065857	
1	36.49727272987366	pulse	1	t						52.16739773750305	
1	38.097450256347656	pulse	1	t						53.76757526397705	
1	39.69769287109375	pulse	1	t						55.367817878723145	
1	41.29793381690979	pulse	1	t						56.968058824539185	
1	42.89821481704712	pulse	1	t						58.568339824676514	
1	44.49848651885986	pulse	1	t						60.16861152648926	
1	46.098639249801636	pulse	1	t						61.76876425743103	
2	47.62370157241821	fix_pre	0		10	0.0	2.5	/experiments/Knapen_AOT/AOT_stimuli/rescaled_final/0444_rv.mp4	0.0	63.29382658004761	0.10009479522705078
2	47.69890642166138	pulse	0	t		0.0	2.5	/experiments/Knapen_AOT/AOT_stimuli/rescaled_final/0444_rv.mp4	0.0	63.36903142929077	
2	47.723796367645264	movie	1		287	0.0	2.5	/experiments/Knapen_AOT/AOT_stimuli/rescaled_final/0444_rv.mp4	0.0	63.39392137527466	2.4919533729553223
2	49.29744291305542	pulse	1	t		0.0	2.5	/experiments/Knapen_AOT/AOT_stimuli/rescaled_final/0444_rv.mp4	0.0	64.96756792068481	
2	50.215749740600586	fix_post	2		12	0.0	2.5	/experiments/Knapen_AOT/AOT_stimuli/rescaled_final/0444_rv.mp4	0.0	65.88587474822998	0.1000213623046875
3	50.31577110290527	fix_pre	0		120	1.0	2.5	/experiments/Knapen_AOT/AOT_stimuli/rescaled_final/1797_fw.mp4	0.0	65.98589611053467	1.0084843635559082
3	50.899394512176514	pulse	0	t		1.0	2.5	/experiments/Knapen_AOT/AOT_stimuli/rescaled_final/1797_fw.mp4	0.0	66.56951951980591	
3	51.32425546646118	movie	1		280	1.0	2.5	/experiments/Knapen_AOT/AOT_stimuli/rescaled_final/1797_fw.mp4	0.0	66.99438047409058	2.492030382156372
3	52.49838447570801	pulse	1	t		1.0	2.5	/experiments/Knapen_AOT/AOT_stimuli/rescaled_final/1797_fw.mp4	0.0	68.1685094833374	
3	53.816285848617554	fix_post	2		12	1.0	2.5	/experiments/Knapen_AOT/AOT_stimuli/rescaled_final/1797_fw.mp4	0.0	69.48641085624695	0.10003542900085449
4	53.91632127761841	fix_pre	0		120	2.0	2.5	/experiments/Knapen_AOT/AOT_stimuli/rescaled_final/1088_fw.mp4	0.0	69.5864462852478	1.0085244178771973
4	54.1005802154541	pulse	0	t		2.0	2.5	/experiments/Knapen_AOT/AOT_stimuli/rescaled_final/1088_fw.mp4	0.0	69.7707052230835	
4	54.924845695495605	movie	1		283	2.0	2.5	/experiments/Knapen_AOT/AOT_stimuli/rescaled_final/1088_fw.mp4	0.0	70.594970703125	2.4919934272766113
4	55.69816541671753	pulse	1	t		2.0	2.5	/experiments/Knapen_AOT/AOT_stimuli/rescaled_final/1088_fw.mp4	0.0	71.36829042434692	
4	57.29810881614685	pulse	1	t		2.0	2.5	/experiments/Knapen_AOT/AOT_stimuli/rescaled_final/1088_fw.mp4	0.0	72.96823382377625	
4	57.41683912277222	fix_post	2		12	2.0	2.5	/experiments/Knapen_AOT/AOT_stimuli/rescaled_final/1088_fw.mp4	0.0	73.08696413040161	0.10004734992980957
5	57.516886472702026	fix_pre	0		120	3.0	2.5	/experiments/Knapen_AOT/AOT_stimuli/rescaled_final/1245_fw.mp4	0.0	73.18701148033142	1.0085976123809814
5	58.52548408508301	movie	1		278	3.0	2.5	/experiments/Knapen_AOT/AOT_stimuli/rescaled_final/1245_fw.mp4	0.0	74.1956090927124	2.4918999671936035
5	58.899532079696655	pulse	1	t		3.0	2.5	/experiments/Knapen_AOT/AOT_stimuli/rescaled_final/1245_fw.mp4	0.0	74.56965708732605	
5	60.50089693069458	pulse	1	t		3.0	2.5	/experiments/Knapen_AOT/AOT_stimuli/rescaled_final/1245_fw.mp4	0.0	76.17102193832397	
5	61.01738405227661	fix_post	2		12	3.0	2.5	/experiments/Knapen_AOT/AOT_stimuli/rescaled_final/1245_fw.mp4	0.0	76.687509059906	0.09999918937683105
6	61.11738324165344	fix_pre	0		119	4.0	2.5	/experiments/Knapen_AOT/AOT_stimuli/rescaled_final/0827_fw.mp4	0.0	76.78750824928284	1.0001862049102783
6	62.10114932060242	pulse	0	t		4.0	2.5	/experiments/Knapen_AOT/AOT_stimuli/rescaled_final/0827_fw.mp4	0.0	77.77127432823181	
6	62.11756944656372	movie	1		280	4.0	2.5	/experiments/Knapen_AOT/AOT_stimuli/rescaled_final/0827_fw.mp4	0.0	77.78769445419312	2.50038743019104
6	63.69952392578125	pulse	1	t		4.0	2.5	/experiments/Knapen_AOT/AOT_stimuli/rescaled_final/0827_fw.mp4	0.0	79.36964893341064	
6	64.61795687675476	fix_post	2		12	4.0	2.5	/experiments/Knapen_AOT/AOT_stimuli/rescaled_final/0827_fw.mp4	0.0	80.28808188438416	0.09998250007629395
7	64.71793937683105	fix_pre	0		120	5.0	2.5	blank	1.0	80.38806438446045	1.000171184539795
7	65.30174350738525	pulse	0	t		5.0	2.5	blank	1.0	80.97186851501465	
7	65.71811056137085	movie	1		300	5.0	2.5	blank	1.0	81.38823556900024	2.50039005279541
7	66.9018669128418	pulse	1	t		5.0	2.5	blank	1.0	82.57199192047119	
7	68.21850061416626	fix_post	2		12	5.0	2.5	blank	1.0	83.88862562179565	0.09998416900634766
8	68.31848478317261	fix_pre	0		120	6.0	2.5	/experiments/Knapen_AOT/AOT_stimuli/rescaled_final/0861_rv.mp4	0.0	83.988609790802	1.0084724426269531
8	68.50209450721741	pulse	0	t		6.0	2.5	/experiments/Knapen_AOT/AOT_stimuli/rescaled_final/0861_rv.mp4	0.0	84.1722195148468	
8	69.32695722579956	movie	1		277	6.0	2.5	/experiments/Knapen_AOT/AOT_stimuli/rescaled_final/0861_rv.mp4	0.0	84.99708223342896	2.4920809268951416
8	70.10237908363342	pulse	1	t		6.0	2.5	/experiments/Knapen_AOT/AOT_stimuli/rescaled_final/0861_rv.mp4	0.0	85.77250409126282	
8	71.70063161849976	pulse	1	t		6.0	2.5	/experiments/Knapen_AOT/AOT_stimuli/rescaled_final/0861_rv.mp4	0.0	87.37075662612915	
8	71.8190381526947	fix_post	2		12	6.0	2.5	/experiments/Knapen_AOT/AOT_stimuli/rescaled_final/0861_rv.mp4	0.0	87.4891631603241	0.10000777244567871
9	71.91904592514038	fix_pre	0		120	7.0	2.5	/experiments/Knapen_AOT/AOT_stimuli/rescaled_final/1062_rv.mp4	0.0	87.58917093276978	1.0084805488586426
9	72.92752647399902	movie	1		285	7.0	2.5	/experiments/Knapen_AOT/AOT_stimuli/rescaled_final/1062_rv.mp4	0.0	88.59765148162842	2.4920506477355957
9	73.30151915550232	pulse	1	t		7.0	2.5	/experiments/Knapen_AOT/AOT_stimuli/rescaled_final/1062_rv.mp4	0.0	88.97164416313171	
9	74.90057635307312	pulse	1	t		7.0	2.5	/experiments/Knapen_AOT/AOT_stimuli/rescaled_final/1062_rv.mp4	0.0	90.57070136070251	
9	75.41957712173462	fix_post	2		12	7.0	2.5	/experiments/Knapen_AOT/AOT_stimuli/rescaled_final/1062_rv.mp4	0.0	91.08970212936401	0.1000516414642334
10	75.51962876319885	fix_pre	0		119	8.0	2.5	/experiments/Knapen_AOT/AOT_stimuli/rescaled_final/1276_fw.mp4	0.0	91.18975377082825	1.0001330375671387
10	76.5032320022583	pulse	0	t		8.0	2.5	/experiments/Knapen_AOT/AOT_stimuli/rescaled_final/1276_fw.mp4	0.0	92.1733570098877	
10	76.51976180076599	movie	1		287	8.0	2.5	/experiments/Knapen_AOT/AOT_stimuli/rescaled_final/1276_fw.mp4	0.0	92.18988680839539	2.500314712524414
10	78.10366988182068	pulse	1	t		8.0	2.5	/experiments/Knapen_AOT/AOT_stimuli/rescaled_final/1276_fw.mp4	0.0	93.77379488945007	
10	79.0200765132904	fix_post	2		12	8.0	2.5	/experiments/Knapen_AOT/AOT_stimuli/rescaled_final/1276_fw.mp4	0.0	94.6902015209198	0.10001921653747559
11	79.12009572982788	fix_pre	0		120	9.0	2.5	/experiments/Knapen_AOT/AOT_stimuli/rescaled_final/0990_rv.mp4	0.0	94.79022073745728	1.0086102485656738
11	79.70371747016907	pulse	0	t		9.0	2.5	/experiments/Knapen_AOT/AOT_stimuli/rescaled_final/0990_rv.mp4	0.0	95.37384247779846	
11	80.12870597839355	movie	1		288	9.0	2.5	/experiments/Knapen_AOT/AOT_stimuli/rescaled_final/0990_rv.mp4	0.0	95.79883098602295	2.4919307231903076
11	81.30231666564941	pulse	1	t		9.0	2.5	/experiments/Knapen_AOT/AOT_stimuli/rescaled_final/0990_rv.mp4	0.0	96.97244167327881	
11	82.62063670158386	fix_post	2		12	9.0	2.5	/experiments/Knapen_AOT/AOT_stimuli/rescaled_final/0990_rv.mp4	0.0	98.29076170921326	0.09999990463256836
12	82.72063660621643	fix_pre	0		120	10.0	2.5	/experiments/Knapen_AOT/AOT_stimuli/rescaled_final/0454_rv.mp4	0.0	98.39076161384583	1.008467197418213
12	82.90430188179016	pulse	0	t		10.0	2.5	/experiments/Knapen_AOT/AOT_stimuli/rescaled_final/0454_rv.mp4	0.0	98.57442688941956	
12	83.72910380363464	movie	1		285	10.0	2.5	/experiments/Knapen_AOT/AOT_stimuli/rescaled_final/0454_rv.mp4	0.0	99.39922881126404	2.4920806884765625
12	84.4967360496521	pulse	1	t		10.0	2.5	/experiments/Knapen_AOT/AOT_stimuli/rescaled_final/0454_rv.mp4	0.0	100.1668610572815	
12	86.09661602973938	pulse	1	t		10.0	2.5	/experiments/Knapen_AOT/AOT_stimuli/rescaled_final/0454_rv.mp4	0.0	101.76674103736877	
12	86.2211844921112	fix_post	2		12	10.0	2.5	/experiments/Knapen_AOT/AOT_stimuli/rescaled_final/0454_rv.mp4	0.0	101.8913094997406	0.1000370979309082
13	86.32122159004211	fix_pre	0		120	11.0	2.5	/experiments/Knapen_AOT/AOT_stimuli/rescaled_final/0996_fw.mp4	0.0	101.99134659767151	1.0084333419799805
13	87.3296549320221	movie	1		274	11.0	2.5	/experiments/Knapen_AOT/AOT_stimuli/rescaled_final/0996_fw.mp4	0.0	102.99977993965149	2.4920542240142822
13	87.69667077064514	pulse	1	t		11.0	2.5	/experiments/Knapen_AOT/AOT_stimuli/rescaled_final/0996_fw.mp4	0.0	103.36679577827454	
13	89.29682183265686	pulse	1	t		11.0	2.5	/experiments/Knapen_AOT/AOT_stimuli/rescaled_final/0996_fw.mp4	0.0	104.96694684028625	
13	89.82170915603638	fix_post	2		12	11.0	2.5	/experiments/Knapen_AOT/AOT_stimuli/rescaled_final/0996_fw.mp4	0.0	105.49183416366577	0.10000443458557129
14	89.92171359062195	fix_pre	0		118	12.0	2.5	/experiments/Knapen_AOT/AOT_stimuli/rescaled_final/2023_rv.mp4	0.0	105.59183859825134	0.9918549060821533
14	90.8970787525177	pulse	0	t		12.0	2.5	/experiments/Knapen_AOT/AOT_stimuli/rescaled_final/2023_rv.mp4	0.0	106.5672037601471	
14	90.9135684967041	movie	1		276	12.0	2.5	/experiments/Knapen_AOT/AOT_stimuli/rescaled_final/2023_rv.mp4	0.0	106.5836935043335	2.500347375869751
14	92.49634790420532	pulse	1	t		12.0	2.5	/experiments/Knapen_AOT/AOT_stimuli/rescaled_final/2023_rv.mp4	0.0	108.16647291183472	
14	93.41391587257385	fix_post	2		12	12.0	2.5	/experiments/Knapen_AOT/AOT_stimuli/rescaled_final/2023_rv.mp4	0.0	109.08404088020325	0.10001850128173828
15	93.51393437385559	fix_pre	0		120	13.0	2.5	blank	1.0	109.18405938148499	1.0002596378326416
15	94.09773850440979	pulse	0	t		13.0	2.5	blank	1.0	109.76786351203918	
15	94.51419401168823	movie	1		300	13.0	2.5	blank	1.0	110.18431901931763	2.5002689361572266
15	95.69783091545105	pulse	1	t		13.0	2.5	blank	1.0	111.36795592308044	
15	97.01446294784546	fix_post	2		12	13.0	2.5	blank	1.0	112.68458795547485	0.10004210472106934
16	97.11450505256653	fix_pre	0		120	14.0	2.5	/experiments/Knapen_AOT/AOT_stimuli/rescaled_final/1451_fw.mp4	0.0	112.78463006019592	1.0084514617919922
16	97.29801654815674	pulse	0	t		14.0	2.5	/experiments/Knapen_AOT/AOT_stimuli/rescaled_final/1451_fw.mp4	0.0	112.96814155578613	
16	98.12295651435852	movie	1		280	14.0	2.5	/experiments/Knapen_AOT/AOT_stimuli/rescaled_final/1451_fw.mp4	0.0	113.79308152198792	2.49208927154541
16	98.8962676525116	pulse	1	t		14.0	2.5	/experiments/Knapen_AOT/AOT_stimuli/rescaled_final/1451_fw.mp4	0.0	114.56639266014099	
16	100.49699449539185	pulse	1	t		14.0	2.5	/experiments/Knapen_AOT/AOT_stimuli/rescaled_final/1451_fw.mp4	0.0	116.16711950302124	
16	100.61504578590393	fix_post	2		12	14.0	2.5	/experiments/Knapen_AOT/AOT_stimuli/rescaled_final/1451_fw.mp4	0.0	116.28517079353333	0.10001373291015625
17	100.71505951881409	fix_pre	0		120	15.0	2.5	/experiments/Knapen_AOT/AOT_stimuli/rescaled_final/0444_fw.mp4	0.0	116.38518452644348	1.008479118347168
17	101.72353863716125	movie	1		294	15.0	2.5	/experiments/Knapen_AOT/AOT_stimuli/rescaled_final/0444_fw.mp4	0.0	117.39366364479065	2.4920871257781982
17	102.09763550758362	pulse	1	t		15.0	2.5	/experiments/Knapen_AOT/AOT_stimuli/rescaled_final/0444_fw.mp4	0.0	117.76776051521301	
17	103.69713282585144	pulse	1	t		15.0	2.5	/experiments/Knapen_AOT/AOT_stimuli/rescaled_final/0444_fw.mp4	0.0	119.36725783348083	
17	104.21562576293945	fix_post	2		12	15.0	2.5	/experiments/Knapen_AOT/AOT_stimuli/rescaled_final/0444_fw.mp4	0.0	119.88575077056885	0.09991049766540527
18	104.31553626060486	fix_pre	0		119	16.0	2.5	/experiments/Knapen_AOT/AOT_stimuli/rescaled_final/1637_rv.mp4	0.0	119.98566126823425	1.0001585483551025
18	105.29914236068726	pulse	0	t		16.0	2.5	/experiments/Knapen_AOT/AOT_stimuli/rescaled_final/1637_rv.mp4	0.0	120.96926736831665	
18	105.31569480895996	movie	1		295	16.0	2.5	/experiments/Knapen_AOT/AOT_stimuli/rescaled_final/1637_rv.mp4	0.0	120.98581981658936	2.5003533363342285
18	106.89693760871887	pulse	1	t		16.0	2.5	/experiments/Knapen_AOT/AOT_stimuli/rescaled_final/1637_rv.mp4	0.0	122.56706261634827	
18	107.81604814529419	fix_post	2		12	16.0	2.5	/experiments/Knapen_AOT/AOT_stimuli/rescaled_final/1637_rv.mp4	0.0	123.48617315292358	0.10004019737243652
19	107.91608834266663	fix_pre	0		120	17.0	2.5	/experiments/Knapen_AOT/AOT_stimuli/rescaled_final/2145_rv.mp4	0.0	123.58621335029602	1.0001065731048584
19	108.49985146522522	pulse	0	t		17.0	2.5	/experiments/Knapen_AOT/AOT_stimuli/rescaled_final/2145_rv.mp4	0.0	124.16997647285461	
19	108.91619491577148	movie	1		296	17.0	2.5	/experiments/Knapen_AOT/AOT_stimuli/rescaled_final/2145_rv.mp4	0.0	124.58631992340088	2.500396966934204
19	110.09831547737122	pulse	1	t		17.0	2.5	/experiments/Knapen_AOT/AOT_stimuli/rescaled_final/2145_rv.mp4	0.0	125.76844048500061	
19	111.41659188270569	fix_post	2		12	17.0	2.5	/experiments/Knapen_AOT/AOT_stimuli/rescaled_final/2145_rv.mp4	0.0	127.08671689033508	0.1000220775604248
20	111.51661396026611	fix_pre	0		120	18.0	2.5	/experiments/Knapen_AOT/AOT_stimuli/rescaled_final/2138_rv.mp4	0.0	127.18673896789551	1.008530616760254
20	111.70018291473389	pulse	0	t		18.0	2.5	/experiments/Knapen_AOT/AOT_stimuli/rescaled_final/2138_rv.mp4	0.0	127.37030792236328	
20	112.52514457702637	movie	1		293	18.0	2.5	/experiments/Knapen_AOT/AOT_stimuli/rescaled_final/2138_rv.mp4	0.0	128.19526958465576	2.4920263290405273
20	113.29756259918213	pulse	1	t		18.0	2.5	/experiments/Knapen_AOT/AOT_stimuli/rescaled_final/2138_rv.mp4	0.0	128.96768760681152	
20	114.89648246765137	pulse	1	t		18.0	2.5	/experiments/Knapen_AOT/AOT_stimuli/rescaled_final/2138_rv.mp4	0.0	130.56660747528076	
20	115.0171709060669	fix_post	2		12	18.0	2.5	/experiments/Knapen_AOT/AOT_stimuli/rescaled_final/2138_rv.mp4	0.0	130.6872959136963	0.09999418258666992
21	115.11716508865356	fix_pre	0		120	19.0	2.5	/experiments/Knapen_AOT/AOT_stimuli/rescaled_final/0600_rv.mp4	0.0	130.78729009628296	1.0085313320159912
21	116.12569642066956	movie	1		293	19.0	2.5	/experiments/Knapen_AOT/AOT_stimuli/rescaled_final/0600_rv.mp4	0.0	131.79582142829895	2.491997241973877
21	116.49882698059082	pulse	1	t		19.0	2.5	/experiments/Knapen_AOT/AOT_stimuli/rescaled_final/0600_rv.mp4	0.0	132.16895198822021	
21	118.09830045700073	pulse	1	t		19.0	2.5	/experiments/Knapen_AOT/AOT_stimuli/rescaled_final/0600_rv.mp4	0.0	133.76842546463013	
21	118.61769366264343	fix_post	2		12	19.0	2.5	/experiments/Knapen_AOT/AOT_stimuli/rescaled_final/0600_rv.mp4	0.0	134.28781867027283	0.0999915599822998
22	118.71768522262573	fix_pre	0		119	20.0	2.5	/experiments/Knapen_AOT/AOT_stimuli/rescaled_final/0134_rv.mp4	0.0	134.38781023025513	1.000195026397705
22	119.70140504837036	pulse	0	t		20.0	2.5	/experiments/Knapen_AOT/AOT_stimuli/rescaled_final/0134_rv.mp4	0.0	135.37153005599976	
22	119.71788024902344	movie	1		293	20.0	2.5	/experiments/Knapen_AOT/AOT_stimuli/rescaled_final/0134_rv.mp4	0.0	135.38800525665283	2.5003578662872314
22	121.29769206047058	pulse	1	t		20.0	2.5	/experiments/Knapen_AOT/AOT_stimuli/rescaled_final/0134_rv.mp4	0.0	136.96781706809998	
22	122.21823811531067	fix_post	2		12	20.0	2.5	/experiments/Knapen_AOT/AOT_stimuli/rescaled_final/0134_rv.mp4	0.0	137.88836312294006	0.09998655319213867
23	122.31822466850281	fix_pre	0		120	21.0	2.5	blank	1.0	137.9883496761322	1.0001587867736816
23	122.90177607536316	pulse	0	t		21.0	2.5	blank	1.0	138.57190108299255	
23	123.31838345527649	movie	1		300	21.0	2.5	blank	1.0	138.98850846290588	2.5003819465637207
23	124.50212025642395	pulse	1	t		21.0	2.5	blank	1.0	140.17224526405334	
23	125.81876540184021	fix_post	2		12	21.0	2.5	blank	1.0	141.4888904094696	0.10003399848937988
24	125.91879940032959	fix_pre	0		120	22.0	2.5	/experiments/Knapen_AOT/AOT_stimuli/rescaled_final/1232_rv.mp4	0.0	141.58892440795898	1.00010085105896
24	126.1022961139679	pulse	0	t		22.0	2.5	/experiments/Knapen_AOT/AOT_stimuli/rescaled_final/1232_rv.mp4	0.0	141.7724211215973	
24	126.91890025138855	movie	1		296	22.0	2.5	/experiments/Knapen_AOT/AOT_stimuli/rescaled_final/1232_rv.mp4	0.0	142.58902525901794	2.500408887863159
24	127.69985485076904	pulse	1	t		22.0	2.5	/experiments/Knapen_AOT/AOT_stimuli/rescaled_final/1232_rv.mp4	0.0	143.36997985839844	
24	129.2985270023346	pulse	1	t		22.0	2.5	/experiments/Knapen_AOT/AOT_stimuli/rescaled_final/1232_rv.mp4	0.0	144.968652009964	
24	129.4193091392517	fix_post	2		12	22.0	2.5	/experiments/Knapen_AOT/AOT_stimuli/rescaled_final/1232_rv.mp4	0.0	145.0894341468811	0.09999823570251465
25	129.51930737495422	fix_pre	0		120	23.0	2.5	/experiments/Knapen_AOT/AOT_stimuli/rescaled_final/1301_fw.mp4	0.0	145.18943238258362	1.0085043907165527
25	130.52781176567078	movie	1		287	23.0	2.5	/experiments/Knapen_AOT/AOT_stimuli/rescaled_final/1301_fw.mp4	0.0	146.19793677330017	2.4921460151672363
25	130.902197599411	pulse	1	t		23.0	2.5	/experiments/Knapen_AOT/AOT_stimuli/rescaled_final/1301_fw.mp4	0.0	146.5723226070404	
25	132.4989025592804	pulse	1	t		23.0	2.5	/experiments/Knapen_AOT/AOT_stimuli/rescaled_final/1301_fw.mp4	0.0	148.1690275669098	
25	133.019957780838	fix_post	2		12	23.0	2.5	/experiments/Knapen_AOT/AOT_stimuli/rescaled_final/1301_fw.mp4	0.0	148.6900827884674	0.09992384910583496
26	133.11988162994385	fix_pre	0		119	24.0	2.5	/experiments/Knapen_AOT/AOT_stimuli/rescaled_final/1301_rv.mp4	0.0	148.79000663757324	1.0001397132873535
26	134.09571194648743	pulse	0	t		24.0	2.5	/experiments/Knapen_AOT/AOT_stimuli/rescaled_final/1301_rv.mp4	0.0	149.76583695411682	
26	134.1200213432312	movie	1		296	24.0	2.5	/experiments/Knapen_AOT/AOT_stimuli/rescaled_final/1301_rv.mp4	0.0	149.7901463508606	2.5003552436828613
26	135.69570899009705	pulse	1	t		24.0	2.5	/experiments/Knapen_AOT/AOT_stimuli/rescaled_final/1301_rv.mp4	0.0	151.36583399772644	
26	136.62037658691406	fix_post	2		12	24.0	2.5	/experiments/Knapen_AOT/AOT_stimuli/rescaled_final/1301_rv.mp4	0.0	152.29050159454346	0.10002708435058594
27	136.72040367126465	fix_pre	0		120	25.0	2.5	/experiments/Knapen_AOT/AOT_stimuli/rescaled_final/0864_fw.mp4	0.0	152.39052867889404	1.0085148811340332
27	137.29594445228577	pulse	0	t		25.0	2.5	/experiments/Knapen_AOT/AOT_stimuli/rescaled_final/0864_fw.mp4	0.0	152.96606945991516	
27	137.72891855239868	movie	1		279	25.0	2.5	/experiments/Knapen_AOT/AOT_stimuli/rescaled_final/0864_fw.mp4	0.0	153.39904356002808	2.492062568664551
27	138.89618825912476	pulse	1	t		25.0	2.5	/experiments/Knapen_AOT/AOT_stimuli/rescaled_final/0864_fw.mp4	0.0	154.56631326675415	
27	140.22098112106323	fix_post	2		12	25.0	2.5	/experiments/Knapen_AOT/AOT_stimuli/rescaled_final/0864_fw.mp4	0.0	155.89110612869263	0.09998536109924316
28	140.32096648216248	fix_pre	0		120	26.0	2.5	blank	1.0	155.99109148979187	1.0002384185791016
28	140.49621105194092	pulse	0	t		26.0	2.5	blank	1.0	156.1663360595703	
28	141.32120490074158	movie	1		300	26.0	2.5	blank	1.0	156.99132990837097	2.5003767013549805
28	142.09654831886292	pulse	1	t		26.0	2.5	blank	1.0	157.7666733264923	
28	143.69679713249207	pulse	1	t		26.0	2.5	blank	1.0	159.36692214012146	
28	143.82158160209656	fix_post	2		12	26.0	2.5	blank	1.0	159.49170660972595	0.0999298095703125
29	143.92151141166687	fix_pre	0		120	27.0	2.5	/experiments/Knapen_AOT/AOT_stimuli/rescaled_final/1942_fw.mp4	0.0	159.59163641929626	1.0084779262542725
29	144.92998933792114	movie	1		279	27.0	2.5	/experiments/Knapen_AOT/AOT_stimuli/rescaled_final/1942_fw.mp4	0.0	160.60011434555054	2.4920692443847656
29	145.29729008674622	pulse	1	t		27.0	2.5	/experiments/Knapen_AOT/AOT_stimuli/rescaled_final/1942_fw.mp4	0.0	160.9674150943756	
29	146.89715218544006	pulse	1	t		27.0	2.5	/experiments/Knapen_AOT/AOT_stimuli/rescaled_final/1942_fw.mp4	0.0	162.56727719306946	
29	147.4220585823059	fix_post	2		12	27.0	2.5	/experiments/Knapen_AOT/AOT_stimuli/rescaled_final/1942_fw.mp4	0.0	163.0921835899353	0.09999942779541016
30	147.52205801010132	fix_pre	0		118	28.0	2.5	/experiments/Knapen_AOT/AOT_stimuli/rescaled_final/1385_rv.mp4	0.0	163.1921830177307	0.9918794631958008
30	148.49781799316406	pulse	0	t		28.0	2.5	/experiments/Knapen_AOT/AOT_stimuli/rescaled_final/1385_rv.mp4	0.0	164.16794300079346	
30	148.51393747329712	movie	1		288	28.0	2.5	/experiments/Knapen_AOT/AOT_stimuli/rescaled_final/1385_rv.mp4	0.0	164.1840624809265	2.500312566757202
30	150.0963122844696	pulse	1	t		28.0	2.5	/experiments/Knapen_AOT/AOT_stimuli/rescaled_final/1385_rv.mp4	0.0	165.766437292099	
30	151.01425004005432	fix_post	2		12	28.0	2.5	/experiments/Knapen_AOT/AOT_stimuli/rescaled_final/1385_rv.mp4	0.0	166.68437504768372	0.10011005401611328
31	151.11436009407043	fix_pre	0		120	29.0	2.5	/experiments/Knapen_AOT/AOT_stimuli/rescaled_final/0001_fw.mp4	0.0	166.78448510169983	1.0084035396575928
31	151.697913646698	pulse	0	t		29.0	2.5	/experiments/Knapen_AOT/AOT_stimuli/rescaled_final/0001_fw.mp4	0.0	167.3680386543274	
31	152.12276363372803	movie	1		274	29.0	2.5	/experiments/Knapen_AOT/AOT_stimuli/rescaled_final/0001_fw.mp4	0.0	167.79288864135742	2.492088556289673
31	153.29650354385376	pulse	1	t		29.0	2.5	/experiments/Knapen_AOT/AOT_stimuli/rescaled_final/0001_fw.mp4	0.0	168.96662855148315	
31	154.6148521900177	fix_post	2		12	29.0	2.5	/experiments/Knapen_AOT/AOT_stimuli/rescaled_final/0001_fw.mp4	0.0	170.2849771976471	0.10002446174621582
32	154.71487665176392	fix_pre	0		120	30.0	2.5	/experiments/Knapen_AOT/AOT_stimuli/rescaled_final/0454_fw.mp4	0.0	170.3850016593933	1.0084419250488281
32	154.89831256866455	pulse	0	t		30.0	2.5	/experiments/Knapen_AOT/AOT_stimuli/rescaled_final/0454_fw.mp4	0.0	170.56843757629395	
32	155.72331857681274	movie	1		271	30.0	2.5	/experiments/Knapen_AOT/AOT_stimuli/rescaled_final/0454_fw.mp4	0.0	171.39344358444214	2.4920198917388916
32	156.4967920780182	pulse	1	t		30.0	2.5	/experiments/Knapen_AOT/AOT_stimuli/rescaled_final/0454_fw.mp4	0.0	172.16691708564758	
32	158.0980372428894	pulse	1	t		30.0	2.5	/experiments/Knapen_AOT/AOT_stimuli/rescaled_final/0454_fw.mp4	0.0	173.7681622505188	
32	158.21533846855164	fix_post	2		12	30.0	2.5	/experiments/Knapen_AOT/AOT_stimuli/rescaled_final/0454_fw.mp4	0.0	173.88546347618103	0.10000276565551758
33	158.31534123420715	fix_pre	0		120	31.0	2.5	/experiments/Knapen_AOT/AOT_stimuli/rescaled_final/1797_fw.mp4	0.0	173.98546624183655	1.0085256099700928
33	159.32386684417725	movie	1		286	31.0	2.5	/experiments/Knapen_AOT/AOT_stimuli/rescaled_final/1797_fw.mp4	0.0	174.99399185180664	2.4920313358306885
33	159.6979250907898	pulse	1	t		31.0	2.5	/experiments/Knapen_AOT/AOT_stimuli/rescaled_final/1797_fw.mp4	0.0	175.3680500984192	
33	161.29762983322144	pulse	1	t		31.0	2.5	/experiments/Knapen_AOT/AOT_stimuli/rescaled_final/1797_fw.mp4	0.0	176.96775484085083	
33	161.81589818000793	fix_post	2		12	31.0	2.5	/experiments/Knapen_AOT/AOT_stimuli/rescaled_final/1797_fw.mp4	0.0	177.48602318763733	0.1000053882598877
34	161.91590356826782	fix_pre	0		119	32.0	2.5	/experiments/Knapen_AOT/AOT_stimuli/rescaled_final/2145_fw.mp4	0.0	177.58602857589722	1.0001420974731445
34	162.89980912208557	pulse	0	t		32.0	2.5	/experiments/Knapen_AOT/AOT_stimuli/rescaled_final/2145_fw.mp4	0.0	178.56993412971497	
34	162.91604566574097	movie	1		285	32.0	2.5	/experiments/Knapen_AOT/AOT_stimuli/rescaled_final/2145_fw.mp4	0.0	178.58617067337036	2.5088796615600586
34	164.4980571269989	pulse	1	t		32.0	2.5	/experiments/Knapen_AOT/AOT_stimuli/rescaled_final/2145_fw.mp4	0.0	180.1681821346283	
34	165.42492532730103	fix_post	2		11	32.0	2.5	/experiments/Knapen_AOT/AOT_stimuli/rescaled_final/2145_fw.mp4	0.0	181.09505033493042	0.09150457382202148
35	165.51642990112305	fix_pre	0		120	33.0	2.5	blank	1.0	181.18655490875244	1.000199556350708
35	166.10012793540955	pulse	0	t		33.0	2.5	blank	1.0	181.77025294303894	
35	166.51662945747375	movie	1		300	33.0	2.5	blank	1.0	182.18675446510315	2.500333070755005
35	167.70026278495789	pulse	1	t		33.0	2.5	blank	1.0	183.37038779258728	
35	169.01696252822876	fix_post	2		12	33.0	2.5	blank	1.0	184.68708753585815	0.1000070571899414
36	169.1169695854187	fix_pre	0		120	34.0	2.5	/experiments/Knapen_AOT/AOT_stimuli/rescaled_final/1843_fw.mp4	0.0	184.7870945930481	1.0084960460662842
36	169.30061292648315	pulse	0	t		34.0	2.5	/experiments/Knapen_AOT/AOT_stimuli/rescaled_final/1843_fw.mp4	0.0	184.97073793411255	
36	170.12546563148499	movie	1		280	34.0	2.5	/experiments/Knapen_AOT/AOT_stimuli/rescaled_final/1843_fw.mp4	0.0	185.79559063911438	2.492093324661255
36	170.89883685112	pulse	1	t		34.0	2.5	/experiments/Knapen_AOT/AOT_stimuli/rescaled_final/1843_fw.mp4	0.0	186.5689618587494	
36	172.49914360046387	pulse	1	t		34.0	2.5	/experiments/Knapen_AOT/AOT_stimuli/rescaled_final/1843_fw.mp4	0.0	188.16926860809326	
36	172.61755895614624	fix_post	2		12	34.0	2.5	/experiments/Knapen_AOT/AOT_stimuli/rescaled_final/1843_fw.mp4	0.0	188.28768396377563	0.0999612808227539
37	172.717520236969	fix_pre	0		120	35.0	2.5	/experiments/Knapen_AOT/AOT_stimuli/rescaled_final/0667_fw.mp4	0.0	188.3876452445984	1.0084788799285889
37	173.72599911689758	movie	1		288	35.0	2.5	/experiments/Knapen_AOT/AOT_stimuli/rescaled_final/0667_fw.mp4	0.0	189.39612412452698	2.492018461227417
37	174.1001217365265	pulse	1	t		35.0	2.5	/experiments/Knapen_AOT/AOT_stimuli/rescaled_final/0667_fw.mp4	0.0	189.77024674415588	
37	175.69927525520325	pulse	1	t		35.0	2.5	/experiments/Knapen_AOT/AOT_stimuli/rescaled_final/0667_fw.mp4	0.0	191.36940026283264	
37	176.218017578125	fix_post	2		12	35.0	2.5	/experiments/Knapen_AOT/AOT_stimuli/rescaled_final/0667_fw.mp4	0.0	191.8881425857544	0.10002923011779785
38	176.3180468082428	fix_pre	0		119	36.0	2.5	/experiments/Knapen_AOT/AOT_stimuli/rescaled_final/1721_fw.mp4	0.0	191.9881718158722	1.0085887908935547
38	177.30251383781433	pulse	0	t		36.0	2.5	/experiments/Knapen_AOT/AOT_stimuli/rescaled_final/1721_fw.mp4	0.0	192.97263884544373	
38	177.32663559913635	movie	1		278	36.0	2.5	/experiments/Knapen_AOT/AOT_stimuli/rescaled_final/1721_fw.mp4	0.0	192.99676060676575	2.491941213607788
38	178.90113639831543	pulse	1	t		36.0	2.5	/experiments/Knapen_AOT/AOT_stimuli/rescaled_final/1721_fw.mp4	0.0	194.57126140594482	
38	179.81857681274414	fix_post	2		12	36.0	2.5	/experiments/Knapen_AOT/AOT_stimuli/rescaled_final/1721_fw.mp4	0.0	195.48870182037354	0.1000223159790039
39	179.91859912872314	fix_pre	0		120	37.0	2.5	/experiments/Knapen_AOT/AOT_stimuli/rescaled_final/1591_fw.mp4	0.0	195.58872413635254	1.008531093597412
39	180.50225687026978	pulse	0	t		37.0	2.5	/experiments/Knapen_AOT/AOT_stimuli/rescaled_final/1591_fw.mp4	0.0	196.17238187789917	
39	180.92713022232056	movie	1		270	37.0	2.5	/experiments/Knapen_AOT/AOT_stimuli/rescaled_final/1591_fw.mp4	0.0	196.59725522994995	2.491974353790283
39	182.1032738685608	pulse	1	t		37.0	2.5	/experiments/Knapen_AOT/AOT_stimuli/rescaled_final/1591_fw.mp4	0.0	197.77339887619019	
39	183.41910457611084	fix_post	2		12	37.0	2.5	/experiments/Knapen_AOT/AOT_stimuli/rescaled_final/1591_fw.mp4	0.0	199.08922958374023	0.10001492500305176
40	183.5191195011139	fix_pre	0		120	38.0	2.5	/experiments/Knapen_AOT/AOT_stimuli/rescaled_final/0285_rv.mp4	0.0	199.1892445087433	1.008488416671753
40	183.7027723789215	pulse	0	t		38.0	2.5	/experiments/Knapen_AOT/AOT_stimuli/rescaled_final/0285_rv.mp4	0.0	199.3728973865509	
40	184.52760791778564	movie	1		277	38.0	2.5	/experiments/Knapen_AOT/AOT_stimuli/rescaled_final/0285_rv.mp4	0.0	200.19773292541504	2.4920711517333984
40	185.30152297019958	pulse	1	t		38.0	2.5	/experiments/Knapen_AOT/AOT_stimuli/rescaled_final/0285_rv.mp4	0.0	200.97164797782898	
40	186.90126061439514	pulse	1	t		38.0	2.5	/experiments/Knapen_AOT/AOT_stimuli/rescaled_final/0285_rv.mp4	0.0	202.57138562202454	
40	187.01967906951904	fix_post	2		11	38.0	2.5	/experiments/Knapen_AOT/AOT_stimuli/rescaled_final/0285_rv.mp4	0.0	202.68980407714844	0.1000516414642334
41	187.11973071098328	fix_pre	0		120	39.0	2.5	/experiments/Knapen_AOT/AOT_stimuli/rescaled_final/2011_rv.mp4	0.0	202.78985571861267	1.0084748268127441
41	188.12820553779602	movie	1		286	39.0	2.5	/experiments/Knapen_AOT/AOT_stimuli/rescaled_final/2011_rv.mp4	0.0	203.79833054542542	2.492007255554199
41	188.50218391418457	pulse	1	t		39.0	2.5	/experiments/Knapen_AOT/AOT_stimuli/rescaled_final/2011_rv.mp4	0.0	204.17230892181396	
41	190.10185956954956	pulse	1	t		39.0	2.5	/experiments/Knapen_AOT/AOT_stimuli/rescaled_final/2011_rv.mp4	0.0	205.77198457717896	
41	190.62021279335022	fix_post	2		12	39.0	2.5	/experiments/Knapen_AOT/AOT_stimuli/rescaled_final/2011_rv.mp4	0.0	206.29033780097961	0.10001611709594727
42	190.72022891044617	fix_pre	0		119	40.0	2.5	/experiments/Knapen_AOT/AOT_stimuli/rescaled_final/1797_rv.mp4	0.0	206.39035391807556	1.000126838684082
42	191.69620060920715	pulse	0	t		40.0	2.5	/experiments/Knapen_AOT/AOT_stimuli/rescaled_final/1797_rv.mp4	0.0	207.36632561683655	
42	191.72035574913025	movie	1		279	40.0	2.5	/experiments/Knapen_AOT/AOT_stimuli/rescaled_final/1797_rv.mp4	0.0	207.39048075675964	2.5003867149353027
42	193.30334639549255	pulse	1	t		40.0	2.5	/experiments/Knapen_AOT/AOT_stimuli/rescaled_final/1797_rv.mp4	0.0	208.97347140312195	
42	194.22074246406555	fix_post	2		12	40.0	2.5	/experiments/Knapen_AOT/AOT_stimuli/rescaled_final/1797_rv.mp4	0.0	209.89086747169495	0.10002636909484863
43	194.3207688331604	fix_pre	0		120	41.0	2.5	/experiments/Knapen_AOT/AOT_stimuli/rescaled_final/1007_fw.mp4	0.0	209.9908938407898	1.0085418224334717
43	194.89626121520996	pulse	0	t		41.0	2.5	/experiments/Knapen_AOT/AOT_stimuli/rescaled_final/1007_fw.mp4	0.0	210.56638622283936	
43	195.32931065559387	movie	1		278	41.0	2.5	/experiments/Knapen_AOT/AOT_stimuli/rescaled_final/1007_fw.mp4	0.0	210.99943566322327	2.491971015930176
43	196.49638628959656	pulse	1	t		41.0	2.5	/experiments/Knapen_AOT/AOT_stimuli/rescaled_final/1007_fw.mp4	0.0	212.16651129722595	
43	197.82128167152405	fix_post	2		12	41.0	2.5	/experiments/Knapen_AOT/AOT_stimuli/rescaled_final/1007_fw.mp4	0.0	213.49140667915344	0.1000375747680664
44	197.92131924629211	fix_pre	0		120	42.0	2.5	blank	1.0	213.5914442539215	1.0001254081726074
44	198.09670901298523	pulse	0	t		42.0	2.5	blank	1.0	213.76683402061462	
44	198.92144465446472	movie	1		300	42.0	2.5	blank	1.0	214.59156966209412	2.5003838539123535
44	199.69697213172913	pulse	1	t		42.0	2.5	blank	1.0	215.36709713935852	
44	201.29707193374634	pulse	1	t		42.0	2.5	blank	1.0	216.96719694137573	
44	201.42182850837708	fix_post	2		12	42.0	2.5	blank	1.0	217.09195351600647	0.10001850128173828
45	201.5218470096588	fix_pre	0		120	43.0	2.5	/experiments/Knapen_AOT/AOT_stimuli/rescaled_final/0350_rv.mp4	0.0	217.1919720172882	1.0084750652313232
45	202.53032207489014	movie	1		284	43.0	2.5	/experiments/Knapen_AOT/AOT_stimuli/rescaled_final/0350_rv.mp4	0.0	218.20044708251953	2.4920339584350586
45	202.89731550216675	pulse	1	t		43.0	2.5	/experiments/Knapen_AOT/AOT_stimuli/rescaled_final/0350_rv.mp4	0.0	218.56744050979614	
45	204.49756741523743	pulse	1	t		43.0	2.5	/experiments/Knapen_AOT/AOT_stimuli/rescaled_final/0350_rv.mp4	0.0	220.16769242286682	
45	205.0223560333252	fix_post	2		12	43.0	2.5	/experiments/Knapen_AOT/AOT_stimuli/rescaled_final/0350_rv.mp4	0.0	220.6924810409546	0.10000991821289062
46	205.1223659515381	fix_pre	0		118	44.0	2.5	/experiments/Knapen_AOT/AOT_stimuli/rescaled_final/1684_rv.mp4	0.0	220.79249095916748	0.9918348789215088
46	206.09774565696716	pulse	0	t		44.0	2.5	/experiments/Knapen_AOT/AOT_stimuli/rescaled_final/1684_rv.mp4	0.0	221.76787066459656	
46	206.1142008304596	movie	1		290	44.0	2.5	/experiments/Knapen_AOT/AOT_stimuli/rescaled_final/1684_rv.mp4	0.0	221.784325838089	2.500370502471924
46	207.69686913490295	pulse	1	t		44.0	2.5	/experiments/Knapen_AOT/AOT_stimuli/rescaled_final/1684_rv.mp4	0.0	223.36699414253235	
46	208.61457133293152	fix_post	2		12	44.0	2.5	/experiments/Knapen_AOT/AOT_stimuli/rescaled_final/1684_rv.mp4	0.0	224.2846963405609	0.10004210472106934
47	208.7146134376526	fix_pre	0		120	45.0	2.5	/experiments/Knapen_AOT/AOT_stimuli/rescaled_final/2007_rv.mp4	0.0	224.38473844528198	1.0084798336029053
47	209.29825901985168	pulse	0	t		45.0	2.5	/experiments/Knapen_AOT/AOT_stimuli/rescaled_final/2007_rv.mp4	0.0	224.96838402748108	
47	209.7230932712555	movie	1		283	45.0	2.5	/experiments/Knapen_AOT/AOT_stimuli/rescaled_final/2007_rv.mp4	0.0	225.3932182788849	2.4920713901519775
47	210.89664006233215	pulse	1	t		45.0	2.5	/experiments/Knapen_AOT/AOT_stimuli/rescaled_final/2007_rv.mp4	0.0	226.56676506996155	
47	212.21516466140747	fix_post	2		12	45.0	2.5	/experiments/Knapen_AOT/AOT_stimuli/rescaled_final/2007_rv.mp4	0.0	227.88528966903687	0.10001420974731445
48	212.31517887115479	fix_pre	0		120	46.0	2.5	/experiments/Knapen_AOT/AOT_stimuli/rescaled_final/2104_fw.mp4	0.0	227.98530387878418	1.0084314346313477
48	212.49890542030334	pulse	0	t		46.0	2.5	/experiments/Knapen_AOT/AOT_stimuli/rescaled_final/2104_fw.mp4	0.0	228.16903042793274	
48	213.32361030578613	movie	1		279	46.0	2.5	/experiments/Knapen_AOT/AOT_stimuli/rescaled_final/2104_fw.mp4	0.0	228.99373531341553	2.4920456409454346
48	214.09704160690308	pulse	1	t		46.0	2.5	/experiments/Knapen_AOT/AOT_stimuli/rescaled_final/2104_fw.mp4	0.0	229.76716661453247	
48	215.699223279953	pulse	1	t		46.0	2.5	/experiments/Knapen_AOT/AOT_stimuli/rescaled_final/2104_fw.mp4	0.0	231.3693482875824	
48	215.81565594673157	fix_post	2		12	46.0	2.5	/experiments/Knapen_AOT/AOT_stimuli/rescaled_final/2104_fw.mp4	0.0	231.48578095436096	0.1000053882598877
49	215.91566133499146	fix_pre	0		120	47.0	2.5	/experiments/Knapen_AOT/AOT_stimuli/rescaled_final/1799_fw.mp4	0.0	231.58578634262085	1.0085651874542236
49	216.92422652244568	movie	1		253	47.0	2.5	/experiments/Knapen_AOT/AOT_stimuli/rescaled_final/1799_fw.mp4	0.0	232.59435153007507	2.4920008182525635
49	217.29807472229004	pulse	1	t		47.0	2.5	/experiments/Knapen_AOT/AOT_stimuli/rescaled_final/1799_fw.mp4	0.0	232.96819972991943	
49	218.8973424434662	pulse	1	t		47.0	2.5	/experiments/Knapen_AOT/AOT_stimuli/rescaled_final/1799_fw.mp4	0.0	234.56746745109558	
49	219.41622734069824	fix_post	2		12	47.0	2.5	/experiments/Knapen_AOT/AOT_stimuli/rescaled_final/1799_fw.mp4	0.0	235.08635234832764	0.10003399848937988
50	219.51626133918762	fix_pre	0		119	48.0	2.5	/experiments/Knapen_AOT/AOT_stimuli/rescaled_final/1852_rv.mp4	0.0	235.18638634681702	1.0085115432739258
50	220.49993753433228	pulse	0	t		48.0	2.5	/experiments/Knapen_AOT/AOT_stimuli/rescaled_final/1852_rv.mp4	0.0	236.17006254196167	
50	220.52477288246155	movie	1		272	48.0	2.5	/experiments/Knapen_AOT/AOT_stimuli/rescaled_final/1852_rv.mp4	0.0	236.19489789009094	2.4919493198394775
50	222.09869289398193	pulse	1	t		48.0	2.5	/experiments/Knapen_AOT/AOT_stimuli/rescaled_final/1852_rv.mp4	0.0	237.76881790161133	
50	223.01672220230103	fix_post	2		12	48.0	2.5	/experiments/Knapen_AOT/AOT_stimuli/rescaled_final/1852_rv.mp4	0.0	238.68684720993042	0.10002279281616211
51	223.1167449951172	fix_pre	0		120	49.0	2.5	blank	1.0	238.78687000274658	1.000150203704834
51	223.70037460327148	pulse	0	t		49.0	2.5	blank	1.0	239.37049961090088	
51	224.11689519882202	movie	1		300	49.0	2.5	blank	1.0	239.78702020645142	2.500427722930908
51	225.30084562301636	pulse	1	t		49.0	2.5	blank	1.0	240.97097063064575	
51	226.61732292175293	fix_post	2		12	49.0	2.5	blank	1.0	242.28744792938232	0.09999585151672363
52	226.71731877326965	fix_pre	0		120	50.0	2.5	/experiments/Knapen_AOT/AOT_stimuli/rescaled_final/1786_fw.mp4	0.0	242.38744378089905	1.0084800720214844
52	226.90085172653198	pulse	0	t		50.0	2.5	/experiments/Knapen_AOT/AOT_stimuli/rescaled_final/1786_fw.mp4	0.0	242.57097673416138	
52	227.72579884529114	movie	1		278	50.0	2.5	/experiments/Knapen_AOT/AOT_stimuli/rescaled_final/1786_fw.mp4	0.0	243.39592385292053	2.4920244216918945
52	228.49913048744202	pulse	1	t		50.0	2.5	/experiments/Knapen_AOT/AOT_stimuli/rescaled_final/1786_fw.mp4	0.0	244.1692554950714	
52	230.09933948516846	pulse	1	t		50.0	2.5	/experiments/Knapen_AOT/AOT_stimuli/rescaled_final/1786_fw.mp4	0.0	245.76946449279785	
52	230.21782326698303	fix_post	2		12	50.0	2.5	/experiments/Knapen_AOT/AOT_stimuli/rescaled_final/1786_fw.mp4	0.0	245.88794827461243	0.1000828742980957
53	230.31790614128113	fix_pre	0		120	51.0	2.5	/experiments/Knapen_AOT/AOT_stimuli/rescaled_final/1127_fw.mp4	0.0	245.98803114891052	1.0084824562072754
53	231.3263885974884	movie	1		273	51.0	2.5	/experiments/Knapen_AOT/AOT_stimuli/rescaled_final/1127_fw.mp4	0.0	246.9965136051178	2.491999387741089
53	231.70078587532043	pulse	1	t		51.0	2.5	/experiments/Knapen_AOT/AOT_stimuli/rescaled_final/1127_fw.mp4	0.0	247.37091088294983	
53	233.29998588562012	pulse	1	t		51.0	2.5	/experiments/Knapen_AOT/AOT_stimuli/rescaled_final/1127_fw.mp4	0.0	248.9701108932495	
53	233.8183879852295	fix_post	2		12	51.0	2.5	/experiments/Knapen_AOT/AOT_stimuli/rescaled_final/1127_fw.mp4	0.0	249.4885129928589	0.10004711151123047
54	233.91843509674072	fix_pre	0		119	52.0	2.5	/experiments/Knapen_AOT/AOT_stimuli/rescaled_final/0683_rv.mp4	0.0	249.58856010437012	1.0085866451263428
54	234.90205025672913	pulse	0	t		52.0	2.5	/experiments/Knapen_AOT/AOT_stimuli/rescaled_final/0683_rv.mp4	0.0	250.57217526435852	
54	234.92702174186707	movie	1		273	52.0	2.5	/experiments/Knapen_AOT/AOT_stimuli/rescaled_final/0683_rv.mp4	0.0	250.59714674949646	2.491913318634033
54	236.50100588798523	pulse	1	t		52.0	2.5	/experiments/Knapen_AOT/AOT_stimuli/rescaled_final/0683_rv.mp4	0.0	252.17113089561462	
54	237.4189350605011	fix_post	2		12	52.0	2.5	/experiments/Knapen_AOT/AOT_stimuli/rescaled_final/0683_rv.mp4	0.0	253.0890600681305	0.09997677803039551
55	237.5189118385315	fix_pre	0		120	53.0	2.5	/experiments/Knapen_AOT/AOT_stimuli/rescaled_final/0004_fw.mp4	0.0	253.1890368461609	1.0085184574127197
55	238.10262537002563	pulse	0	t		53.0	2.5	/experiments/Knapen_AOT/AOT_stimuli/rescaled_final/0004_fw.mp4	0.0	253.77275037765503	
55	238.5274302959442	movie	1		261	53.0	2.5	/experiments/Knapen_AOT/AOT_stimuli/rescaled_final/0004_fw.mp4	0.0	254.1975553035736	2.5003507137298584
55	239.70160102844238	pulse	1	t		53.0	2.5	/experiments/Knapen_AOT/AOT_stimuli/rescaled_final/0004_fw.mp4	0.0	255.37172603607178	
55	241.02778100967407	fix_post	2		11	53.0	2.5	/experiments/Knapen_AOT/AOT_stimuli/rescaled_final/0004_fw.mp4	0.0	256.69790601730347	0.0916757583618164
56	241.1194567680359	fix_pre	0		120	54.0	2.5	/experiments/Knapen_AOT/AOT_stimuli/rescaled_final/1276_rv.mp4	0.0	256.7895817756653	1.0084753036499023
56	241.3031497001648	pulse	0	t		54.0	2.5	/experiments/Knapen_AOT/AOT_stimuli/rescaled_final/1276_rv.mp4	0.0	256.9732747077942	
56	242.1279320716858	movie	1		275	54.0	2.5	/experiments/Knapen_AOT/AOT_stimuli/rescaled_final/1276_rv.mp4	0.0	257.7980570793152	2.4920542240142822
56	242.90139722824097	pulse	1	t		54.0	2.5	/experiments/Knapen_AOT/AOT_stimuli/rescaled_final/1276_rv.mp4	0.0	258.57152223587036	
56	244.5014889240265	pulse	1	t		54.0	2.5	/experiments/Knapen_AOT/AOT_stimuli/rescaled_final/1276_rv.mp4	0.0	260.1716139316559	
56	244.61998629570007	fix_post	2		12	54.0	2.5	/experiments/Knapen_AOT/AOT_stimuli/rescaled_final/1276_rv.mp4	0.0	260.29011130332947	0.10005617141723633
57	244.7200424671173	fix_pre	0		120	55.0	2.5	/experiments/Knapen_AOT/AOT_stimuli/rescaled_final/0652_fw.mp4	0.0	260.3901674747467	1.008558750152588
57	245.7286012172699	movie	1		273	55.0	2.5	/experiments/Knapen_AOT/AOT_stimuli/rescaled_final/0652_fw.mp4	0.0	261.3987262248993	2.491971492767334
57	246.10463309288025	pulse	1	t		55.0	2.5	/experiments/Knapen_AOT/AOT_stimuli/rescaled_final/0652_fw.mp4	0.0	261.77475810050964	
57	247.70255541801453	pulse	1	t		55.0	2.5	/experiments/Knapen_AOT/AOT_stimuli/rescaled_final/0652_fw.mp4	0.0	263.3726804256439	
57	248.22057271003723	fix_post	2		12	55.0	2.5	/experiments/Knapen_AOT/AOT_stimuli/rescaled_final/0652_fw.mp4	0.0	263.8906977176666	0.10001254081726074
58	248.3205852508545	fix_pre	0		119	56.0	2.5	blank	1.0	263.9907102584839	0.9917347431182861
58	249.2968819141388	pulse	0	t		56.0	2.5	blank	1.0	264.9670069217682	
58	249.31231999397278	movie	1		301	56.0	2.5	blank	1.0	264.9824450016022	2.5087332725524902
58	250.8977813720703	pulse	1	t		56.0	2.5	blank	1.0	266.5679063796997	
58	251.82105326652527	fix_post	2		12	56.0	2.5	blank	1.0	267.49117827415466	0.10002684593200684
59	251.92108011245728	fix_pre	0		120	57.0	2.5	/experiments/Knapen_AOT/AOT_stimuli/rescaled_final/1747_fw.mp4	0.0	267.59120512008667	1.008512258529663
59	252.49671268463135	pulse	0	t		57.0	2.5	/experiments/Knapen_AOT/AOT_stimuli/rescaled_final/1747_fw.mp4	0.0	268.16683769226074	
59	252.92959237098694	movie	1		287	57.0	2.5	/experiments/Knapen_AOT/AOT_stimuli/rescaled_final/1747_fw.mp4	0.0	268.59971737861633	2.4920177459716797
59	254.0967652797699	pulse	1	t		57.0	2.5	/experiments/Knapen_AOT/AOT_stimuli/rescaled_final/1747_fw.mp4	0.0	269.7668902873993	
59	255.42161011695862	fix_post	2		12	57.0	2.5	/experiments/Knapen_AOT/AOT_stimuli/rescaled_final/1747_fw.mp4	0.0	271.091735124588	0.10012292861938477
60	255.521733045578	fix_pre	0		120	58.0	2.5	/experiments/Knapen_AOT/AOT_stimuli/rescaled_final/1633_rv.mp4	0.0	271.1918580532074	1.0083763599395752
60	255.69686007499695	pulse	0	t		58.0	2.5	/experiments/Knapen_AOT/AOT_stimuli/rescaled_final/1633_rv.mp4	0.0	271.36698508262634	
60	256.5301094055176	movie	1		281	58.0	2.5	/experiments/Knapen_AOT/AOT_stimuli/rescaled_final/1633_rv.mp4	0.0	272.200234413147	2.492027759552002
60	257.29736328125	pulse	1	t		58.0	2.5	/experiments/Knapen_AOT/AOT_stimuli/rescaled_final/1633_rv.mp4	0.0	272.9674882888794	
60	258.89747166633606	pulse	1	t		58.0	2.5	/experiments/Knapen_AOT/AOT_stimuli/rescaled_final/1633_rv.mp4	0.0	274.56759667396545	
60	259.0221371650696	fix_post	2		12	58.0	2.5	/experiments/Knapen_AOT/AOT_stimuli/rescaled_final/1633_rv.mp4	0.0	274.692262172699	0.10002660751342773
61	259.122163772583	fix_pre	0		120	59.0	2.5	/experiments/Knapen_AOT/AOT_stimuli/rescaled_final/0529_fw.mp4	0.0	274.7922887802124	1.0085468292236328
61	260.13071060180664	movie	1		271	59.0	2.5	/experiments/Knapen_AOT/AOT_stimuli/rescaled_final/0529_fw.mp4	0.0	275.80083560943604	2.491950511932373
61	260.49772810935974	pulse	1	t		59.0	2.5	/experiments/Knapen_AOT/AOT_stimuli/rescaled_final/0529_fw.mp4	0.0	276.16785311698914	
61	262.0972990989685	pulse	1	t		59.0	2.5	/experiments/Knapen_AOT/AOT_stimuli/rescaled_final/0529_fw.mp4	0.0	277.7674241065979	
61	262.622661113739	fix_post	2		12	59.0	2.5	/experiments/Knapen_AOT/AOT_stimuli/rescaled_final/0529_fw.mp4	0.0	278.2927861213684	0.10008406639099121
62	262.72274518013	fix_pre	0		118	60.0	2.5	/experiments/Knapen_AOT/AOT_stimuli/rescaled_final/2068_rv.mp4	0.0	278.3928701877594	0.9919896125793457
62	263.6982409954071	pulse	0	t		60.0	2.5	/experiments/Knapen_AOT/AOT_stimuli/rescaled_final/2068_rv.mp4	0.0	279.3683660030365	
62	263.71473479270935	movie	1		288	60.0	2.5	/experiments/Knapen_AOT/AOT_stimuli/rescaled_final/2068_rv.mp4	0.0	279.38485980033875	2.5001564025878906
62	265.29721331596375	pulse	1	t		60.0	2.5	/experiments/Knapen_AOT/AOT_stimuli/rescaled_final/2068_rv.mp4	0.0	280.96733832359314	
62	266.21489119529724	fix_post	2		12	60.0	2.5	/experiments/Knapen_AOT/AOT_stimuli/rescaled_final/2068_rv.mp4	0.0	281.88501620292664	0.10002017021179199
63	266.31491136550903	fix_pre	0		120	61.0	2.5	/experiments/Knapen_AOT/AOT_stimuli/rescaled_final/0220_fw.mp4	0.0	281.9850363731384	1.0085220336914062
63	266.8985364437103	pulse	0	t		61.0	2.5	/experiments/Knapen_AOT/AOT_stimuli/rescaled_final/0220_fw.mp4	0.0	282.5686614513397	
63	267.32343339920044	movie	1		274	61.0	2.5	/experiments/Knapen_AOT/AOT_stimuli/rescaled_final/0220_fw.mp4	0.0	282.99355840682983	2.4920105934143066
63	268.497004032135	pulse	1	t		61.0	2.5	/experiments/Knapen_AOT/AOT_stimuli/rescaled_final/0220_fw.mp4	0.0	284.1671290397644	
63	269.81544399261475	fix_post	2		11	61.0	2.5	/experiments/Knapen_AOT/AOT_stimuli/rescaled_final/0220_fw.mp4	0.0	285.48556900024414	0.10003209114074707
64	269.9154760837555	fix_pre	0		120	62.0	2.5	blank	1.0	285.5856010913849	1.0001194477081299
64	270.09901905059814	pulse	0	t		62.0	2.5	blank	1.0	285.76914405822754	
64	270.9155955314636	movie	1		300	62.0	2.5	blank	1.0	286.585720539093	2.5003557205200195
64	271.6993246078491	pulse	1	t		62.0	2.5	blank	1.0	287.3694496154785	
64	273.2996006011963	pulse	1	t		62.0	2.5	blank	1.0	288.9697256088257	
64	273.41595125198364	fix_post	2		12	62.0	2.5	blank	1.0	289.08607625961304	0.10002684593200684
65	273.51597809791565	fix_pre	0		120	63.0	2.5	/experiments/Knapen_AOT/AOT_stimuli/rescaled_final/0829_rv.mp4	0.0	289.18610310554504	1.0085041522979736
65	274.5244822502136	movie	1		266	63.0	2.5	/experiments/Knapen_AOT/AOT_stimuli/rescaled_final/0829_rv.mp4	0.0	290.194607257843	2.4920480251312256
65	274.8985102176666	pulse	1	t		63.0	2.5	/experiments/Knapen_AOT/AOT_stimuli/rescaled_final/0829_rv.mp4	0.0	290.568635225296	
65	276.49845027923584	pulse	1	t		63.0	2.5	/experiments/Knapen_AOT/AOT_stimuli/rescaled_final/0829_rv.mp4	0.0	292.16857528686523	
65	277.01653027534485	fix_post	2		12	63.0	2.5	/experiments/Knapen_AOT/AOT_stimuli/rescaled_final/0829_rv.mp4	0.0	292.68665528297424	0.09998369216918945
66	277.11651396751404	fix_pre	0		119	64.0	2.5	/experiments/Knapen_AOT/AOT_stimuli/rescaled_final/1721_rv.mp4	0.0	292.78663897514343	1.0001780986785889
66	278.1008744239807	pulse	0	t		64.0	2.5	/experiments/Knapen_AOT/AOT_stimuli/rescaled_final/1721_rv.mp4	0.0	293.7709994316101	
66	278.1166920661926	movie	1		268	64.0	2.5	/experiments/Knapen_AOT/AOT_stimuli/rescaled_final/1721_rv.mp4	0.0	293.786817073822	2.500349760055542
66	279.69975900650024	pulse	1	t		64.0	2.5	/experiments/Knapen_AOT/AOT_stimuli/rescaled_final/1721_rv.mp4	0.0	295.36988401412964	
66	280.61704182624817	fix_post	2		12	64.0	2.5	/experiments/Knapen_AOT/AOT_stimuli/rescaled_final/1721_rv.mp4	0.0	296.28716683387756	0.10015106201171875
67	280.7171928882599	fix_pre	0		120	65.0	2.5	/experiments/Knapen_AOT/AOT_stimuli/rescaled_final/0500_rv.mp4	0.0	296.3873178958893	1.0083978176116943
67	281.3008358478546	pulse	0	t		65.0	2.5	/experiments/Knapen_AOT/AOT_stimuli/rescaled_final/0500_rv.mp4	0.0	296.970960855484	
67	281.7255907058716	movie	1		282	65.0	2.5	/experiments/Knapen_AOT/AOT_stimuli/rescaled_final/0500_rv.mp4	0.0	297.395715713501	2.4919991493225098
67	282.9001359939575	pulse	1	t		65.0	2.5	/experiments/Knapen_AOT/AOT_stimuli/rescaled_final/0500_rv.mp4	0.0	298.5702610015869	
67	284.2175898551941	fix_post	2		12	65.0	2.5	/experiments/Knapen_AOT/AOT_stimuli/rescaled_final/0500_rv.mp4	0.0	299.8877148628235	0.1000208854675293
68	284.3176107406616	fix_pre	0		120	66.0	2.5	/experiments/Knapen_AOT/AOT_stimuli/rescaled_final/1867_rv.mp4	0.0	299.987735748291	1.008528470993042
68	284.50158405303955	pulse	0	t		66.0	2.5	/experiments/Knapen_AOT/AOT_stimuli/rescaled_final/1867_rv.mp4	0.0	300.17170906066895	
68	285.32613921165466	movie	1		287	66.0	2.5	/experiments/Knapen_AOT/AOT_stimuli/rescaled_final/1867_rv.mp4	0.0	300.99626421928406	2.4920239448547363
68	286.0998876094818	pulse	1	t		66.0	2.5	/experiments/Knapen_AOT/AOT_stimuli/rescaled_final/1867_rv.mp4	0.0	301.7700126171112	
68	287.70169019699097	pulse	1	t		66.0	2.5	/experiments/Knapen_AOT/AOT_stimuli/rescaled_final/1867_rv.mp4	0.0	303.37181520462036	
68	287.8181631565094	fix_post	2		12	66.0	2.5	/experiments/Knapen_AOT/AOT_stimuli/rescaled_final/1867_rv.mp4	0.0	303.4882881641388	0.10005736351013184
69	287.91822052001953	fix_pre	0		120	67.0	2.5	/experiments/Knapen_AOT/AOT_stimuli/rescaled_final/0759_fw.mp4	0.0	303.5883455276489	1.0084474086761475
69	288.9266679286957	movie	1		280	67.0	2.5	/experiments/Knapen_AOT/AOT_stimuli/rescaled_final/0759_fw.mp4	0.0	304.5967929363251	2.4919896125793457
69	289.3021020889282	pulse	1	t		67.0	2.5	/experiments/Knapen_AOT/AOT_stimuli/rescaled_final/0759_fw.mp4	0.0	304.9722270965576	
69	290.89991426467896	pulse	1	t		67.0	2.5	/experiments/Knapen_AOT/AOT_stimuli/rescaled_final/0759_fw.mp4	0.0	306.57003927230835	
69	291.418657541275	fix_post	2		12	67.0	2.5	/experiments/Knapen_AOT/AOT_stimuli/rescaled_final/0759_fw.mp4	0.0	307.0887825489044	0.10020565986633301
70	291.51886320114136	fix_pre	0		119	68.0	2.5	/experiments/Knapen_AOT/AOT_stimuli/rescaled_final/2099_rv.mp4	0.0	307.18898820877075	1.0083324909210205
70	292.50271224975586	pulse	0	t		68.0	2.5	/experiments/Knapen_AOT/AOT_stimuli/rescaled_final/2099_rv.mp4	0.0	308.17283725738525	
70	292.5271956920624	movie	1		276	68.0	2.5	/experiments/Knapen_AOT/AOT_stimuli/rescaled_final/2099_rv.mp4	0.0	308.1973206996918	2.492027759552002
70	294.10240840911865	pulse	1	t		68.0	2.5	/experiments/Knapen_AOT/AOT_stimuli/rescaled_final/2099_rv.mp4	0.0	309.77253341674805	
70	295.0192234516144	fix_post	2		12	68.0	2.5	/experiments/Knapen_AOT/AOT_stimuli/rescaled_final/2099_rv.mp4	0.0	310.6893484592438	0.10000729560852051
71	295.1192307472229	fix_pre	0		120	69.0	2.5	/experiments/Knapen_AOT/AOT_stimuli/rescaled_final/1762_rv.mp4	0.0	310.7893557548523	1.0086185932159424
71	295.70303535461426	pulse	0	t		69.0	2.5	/experiments/Knapen_AOT/AOT_stimuli/rescaled_final/1762_rv.mp4	0.0	311.37316036224365	
71	296.12784934043884	movie	1		266	69.0	2.5	/experiments/Knapen_AOT/AOT_stimuli/rescaled_final/1762_rv.mp4	0.0	311.79797434806824	2.4919168949127197
71	297.3015604019165	pulse	1	t		69.0	2.5	/experiments/Knapen_AOT/AOT_stimuli/rescaled_final/1762_rv.mp4	0.0	312.9716854095459	
71	298.61976623535156	fix_post	2		12	69.0	2.5	/experiments/Knapen_AOT/AOT_stimuli/rescaled_final/1762_rv.mp4	0.0	314.28989124298096	0.10001587867736816
72	298.71978211402893	fix_pre	0		120	70.0	2.5	blank	1.0	314.3899071216583	1.0002796649932861
72	298.9037699699402	pulse	0	t		70.0	2.5	blank	1.0	314.5738949775696	
72	299.7200617790222	movie	1		300	70.0	2.5	blank	1.0	315.3901867866516	2.500229835510254
72	300.49608540534973	pulse	1	t		70.0	2.5	blank	1.0	316.1662104129791	
72	302.09746980667114	pulse	1	t		70.0	2.5	blank	1.0	317.76759481430054	
72	302.22029161453247	fix_post	2		12	70.0	2.5	blank	1.0	317.89041662216187	0.10010695457458496
73	302.32039856910706	fix_pre	0		120	71.0	2.5	/experiments/Knapen_AOT/AOT_stimuli/rescaled_final/0995_rv.mp4	0.0	317.99052357673645	1.0084044933319092
73	303.32880306243896	movie	1		272	71.0	2.5	/experiments/Knapen_AOT/AOT_stimuli/rescaled_final/0995_rv.mp4	0.0	318.99892807006836	2.4920496940612793
73	303.6960217952728	pulse	1	t		71.0	2.5	/experiments/Knapen_AOT/AOT_stimuli/rescaled_final/0995_rv.mp4	0.0	319.3661468029022	
73	305.29608488082886	pulse	1	t		71.0	2.5	/experiments/Knapen_AOT/AOT_stimuli/rescaled_final/0995_rv.mp4	0.0	320.96620988845825	
73	305.82085275650024	fix_post	2		12	71.0	2.5	/experiments/Knapen_AOT/AOT_stimuli/rescaled_final/0995_rv.mp4	0.0	321.49097776412964	0.10000872611999512
74	305.92086148262024	fix_pre	0		118	72.0	2.5	/experiments/Knapen_AOT/AOT_stimuli/rescaled_final/0582_rv.mp4	0.0	321.59098649024963	1.0002455711364746
74	306.896368265152	pulse	0	t		72.0	2.5	/experiments/Knapen_AOT/AOT_stimuli/rescaled_final/0582_rv.mp4	0.0	322.5664932727814	
74	306.9211070537567	movie	1		262	72.0	2.5	/experiments/Knapen_AOT/AOT_stimuli/rescaled_final/0582_rv.mp4	0.0	322.5912320613861	2.4919381141662598
74	308.49725794792175	pulse	1	t		72.0	2.5	/experiments/Knapen_AOT/AOT_stimuli/rescaled_final/0582_rv.mp4	0.0	324.16738295555115	
74	309.413045167923	fix_post	2		12	72.0	2.5	/experiments/Knapen_AOT/AOT_stimuli/rescaled_final/0582_rv.mp4	0.0	325.08317017555237	0.10002303123474121
75	309.5130681991577	fix_pre	0		120	73.0	2.5	/experiments/Knapen_AOT/AOT_stimuli/rescaled_final/1084_fw.mp4	0.0	325.1831932067871	1.0085110664367676
75	310.09683322906494	pulse	0	t		73.0	2.5	/experiments/Knapen_AOT/AOT_stimuli/rescaled_final/1084_fw.mp4	0.0	325.76695823669434	
75	310.5215792655945	movie	1		270	73.0	2.5	/experiments/Knapen_AOT/AOT_stimuli/rescaled_final/1084_fw.mp4	0.0	326.1917042732239	2.4920403957366943
75	311.6971790790558	pulse	1	t		73.0	2.5	/experiments/Knapen_AOT/AOT_stimuli/rescaled_final/1084_fw.mp4	0.0	327.3673040866852	
75	313.0136196613312	fix_post	2		12	73.0	2.5	/experiments/Knapen_AOT/AOT_stimuli/rescaled_final/1084_fw.mp4	0.0	328.68374466896057	0.10008907318115234
76	313.11370873451233	fix_pre	0		120	74.0	2.5	/experiments/Knapen_AOT/AOT_stimuli/rescaled_final/1124_fw.mp4	0.0	328.7838337421417	1.0084636211395264
76	313.29723024368286	pulse	0	t		74.0	2.5	/experiments/Knapen_AOT/AOT_stimuli/rescaled_final/1124_fw.mp4	0.0	328.96735525131226	
76	314.12217235565186	movie	1		277	74.0	2.5	/experiments/Knapen_AOT/AOT_stimuli/rescaled_final/1124_fw.mp4	0.0	329.79229736328125	2.491959810256958
76	314.8975932598114	pulse	1	t		74.0	2.5	/experiments/Knapen_AOT/AOT_stimuli/rescaled_final/1124_fw.mp4	0.0	330.5677182674408	
76	316.4977355003357	pulse	1	t		74.0	2.5	/experiments/Knapen_AOT/AOT_stimuli/rescaled_final/1124_fw.mp4	0.0	332.1678605079651	
76	316.6141321659088	fix_post	2		12	74.0	2.5	/experiments/Knapen_AOT/AOT_stimuli/rescaled_final/1124_fw.mp4	0.0	332.2842571735382	0.10004186630249023
77	316.7141740322113	fix_pre	0		120	75.0	2.5	/experiments/Knapen_AOT/AOT_stimuli/rescaled_final/0634_rv.mp4	0.0	332.3842990398407	1.0084664821624756
77	317.7226405143738	movie	1		274	75.0	2.5	/experiments/Knapen_AOT/AOT_stimuli/rescaled_final/0634_rv.mp4	0.0	333.3927655220032	2.492037773132324
77	318.096875667572	pulse	1	t		75.0	2.5	/experiments/Knapen_AOT/AOT_stimuli/rescaled_final/0634_rv.mp4	0.0	333.7670006752014	
77	319.696316242218	pulse	1	t		75.0	2.5	/experiments/Knapen_AOT/AOT_stimuli/rescaled_final/0634_rv.mp4	0.0	335.3664412498474	
77	320.2146782875061	fix_post	2		12	75.0	2.5	/experiments/Knapen_AOT/AOT_stimuli/rescaled_final/0634_rv.mp4	0.0	335.8848032951355	0.09996485710144043
78	320.31464314460754	fix_pre	0		119	76.0	2.5	/experiments/Knapen_AOT/AOT_stimuli/rescaled_final/1062_fw.mp4	0.0	335.98476815223694	1.0001895427703857
78	321.2985408306122	pulse	0	t		76.0	2.5	/experiments/Knapen_AOT/AOT_stimuli/rescaled_final/1062_fw.mp4	0.0	336.9686658382416	
78	321.31483268737793	movie	1		255	76.0	2.5	/experiments/Knapen_AOT/AOT_stimuli/rescaled_final/1062_fw.mp4	0.0	336.9849576950073	2.500398635864258
78	322.89710998535156	pulse	1	t		76.0	2.5	/experiments/Knapen_AOT/AOT_stimuli/rescaled_final/1062_fw.mp4	0.0	338.56723499298096	
78	323.8152313232422	fix_post	2		12	76.0	2.5	/experiments/Knapen_AOT/AOT_stimuli/rescaled_final/1062_fw.mp4	0.0	339.4853563308716	0.10001468658447266
79	323.91524600982666	fix_pre	0		120	77.0	2.5	blank	1.0	339.58537101745605	1.0001487731933594
79	324.4991064071655	pulse	0	t		77.0	2.5	blank	1.0	340.1692314147949	
79	324.91539478302	movie	1		300	77.0	2.5	blank	1.0	340.5855197906494	2.50036358833313
79	326.0991199016571	pulse	1	t		77.0	2.5	blank	1.0	341.7692449092865	
79	327.41575837135315	fix_post	2		12	77.0	2.5	blank	1.0	343.08588337898254	0.09997844696044922
80	327.5157368183136	fix_pre	0		120	78.0	2.5	/experiments/Knapen_AOT/AOT_stimuli/rescaled_final/1779_rv.mp4	0.0	343.185861825943	1.0085208415985107
80	327.6993918418884	pulse	0	t		78.0	2.5	/experiments/Knapen_AOT/AOT_stimuli/rescaled_final/1779_rv.mp4	0.0	343.3695168495178	
80	328.5242576599121	movie	1		255	78.0	2.5	/experiments/Knapen_AOT/AOT_stimuli/rescaled_final/1779_rv.mp4	0.0	344.1943826675415	2.500450611114502
80	329.2979567050934	pulse	1	t		78.0	2.5	/experiments/Knapen_AOT/AOT_stimuli/rescaled_final/1779_rv.mp4	0.0	344.9680817127228	
80	330.8977897167206	pulse	1	t		78.0	2.5	/experiments/Knapen_AOT/AOT_stimuli/rescaled_final/1779_rv.mp4	0.0	346.56791472435	
80	331.0247082710266	fix_post	2		11	78.0	2.5	/experiments/Knapen_AOT/AOT_stimuli/rescaled_final/1779_rv.mp4	0.0	346.694833278656	0.09157967567443848
81	331.11628794670105	fix_pre	0		120	79.0	2.5	/experiments/Knapen_AOT/AOT_stimuli/rescaled_final/1106_fw.mp4	0.0	346.78641295433044	1.0084846019744873
81	332.12477254867554	movie	1		262	79.0	2.5	/experiments/Knapen_AOT/AOT_stimuli/rescaled_final/1106_fw.mp4	0.0	347.79489755630493	2.492184638977051
81	332.4984006881714	pulse	1	t		79.0	2.5	/experiments/Knapen_AOT/AOT_stimuli/rescaled_final/1106_fw.mp4	0.0	348.1685256958008	
81	334.0988521575928	pulse	1	t		79.0	2.5	/experiments/Knapen_AOT/AOT_stimuli/rescaled_final/1106_fw.mp4	0.0	349.76897716522217	
81	334.6169571876526	fix_post	2		12	79.0	2.5	/experiments/Knapen_AOT/AOT_stimuli/rescaled_final/1106_fw.mp4	0.0	350.287082195282	0.09996557235717773
82	334.71692276000977	fix_pre	0		119	80.0	2.5	/experiments/Knapen_AOT/AOT_stimuli/rescaled_final/2133_rv.mp4	0.0	350.38704776763916	1.0001118183135986
82	335.7007825374603	pulse	0	t		80.0	2.5	/experiments/Knapen_AOT/AOT_stimuli/rescaled_final/2133_rv.mp4	0.0	351.3709075450897	
82	335.71703457832336	movie	1		269	80.0	2.5	/experiments/Knapen_AOT/AOT_stimuli/rescaled_final/2133_rv.mp4	0.0	351.38715958595276	2.5003576278686523
82	337.2992489337921	pulse	1	t		80.0	2.5	/experiments/Knapen_AOT/AOT_stimuli/rescaled_final/2133_rv.mp4	0.0	352.9693739414215	
82	338.217392206192	fix_post	2		12	80.0	2.5	/experiments/Knapen_AOT/AOT_stimuli/rescaled_final/2133_rv.mp4	0.0	353.8875172138214	0.10001206398010254
83	338.3174042701721	fix_pre	0		120	81.0	2.5	/experiments/Knapen_AOT/AOT_stimuli/rescaled_final/1290_fw.mp4	0.0	353.9875292778015	1.00850248336792
83	338.9010615348816	pulse	0	t		81.0	2.5	/experiments/Knapen_AOT/AOT_stimuli/rescaled_final/1290_fw.mp4	0.0	354.571186542511	
83	339.32590675354004	movie	1		242	81.0	2.5	/experiments/Knapen_AOT/AOT_stimuli/rescaled_final/1290_fw.mp4	0.0	354.99603176116943	2.4920132160186768
83	340.50114464759827	pulse	1	t		81.0	2.5	/experiments/Knapen_AOT/AOT_stimuli/rescaled_final/1290_fw.mp4	0.0	356.17126965522766	
83	341.8179199695587	fix_post	2		12	81.0	2.5	/experiments/Knapen_AOT/AOT_stimuli/rescaled_final/1290_fw.mp4	0.0	357.4880449771881	0.10001945495605469
84	341.91793942451477	fix_pre	0		120	82.0	2.5	/experiments/Knapen_AOT/AOT_stimuli/rescaled_final/1692_rv.mp4	0.0	357.58806443214417	1.0084617137908936
84	342.1015102863312	pulse	0	t		82.0	2.5	/experiments/Knapen_AOT/AOT_stimuli/rescaled_final/1692_rv.mp4	0.0	357.77163529396057	
84	342.92640113830566	movie	1		258	82.0	2.5	/experiments/Knapen_AOT/AOT_stimuli/rescaled_final/1692_rv.mp4	0.0	358.59652614593506	2.4921252727508545
84	343.7019793987274	pulse	1	t		82.0	2.5	/experiments/Knapen_AOT/AOT_stimuli/rescaled_final/1692_rv.mp4	0.0	359.3721044063568	
84	345.3005177974701	pulse	1	t		82.0	2.5	/experiments/Knapen_AOT/AOT_stimuli/rescaled_final/1692_rv.mp4	0.0	360.9706428050995	
84	345.4185264110565	fix_post	2		12	82.0	2.5	/experiments/Knapen_AOT/AOT_stimuli/rescaled_final/1692_rv.mp4	0.0	361.0886514186859	0.09996962547302246
85	345.51849603652954	fix_pre	0		120	83.0	2.5	blank	1.0	361.18862104415894	1.0002901554107666
85	346.5187861919403	movie	1		300	83.0	2.5	blank	1.0	362.1889111995697	2.5002121925354004
85	346.9022328853607	pulse	1	t		83.0	2.5	blank	1.0	362.5723578929901	
85	348.50250363349915	pulse	1	t		83.0	2.5	blank	1.0	364.17262864112854	
85	349.0189983844757	fix_post	2		12	83.0	2.5	blank	1.0	364.6891233921051	0.10002613067626953
87	349.119024515152	stim	0		1715					364.7891495227814	14.29382061958313
87	350.1027684211731	pulse	0	t						365.7728934288025	
87	351.70297384262085	pulse	0	t						367.37309885025024	
87	353.3032159805298	pulse	0	t						368.9733409881592	
87	354.9035851955414	pulse	0	t						370.5737102031708	
87	356.4964916706085	pulse	0	t						372.1666166782379	
87	358.0978147983551	pulse	0	t						373.7679398059845	
87	359.69653725624084	pulse	0	t						375.36666226387024	
87	361.2969527244568	pulse	0	t						376.9670777320862	
87	362.8964340686798	pulse	0	t						378.5665590763092	
