trial_nr	onset	event_type	phase	response	nr_frames	movie_index	movie_duration	movie_file	blank	onset_abs	duration
0	0.19997143745422363	stim	0		6					20.75550413131714	0.06663322448730469
0	0.2586524486541748	response	0	space						20.81418514251709	
1	0.2666046619415283	stim	0		4507					20.822137355804443	37.58308792114258
1	37.83165383338928	pulse	0	t						58.3871865272522	
1	37.849692583084106	stim	1		1715					58.40522527694702	14.299612522125244
1	39.41434383392334	pulse	1	t						59.969876527786255	
1	41.014726400375366	pulse	1	t						61.57025909423828	
1	42.61476445198059	pulse	1	t						63.170297145843506	
1	44.21498370170593	pulse	1	t						64.77051639556885	
1	45.81518268585205	pulse	1	t						66.37071537971497	
1	47.415574073791504	pulse	1	t						67.97110676765442	
1	49.015644550323486	pulse	1	t						69.5711772441864	
1	50.615914821624756	pulse	1	t						71.17144751548767	
2	52.14930510520935	fix_pre	0		3	0.0	2.5	/experiments/knapen_AOT/AOT_stimuli/rescaled_final/1026_rv.mp4	0.0	72.70483779907227	0.1335282325744629
2	52.21632432937622	pulse	0	t		0.0	2.5	/experiments/knapen_AOT/AOT_stimuli/rescaled_final/1026_rv.mp4	0.0	72.77185702323914	
2	52.28283333778381	movie	1		295	0.0	2.5	/experiments/knapen_AOT/AOT_stimuli/rescaled_final/1026_rv.mp4	0.0	72.83836603164673	2.4585418701171875
2	53.81286430358887	pulse	1	t		0.0	2.5	/experiments/knapen_AOT/AOT_stimuli/rescaled_final/1026_rv.mp4	0.0	74.36839699745178	
2	54.741375207901	fix_post	2		12	0.0	2.5	/experiments/knapen_AOT/AOT_stimuli/rescaled_final/1026_rv.mp4	0.0	75.29690790176392	0.10005712509155273
3	54.841432332992554	fix_pre	0		120	1.0	2.5	/experiments/knapen_AOT/AOT_stimuli/rescaled_final/1437_fw.mp4	0.0	75.39696502685547	1.0084457397460938
3	55.4167058467865	pulse	0	t		1.0	2.5	/experiments/knapen_AOT/AOT_stimuli/rescaled_final/1437_fw.mp4	0.0	75.97223854064941	
3	55.84987807273865	movie	1		298	1.0	2.5	/experiments/knapen_AOT/AOT_stimuli/rescaled_final/1437_fw.mp4	0.0	76.40541076660156	2.492082118988037
3	57.01345872879028	pulse	1	t		1.0	2.5	/experiments/knapen_AOT/AOT_stimuli/rescaled_final/1437_fw.mp4	0.0	77.5689914226532	
3	58.341960191726685	fix_post	2		12	1.0	2.5	/experiments/knapen_AOT/AOT_stimuli/rescaled_final/1437_fw.mp4	0.0	78.8974928855896	0.09999489784240723
4	58.44195508956909	fix_pre	0		120	2.0	2.5	/experiments/knapen_AOT/AOT_stimuli/rescaled_final/1383_fw.mp4	0.0	78.997487783432	1.000091314315796
4	58.61715245246887	pulse	0	t		2.0	2.5	/experiments/knapen_AOT/AOT_stimuli/rescaled_final/1383_fw.mp4	0.0	79.17268514633179	
4	59.44204640388489	movie	1		299	2.0	2.5	/experiments/knapen_AOT/AOT_stimuli/rescaled_final/1383_fw.mp4	0.0	79.9975790977478	2.500446081161499
4	60.21365690231323	pulse	1	t		2.0	2.5	/experiments/knapen_AOT/AOT_stimuli/rescaled_final/1383_fw.mp4	0.0	80.76918959617615	
4	61.81353211402893	pulse	1	t		2.0	2.5	/experiments/knapen_AOT/AOT_stimuli/rescaled_final/1383_fw.mp4	0.0	82.36906480789185	
4	61.94249248504639	fix_post	2		12	2.0	2.5	/experiments/knapen_AOT/AOT_stimuli/rescaled_final/1383_fw.mp4	0.0	82.4980251789093	0.10004043579101562
5	62.0425329208374	fix_pre	0		120	3.0	2.5	/experiments/knapen_AOT/AOT_stimuli/rescaled_final/1121_rv.mp4	0.0	82.59806561470032	1.0003771781921387
5	63.04291009902954	movie	1		295	3.0	2.5	/experiments/knapen_AOT/AOT_stimuli/rescaled_final/1121_rv.mp4	0.0	83.59844279289246	2.500089168548584
5	63.414072036743164	pulse	1	t		3.0	2.5	/experiments/knapen_AOT/AOT_stimuli/rescaled_final/1121_rv.mp4	0.0	83.96960473060608	
5	65.01397275924683	pulse	1	t		3.0	2.5	/experiments/knapen_AOT/AOT_stimuli/rescaled_final/1121_rv.mp4	0.0	85.56950545310974	
5	65.54299926757812	fix_post	2		12	3.0	2.5	/experiments/knapen_AOT/AOT_stimuli/rescaled_final/1121_rv.mp4	0.0	86.09853196144104	0.10002899169921875
6	65.64302825927734	fix_pre	0		118	4.0	2.5	/experiments/knapen_AOT/AOT_stimuli/rescaled_final/1615_rv.mp4	0.0	86.19856095314026	0.9918301105499268
6	66.61832427978516	pulse	0	t		4.0	2.5	/experiments/knapen_AOT/AOT_stimuli/rescaled_final/1615_rv.mp4	0.0	87.17385697364807	
6	66.63485836982727	movie	1		299	4.0	2.5	/experiments/knapen_AOT/AOT_stimuli/rescaled_final/1615_rv.mp4	0.0	87.19039106369019	2.5003676414489746
6	68.2151391506195	pulse	1	t		4.0	2.5	/experiments/knapen_AOT/AOT_stimuli/rescaled_final/1615_rv.mp4	0.0	88.77067184448242	
6	69.13522601127625	fix_post	2		12	4.0	2.5	/experiments/knapen_AOT/AOT_stimuli/rescaled_final/1615_rv.mp4	0.0	89.69075870513916	0.10000967979431152
7	69.23523569107056	fix_pre	0		120	5.0	2.5	blank	1.0	89.79076838493347	1.0001485347747803
7	69.81882524490356	pulse	0	t		5.0	2.5	blank	1.0	90.37435793876648	
7	70.23538422584534	movie	1		300	5.0	2.5	blank	1.0	90.79091691970825	2.5004377365112305
7	71.41906595230103	pulse	1	t		5.0	2.5	blank	1.0	91.97459864616394	
7	72.73582196235657	fix_post	2		12	5.0	2.5	blank	1.0	93.29135465621948	0.09998440742492676
8	72.8358063697815	fix_pre	0		120	6.0	2.5	/experiments/knapen_AOT/AOT_stimuli/rescaled_final/1211_rv.mp4	0.0	93.39133906364441	1.0084810256958008
8	73.01946067810059	pulse	0	t		6.0	2.5	/experiments/knapen_AOT/AOT_stimuli/rescaled_final/1211_rv.mp4	0.0	93.5749933719635	
8	73.8442873954773	movie	1		297	6.0	2.5	/experiments/knapen_AOT/AOT_stimuli/rescaled_final/1211_rv.mp4	0.0	94.39982008934021	2.492016315460205
8	74.61509323120117	pulse	1	t		6.0	2.5	/experiments/knapen_AOT/AOT_stimuli/rescaled_final/1211_rv.mp4	0.0	95.17062592506409	
8	76.21544480323792	pulse	1	t		6.0	2.5	/experiments/knapen_AOT/AOT_stimuli/rescaled_final/1211_rv.mp4	0.0	96.77097749710083	
8	76.3363037109375	fix_post	2		12	6.0	2.5	/experiments/knapen_AOT/AOT_stimuli/rescaled_final/1211_rv.mp4	0.0	96.89183640480042	0.09999632835388184
9	76.43630003929138	fix_pre	0		120	7.0	2.5	/experiments/knapen_AOT/AOT_stimuli/rescaled_final/0584_fw.mp4	0.0	96.9918327331543	1.0085210800170898
9	77.44482111930847	movie	1		286	7.0	2.5	/experiments/knapen_AOT/AOT_stimuli/rescaled_final/0584_fw.mp4	0.0	98.00035381317139	2.483682155609131
9	77.82236886024475	pulse	1	t		7.0	2.5	/experiments/knapen_AOT/AOT_stimuli/rescaled_final/0584_fw.mp4	0.0	98.37790155410767	
9	79.41576766967773	pulse	1	t		7.0	2.5	/experiments/knapen_AOT/AOT_stimuli/rescaled_final/0584_fw.mp4	0.0	99.97130036354065	
9	79.9285032749176	fix_post	2		12	7.0	2.5	/experiments/knapen_AOT/AOT_stimuli/rescaled_final/0584_fw.mp4	0.0	100.48403596878052	0.10000324249267578
10	80.02850651741028	fix_pre	0		120	8.0	2.5	/experiments/knapen_AOT/AOT_stimuli/rescaled_final/0229_rv.mp4	0.0	100.5840392112732	1.0251843929290771
10	81.01352214813232	pulse	0	t		8.0	2.5	/experiments/knapen_AOT/AOT_stimuli/rescaled_final/0229_rv.mp4	0.0	101.56905484199524	
10	81.05369091033936	movie	1		284	8.0	2.5	/experiments/knapen_AOT/AOT_stimuli/rescaled_final/0229_rv.mp4	0.0	101.60922360420227	2.483689308166504
10	82.61681985855103	pulse	1	t		8.0	2.5	/experiments/knapen_AOT/AOT_stimuli/rescaled_final/0229_rv.mp4	0.0	103.17235255241394	
10	83.53738021850586	fix_post	2		12	8.0	2.5	/experiments/knapen_AOT/AOT_stimuli/rescaled_final/0229_rv.mp4	0.0	104.09291291236877	0.10000729560852051
11	83.63738751411438	fix_pre	0		120	9.0	2.5	/experiments/knapen_AOT/AOT_stimuli/rescaled_final/1745_rv.mp4	0.0	104.1929202079773	1.016859531402588
11	84.21281361579895	pulse	0	t		9.0	2.5	/experiments/knapen_AOT/AOT_stimuli/rescaled_final/1745_rv.mp4	0.0	104.76834630966187	
11	84.65424704551697	movie	1		290	9.0	2.5	/experiments/knapen_AOT/AOT_stimuli/rescaled_final/1745_rv.mp4	0.0	105.20977973937988	2.483665943145752
11	85.81318926811218	pulse	1	t		9.0	2.5	/experiments/knapen_AOT/AOT_stimuli/rescaled_final/1745_rv.mp4	0.0	106.3687219619751	
11	87.13791298866272	fix_post	2		12	9.0	2.5	/experiments/knapen_AOT/AOT_stimuli/rescaled_final/1745_rv.mp4	0.0	107.69344568252563	0.10010743141174316
12	87.23802042007446	fix_pre	0		120	10.0	2.5	/experiments/knapen_AOT/AOT_stimuli/rescaled_final/0869_rv.mp4	0.0	107.79355311393738	1.0167851448059082
12	87.41325044631958	pulse	0	t		10.0	2.5	/experiments/knapen_AOT/AOT_stimuli/rescaled_final/0869_rv.mp4	0.0	107.9687831401825	
12	88.25480556488037	movie	1		292	10.0	2.5	/experiments/knapen_AOT/AOT_stimuli/rescaled_final/0869_rv.mp4	0.0	108.81033825874329	2.483745574951172
12	89.01333475112915	pulse	1	t		10.0	2.5	/experiments/knapen_AOT/AOT_stimuli/rescaled_final/0869_rv.mp4	0.0	109.56886744499207	
12	90.61359858512878	pulse	1	t		10.0	2.5	/experiments/knapen_AOT/AOT_stimuli/rescaled_final/0869_rv.mp4	0.0	111.1691312789917	
12	90.73855113983154	fix_post	2		12	10.0	2.5	/experiments/knapen_AOT/AOT_stimuli/rescaled_final/0869_rv.mp4	0.0	111.29408383369446	0.09995579719543457
13	90.83850693702698	fix_pre	0		120	11.0	2.5	/experiments/knapen_AOT/AOT_stimuli/rescaled_final/0091_rv.mp4	0.0	111.39403963088989	1.0084800720214844
13	91.84698700904846	movie	1		299	11.0	2.5	/experiments/knapen_AOT/AOT_stimuli/rescaled_final/0091_rv.mp4	0.0	112.40251970291138	2.4920105934143066
13	92.21383285522461	pulse	1	t		11.0	2.5	/experiments/knapen_AOT/AOT_stimuli/rescaled_final/0091_rv.mp4	0.0	112.76936554908752	
13	93.81408166885376	pulse	1	t		11.0	2.5	/experiments/knapen_AOT/AOT_stimuli/rescaled_final/0091_rv.mp4	0.0	114.36961436271667	
13	94.33899760246277	fix_post	2		12	11.0	2.5	/experiments/knapen_AOT/AOT_stimuli/rescaled_final/0091_rv.mp4	0.0	114.89453029632568	0.10004496574401855
14	94.43904256820679	fix_pre	0		118	12.0	2.5	/experiments/knapen_AOT/AOT_stimuli/rescaled_final/0189_fw.mp4	0.0	114.9945752620697	1.00856614112854
14	95.41445541381836	pulse	0	t		12.0	2.5	/experiments/knapen_AOT/AOT_stimuli/rescaled_final/0189_fw.mp4	0.0	115.96998810768127	
14	95.44760870933533	movie	1		277	12.0	2.5	/experiments/knapen_AOT/AOT_stimuli/rescaled_final/0189_fw.mp4	0.0	116.00314140319824	2.48361873626709
14	97.01467657089233	pulse	1	t		12.0	2.5	/experiments/knapen_AOT/AOT_stimuli/rescaled_final/0189_fw.mp4	0.0	117.57020926475525	
14	97.93122744560242	fix_post	2		12	12.0	2.5	/experiments/knapen_AOT/AOT_stimuli/rescaled_final/0189_fw.mp4	0.0	118.48676013946533	0.10002732276916504
15	98.03125476837158	fix_pre	0		120	13.0	2.5	/experiments/knapen_AOT/AOT_stimuli/rescaled_final/0633_fw.mp4	0.0	118.5867874622345	1.016800880432129
15	98.61479234695435	pulse	0	t		13.0	2.5	/experiments/knapen_AOT/AOT_stimuli/rescaled_final/0633_fw.mp4	0.0	119.17032504081726	
15	99.04805564880371	movie	1		287	13.0	2.5	/experiments/knapen_AOT/AOT_stimuli/rescaled_final/0633_fw.mp4	0.0	119.60358834266663	2.483691930770874
15	100.21502208709717	pulse	1	t		13.0	2.5	/experiments/knapen_AOT/AOT_stimuli/rescaled_final/0633_fw.mp4	0.0	120.77055478096008	
15	101.53174757957458	fix_post	2		12	13.0	2.5	/experiments/knapen_AOT/AOT_stimuli/rescaled_final/0633_fw.mp4	0.0	122.0872802734375	0.10001993179321289
16	101.6317675113678	fix_pre	0		120	14.0	2.5	blank	1.0	122.18730020523071	1.0001635551452637
16	101.8153121471405	pulse	0	t		14.0	2.5	blank	1.0	122.37084484100342	
16	102.63193106651306	movie	1		300	14.0	2.5	blank	1.0	123.18746376037598	2.5004961490631104
16	103.41567945480347	pulse	1	t		14.0	2.5	blank	1.0	123.97121214866638	
16	105.01584577560425	pulse	1	t		14.0	2.5	blank	1.0	125.57137846946716	
16	105.13242721557617	fix_post	2		12	14.0	2.5	blank	1.0	125.68795990943909	0.0998997688293457
17	105.23232698440552	fix_pre	0		120	15.0	2.5	/experiments/knapen_AOT/AOT_stimuli/rescaled_final/1191_fw.mp4	0.0	125.78785967826843	1.025221347808838
17	106.25754833221436	movie	1		286	15.0	2.5	/experiments/knapen_AOT/AOT_stimuli/rescaled_final/1191_fw.mp4	0.0	126.81308102607727	2.4752984046936035
17	106.61422801017761	pulse	1	t		15.0	2.5	/experiments/knapen_AOT/AOT_stimuli/rescaled_final/1191_fw.mp4	0.0	127.16976070404053	
17	108.21592736244202	pulse	1	t		15.0	2.5	/experiments/knapen_AOT/AOT_stimuli/rescaled_final/1191_fw.mp4	0.0	128.77146005630493	
17	108.73284673690796	fix_post	2		12	15.0	2.5	/experiments/knapen_AOT/AOT_stimuli/rescaled_final/1191_fw.mp4	0.0	129.28837943077087	0.10001158714294434
18	108.8328583240509	fix_pre	0		119	16.0	2.5	/experiments/knapen_AOT/AOT_stimuli/rescaled_final/1208_fw.mp4	0.0	129.38839101791382	1.0168535709381104
18	109.81657266616821	pulse	0	t		16.0	2.5	/experiments/knapen_AOT/AOT_stimuli/rescaled_final/1208_fw.mp4	0.0	130.37210536003113	
18	109.84971189498901	movie	1		290	16.0	2.5	/experiments/knapen_AOT/AOT_stimuli/rescaled_final/1208_fw.mp4	0.0	130.40524458885193	2.4836747646331787
18	111.4143705368042	pulse	1	t		16.0	2.5	/experiments/knapen_AOT/AOT_stimuli/rescaled_final/1208_fw.mp4	0.0	131.96990323066711	
18	112.33338665962219	fix_post	2		12	16.0	2.5	/experiments/knapen_AOT/AOT_stimuli/rescaled_final/1208_fw.mp4	0.0	132.8889193534851	0.10003209114074707
19	112.43341875076294	fix_pre	0		120	17.0	2.5	/experiments/knapen_AOT/AOT_stimuli/rescaled_final/1547_rv.mp4	0.0	132.98895144462585	1.0085976123809814
19	113.01704502105713	pulse	0	t		17.0	2.5	/experiments/knapen_AOT/AOT_stimuli/rescaled_final/1547_rv.mp4	0.0	133.57257771492004	
19	113.44201636314392	movie	1		288	17.0	2.5	/experiments/knapen_AOT/AOT_stimuli/rescaled_final/1547_rv.mp4	0.0	133.99754905700684	2.4919075965881348
19	114.6172297000885	pulse	1	t		17.0	2.5	/experiments/knapen_AOT/AOT_stimuli/rescaled_final/1547_rv.mp4	0.0	135.17276239395142	
19	115.93392395973206	fix_post	2		12	17.0	2.5	/experiments/knapen_AOT/AOT_stimuli/rescaled_final/1547_rv.mp4	0.0	136.48945665359497	0.10000991821289062
20	116.03393387794495	fix_pre	0		120	18.0	2.5	/experiments/knapen_AOT/AOT_stimuli/rescaled_final/2096_fw.mp4	0.0	136.58946657180786	1.0084939002990723
20	116.21761393547058	pulse	0	t		18.0	2.5	/experiments/knapen_AOT/AOT_stimuli/rescaled_final/2096_fw.mp4	0.0	136.7731466293335	
20	117.04242777824402	movie	1		293	18.0	2.5	/experiments/knapen_AOT/AOT_stimuli/rescaled_final/2096_fw.mp4	0.0	137.59796047210693	2.4920437335968018
20	117.81569409370422	pulse	1	t		18.0	2.5	/experiments/knapen_AOT/AOT_stimuli/rescaled_final/2096_fw.mp4	0.0	138.37122678756714	
20	119.41365265846252	pulse	1	t		18.0	2.5	/experiments/knapen_AOT/AOT_stimuli/rescaled_final/2096_fw.mp4	0.0	139.96918535232544	
20	119.53447151184082	fix_post	2		12	18.0	2.5	/experiments/knapen_AOT/AOT_stimuli/rescaled_final/2096_fw.mp4	0.0	140.09000420570374	0.10003161430358887
21	119.63450312614441	fix_pre	0		120	19.0	2.5	blank	1.0	140.19003582000732	1.0001614093780518
21	120.63466453552246	movie	1		300	19.0	2.5	blank	1.0	141.19019722938538	2.5003552436828613
21	121.0184588432312	pulse	1	t		19.0	2.5	blank	1.0	141.57399153709412	
21	122.61854267120361	pulse	1	t		19.0	2.5	blank	1.0	143.17407536506653	
21	123.13501977920532	fix_post	2		12	19.0	2.5	blank	1.0	143.69055247306824	0.0999901294708252
22	123.23500990867615	fix_pre	0		119	20.0	2.5	/experiments/knapen_AOT/AOT_stimuli/rescaled_final/0616_fw.mp4	0.0	143.79054260253906	1.0169827938079834
22	124.21874451637268	pulse	0	t		20.0	2.5	/experiments/knapen_AOT/AOT_stimuli/rescaled_final/0616_fw.mp4	0.0	144.7742772102356	
22	124.25199270248413	movie	1		261	20.0	2.5	/experiments/knapen_AOT/AOT_stimuli/rescaled_final/0616_fw.mp4	0.0	144.80752539634705	2.4836032390594482
22	125.81729340553284	pulse	1	t		20.0	2.5	/experiments/knapen_AOT/AOT_stimuli/rescaled_final/0616_fw.mp4	0.0	146.37282609939575	
22	126.73559594154358	fix_post	2		12	20.0	2.5	/experiments/knapen_AOT/AOT_stimuli/rescaled_final/0616_fw.mp4	0.0	147.2911286354065	0.10001564025878906
23	126.83561158180237	fix_pre	0		120	21.0	2.5	/experiments/knapen_AOT/AOT_stimuli/rescaled_final/0927_rv.mp4	0.0	147.39114427566528	1.0251593589782715
23	127.41939449310303	pulse	0	t		21.0	2.5	/experiments/knapen_AOT/AOT_stimuli/rescaled_final/0927_rv.mp4	0.0	147.97492718696594	
23	127.86077094078064	movie	1		266	21.0	2.5	/experiments/knapen_AOT/AOT_stimuli/rescaled_final/0927_rv.mp4	0.0	148.41630363464355	2.4753916263580322
23	129.01793360710144	pulse	1	t		21.0	2.5	/experiments/knapen_AOT/AOT_stimuli/rescaled_final/0927_rv.mp4	0.0	149.57346630096436	
23	130.33616256713867	fix_post	2		12	21.0	2.5	/experiments/knapen_AOT/AOT_stimuli/rescaled_final/0927_rv.mp4	0.0	150.8916952610016	0.10003447532653809
24	130.4361970424652	fix_pre	0		120	22.0	2.5	/experiments/knapen_AOT/AOT_stimuli/rescaled_final/0816_rv.mp4	0.0	150.99172973632812	1.0252206325531006
24	130.6197006702423	pulse	0	t		22.0	2.5	/experiments/knapen_AOT/AOT_stimuli/rescaled_final/0816_rv.mp4	0.0	151.17523336410522	
24	131.4614176750183	movie	1		254	22.0	2.5	/experiments/knapen_AOT/AOT_stimuli/rescaled_final/0816_rv.mp4	0.0	152.01695036888123	2.4753053188323975
24	132.21945309638977	pulse	1	t		22.0	2.5	/experiments/knapen_AOT/AOT_stimuli/rescaled_final/0816_rv.mp4	0.0	152.77498579025269	
24	133.81920886039734	pulse	1	t		22.0	2.5	/experiments/knapen_AOT/AOT_stimuli/rescaled_final/0816_rv.mp4	0.0	154.37474155426025	
24	133.9367229938507	fix_post	2		12	22.0	2.5	/experiments/knapen_AOT/AOT_stimuli/rescaled_final/0816_rv.mp4	0.0	154.49225568771362	0.10000371932983398
25	134.03672671318054	fix_pre	0		120	23.0	2.5	/experiments/knapen_AOT/AOT_stimuli/rescaled_final/0869_rv.mp4	0.0	154.59225940704346	1.0251274108886719
25	135.0618541240692	movie	1		266	23.0	2.5	/experiments/knapen_AOT/AOT_stimuli/rescaled_final/0869_rv.mp4	0.0	155.61738681793213	2.4753594398498535
25	135.4135239124298	pulse	1	t		23.0	2.5	/experiments/knapen_AOT/AOT_stimuli/rescaled_final/0869_rv.mp4	0.0	155.96905660629272	
25	137.01243925094604	pulse	1	t		23.0	2.5	/experiments/knapen_AOT/AOT_stimuli/rescaled_final/0869_rv.mp4	0.0	157.56797194480896	
25	137.53721356391907	fix_post	2		12	23.0	2.5	/experiments/knapen_AOT/AOT_stimuli/rescaled_final/0869_rv.mp4	0.0	158.09274625778198	0.09999728202819824
26	137.63721084594727	fix_pre	0		118	24.0	2.5	/experiments/knapen_AOT/AOT_stimuli/rescaled_final/0091_fw.mp4	0.0	158.19274353981018	1.000190019607544
26	138.61283159255981	pulse	0	t		24.0	2.5	/experiments/knapen_AOT/AOT_stimuli/rescaled_final/0091_fw.mp4	0.0	159.16836428642273	
26	138.6374008655548	movie	1		266	24.0	2.5	/experiments/knapen_AOT/AOT_stimuli/rescaled_final/0091_fw.mp4	0.0	159.19293355941772	2.4920132160186768
26	140.2128040790558	pulse	1	t		24.0	2.5	/experiments/knapen_AOT/AOT_stimuli/rescaled_final/0091_fw.mp4	0.0	160.7683367729187	
26	141.1294140815735	fix_post	2		12	24.0	2.5	/experiments/knapen_AOT/AOT_stimuli/rescaled_final/0091_fw.mp4	0.0	161.6849467754364	0.10001277923583984
27	141.22942686080933	fix_pre	0		120	25.0	2.5	/experiments/knapen_AOT/AOT_stimuli/rescaled_final/0953_fw.mp4	0.0	161.78495955467224	1.016824722290039
27	141.81314539909363	pulse	0	t		25.0	2.5	/experiments/knapen_AOT/AOT_stimuli/rescaled_final/0953_fw.mp4	0.0	162.36867809295654	
27	142.24625158309937	movie	1		262	25.0	2.5	/experiments/knapen_AOT/AOT_stimuli/rescaled_final/0953_fw.mp4	0.0	162.80178427696228	2.4838991165161133
27	143.41226029396057	pulse	1	t		25.0	2.5	/experiments/knapen_AOT/AOT_stimuli/rescaled_final/0953_fw.mp4	0.0	163.9677929878235	
27	144.73015069961548	fix_post	2		12	25.0	2.5	/experiments/knapen_AOT/AOT_stimuli/rescaled_final/0953_fw.mp4	0.0	165.2856833934784	0.09982848167419434
28	144.82997918128967	fix_pre	0		120	26.0	2.5	/experiments/knapen_AOT/AOT_stimuli/rescaled_final/1528_rv.mp4	0.0	165.3855118751526	1.0088436603546143
28	145.01360273361206	pulse	0	t		26.0	2.5	/experiments/knapen_AOT/AOT_stimuli/rescaled_final/1528_rv.mp4	0.0	165.56913542747498	
28	145.8388228416443	movie	1		272	26.0	2.5	/experiments/knapen_AOT/AOT_stimuli/rescaled_final/1528_rv.mp4	0.0	166.3943555355072	2.491668462753296
28	146.61388683319092	pulse	1	t		26.0	2.5	/experiments/knapen_AOT/AOT_stimuli/rescaled_final/1528_rv.mp4	0.0	167.16941952705383	
28	148.2141888141632	pulse	1	t		26.0	2.5	/experiments/knapen_AOT/AOT_stimuli/rescaled_final/1528_rv.mp4	0.0	168.76972150802612	
28	148.33049130439758	fix_post	2		12	26.0	2.5	/experiments/knapen_AOT/AOT_stimuli/rescaled_final/1528_rv.mp4	0.0	168.8860239982605	0.10007548332214355
29	148.43056678771973	fix_pre	0		120	27.0	2.5	blank	1.0	168.98609948158264	1.0000932216644287
29	149.43066000938416	movie	1		300	27.0	2.5	blank	1.0	169.98619270324707	2.500398874282837
29	149.81429314613342	pulse	1	t		27.0	2.5	blank	1.0	170.36982583999634	
29	151.41454029083252	pulse	1	t		27.0	2.5	blank	1.0	171.97007298469543	
29	151.931058883667	fix_post	2		12	27.0	2.5	blank	1.0	172.4865915775299	0.09998631477355957
30	152.03104519844055	fix_pre	0		119	28.0	2.5	/experiments/knapen_AOT/AOT_stimuli/rescaled_final/0319_fw.mp4	0.0	172.58657789230347	1.0169074535369873
30	153.0148003101349	pulse	0	t		28.0	2.5	/experiments/knapen_AOT/AOT_stimuli/rescaled_final/0319_fw.mp4	0.0	173.5703330039978	
30	153.04795265197754	movie	1		269	28.0	2.5	/experiments/knapen_AOT/AOT_stimuli/rescaled_final/0319_fw.mp4	0.0	173.60348534584045	2.483623504638672
30	154.61324429512024	pulse	1	t		28.0	2.5	/experiments/knapen_AOT/AOT_stimuli/rescaled_final/0319_fw.mp4	0.0	175.16877698898315	
30	155.5315761566162	fix_post	2		12	28.0	2.5	/experiments/knapen_AOT/AOT_stimuli/rescaled_final/0319_fw.mp4	0.0	176.08710885047913	0.10001945495605469
31	155.63159561157227	fix_pre	0		120	29.0	2.5	/experiments/knapen_AOT/AOT_stimuli/rescaled_final/1227_rv.mp4	0.0	176.18712830543518	1.0252008438110352
31	156.21533060073853	pulse	0	t		29.0	2.5	/experiments/knapen_AOT/AOT_stimuli/rescaled_final/1227_rv.mp4	0.0	176.77086329460144	
31	156.6567964553833	movie	1		266	29.0	2.5	/experiments/knapen_AOT/AOT_stimuli/rescaled_final/1227_rv.mp4	0.0	177.21232914924622	2.4753711223602295
31	157.81565976142883	pulse	1	t		29.0	2.5	/experiments/knapen_AOT/AOT_stimuli/rescaled_final/1227_rv.mp4	0.0	178.37119245529175	
31	159.13216757774353	fix_post	2		12	29.0	2.5	/experiments/knapen_AOT/AOT_stimuli/rescaled_final/1227_rv.mp4	0.0	179.68770027160645	0.09998416900634766
32	159.23215174674988	fix_pre	0		120	30.0	2.5	/experiments/knapen_AOT/AOT_stimuli/rescaled_final/1710_rv.mp4	0.0	179.7876844406128	1.0168216228485107
32	159.41572761535645	pulse	0	t		30.0	2.5	/experiments/knapen_AOT/AOT_stimuli/rescaled_final/1710_rv.mp4	0.0	179.97126030921936	
32	160.2489733695984	movie	1		277	30.0	2.5	/experiments/knapen_AOT/AOT_stimuli/rescaled_final/1710_rv.mp4	0.0	180.8045060634613	2.4836812019348145
32	161.01369762420654	pulse	1	t		30.0	2.5	/experiments/knapen_AOT/AOT_stimuli/rescaled_final/1710_rv.mp4	0.0	181.56923031806946	
32	162.61421632766724	pulse	1	t		30.0	2.5	/experiments/knapen_AOT/AOT_stimuli/rescaled_final/1710_rv.mp4	0.0	183.16974902153015	
32	162.7326545715332	fix_post	2		12	30.0	2.5	/experiments/knapen_AOT/AOT_stimuli/rescaled_final/1710_rv.mp4	0.0	183.28818726539612	0.1000359058380127
33	162.83269047737122	fix_pre	0		120	31.0	2.5	/experiments/knapen_AOT/AOT_stimuli/rescaled_final/0961_fw.mp4	0.0	183.38822317123413	1.0251965522766113
33	163.85788702964783	movie	1		257	31.0	2.5	/experiments/knapen_AOT/AOT_stimuli/rescaled_final/0961_fw.mp4	0.0	184.41341972351074	2.475355863571167
33	164.21645951271057	pulse	1	t		31.0	2.5	/experiments/knapen_AOT/AOT_stimuli/rescaled_final/0961_fw.mp4	0.0	184.7719922065735	
33	165.81452226638794	pulse	1	t		31.0	2.5	/experiments/knapen_AOT/AOT_stimuli/rescaled_final/0961_fw.mp4	0.0	186.37005496025085	
33	166.333242893219	fix_post	2		12	31.0	2.5	/experiments/knapen_AOT/AOT_stimuli/rescaled_final/0961_fw.mp4	0.0	186.8887755870819	0.10007262229919434
34	166.4333155155182	fix_pre	0		119	32.0	2.5	/experiments/knapen_AOT/AOT_stimuli/rescaled_final/1682_rv.mp4	0.0	186.9888482093811	1.0168585777282715
34	167.41689801216125	pulse	0	t		32.0	2.5	/experiments/knapen_AOT/AOT_stimuli/rescaled_final/1682_rv.mp4	0.0	187.97243070602417	
34	167.45017409324646	movie	1		268	32.0	2.5	/experiments/knapen_AOT/AOT_stimuli/rescaled_final/1682_rv.mp4	0.0	188.00570678710938	2.483577251434326
34	169.0168433189392	pulse	1	t		32.0	2.5	/experiments/knapen_AOT/AOT_stimuli/rescaled_final/1682_rv.mp4	0.0	189.57237601280212	
34	169.9337513446808	fix_post	2		12	32.0	2.5	/experiments/knapen_AOT/AOT_stimuli/rescaled_final/1682_rv.mp4	0.0	190.4892840385437	0.10001373291015625
35	170.03376507759094	fix_pre	0		120	33.0	2.5	/experiments/knapen_AOT/AOT_stimuli/rescaled_final/0692_fw.mp4	0.0	190.58929777145386	1.0251805782318115
35	170.61745524406433	pulse	0	t		33.0	2.5	/experiments/knapen_AOT/AOT_stimuli/rescaled_final/0692_fw.mp4	0.0	191.17298793792725	
35	171.05894565582275	movie	1		269	33.0	2.5	/experiments/knapen_AOT/AOT_stimuli/rescaled_final/0692_fw.mp4	0.0	191.61447834968567	2.4753520488739014
35	172.2153754234314	pulse	1	t		33.0	2.5	/experiments/knapen_AOT/AOT_stimuli/rescaled_final/0692_fw.mp4	0.0	192.7709081172943	
35	173.53429770469666	fix_post	2		12	33.0	2.5	/experiments/knapen_AOT/AOT_stimuli/rescaled_final/0692_fw.mp4	0.0	194.08983039855957	0.10007357597351074
36	173.63437128067017	fix_pre	0		120	34.0	2.5	blank	1.0	194.18990397453308	1.000175952911377
36	173.81788229942322	pulse	0	t		34.0	2.5	blank	1.0	194.37341499328613	
36	174.63454723358154	movie	1		300	34.0	2.5	blank	1.0	195.19007992744446	2.5002870559692383
36	175.41835141181946	pulse	1	t		34.0	2.5	blank	1.0	195.97388410568237	
36	177.01842403411865	pulse	1	t		34.0	2.5	blank	1.0	197.57395672798157	
36	177.13483428955078	fix_post	2		12	34.0	2.5	blank	1.0	197.6903669834137	0.1000368595123291
37	177.2348711490631	fix_pre	0		120	35.0	2.5	/experiments/knapen_AOT/AOT_stimuli/rescaled_final/0760_fw.mp4	0.0	197.79040384292603	1.0168344974517822
37	178.2517056465149	movie	1		272	35.0	2.5	/experiments/knapen_AOT/AOT_stimuli/rescaled_final/0760_fw.mp4	0.0	198.8072383403778	2.483670711517334
37	178.6175422668457	pulse	1	t		35.0	2.5	/experiments/knapen_AOT/AOT_stimuli/rescaled_final/0760_fw.mp4	0.0	199.17307496070862	
37	180.21652460098267	pulse	1	t		35.0	2.5	/experiments/knapen_AOT/AOT_stimuli/rescaled_final/0760_fw.mp4	0.0	200.77205729484558	
37	180.73537635803223	fix_post	2		12	35.0	2.5	/experiments/knapen_AOT/AOT_stimuli/rescaled_final/0760_fw.mp4	0.0	201.29090905189514	0.10001730918884277
38	180.83539366722107	fix_pre	0		119	36.0	2.5	/experiments/knapen_AOT/AOT_stimuli/rescaled_final/1437_rv.mp4	0.0	201.39092636108398	1.0168883800506592
38	181.81907105445862	pulse	0	t		36.0	2.5	/experiments/knapen_AOT/AOT_stimuli/rescaled_final/1437_rv.mp4	0.0	202.37460374832153	
38	181.85228204727173	movie	1		255	36.0	2.5	/experiments/knapen_AOT/AOT_stimuli/rescaled_final/1437_rv.mp4	0.0	202.40781474113464	2.4836502075195312
38	183.41789484024048	pulse	1	t		36.0	2.5	/experiments/knapen_AOT/AOT_stimuli/rescaled_final/1437_rv.mp4	0.0	203.9734275341034	
38	184.33593225479126	fix_post	2		12	36.0	2.5	/experiments/knapen_AOT/AOT_stimuli/rescaled_final/1437_rv.mp4	0.0	204.89146494865417	0.09999394416809082
39	184.43592619895935	fix_pre	0		120	37.0	2.5	/experiments/knapen_AOT/AOT_stimuli/rescaled_final/1211_fw.mp4	0.0	204.99145889282227	1.0168421268463135
39	185.0196373462677	pulse	0	t		37.0	2.5	/experiments/knapen_AOT/AOT_stimuli/rescaled_final/1211_fw.mp4	0.0	205.57517004013062	
39	185.45276832580566	movie	1		269	37.0	2.5	/experiments/knapen_AOT/AOT_stimuli/rescaled_final/1211_fw.mp4	0.0	206.00830101966858	2.4836902618408203
39	186.6188609600067	pulse	1	t		37.0	2.5	/experiments/knapen_AOT/AOT_stimuli/rescaled_final/1211_fw.mp4	0.0	207.17439365386963	
39	187.93645858764648	fix_post	2		12	37.0	2.5	/experiments/knapen_AOT/AOT_stimuli/rescaled_final/1211_fw.mp4	0.0	208.4919912815094	0.10005712509155273
40	188.03651571273804	fix_pre	0		120	38.0	2.5	/experiments/knapen_AOT/AOT_stimuli/rescaled_final/0530_rv.mp4	0.0	208.59204840660095	1.0251667499542236
40	188.21317887306213	pulse	0	t		38.0	2.5	/experiments/knapen_AOT/AOT_stimuli/rescaled_final/0530_rv.mp4	0.0	208.76871156692505	
40	189.06168246269226	movie	1		267	38.0	2.5	/experiments/knapen_AOT/AOT_stimuli/rescaled_final/0530_rv.mp4	0.0	209.61721515655518	2.4753873348236084
40	189.81833362579346	pulse	1	t		38.0	2.5	/experiments/knapen_AOT/AOT_stimuli/rescaled_final/0530_rv.mp4	0.0	210.37386631965637	
40	191.4185130596161	pulse	1	t		38.0	2.5	/experiments/knapen_AOT/AOT_stimuli/rescaled_final/0530_rv.mp4	0.0	211.974045753479	
40	191.53706979751587	fix_post	2		12	38.0	2.5	/experiments/knapen_AOT/AOT_stimuli/rescaled_final/0530_rv.mp4	0.0	212.09260249137878	0.09994816780090332
41	191.63701796531677	fix_pre	0		120	39.0	2.5	/experiments/knapen_AOT/AOT_stimuli/rescaled_final/1549_fw.mp4	0.0	212.1925506591797	1.0252118110656738
41	192.66222977638245	movie	1		259	39.0	2.5	/experiments/knapen_AOT/AOT_stimuli/rescaled_final/1549_fw.mp4	0.0	213.21776247024536	2.475493907928467
41	193.01311826705933	pulse	1	t		39.0	2.5	/experiments/knapen_AOT/AOT_stimuli/rescaled_final/1549_fw.mp4	0.0	213.56865096092224	
41	194.61293292045593	pulse	1	t		39.0	2.5	/experiments/knapen_AOT/AOT_stimuli/rescaled_final/1549_fw.mp4	0.0	215.16846561431885	
41	195.1377236843109	fix_post	2		12	39.0	2.5	/experiments/knapen_AOT/AOT_stimuli/rescaled_final/1549_fw.mp4	0.0	215.69325637817383	0.09997844696044922
42	195.23770213127136	fix_pre	0		118	40.0	2.5	/experiments/knapen_AOT/AOT_stimuli/rescaled_final/1788_fw.mp4	0.0	215.79323482513428	1.0084877014160156
42	196.21317791938782	pulse	0	t		40.0	2.5	/experiments/knapen_AOT/AOT_stimuli/rescaled_final/1788_fw.mp4	0.0	216.76871061325073	
42	196.24618983268738	movie	1		268	40.0	2.5	/experiments/knapen_AOT/AOT_stimuli/rescaled_final/1788_fw.mp4	0.0	216.8017225265503	2.4835689067840576
42	197.81328415870667	pulse	1	t		40.0	2.5	/experiments/knapen_AOT/AOT_stimuli/rescaled_final/1788_fw.mp4	0.0	218.36881685256958	
42	198.72975873947144	fix_post	2		12	40.0	2.5	/experiments/knapen_AOT/AOT_stimuli/rescaled_final/1788_fw.mp4	0.0	219.28529143333435	0.10000205039978027
43	198.82976078987122	fix_pre	0		120	41.0	2.5	/experiments/knapen_AOT/AOT_stimuli/rescaled_final/0680_rv.mp4	0.0	219.38529348373413	1.0251719951629639
43	199.4134738445282	pulse	0	t		41.0	2.5	/experiments/knapen_AOT/AOT_stimuli/rescaled_final/0680_rv.mp4	0.0	219.9690065383911	
43	199.85493278503418	movie	1		261	41.0	2.5	/experiments/knapen_AOT/AOT_stimuli/rescaled_final/0680_rv.mp4	0.0	220.4104654788971	2.4753644466400146
43	201.01396656036377	pulse	1	t		41.0	2.5	/experiments/knapen_AOT/AOT_stimuli/rescaled_final/0680_rv.mp4	0.0	221.56949925422668	
43	202.3302972316742	fix_post	2		12	41.0	2.5	/experiments/knapen_AOT/AOT_stimuli/rescaled_final/0680_rv.mp4	0.0	222.8858299255371	0.09999728202819824
44	202.4302945137024	fix_pre	0		120	42.0	2.5	blank	1.0	222.9858272075653	1.0001931190490723
44	202.61395621299744	pulse	0	t		42.0	2.5	blank	1.0	223.16948890686035	
44	203.43048763275146	movie	1		300	42.0	2.5	blank	1.0	223.98602032661438	2.5003437995910645
44	204.21429896354675	pulse	1	t		42.0	2.5	blank	1.0	224.76983165740967	
44	205.81445217132568	pulse	1	t		42.0	2.5	blank	1.0	226.3699848651886	
44	205.93083143234253	fix_post	2		12	42.0	2.5	blank	1.0	226.48636412620544	0.1000523567199707
45	206.0308837890625	fix_pre	0		120	43.0	2.5	/experiments/knapen_AOT/AOT_stimuli/rescaled_final/2165_fw.mp4	0.0	226.58641648292542	1.0168018341064453
45	207.04768562316895	movie	1		274	43.0	2.5	/experiments/knapen_AOT/AOT_stimuli/rescaled_final/2165_fw.mp4	0.0	227.60321831703186	2.48368239402771
45	207.41486763954163	pulse	1	t		43.0	2.5	/experiments/knapen_AOT/AOT_stimuli/rescaled_final/2165_fw.mp4	0.0	227.97040033340454	
45	209.01288962364197	pulse	1	t		43.0	2.5	/experiments/knapen_AOT/AOT_stimuli/rescaled_final/2165_fw.mp4	0.0	229.56842231750488	
45	209.53136801719666	fix_post	2		12	43.0	2.5	/experiments/knapen_AOT/AOT_stimuli/rescaled_final/2165_fw.mp4	0.0	230.08690071105957	0.10006427764892578
46	209.63143229484558	fix_pre	0		119	44.0	2.5	/experiments/knapen_AOT/AOT_stimuli/rescaled_final/1208_rv.mp4	0.0	230.1869649887085	1.016906499862671
46	210.61526918411255	pulse	0	t		44.0	2.5	/experiments/knapen_AOT/AOT_stimuli/rescaled_final/1208_rv.mp4	0.0	231.17080187797546	
46	210.64833879470825	movie	1		261	44.0	2.5	/experiments/knapen_AOT/AOT_stimuli/rescaled_final/1208_rv.mp4	0.0	231.20387148857117	2.4835751056671143
46	212.2139139175415	pulse	1	t		44.0	2.5	/experiments/knapen_AOT/AOT_stimuli/rescaled_final/1208_rv.mp4	0.0	232.76944661140442	
46	213.13191390037537	fix_post	2		12	44.0	2.5	/experiments/knapen_AOT/AOT_stimuli/rescaled_final/1208_rv.mp4	0.0	233.68744659423828	0.10002899169921875
47	213.23194289207458	fix_pre	0		120	45.0	2.5	/experiments/knapen_AOT/AOT_stimuli/rescaled_final/0854_fw.mp4	0.0	233.7874755859375	1.025240182876587
47	213.81562161445618	pulse	0	t		45.0	2.5	/experiments/knapen_AOT/AOT_stimuli/rescaled_final/0854_fw.mp4	0.0	234.3711543083191	
47	214.25718307495117	movie	1		266	45.0	2.5	/experiments/knapen_AOT/AOT_stimuli/rescaled_final/0854_fw.mp4	0.0	234.8127157688141	2.47528076171875
47	215.41402769088745	pulse	1	t		45.0	2.5	/experiments/knapen_AOT/AOT_stimuli/rescaled_final/0854_fw.mp4	0.0	235.96956038475037	
47	216.73246383666992	fix_post	2		12	45.0	2.5	/experiments/knapen_AOT/AOT_stimuli/rescaled_final/0854_fw.mp4	0.0	237.28799653053284	0.10002326965332031
48	216.83248710632324	fix_pre	0		120	46.0	2.5	/experiments/knapen_AOT/AOT_stimuli/rescaled_final/1004_fw.mp4	0.0	237.38801980018616	1.0169014930725098
48	217.0162124633789	pulse	0	t		46.0	2.5	/experiments/knapen_AOT/AOT_stimuli/rescaled_final/1004_fw.mp4	0.0	237.57174515724182	
48	217.84938859939575	movie	1		264	46.0	2.5	/experiments/knapen_AOT/AOT_stimuli/rescaled_final/1004_fw.mp4	0.0	238.40492129325867	3.3339662551879883
48	218.61448621749878	pulse	1	t		46.0	2.5	/experiments/knapen_AOT/AOT_stimuli/rescaled_final/1004_fw.mp4	0.0	239.1700189113617	
48	220.21445441246033	pulse	1	t		46.0	2.5	/experiments/knapen_AOT/AOT_stimuli/rescaled_final/1004_fw.mp4	0.0	240.76998710632324	
48	221.18335485458374	fix_post	2		0	46.0	2.5	/experiments/knapen_AOT/AOT_stimuli/rescaled_final/1004_fw.mp4	0.0	241.73888754844666	0.0033550262451171875
49	221.18670988082886	fix_pre	0		29	47.0	2.5	blank	1.0	241.74224257469177	0.24647736549377441
49	221.43318724632263	movie	1		300	47.0	2.5	blank	1.0	241.98871994018555	2.500359296798706
49	221.81677269935608	pulse	1	t		47.0	2.5	blank	1.0	242.372305393219	
49	223.41707849502563	pulse	1	t		47.0	2.5	blank	1.0	243.97261118888855	
49	223.93354654312134	fix_post	2		12	47.0	2.5	blank	1.0	244.48907923698425	0.10005545616149902
50	224.03360199928284	fix_pre	0		119	48.0	2.5	/experiments/knapen_AOT/AOT_stimuli/rescaled_final/0756_rv.mp4	0.0	244.58913469314575	1.016815423965454
50	225.01727652549744	pulse	0	t		48.0	2.5	/experiments/knapen_AOT/AOT_stimuli/rescaled_final/0756_rv.mp4	0.0	245.57280921936035	
50	225.0504174232483	movie	1		282	48.0	2.5	/experiments/knapen_AOT/AOT_stimuli/rescaled_final/0756_rv.mp4	0.0	245.6059501171112	2.48368763923645
50	226.61590099334717	pulse	1	t		48.0	2.5	/experiments/knapen_AOT/AOT_stimuli/rescaled_final/0756_rv.mp4	0.0	247.17143368721008	
50	227.53410506248474	fix_post	2		12	48.0	2.5	/experiments/knapen_AOT/AOT_stimuli/rescaled_final/0756_rv.mp4	0.0	248.08963775634766	0.10006070137023926
51	227.63416576385498	fix_pre	0		120	49.0	2.5	/experiments/knapen_AOT/AOT_stimuli/rescaled_final/0423_rv.mp4	0.0	248.1896984577179	1.0251636505126953
51	228.21774578094482	pulse	0	t		49.0	2.5	/experiments/knapen_AOT/AOT_stimuli/rescaled_final/0423_rv.mp4	0.0	248.77327847480774	
51	228.65932941436768	movie	1		269	49.0	2.5	/experiments/knapen_AOT/AOT_stimuli/rescaled_final/0423_rv.mp4	0.0	249.2148621082306	2.4753029346466064
51	229.8181929588318	pulse	1	t		49.0	2.5	/experiments/knapen_AOT/AOT_stimuli/rescaled_final/0423_rv.mp4	0.0	250.3737256526947	
51	231.13463234901428	fix_post	2		12	49.0	2.5	/experiments/knapen_AOT/AOT_stimuli/rescaled_final/0423_rv.mp4	0.0	251.6901650428772	0.10001254081726074
52	231.23464488983154	fix_pre	0		120	50.0	2.5	/experiments/knapen_AOT/AOT_stimuli/rescaled_final/2038_fw.mp4	0.0	251.79017758369446	1.016841173171997
52	231.4182322025299	pulse	0	t		50.0	2.5	/experiments/knapen_AOT/AOT_stimuli/rescaled_final/2038_fw.mp4	0.0	251.97376489639282	
52	232.25148606300354	movie	1		285	50.0	2.5	/experiments/knapen_AOT/AOT_stimuli/rescaled_final/2038_fw.mp4	0.0	252.80701875686646	2.48380184173584
52	233.01630687713623	pulse	1	t		50.0	2.5	/experiments/knapen_AOT/AOT_stimuli/rescaled_final/2038_fw.mp4	0.0	253.57183957099915	
52	234.6165337562561	pulse	1	t		50.0	2.5	/experiments/knapen_AOT/AOT_stimuli/rescaled_final/2038_fw.mp4	0.0	255.17206645011902	
52	234.73528790473938	fix_post	2		12	50.0	2.5	/experiments/knapen_AOT/AOT_stimuli/rescaled_final/2038_fw.mp4	0.0	255.2908205986023	0.09999346733093262
53	234.8352813720703	fix_pre	0		120	51.0	2.5	/experiments/knapen_AOT/AOT_stimuli/rescaled_final/0322_fw.mp4	0.0	255.39081406593323	1.0251665115356445
53	235.86044788360596	movie	1		286	51.0	2.5	/experiments/knapen_AOT/AOT_stimuli/rescaled_final/0322_fw.mp4	0.0	256.4159805774689	2.4752583503723145
53	236.21732997894287	pulse	1	t		51.0	2.5	/experiments/knapen_AOT/AOT_stimuli/rescaled_final/0322_fw.mp4	0.0	256.7728626728058	
53	237.81686329841614	pulse	1	t		51.0	2.5	/experiments/knapen_AOT/AOT_stimuli/rescaled_final/0322_fw.mp4	0.0	258.37239599227905	
53	238.33570623397827	fix_post	2		12	51.0	2.5	/experiments/knapen_AOT/AOT_stimuli/rescaled_final/0322_fw.mp4	0.0	258.8912389278412	0.1000223159790039
54	238.43572854995728	fix_pre	0		119	52.0	2.5	/experiments/knapen_AOT/AOT_stimuli/rescaled_final/0110_fw.mp4	0.0	258.9912612438202	1.025223731994629
54	239.41943669319153	pulse	0	t		52.0	2.5	/experiments/knapen_AOT/AOT_stimuli/rescaled_final/0110_fw.mp4	0.0	259.97496938705444	
54	239.4609522819519	movie	1		274	52.0	2.5	/experiments/knapen_AOT/AOT_stimuli/rescaled_final/0110_fw.mp4	0.0	260.0164849758148	2.4753241539001465
54	241.01824283599854	pulse	1	t		52.0	2.5	/experiments/knapen_AOT/AOT_stimuli/rescaled_final/0110_fw.mp4	0.0	261.57377552986145	
54	241.93627643585205	fix_post	2		12	52.0	2.5	/experiments/knapen_AOT/AOT_stimuli/rescaled_final/0110_fw.mp4	0.0	262.49180912971497	0.09999299049377441
55	242.03626942634583	fix_pre	0		119	53.0	2.5	/experiments/knapen_AOT/AOT_stimuli/rescaled_final/2120_fw.mp4	0.0	262.59180212020874	1.0252025127410889
55	242.6201765537262	pulse	0	t		53.0	2.5	/experiments/knapen_AOT/AOT_stimuli/rescaled_final/2120_fw.mp4	0.0	263.1757092475891	
55	243.0614719390869	movie	1		280	53.0	2.5	/experiments/knapen_AOT/AOT_stimuli/rescaled_final/2120_fw.mp4	0.0	263.61700463294983	2.4753305912017822
55	244.21857070922852	pulse	1	t		53.0	2.5	/experiments/knapen_AOT/AOT_stimuli/rescaled_final/2120_fw.mp4	0.0	264.77410340309143	
55	245.5368025302887	fix_post	2		12	53.0	2.5	/experiments/knapen_AOT/AOT_stimuli/rescaled_final/2120_fw.mp4	0.0	266.0923352241516	0.10001587867736816
56	245.63681840896606	fix_pre	0		120	54.0	2.5	blank	1.0	266.192351102829	1.000159740447998
56	245.82041144371033	pulse	0	t		54.0	2.5	blank	1.0	266.37594413757324	
56	246.63697814941406	movie	1		300	54.0	2.5	blank	1.0	267.192510843277	2.5003743171691895
56	247.42064714431763	pulse	1	t		54.0	2.5	blank	1.0	267.97617983818054	
56	249.01305842399597	pulse	1	t		54.0	2.5	blank	1.0	269.5685911178589	
56	249.13735246658325	fix_post	2		12	54.0	2.5	blank	1.0	269.69288516044617	0.0999898910522461
57	249.2373423576355	fix_pre	0		120	55.0	2.5	/experiments/knapen_AOT/AOT_stimuli/rescaled_final/2136_rv.mp4	0.0	269.7928750514984	1.016859531402588
57	250.2542018890381	movie	1		272	55.0	2.5	/experiments/knapen_AOT/AOT_stimuli/rescaled_final/2136_rv.mp4	0.0	270.809734582901	2.4836738109588623
57	250.62091183662415	pulse	1	t		55.0	2.5	/experiments/knapen_AOT/AOT_stimuli/rescaled_final/2136_rv.mp4	0.0	271.17644453048706	
57	252.2137815952301	pulse	1	t		55.0	2.5	/experiments/knapen_AOT/AOT_stimuli/rescaled_final/2136_rv.mp4	0.0	272.769314289093	
57	252.73787569999695	fix_post	2		12	55.0	2.5	/experiments/knapen_AOT/AOT_stimuli/rescaled_final/2136_rv.mp4	0.0	273.29340839385986	0.10002446174621582
58	252.83790016174316	fix_pre	0		118	56.0	2.5	/experiments/knapen_AOT/AOT_stimuli/rescaled_final/2136_fw.mp4	0.0	273.3934328556061	1.0001623630523682
58	253.8132917881012	pulse	0	t		56.0	2.5	/experiments/knapen_AOT/AOT_stimuli/rescaled_final/2136_fw.mp4	0.0	274.3688244819641	
58	253.83806252479553	movie	1		273	56.0	2.5	/experiments/knapen_AOT/AOT_stimuli/rescaled_final/2136_fw.mp4	0.0	274.39359521865845	2.492039203643799
58	255.41351628303528	pulse	1	t		56.0	2.5	/experiments/knapen_AOT/AOT_stimuli/rescaled_final/2136_fw.mp4	0.0	275.9690489768982	
58	256.33010172843933	fix_post	2		12	56.0	2.5	/experiments/knapen_AOT/AOT_stimuli/rescaled_final/2136_fw.mp4	0.0	276.88563442230225	0.10001659393310547
59	256.43011832237244	fix_pre	0		120	57.0	2.5	/experiments/knapen_AOT/AOT_stimuli/rescaled_final/1623_rv.mp4	0.0	276.98565101623535	1.0168483257293701
59	257.01376247406006	pulse	0	t		57.0	2.5	/experiments/knapen_AOT/AOT_stimuli/rescaled_final/1623_rv.mp4	0.0	277.569295167923	
59	257.4469666481018	movie	1		265	57.0	2.5	/experiments/knapen_AOT/AOT_stimuli/rescaled_final/1623_rv.mp4	0.0	278.0024993419647	2.483691453933716
59	258.6139817237854	pulse	1	t		57.0	2.5	/experiments/knapen_AOT/AOT_stimuli/rescaled_final/1623_rv.mp4	0.0	279.1695144176483	
59	259.9306581020355	fix_post	2		12	57.0	2.5	/experiments/knapen_AOT/AOT_stimuli/rescaled_final/1623_rv.mp4	0.0	280.48619079589844	0.10001802444458008
60	260.0306761264801	fix_pre	0		120	58.0	2.5	/experiments/knapen_AOT/AOT_stimuli/rescaled_final/1463_rv.mp4	0.0	280.586208820343	1.0251505374908447
60	260.2142481803894	pulse	0	t		58.0	2.5	/experiments/knapen_AOT/AOT_stimuli/rescaled_final/1463_rv.mp4	0.0	280.7697808742523	
60	261.05582666397095	movie	1		276	58.0	2.5	/experiments/knapen_AOT/AOT_stimuli/rescaled_final/1463_rv.mp4	0.0	281.61135935783386	2.4753894805908203
60	261.81453824043274	pulse	1	t		58.0	2.5	/experiments/knapen_AOT/AOT_stimuli/rescaled_final/1463_rv.mp4	0.0	282.37007093429565	
60	263.41473364830017	pulse	1	t		58.0	2.5	/experiments/knapen_AOT/AOT_stimuli/rescaled_final/1463_rv.mp4	0.0	283.9702663421631	
60	263.53121614456177	fix_post	2		12	58.0	2.5	/experiments/knapen_AOT/AOT_stimuli/rescaled_final/1463_rv.mp4	0.0	284.0867488384247	0.10000300407409668
61	263.63121914863586	fix_pre	0		120	59.0	2.5	/experiments/knapen_AOT/AOT_stimuli/rescaled_final/1937_fw.mp4	0.0	284.1867518424988	1.0168015956878662
61	264.64802074432373	movie	1		273	59.0	2.5	/experiments/knapen_AOT/AOT_stimuli/rescaled_final/1937_fw.mp4	0.0	285.20355343818665	2.4837005138397217
61	265.0132772922516	pulse	1	t		59.0	2.5	/experiments/knapen_AOT/AOT_stimuli/rescaled_final/1937_fw.mp4	0.0	285.5688099861145	
61	266.6152012348175	pulse	1	t		59.0	2.5	/experiments/knapen_AOT/AOT_stimuli/rescaled_final/1937_fw.mp4	0.0	287.1707339286804	
61	267.13172125816345	fix_post	2		12	59.0	2.5	/experiments/knapen_AOT/AOT_stimuli/rescaled_final/1937_fw.mp4	0.0	287.68725395202637	0.10000348091125488
62	267.2317247390747	fix_pre	0		119	60.0	2.5	/experiments/knapen_AOT/AOT_stimuli/rescaled_final/0515_fw.mp4	0.0	287.7872574329376	1.0169694423675537
62	268.2155818939209	pulse	0	t		60.0	2.5	/experiments/knapen_AOT/AOT_stimuli/rescaled_final/0515_fw.mp4	0.0	288.7711145877838	
62	268.24869418144226	movie	1		271	60.0	2.5	/experiments/knapen_AOT/AOT_stimuli/rescaled_final/0515_fw.mp4	0.0	288.8042268753052	2.4835658073425293
62	269.8141739368439	pulse	1	t		60.0	2.5	/experiments/knapen_AOT/AOT_stimuli/rescaled_final/0515_fw.mp4	0.0	290.3697066307068	
62	270.7322599887848	fix_post	2		12	60.0	2.5	/experiments/knapen_AOT/AOT_stimuli/rescaled_final/0515_fw.mp4	0.0	291.2877926826477	0.10004186630249023
63	270.8323018550873	fix_pre	0		120	61.0	2.5	/experiments/knapen_AOT/AOT_stimuli/rescaled_final/0636_rv.mp4	0.0	291.3878345489502	1.016815185546875
63	271.4159369468689	pulse	0	t		61.0	2.5	/experiments/knapen_AOT/AOT_stimuli/rescaled_final/0636_rv.mp4	0.0	291.9714696407318	
63	271.84911704063416	movie	1		281	61.0	2.5	/experiments/knapen_AOT/AOT_stimuli/rescaled_final/0636_rv.mp4	0.0	292.40464973449707	2.4836907386779785
63	273.01457691192627	pulse	1	t		61.0	2.5	/experiments/knapen_AOT/AOT_stimuli/rescaled_final/0636_rv.mp4	0.0	293.5701096057892	
63	274.33280777931213	fix_post	2		12	61.0	2.5	/experiments/knapen_AOT/AOT_stimuli/rescaled_final/0636_rv.mp4	0.0	294.88834047317505	0.10001826286315918
64	274.4328260421753	fix_pre	0		120	62.0	2.5	blank	1.0	294.9883587360382	1.0001401901245117
64	274.61639618873596	pulse	0	t		62.0	2.5	blank	1.0	295.1719288825989	
64	275.4329662322998	movie	1		300	62.0	2.5	blank	1.0	295.9884989261627	2.500377893447876
64	276.2166049480438	pulse	1	t		62.0	2.5	blank	1.0	296.77213764190674	
64	277.8169016838074	pulse	1	t		62.0	2.5	blank	1.0	298.3724343776703	
64	277.9333441257477	fix_post	2		12	62.0	2.5	blank	1.0	298.4888768196106	0.10001754760742188
65	278.0333616733551	fix_pre	0		120	63.0	2.5	/experiments/knapen_AOT/AOT_stimuli/rescaled_final/2044_rv.mp4	0.0	298.588894367218	1.0251739025115967
65	279.0585355758667	movie	1		278	63.0	2.5	/experiments/knapen_AOT/AOT_stimuli/rescaled_final/2044_rv.mp4	0.0	299.6140682697296	2.4753870964050293
65	279.41639137268066	pulse	1	t		63.0	2.5	/experiments/knapen_AOT/AOT_stimuli/rescaled_final/2044_rv.mp4	0.0	299.9719240665436	
65	281.0157754421234	pulse	1	t		63.0	2.5	/experiments/knapen_AOT/AOT_stimuli/rescaled_final/2044_rv.mp4	0.0	301.5713081359863	
65	281.53392267227173	fix_post	2		12	63.0	2.5	/experiments/knapen_AOT/AOT_stimuli/rescaled_final/2044_rv.mp4	0.0	302.08945536613464	0.09999585151672363
66	281.63391852378845	fix_pre	0		119	64.0	2.5	/experiments/knapen_AOT/AOT_stimuli/rescaled_final/2120_fw.mp4	0.0	302.18945121765137	1.0168423652648926
66	282.61769556999207	pulse	0	t		64.0	2.5	/experiments/knapen_AOT/AOT_stimuli/rescaled_final/2120_fw.mp4	0.0	303.173228263855	
66	282.65076088905334	movie	1		275	64.0	2.5	/experiments/knapen_AOT/AOT_stimuli/rescaled_final/2120_fw.mp4	0.0	303.20629358291626	2.4836769104003906
66	284.2164931297302	pulse	1	t		64.0	2.5	/experiments/knapen_AOT/AOT_stimuli/rescaled_final/2120_fw.mp4	0.0	304.77202582359314	
66	285.13443779945374	fix_post	2		12	64.0	2.5	/experiments/knapen_AOT/AOT_stimuli/rescaled_final/2120_fw.mp4	0.0	305.68997049331665	0.10000038146972656
67	285.23443818092346	fix_pre	0		120	65.0	2.5	/experiments/knapen_AOT/AOT_stimuli/rescaled_final/0172_rv.mp4	0.0	305.7899708747864	1.016899585723877
67	285.81800961494446	pulse	0	t		65.0	2.5	/experiments/knapen_AOT/AOT_stimuli/rescaled_final/0172_rv.mp4	0.0	306.3735423088074	
67	286.25133776664734	movie	1		280	65.0	2.5	/experiments/knapen_AOT/AOT_stimuli/rescaled_final/0172_rv.mp4	0.0	306.80687046051025	2.4836342334747314
67	287.41687774658203	pulse	1	t		65.0	2.5	/experiments/knapen_AOT/AOT_stimuli/rescaled_final/0172_rv.mp4	0.0	307.97241044044495	
67	288.73497200012207	fix_post	2		12	65.0	2.5	/experiments/knapen_AOT/AOT_stimuli/rescaled_final/0172_rv.mp4	0.0	309.290504693985	0.10002899169921875
68	288.8350009918213	fix_pre	0		120	66.0	2.5	/experiments/knapen_AOT/AOT_stimuli/rescaled_final/0046_fw.mp4	0.0	309.3905336856842	1.0168964862823486
68	289.01861572265625	pulse	0	t		66.0	2.5	/experiments/knapen_AOT/AOT_stimuli/rescaled_final/0046_fw.mp4	0.0	309.57414841651917	
68	289.85189747810364	movie	1		274	66.0	2.5	/experiments/knapen_AOT/AOT_stimuli/rescaled_final/0046_fw.mp4	0.0	310.40743017196655	2.4836254119873047
68	290.61713790893555	pulse	1	t		66.0	2.5	/experiments/knapen_AOT/AOT_stimuli/rescaled_final/0046_fw.mp4	0.0	311.17267060279846	
68	292.21751070022583	pulse	1	t		66.0	2.5	/experiments/knapen_AOT/AOT_stimuli/rescaled_final/0046_fw.mp4	0.0	312.77304339408875	
68	292.33552289009094	fix_post	2		12	66.0	2.5	/experiments/knapen_AOT/AOT_stimuli/rescaled_final/0046_fw.mp4	0.0	312.89105558395386	0.100006103515625
69	292.43552899360657	fix_pre	0		120	67.0	2.5	/experiments/knapen_AOT/AOT_stimuli/rescaled_final/1732_rv.mp4	0.0	312.9910616874695	1.0252108573913574
69	293.4607398509979	movie	1		277	67.0	2.5	/experiments/knapen_AOT/AOT_stimuli/rescaled_final/1732_rv.mp4	0.0	314.01627254486084	2.4753291606903076
69	293.8189203739166	pulse	1	t		67.0	2.5	/experiments/knapen_AOT/AOT_stimuli/rescaled_final/1732_rv.mp4	0.0	314.37445306777954	
69	295.41742515563965	pulse	1	t		67.0	2.5	/experiments/knapen_AOT/AOT_stimuli/rescaled_final/1732_rv.mp4	0.0	315.97295784950256	
69	295.93606901168823	fix_post	2		12	67.0	2.5	/experiments/knapen_AOT/AOT_stimuli/rescaled_final/1732_rv.mp4	0.0	316.49160170555115	0.10003089904785156
70	296.0360999107361	fix_pre	0		119	68.0	2.5	/experiments/knapen_AOT/AOT_stimuli/rescaled_final/0674_rv.mp4	0.0	316.591632604599	1.008547067642212
70	297.0197877883911	pulse	0	t		68.0	2.5	/experiments/knapen_AOT/AOT_stimuli/rescaled_final/0674_rv.mp4	0.0	317.575320482254	
70	297.0446469783783	movie	1		269	68.0	2.5	/experiments/knapen_AOT/AOT_stimuli/rescaled_final/0674_rv.mp4	0.0	317.6001796722412	2.491955518722534
70	298.6192395687103	pulse	1	t		68.0	2.5	/experiments/knapen_AOT/AOT_stimuli/rescaled_final/0674_rv.mp4	0.0	319.17477226257324	
70	299.53660249710083	fix_post	2		12	68.0	2.5	/experiments/knapen_AOT/AOT_stimuli/rescaled_final/0674_rv.mp4	0.0	320.09213519096375	0.10001087188720703
71	299.63661336898804	fix_pre	0		120	69.0	2.5	/experiments/knapen_AOT/AOT_stimuli/rescaled_final/0525_fw.mp4	0.0	320.19214606285095	1.0168437957763672
71	300.21252942085266	pulse	0	t		69.0	2.5	/experiments/knapen_AOT/AOT_stimuli/rescaled_final/0525_fw.mp4	0.0	320.7680621147156	
71	300.6534571647644	movie	1		284	69.0	2.5	/experiments/knapen_AOT/AOT_stimuli/rescaled_final/0525_fw.mp4	0.0	321.2089898586273	2.4837231636047363
71	301.81873202323914	pulse	1	t		69.0	2.5	/experiments/knapen_AOT/AOT_stimuli/rescaled_final/0525_fw.mp4	0.0	322.37426471710205	
71	303.13718032836914	fix_post	2		12	69.0	2.5	/experiments/knapen_AOT/AOT_stimuli/rescaled_final/0525_fw.mp4	0.0	323.69271302223206	0.09998583793640137
72	303.23716616630554	fix_pre	0		120	70.0	2.5	blank	1.0	323.79269886016846	1.0002610683441162
72	303.4127652645111	pulse	0	t		70.0	2.5	blank	1.0	323.968297958374	
72	304.23742723464966	movie	1		300	70.0	2.5	blank	1.0	324.7929599285126	2.500246286392212
72	305.0126585960388	pulse	1	t		70.0	2.5	blank	1.0	325.56819128990173	
72	306.6130156517029	pulse	1	t		70.0	2.5	blank	1.0	327.1685483455658	
72	306.73767352104187	fix_post	2		12	70.0	2.5	blank	1.0	327.2932062149048	0.10002994537353516
73	306.8377034664154	fix_pre	0		120	71.0	2.5	/experiments/knapen_AOT/AOT_stimuli/rescaled_final/1395_rv.mp4	0.0	327.3932361602783	1.016833782196045
73	307.85453724861145	movie	1		286	71.0	2.5	/experiments/knapen_AOT/AOT_stimuli/rescaled_final/1395_rv.mp4	0.0	328.41006994247437	2.4837331771850586
73	308.21359181404114	pulse	1	t		71.0	2.5	/experiments/knapen_AOT/AOT_stimuli/rescaled_final/1395_rv.mp4	0.0	328.76912450790405	
73	309.81336975097656	pulse	1	t		71.0	2.5	/experiments/knapen_AOT/AOT_stimuli/rescaled_final/1395_rv.mp4	0.0	330.3689024448395	
73	310.3382704257965	fix_post	2		12	71.0	2.5	/experiments/knapen_AOT/AOT_stimuli/rescaled_final/1395_rv.mp4	0.0	330.8938031196594	0.09996867179870605
74	310.4382390975952	fix_pre	0		118	72.0	2.5	/experiments/knapen_AOT/AOT_stimuli/rescaled_final/0110_rv.mp4	0.0	330.99377179145813	1.0085346698760986
74	311.4137816429138	pulse	0	t		72.0	2.5	/experiments/knapen_AOT/AOT_stimuli/rescaled_final/0110_rv.mp4	0.0	331.96931433677673	
74	311.4467737674713	movie	1		274	72.0	2.5	/experiments/knapen_AOT/AOT_stimuli/rescaled_final/0110_rv.mp4	0.0	332.00230646133423	2.483658790588379
74	313.0127375125885	pulse	1	t		72.0	2.5	/experiments/knapen_AOT/AOT_stimuli/rescaled_final/0110_rv.mp4	0.0	333.5682702064514	
74	313.9304325580597	fix_post	2		12	72.0	2.5	/experiments/knapen_AOT/AOT_stimuli/rescaled_final/0110_rv.mp4	0.0	334.4859652519226	0.10000967979431152
75	314.030442237854	fix_pre	0		120	73.0	2.5	/experiments/knapen_AOT/AOT_stimuli/rescaled_final/1336_fw.mp4	0.0	334.5859749317169	1.0085015296936035
75	314.6143226623535	pulse	0	t		73.0	2.5	/experiments/knapen_AOT/AOT_stimuli/rescaled_final/1336_fw.mp4	0.0	335.16985535621643	
75	315.0389437675476	movie	1		278	73.0	2.5	/experiments/knapen_AOT/AOT_stimuli/rescaled_final/1336_fw.mp4	0.0	335.5944764614105	2.4920401573181152
75	316.2135078907013	pulse	1	t		73.0	2.5	/experiments/knapen_AOT/AOT_stimuli/rescaled_final/1336_fw.mp4	0.0	336.7690405845642	
75	317.5309839248657	fix_post	2		12	73.0	2.5	/experiments/knapen_AOT/AOT_stimuli/rescaled_final/1336_fw.mp4	0.0	338.08651661872864	0.10004401206970215
76	317.6310279369354	fix_pre	0		120	74.0	2.5	/experiments/knapen_AOT/AOT_stimuli/rescaled_final/0981_fw.mp4	0.0	338.18656063079834	1.0084712505340576
76	317.81458258628845	pulse	0	t		74.0	2.5	/experiments/knapen_AOT/AOT_stimuli/rescaled_final/0981_fw.mp4	0.0	338.37011528015137	
76	318.6394991874695	movie	1		261	74.0	2.5	/experiments/knapen_AOT/AOT_stimuli/rescaled_final/0981_fw.mp4	0.0	339.1950318813324	2.4920103549957275
76	319.4154441356659	pulse	1	t		74.0	2.5	/experiments/knapen_AOT/AOT_stimuli/rescaled_final/0981_fw.mp4	0.0	339.9709768295288	
76	321.01318764686584	pulse	1	t		74.0	2.5	/experiments/knapen_AOT/AOT_stimuli/rescaled_final/0981_fw.mp4	0.0	341.56872034072876	
76	321.1315095424652	fix_post	2		12	74.0	2.5	/experiments/knapen_AOT/AOT_stimuli/rescaled_final/0981_fw.mp4	0.0	341.6870422363281	0.10005712509155273
77	321.23156666755676	fix_pre	0		120	75.0	2.5	blank	1.0	341.7870993614197	1.0000975131988525
77	322.2316641807556	movie	1		300	75.0	2.5	blank	1.0	342.78719687461853	2.5003998279571533
77	322.61567306518555	pulse	1	t		75.0	2.5	blank	1.0	343.17120575904846	
77	324.2156138420105	pulse	1	t		75.0	2.5	blank	1.0	344.7711465358734	
77	324.73206400871277	fix_post	2		12	75.0	2.5	blank	1.0	345.2875967025757	0.10007953643798828
78	324.83214354515076	fix_pre	0		119	76.0	2.5	/experiments/knapen_AOT/AOT_stimuli/rescaled_final/1798_fw.mp4	0.0	345.3876762390137	1.0001842975616455
78	325.81574988365173	pulse	0	t		76.0	2.5	/experiments/knapen_AOT/AOT_stimuli/rescaled_final/1798_fw.mp4	0.0	346.37128257751465	
78	325.8323278427124	movie	1		274	76.0	2.5	/experiments/knapen_AOT/AOT_stimuli/rescaled_final/1798_fw.mp4	0.0	346.3878605365753	2.50030517578125
78	327.41458463668823	pulse	1	t		76.0	2.5	/experiments/knapen_AOT/AOT_stimuli/rescaled_final/1798_fw.mp4	0.0	347.97011733055115	
78	328.33263301849365	fix_post	2		12	76.0	2.5	/experiments/knapen_AOT/AOT_stimuli/rescaled_final/1798_fw.mp4	0.0	348.88816571235657	0.09998822212219238
79	328.43262124061584	fix_pre	0		120	77.0	2.5	/experiments/knapen_AOT/AOT_stimuli/rescaled_final/0083_fw.mp4	0.0	348.98815393447876	1.0086429119110107
79	329.0163245201111	pulse	0	t		77.0	2.5	/experiments/knapen_AOT/AOT_stimuli/rescaled_final/0083_fw.mp4	0.0	349.571857213974	
79	329.44126415252686	movie	1		280	77.0	2.5	/experiments/knapen_AOT/AOT_stimuli/rescaled_final/0083_fw.mp4	0.0	349.99679684638977	2.491914987564087
79	330.61475229263306	pulse	1	t		77.0	2.5	/experiments/knapen_AOT/AOT_stimuli/rescaled_final/0083_fw.mp4	0.0	351.170284986496	
79	331.93317914009094	fix_post	2		12	77.0	2.5	/experiments/knapen_AOT/AOT_stimuli/rescaled_final/0083_fw.mp4	0.0	352.48871183395386	0.10001349449157715
80	332.0331926345825	fix_pre	0		120	78.0	2.5	/experiments/knapen_AOT/AOT_stimuli/rescaled_final/0165_fw.mp4	0.0	352.58872532844543	1.0084846019744873
80	332.21676802635193	pulse	0	t		78.0	2.5	/experiments/knapen_AOT/AOT_stimuli/rescaled_final/0165_fw.mp4	0.0	352.77230072021484	
80	333.041677236557	movie	1		284	78.0	2.5	/experiments/knapen_AOT/AOT_stimuli/rescaled_final/0165_fw.mp4	0.0	353.5972099304199	2.4920477867126465
80	333.81471729278564	pulse	1	t		78.0	2.5	/experiments/knapen_AOT/AOT_stimuli/rescaled_final/0165_fw.mp4	0.0	354.37024998664856	
80	335.4154009819031	pulse	1	t		78.0	2.5	/experiments/knapen_AOT/AOT_stimuli/rescaled_final/0165_fw.mp4	0.0	355.970933675766	
80	335.53372502326965	fix_post	2		12	78.0	2.5	/experiments/knapen_AOT/AOT_stimuli/rescaled_final/0165_fw.mp4	0.0	356.08925771713257	0.1000053882598877
81	335.63373041152954	fix_pre	0		120	79.0	2.5	/experiments/knapen_AOT/AOT_stimuli/rescaled_final/0618_rv.mp4	0.0	356.18926310539246	1.008490800857544
81	336.6422212123871	movie	1		268	79.0	2.5	/experiments/knapen_AOT/AOT_stimuli/rescaled_final/0618_rv.mp4	0.0	357.19775390625	2.492004632949829
81	337.01594948768616	pulse	1	t		79.0	2.5	/experiments/knapen_AOT/AOT_stimuli/rescaled_final/0618_rv.mp4	0.0	357.5714821815491	
81	338.6160683631897	pulse	1	t		79.0	2.5	/experiments/knapen_AOT/AOT_stimuli/rescaled_final/0618_rv.mp4	0.0	359.1716010570526	
81	339.1342258453369	fix_post	2		12	79.0	2.5	/experiments/knapen_AOT/AOT_stimuli/rescaled_final/0618_rv.mp4	0.0	359.68975853919983	0.10002827644348145
82	339.2342541217804	fix_pre	0		119	80.0	2.5	/experiments/knapen_AOT/AOT_stimuli/rescaled_final/1370_rv.mp4	0.0	359.7897868156433	1.000135898590088
82	340.21801567077637	pulse	0	t		80.0	2.5	/experiments/knapen_AOT/AOT_stimuli/rescaled_final/1370_rv.mp4	0.0	360.7735483646393	
82	340.2343900203705	movie	1		276	80.0	2.5	/experiments/knapen_AOT/AOT_stimuli/rescaled_final/1370_rv.mp4	0.0	360.7899227142334	2.50038743019104
82	341.8166244029999	pulse	1	t		80.0	2.5	/experiments/knapen_AOT/AOT_stimuli/rescaled_final/1370_rv.mp4	0.0	362.3721570968628	
82	342.7347774505615	fix_post	2		12	80.0	2.5	/experiments/knapen_AOT/AOT_stimuli/rescaled_final/1370_rv.mp4	0.0	363.29031014442444	0.10007190704345703
83	342.834849357605	fix_pre	0		120	81.0	2.5	/experiments/knapen_AOT/AOT_stimuli/rescaled_final/0813_fw.mp4	0.0	363.3903820514679	1.0084521770477295
83	343.4184458255768	pulse	0	t		81.0	2.5	/experiments/knapen_AOT/AOT_stimuli/rescaled_final/0813_fw.mp4	0.0	363.9739785194397	
83	343.8433015346527	movie	1		289	81.0	2.5	/experiments/knapen_AOT/AOT_stimuli/rescaled_final/0813_fw.mp4	0.0	364.3988342285156	2.4920060634613037
83	345.0169529914856	pulse	1	t		81.0	2.5	/experiments/knapen_AOT/AOT_stimuli/rescaled_final/0813_fw.mp4	0.0	365.5724856853485	
83	346.335307598114	fix_post	2		12	81.0	2.5	/experiments/knapen_AOT/AOT_stimuli/rescaled_final/0813_fw.mp4	0.0	366.89084029197693	0.10001468658447266
84	346.4353222846985	fix_pre	0		120	82.0	2.5	blank	1.0	366.9908549785614	1.0001680850982666
84	346.6189274787903	pulse	0	t		82.0	2.5	blank	1.0	367.1744601726532	
84	347.43549036979675	movie	1		300	82.0	2.5	blank	1.0	367.99102306365967	2.500356435775757
84	348.21915435791016	pulse	1	t		82.0	2.5	blank	1.0	368.77468705177307	
84	349.819402217865	pulse	1	t		82.0	2.5	blank	1.0	370.3749349117279	
84	349.9358468055725	fix_post	2		12	82.0	2.5	blank	1.0	370.4913794994354	0.10003280639648438
85	350.035879611969	fix_pre	0		120	83.0	2.5	/experiments/knapen_AOT/AOT_stimuli/rescaled_final/1043_fw.mp4	0.0	370.5914123058319	1.008500576019287
85	351.0443801879883	movie	1		269	83.0	2.5	/experiments/knapen_AOT/AOT_stimuli/rescaled_final/1043_fw.mp4	0.0	371.5999128818512	2.4920248985290527
85	351.4177279472351	pulse	1	t		83.0	2.5	/experiments/knapen_AOT/AOT_stimuli/rescaled_final/1043_fw.mp4	0.0	371.973260641098	
85	353.0179171562195	pulse	1	t		83.0	2.5	/experiments/knapen_AOT/AOT_stimuli/rescaled_final/1043_fw.mp4	0.0	373.5734498500824	
85	353.53640508651733	fix_post	2		12	83.0	2.5	/experiments/knapen_AOT/AOT_stimuli/rescaled_final/1043_fw.mp4	0.0	374.09193778038025	0.11673450469970703
87	353.65313959121704	stim	0		1714					374.20867228507996	14.285439014434814
87	354.62028980255127	pulse	0	t						375.1758224964142	
87	356.22035908699036	pulse	0	t						376.77589178085327	
87	357.81396889686584	pulse	0	t						378.36950159072876	
87	359.41308069229126	pulse	0	t						379.9686133861542	
87	361.0129933357239	pulse	0	t						381.5685260295868	
87	362.6130373477936	pulse	0	t						383.1685700416565	
87	364.21319246292114	pulse	0	t						384.76872515678406	
87	365.8134355545044	pulse	0	t						386.3689682483673	
87	367.4138116836548	pulse	0	t						387.9693443775177	
