trial_nr	onset	event_type	phase	response	nr_frames	movie_index	movie_duration	movie_file	blank	onset_abs	duration
0	0.16656804084777832	stim	0		2					15.388475179672241	0.016508102416992188
0	0.17522644996643066	response	0	space						15.397133588790894	
1	0.1830761432647705	stim	0		4634					15.404983282089233	38.634281635284424
1	38.80276107788086	pulse	0	t						54.02466821670532	
1	38.817357778549194	stim	1		1715					54.03926491737366	14.298697233200073
1	40.397687911987305	pulse	1	t						55.61959505081177	
1	41.997968912124634	pulse	1	t						57.2198760509491	
1	43.598167181015015	pulse	1	t						58.82007431983948	
1	45.19838881492615	pulse	1	t						60.42029595375061	
1	46.7985954284668	pulse	1	t						62.02050256729126	
1	48.39891958236694	pulse	1	t						63.620826721191406	
1	49.99210524559021	pulse	1	t						65.21401238441467	
1	51.59232711791992	pulse	1	t						66.81423425674438	
2	53.11605501174927	fix_pre	0		11	0.0	2.5	/experiments/Knapen_AOT/AOT_stimuli/rescaled_final/2106_fw.mp4	0.0	68.33796215057373	0.10838127136230469
2	53.19259858131409	pulse	0	t		0.0	2.5	/experiments/Knapen_AOT/AOT_stimuli/rescaled_final/2106_fw.mp4	0.0	68.41450572013855	
2	53.22443628311157	movie	1		295	0.0	2.5	/experiments/Knapen_AOT/AOT_stimuli/rescaled_final/2106_fw.mp4	0.0	68.44634342193604	2.491971015930176
2	54.79179573059082	pulse	1	t		0.0	2.5	/experiments/Knapen_AOT/AOT_stimuli/rescaled_final/2106_fw.mp4	0.0	70.01370286941528	
2	55.71640729904175	fix_post	2		12	0.0	2.5	/experiments/Knapen_AOT/AOT_stimuli/rescaled_final/2106_fw.mp4	0.0	70.93831443786621	0.1000664234161377
3	55.816473722457886	fix_pre	0		120	1.0	2.5	/experiments/Knapen_AOT/AOT_stimuli/rescaled_final/1604_fw.mp4	0.0	71.03838086128235	1.0085935592651367
3	56.39203953742981	pulse	0	t		1.0	2.5	/experiments/Knapen_AOT/AOT_stimuli/rescaled_final/1604_fw.mp4	0.0	71.61394667625427	
3	56.82506728172302	movie	1		297	1.0	2.5	/experiments/Knapen_AOT/AOT_stimuli/rescaled_final/1604_fw.mp4	0.0	72.04697442054749	2.491898536682129
3	57.992079734802246	pulse	1	t		1.0	2.5	/experiments/Knapen_AOT/AOT_stimuli/rescaled_final/1604_fw.mp4	0.0	73.21398687362671	
3	59.31696581840515	fix_post	2		12	1.0	2.5	/experiments/Knapen_AOT/AOT_stimuli/rescaled_final/1604_fw.mp4	0.0	74.53887295722961	0.09999990463256836
4	59.41696572303772	fix_pre	0		120	2.0	2.5	/experiments/Knapen_AOT/AOT_stimuli/rescaled_final/0689_rv.mp4	0.0	74.63887286186218	1.0085325241088867
4	59.592262506484985	pulse	0	t		2.0	2.5	/experiments/Knapen_AOT/AOT_stimuli/rescaled_final/0689_rv.mp4	0.0	74.81416964530945	
4	60.425498247146606	movie	1		291	2.0	2.5	/experiments/Knapen_AOT/AOT_stimuli/rescaled_final/0689_rv.mp4	0.0	75.64740538597107	2.4920032024383545
4	61.1923987865448	pulse	1	t		2.0	2.5	/experiments/Knapen_AOT/AOT_stimuli/rescaled_final/0689_rv.mp4	0.0	76.41430592536926	
4	62.7928249835968	pulse	1	t		2.0	2.5	/experiments/Knapen_AOT/AOT_stimuli/rescaled_final/0689_rv.mp4	0.0	78.01473212242126	
4	62.91750144958496	fix_post	2		12	2.0	2.5	/experiments/Knapen_AOT/AOT_stimuli/rescaled_final/0689_rv.mp4	0.0	78.13940858840942	0.10000157356262207
5	63.01750302314758	fix_pre	0		120	3.0	2.5	/experiments/Knapen_AOT/AOT_stimuli/rescaled_final/0652_fw.mp4	0.0	78.23941016197205	1.0085315704345703
5	64.02603459358215	movie	1		288	3.0	2.5	/experiments/Knapen_AOT/AOT_stimuli/rescaled_final/0652_fw.mp4	0.0	79.24794173240662	2.4920637607574463
5	64.39295721054077	pulse	1	t		3.0	2.5	/experiments/Knapen_AOT/AOT_stimuli/rescaled_final/0652_fw.mp4	0.0	79.61486434936523	
5	65.9933180809021	pulse	1	t		3.0	2.5	/experiments/Knapen_AOT/AOT_stimuli/rescaled_final/0652_fw.mp4	0.0	81.21522521972656	
5	66.5180983543396	fix_post	2		12	3.0	2.5	/experiments/Knapen_AOT/AOT_stimuli/rescaled_final/0652_fw.mp4	0.0	81.74000549316406	0.09999513626098633
6	66.61809349060059	fix_pre	0		118	4.0	2.5	/experiments/Knapen_AOT/AOT_stimuli/rescaled_final/0122_rv.mp4	0.0	81.84000062942505	0.9918332099914551
6	67.5934100151062	pulse	0	t		4.0	2.5	/experiments/Knapen_AOT/AOT_stimuli/rescaled_final/0122_rv.mp4	0.0	82.81531715393066	
6	67.60992670059204	movie	1		280	4.0	2.5	/experiments/Knapen_AOT/AOT_stimuli/rescaled_final/0122_rv.mp4	0.0	82.8318338394165	2.5005276203155518
6	69.19344353675842	pulse	1	t		4.0	2.5	/experiments/Knapen_AOT/AOT_stimuli/rescaled_final/0122_rv.mp4	0.0	84.41535067558289	
6	70.11045432090759	fix_post	2		12	4.0	2.5	/experiments/Knapen_AOT/AOT_stimuli/rescaled_final/0122_rv.mp4	0.0	85.33236145973206	0.09984183311462402
7	70.21029615402222	fix_pre	0		120	5.0	2.5	blank	1.0	85.43220329284668	1.0001311302185059
7	70.79394602775574	pulse	0	t		5.0	2.5	blank	1.0	86.0158531665802	
7	71.21042728424072	movie	1		300	5.0	2.5	blank	1.0	86.43233442306519	2.5003676414489746
7	72.39414429664612	pulse	1	t		5.0	2.5	blank	1.0	87.61605143547058	
7	73.7107949256897	fix_post	2		12	5.0	2.5	blank	1.0	88.93270206451416	0.10006356239318848
8	73.81085848808289	fix_pre	0		120	6.0	2.5	/experiments/Knapen_AOT/AOT_stimuli/rescaled_final/2005_rv.mp4	0.0	89.03276562690735	1.008469820022583
8	73.99437046051025	pulse	0	t		6.0	2.5	/experiments/Knapen_AOT/AOT_stimuli/rescaled_final/2005_rv.mp4	0.0	89.21627759933472	
8	74.81932830810547	movie	1		291	6.0	2.5	/experiments/Knapen_AOT/AOT_stimuli/rescaled_final/2005_rv.mp4	0.0	90.04123544692993	2.4920663833618164
8	75.59264016151428	pulse	1	t		6.0	2.5	/experiments/Knapen_AOT/AOT_stimuli/rescaled_final/2005_rv.mp4	0.0	90.81454730033875	
8	77.19310879707336	pulse	1	t		6.0	2.5	/experiments/Knapen_AOT/AOT_stimuli/rescaled_final/2005_rv.mp4	0.0	92.41501593589783	
8	77.31139469146729	fix_post	2		12	6.0	2.5	/experiments/Knapen_AOT/AOT_stimuli/rescaled_final/2005_rv.mp4	0.0	92.53330183029175	0.0999753475189209
9	77.4113700389862	fix_pre	0		120	7.0	2.5	/experiments/Knapen_AOT/AOT_stimuli/rescaled_final/0213_fw.mp4	0.0	92.63327717781067	1.00850510597229
9	78.4198751449585	movie	1		288	7.0	2.5	/experiments/Knapen_AOT/AOT_stimuli/rescaled_final/0213_fw.mp4	0.0	93.64178228378296	2.4920201301574707
9	78.7934718132019	pulse	1	t		7.0	2.5	/experiments/Knapen_AOT/AOT_stimuli/rescaled_final/0213_fw.mp4	0.0	94.01537895202637	
9	80.39331984519958	pulse	1	t		7.0	2.5	/experiments/Knapen_AOT/AOT_stimuli/rescaled_final/0213_fw.mp4	0.0	95.61522698402405	
9	80.91189527511597	fix_post	2		12	7.0	2.5	/experiments/Knapen_AOT/AOT_stimuli/rescaled_final/0213_fw.mp4	0.0	96.13380241394043	0.10004138946533203
10	81.0119366645813	fix_pre	0		119	8.0	2.5	/experiments/Knapen_AOT/AOT_stimuli/rescaled_final/1923_fw.mp4	0.0	96.23384380340576	1.000133752822876
10	81.99566674232483	pulse	0	t		8.0	2.5	/experiments/Knapen_AOT/AOT_stimuli/rescaled_final/1923_fw.mp4	0.0	97.21757388114929	
10	82.01207041740417	movie	1		271	8.0	2.5	/experiments/Knapen_AOT/AOT_stimuli/rescaled_final/1923_fw.mp4	0.0	97.23397755622864	2.5003890991210938
10	83.59648752212524	pulse	1	t		8.0	2.5	/experiments/Knapen_AOT/AOT_stimuli/rescaled_final/1923_fw.mp4	0.0	98.8183946609497	
10	84.51245951652527	fix_post	2		12	8.0	2.5	/experiments/Knapen_AOT/AOT_stimuli/rescaled_final/1923_fw.mp4	0.0	99.73436665534973	0.0999906063079834
11	84.61245012283325	fix_pre	0		120	9.0	2.5	/experiments/Knapen_AOT/AOT_stimuli/rescaled_final/1277_fw.mp4	0.0	99.83435726165771	1.0085227489471436
11	85.1960997581482	pulse	0	t		9.0	2.5	/experiments/Knapen_AOT/AOT_stimuli/rescaled_final/1277_fw.mp4	0.0	100.41800689697266	
11	85.6209728717804	movie	1		279	9.0	2.5	/experiments/Knapen_AOT/AOT_stimuli/rescaled_final/1277_fw.mp4	0.0	100.84288001060486	2.4920132160186768
11	86.79532504081726	pulse	1	t		9.0	2.5	/experiments/Knapen_AOT/AOT_stimuli/rescaled_final/1277_fw.mp4	0.0	102.01723217964172	
11	88.11298608779907	fix_post	2		12	9.0	2.5	/experiments/Knapen_AOT/AOT_stimuli/rescaled_final/1277_fw.mp4	0.0	103.33489322662354	0.10001659393310547
12	88.21300268173218	fix_pre	0		120	10.0	2.5	/experiments/Knapen_AOT/AOT_stimuli/rescaled_final/1178_rv.mp4	0.0	103.43490982055664	1.0084772109985352
12	88.3965413570404	pulse	0	t		10.0	2.5	/experiments/Knapen_AOT/AOT_stimuli/rescaled_final/1178_rv.mp4	0.0	103.61844849586487	
12	89.22147989273071	movie	1		278	10.0	2.5	/experiments/Knapen_AOT/AOT_stimuli/rescaled_final/1178_rv.mp4	0.0	104.44338703155518	2.492011308670044
12	89.99491238594055	pulse	1	t		10.0	2.5	/experiments/Knapen_AOT/AOT_stimuli/rescaled_final/1178_rv.mp4	0.0	105.21681952476501	
12	91.59489846229553	pulse	1	t		10.0	2.5	/experiments/Knapen_AOT/AOT_stimuli/rescaled_final/1178_rv.mp4	0.0	106.81680560112	
12	91.71349120140076	fix_post	2		12	10.0	2.5	/experiments/Knapen_AOT/AOT_stimuli/rescaled_final/1178_rv.mp4	0.0	106.93539834022522	0.10008788108825684
13	91.81357908248901	fix_pre	0		120	11.0	2.5	/experiments/Knapen_AOT/AOT_stimuli/rescaled_final/1439_rv.mp4	0.0	107.03548622131348	1.0085008144378662
13	92.82207989692688	movie	1		261	11.0	2.5	/experiments/Knapen_AOT/AOT_stimuli/rescaled_final/1439_rv.mp4	0.0	108.04398703575134	2.491976499557495
13	93.19777989387512	pulse	1	t		11.0	2.5	/experiments/Knapen_AOT/AOT_stimuli/rescaled_final/1439_rv.mp4	0.0	108.41968703269958	
13	94.79526662826538	pulse	1	t		11.0	2.5	/experiments/Knapen_AOT/AOT_stimuli/rescaled_final/1439_rv.mp4	0.0	110.01717376708984	
13	95.31405639648438	fix_post	2		12	11.0	2.5	/experiments/Knapen_AOT/AOT_stimuli/rescaled_final/1439_rv.mp4	0.0	110.53596353530884	0.10004210472106934
14	95.41409850120544	fix_pre	0		119	12.0	2.5	/experiments/Knapen_AOT/AOT_stimuli/rescaled_final/0753_rv.mp4	0.0	110.63600564002991	1.0001204013824463
14	96.3978226184845	pulse	0	t		12.0	2.5	/experiments/Knapen_AOT/AOT_stimuli/rescaled_final/0753_rv.mp4	0.0	111.61972975730896	
14	96.41421890258789	movie	1		291	12.0	2.5	/experiments/Knapen_AOT/AOT_stimuli/rescaled_final/0753_rv.mp4	0.0	111.63612604141235	2.500386953353882
14	97.9964599609375	pulse	1	t		12.0	2.5	/experiments/Knapen_AOT/AOT_stimuli/rescaled_final/0753_rv.mp4	0.0	113.21836709976196	
14	98.91460585594177	fix_post	2		12	12.0	2.5	/experiments/Knapen_AOT/AOT_stimuli/rescaled_final/0753_rv.mp4	0.0	114.13651299476624	0.10004711151123047
15	99.014652967453	fix_pre	0		120	13.0	2.5	blank	1.0	114.23656010627747	1.0001029968261719
15	99.59826040267944	pulse	0	t		13.0	2.5	blank	1.0	114.8201675415039	
15	100.01475596427917	movie	1		300	13.0	2.5	blank	1.0	115.23666310310364	2.500392198562622
15	101.19854187965393	pulse	1	t		13.0	2.5	blank	1.0	116.4204490184784	
15	102.5151481628418	fix_post	2		12	13.0	2.5	blank	1.0	117.73705530166626	0.10002827644348145
16	102.61517643928528	fix_pre	0		120	14.0	2.5	/experiments/Knapen_AOT/AOT_stimuli/rescaled_final/0001_fw.mp4	0.0	117.83708357810974	1.0085077285766602
16	102.7987711429596	pulse	0	t		14.0	2.5	/experiments/Knapen_AOT/AOT_stimuli/rescaled_final/0001_fw.mp4	0.0	118.02067828178406	
16	103.62368416786194	movie	1		288	14.0	2.5	/experiments/Knapen_AOT/AOT_stimuli/rescaled_final/0001_fw.mp4	0.0	118.8455913066864	2.491997718811035
16	104.39671754837036	pulse	1	t		14.0	2.5	/experiments/Knapen_AOT/AOT_stimuli/rescaled_final/0001_fw.mp4	0.0	119.61862468719482	
16	105.9911732673645	pulse	1	t		14.0	2.5	/experiments/Knapen_AOT/AOT_stimuli/rescaled_final/0001_fw.mp4	0.0	121.21308040618896	
16	106.11568188667297	fix_post	2		12	14.0	2.5	/experiments/Knapen_AOT/AOT_stimuli/rescaled_final/0001_fw.mp4	0.0	121.33758902549744	0.10004329681396484
17	106.21572518348694	fix_pre	0		120	15.0	2.5	/experiments/Knapen_AOT/AOT_stimuli/rescaled_final/1995_fw.mp4	0.0	121.4376323223114	1.0084624290466309
17	107.22418761253357	movie	1		283	15.0	2.5	/experiments/Knapen_AOT/AOT_stimuli/rescaled_final/1995_fw.mp4	0.0	122.44609475135803	2.492039918899536
17	107.59138894081116	pulse	1	t		15.0	2.5	/experiments/Knapen_AOT/AOT_stimuli/rescaled_final/1995_fw.mp4	0.0	122.81329607963562	
17	109.19136190414429	pulse	1	t		15.0	2.5	/experiments/Knapen_AOT/AOT_stimuli/rescaled_final/1995_fw.mp4	0.0	124.41326904296875	
17	109.7162275314331	fix_post	2		12	15.0	2.5	/experiments/Knapen_AOT/AOT_stimuli/rescaled_final/1995_fw.mp4	0.0	124.93813467025757	0.10003042221069336
18	109.8162579536438	fix_pre	0		118	16.0	2.5	/experiments/Knapen_AOT/AOT_stimuli/rescaled_final/0988_rv.mp4	0.0	125.03816509246826	0.9918332099914551
18	110.79164099693298	pulse	0	t		16.0	2.5	/experiments/Knapen_AOT/AOT_stimuli/rescaled_final/0988_rv.mp4	0.0	126.01354813575745	
18	110.80809116363525	movie	1		283	16.0	2.5	/experiments/Knapen_AOT/AOT_stimuli/rescaled_final/0988_rv.mp4	0.0	126.02999830245972	2.5003366470336914
18	112.39203095436096	pulse	1	t		16.0	2.5	/experiments/Knapen_AOT/AOT_stimuli/rescaled_final/0988_rv.mp4	0.0	127.61393809318542	
18	113.30842781066895	fix_post	2		12	16.0	2.5	/experiments/Knapen_AOT/AOT_stimuli/rescaled_final/0988_rv.mp4	0.0	128.5303349494934	0.10014772415161133
19	113.40857553482056	fix_pre	0		120	17.0	2.5	/experiments/Knapen_AOT/AOT_stimuli/rescaled_final/0555_rv.mp4	0.0	128.63048267364502	1.0083775520324707
19	113.99207520484924	pulse	0	t		17.0	2.5	/experiments/Knapen_AOT/AOT_stimuli/rescaled_final/0555_rv.mp4	0.0	129.2139823436737	
19	114.41695308685303	movie	1		291	17.0	2.5	/experiments/Knapen_AOT/AOT_stimuli/rescaled_final/0555_rv.mp4	0.0	129.6388602256775	2.492011547088623
19	115.5923330783844	pulse	1	t		17.0	2.5	/experiments/Knapen_AOT/AOT_stimuli/rescaled_final/0555_rv.mp4	0.0	130.81424021720886	
19	116.90896463394165	fix_post	2		12	17.0	2.5	/experiments/Knapen_AOT/AOT_stimuli/rescaled_final/0555_rv.mp4	0.0	132.1308717727661	0.1000213623046875
20	117.00898599624634	fix_pre	0		120	18.0	2.5	/experiments/Knapen_AOT/AOT_stimuli/rescaled_final/1277_rv.mp4	0.0	132.2308931350708	1.0084846019744873
20	117.19254851341248	pulse	0	t		18.0	2.5	/experiments/Knapen_AOT/AOT_stimuli/rescaled_final/1277_rv.mp4	0.0	132.41445565223694	
20	118.01747059822083	movie	1		281	18.0	2.5	/experiments/Knapen_AOT/AOT_stimuli/rescaled_final/1277_rv.mp4	0.0	133.2393777370453	2.492076873779297
20	118.79293584823608	pulse	1	t		18.0	2.5	/experiments/Knapen_AOT/AOT_stimuli/rescaled_final/1277_rv.mp4	0.0	134.01484298706055	
20	120.39155745506287	pulse	1	t		18.0	2.5	/experiments/Knapen_AOT/AOT_stimuli/rescaled_final/1277_rv.mp4	0.0	135.61346459388733	
20	120.50954747200012	fix_post	2		12	18.0	2.5	/experiments/Knapen_AOT/AOT_stimuli/rescaled_final/1277_rv.mp4	0.0	135.73145461082458	0.10017085075378418
21	120.6097183227539	fix_pre	0		120	19.0	2.5	/experiments/Knapen_AOT/AOT_stimuli/rescaled_final/2167_rv.mp4	0.0	135.83162546157837	1.008347988128662
21	121.61806631088257	movie	1		287	19.0	2.5	/experiments/Knapen_AOT/AOT_stimuli/rescaled_final/2167_rv.mp4	0.0	136.83997344970703	2.4919941425323486
21	121.99307441711426	pulse	1	t		19.0	2.5	/experiments/Knapen_AOT/AOT_stimuli/rescaled_final/2167_rv.mp4	0.0	137.21498155593872	
21	123.59143042564392	pulse	1	t		19.0	2.5	/experiments/Knapen_AOT/AOT_stimuli/rescaled_final/2167_rv.mp4	0.0	138.81333756446838	
21	124.11006045341492	fix_post	2		12	19.0	2.5	/experiments/Knapen_AOT/AOT_stimuli/rescaled_final/2167_rv.mp4	0.0	139.33196759223938	0.10000348091125488
22	124.21006393432617	fix_pre	0		119	20.0	2.5	blank	1.0	139.43197107315063	0.9918091297149658
22	125.19394969940186	pulse	0	t		20.0	2.5	blank	1.0	140.41585683822632	
22	125.20187306404114	movie	1		301	20.0	2.5	blank	1.0	140.4237802028656	2.5088207721710205
22	126.79397320747375	pulse	1	t		20.0	2.5	blank	1.0	142.01588034629822	
22	127.71069383621216	fix_post	2		12	20.0	2.5	blank	1.0	142.93260097503662	0.09990596771240234
23	127.81059980392456	fix_pre	0		120	21.0	2.5	/experiments/Knapen_AOT/AOT_stimuli/rescaled_final/0407_rv.mp4	0.0	143.03250694274902	1.0084984302520752
23	128.39428281784058	pulse	0	t		21.0	2.5	/experiments/Knapen_AOT/AOT_stimuli/rescaled_final/0407_rv.mp4	0.0	143.61618995666504	
23	128.81909823417664	movie	1		278	21.0	2.5	/experiments/Knapen_AOT/AOT_stimuli/rescaled_final/0407_rv.mp4	0.0	144.0410053730011	2.4921185970306396
23	129.9924554824829	pulse	1	t		21.0	2.5	/experiments/Knapen_AOT/AOT_stimuli/rescaled_final/0407_rv.mp4	0.0	145.21436262130737	
23	131.31121683120728	fix_post	2		12	21.0	2.5	/experiments/Knapen_AOT/AOT_stimuli/rescaled_final/0407_rv.mp4	0.0	146.53312397003174	0.09993124008178711
24	131.41114807128906	fix_pre	0		120	22.0	2.5	/experiments/Knapen_AOT/AOT_stimuli/rescaled_final/0551_rv.mp4	0.0	146.63305521011353	1.0085623264312744
24	131.59470629692078	pulse	0	t		22.0	2.5	/experiments/Knapen_AOT/AOT_stimuli/rescaled_final/0551_rv.mp4	0.0	146.81661343574524	
24	132.41971039772034	movie	1		292	22.0	2.5	/experiments/Knapen_AOT/AOT_stimuli/rescaled_final/0551_rv.mp4	0.0	147.6416175365448	2.491981029510498
24	133.19302320480347	pulse	1	t		22.0	2.5	/experiments/Knapen_AOT/AOT_stimuli/rescaled_final/0551_rv.mp4	0.0	148.41493034362793	
24	134.7937150001526	pulse	1	t		22.0	2.5	/experiments/Knapen_AOT/AOT_stimuli/rescaled_final/0551_rv.mp4	0.0	150.01562213897705	
24	134.91169142723083	fix_post	2		12	22.0	2.5	/experiments/Knapen_AOT/AOT_stimuli/rescaled_final/0551_rv.mp4	0.0	150.1335985660553	0.1000676155090332
25	135.01175904273987	fix_pre	0		120	23.0	2.5	/experiments/Knapen_AOT/AOT_stimuli/rescaled_final/1859_fw.mp4	0.0	150.23366618156433	1.0084452629089355
25	136.0202043056488	movie	1		275	23.0	2.5	/experiments/Knapen_AOT/AOT_stimuli/rescaled_final/1859_fw.mp4	0.0	151.24211144447327	2.492030382156372
25	136.39558219909668	pulse	1	t		23.0	2.5	/experiments/Knapen_AOT/AOT_stimuli/rescaled_final/1859_fw.mp4	0.0	151.61748933792114	
25	137.99511003494263	pulse	1	t		23.0	2.5	/experiments/Knapen_AOT/AOT_stimuli/rescaled_final/1859_fw.mp4	0.0	153.2170171737671	
25	138.51223468780518	fix_post	2		12	23.0	2.5	/experiments/Knapen_AOT/AOT_stimuli/rescaled_final/1859_fw.mp4	0.0	153.73414182662964	0.10009336471557617
26	138.61232805252075	fix_pre	0		119	24.0	2.5	/experiments/Knapen_AOT/AOT_stimuli/rescaled_final/0974_fw.mp4	0.0	153.83423519134521	1.0000641345977783
26	139.59598875045776	pulse	0	t		24.0	2.5	/experiments/Knapen_AOT/AOT_stimuli/rescaled_final/0974_fw.mp4	0.0	154.81789588928223	
26	139.61239218711853	movie	1		285	24.0	2.5	/experiments/Knapen_AOT/AOT_stimuli/rescaled_final/0974_fw.mp4	0.0	154.834299325943	2.508702039718628
26	141.19455909729004	pulse	1	t		24.0	2.5	/experiments/Knapen_AOT/AOT_stimuli/rescaled_final/0974_fw.mp4	0.0	156.4164662361145	
26	142.12109422683716	fix_post	2		11	24.0	2.5	/experiments/Knapen_AOT/AOT_stimuli/rescaled_final/0974_fw.mp4	0.0	157.34300136566162	0.09168815612792969
27	142.2127823829651	fix_pre	0		120	25.0	2.5	/experiments/Knapen_AOT/AOT_stimuli/rescaled_final/0755_fw.mp4	0.0	157.43468952178955	1.0085887908935547
27	142.79648756980896	pulse	0	t		25.0	2.5	/experiments/Knapen_AOT/AOT_stimuli/rescaled_final/0755_fw.mp4	0.0	158.01839470863342	
27	143.22137117385864	movie	1		271	25.0	2.5	/experiments/Knapen_AOT/AOT_stimuli/rescaled_final/0755_fw.mp4	0.0	158.4432783126831	2.491936206817627
27	144.3949851989746	pulse	1	t		25.0	2.5	/experiments/Knapen_AOT/AOT_stimuli/rescaled_final/0755_fw.mp4	0.0	159.61689233779907	
27	145.71330738067627	fix_post	2		12	25.0	2.5	/experiments/Knapen_AOT/AOT_stimuli/rescaled_final/0755_fw.mp4	0.0	160.93521451950073	0.10002326965332031
28	145.8133306503296	fix_pre	0		120	26.0	2.5	/experiments/Knapen_AOT/AOT_stimuli/rescaled_final/0582_fw.mp4	0.0	161.03523778915405	1.0084879398345947
28	145.99693989753723	pulse	0	t		26.0	2.5	/experiments/Knapen_AOT/AOT_stimuli/rescaled_final/0582_fw.mp4	0.0	161.2188470363617	
28	146.82181859016418	movie	1		283	26.0	2.5	/experiments/Knapen_AOT/AOT_stimuli/rescaled_final/0582_fw.mp4	0.0	162.04372572898865	2.492023229598999
28	147.59493350982666	pulse	1	t		26.0	2.5	/experiments/Knapen_AOT/AOT_stimuli/rescaled_final/0582_fw.mp4	0.0	162.81684064865112	
28	149.19555568695068	pulse	1	t		26.0	2.5	/experiments/Knapen_AOT/AOT_stimuli/rescaled_final/0582_fw.mp4	0.0	164.41746282577515	
28	149.31384181976318	fix_post	2		12	26.0	2.5	/experiments/Knapen_AOT/AOT_stimuli/rescaled_final/0582_fw.mp4	0.0	164.53574895858765	0.10002279281616211
29	149.41386461257935	fix_pre	0		120	27.0	2.5	blank	1.0	164.6357717514038	1.0001368522644043
29	150.41400146484375	movie	1		300	27.0	2.5	blank	1.0	165.6359086036682	2.5003902912139893
29	150.79761934280396	pulse	1	t		27.0	2.5	blank	1.0	166.01952648162842	
29	152.39786624908447	pulse	1	t		27.0	2.5	blank	1.0	167.61977338790894	
29	152.91439175605774	fix_post	2		12	27.0	2.5	blank	1.0	168.1362988948822	0.1000218391418457
30	153.01441359519958	fix_pre	0		119	28.0	2.5	/experiments/Knapen_AOT/AOT_stimuli/rescaled_final/0407_fw.mp4	0.0	168.23632073402405	1.0001122951507568
30	153.99814367294312	pulse	0	t		28.0	2.5	/experiments/Knapen_AOT/AOT_stimuli/rescaled_final/0407_fw.mp4	0.0	169.22005081176758	
30	154.01452589035034	movie	1		274	28.0	2.5	/experiments/Knapen_AOT/AOT_stimuli/rescaled_final/0407_fw.mp4	0.0	169.2364330291748	2.5006320476531982
30	155.59661555290222	pulse	1	t		28.0	2.5	/experiments/Knapen_AOT/AOT_stimuli/rescaled_final/0407_fw.mp4	0.0	170.81852269172668	
30	156.51515793800354	fix_post	2		12	28.0	2.5	/experiments/Knapen_AOT/AOT_stimuli/rescaled_final/0407_fw.mp4	0.0	171.737065076828	0.09978437423706055
31	156.6149423122406	fix_pre	0		120	29.0	2.5	/experiments/Knapen_AOT/AOT_stimuli/rescaled_final/2173_fw.mp4	0.0	171.83684945106506	1.0085413455963135
31	157.19879984855652	pulse	0	t		29.0	2.5	/experiments/Knapen_AOT/AOT_stimuli/rescaled_final/2173_fw.mp4	0.0	172.42070698738098	
31	157.6234836578369	movie	1		284	29.0	2.5	/experiments/Knapen_AOT/AOT_stimuli/rescaled_final/2173_fw.mp4	0.0	172.84539079666138	2.4919803142547607
31	158.79735732078552	pulse	1	t		29.0	2.5	/experiments/Knapen_AOT/AOT_stimuli/rescaled_final/2173_fw.mp4	0.0	174.01926445960999	
31	160.11546397209167	fix_post	2		12	29.0	2.5	/experiments/Knapen_AOT/AOT_stimuli/rescaled_final/2173_fw.mp4	0.0	175.33737111091614	0.10000324249267578
32	160.21546721458435	fix_pre	0		120	30.0	2.5	/experiments/Knapen_AOT/AOT_stimuli/rescaled_final/0427_fw.mp4	0.0	175.4373743534088	1.008519172668457
32	160.39186215400696	pulse	0	t		30.0	2.5	/experiments/Knapen_AOT/AOT_stimuli/rescaled_final/0427_fw.mp4	0.0	175.61376929283142	
32	161.2239863872528	movie	1		275	30.0	2.5	/experiments/Knapen_AOT/AOT_stimuli/rescaled_final/0427_fw.mp4	0.0	176.44589352607727	2.4920690059661865
32	161.99822759628296	pulse	1	t		30.0	2.5	/experiments/Knapen_AOT/AOT_stimuli/rescaled_final/0427_fw.mp4	0.0	177.22013473510742	
32	163.59156250953674	pulse	1	t		30.0	2.5	/experiments/Knapen_AOT/AOT_stimuli/rescaled_final/0427_fw.mp4	0.0	178.8134696483612	
32	163.716055393219	fix_post	2		12	30.0	2.5	/experiments/Knapen_AOT/AOT_stimuli/rescaled_final/0427_fw.mp4	0.0	178.93796253204346	0.09998106956481934
33	163.8160364627838	fix_pre	0		120	31.0	2.5	/experiments/Knapen_AOT/AOT_stimuli/rescaled_final/1573_rv.mp4	0.0	179.03794360160828	1.0084900856018066
33	164.82452654838562	movie	1		281	31.0	2.5	/experiments/Knapen_AOT/AOT_stimuli/rescaled_final/1573_rv.mp4	0.0	180.04643368721008	2.492027521133423
33	165.1915898323059	pulse	1	t		31.0	2.5	/experiments/Knapen_AOT/AOT_stimuli/rescaled_final/1573_rv.mp4	0.0	180.41349697113037	
33	166.7916305065155	pulse	1	t		31.0	2.5	/experiments/Knapen_AOT/AOT_stimuli/rescaled_final/1573_rv.mp4	0.0	182.01353764533997	
33	167.31655406951904	fix_post	2		12	31.0	2.5	/experiments/Knapen_AOT/AOT_stimuli/rescaled_final/1573_rv.mp4	0.0	182.5384612083435	0.1001279354095459
34	167.4166820049286	fix_pre	0		118	32.0	2.5	/experiments/Knapen_AOT/AOT_stimuli/rescaled_final/0486_rv.mp4	0.0	182.63858914375305	0.9916980266571045
34	168.391939163208	pulse	0	t		32.0	2.5	/experiments/Knapen_AOT/AOT_stimuli/rescaled_final/0486_rv.mp4	0.0	183.61384630203247	
34	168.4083800315857	movie	1		287	32.0	2.5	/experiments/Knapen_AOT/AOT_stimuli/rescaled_final/0486_rv.mp4	0.0	183.63028717041016	2.500364303588867
34	169.99222421646118	pulse	1	t		32.0	2.5	/experiments/Knapen_AOT/AOT_stimuli/rescaled_final/0486_rv.mp4	0.0	185.21413135528564	
34	170.90874433517456	fix_post	2		12	32.0	2.5	/experiments/Knapen_AOT/AOT_stimuli/rescaled_final/0486_rv.mp4	0.0	186.13065147399902	0.10002589225769043
35	171.00877022743225	fix_pre	0		120	33.0	2.5	/experiments/Knapen_AOT/AOT_stimuli/rescaled_final/0791_fw.mp4	0.0	186.2306773662567	1.008530616760254
35	171.59253978729248	pulse	0	t		33.0	2.5	/experiments/Knapen_AOT/AOT_stimuli/rescaled_final/0791_fw.mp4	0.0	186.81444692611694	
35	172.0173008441925	movie	1		284	33.0	2.5	/experiments/Knapen_AOT/AOT_stimuli/rescaled_final/0791_fw.mp4	0.0	187.23920798301697	2.4920380115509033
35	173.19287991523743	pulse	1	t		33.0	2.5	/experiments/Knapen_AOT/AOT_stimuli/rescaled_final/0791_fw.mp4	0.0	188.4147870540619	
35	174.5093388557434	fix_post	2		12	33.0	2.5	/experiments/Knapen_AOT/AOT_stimuli/rescaled_final/0791_fw.mp4	0.0	189.73124599456787	0.10019063949584961
36	174.60952949523926	fix_pre	0		120	34.0	2.5	/experiments/Knapen_AOT/AOT_stimuli/rescaled_final/0382_rv.mp4	0.0	189.83143663406372	1.008347511291504
36	174.79289770126343	pulse	0	t		34.0	2.5	/experiments/Knapen_AOT/AOT_stimuli/rescaled_final/0382_rv.mp4	0.0	190.0148048400879	
36	175.61787700653076	movie	1		272	34.0	2.5	/experiments/Knapen_AOT/AOT_stimuli/rescaled_final/0382_rv.mp4	0.0	190.83978414535522	2.4920077323913574
36	176.39245057106018	pulse	1	t		34.0	2.5	/experiments/Knapen_AOT/AOT_stimuli/rescaled_final/0382_rv.mp4	0.0	191.61435770988464	
36	177.99339318275452	pulse	1	t		34.0	2.5	/experiments/Knapen_AOT/AOT_stimuli/rescaled_final/0382_rv.mp4	0.0	193.21530032157898	
36	178.10988473892212	fix_post	2		12	34.0	2.5	/experiments/Knapen_AOT/AOT_stimuli/rescaled_final/0382_rv.mp4	0.0	193.33179187774658	0.09995651245117188
37	178.2098412513733	fix_pre	0		120	35.0	2.5	blank	1.0	193.43174839019775	1.0001542568206787
37	179.20999550819397	movie	1		300	35.0	2.5	blank	1.0	194.43190264701843	2.500380516052246
37	179.59361171722412	pulse	1	t		35.0	2.5	blank	1.0	194.81551885604858	
37	181.19387936592102	pulse	1	t		35.0	2.5	blank	1.0	196.41578650474548	
37	181.71037602424622	fix_post	2		12	35.0	2.5	blank	1.0	196.93228316307068	0.09998559951782227
38	181.81036162376404	fix_pre	0		119	36.0	2.5	/experiments/Knapen_AOT/AOT_stimuli/rescaled_final/0387_fw.mp4	0.0	197.0322687625885	1.0002992153167725
38	182.79438877105713	pulse	0	t		36.0	2.5	/experiments/Knapen_AOT/AOT_stimuli/rescaled_final/0387_fw.mp4	0.0	198.0162959098816	
38	182.8106608390808	movie	1		288	36.0	2.5	/experiments/Knapen_AOT/AOT_stimuli/rescaled_final/0387_fw.mp4	0.0	198.03256797790527	2.500253200531006
38	184.39285326004028	pulse	1	t		36.0	2.5	/experiments/Knapen_AOT/AOT_stimuli/rescaled_final/0387_fw.mp4	0.0	199.61476039886475	
38	185.31091403961182	fix_post	2		12	36.0	2.5	/experiments/Knapen_AOT/AOT_stimuli/rescaled_final/0387_fw.mp4	0.0	200.53282117843628	0.10004544258117676
39	185.410959482193	fix_pre	0		120	37.0	2.5	/experiments/Knapen_AOT/AOT_stimuli/rescaled_final/0551_rv.mp4	0.0	200.63286662101746	1.0084826946258545
39	185.99484848976135	pulse	0	t		37.0	2.5	/experiments/Knapen_AOT/AOT_stimuli/rescaled_final/0551_rv.mp4	0.0	201.21675562858582	
39	186.41944217681885	movie	1		271	37.0	2.5	/experiments/Knapen_AOT/AOT_stimuli/rescaled_final/0551_rv.mp4	0.0	201.6413493156433	2.4920074939727783
39	187.59382915496826	pulse	1	t		37.0	2.5	/experiments/Knapen_AOT/AOT_stimuli/rescaled_final/0551_rv.mp4	0.0	202.81573629379272	
39	188.91144967079163	fix_post	2		12	37.0	2.5	/experiments/Knapen_AOT/AOT_stimuli/rescaled_final/0551_rv.mp4	0.0	204.1333568096161	0.10003209114074707
40	189.01148176193237	fix_pre	0		120	38.0	2.5	/experiments/Knapen_AOT/AOT_stimuli/rescaled_final/1116_rv.mp4	0.0	204.23338890075684	1.0085515975952148
40	189.19506645202637	pulse	0	t		38.0	2.5	/experiments/Knapen_AOT/AOT_stimuli/rescaled_final/1116_rv.mp4	0.0	204.41697359085083	
40	190.0200333595276	movie	1		292	38.0	2.5	/experiments/Knapen_AOT/AOT_stimuli/rescaled_final/1116_rv.mp4	0.0	205.24194049835205	2.491969347000122
40	190.79366159439087	pulse	1	t		38.0	2.5	/experiments/Knapen_AOT/AOT_stimuli/rescaled_final/1116_rv.mp4	0.0	206.01556873321533	
40	192.393780708313	pulse	1	t		38.0	2.5	/experiments/Knapen_AOT/AOT_stimuli/rescaled_final/1116_rv.mp4	0.0	207.61568784713745	
40	192.5120027065277	fix_post	2		12	38.0	2.5	/experiments/Knapen_AOT/AOT_stimuli/rescaled_final/1116_rv.mp4	0.0	207.73390984535217	0.10001254081726074
41	192.61201524734497	fix_pre	0		120	39.0	2.5	/experiments/Knapen_AOT/AOT_stimuli/rescaled_final/0355_rv.mp4	0.0	207.83392238616943	1.008518934249878
41	193.62053418159485	movie	1		286	39.0	2.5	/experiments/Knapen_AOT/AOT_stimuli/rescaled_final/0355_rv.mp4	0.0	208.8424413204193	2.4920055866241455
41	193.99515008926392	pulse	1	t		39.0	2.5	/experiments/Knapen_AOT/AOT_stimuli/rescaled_final/0355_rv.mp4	0.0	209.21705722808838	
41	195.59389209747314	pulse	1	t		39.0	2.5	/experiments/Knapen_AOT/AOT_stimuli/rescaled_final/0355_rv.mp4	0.0	210.8157992362976	
41	196.112539768219	fix_post	2		12	39.0	2.5	/experiments/Knapen_AOT/AOT_stimuli/rescaled_final/0355_rv.mp4	0.0	211.33444690704346	0.10008811950683594
42	196.21262788772583	fix_pre	0		118	40.0	2.5	/experiments/Knapen_AOT/AOT_stimuli/rescaled_final/1938_rv.mp4	0.0	211.4345350265503	1.0000762939453125
42	197.19637489318848	pulse	0	t		40.0	2.5	/experiments/Knapen_AOT/AOT_stimuli/rescaled_final/1938_rv.mp4	0.0	212.41828203201294	
42	197.21270418167114	movie	1		271	40.0	2.5	/experiments/Knapen_AOT/AOT_stimuli/rescaled_final/1938_rv.mp4	0.0	212.4346113204956	2.5003740787506104
42	198.79500436782837	pulse	1	t		40.0	2.5	/experiments/Knapen_AOT/AOT_stimuli/rescaled_final/1938_rv.mp4	0.0	214.01691150665283	
42	199.71307826042175	fix_post	2		12	40.0	2.5	/experiments/Knapen_AOT/AOT_stimuli/rescaled_final/1938_rv.mp4	0.0	214.93498539924622	0.10001540184020996
43	199.81309366226196	fix_pre	0		120	41.0	2.5	blank	1.0	215.03500080108643	1.000180959701538
43	200.39676022529602	pulse	0	t		41.0	2.5	blank	1.0	215.61866736412048	
43	200.8132746219635	movie	1		300	41.0	2.5	blank	1.0	216.03518176078796	2.50034761428833
43	201.9972686767578	pulse	1	t		41.0	2.5	blank	1.0	217.21917581558228	
43	203.31362223625183	fix_post	2		12	41.0	2.5	blank	1.0	218.5355293750763	0.10007619857788086
44	203.4136984348297	fix_pre	0		120	42.0	2.5	/experiments/Knapen_AOT/AOT_stimuli/rescaled_final/0339_fw.mp4	0.0	218.63560557365417	1.008436679840088
44	203.59727931022644	pulse	0	t		42.0	2.5	/experiments/Knapen_AOT/AOT_stimuli/rescaled_final/0339_fw.mp4	0.0	218.8191864490509	
44	204.4221351146698	movie	1		291	42.0	2.5	/experiments/Knapen_AOT/AOT_stimuli/rescaled_final/0339_fw.mp4	0.0	219.64404225349426	2.492123603820801
44	205.19562435150146	pulse	1	t		42.0	2.5	/experiments/Knapen_AOT/AOT_stimuli/rescaled_final/0339_fw.mp4	0.0	220.41753149032593	
44	206.79575037956238	pulse	1	t		42.0	2.5	/experiments/Knapen_AOT/AOT_stimuli/rescaled_final/0339_fw.mp4	0.0	222.01765751838684	
44	206.9142587184906	fix_post	2		12	42.0	2.5	/experiments/Knapen_AOT/AOT_stimuli/rescaled_final/0339_fw.mp4	0.0	222.13616585731506	0.0999298095703125
45	207.0141885280609	fix_pre	0		120	43.0	2.5	/experiments/Knapen_AOT/AOT_stimuli/rescaled_final/1033_fw.mp4	0.0	222.23609566688538	1.008488416671753
45	208.02267694473267	movie	1		287	43.0	2.5	/experiments/Knapen_AOT/AOT_stimuli/rescaled_final/1033_fw.mp4	0.0	223.24458408355713	2.4920425415039062
45	208.39614939689636	pulse	1	t		43.0	2.5	/experiments/Knapen_AOT/AOT_stimuli/rescaled_final/1033_fw.mp4	0.0	223.61805653572083	
45	209.9960527420044	pulse	1	t		43.0	2.5	/experiments/Knapen_AOT/AOT_stimuli/rescaled_final/1033_fw.mp4	0.0	225.21795988082886	
45	210.51471948623657	fix_post	2		12	43.0	2.5	/experiments/Knapen_AOT/AOT_stimuli/rescaled_final/1033_fw.mp4	0.0	225.73662662506104	0.10001444816589355
46	210.61473393440247	fix_pre	0		119	44.0	2.5	/experiments/Knapen_AOT/AOT_stimuli/rescaled_final/0492_rv.mp4	0.0	225.83664107322693	1.0001752376556396
46	211.59854078292847	pulse	0	t		44.0	2.5	/experiments/Knapen_AOT/AOT_stimuli/rescaled_final/0492_rv.mp4	0.0	226.82044792175293	
46	211.6149091720581	movie	1		285	44.0	2.5	/experiments/Knapen_AOT/AOT_stimuli/rescaled_final/0492_rv.mp4	0.0	226.83681631088257	2.5003714561462402
46	213.19743609428406	pulse	1	t		44.0	2.5	/experiments/Knapen_AOT/AOT_stimuli/rescaled_final/0492_rv.mp4	0.0	228.41934323310852	
46	214.11528062820435	fix_post	2		12	44.0	2.5	/experiments/Knapen_AOT/AOT_stimuli/rescaled_final/0492_rv.mp4	0.0	229.3371877670288	0.09999442100524902
47	214.2152750492096	fix_pre	0		120	45.0	2.5	/experiments/Knapen_AOT/AOT_stimuli/rescaled_final/0606_rv.mp4	0.0	229.43718218803406	1.0085034370422363
47	214.79932856559753	pulse	0	t		45.0	2.5	/experiments/Knapen_AOT/AOT_stimuli/rescaled_final/0606_rv.mp4	0.0	230.021235704422	
47	215.22377848625183	movie	1		288	45.0	2.5	/experiments/Knapen_AOT/AOT_stimuli/rescaled_final/0606_rv.mp4	0.0	230.4456856250763	2.4920105934143066
47	216.39733219146729	pulse	1	t		45.0	2.5	/experiments/Knapen_AOT/AOT_stimuli/rescaled_final/0606_rv.mp4	0.0	231.61923933029175	
47	217.71578907966614	fix_post	2		12	45.0	2.5	/experiments/Knapen_AOT/AOT_stimuli/rescaled_final/0606_rv.mp4	0.0	232.9376962184906	0.10000801086425781
48	217.8157970905304	fix_pre	0		103	46.0	2.5	/experiments/Knapen_AOT/AOT_stimuli/rescaled_final/0859_rv.mp4	0.0	233.03770422935486	1.008512020111084
48	218.11247301101685	pulse	0	t		46.0	2.5	/experiments/Knapen_AOT/AOT_stimuli/rescaled_final/0859_rv.mp4	0.0	233.3343801498413	
48	218.82430911064148	movie	1		283	46.0	2.5	/experiments/Knapen_AOT/AOT_stimuli/rescaled_final/0859_rv.mp4	0.0	234.04621624946594	2.4920296669006348
48	219.599294424057	pulse	1	t		46.0	2.5	/experiments/Knapen_AOT/AOT_stimuli/rescaled_final/0859_rv.mp4	0.0	234.82120156288147	
48	221.19803261756897	pulse	1	t		46.0	2.5	/experiments/Knapen_AOT/AOT_stimuli/rescaled_final/0859_rv.mp4	0.0	236.41993975639343	
48	221.31633877754211	fix_post	2		12	46.0	2.5	/experiments/Knapen_AOT/AOT_stimuli/rescaled_final/0859_rv.mp4	0.0	236.53824591636658	0.1000359058380127
49	221.41637468338013	fix_pre	0		120	47.0	2.5	/experiments/Knapen_AOT/AOT_stimuli/rescaled_final/0555_fw.mp4	0.0	236.6382818222046	1.008502721786499
49	222.42487740516663	movie	1		279	47.0	2.5	/experiments/Knapen_AOT/AOT_stimuli/rescaled_final/0555_fw.mp4	0.0	237.6467845439911	2.4920413494110107
49	222.7920184135437	pulse	1	t		47.0	2.5	/experiments/Knapen_AOT/AOT_stimuli/rescaled_final/0555_fw.mp4	0.0	238.01392555236816	
49	224.39216446876526	pulse	1	t		47.0	2.5	/experiments/Knapen_AOT/AOT_stimuli/rescaled_final/0555_fw.mp4	0.0	239.61407160758972	
49	224.91691875457764	fix_post	2		12	47.0	2.5	/experiments/Knapen_AOT/AOT_stimuli/rescaled_final/0555_fw.mp4	0.0	240.1388258934021	0.1000068187713623
50	225.016925573349	fix_pre	0		118	48.0	2.5	blank	1.0	240.23883271217346	0.9834744930267334
50	225.99233984947205	pulse	0	t		48.0	2.5	blank	1.0	241.2142469882965	
50	226.00040006637573	movie	1		301	48.0	2.5	blank	1.0	241.2223072052002	2.5086653232574463
50	227.59248733520508	pulse	1	t		48.0	2.5	blank	1.0	242.81439447402954	
50	228.50906538963318	fix_post	2		12	48.0	2.5	blank	1.0	243.73097252845764	0.10003399848937988
51	228.60909938812256	fix_pre	0		120	49.0	2.5	/experiments/Knapen_AOT/AOT_stimuli/rescaled_final/1470_fw.mp4	0.0	243.83100652694702	1.0085268020629883
51	229.1928186416626	pulse	0	t		49.0	2.5	/experiments/Knapen_AOT/AOT_stimuli/rescaled_final/1470_fw.mp4	0.0	244.41472578048706	
51	229.61762619018555	movie	1		285	49.0	2.5	/experiments/Knapen_AOT/AOT_stimuli/rescaled_final/1470_fw.mp4	0.0	244.83953332901	2.4920151233673096
51	230.79233312606812	pulse	1	t		49.0	2.5	/experiments/Knapen_AOT/AOT_stimuli/rescaled_final/1470_fw.mp4	0.0	246.01424026489258	
51	232.10964131355286	fix_post	2		12	49.0	2.5	/experiments/Knapen_AOT/AOT_stimuli/rescaled_final/1470_fw.mp4	0.0	247.33154845237732	0.10003352165222168
52	232.20967483520508	fix_pre	0		120	50.0	2.5	/experiments/Knapen_AOT/AOT_stimuli/rescaled_final/0974_rv.mp4	0.0	247.43158197402954	1.0084426403045654
52	232.3932192325592	pulse	0	t		50.0	2.5	/experiments/Knapen_AOT/AOT_stimuli/rescaled_final/0974_rv.mp4	0.0	247.61512637138367	
52	233.21811747550964	movie	1		280	50.0	2.5	/experiments/Knapen_AOT/AOT_stimuli/rescaled_final/0974_rv.mp4	0.0	248.4400246143341	2.492043972015381
52	233.99330401420593	pulse	1	t		50.0	2.5	/experiments/Knapen_AOT/AOT_stimuli/rescaled_final/0974_rv.mp4	0.0	249.2152111530304	
52	235.59373021125793	pulse	1	t		50.0	2.5	/experiments/Knapen_AOT/AOT_stimuli/rescaled_final/0974_rv.mp4	0.0	250.8156373500824	
52	235.71016144752502	fix_post	2		12	50.0	2.5	/experiments/Knapen_AOT/AOT_stimuli/rescaled_final/0974_rv.mp4	0.0	250.9320685863495	0.10004544258117676
53	235.8102068901062	fix_pre	0		120	51.0	2.5	/experiments/Knapen_AOT/AOT_stimuli/rescaled_final/0907_fw.mp4	0.0	251.03211402893066	1.0084691047668457
53	236.81867599487305	movie	1		271	51.0	2.5	/experiments/Knapen_AOT/AOT_stimuli/rescaled_final/0907_fw.mp4	0.0	252.0405831336975	2.4920992851257324
53	237.1926372051239	pulse	1	t		51.0	2.5	/experiments/Knapen_AOT/AOT_stimuli/rescaled_final/0907_fw.mp4	0.0	252.41454434394836	
53	238.7934398651123	pulse	1	t		51.0	2.5	/experiments/Knapen_AOT/AOT_stimuli/rescaled_final/0907_fw.mp4	0.0	254.01534700393677	
53	239.31077527999878	fix_post	2		12	51.0	2.5	/experiments/Knapen_AOT/AOT_stimuli/rescaled_final/0907_fw.mp4	0.0	254.53268241882324	0.09995865821838379
54	239.41073393821716	fix_pre	0		119	52.0	2.5	/experiments/Knapen_AOT/AOT_stimuli/rescaled_final/1731_rv.mp4	0.0	254.63264107704163	1.0001449584960938
54	240.39445972442627	pulse	0	t		52.0	2.5	/experiments/Knapen_AOT/AOT_stimuli/rescaled_final/1731_rv.mp4	0.0	255.61636686325073	
54	240.41087889671326	movie	1		277	52.0	2.5	/experiments/Knapen_AOT/AOT_stimuli/rescaled_final/1731_rv.mp4	0.0	255.63278603553772	2.500365734100342
54	241.99307131767273	pulse	1	t		52.0	2.5	/experiments/Knapen_AOT/AOT_stimuli/rescaled_final/1731_rv.mp4	0.0	257.2149784564972	
54	242.9112446308136	fix_post	2		12	52.0	2.5	/experiments/Knapen_AOT/AOT_stimuli/rescaled_final/1731_rv.mp4	0.0	258.13315176963806	0.10001945495605469
55	243.01126408576965	fix_pre	0		120	53.0	2.5	/experiments/Knapen_AOT/AOT_stimuli/rescaled_final/0355_fw.mp4	0.0	258.2331712245941	1.0085346698760986
55	243.5948987007141	pulse	0	t		53.0	2.5	/experiments/Knapen_AOT/AOT_stimuli/rescaled_final/0355_fw.mp4	0.0	258.8168058395386	
55	244.01979875564575	movie	1		276	53.0	2.5	/experiments/Knapen_AOT/AOT_stimuli/rescaled_final/0355_fw.mp4	0.0	259.2417058944702	2.4919779300689697
55	245.1954002380371	pulse	1	t		53.0	2.5	/experiments/Knapen_AOT/AOT_stimuli/rescaled_final/0355_fw.mp4	0.0	260.4173073768616	
55	246.51177668571472	fix_post	2		12	53.0	2.5	/experiments/Knapen_AOT/AOT_stimuli/rescaled_final/0355_fw.mp4	0.0	261.7336838245392	0.10002541542053223
56	246.61180210113525	fix_pre	0		120	54.0	2.5	/experiments/Knapen_AOT/AOT_stimuli/rescaled_final/0265_rv.mp4	0.0	261.8337092399597	1.008575439453125
56	246.79541897773743	pulse	0	t		54.0	2.5	/experiments/Knapen_AOT/AOT_stimuli/rescaled_final/0265_rv.mp4	0.0	262.0173261165619	
56	247.62037754058838	movie	1		275	54.0	2.5	/experiments/Knapen_AOT/AOT_stimuli/rescaled_final/0265_rv.mp4	0.0	262.84228467941284	2.491964340209961
56	248.3936173915863	pulse	1	t		54.0	2.5	/experiments/Knapen_AOT/AOT_stimuli/rescaled_final/0265_rv.mp4	0.0	263.61552453041077	
56	249.99553108215332	pulse	1	t		54.0	2.5	/experiments/Knapen_AOT/AOT_stimuli/rescaled_final/0265_rv.mp4	0.0	265.2174382209778	
56	250.11234188079834	fix_post	2		12	54.0	2.5	/experiments/Knapen_AOT/AOT_stimuli/rescaled_final/0265_rv.mp4	0.0	265.3342490196228	0.10001206398010254
57	250.21235394477844	fix_pre	0		120	55.0	2.5	blank	1.0	265.4342610836029	1.0001192092895508
57	251.212473154068	movie	1		300	55.0	2.5	blank	1.0	266.43438029289246	2.500577688217163
57	251.5961058139801	pulse	1	t		55.0	2.5	blank	1.0	266.81801295280457	
57	253.19642186164856	pulse	1	t		55.0	2.5	blank	1.0	268.418329000473	
57	253.71305084228516	fix_post	2		12	55.0	2.5	blank	1.0	268.9349579811096	0.0998389720916748
58	253.81288981437683	fix_pre	0		119	56.0	2.5	/experiments/Knapen_AOT/AOT_stimuli/rescaled_final/0478_rv.mp4	0.0	269.0347969532013	1.000138521194458
58	254.79656839370728	pulse	0	t		56.0	2.5	/experiments/Knapen_AOT/AOT_stimuli/rescaled_final/0478_rv.mp4	0.0	270.01847553253174	
58	254.8130283355713	movie	1		281	56.0	2.5	/experiments/Knapen_AOT/AOT_stimuli/rescaled_final/0478_rv.mp4	0.0	270.03493547439575	2.5003786087036133
58	256.395183801651	pulse	1	t		56.0	2.5	/experiments/Knapen_AOT/AOT_stimuli/rescaled_final/0478_rv.mp4	0.0	271.61709094047546	
58	257.3134069442749	fix_post	2		12	56.0	2.5	/experiments/Knapen_AOT/AOT_stimuli/rescaled_final/0478_rv.mp4	0.0	272.53531408309937	0.10003113746643066
59	257.41343808174133	fix_pre	0		120	57.0	2.5	/experiments/Knapen_AOT/AOT_stimuli/rescaled_final/0269_rv.mp4	0.0	272.6353452205658	1.0084731578826904
59	257.9971296787262	pulse	0	t		57.0	2.5	/experiments/Knapen_AOT/AOT_stimuli/rescaled_final/0269_rv.mp4	0.0	273.21903681755066	
59	258.421911239624	movie	1		278	57.0	2.5	/experiments/Knapen_AOT/AOT_stimuli/rescaled_final/0269_rv.mp4	0.0	273.6438183784485	2.4920578002929688
59	259.5957431793213	pulse	1	t		57.0	2.5	/experiments/Knapen_AOT/AOT_stimuli/rescaled_final/0269_rv.mp4	0.0	274.81765031814575	
59	260.913969039917	fix_post	2		12	57.0	2.5	/experiments/Knapen_AOT/AOT_stimuli/rescaled_final/0269_rv.mp4	0.0	276.13587617874146	0.10007524490356445
60	261.01404428482056	fix_pre	0		120	58.0	2.5	/experiments/Knapen_AOT/AOT_stimuli/rescaled_final/1133_rv.mp4	0.0	276.235951423645	1.0084373950958252
60	261.19763827323914	pulse	0	t		58.0	2.5	/experiments/Knapen_AOT/AOT_stimuli/rescaled_final/1133_rv.mp4	0.0	276.4195454120636	
60	262.0224816799164	movie	1		280	58.0	2.5	/experiments/Knapen_AOT/AOT_stimuli/rescaled_final/1133_rv.mp4	0.0	277.24438881874084	2.492039203643799
60	262.79843068122864	pulse	1	t		58.0	2.5	/experiments/Knapen_AOT/AOT_stimuli/rescaled_final/1133_rv.mp4	0.0	278.0203378200531	
60	264.3959529399872	pulse	1	t		58.0	2.5	/experiments/Knapen_AOT/AOT_stimuli/rescaled_final/1133_rv.mp4	0.0	279.61786007881165	
60	264.5145208835602	fix_post	2		12	58.0	2.5	/experiments/Knapen_AOT/AOT_stimuli/rescaled_final/1133_rv.mp4	0.0	279.73642802238464	0.09998464584350586
61	264.6145055294037	fix_pre	0		120	59.0	2.5	/experiments/Knapen_AOT/AOT_stimuli/rescaled_final/0130_rv.mp4	0.0	279.83641266822815	1.0086090564727783
61	265.62311458587646	movie	1		274	59.0	2.5	/experiments/Knapen_AOT/AOT_stimuli/rescaled_final/0130_rv.mp4	0.0	280.8450217247009	2.4919111728668213
61	265.9982604980469	pulse	1	t		59.0	2.5	/experiments/Knapen_AOT/AOT_stimuli/rescaled_final/0130_rv.mp4	0.0	281.22016763687134	
61	267.5961537361145	pulse	1	t		59.0	2.5	/experiments/Knapen_AOT/AOT_stimuli/rescaled_final/0130_rv.mp4	0.0	282.81806087493896	
61	268.1150257587433	fix_post	2		12	59.0	2.5	/experiments/Knapen_AOT/AOT_stimuli/rescaled_final/0130_rv.mp4	0.0	283.33693289756775	0.1000370979309082
62	268.2150628566742	fix_pre	0		119	60.0	2.5	/experiments/Knapen_AOT/AOT_stimuli/rescaled_final/1302_fw.mp4	0.0	283.43696999549866	1.000195026397705
62	269.19871759414673	pulse	0	t		60.0	2.5	/experiments/Knapen_AOT/AOT_stimuli/rescaled_final/1302_fw.mp4	0.0	284.4206247329712	
62	269.2152578830719	movie	1		269	60.0	2.5	/experiments/Knapen_AOT/AOT_stimuli/rescaled_final/1302_fw.mp4	0.0	284.43716502189636	2.5003623962402344
62	270.79798126220703	pulse	1	t		60.0	2.5	/experiments/Knapen_AOT/AOT_stimuli/rescaled_final/1302_fw.mp4	0.0	286.0198884010315	
62	271.71562027931213	fix_post	2		12	60.0	2.5	/experiments/Knapen_AOT/AOT_stimuli/rescaled_final/1302_fw.mp4	0.0	286.9375274181366	0.09997773170471191
63	271.81559801101685	fix_pre	0		120	61.0	2.5	/experiments/Knapen_AOT/AOT_stimuli/rescaled_final/0408_rv.mp4	0.0	287.0375051498413	1.0084831714630127
63	272.39156007766724	pulse	0	t		61.0	2.5	/experiments/Knapen_AOT/AOT_stimuli/rescaled_final/0408_rv.mp4	0.0	287.6134672164917	
63	272.82408118247986	movie	1		276	61.0	2.5	/experiments/Knapen_AOT/AOT_stimuli/rescaled_final/0408_rv.mp4	0.0	288.0459883213043	2.4920363426208496
63	273.99157309532166	pulse	1	t		61.0	2.5	/experiments/Knapen_AOT/AOT_stimuli/rescaled_final/0408_rv.mp4	0.0	289.2134802341461	
63	275.3161175251007	fix_post	2		12	61.0	2.5	/experiments/Knapen_AOT/AOT_stimuli/rescaled_final/0408_rv.mp4	0.0	290.53802466392517	0.10001707077026367
64	275.416134595871	fix_pre	0		120	62.0	2.5	blank	1.0	290.63804173469543	1.0001654624938965
64	275.59144949913025	pulse	0	t		62.0	2.5	blank	1.0	290.8133566379547	
64	276.41630005836487	movie	1		300	62.0	2.5	blank	1.0	291.63820719718933	2.5003886222839355
64	277.1916711330414	pulse	1	t		62.0	2.5	blank	1.0	292.41357827186584	
64	278.79197812080383	pulse	1	t		62.0	2.5	blank	1.0	294.0138852596283	
64	278.9166886806488	fix_post	2		12	62.0	2.5	blank	1.0	294.13859581947327	0.10004997253417969
65	279.016738653183	fix_pre	0		120	63.0	2.5	/experiments/Knapen_AOT/AOT_stimuli/rescaled_final/1800_fw.mp4	0.0	294.23864579200745	1.0085251331329346
65	280.0252637863159	movie	1		268	63.0	2.5	/experiments/Knapen_AOT/AOT_stimuli/rescaled_final/1800_fw.mp4	0.0	295.2471709251404	2.491939067840576
65	280.391569852829	pulse	1	t		63.0	2.5	/experiments/Knapen_AOT/AOT_stimuli/rescaled_final/1800_fw.mp4	0.0	295.61347699165344	
65	281.99234533309937	pulse	1	t		63.0	2.5	/experiments/Knapen_AOT/AOT_stimuli/rescaled_final/1800_fw.mp4	0.0	297.2142524719238	
65	282.5172028541565	fix_post	2		12	63.0	2.5	/experiments/Knapen_AOT/AOT_stimuli/rescaled_final/1800_fw.mp4	0.0	297.73910999298096	0.10003805160522461
66	282.6172409057617	fix_pre	0		118	64.0	2.5	/experiments/Knapen_AOT/AOT_stimuli/rescaled_final/0749_fw.mp4	0.0	297.8391480445862	0.9918551445007324
66	283.59260153770447	pulse	0	t		64.0	2.5	/experiments/Knapen_AOT/AOT_stimuli/rescaled_final/0749_fw.mp4	0.0	298.81450867652893	
66	283.60909605026245	movie	1		288	64.0	2.5	/experiments/Knapen_AOT/AOT_stimuli/rescaled_final/0749_fw.mp4	0.0	298.8310031890869	2.500319480895996
66	285.1930282115936	pulse	1	t		64.0	2.5	/experiments/Knapen_AOT/AOT_stimuli/rescaled_final/0749_fw.mp4	0.0	300.4149353504181	
66	286.10941553115845	fix_post	2		12	64.0	2.5	/experiments/Knapen_AOT/AOT_stimuli/rescaled_final/0749_fw.mp4	0.0	301.3313226699829	0.10001730918884277
67	286.2094328403473	fix_pre	0		120	65.0	2.5	/experiments/Knapen_AOT/AOT_stimuli/rescaled_final/0437_fw.mp4	0.0	301.43133997917175	1.0085163116455078
67	286.7930624485016	pulse	0	t		65.0	2.5	/experiments/Knapen_AOT/AOT_stimuli/rescaled_final/0437_fw.mp4	0.0	302.01496958732605	
67	287.2179491519928	movie	1		271	65.0	2.5	/experiments/Knapen_AOT/AOT_stimuli/rescaled_final/0437_fw.mp4	0.0	302.43985629081726	2.4920151233673096
67	288.39186668395996	pulse	1	t		65.0	2.5	/experiments/Knapen_AOT/AOT_stimuli/rescaled_final/0437_fw.mp4	0.0	303.6137738227844	
67	289.7099642753601	fix_post	2		12	65.0	2.5	/experiments/Knapen_AOT/AOT_stimuli/rescaled_final/0437_fw.mp4	0.0	304.93187141418457	0.10001325607299805
68	289.8099775314331	fix_pre	0		120	66.0	2.5	/experiments/Knapen_AOT/AOT_stimuli/rescaled_final/0420_fw.mp4	0.0	305.03188467025757	1.008491039276123
68	289.99361181259155	pulse	0	t		66.0	2.5	/experiments/Knapen_AOT/AOT_stimuli/rescaled_final/0420_fw.mp4	0.0	305.215518951416	
68	290.81846857070923	movie	1		273	66.0	2.5	/experiments/Knapen_AOT/AOT_stimuli/rescaled_final/0420_fw.mp4	0.0	306.0403757095337	2.4920363426208496
68	291.5915551185608	pulse	1	t		66.0	2.5	/experiments/Knapen_AOT/AOT_stimuli/rescaled_final/0420_fw.mp4	0.0	306.81346225738525	
68	293.19201135635376	pulse	1	t		66.0	2.5	/experiments/Knapen_AOT/AOT_stimuli/rescaled_final/0420_fw.mp4	0.0	308.4139184951782	
68	293.3105049133301	fix_post	2		12	66.0	2.5	/experiments/Knapen_AOT/AOT_stimuli/rescaled_final/0420_fw.mp4	0.0	308.53241205215454	0.10004210472106934
69	293.41054701805115	fix_pre	0		120	67.0	2.5	/experiments/Knapen_AOT/AOT_stimuli/rescaled_final/1997_rv.mp4	0.0	308.6324541568756	1.0084521770477295
69	294.4189991950989	movie	1		278	67.0	2.5	/experiments/Knapen_AOT/AOT_stimuli/rescaled_final/1997_rv.mp4	0.0	309.64090633392334	2.4920294284820557
69	294.7924470901489	pulse	1	t		67.0	2.5	/experiments/Knapen_AOT/AOT_stimuli/rescaled_final/1997_rv.mp4	0.0	310.0143542289734	
69	296.39243626594543	pulse	1	t		67.0	2.5	/experiments/Knapen_AOT/AOT_stimuli/rescaled_final/1997_rv.mp4	0.0	311.6143434047699	
69	296.91102862358093	fix_post	2		12	67.0	2.5	/experiments/Knapen_AOT/AOT_stimuli/rescaled_final/1997_rv.mp4	0.0	312.1329357624054	0.10001111030578613
70	297.0110397338867	fix_pre	0		119	68.0	2.5	/experiments/Knapen_AOT/AOT_stimuli/rescaled_final/1348_fw.mp4	0.0	312.2329468727112	1.0086216926574707
70	297.9948081970215	pulse	0	t		68.0	2.5	/experiments/Knapen_AOT/AOT_stimuli/rescaled_final/1348_fw.mp4	0.0	313.21671533584595	
70	298.0196614265442	movie	1		269	68.0	2.5	/experiments/Knapen_AOT/AOT_stimuli/rescaled_final/1348_fw.mp4	0.0	313.24156856536865	2.4919261932373047
70	299.5948922634125	pulse	1	t		68.0	2.5	/experiments/Knapen_AOT/AOT_stimuli/rescaled_final/1348_fw.mp4	0.0	314.81679940223694	
70	300.5115876197815	fix_post	2		12	68.0	2.5	/experiments/Knapen_AOT/AOT_stimuli/rescaled_final/1348_fw.mp4	0.0	315.73349475860596	0.09998488426208496
71	300.6115725040436	fix_pre	0		120	69.0	2.5	/experiments/Knapen_AOT/AOT_stimuli/rescaled_final/0637_rv.mp4	0.0	315.83347964286804	1.0085420608520508
71	301.1952109336853	pulse	0	t		69.0	2.5	/experiments/Knapen_AOT/AOT_stimuli/rescaled_final/0637_rv.mp4	0.0	316.41711807250977	
71	301.62011456489563	movie	1		283	69.0	2.5	/experiments/Knapen_AOT/AOT_stimuli/rescaled_final/0637_rv.mp4	0.0	316.8420217037201	2.4920520782470703
71	302.7939667701721	pulse	1	t		69.0	2.5	/experiments/Knapen_AOT/AOT_stimuli/rescaled_final/0637_rv.mp4	0.0	318.0158739089966	
71	304.1121666431427	fix_post	2		12	69.0	2.5	/experiments/Knapen_AOT/AOT_stimuli/rescaled_final/0637_rv.mp4	0.0	319.33407378196716	0.09995055198669434
72	304.2121171951294	fix_pre	0		120	70.0	2.5	blank	1.0	319.43402433395386	1.0001707077026367
72	304.3957824707031	pulse	0	t		70.0	2.5	blank	1.0	319.6176896095276	
72	305.21228790283203	movie	1		299	70.0	2.5	blank	1.0	320.4341950416565	2.500389337539673
72	305.9964346885681	pulse	1	t		70.0	2.5	blank	1.0	321.2183418273926	
72	307.5964105129242	pulse	1	t		70.0	2.5	blank	1.0	322.81831765174866	
72	307.7126772403717	fix_post	2		12	70.0	2.5	blank	1.0	322.93458437919617	0.0999910831451416
73	307.81266832351685	fix_pre	0		120	71.0	2.5	/experiments/Knapen_AOT/AOT_stimuli/rescaled_final/0455_rv.mp4	0.0	323.0345754623413	1.008491039276123
73	308.82115936279297	movie	1		266	71.0	2.5	/experiments/Knapen_AOT/AOT_stimuli/rescaled_final/0455_rv.mp4	0.0	324.04306650161743	2.492039918899536
73	309.1948175430298	pulse	1	t		71.0	2.5	/experiments/Knapen_AOT/AOT_stimuli/rescaled_final/0455_rv.mp4	0.0	324.41672468185425	
73	310.79607796669006	pulse	1	t		71.0	2.5	/experiments/Knapen_AOT/AOT_stimuli/rescaled_final/0455_rv.mp4	0.0	326.0179851055145	
73	311.3131992816925	fix_post	2		12	71.0	2.5	/experiments/Knapen_AOT/AOT_stimuli/rescaled_final/0455_rv.mp4	0.0	326.53510642051697	0.10007858276367188
74	311.4132778644562	fix_pre	0		119	72.0	2.5	/experiments/Knapen_AOT/AOT_stimuli/rescaled_final/0966_rv.mp4	0.0	326.63518500328064	1.0086727142333984
74	312.3970341682434	pulse	0	t		72.0	2.5	/experiments/Knapen_AOT/AOT_stimuli/rescaled_final/0966_rv.mp4	0.0	327.61894130706787	
74	312.4219505786896	movie	1		286	72.0	2.5	/experiments/Knapen_AOT/AOT_stimuli/rescaled_final/0966_rv.mp4	0.0	327.64385771751404	2.491807699203491
74	313.99703645706177	pulse	1	t		72.0	2.5	/experiments/Knapen_AOT/AOT_stimuli/rescaled_final/0966_rv.mp4	0.0	329.21894359588623	
74	314.91375827789307	fix_post	2		12	72.0	2.5	/experiments/Knapen_AOT/AOT_stimuli/rescaled_final/0966_rv.mp4	0.0	330.13566541671753	0.10000443458557129
75	315.01376271247864	fix_pre	0		120	73.0	2.5	/experiments/Knapen_AOT/AOT_stimuli/rescaled_final/0747_rv.mp4	0.0	330.2356698513031	1.0085673332214355
75	315.59737515449524	pulse	0	t		73.0	2.5	/experiments/Knapen_AOT/AOT_stimuli/rescaled_final/0747_rv.mp4	0.0	330.8192822933197	
75	316.0223300457001	movie	1		282	73.0	2.5	/experiments/Knapen_AOT/AOT_stimuli/rescaled_final/0747_rv.mp4	0.0	331.24423718452454	2.491974353790283
75	317.1959993839264	pulse	1	t		73.0	2.5	/experiments/Knapen_AOT/AOT_stimuli/rescaled_final/0747_rv.mp4	0.0	332.41790652275085	
75	318.51430439949036	fix_post	2		12	73.0	2.5	/experiments/Knapen_AOT/AOT_stimuli/rescaled_final/0747_rv.mp4	0.0	333.7362115383148	0.10006880760192871
76	318.6143732070923	fix_pre	0		120	74.0	2.5	/experiments/Knapen_AOT/AOT_stimuli/rescaled_final/2118_fw.mp4	0.0	333.83628034591675	1.0084450244903564
76	318.7978856563568	pulse	0	t		74.0	2.5	/experiments/Knapen_AOT/AOT_stimuli/rescaled_final/2118_fw.mp4	0.0	334.0197927951813	
76	319.62281823158264	movie	1		287	74.0	2.5	/experiments/Knapen_AOT/AOT_stimuli/rescaled_final/2118_fw.mp4	0.0	334.8447253704071	2.491990804672241
76	320.3983736038208	pulse	1	t		74.0	2.5	/experiments/Knapen_AOT/AOT_stimuli/rescaled_final/2118_fw.mp4	0.0	335.62028074264526	
76	321.996568441391	pulse	1	t		74.0	2.5	/experiments/Knapen_AOT/AOT_stimuli/rescaled_final/2118_fw.mp4	0.0	337.21847558021545	
76	322.1148090362549	fix_post	2		12	74.0	2.5	/experiments/Knapen_AOT/AOT_stimuli/rescaled_final/2118_fw.mp4	0.0	337.33671617507935	0.1000370979309082
77	322.2148461341858	fix_pre	0		120	75.0	2.5	/experiments/Knapen_AOT/AOT_stimuli/rescaled_final/1950_rv.mp4	0.0	337.43675327301025	1.008486032485962
77	323.22333216667175	movie	1		284	75.0	2.5	/experiments/Knapen_AOT/AOT_stimuli/rescaled_final/1950_rv.mp4	0.0	338.4452393054962	2.492079734802246
77	323.5973584651947	pulse	1	t		75.0	2.5	/experiments/Knapen_AOT/AOT_stimuli/rescaled_final/1950_rv.mp4	0.0	338.81926560401917	
77	325.1971185207367	pulse	1	t		75.0	2.5	/experiments/Knapen_AOT/AOT_stimuli/rescaled_final/1950_rv.mp4	0.0	340.41902565956116	
77	325.715411901474	fix_post	2		12	75.0	2.5	/experiments/Knapen_AOT/AOT_stimuli/rescaled_final/1950_rv.mp4	0.0	340.93731904029846	0.09996223449707031
78	325.81537413597107	fix_pre	0		119	76.0	2.5	blank	1.0	341.03728127479553	0.9917588233947754
78	326.7990686893463	pulse	0	t		76.0	2.5	blank	1.0	342.0209758281708	
78	326.80713295936584	movie	1		301	76.0	2.5	blank	1.0	342.0290400981903	2.5087859630584717
78	328.399290561676	pulse	1	t		76.0	2.5	blank	1.0	343.6211977005005	
78	329.3159189224243	fix_post	2		12	76.0	2.5	blank	1.0	344.5378260612488	0.10002851486206055
79	329.4159474372864	fix_pre	0		120	77.0	2.5	/experiments/Knapen_AOT/AOT_stimuli/rescaled_final/0539_rv.mp4	0.0	344.63785457611084	1.00850248336792
79	329.999623298645	pulse	0	t		77.0	2.5	/experiments/Knapen_AOT/AOT_stimuli/rescaled_final/0539_rv.mp4	0.0	345.2215304374695	
79	330.4244499206543	movie	1		283	77.0	2.5	/experiments/Knapen_AOT/AOT_stimuli/rescaled_final/0539_rv.mp4	0.0	345.64635705947876	2.4919936656951904
79	331.5981614589691	pulse	1	t		77.0	2.5	/experiments/Knapen_AOT/AOT_stimuli/rescaled_final/0539_rv.mp4	0.0	346.8200685977936	
79	332.9164435863495	fix_post	2		12	77.0	2.5	/experiments/Knapen_AOT/AOT_stimuli/rescaled_final/0539_rv.mp4	0.0	348.13835072517395	0.10001206398010254
80	333.0164556503296	fix_pre	0		120	78.0	2.5	/experiments/Knapen_AOT/AOT_stimuli/rescaled_final/2173_rv.mp4	0.0	348.23836278915405	1.0085115432739258
80	333.19232654571533	pulse	0	t		78.0	2.5	/experiments/Knapen_AOT/AOT_stimuli/rescaled_final/2173_rv.mp4	0.0	348.4142336845398	
80	334.0249671936035	movie	1		280	78.0	2.5	/experiments/Knapen_AOT/AOT_stimuli/rescaled_final/2173_rv.mp4	0.0	349.246874332428	2.492032766342163
80	334.79199171066284	pulse	1	t		78.0	2.5	/experiments/Knapen_AOT/AOT_stimuli/rescaled_final/2173_rv.mp4	0.0	350.0138988494873	
80	336.392151594162	pulse	1	t		78.0	2.5	/experiments/Knapen_AOT/AOT_stimuli/rescaled_final/2173_rv.mp4	0.0	351.61405873298645	
80	336.5169999599457	fix_post	2		12	78.0	2.5	/experiments/Knapen_AOT/AOT_stimuli/rescaled_final/2173_rv.mp4	0.0	351.73890709877014	0.10006284713745117
81	336.61706280708313	fix_pre	0		120	79.0	2.5	/experiments/Knapen_AOT/AOT_stimuli/rescaled_final/0852_fw.mp4	0.0	351.8389699459076	1.0084302425384521
81	337.6254930496216	movie	1		281	79.0	2.5	/experiments/Knapen_AOT/AOT_stimuli/rescaled_final/0852_fw.mp4	0.0	352.84740018844604	2.4920239448547363
81	337.99300503730774	pulse	1	t		79.0	2.5	/experiments/Knapen_AOT/AOT_stimuli/rescaled_final/0852_fw.mp4	0.0	353.2149121761322	
81	339.5928330421448	pulse	1	t		79.0	2.5	/experiments/Knapen_AOT/AOT_stimuli/rescaled_final/0852_fw.mp4	0.0	354.81474018096924	
81	340.1175169944763	fix_post	2		12	79.0	2.5	/experiments/Knapen_AOT/AOT_stimuli/rescaled_final/0852_fw.mp4	0.0	355.3394241333008	0.10002517700195312
82	340.21754217147827	fix_pre	0		118	80.0	2.5	/experiments/Knapen_AOT/AOT_stimuli/rescaled_final/0593_rv.mp4	0.0	355.43944931030273	0.9918899536132812
82	341.1929612159729	pulse	0	t		80.0	2.5	/experiments/Knapen_AOT/AOT_stimuli/rescaled_final/0593_rv.mp4	0.0	356.41486835479736	
82	341.20943212509155	movie	1		286	80.0	2.5	/experiments/Knapen_AOT/AOT_stimuli/rescaled_final/0593_rv.mp4	0.0	356.431339263916	2.500305414199829
82	342.7917251586914	pulse	1	t		80.0	2.5	/experiments/Knapen_AOT/AOT_stimuli/rescaled_final/0593_rv.mp4	0.0	358.01363229751587	
82	343.7097375392914	fix_post	2		12	80.0	2.5	/experiments/Knapen_AOT/AOT_stimuli/rescaled_final/0593_rv.mp4	0.0	358.93164467811584	0.10003471374511719
83	343.8097722530365	fix_pre	0		120	81.0	2.5	/experiments/Knapen_AOT/AOT_stimuli/rescaled_final/1458_fw.mp4	0.0	359.03167939186096	1.0084664821624756
83	344.3933780193329	pulse	0	t		81.0	2.5	/experiments/Knapen_AOT/AOT_stimuli/rescaled_final/1458_fw.mp4	0.0	359.61528515815735	
83	344.818238735199	movie	1		274	81.0	2.5	/experiments/Knapen_AOT/AOT_stimuli/rescaled_final/1458_fw.mp4	0.0	360.04014587402344	2.492056369781494
83	345.9938519001007	pulse	1	t		81.0	2.5	/experiments/Knapen_AOT/AOT_stimuli/rescaled_final/1458_fw.mp4	0.0	361.21575903892517	
83	347.31029510498047	fix_post	2		12	81.0	2.5	/experiments/Knapen_AOT/AOT_stimuli/rescaled_final/1458_fw.mp4	0.0	362.53220224380493	0.10002422332763672
84	347.4103193283081	fix_pre	0		120	82.0	2.5	blank	1.0	362.63222646713257	1.000119686126709
84	347.5941207408905	pulse	0	t		82.0	2.5	blank	1.0	362.81602787971497	
84	348.4104390144348	movie	1		300	82.0	2.5	blank	1.0	363.6323461532593	2.500481367111206
84	349.19429659843445	pulse	1	t		82.0	2.5	blank	1.0	364.4162037372589	
84	350.7944703102112	pulse	1	t		82.0	2.5	blank	1.0	366.01637744903564	
84	350.910920381546	fix_post	2		12	82.0	2.5	blank	1.0	366.1328275203705	0.09989118576049805
85	351.0108115673065	fix_pre	0		120	83.0	2.5	/experiments/Knapen_AOT/AOT_stimuli/rescaled_final/1281_fw.mp4	0.0	366.232718706131	1.0085198879241943
85	352.0193314552307	movie	1		279	83.0	2.5	/experiments/Knapen_AOT/AOT_stimuli/rescaled_final/1281_fw.mp4	0.0	367.2412385940552	2.49202561378479
85	352.39467573165894	pulse	1	t		83.0	2.5	/experiments/Knapen_AOT/AOT_stimuli/rescaled_final/1281_fw.mp4	0.0	367.6165828704834	
85	353.99322628974915	pulse	1	t		83.0	2.5	/experiments/Knapen_AOT/AOT_stimuli/rescaled_final/1281_fw.mp4	0.0	369.2151334285736	
85	354.5113570690155	fix_post	2		12	83.0	2.5	/experiments/Knapen_AOT/AOT_stimuli/rescaled_final/1281_fw.mp4	0.0	369.73326420783997	0.10003113746643066
87	354.61138820648193	stim	0		1715					369.8332953453064	14.293824911117554
87	355.59516859054565	pulse	0	t						370.8170757293701	
87	357.1953020095825	pulse	0	t						372.417209148407	
87	358.7955324649811	pulse	0	t						374.01743960380554	
87	360.3957395553589	pulse	0	t						375.61764669418335	
87	361.99608087539673	pulse	0	t						377.2179880142212	
87	363.59636640548706	pulse	0	t						378.8182735443115	
87	365.19683742523193	pulse	0	t						380.4187445640564	
87	366.7967596054077	pulse	0	t						382.0186667442322	
87	368.3970956802368	pulse	0	t						383.6190028190613	
