trial_nr	onset	event_type	phase	response	nr_frames	movie_index	movie_duration	movie_file	blank	onset_abs	duration
0	0.20837092399597168	stim	0		1					45.27542591094971	0.008196115493774414
0	0.20291996002197266	response	0	space						45.26997494697571	
1	0.2165670394897461	stim	0		4700					45.28362202644348	39.185062885284424
1	39.38663196563721	pulse	0	t						84.45368695259094	
1	39.40162992477417	stim	1		1715					84.4686849117279	14.297964096069336
1	40.981086015701294	pulse	1	t						86.04814100265503	
1	42.581510066986084	pulse	1	t						87.64856505393982	
1	44.18159604072571	pulse	1	t						89.24865102767944	
1	45.78190898895264	pulse	1	t						90.84896397590637	
1	47.38208198547363	pulse	1	t						92.44913697242737	
1	48.98243308067322	pulse	1	t						94.04948806762695	
1	50.58251404762268	pulse	1	t						95.64956903457642	
1	52.18272304534912	pulse	1	t						97.24977803230286	
2	53.699594020843506	fix_pre	0		11	0.0	2.5	/experiments/knapen_AOT/AOT_stimuli/rescaled_final/0541_rv.mp4	0.0	98.76664900779724	0.09163308143615723
2	53.783068895339966	pulse	0	t		0.0	2.5	/experiments/knapen_AOT/AOT_stimuli/rescaled_final/0541_rv.mp4	0.0	98.8501238822937	
2	53.79122710227966	movie	1		244	0.0	2.5	/experiments/knapen_AOT/AOT_stimuli/rescaled_final/0541_rv.mp4	0.0	98.8582820892334	2.5086889266967773
2	55.38387703895569	pulse	1	t		0.0	2.5	/experiments/knapen_AOT/AOT_stimuli/rescaled_final/0541_rv.mp4	0.0	100.45093202590942	
2	56.29991602897644	fix_post	2		12	0.0	2.5	/experiments/knapen_AOT/AOT_stimuli/rescaled_final/0541_rv.mp4	0.0	101.36697101593018	0.10001492500305176
3	56.39993095397949	fix_pre	0		120	1.0	2.5	/experiments/knapen_AOT/AOT_stimuli/rescaled_final/2059_fw.mp4	0.0	101.46698594093323	1.0001270771026611
3	56.98359489440918	pulse	0	t		1.0	2.5	/experiments/knapen_AOT/AOT_stimuli/rescaled_final/2059_fw.mp4	0.0	102.05064988136292	
3	57.40005803108215	movie	1		243	1.0	2.5	/experiments/knapen_AOT/AOT_stimuli/rescaled_final/2059_fw.mp4	0.0	102.46711301803589	2.5005300045013428
3	58.583900928497314	pulse	1	t		1.0	2.5	/experiments/knapen_AOT/AOT_stimuli/rescaled_final/2059_fw.mp4	0.0	103.65095591545105	
3	59.900588035583496	fix_post	2		12	1.0	2.5	/experiments/knapen_AOT/AOT_stimuli/rescaled_final/2059_fw.mp4	0.0	104.96764302253723	0.09989285469055176
4	60.00048089027405	fix_pre	0		120	2.0	2.5	/experiments/knapen_AOT/AOT_stimuli/rescaled_final/1722_rv.mp4	0.0	105.06753587722778	1.000176191329956
4	60.18402290344238	pulse	0	t		2.0	2.5	/experiments/knapen_AOT/AOT_stimuli/rescaled_final/1722_rv.mp4	0.0	105.25107789039612	
4	61.000657081604004	movie	1		242	2.0	2.5	/experiments/knapen_AOT/AOT_stimuli/rescaled_final/1722_rv.mp4	0.0	106.06771206855774	2.50034499168396
4	61.77676510810852	pulse	1	t		2.0	2.5	/experiments/knapen_AOT/AOT_stimuli/rescaled_final/1722_rv.mp4	0.0	106.84382009506226	
4	63.38415288925171	pulse	1	t		2.0	2.5	/experiments/knapen_AOT/AOT_stimuli/rescaled_final/1722_rv.mp4	0.0	108.45120787620544	
4	63.501002073287964	fix_post	2		12	2.0	2.5	/experiments/knapen_AOT/AOT_stimuli/rescaled_final/1722_rv.mp4	0.0	108.5680570602417	0.09996294975280762
5	63.60096502304077	fix_pre	0		120	3.0	2.5	/experiments/knapen_AOT/AOT_stimuli/rescaled_final/0144_rv.mp4	0.0	108.6680200099945	1.0001780986785889
5	64.60114312171936	movie	1		241	3.0	2.5	/experiments/knapen_AOT/AOT_stimuli/rescaled_final/0144_rv.mp4	0.0	109.6681981086731	2.492191791534424
5	64.9853401184082	pulse	1	t		3.0	2.5	/experiments/knapen_AOT/AOT_stimuli/rescaled_final/0144_rv.mp4	0.0	110.05239510536194	
5	66.57685804367065	pulse	1	t		3.0	2.5	/experiments/knapen_AOT/AOT_stimuli/rescaled_final/0144_rv.mp4	0.0	111.64391303062439	
5	67.09333491325378	fix_post	2		12	3.0	2.5	/experiments/knapen_AOT/AOT_stimuli/rescaled_final/0144_rv.mp4	0.0	112.16038990020752	0.09985709190368652
6	67.19319200515747	fix_pre	0		119	4.0	2.5	/experiments/knapen_AOT/AOT_stimuli/rescaled_final/0064_rv.mp4	0.0	112.2602469921112	0.99186110496521
6	68.17690706253052	pulse	0	t		4.0	2.5	/experiments/knapen_AOT/AOT_stimuli/rescaled_final/0064_rv.mp4	0.0	113.24396204948425	
6	68.18505311012268	movie	1		245	4.0	2.5	/experiments/knapen_AOT/AOT_stimuli/rescaled_final/0064_rv.mp4	0.0	113.25210809707642	2.5087108612060547
6	69.77748799324036	pulse	1	t		4.0	2.5	/experiments/knapen_AOT/AOT_stimuli/rescaled_final/0064_rv.mp4	0.0	114.84454298019409	
6	70.69376397132874	fix_post	2		12	4.0	2.5	/experiments/knapen_AOT/AOT_stimuli/rescaled_final/0064_rv.mp4	0.0	115.76081895828247	0.09998393058776855
7	70.7937479019165	fix_pre	0		120	5.0	2.5	/experiments/knapen_AOT/AOT_stimuli/rescaled_final/1808_fw.mp4	0.0	115.86080288887024	1.000148057937622
7	71.37728309631348	pulse	0	t		5.0	2.5	/experiments/knapen_AOT/AOT_stimuli/rescaled_final/1808_fw.mp4	0.0	116.44433808326721	
7	71.79389595985413	movie	1		242	5.0	2.5	/experiments/knapen_AOT/AOT_stimuli/rescaled_final/1808_fw.mp4	0.0	116.86095094680786	2.5003881454467773
7	72.9777500629425	pulse	1	t		5.0	2.5	/experiments/knapen_AOT/AOT_stimuli/rescaled_final/1808_fw.mp4	0.0	118.04480504989624	
7	74.2942841053009	fix_post	2		12	5.0	2.5	/experiments/knapen_AOT/AOT_stimuli/rescaled_final/1808_fw.mp4	0.0	119.36133909225464	0.09996891021728516
8	74.39425301551819	fix_pre	0		120	6.0	2.5	/experiments/knapen_AOT/AOT_stimuli/rescaled_final/1683_rv.mp4	0.0	119.46130800247192	1.0001990795135498
8	74.57801294326782	pulse	0	t		6.0	2.5	/experiments/knapen_AOT/AOT_stimuli/rescaled_final/1683_rv.mp4	0.0	119.64506793022156	
8	75.39445209503174	movie	1		242	6.0	2.5	/experiments/knapen_AOT/AOT_stimuli/rescaled_final/1683_rv.mp4	0.0	120.46150708198547	2.5004658699035645
8	76.17794108390808	pulse	1	t		6.0	2.5	/experiments/knapen_AOT/AOT_stimuli/rescaled_final/1683_rv.mp4	0.0	121.24499607086182	
8	77.77804803848267	pulse	1	t		6.0	2.5	/experiments/knapen_AOT/AOT_stimuli/rescaled_final/1683_rv.mp4	0.0	122.8451030254364	
8	77.8949179649353	fix_post	2		12	6.0	2.5	/experiments/knapen_AOT/AOT_stimuli/rescaled_final/1683_rv.mp4	0.0	122.96197295188904	0.09990811347961426
9	77.99482607841492	fix_pre	0		120	7.0	2.5	blank	1.0	123.06188106536865	1.0001318454742432
9	78.99495792388916	movie	1		299	7.0	2.5	blank	1.0	124.0620129108429	2.4920101165771484
9	79.3785150051117	pulse	1	t		7.0	2.5	blank	1.0	124.44556999206543	
9	80.97884106636047	pulse	1	t		7.0	2.5	blank	1.0	126.04589605331421	
9	81.48696804046631	fix_post	2		12	7.0	2.5	blank	1.0	126.55402302742004	0.10004901885986328
10	81.58701705932617	fix_pre	0		120	8.0	2.5	/experiments/knapen_AOT/AOT_stimuli/rescaled_final/0545_rv.mp4	0.0	126.65407204627991	1.0001559257507324
10	82.57898712158203	pulse	0	t		8.0	2.5	/experiments/knapen_AOT/AOT_stimuli/rescaled_final/0545_rv.mp4	0.0	127.64604210853577	
10	82.5871729850769	movie	1		244	8.0	2.5	/experiments/knapen_AOT/AOT_stimuli/rescaled_final/0545_rv.mp4	0.0	127.65422797203064	2.5087149143218994
10	84.17986106872559	pulse	1	t		8.0	2.5	/experiments/knapen_AOT/AOT_stimuli/rescaled_final/0545_rv.mp4	0.0	129.24691605567932	
10	85.0958878993988	fix_post	2		12	8.0	2.5	/experiments/knapen_AOT/AOT_stimuli/rescaled_final/0545_rv.mp4	0.0	130.16294288635254	0.10000109672546387
11	85.19588899612427	fix_pre	0		117	9.0	2.5	/experiments/knapen_AOT/AOT_stimuli/rescaled_final/0098_fw.mp4	0.0	130.262943983078	1.0001161098480225
11	85.77957510948181	pulse	0	t		9.0	2.5	/experiments/knapen_AOT/AOT_stimuli/rescaled_final/0098_fw.mp4	0.0	130.84663009643555	
11	86.19600510597229	movie	1		244	9.0	2.5	/experiments/knapen_AOT/AOT_stimuli/rescaled_final/0098_fw.mp4	0.0	131.26306009292603	2.500419855117798
11	87.37978506088257	pulse	1	t		9.0	2.5	/experiments/knapen_AOT/AOT_stimuli/rescaled_final/0098_fw.mp4	0.0	132.4468400478363	
11	88.69642496109009	fix_post	2		12	9.0	2.5	/experiments/knapen_AOT/AOT_stimuli/rescaled_final/0098_fw.mp4	0.0	133.76347994804382	0.1000370979309082
12	88.796462059021	fix_pre	0		120	10.0	2.5	/experiments/knapen_AOT/AOT_stimuli/rescaled_final/0073_rv.mp4	0.0	133.86351704597473	1.0001299381256104
12	88.98001599311829	pulse	0	t		10.0	2.5	/experiments/knapen_AOT/AOT_stimuli/rescaled_final/0073_rv.mp4	0.0	134.04707098007202	
12	89.7965919971466	movie	1		242	10.0	2.5	/experiments/knapen_AOT/AOT_stimuli/rescaled_final/0073_rv.mp4	0.0	134.86364698410034	2.500494956970215
12	90.580157995224	pulse	1	t		10.0	2.5	/experiments/knapen_AOT/AOT_stimuli/rescaled_final/0073_rv.mp4	0.0	135.64721298217773	
12	92.18031811714172	pulse	1	t		10.0	2.5	/experiments/knapen_AOT/AOT_stimuli/rescaled_final/0073_rv.mp4	0.0	137.24737310409546	
12	92.29708695411682	fix_post	2		12	10.0	2.5	/experiments/knapen_AOT/AOT_stimuli/rescaled_final/0073_rv.mp4	0.0	137.36414194107056	0.09988808631896973
13	92.39697504043579	fix_pre	0		119	11.0	2.5	/experiments/knapen_AOT/AOT_stimuli/rescaled_final/2013_rv.mp4	0.0	137.46403002738953	0.9917888641357422
13	93.38876390457153	movie	1		243	11.0	2.5	/experiments/knapen_AOT/AOT_stimuli/rescaled_final/2013_rv.mp4	0.0	138.45581889152527	2.5005040168762207
13	93.78083896636963	pulse	1	t		11.0	2.5	/experiments/knapen_AOT/AOT_stimuli/rescaled_final/2013_rv.mp4	0.0	138.84789395332336	
13	95.38103890419006	pulse	1	t		11.0	2.5	/experiments/knapen_AOT/AOT_stimuli/rescaled_final/2013_rv.mp4	0.0	140.4480938911438	
13	95.88926792144775	fix_post	2		12	11.0	2.5	/experiments/knapen_AOT/AOT_stimuli/rescaled_final/2013_rv.mp4	0.0	140.9563229084015	0.09990715980529785
14	95.98917508125305	fix_pre	0		120	12.0	2.5	/experiments/knapen_AOT/AOT_stimuli/rescaled_final/1223_rv.mp4	0.0	141.0562300682068	1.0001800060272217
14	96.98115706443787	pulse	0	t		12.0	2.5	/experiments/knapen_AOT/AOT_stimuli/rescaled_final/1223_rv.mp4	0.0	142.0482120513916	
14	96.98935508728027	movie	1		244	12.0	2.5	/experiments/knapen_AOT/AOT_stimuli/rescaled_final/1223_rv.mp4	0.0	142.056410074234	2.5086989402770996
14	98.58196091651917	pulse	1	t		12.0	2.5	/experiments/knapen_AOT/AOT_stimuli/rescaled_final/1223_rv.mp4	0.0	143.6490159034729	
14	99.49805402755737	fix_post	2		12	12.0	2.5	/experiments/knapen_AOT/AOT_stimuli/rescaled_final/1223_rv.mp4	0.0	144.5651090145111	0.09999895095825195
15	99.59805297851562	fix_pre	0		120	13.0	2.5	blank	1.0	144.66510796546936	1.0001919269561768
15	100.18177199363708	pulse	0	t		13.0	2.5	blank	1.0	145.24882698059082	
15	100.5982449054718	movie	1		300	13.0	2.5	blank	1.0	145.66529989242554	2.500338077545166
15	101.78197407722473	pulse	1	t		13.0	2.5	blank	1.0	146.84902906417847	
15	103.09858298301697	fix_post	2		12	13.0	2.5	blank	1.0	148.1656379699707	0.10004711151123047
16	103.1986300945282	fix_pre	0		120	14.0	2.5	/experiments/knapen_AOT/AOT_stimuli/rescaled_final/0995_rv.mp4	0.0	148.26568508148193	1.0000858306884766
16	103.38211393356323	pulse	0	t		14.0	2.5	/experiments/knapen_AOT/AOT_stimuli/rescaled_final/0995_rv.mp4	0.0	148.44916892051697	
16	104.19871592521667	movie	1		243	14.0	2.5	/experiments/knapen_AOT/AOT_stimuli/rescaled_final/0995_rv.mp4	0.0	149.2657709121704	2.5004050731658936
16	104.98235511779785	pulse	1	t		14.0	2.5	/experiments/knapen_AOT/AOT_stimuli/rescaled_final/0995_rv.mp4	0.0	150.0494101047516	
16	106.58237290382385	pulse	1	t		14.0	2.5	/experiments/knapen_AOT/AOT_stimuli/rescaled_final/0995_rv.mp4	0.0	151.6494278907776	
16	106.69912099838257	fix_post	2		12	14.0	2.5	/experiments/knapen_AOT/AOT_stimuli/rescaled_final/0995_rv.mp4	0.0	151.7661759853363	0.10004901885986328
17	106.79917001724243	fix_pre	0		119	15.0	2.5	/experiments/knapen_AOT/AOT_stimuli/rescaled_final/0617_rv.mp4	0.0	151.86622500419617	0.9917469024658203
17	107.79091691970825	movie	1		243	15.0	2.5	/experiments/knapen_AOT/AOT_stimuli/rescaled_final/0617_rv.mp4	0.0	152.857971906662	2.5004119873046875
17	108.18292593955994	pulse	1	t		15.0	2.5	/experiments/knapen_AOT/AOT_stimuli/rescaled_final/0617_rv.mp4	0.0	153.24998092651367	
17	109.78300309181213	pulse	1	t		15.0	2.5	/experiments/knapen_AOT/AOT_stimuli/rescaled_final/0617_rv.mp4	0.0	154.85005807876587	
17	110.29132890701294	fix_post	2		12	15.0	2.5	/experiments/knapen_AOT/AOT_stimuli/rescaled_final/0617_rv.mp4	0.0	155.35838389396667	0.09999608993530273
18	110.39132499694824	fix_pre	0		120	16.0	2.5	/experiments/knapen_AOT/AOT_stimuli/rescaled_final/0822_rv.mp4	0.0	155.45837998390198	1.000114917755127
18	111.38328003883362	pulse	0	t		16.0	2.5	/experiments/knapen_AOT/AOT_stimuli/rescaled_final/0822_rv.mp4	0.0	156.45033502578735	
18	111.39143991470337	movie	1		244	16.0	2.5	/experiments/knapen_AOT/AOT_stimuli/rescaled_final/0822_rv.mp4	0.0	156.4584949016571	2.5087971687316895
18	112.98421096801758	pulse	1	t		16.0	2.5	/experiments/knapen_AOT/AOT_stimuli/rescaled_final/0822_rv.mp4	0.0	158.0512659549713	
18	113.90023708343506	fix_post	2		12	16.0	2.5	/experiments/knapen_AOT/AOT_stimuli/rescaled_final/0822_rv.mp4	0.0	158.9672920703888	0.09998297691345215
19	114.00022006034851	fix_pre	0		120	17.0	2.5	/experiments/knapen_AOT/AOT_stimuli/rescaled_final/0011_rv.mp4	0.0	159.06727504730225	1.000105857849121
19	114.57617807388306	pulse	0	t		17.0	2.5	/experiments/knapen_AOT/AOT_stimuli/rescaled_final/0011_rv.mp4	0.0	159.6432330608368	
19	115.00032591819763	movie	1		242	17.0	2.5	/experiments/knapen_AOT/AOT_stimuli/rescaled_final/0011_rv.mp4	0.0	160.06738090515137	2.500523090362549
19	116.17697811126709	pulse	1	t		17.0	2.5	/experiments/knapen_AOT/AOT_stimuli/rescaled_final/0011_rv.mp4	0.0	161.24403309822083	
19	117.50084900856018	fix_post	2		12	17.0	2.5	/experiments/knapen_AOT/AOT_stimuli/rescaled_final/0011_rv.mp4	0.0	162.56790399551392	0.0999150276184082
20	117.60076403617859	fix_pre	0		120	18.0	2.5	/experiments/knapen_AOT/AOT_stimuli/rescaled_final/1758_rv.mp4	0.0	162.66781902313232	1.0000739097595215
20	117.77680492401123	pulse	0	t		18.0	2.5	/experiments/knapen_AOT/AOT_stimuli/rescaled_final/1758_rv.mp4	0.0	162.84385991096497	
20	118.60083794593811	movie	1		243	18.0	2.5	/experiments/knapen_AOT/AOT_stimuli/rescaled_final/1758_rv.mp4	0.0	163.66789293289185	2.5004429817199707
20	119.37696409225464	pulse	1	t		18.0	2.5	/experiments/knapen_AOT/AOT_stimuli/rescaled_final/1758_rv.mp4	0.0	164.44401907920837	
20	120.97641706466675	pulse	1	t		18.0	2.5	/experiments/knapen_AOT/AOT_stimuli/rescaled_final/1758_rv.mp4	0.0	166.04347205162048	
20	121.10128092765808	fix_post	2		12	18.0	2.5	/experiments/knapen_AOT/AOT_stimuli/rescaled_final/1758_rv.mp4	0.0	166.16833591461182	0.10003209114074707
21	121.20131301879883	fix_pre	0		120	19.0	2.5	/experiments/knapen_AOT/AOT_stimuli/rescaled_final/0158_fw.mp4	0.0	166.26836800575256	1.0000739097595215
21	122.20138692855835	movie	1		241	19.0	2.5	/experiments/knapen_AOT/AOT_stimuli/rescaled_final/0158_fw.mp4	0.0	167.26844191551208	2.4921271800994873
21	122.57665300369263	pulse	1	t		19.0	2.5	/experiments/knapen_AOT/AOT_stimuli/rescaled_final/0158_fw.mp4	0.0	167.64370799064636	
21	124.17697501182556	pulse	1	t		19.0	2.5	/experiments/knapen_AOT/AOT_stimuli/rescaled_final/0158_fw.mp4	0.0	169.2440299987793	
21	124.69351410865784	fix_post	2		12	19.0	2.5	/experiments/knapen_AOT/AOT_stimuli/rescaled_final/0158_fw.mp4	0.0	169.76056909561157	0.09993982315063477
22	124.79345393180847	fix_pre	0		119	20.0	2.5	blank	1.0	169.8605089187622	0.9918510913848877
22	125.77707099914551	pulse	0	t		20.0	2.5	blank	1.0	170.84412598609924	
22	125.78530502319336	movie	1		301	20.0	2.5	blank	1.0	170.8523600101471	2.5086820125579834
22	127.37744998931885	pulse	1	t		20.0	2.5	blank	1.0	172.44450497627258	
22	128.29398703575134	fix_post	2		12	20.0	2.5	blank	1.0	173.36104202270508	0.1000208854675293
23	128.39400792121887	fix_pre	0		120	21.0	2.5	/experiments/knapen_AOT/AOT_stimuli/rescaled_final/0697_fw.mp4	0.0	173.4610629081726	1.0001850128173828
23	128.97759294509888	pulse	0	t		21.0	2.5	/experiments/knapen_AOT/AOT_stimuli/rescaled_final/0697_fw.mp4	0.0	174.0446479320526	
23	129.39419293403625	movie	1		242	21.0	2.5	/experiments/knapen_AOT/AOT_stimuli/rescaled_final/0697_fw.mp4	0.0	174.46124792099	2.500385046005249
23	130.5779070854187	pulse	1	t		21.0	2.5	/experiments/knapen_AOT/AOT_stimuli/rescaled_final/0697_fw.mp4	0.0	175.64496207237244	
23	131.8945779800415	fix_post	2		12	21.0	2.5	/experiments/knapen_AOT/AOT_stimuli/rescaled_final/0697_fw.mp4	0.0	176.96163296699524	0.10003113746643066
24	131.99460911750793	fix_pre	0		120	22.0	2.5	/experiments/knapen_AOT/AOT_stimuli/rescaled_final/0167_fw.mp4	0.0	177.06166410446167	1.0000479221343994
24	132.17799305915833	pulse	0	t		22.0	2.5	/experiments/knapen_AOT/AOT_stimuli/rescaled_final/0167_fw.mp4	0.0	177.24504804611206	
24	132.99465703964233	movie	1		242	22.0	2.5	/experiments/knapen_AOT/AOT_stimuli/rescaled_final/0167_fw.mp4	0.0	178.06171202659607	2.5004260540008545
24	133.77839303016663	pulse	1	t		22.0	2.5	/experiments/knapen_AOT/AOT_stimuli/rescaled_final/0167_fw.mp4	0.0	178.84544801712036	
24	135.37909698486328	pulse	1	t		22.0	2.5	/experiments/knapen_AOT/AOT_stimuli/rescaled_final/0167_fw.mp4	0.0	180.44615197181702	
24	135.4950830936432	fix_post	2		12	22.0	2.5	/experiments/knapen_AOT/AOT_stimuli/rescaled_final/0167_fw.mp4	0.0	180.56213808059692	0.1000359058380127
25	135.5951189994812	fix_pre	0		119	23.0	2.5	/experiments/knapen_AOT/AOT_stimuli/rescaled_final/0192_rv.mp4	0.0	180.66217398643494	0.9917829036712646
25	136.58690190315247	movie	1		244	23.0	2.5	/experiments/knapen_AOT/AOT_stimuli/rescaled_final/0192_rv.mp4	0.0	181.6539568901062	2.500429153442383
25	136.97885489463806	pulse	1	t		23.0	2.5	/experiments/knapen_AOT/AOT_stimuli/rescaled_final/0192_rv.mp4	0.0	182.0459098815918	
25	138.5790240764618	pulse	1	t		23.0	2.5	/experiments/knapen_AOT/AOT_stimuli/rescaled_final/0192_rv.mp4	0.0	183.64607906341553	
25	139.08733105659485	fix_post	2		12	23.0	2.5	/experiments/knapen_AOT/AOT_stimuli/rescaled_final/0192_rv.mp4	0.0	184.15438604354858	0.1000208854675293
26	139.18735194206238	fix_pre	0		120	24.0	2.5	/experiments/knapen_AOT/AOT_stimuli/rescaled_final/1482_rv.mp4	0.0	184.2544069290161	1.0000391006469727
26	140.17930603027344	pulse	0	t		24.0	2.5	/experiments/knapen_AOT/AOT_stimuli/rescaled_final/1482_rv.mp4	0.0	185.24636101722717	
26	140.18739104270935	movie	1		243	24.0	2.5	/experiments/knapen_AOT/AOT_stimuli/rescaled_final/1482_rv.mp4	0.0	185.2544460296631	2.508768081665039
26	141.78003001213074	pulse	1	t		24.0	2.5	/experiments/knapen_AOT/AOT_stimuli/rescaled_final/1482_rv.mp4	0.0	186.84708499908447	
26	142.6961591243744	fix_post	2		12	24.0	2.5	/experiments/knapen_AOT/AOT_stimuli/rescaled_final/1482_rv.mp4	0.0	187.76321411132812	0.10005593299865723
27	142.79621505737305	fix_pre	0		120	25.0	2.5	/experiments/knapen_AOT/AOT_stimuli/rescaled_final/1332_fw.mp4	0.0	187.86327004432678	1.0000660419464111
27	143.37974190711975	pulse	0	t		25.0	2.5	/experiments/knapen_AOT/AOT_stimuli/rescaled_final/1332_fw.mp4	0.0	188.4467968940735	
27	143.79628109931946	movie	1		242	25.0	2.5	/experiments/knapen_AOT/AOT_stimuli/rescaled_final/1332_fw.mp4	0.0	188.8633360862732	2.500440835952759
27	144.9801230430603	pulse	1	t		25.0	2.5	/experiments/knapen_AOT/AOT_stimuli/rescaled_final/1332_fw.mp4	0.0	190.04717803001404	
27	146.29672193527222	fix_post	2		12	25.0	2.5	/experiments/knapen_AOT/AOT_stimuli/rescaled_final/1332_fw.mp4	0.0	191.36377692222595	0.09996795654296875
28	146.39668989181519	fix_pre	0		120	26.0	2.5	/experiments/knapen_AOT/AOT_stimuli/rescaled_final/1717_fw.mp4	0.0	191.46374487876892	1.0001351833343506
28	146.5802628993988	pulse	0	t		26.0	2.5	/experiments/knapen_AOT/AOT_stimuli/rescaled_final/1717_fw.mp4	0.0	191.64731788635254	
28	147.39682507514954	movie	1		243	26.0	2.5	/experiments/knapen_AOT/AOT_stimuli/rescaled_final/1717_fw.mp4	0.0	192.46388006210327	2.500443935394287
28	148.18057107925415	pulse	1	t		26.0	2.5	/experiments/knapen_AOT/AOT_stimuli/rescaled_final/1717_fw.mp4	0.0	193.24762606620789	
28	149.78058910369873	pulse	1	t		26.0	2.5	/experiments/knapen_AOT/AOT_stimuli/rescaled_final/1717_fw.mp4	0.0	194.84764409065247	
28	149.89726901054382	fix_post	2		9	26.0	2.5	/experiments/knapen_AOT/AOT_stimuli/rescaled_final/1717_fw.mp4	0.0	194.96432399749756	0.09998607635498047
29	149.9972550868988	fix_pre	0		120	27.0	2.5	blank	1.0	195.06431007385254	1.000152826309204
29	150.997407913208	movie	1		299	27.0	2.5	blank	1.0	196.06446290016174	2.4920530319213867
29	151.38089203834534	pulse	1	t		27.0	2.5	blank	1.0	196.44794702529907	
29	152.98109602928162	pulse	1	t		27.0	2.5	blank	1.0	198.04815101623535	
29	153.4894609451294	fix_post	2		12	27.0	2.5	blank	1.0	198.55651593208313	0.10000395774841309
30	153.5894649028778	fix_pre	0		120	28.0	2.5	/experiments/knapen_AOT/AOT_stimuli/rescaled_final/2093_rv.mp4	0.0	198.65651988983154	1.0001461505889893
30	154.58147192001343	pulse	0	t		28.0	2.5	/experiments/knapen_AOT/AOT_stimuli/rescaled_final/2093_rv.mp4	0.0	199.64852690696716	
30	154.5896110534668	movie	1		243	28.0	2.5	/experiments/knapen_AOT/AOT_stimuli/rescaled_final/2093_rv.mp4	0.0	199.65666604042053	2.5086870193481445
30	156.1820878982544	pulse	1	t		28.0	2.5	/experiments/knapen_AOT/AOT_stimuli/rescaled_final/2093_rv.mp4	0.0	201.24914288520813	
30	157.09829807281494	fix_post	2		12	28.0	2.5	/experiments/knapen_AOT/AOT_stimuli/rescaled_final/2093_rv.mp4	0.0	202.16535305976868	0.10002803802490234
31	157.19832611083984	fix_pre	0		120	29.0	2.5	/experiments/knapen_AOT/AOT_stimuli/rescaled_final/1398_rv.mp4	0.0	202.26538109779358	1.0001168251037598
31	157.781907081604	pulse	0	t		29.0	2.5	/experiments/knapen_AOT/AOT_stimuli/rescaled_final/1398_rv.mp4	0.0	202.84896206855774	
31	158.1984429359436	movie	1		244	29.0	2.5	/experiments/knapen_AOT/AOT_stimuli/rescaled_final/1398_rv.mp4	0.0	203.26549792289734	2.5003671646118164
31	159.38223099708557	pulse	1	t		29.0	2.5	/experiments/knapen_AOT/AOT_stimuli/rescaled_final/1398_rv.mp4	0.0	204.4492859840393	
31	160.69881010055542	fix_post	2		12	29.0	2.5	/experiments/knapen_AOT/AOT_stimuli/rescaled_final/1398_rv.mp4	0.0	205.76586508750916	0.10004901885986328
32	160.79885911941528	fix_pre	0		120	30.0	2.5	/experiments/knapen_AOT/AOT_stimuli/rescaled_final/0724_rv.mp4	0.0	205.86591410636902	1.0001177787780762
32	160.98246002197266	pulse	0	t		30.0	2.5	/experiments/knapen_AOT/AOT_stimuli/rescaled_final/0724_rv.mp4	0.0	206.0495150089264	
32	161.79897689819336	movie	1		246	30.0	2.5	/experiments/knapen_AOT/AOT_stimuli/rescaled_final/0724_rv.mp4	0.0	206.8660318851471	2.5004491806030273
32	162.58274507522583	pulse	1	t		30.0	2.5	/experiments/knapen_AOT/AOT_stimuli/rescaled_final/0724_rv.mp4	0.0	207.64980006217957	
32	164.18284010887146	pulse	1	t		30.0	2.5	/experiments/knapen_AOT/AOT_stimuli/rescaled_final/0724_rv.mp4	0.0	209.2498950958252	
32	164.2994260787964	fix_post	2		12	30.0	2.5	/experiments/knapen_AOT/AOT_stimuli/rescaled_final/0724_rv.mp4	0.0	209.36648106575012	0.0999898910522461
33	164.39941596984863	fix_pre	0		120	31.0	2.5	/experiments/knapen_AOT/AOT_stimuli/rescaled_final/2104_rv.mp4	0.0	209.46647095680237	1.0001709461212158
33	165.39958691596985	movie	1		242	31.0	2.5	/experiments/knapen_AOT/AOT_stimuli/rescaled_final/2104_rv.mp4	0.0	210.46664190292358	2.4921112060546875
33	165.78411507606506	pulse	1	t		31.0	2.5	/experiments/knapen_AOT/AOT_stimuli/rescaled_final/2104_rv.mp4	0.0	210.8511700630188	
33	167.38345909118652	pulse	1	t		31.0	2.5	/experiments/knapen_AOT/AOT_stimuli/rescaled_final/2104_rv.mp4	0.0	212.45051407814026	
33	167.89169812202454	fix_post	2		12	31.0	2.5	/experiments/knapen_AOT/AOT_stimuli/rescaled_final/2104_rv.mp4	0.0	212.95875310897827	0.09990096092224121
34	167.99159908294678	fix_pre	0		120	32.0	2.5	/experiments/knapen_AOT/AOT_stimuli/rescaled_final/1670_rv.mp4	0.0	213.0586540699005	1.0001318454742432
34	168.98367404937744	pulse	0	t		32.0	2.5	/experiments/knapen_AOT/AOT_stimuli/rescaled_final/1670_rv.mp4	0.0	214.05072903633118	
34	168.99173092842102	movie	1		244	32.0	2.5	/experiments/knapen_AOT/AOT_stimuli/rescaled_final/1670_rv.mp4	0.0	214.05878591537476	2.5087201595306396
34	170.58437705039978	pulse	1	t		32.0	2.5	/experiments/knapen_AOT/AOT_stimuli/rescaled_final/1670_rv.mp4	0.0	215.65143203735352	
34	171.50045108795166	fix_post	2		12	32.0	2.5	/experiments/knapen_AOT/AOT_stimuli/rescaled_final/1670_rv.mp4	0.0	216.5675060749054	0.1000068187713623
35	171.60045790672302	fix_pre	0		120	33.0	2.5	/experiments/knapen_AOT/AOT_stimuli/rescaled_final/1073_rv.mp4	0.0	216.66751289367676	1.0002021789550781
35	172.18399906158447	pulse	0	t		33.0	2.5	/experiments/knapen_AOT/AOT_stimuli/rescaled_final/1073_rv.mp4	0.0	217.2510540485382	
35	172.6006600856781	movie	1		242	33.0	2.5	/experiments/knapen_AOT/AOT_stimuli/rescaled_final/1073_rv.mp4	0.0	217.66771507263184	2.5003349781036377
35	173.7800190448761	pulse	1	t		33.0	2.5	/experiments/knapen_AOT/AOT_stimuli/rescaled_final/1073_rv.mp4	0.0	218.84707403182983	
35	175.10099506378174	fix_post	2		12	33.0	2.5	/experiments/knapen_AOT/AOT_stimuli/rescaled_final/1073_rv.mp4	0.0	220.16805005073547	0.09999704360961914
36	175.20099210739136	fix_pre	0		120	34.0	2.5	blank	1.0	220.2680470943451	1.000213861465454
36	175.384614944458	pulse	0	t		34.0	2.5	blank	1.0	220.45166993141174	
36	176.2012059688568	movie	1		300	34.0	2.5	blank	1.0	221.26826095581055	2.5004079341888428
36	176.97725892066956	pulse	1	t		34.0	2.5	blank	1.0	222.0443139076233	
36	178.5774610042572	pulse	1	t		34.0	2.5	blank	1.0	223.64451599121094	
36	178.70161390304565	fix_post	2		12	34.0	2.5	blank	1.0	223.7686688899994	0.0999751091003418
37	178.801589012146	fix_pre	0		120	35.0	2.5	/experiments/knapen_AOT/AOT_stimuli/rescaled_final/1377_rv.mp4	0.0	223.86864399909973	1.0001029968261719
37	179.80169200897217	movie	1		241	35.0	2.5	/experiments/knapen_AOT/AOT_stimuli/rescaled_final/1377_rv.mp4	0.0	224.8687469959259	2.4921650886535645
37	180.18645405769348	pulse	1	t		35.0	2.5	/experiments/knapen_AOT/AOT_stimuli/rescaled_final/1377_rv.mp4	0.0	225.25350904464722	
37	181.7772500514984	pulse	1	t		35.0	2.5	/experiments/knapen_AOT/AOT_stimuli/rescaled_final/1377_rv.mp4	0.0	226.84430503845215	
37	182.29385709762573	fix_post	2		12	35.0	2.5	/experiments/knapen_AOT/AOT_stimuli/rescaled_final/1377_rv.mp4	0.0	227.36091208457947	0.09986686706542969
38	182.39372396469116	fix_pre	0		119	36.0	2.5	/experiments/knapen_AOT/AOT_stimuli/rescaled_final/0710_rv.mp4	0.0	227.4607789516449	0.9918460845947266
38	183.37733507156372	pulse	0	t		36.0	2.5	/experiments/knapen_AOT/AOT_stimuli/rescaled_final/0710_rv.mp4	0.0	228.44439005851746	
38	183.3855700492859	movie	1		244	36.0	2.5	/experiments/knapen_AOT/AOT_stimuli/rescaled_final/0710_rv.mp4	0.0	228.45262503623962	2.5087249279022217
38	184.97868704795837	pulse	1	t		36.0	2.5	/experiments/knapen_AOT/AOT_stimuli/rescaled_final/0710_rv.mp4	0.0	230.0457420349121	
38	185.8942949771881	fix_post	2		12	36.0	2.5	/experiments/knapen_AOT/AOT_stimuli/rescaled_final/0710_rv.mp4	0.0	230.96134996414185	0.10001611709594727
39	185.99431109428406	fix_pre	0		120	37.0	2.5	/experiments/knapen_AOT/AOT_stimuli/rescaled_final/2093_fw.mp4	0.0	231.0613660812378	1.0001230239868164
39	186.57800793647766	pulse	0	t		37.0	2.5	/experiments/knapen_AOT/AOT_stimuli/rescaled_final/2093_fw.mp4	0.0	231.6450629234314	
39	186.99443411827087	movie	1		242	37.0	2.5	/experiments/knapen_AOT/AOT_stimuli/rescaled_final/2093_fw.mp4	0.0	232.0614891052246	2.5004639625549316
39	188.17816591262817	pulse	1	t		37.0	2.5	/experiments/knapen_AOT/AOT_stimuli/rescaled_final/2093_fw.mp4	0.0	233.2452208995819	
39	189.4948980808258	fix_post	2		12	37.0	2.5	/experiments/knapen_AOT/AOT_stimuli/rescaled_final/2093_fw.mp4	0.0	234.56195306777954	0.09999203681945801
40	189.59489011764526	fix_pre	0		120	38.0	2.5	/experiments/knapen_AOT/AOT_stimuli/rescaled_final/0026_fw.mp4	0.0	234.661945104599	1.0000379085540771
40	189.77834701538086	pulse	0	t		38.0	2.5	/experiments/knapen_AOT/AOT_stimuli/rescaled_final/0026_fw.mp4	0.0	234.8454020023346	
40	190.59492802619934	movie	1		243	38.0	2.5	/experiments/knapen_AOT/AOT_stimuli/rescaled_final/0026_fw.mp4	0.0	235.66198301315308	2.5005369186401367
40	191.37861490249634	pulse	1	t		38.0	2.5	/experiments/knapen_AOT/AOT_stimuli/rescaled_final/0026_fw.mp4	0.0	236.44566988945007	
40	192.97870206832886	pulse	1	t		38.0	2.5	/experiments/knapen_AOT/AOT_stimuli/rescaled_final/0026_fw.mp4	0.0	238.0457570552826	
40	193.09546494483948	fix_post	2		12	38.0	2.5	/experiments/knapen_AOT/AOT_stimuli/rescaled_final/0026_fw.mp4	0.0	238.1625199317932	0.09990715980529785
41	193.19537210464478	fix_pre	0		119	39.0	2.5	/experiments/knapen_AOT/AOT_stimuli/rescaled_final/0541_fw.mp4	0.0	238.2624270915985	0.9917848110198975
41	194.18715691566467	movie	1		244	39.0	2.5	/experiments/knapen_AOT/AOT_stimuli/rescaled_final/0541_fw.mp4	0.0	239.2542119026184	2.500378131866455
41	194.579106092453	pulse	1	t		39.0	2.5	/experiments/knapen_AOT/AOT_stimuli/rescaled_final/0541_fw.mp4	0.0	239.64616107940674	
41	196.17933201789856	pulse	1	t		39.0	2.5	/experiments/knapen_AOT/AOT_stimuli/rescaled_final/0541_fw.mp4	0.0	241.2463870048523	
41	196.68753504753113	fix_post	2		12	39.0	2.5	/experiments/knapen_AOT/AOT_stimuli/rescaled_final/0541_fw.mp4	0.0	241.75459003448486	0.09999990463256836
42	196.7875349521637	fix_pre	0		120	40.0	2.5	/experiments/knapen_AOT/AOT_stimuli/rescaled_final/2045_rv.mp4	0.0	241.85458993911743	1.0001909732818604
42	197.77953100204468	pulse	0	t		40.0	2.5	/experiments/knapen_AOT/AOT_stimuli/rescaled_final/2045_rv.mp4	0.0	242.8465859889984	
42	197.78772592544556	movie	1		243	40.0	2.5	/experiments/knapen_AOT/AOT_stimuli/rescaled_final/2045_rv.mp4	0.0	242.8547809123993	2.5087060928344727
42	199.3804259300232	pulse	1	t		40.0	2.5	/experiments/knapen_AOT/AOT_stimuli/rescaled_final/2045_rv.mp4	0.0	244.44748091697693	
42	200.29643201828003	fix_post	2		12	40.0	2.5	/experiments/knapen_AOT/AOT_stimuli/rescaled_final/2045_rv.mp4	0.0	245.36348700523376	0.10006308555603027
43	200.39649510383606	fix_pre	0		120	41.0	2.5	/experiments/knapen_AOT/AOT_stimuli/rescaled_final/0760_rv.mp4	0.0	245.4635500907898	1.0000360012054443
43	200.9800090789795	pulse	0	t		41.0	2.5	/experiments/knapen_AOT/AOT_stimuli/rescaled_final/0760_rv.mp4	0.0	246.04706406593323	
43	201.3965311050415	movie	1		243	41.0	2.5	/experiments/knapen_AOT/AOT_stimuli/rescaled_final/0760_rv.mp4	0.0	246.46358609199524	2.5004689693450928
43	202.5803029537201	pulse	1	t		41.0	2.5	/experiments/knapen_AOT/AOT_stimuli/rescaled_final/0760_rv.mp4	0.0	247.64735794067383	
43	203.8970000743866	fix_post	2		12	41.0	2.5	/experiments/knapen_AOT/AOT_stimuli/rescaled_final/0760_rv.mp4	0.0	248.96405506134033	0.09993481636047363
44	203.99693489074707	fix_pre	0		120	42.0	2.5	blank	1.0	249.0639898777008	1.0001981258392334
44	204.18046402931213	pulse	0	t		42.0	2.5	blank	1.0	249.24751901626587	
44	204.9971330165863	movie	1		300	42.0	2.5	blank	1.0	250.06418800354004	2.500380039215088
44	205.7808609008789	pulse	1	t		42.0	2.5	blank	1.0	250.84791588783264	
44	207.38102102279663	pulse	1	t		42.0	2.5	blank	1.0	252.44807600975037	
44	207.4975130558014	fix_post	2		12	42.0	2.5	blank	1.0	252.56456804275513	0.10002303123474121
45	207.59753608703613	fix_pre	0		120	43.0	2.5	/experiments/knapen_AOT/AOT_stimuli/rescaled_final/1696_fw.mp4	0.0	252.66459107398987	1.0001399517059326
45	208.59767603874207	movie	1		241	43.0	2.5	/experiments/knapen_AOT/AOT_stimuli/rescaled_final/1696_fw.mp4	0.0	253.6647310256958	2.492121934890747
45	208.9857940673828	pulse	1	t		43.0	2.5	/experiments/knapen_AOT/AOT_stimuli/rescaled_final/1696_fw.mp4	0.0	254.05284905433655	
45	210.58143997192383	pulse	1	t		43.0	2.5	/experiments/knapen_AOT/AOT_stimuli/rescaled_final/1696_fw.mp4	0.0	255.64849495887756	
45	211.0897979736328	fix_post	2		12	43.0	2.5	/experiments/knapen_AOT/AOT_stimuli/rescaled_final/1696_fw.mp4	0.0	256.15685296058655	0.09994006156921387
46	211.18973803520203	fix_pre	0		117	44.0	2.5	/experiments/knapen_AOT/AOT_stimuli/rescaled_final/1839_rv.mp4	0.0	256.25679302215576	1.0000710487365723
46	212.1817409992218	pulse	0	t		44.0	2.5	/experiments/knapen_AOT/AOT_stimuli/rescaled_final/1839_rv.mp4	0.0	257.24879598617554	
46	212.1898090839386	movie	1		243	44.0	2.5	/experiments/knapen_AOT/AOT_stimuli/rescaled_final/1839_rv.mp4	0.0	257.25686407089233	2.5087478160858154
46	213.78228998184204	pulse	1	t		44.0	2.5	/experiments/knapen_AOT/AOT_stimuli/rescaled_final/1839_rv.mp4	0.0	258.8493449687958	
46	214.6985569000244	fix_post	2		12	44.0	2.5	/experiments/knapen_AOT/AOT_stimuli/rescaled_final/1839_rv.mp4	0.0	259.76561188697815	0.10004305839538574
47	214.7985999584198	fix_pre	0		120	45.0	2.5	/experiments/knapen_AOT/AOT_stimuli/rescaled_final/1806_rv.mp4	0.0	259.86565494537354	1.0001399517059326
47	215.38212203979492	pulse	0	t		45.0	2.5	/experiments/knapen_AOT/AOT_stimuli/rescaled_final/1806_rv.mp4	0.0	260.44917702674866	
47	215.79873991012573	movie	1		242	45.0	2.5	/experiments/knapen_AOT/AOT_stimuli/rescaled_final/1806_rv.mp4	0.0	260.86579489707947	2.5004031658172607
47	216.9782750606537	pulse	1	t		45.0	2.5	/experiments/knapen_AOT/AOT_stimuli/rescaled_final/1806_rv.mp4	0.0	262.0453300476074	
47	218.299143075943	fix_post	2		12	45.0	2.5	/experiments/knapen_AOT/AOT_stimuli/rescaled_final/1806_rv.mp4	0.0	263.36619806289673	0.10004591941833496
48	218.39918899536133	fix_pre	0		120	46.0	2.5	/experiments/knapen_AOT/AOT_stimuli/rescaled_final/0655_rv.mp4	0.0	263.46624398231506	1.0000901222229004
48	218.5826930999756	pulse	0	t		46.0	2.5	/experiments/knapen_AOT/AOT_stimuli/rescaled_final/0655_rv.mp4	0.0	263.6497480869293	
48	219.39927911758423	movie	1		244	46.0	2.5	/experiments/knapen_AOT/AOT_stimuli/rescaled_final/0655_rv.mp4	0.0	264.46633410453796	2.5004220008850098
48	220.18296790122986	pulse	1	t		46.0	2.5	/experiments/knapen_AOT/AOT_stimuli/rescaled_final/0655_rv.mp4	0.0	265.2500228881836	
48	221.78327989578247	pulse	1	t		46.0	2.5	/experiments/knapen_AOT/AOT_stimuli/rescaled_final/0655_rv.mp4	0.0	266.8503348827362	
48	221.89970111846924	fix_post	2		12	46.0	2.5	/experiments/knapen_AOT/AOT_stimuli/rescaled_final/0655_rv.mp4	0.0	266.966756105423	0.09995198249816895
49	221.9996531009674	fix_pre	0		119	47.0	2.5	/experiments/knapen_AOT/AOT_stimuli/rescaled_final/0475_rv.mp4	0.0	267.06670808792114	0.9918169975280762
49	222.99147009849548	movie	1		242	47.0	2.5	/experiments/knapen_AOT/AOT_stimuli/rescaled_final/0475_rv.mp4	0.0	268.0585250854492	2.500464916229248
49	223.38352608680725	pulse	1	t		47.0	2.5	/experiments/knapen_AOT/AOT_stimuli/rescaled_final/0475_rv.mp4	0.0	268.450581073761	
49	224.9836130142212	pulse	1	t		47.0	2.5	/experiments/knapen_AOT/AOT_stimuli/rescaled_final/0475_rv.mp4	0.0	270.0506680011749	
49	225.49193501472473	fix_post	2		12	47.0	2.5	/experiments/knapen_AOT/AOT_stimuli/rescaled_final/0475_rv.mp4	0.0	270.55899000167847	0.09989809989929199
50	225.59183311462402	fix_pre	0		120	48.0	2.5	/experiments/knapen_AOT/AOT_stimuli/rescaled_final/1008_fw.mp4	0.0	270.65888810157776	1.0001599788665771
50	226.58393812179565	pulse	0	t		48.0	2.5	/experiments/knapen_AOT/AOT_stimuli/rescaled_final/1008_fw.mp4	0.0	271.6509931087494	
50	226.5919930934906	movie	1		243	48.0	2.5	/experiments/knapen_AOT/AOT_stimuli/rescaled_final/1008_fw.mp4	0.0	271.65904808044434	2.508816957473755
50	228.1847701072693	pulse	1	t		48.0	2.5	/experiments/knapen_AOT/AOT_stimuli/rescaled_final/1008_fw.mp4	0.0	273.251825094223	
50	229.10081005096436	fix_post	2		12	48.0	2.5	/experiments/knapen_AOT/AOT_stimuli/rescaled_final/1008_fw.mp4	0.0	274.1678650379181	0.09995198249816895
51	229.20076203346252	fix_pre	0		120	49.0	2.5	blank	1.0	274.26781702041626	1.000087022781372
51	229.7766969203949	pulse	0	t		49.0	2.5	blank	1.0	274.84375190734863	
51	230.2008490562439	movie	1		300	49.0	2.5	blank	1.0	275.26790404319763	2.5004608631134033
51	231.37692403793335	pulse	1	t		49.0	2.5	blank	1.0	276.4439790248871	
51	232.7013099193573	fix_post	2		12	49.0	2.5	blank	1.0	277.76836490631104	0.09993815422058105
52	232.80124807357788	fix_pre	0		120	50.0	2.5	/experiments/knapen_AOT/AOT_stimuli/rescaled_final/1783_fw.mp4	0.0	277.8683030605316	1.0001740455627441
52	232.977303981781	pulse	0	t		50.0	2.5	/experiments/knapen_AOT/AOT_stimuli/rescaled_final/1783_fw.mp4	0.0	278.04435896873474	
52	233.80142211914062	movie	1		242	50.0	2.5	/experiments/knapen_AOT/AOT_stimuli/rescaled_final/1783_fw.mp4	0.0	278.86847710609436	2.500476837158203
52	234.57683396339417	pulse	1	t		50.0	2.5	/experiments/knapen_AOT/AOT_stimuli/rescaled_final/1783_fw.mp4	0.0	279.6438889503479	
52	236.17694807052612	pulse	1	t		50.0	2.5	/experiments/knapen_AOT/AOT_stimuli/rescaled_final/1783_fw.mp4	0.0	281.24400305747986	
52	236.30189895629883	fix_post	2		12	50.0	2.5	/experiments/knapen_AOT/AOT_stimuli/rescaled_final/1783_fw.mp4	0.0	281.36895394325256	0.09990906715393066
53	236.40180802345276	fix_pre	0		120	51.0	2.5	/experiments/knapen_AOT/AOT_stimuli/rescaled_final/1807_fw.mp4	0.0	281.4688630104065	1.000128984451294
53	237.40193700790405	movie	1		242	51.0	2.5	/experiments/knapen_AOT/AOT_stimuli/rescaled_final/1807_fw.mp4	0.0	282.4689919948578	2.492037057876587
53	237.7770800590515	pulse	1	t		51.0	2.5	/experiments/knapen_AOT/AOT_stimuli/rescaled_final/1807_fw.mp4	0.0	282.84413504600525	
53	239.37752294540405	pulse	1	t		51.0	2.5	/experiments/knapen_AOT/AOT_stimuli/rescaled_final/1807_fw.mp4	0.0	284.4445779323578	
53	239.89397406578064	fix_post	2		12	51.0	2.5	/experiments/knapen_AOT/AOT_stimuli/rescaled_final/1807_fw.mp4	0.0	284.9610290527344	0.09999585151672363
54	239.99396991729736	fix_pre	0		119	52.0	2.5	/experiments/knapen_AOT/AOT_stimuli/rescaled_final/0113_rv.mp4	0.0	285.0610249042511	0.9918169975280762
54	240.97771406173706	pulse	0	t		52.0	2.5	/experiments/knapen_AOT/AOT_stimuli/rescaled_final/0113_rv.mp4	0.0	286.0447690486908	
54	240.98578691482544	movie	1		244	52.0	2.5	/experiments/knapen_AOT/AOT_stimuli/rescaled_final/0113_rv.mp4	0.0	286.0528419017792	2.5087599754333496
54	242.57865691184998	pulse	1	t		52.0	2.5	/experiments/knapen_AOT/AOT_stimuli/rescaled_final/0113_rv.mp4	0.0	287.6457118988037	
54	243.4945468902588	fix_post	2		12	52.0	2.5	/experiments/knapen_AOT/AOT_stimuli/rescaled_final/0113_rv.mp4	0.0	288.5616018772125	0.10000300407409668
55	243.59454989433289	fix_pre	0		120	53.0	2.5	/experiments/knapen_AOT/AOT_stimuli/rescaled_final/1632_rv.mp4	0.0	288.6616048812866	1.0001270771026611
55	244.17806005477905	pulse	0	t		53.0	2.5	/experiments/knapen_AOT/AOT_stimuli/rescaled_final/1632_rv.mp4	0.0	289.2451150417328	
55	244.59467697143555	movie	1		244	53.0	2.5	/experiments/knapen_AOT/AOT_stimuli/rescaled_final/1632_rv.mp4	0.0	289.6617319583893	2.5003719329833984
55	245.77846097946167	pulse	1	t		53.0	2.5	/experiments/knapen_AOT/AOT_stimuli/rescaled_final/1632_rv.mp4	0.0	290.8455159664154	
55	247.09504890441895	fix_post	2		12	53.0	2.5	/experiments/knapen_AOT/AOT_stimuli/rescaled_final/1632_rv.mp4	0.0	292.1621038913727	0.10001206398010254
56	247.19506096839905	fix_pre	0		120	54.0	2.5	/experiments/knapen_AOT/AOT_stimuli/rescaled_final/1073_fw.mp4	0.0	292.2621159553528	1.000204086303711
56	247.37872099876404	pulse	0	t		54.0	2.5	/experiments/knapen_AOT/AOT_stimuli/rescaled_final/1073_fw.mp4	0.0	292.4457759857178	
56	248.19526505470276	movie	1		242	54.0	2.5	/experiments/knapen_AOT/AOT_stimuli/rescaled_final/1073_fw.mp4	0.0	293.2623200416565	2.500361919403076
56	248.97883296012878	pulse	1	t		54.0	2.5	/experiments/knapen_AOT/AOT_stimuli/rescaled_final/1073_fw.mp4	0.0	294.0458879470825	
56	250.57960104942322	pulse	1	t		54.0	2.5	/experiments/knapen_AOT/AOT_stimuli/rescaled_final/1073_fw.mp4	0.0	295.64665603637695	
56	250.69562697410583	fix_post	2		12	54.0	2.5	/experiments/knapen_AOT/AOT_stimuli/rescaled_final/1073_fw.mp4	0.0	295.76268196105957	0.09995794296264648
57	250.79558491706848	fix_pre	0		120	55.0	2.5	blank	1.0	295.8626399040222	1.000162124633789
57	251.79574704170227	movie	1		299	55.0	2.5	blank	1.0	296.862802028656	2.492058038711548
57	252.17942810058594	pulse	1	t		55.0	2.5	blank	1.0	297.2464830875397	
57	253.7796881198883	pulse	1	t		55.0	2.5	blank	1.0	298.84674310684204	
57	254.28780508041382	fix_post	2		12	55.0	2.5	blank	1.0	299.35486006736755	0.09998488426208496
58	254.3877899646759	fix_pre	0		120	56.0	2.5	/experiments/knapen_AOT/AOT_stimuli/rescaled_final/0595_fw.mp4	0.0	299.45484495162964	1.0001499652862549
58	255.3798930644989	pulse	0	t		56.0	2.5	/experiments/knapen_AOT/AOT_stimuli/rescaled_final/0595_fw.mp4	0.0	300.44694805145264	
58	255.38793992996216	movie	1		243	56.0	2.5	/experiments/knapen_AOT/AOT_stimuli/rescaled_final/0595_fw.mp4	0.0	300.4549949169159	2.5087521076202393
58	256.9806959629059	pulse	1	t		56.0	2.5	/experiments/knapen_AOT/AOT_stimuli/rescaled_final/0595_fw.mp4	0.0	302.0477509498596	
58	257.8966920375824	fix_post	2		12	56.0	2.5	/experiments/knapen_AOT/AOT_stimuli/rescaled_final/0595_fw.mp4	0.0	302.96374702453613	0.09999990463256836
59	257.99669194221497	fix_pre	0		120	57.0	2.5	/experiments/knapen_AOT/AOT_stimuli/rescaled_final/0167_rv.mp4	0.0	303.0637469291687	1.000115156173706
59	258.58030700683594	pulse	0	t		57.0	2.5	/experiments/knapen_AOT/AOT_stimuli/rescaled_final/0167_rv.mp4	0.0	303.6473619937897	
59	258.9968070983887	movie	1		242	57.0	2.5	/experiments/knapen_AOT/AOT_stimuli/rescaled_final/0167_rv.mp4	0.0	304.0638620853424	2.500584840774536
59	260.180645942688	pulse	1	t		57.0	2.5	/experiments/knapen_AOT/AOT_stimuli/rescaled_final/0167_rv.mp4	0.0	305.2477009296417	
59	261.4973919391632	fix_post	2		12	57.0	2.5	/experiments/knapen_AOT/AOT_stimuli/rescaled_final/0167_rv.mp4	0.0	306.56444692611694	0.09982705116271973
60	261.5972189903259	fix_pre	0		120	58.0	2.5	/experiments/knapen_AOT/AOT_stimuli/rescaled_final/1545_rv.mp4	0.0	306.66427397727966	1.0001640319824219
60	261.78082609176636	pulse	0	t		58.0	2.5	/experiments/knapen_AOT/AOT_stimuli/rescaled_final/1545_rv.mp4	0.0	306.8478810787201	
60	262.59738302230835	movie	1		242	58.0	2.5	/experiments/knapen_AOT/AOT_stimuli/rescaled_final/1545_rv.mp4	0.0	307.6644380092621	2.500515937805176
60	263.38093996047974	pulse	1	t		58.0	2.5	/experiments/knapen_AOT/AOT_stimuli/rescaled_final/1545_rv.mp4	0.0	308.4479949474335	
60	264.98121309280396	pulse	1	t		58.0	2.5	/experiments/knapen_AOT/AOT_stimuli/rescaled_final/1545_rv.mp4	0.0	310.0482680797577	
60	265.0978989601135	fix_post	2		12	58.0	2.5	/experiments/knapen_AOT/AOT_stimuli/rescaled_final/1545_rv.mp4	0.0	310.16495394706726	0.09986305236816406
61	265.1977620124817	fix_pre	0		120	59.0	2.5	/experiments/knapen_AOT/AOT_stimuli/rescaled_final/0218_rv.mp4	0.0	310.2648169994354	1.0001308917999268
61	266.1978929042816	movie	1		242	59.0	2.5	/experiments/knapen_AOT/AOT_stimuli/rescaled_final/0218_rv.mp4	0.0	311.26494789123535	2.4921181201934814
61	266.5819671154022	pulse	1	t		59.0	2.5	/experiments/knapen_AOT/AOT_stimuli/rescaled_final/0218_rv.mp4	0.0	311.64902210235596	
61	268.18184995651245	pulse	1	t		59.0	2.5	/experiments/knapen_AOT/AOT_stimuli/rescaled_final/0218_rv.mp4	0.0	313.2489049434662	
61	268.6900110244751	fix_post	2		12	59.0	2.5	/experiments/knapen_AOT/AOT_stimuli/rescaled_final/0218_rv.mp4	0.0	313.75706601142883	0.09993195533752441
62	268.7899429798126	fix_pre	0		120	60.0	2.5	/experiments/knapen_AOT/AOT_stimuli/rescaled_final/1808_rv.mp4	0.0	313.85699796676636	1.0001699924468994
62	269.7819290161133	pulse	0	t		60.0	2.5	/experiments/knapen_AOT/AOT_stimuli/rescaled_final/1808_rv.mp4	0.0	314.848984003067	
62	269.7901129722595	movie	1		241	60.0	2.5	/experiments/knapen_AOT/AOT_stimuli/rescaled_final/1808_rv.mp4	0.0	314.85716795921326	2.5086889266967773
62	271.3834240436554	pulse	1	t		60.0	2.5	/experiments/knapen_AOT/AOT_stimuli/rescaled_final/1808_rv.mp4	0.0	316.45047903060913	
62	272.2988018989563	fix_post	2		12	60.0	2.5	/experiments/knapen_AOT/AOT_stimuli/rescaled_final/1808_rv.mp4	0.0	317.36585688591003	0.10002613067626953
63	272.39882802963257	fix_pre	0		120	61.0	2.5	/experiments/knapen_AOT/AOT_stimuli/rescaled_final/1934_fw.mp4	0.0	317.4658830165863	1.0001380443572998
63	272.982460975647	pulse	0	t		61.0	2.5	/experiments/knapen_AOT/AOT_stimuli/rescaled_final/1934_fw.mp4	0.0	318.0495159626007	
63	273.39896607398987	movie	1		242	61.0	2.5	/experiments/knapen_AOT/AOT_stimuli/rescaled_final/1934_fw.mp4	0.0	318.4660210609436	2.500509023666382
63	274.58281111717224	pulse	1	t		61.0	2.5	/experiments/knapen_AOT/AOT_stimuli/rescaled_final/1934_fw.mp4	0.0	319.649866104126	
63	275.89947509765625	fix_post	2		12	61.0	2.5	/experiments/knapen_AOT/AOT_stimuli/rescaled_final/1934_fw.mp4	0.0	320.96653008461	0.09991979598999023
64	275.99939489364624	fix_pre	0		120	62.0	2.5	blank	1.0	321.0664498806	1.0001490116119385
64	276.1829209327698	pulse	0	t		62.0	2.5	blank	1.0	321.2499759197235	
64	276.9995439052582	movie	1		300	62.0	2.5	blank	1.0	322.0665988922119	2.5003581047058105
64	277.7831380367279	pulse	1	t		62.0	2.5	blank	1.0	322.85019302368164	
64	279.38332509994507	pulse	1	t		62.0	2.5	blank	1.0	324.4503800868988	
64	279.499902009964	fix_post	2		12	62.0	2.5	blank	1.0	324.5669569969177	0.10002398490905762
65	279.59992599487305	fix_pre	0		119	63.0	2.5	/experiments/knapen_AOT/AOT_stimuli/rescaled_final/0837_fw.mp4	0.0	324.6669809818268	0.9918229579925537
65	280.5917489528656	movie	1		242	63.0	2.5	/experiments/knapen_AOT/AOT_stimuli/rescaled_final/0837_fw.mp4	0.0	325.65880393981934	2.500365972518921
65	280.98376393318176	pulse	1	t		63.0	2.5	/experiments/knapen_AOT/AOT_stimuli/rescaled_final/0837_fw.mp4	0.0	326.0508189201355	
65	282.58396911621094	pulse	1	t		63.0	2.5	/experiments/knapen_AOT/AOT_stimuli/rescaled_final/0837_fw.mp4	0.0	327.6510241031647	
65	283.0921149253845	fix_post	2		12	63.0	2.5	/experiments/knapen_AOT/AOT_stimuli/rescaled_final/0837_fw.mp4	0.0	328.15916991233826	0.10012698173522949
66	283.19224190711975	fix_pre	0		120	64.0	2.5	/experiments/knapen_AOT/AOT_stimuli/rescaled_final/0704_fw.mp4	0.0	328.2592968940735	1.0000500679016113
66	284.1840488910675	pulse	0	t		64.0	2.5	/experiments/knapen_AOT/AOT_stimuli/rescaled_final/0704_fw.mp4	0.0	329.25110387802124	
66	284.19229197502136	movie	1		244	64.0	2.5	/experiments/knapen_AOT/AOT_stimuli/rescaled_final/0704_fw.mp4	0.0	329.2593469619751	2.5086541175842285
66	285.78561902046204	pulse	1	t		64.0	2.5	/experiments/knapen_AOT/AOT_stimuli/rescaled_final/0704_fw.mp4	0.0	330.85267400741577	
66	286.7009460926056	fix_post	2		12	64.0	2.5	/experiments/knapen_AOT/AOT_stimuli/rescaled_final/0704_fw.mp4	0.0	331.7680010795593	0.10002398490905762
67	286.80097007751465	fix_pre	0		120	65.0	2.5	/experiments/knapen_AOT/AOT_stimuli/rescaled_final/1316_fw.mp4	0.0	331.8680250644684	1.0001718997955322
67	287.3846859931946	pulse	0	t		65.0	2.5	/experiments/knapen_AOT/AOT_stimuli/rescaled_final/1316_fw.mp4	0.0	332.4517409801483	
67	287.8011419773102	movie	1		243	65.0	2.5	/experiments/knapen_AOT/AOT_stimuli/rescaled_final/1316_fw.mp4	0.0	332.8681969642639	2.500437021255493
67	288.98498797416687	pulse	1	t		65.0	2.5	/experiments/knapen_AOT/AOT_stimuli/rescaled_final/1316_fw.mp4	0.0	334.0520429611206	
67	290.3015789985657	fix_post	2		12	65.0	2.5	/experiments/knapen_AOT/AOT_stimuli/rescaled_final/1316_fw.mp4	0.0	335.3686339855194	0.09996390342712402
68	290.4015429019928	fix_pre	0		120	66.0	2.5	/experiments/knapen_AOT/AOT_stimuli/rescaled_final/1407_rv.mp4	0.0	335.46859788894653	1.0001602172851562
68	290.5776000022888	pulse	0	t		66.0	2.5	/experiments/knapen_AOT/AOT_stimuli/rescaled_final/1407_rv.mp4	0.0	335.64465498924255	
68	291.40170311927795	movie	1		242	66.0	2.5	/experiments/knapen_AOT/AOT_stimuli/rescaled_final/1407_rv.mp4	0.0	336.4687581062317	2.5003318786621094
68	292.1779670715332	pulse	1	t		66.0	2.5	/experiments/knapen_AOT/AOT_stimuli/rescaled_final/1407_rv.mp4	0.0	337.24502205848694	
68	293.7851800918579	pulse	1	t		66.0	2.5	/experiments/knapen_AOT/AOT_stimuli/rescaled_final/1407_rv.mp4	0.0	338.85223507881165	
68	293.90203499794006	fix_post	2		11	66.0	2.5	/experiments/knapen_AOT/AOT_stimuli/rescaled_final/1407_rv.mp4	0.0	338.9690899848938	0.09172606468200684
69	293.99376106262207	fix_pre	0		120	67.0	2.5	/experiments/knapen_AOT/AOT_stimuli/rescaled_final/1911_fw.mp4	0.0	339.0608160495758	1.0000929832458496
69	294.9938540458679	movie	1		243	67.0	2.5	/experiments/knapen_AOT/AOT_stimuli/rescaled_final/1911_fw.mp4	0.0	340.06090903282166	2.5004050731658936
69	295.37875604629517	pulse	1	t		67.0	2.5	/experiments/knapen_AOT/AOT_stimuli/rescaled_final/1911_fw.mp4	0.0	340.4458110332489	
69	296.9777979850769	pulse	1	t		67.0	2.5	/experiments/knapen_AOT/AOT_stimuli/rescaled_final/1911_fw.mp4	0.0	342.04485297203064	
69	297.4942591190338	fix_post	2		12	67.0	2.5	/experiments/knapen_AOT/AOT_stimuli/rescaled_final/1911_fw.mp4	0.0	342.56131410598755	0.09996795654296875
70	297.5942270755768	fix_pre	0		119	68.0	2.5	/experiments/knapen_AOT/AOT_stimuli/rescaled_final/1623_fw.mp4	0.0	342.6612820625305	0.9918789863586426
70	298.5779640674591	pulse	0	t		68.0	2.5	/experiments/knapen_AOT/AOT_stimuli/rescaled_final/1623_fw.mp4	0.0	343.64501905441284	
70	298.5861060619354	movie	1		244	68.0	2.5	/experiments/knapen_AOT/AOT_stimuli/rescaled_final/1623_fw.mp4	0.0	343.65316104888916	2.5086848735809326
70	300.1796429157257	pulse	1	t		68.0	2.5	/experiments/knapen_AOT/AOT_stimuli/rescaled_final/1623_fw.mp4	0.0	345.24669790267944	
70	301.09479093551636	fix_post	2		12	68.0	2.5	/experiments/knapen_AOT/AOT_stimuli/rescaled_final/1623_fw.mp4	0.0	346.1618459224701	0.10002398490905762
71	301.1948149204254	fix_pre	0		120	69.0	2.5	blank	1.0	346.26186990737915	1.0001161098480225
71	301.7784481048584	pulse	0	t		69.0	2.5	blank	1.0	346.84550309181213	
71	302.19493103027344	movie	1		300	69.0	2.5	blank	1.0	347.2619860172272	2.5003678798675537
71	303.3786029815674	pulse	1	t		69.0	2.5	blank	1.0	348.4456579685211	
71	304.695298910141	fix_post	2		12	69.0	2.5	blank	1.0	349.7623538970947	0.1000370979309082
72	304.7953360080719	fix_pre	0		120	70.0	2.5	/experiments/knapen_AOT/AOT_stimuli/rescaled_final/1545_fw.mp4	0.0	349.86239099502563	1.0002110004425049
72	304.9789559841156	pulse	0	t		70.0	2.5	/experiments/knapen_AOT/AOT_stimuli/rescaled_final/1545_fw.mp4	0.0	350.04601097106934	
72	305.7955470085144	movie	1		242	70.0	2.5	/experiments/knapen_AOT/AOT_stimuli/rescaled_final/1545_fw.mp4	0.0	350.86260199546814	2.500317096710205
72	306.5790739059448	pulse	1	t		70.0	2.5	/experiments/knapen_AOT/AOT_stimuli/rescaled_final/1545_fw.mp4	0.0	351.64612889289856	
72	308.17950892448425	pulse	1	t		70.0	2.5	/experiments/knapen_AOT/AOT_stimuli/rescaled_final/1545_fw.mp4	0.0	353.246563911438	
72	308.2958641052246	fix_post	2		12	70.0	2.5	/experiments/knapen_AOT/AOT_stimuli/rescaled_final/1545_fw.mp4	0.0	353.36291909217834	0.10000395774841309
73	308.395868062973	fix_pre	0		120	71.0	2.5	/experiments/knapen_AOT/AOT_stimuli/rescaled_final/1758_fw.mp4	0.0	353.46292304992676	1.0001659393310547
73	309.3960340023041	movie	1		242	71.0	2.5	/experiments/knapen_AOT/AOT_stimuli/rescaled_final/1758_fw.mp4	0.0	354.4630889892578	2.492069959640503
73	309.7837929725647	pulse	1	t		71.0	2.5	/experiments/knapen_AOT/AOT_stimuli/rescaled_final/1758_fw.mp4	0.0	354.85084795951843	
73	311.37987208366394	pulse	1	t		71.0	2.5	/experiments/knapen_AOT/AOT_stimuli/rescaled_final/1758_fw.mp4	0.0	356.4469270706177	
73	311.8881039619446	fix_post	2		12	71.0	2.5	/experiments/knapen_AOT/AOT_stimuli/rescaled_final/1758_fw.mp4	0.0	356.9551589488983	0.09999299049377441
74	311.98809695243835	fix_pre	0		120	72.0	2.5	/experiments/knapen_AOT/AOT_stimuli/rescaled_final/0077_fw.mp4	0.0	357.0551519393921	1.0001840591430664
74	312.98005390167236	pulse	0	t		72.0	2.5	/experiments/knapen_AOT/AOT_stimuli/rescaled_final/0077_fw.mp4	0.0	358.0471088886261	
74	312.9882810115814	movie	1		243	72.0	2.5	/experiments/knapen_AOT/AOT_stimuli/rescaled_final/0077_fw.mp4	0.0	358.05533599853516	2.5086379051208496
74	314.58085203170776	pulse	1	t		72.0	2.5	/experiments/knapen_AOT/AOT_stimuli/rescaled_final/0077_fw.mp4	0.0	359.6479070186615	
74	315.49691891670227	fix_post	2		12	72.0	2.5	/experiments/knapen_AOT/AOT_stimuli/rescaled_final/0077_fw.mp4	0.0	360.563973903656	0.10000014305114746
75	315.5969190597534	fix_pre	0		120	73.0	2.5	/experiments/knapen_AOT/AOT_stimuli/rescaled_final/0815_fw.mp4	0.0	360.66397404670715	1.0002269744873047
75	316.1806061267853	pulse	0	t		73.0	2.5	/experiments/knapen_AOT/AOT_stimuli/rescaled_final/0815_fw.mp4	0.0	361.247661113739	
75	316.5971460342407	movie	1		242	73.0	2.5	/experiments/knapen_AOT/AOT_stimuli/rescaled_final/0815_fw.mp4	0.0	361.66420102119446	2.5004029273986816
75	317.7808449268341	pulse	1	t		73.0	2.5	/experiments/knapen_AOT/AOT_stimuli/rescaled_final/0815_fw.mp4	0.0	362.84789991378784	
75	319.0975489616394	fix_post	2		12	73.0	2.5	/experiments/knapen_AOT/AOT_stimuli/rescaled_final/0815_fw.mp4	0.0	364.16460394859314	0.09992408752441406
76	319.1974730491638	fix_pre	0		120	74.0	2.5	/experiments/knapen_AOT/AOT_stimuli/rescaled_final/0460_rv.mp4	0.0	364.26452803611755	1.0001850128173828
76	319.3810760974884	pulse	0	t		74.0	2.5	/experiments/knapen_AOT/AOT_stimuli/rescaled_final/0460_rv.mp4	0.0	364.44813108444214	
76	320.1976580619812	movie	1		242	74.0	2.5	/experiments/knapen_AOT/AOT_stimuli/rescaled_final/0460_rv.mp4	0.0	365.26471304893494	2.500385046005249
76	320.98128390312195	pulse	1	t		74.0	2.5	/experiments/knapen_AOT/AOT_stimuli/rescaled_final/0460_rv.mp4	0.0	366.0483388900757	
76	322.5813539028168	pulse	1	t		74.0	2.5	/experiments/knapen_AOT/AOT_stimuli/rescaled_final/0460_rv.mp4	0.0	367.6484088897705	
76	322.69804310798645	fix_post	2		12	74.0	2.5	/experiments/knapen_AOT/AOT_stimuli/rescaled_final/0460_rv.mp4	0.0	367.7650980949402	0.09997296333312988
77	322.7980160713196	fix_pre	0		120	75.0	2.5	/experiments/knapen_AOT/AOT_stimuli/rescaled_final/0989_fw.mp4	0.0	367.8650710582733	1.000187873840332
77	323.7982039451599	movie	1		243	75.0	2.5	/experiments/knapen_AOT/AOT_stimuli/rescaled_final/0989_fw.mp4	0.0	368.86525893211365	2.4919960498809814
77	324.18244910240173	pulse	1	t		75.0	2.5	/experiments/knapen_AOT/AOT_stimuli/rescaled_final/0989_fw.mp4	0.0	369.24950408935547	
77	325.78198289871216	pulse	1	t		75.0	2.5	/experiments/knapen_AOT/AOT_stimuli/rescaled_final/0989_fw.mp4	0.0	370.8490378856659	
77	326.2901999950409	fix_post	2		12	75.0	2.5	/experiments/knapen_AOT/AOT_stimuli/rescaled_final/0989_fw.mp4	0.0	371.35725498199463	0.10005807876586914
78	326.39025807380676	fix_pre	0		120	76.0	2.5	/experiments/knapen_AOT/AOT_stimuli/rescaled_final/1738_rv.mp4	0.0	371.4573130607605	1.0001418590545654
78	327.38220405578613	pulse	0	t		76.0	2.5	/experiments/knapen_AOT/AOT_stimuli/rescaled_final/1738_rv.mp4	0.0	372.44925904273987	
78	327.3903999328613	movie	1		243	76.0	2.5	/experiments/knapen_AOT/AOT_stimuli/rescaled_final/1738_rv.mp4	0.0	372.45745491981506	2.508669137954712
78	328.9828550815582	pulse	1	t		76.0	2.5	/experiments/knapen_AOT/AOT_stimuli/rescaled_final/1738_rv.mp4	0.0	374.04991006851196	
78	329.89906907081604	fix_post	2		12	76.0	2.5	/experiments/knapen_AOT/AOT_stimuli/rescaled_final/1738_rv.mp4	0.0	374.9661240577698	0.10010886192321777
79	329.99917793273926	fix_pre	0		120	77.0	2.5	blank	1.0	375.066232919693	1.000096082687378
79	330.58269691467285	pulse	0	t		77.0	2.5	blank	1.0	375.6497519016266	
79	330.99927401542664	movie	1		300	77.0	2.5	blank	1.0	376.06632900238037	2.5003130435943604
79	332.18288493156433	pulse	1	t		77.0	2.5	blank	1.0	377.24993991851807	
79	333.499587059021	fix_post	2		12	77.0	2.5	blank	1.0	378.56664204597473	0.10009098052978516
80	333.5996780395508	fix_pre	0		120	78.0	2.5	/experiments/knapen_AOT/AOT_stimuli/rescaled_final/0978_fw.mp4	0.0	378.6667330265045	1.000128984451294
80	333.7831480503082	pulse	0	t		78.0	2.5	/experiments/knapen_AOT/AOT_stimuli/rescaled_final/0978_fw.mp4	0.0	378.85020303726196	
80	334.5998070240021	movie	1		242	78.0	2.5	/experiments/knapen_AOT/AOT_stimuli/rescaled_final/0978_fw.mp4	0.0	379.6668620109558	2.500530958175659
80	335.3835299015045	pulse	1	t		78.0	2.5	/experiments/knapen_AOT/AOT_stimuli/rescaled_final/0978_fw.mp4	0.0	380.45058488845825	
80	336.98353695869446	pulse	1	t		78.0	2.5	/experiments/knapen_AOT/AOT_stimuli/rescaled_final/0978_fw.mp4	0.0	382.0505919456482	
80	337.10033798217773	fix_post	2		12	78.0	2.5	/experiments/knapen_AOT/AOT_stimuli/rescaled_final/0978_fw.mp4	0.0	382.16739296913147	0.09990501403808594
81	337.2002429962158	fix_pre	0		116	79.0	2.5	/experiments/knapen_AOT/AOT_stimuli/rescaled_final/0685_fw.mp4	0.0	382.26729798316956	1.0000638961791992
81	338.200306892395	movie	1		242	79.0	2.5	/experiments/knapen_AOT/AOT_stimuli/rescaled_final/0685_fw.mp4	0.0	383.26736187934875	2.492223024368286
81	338.58495712280273	pulse	1	t		79.0	2.5	/experiments/knapen_AOT/AOT_stimuli/rescaled_final/0685_fw.mp4	0.0	383.65201210975647	
81	340.18424105644226	pulse	1	t		79.0	2.5	/experiments/knapen_AOT/AOT_stimuli/rescaled_final/0685_fw.mp4	0.0	385.251296043396	
81	340.6925299167633	fix_post	2		12	79.0	2.5	/experiments/knapen_AOT/AOT_stimuli/rescaled_final/0685_fw.mp4	0.0	385.75958490371704	0.09989118576049805
82	340.7924211025238	fix_pre	0		120	80.0	2.5	/experiments/knapen_AOT/AOT_stimuli/rescaled_final/1140_rv.mp4	0.0	385.85947608947754	1.0001819133758545
82	341.78443598747253	pulse	0	t		80.0	2.5	/experiments/knapen_AOT/AOT_stimuli/rescaled_final/1140_rv.mp4	0.0	386.85149097442627	
82	341.79260301589966	movie	1		243	80.0	2.5	/experiments/knapen_AOT/AOT_stimuli/rescaled_final/1140_rv.mp4	0.0	386.8596580028534	2.5086610317230225
82	343.3852770328522	pulse	1	t		80.0	2.5	/experiments/knapen_AOT/AOT_stimuli/rescaled_final/1140_rv.mp4	0.0	388.4523320198059	
82	344.3012640476227	fix_post	2		12	80.0	2.5	/experiments/knapen_AOT/AOT_stimuli/rescaled_final/1140_rv.mp4	0.0	389.3683190345764	0.09998488426208496
83	344.40124893188477	fix_pre	0		120	81.0	2.5	/experiments/knapen_AOT/AOT_stimuli/rescaled_final/0993_rv.mp4	0.0	389.4683039188385	1.000171184539795
83	344.97733998298645	pulse	0	t		81.0	2.5	/experiments/knapen_AOT/AOT_stimuli/rescaled_final/0993_rv.mp4	0.0	390.0443949699402	
83	345.40142011642456	movie	1		242	81.0	2.5	/experiments/knapen_AOT/AOT_stimuli/rescaled_final/0993_rv.mp4	0.0	390.4684751033783	2.5004289150238037
83	346.58118200302124	pulse	1	t		81.0	2.5	/experiments/knapen_AOT/AOT_stimuli/rescaled_final/0993_rv.mp4	0.0	391.648236989975	
83	347.90184903144836	fix_post	2		12	81.0	2.5	/experiments/knapen_AOT/AOT_stimuli/rescaled_final/0993_rv.mp4	0.0	392.9689040184021	0.09993696212768555
84	348.00178599357605	fix_pre	0		120	82.0	2.5	/experiments/knapen_AOT/AOT_stimuli/rescaled_final/1220_rv.mp4	0.0	393.0688409805298	1.0001599788665771
84	348.1778039932251	pulse	0	t		82.0	2.5	/experiments/knapen_AOT/AOT_stimuli/rescaled_final/1220_rv.mp4	0.0	393.24485898017883	
84	349.0019459724426	movie	1		243	82.0	2.5	/experiments/knapen_AOT/AOT_stimuli/rescaled_final/1220_rv.mp4	0.0	394.06900095939636	2.500370979309082
84	349.77715611457825	pulse	1	t		82.0	2.5	/experiments/knapen_AOT/AOT_stimuli/rescaled_final/1220_rv.mp4	0.0	394.844211101532	
84	351.37755608558655	pulse	1	t		82.0	2.5	/experiments/knapen_AOT/AOT_stimuli/rescaled_final/1220_rv.mp4	0.0	396.4446110725403	
84	351.5023169517517	fix_post	2		12	82.0	2.5	/experiments/knapen_AOT/AOT_stimuli/rescaled_final/1220_rv.mp4	0.0	396.56937193870544	0.10002803802490234
85	351.6023449897766	fix_pre	0		120	83.0	2.5	blank	1.0	396.66939997673035	1.0001261234283447
85	352.60247111320496	movie	1		299	83.0	2.5	blank	1.0	397.6695261001587	2.4920809268951416
85	352.9777030944824	pulse	1	t		83.0	2.5	blank	1.0	398.04475808143616	
85	354.5779299736023	pulse	1	t		83.0	2.5	blank	1.0	399.64498496055603	
85	355.0945520401001	fix_post	2		12	83.0	2.5	blank	1.0	400.16160702705383	0.1000070571899414
87	355.19455909729004	stim	0		1716					400.2616140842438	14.302222967147827
87	356.1781060695648	pulse	0	t						401.24516105651855	
87	357.7783510684967	pulse	0	t						402.84540605545044	
87	359.37872195243835	pulse	0	t						404.4457769393921	
87	360.97896790504456	pulse	0	t						406.0460228919983	
87	362.5790059566498	pulse	0	t						407.6460609436035	
87	364.17929196357727	pulse	0	t						409.246346950531	
87	365.77953004837036	pulse	0	t						410.8465850353241	
87	367.37983298301697	pulse	0	t						412.4468879699707	
87	368.980082988739	pulse	0	t						414.04713797569275	
