trial_nr	onset	event_type	phase	response	nr_frames	movie_index	movie_duration	movie_file	blank	onset_abs	duration
0	0.18338298797607422	stim	0		44					24.165569067001343	0.36650800704956055
0	0.5417859554290771	response	0	space						24.523972034454346	
1	0.5498909950256348	stim	0		5411					24.532077074050903	45.13448691368103
1	45.67440700531006	pulse	0	t						69.65659308433533	
1	45.684377908706665	stim	1		1715					69.66656398773193	14.299367189407349
1	47.2656409740448	pulse	1	t						71.24782705307007	
1	48.865720987319946	pulse	1	t						72.84790706634521	
1	50.46587109565735	pulse	1	t						74.44805717468262	
1	52.0661199092865	pulse	1	t						76.04830598831177	
1	53.66636896133423	pulse	1	t						77.6485550403595	
1	55.25901198387146	pulse	1	t						79.24119806289673	
1	56.8593111038208	pulse	1	t						80.84149718284607	
1	58.45954394340515	pulse	1	t						82.44173002243042	
2	59.983745098114014	fix_pre	0		11	0.0	2.5	/experiments/knapen_AOT/AOT_stimuli/rescaled_final/1789_rv.mp4	0.0	83.96593117713928	0.10017800331115723
2	60.05987000465393	pulse	0	t		0.0	2.5	/experiments/knapen_AOT/AOT_stimuli/rescaled_final/1789_rv.mp4	0.0	84.0420560836792	
2	60.08392310142517	movie	1		244	0.0	2.5	/experiments/knapen_AOT/AOT_stimuli/rescaled_final/1789_rv.mp4	0.0	84.06610918045044	2.5002169609069824
2	61.65937805175781	pulse	1	t		0.0	2.5	/experiments/knapen_AOT/AOT_stimuli/rescaled_final/1789_rv.mp4	0.0	85.64156413078308	
2	62.58414006233215	fix_post	2		12	0.0	2.5	/experiments/knapen_AOT/AOT_stimuli/rescaled_final/1789_rv.mp4	0.0	86.56632614135742	0.10000300407409668
3	62.68414306640625	fix_pre	0		120	1.0	2.5	/experiments/knapen_AOT/AOT_stimuli/rescaled_final/0492_rv.mp4	0.0	86.66632914543152	1.000190019607544
3	63.259437084198	pulse	0	t		1.0	2.5	/experiments/knapen_AOT/AOT_stimuli/rescaled_final/0492_rv.mp4	0.0	87.24162316322327	
3	63.684333086013794	movie	1		243	1.0	2.5	/experiments/knapen_AOT/AOT_stimuli/rescaled_final/0492_rv.mp4	0.0	87.66651916503906	2.500349998474121
3	64.86092710494995	pulse	1	t		1.0	2.5	/experiments/knapen_AOT/AOT_stimuli/rescaled_final/0492_rv.mp4	0.0	88.84311318397522	
3	66.18468308448792	fix_post	2		12	1.0	2.5	/experiments/knapen_AOT/AOT_stimuli/rescaled_final/0492_rv.mp4	0.0	90.16686916351318	0.10009884834289551
4	66.28478193283081	fix_pre	0		120	2.0	2.5	/experiments/knapen_AOT/AOT_stimuli/rescaled_final/0492_fw.mp4	0.0	90.26696801185608	1.0000860691070557
4	66.4599540233612	pulse	0	t		2.0	2.5	/experiments/knapen_AOT/AOT_stimuli/rescaled_final/0492_fw.mp4	0.0	90.44214010238647	
4	67.28486800193787	movie	1		243	2.0	2.5	/experiments/knapen_AOT/AOT_stimuli/rescaled_final/0492_fw.mp4	0.0	91.26705408096313	2.500330924987793
4	68.06013107299805	pulse	1	t		2.0	2.5	/experiments/knapen_AOT/AOT_stimuli/rescaled_final/0492_fw.mp4	0.0	92.04231715202332	
4	69.66035389900208	pulse	1	t		2.0	2.5	/experiments/knapen_AOT/AOT_stimuli/rescaled_final/0492_fw.mp4	0.0	93.64253997802734	
4	69.78519892692566	fix_post	2		12	2.0	2.5	/experiments/knapen_AOT/AOT_stimuli/rescaled_final/0492_fw.mp4	0.0	93.76738500595093	0.10001897811889648
5	69.88521790504456	fix_pre	0		119	3.0	2.5	/experiments/knapen_AOT/AOT_stimuli/rescaled_final/1432_rv.mp4	0.0	93.86740398406982	0.9918181896209717
5	70.87703609466553	movie	1		244	3.0	2.5	/experiments/knapen_AOT/AOT_stimuli/rescaled_final/1432_rv.mp4	0.0	94.8592221736908	2.500398874282837
5	71.26192307472229	pulse	1	t		3.0	2.5	/experiments/knapen_AOT/AOT_stimuli/rescaled_final/1432_rv.mp4	0.0	95.24410915374756	
5	72.86089396476746	pulse	1	t		3.0	2.5	/experiments/knapen_AOT/AOT_stimuli/rescaled_final/1432_rv.mp4	0.0	96.84308004379272	
5	73.37743496894836	fix_post	2		12	3.0	2.5	/experiments/knapen_AOT/AOT_stimuli/rescaled_final/1432_rv.mp4	0.0	97.35962104797363	0.10005593299865723
6	73.47749090194702	fix_pre	0		119	4.0	2.5	/experiments/knapen_AOT/AOT_stimuli/rescaled_final/1600_fw.mp4	0.0	97.45967698097229	0.9917490482330322
6	74.46119999885559	pulse	0	t		4.0	2.5	/experiments/knapen_AOT/AOT_stimuli/rescaled_final/1600_fw.mp4	0.0	98.44338607788086	
6	74.46923995018005	movie	1		245	4.0	2.5	/experiments/knapen_AOT/AOT_stimuli/rescaled_final/1600_fw.mp4	0.0	98.45142602920532	2.508716106414795
6	76.0623071193695	pulse	1	t		4.0	2.5	/experiments/knapen_AOT/AOT_stimuli/rescaled_final/1600_fw.mp4	0.0	100.04449319839478	
6	76.97795605659485	fix_post	2		12	4.0	2.5	/experiments/knapen_AOT/AOT_stimuli/rescaled_final/1600_fw.mp4	0.0	100.96014213562012	0.10002684593200684
7	77.07798290252686	fix_pre	0		120	5.0	2.5	blank	1.0	101.06016898155212	1.0001561641693115
7	77.66159510612488	pulse	0	t		5.0	2.5	blank	1.0	101.64378118515015	
7	78.07813906669617	movie	1		300	5.0	2.5	blank	1.0	102.06032514572144	2.5003819465637207
7	79.2619149684906	pulse	1	t		5.0	2.5	blank	1.0	103.24410104751587	
7	80.57852101325989	fix_post	2		12	5.0	2.5	blank	1.0	104.56070709228516	0.09998798370361328
8	80.6785089969635	fix_pre	0		120	6.0	2.5	/experiments/knapen_AOT/AOT_stimuli/rescaled_final/0601_fw.mp4	0.0	104.66069507598877	1.0001649856567383
8	80.86203289031982	pulse	0	t		6.0	2.5	/experiments/knapen_AOT/AOT_stimuli/rescaled_final/0601_fw.mp4	0.0	104.84421896934509	
8	81.67867398262024	movie	1		245	6.0	2.5	/experiments/knapen_AOT/AOT_stimuli/rescaled_final/0601_fw.mp4	0.0	105.66086006164551	2.5003559589385986
8	82.46236300468445	pulse	1	t		6.0	2.5	/experiments/knapen_AOT/AOT_stimuli/rescaled_final/0601_fw.mp4	0.0	106.44454908370972	
8	84.06253409385681	pulse	1	t		6.0	2.5	/experiments/knapen_AOT/AOT_stimuli/rescaled_final/0601_fw.mp4	0.0	108.04472017288208	
8	84.17902994155884	fix_post	2		12	6.0	2.5	/experiments/knapen_AOT/AOT_stimuli/rescaled_final/0601_fw.mp4	0.0	108.1612160205841	0.10000801086425781
9	84.2790379524231	fix_pre	0		120	7.0	2.5	/experiments/knapen_AOT/AOT_stimuli/rescaled_final/0084_fw.mp4	0.0	108.26122403144836	1.0001511573791504
9	85.27918910980225	movie	1		243	7.0	2.5	/experiments/knapen_AOT/AOT_stimuli/rescaled_final/0084_fw.mp4	0.0	109.26137518882751	2.4920427799224854
9	85.66363501548767	pulse	1	t		7.0	2.5	/experiments/knapen_AOT/AOT_stimuli/rescaled_final/0084_fw.mp4	0.0	109.64582109451294	
9	87.26296496391296	pulse	1	t		7.0	2.5	/experiments/knapen_AOT/AOT_stimuli/rescaled_final/0084_fw.mp4	0.0	111.24515104293823	
9	87.77123188972473	fix_post	2		12	7.0	2.5	/experiments/knapen_AOT/AOT_stimuli/rescaled_final/0084_fw.mp4	0.0	111.75341796875	0.10004901885986328
10	87.8712809085846	fix_pre	0		120	8.0	2.5	/experiments/knapen_AOT/AOT_stimuli/rescaled_final/1296_fw.mp4	0.0	111.85346698760986	1.0001370906829834
10	88.86338210105896	pulse	0	t		8.0	2.5	/experiments/knapen_AOT/AOT_stimuli/rescaled_final/1296_fw.mp4	0.0	112.84556818008423	
10	88.87141799926758	movie	1		245	8.0	2.5	/experiments/knapen_AOT/AOT_stimuli/rescaled_final/1296_fw.mp4	0.0	112.85360407829285	2.508660078048706
10	90.46427297592163	pulse	1	t		8.0	2.5	/experiments/knapen_AOT/AOT_stimuli/rescaled_final/1296_fw.mp4	0.0	114.4464590549469	
10	91.38007807731628	fix_post	2		12	8.0	2.5	/experiments/knapen_AOT/AOT_stimuli/rescaled_final/1296_fw.mp4	0.0	115.36226415634155	0.10003280639648438
11	91.48011088371277	fix_pre	0		120	9.0	2.5	/experiments/knapen_AOT/AOT_stimuli/rescaled_final/1495_fw.mp4	0.0	115.46229696273804	1.00018310546875
11	92.06380605697632	pulse	0	t		9.0	2.5	/experiments/knapen_AOT/AOT_stimuli/rescaled_final/1495_fw.mp4	0.0	116.04599213600159	
11	92.48029398918152	movie	1		244	9.0	2.5	/experiments/knapen_AOT/AOT_stimuli/rescaled_final/1495_fw.mp4	0.0	116.46248006820679	2.5003271102905273
11	93.66410398483276	pulse	1	t		9.0	2.5	/experiments/knapen_AOT/AOT_stimuli/rescaled_final/1495_fw.mp4	0.0	117.64629006385803	
11	94.98062109947205	fix_post	2		12	9.0	2.5	/experiments/knapen_AOT/AOT_stimuli/rescaled_final/1495_fw.mp4	0.0	118.96280717849731	0.10006594657897949
12	95.08068704605103	fix_pre	0		120	10.0	2.5	/experiments/knapen_AOT/AOT_stimuli/rescaled_final/1881_rv.mp4	0.0	119.0628731250763	1.000154972076416
12	95.26430606842041	pulse	0	t		10.0	2.5	/experiments/knapen_AOT/AOT_stimuli/rescaled_final/1881_rv.mp4	0.0	119.24649214744568	
12	96.08084201812744	movie	1		245	10.0	2.5	/experiments/knapen_AOT/AOT_stimuli/rescaled_final/1881_rv.mp4	0.0	120.06302809715271	2.500314950942993
12	96.86447811126709	pulse	1	t		10.0	2.5	/experiments/knapen_AOT/AOT_stimuli/rescaled_final/1881_rv.mp4	0.0	120.84666419029236	
12	98.46240091323853	pulse	1	t		10.0	2.5	/experiments/knapen_AOT/AOT_stimuli/rescaled_final/1881_rv.mp4	0.0	122.4445869922638	
12	98.58115696907043	fix_post	2		12	10.0	2.5	/experiments/knapen_AOT/AOT_stimuli/rescaled_final/1881_rv.mp4	0.0	122.5633430480957	0.10005497932434082
13	98.68121194839478	fix_pre	0		120	11.0	2.5	/experiments/knapen_AOT/AOT_stimuli/rescaled_final/1016_fw.mp4	0.0	122.66339802742004	1.000195026397705
13	99.68140697479248	movie	1		243	11.0	2.5	/experiments/knapen_AOT/AOT_stimuli/rescaled_final/1016_fw.mp4	0.0	123.66359305381775	2.4920060634613037
13	100.06563711166382	pulse	1	t		11.0	2.5	/experiments/knapen_AOT/AOT_stimuli/rescaled_final/1016_fw.mp4	0.0	124.04782319068909	
13	101.66517210006714	pulse	1	t		11.0	2.5	/experiments/knapen_AOT/AOT_stimuli/rescaled_final/1016_fw.mp4	0.0	125.64735817909241	
13	102.17341303825378	fix_post	2		12	11.0	2.5	/experiments/knapen_AOT/AOT_stimuli/rescaled_final/1016_fw.mp4	0.0	126.15559911727905	0.10001802444458008
14	102.27343106269836	fix_pre	0		120	12.0	2.5	/experiments/knapen_AOT/AOT_stimuli/rescaled_final/0929_rv.mp4	0.0	126.25561714172363	1.0000908374786377
14	103.26548790931702	pulse	0	t		12.0	2.5	/experiments/knapen_AOT/AOT_stimuli/rescaled_final/0929_rv.mp4	0.0	127.24767398834229	
14	103.273521900177	movie	1		247	12.0	2.5	/experiments/knapen_AOT/AOT_stimuli/rescaled_final/0929_rv.mp4	0.0	127.25570797920227	2.5087220668792725
14	104.86618494987488	pulse	1	t		12.0	2.5	/experiments/knapen_AOT/AOT_stimuli/rescaled_final/0929_rv.mp4	0.0	128.84837102890015	
14	105.78224396705627	fix_post	2		12	12.0	2.5	/experiments/knapen_AOT/AOT_stimuli/rescaled_final/0929_rv.mp4	0.0	129.76443004608154	0.10010814666748047
15	105.88235211372375	fix_pre	0		120	13.0	2.5	/experiments/knapen_AOT/AOT_stimuli/rescaled_final/1421_rv.mp4	0.0	129.86453819274902	1.0000817775726318
15	106.46586608886719	pulse	0	t		13.0	2.5	/experiments/knapen_AOT/AOT_stimuli/rescaled_final/1421_rv.mp4	0.0	130.44805216789246	
15	106.88243389129639	movie	1		244	13.0	2.5	/experiments/knapen_AOT/AOT_stimuli/rescaled_final/1421_rv.mp4	0.0	130.86461997032166	2.500364065170288
15	108.06617093086243	pulse	1	t		13.0	2.5	/experiments/knapen_AOT/AOT_stimuli/rescaled_final/1421_rv.mp4	0.0	132.0483570098877	
15	109.38279795646667	fix_post	2		12	13.0	2.5	/experiments/knapen_AOT/AOT_stimuli/rescaled_final/1421_rv.mp4	0.0	133.36498403549194	0.10001516342163086
16	109.4828131198883	fix_pre	0		120	14.0	2.5	blank	1.0	133.46499919891357	1.0001587867736816
16	109.65899610519409	pulse	0	t		14.0	2.5	blank	1.0	133.64118218421936	
16	110.48297190666199	movie	1		300	14.0	2.5	blank	1.0	134.46515798568726	2.5003840923309326
16	111.25920391082764	pulse	1	t		14.0	2.5	blank	1.0	135.2413899898529	
16	112.85945200920105	pulse	1	t		14.0	2.5	blank	1.0	136.84163808822632	
16	112.98335599899292	fix_post	2		12	14.0	2.5	blank	1.0	136.9655420780182	0.10004997253417969
17	113.0834059715271	fix_pre	0		120	15.0	2.5	/experiments/knapen_AOT/AOT_stimuli/rescaled_final/1861_rv.mp4	0.0	137.06559205055237	1.0000760555267334
17	114.08348202705383	movie	1		242	15.0	2.5	/experiments/knapen_AOT/AOT_stimuli/rescaled_final/1861_rv.mp4	0.0	138.0656681060791	2.492042064666748
17	114.46755290031433	pulse	1	t		15.0	2.5	/experiments/knapen_AOT/AOT_stimuli/rescaled_final/1861_rv.mp4	0.0	138.4497389793396	
17	116.05898594856262	pulse	1	t		15.0	2.5	/experiments/knapen_AOT/AOT_stimuli/rescaled_final/1861_rv.mp4	0.0	140.0411720275879	
17	116.57552409172058	fix_post	2		12	15.0	2.5	/experiments/knapen_AOT/AOT_stimuli/rescaled_final/1861_rv.mp4	0.0	140.55771017074585	0.10002684593200684
18	116.67555093765259	fix_pre	0		119	16.0	2.5	/experiments/knapen_AOT/AOT_stimuli/rescaled_final/0995_rv.mp4	0.0	140.65773701667786	0.9918050765991211
18	117.65915989875793	pulse	0	t		16.0	2.5	/experiments/knapen_AOT/AOT_stimuli/rescaled_final/0995_rv.mp4	0.0	141.6413459777832	
18	117.66735601425171	movie	1		242	16.0	2.5	/experiments/knapen_AOT/AOT_stimuli/rescaled_final/0995_rv.mp4	0.0	141.64954209327698	2.508791923522949
18	119.25986695289612	pulse	1	t		16.0	2.5	/experiments/knapen_AOT/AOT_stimuli/rescaled_final/0995_rv.mp4	0.0	143.2420530319214	
18	120.17614793777466	fix_post	2		12	16.0	2.5	/experiments/knapen_AOT/AOT_stimuli/rescaled_final/0995_rv.mp4	0.0	144.15833401679993	0.09991598129272461
19	120.27606391906738	fix_pre	0		120	17.0	2.5	/experiments/knapen_AOT/AOT_stimuli/rescaled_final/0965_rv.mp4	0.0	144.25824999809265	1.0001800060272217
19	120.85974907875061	pulse	0	t		17.0	2.5	/experiments/knapen_AOT/AOT_stimuli/rescaled_final/0965_rv.mp4	0.0	144.84193515777588	
19	121.2762439250946	movie	1		244	17.0	2.5	/experiments/knapen_AOT/AOT_stimuli/rescaled_final/0965_rv.mp4	0.0	145.25843000411987	2.500354051589966
19	122.4600019454956	pulse	1	t		17.0	2.5	/experiments/knapen_AOT/AOT_stimuli/rescaled_final/0965_rv.mp4	0.0	146.44218802452087	
19	123.77659797668457	fix_post	2		12	17.0	2.5	/experiments/knapen_AOT/AOT_stimuli/rescaled_final/0965_rv.mp4	0.0	147.75878405570984	0.10009002685546875
20	123.87668800354004	fix_pre	0		120	18.0	2.5	/experiments/knapen_AOT/AOT_stimuli/rescaled_final/1600_fw.mp4	0.0	147.8588740825653	1.0000839233398438
20	124.0601499080658	pulse	0	t		18.0	2.5	/experiments/knapen_AOT/AOT_stimuli/rescaled_final/1600_fw.mp4	0.0	148.04233598709106	
20	124.87677192687988	movie	1		244	18.0	2.5	/experiments/knapen_AOT/AOT_stimuli/rescaled_final/1600_fw.mp4	0.0	148.85895800590515	2.5004019737243652
20	125.66044998168945	pulse	1	t		18.0	2.5	/experiments/knapen_AOT/AOT_stimuli/rescaled_final/1600_fw.mp4	0.0	149.64263606071472	
20	127.26069903373718	pulse	1	t		18.0	2.5	/experiments/knapen_AOT/AOT_stimuli/rescaled_final/1600_fw.mp4	0.0	151.24288511276245	
20	127.37717390060425	fix_post	2		12	18.0	2.5	/experiments/knapen_AOT/AOT_stimuli/rescaled_final/1600_fw.mp4	0.0	151.35935997962952	0.09998321533203125
21	127.47715711593628	fix_pre	0		120	19.0	2.5	/experiments/knapen_AOT/AOT_stimuli/rescaled_final/1988_rv.mp4	0.0	151.45934319496155	1.0002498626708984
21	128.47740697860718	movie	1		243	19.0	2.5	/experiments/knapen_AOT/AOT_stimuli/rescaled_final/1988_rv.mp4	0.0	152.45959305763245	2.4919850826263428
21	128.86157989501953	pulse	1	t		19.0	2.5	/experiments/knapen_AOT/AOT_stimuli/rescaled_final/1988_rv.mp4	0.0	152.8437659740448	
21	130.46108102798462	pulse	1	t		19.0	2.5	/experiments/knapen_AOT/AOT_stimuli/rescaled_final/1988_rv.mp4	0.0	154.4432671070099	
21	130.96939206123352	fix_post	2		12	19.0	2.5	/experiments/knapen_AOT/AOT_stimuli/rescaled_final/1988_rv.mp4	0.0	154.9515781402588	0.10002398490905762
22	131.06941604614258	fix_pre	0		120	20.0	2.5	/experiments/knapen_AOT/AOT_stimuli/rescaled_final/0597_rv.mp4	0.0	155.05160212516785	1.0000898838043213
22	132.0614070892334	pulse	0	t		20.0	2.5	/experiments/knapen_AOT/AOT_stimuli/rescaled_final/0597_rv.mp4	0.0	156.04359316825867	
22	132.0695059299469	movie	1		245	20.0	2.5	/experiments/knapen_AOT/AOT_stimuli/rescaled_final/0597_rv.mp4	0.0	156.05169200897217	2.508702039718628
22	133.6629021167755	pulse	1	t		20.0	2.5	/experiments/knapen_AOT/AOT_stimuli/rescaled_final/0597_rv.mp4	0.0	157.64508819580078	
22	134.57820796966553	fix_post	2		12	20.0	2.5	/experiments/knapen_AOT/AOT_stimuli/rescaled_final/0597_rv.mp4	0.0	158.5603940486908	0.10007405281066895
23	134.6782820224762	fix_pre	0		120	21.0	2.5	blank	1.0	158.66046810150146	1.0000979900360107
23	135.26186203956604	pulse	0	t		21.0	2.5	blank	1.0	159.2440481185913	
23	135.6783800125122	movie	1		300	21.0	2.5	blank	1.0	159.66056609153748	2.500380039215088
23	136.86208200454712	pulse	1	t		21.0	2.5	blank	1.0	160.8442680835724	
23	138.1787600517273	fix_post	2		12	21.0	2.5	blank	1.0	162.16094613075256	0.10000896453857422
24	138.27876901626587	fix_pre	0		120	22.0	2.5	/experiments/knapen_AOT/AOT_stimuli/rescaled_final/2122_fw.mp4	0.0	162.26095509529114	1.0001370906829834
24	138.46241903305054	pulse	0	t		22.0	2.5	/experiments/knapen_AOT/AOT_stimuli/rescaled_final/2122_fw.mp4	0.0	162.4446051120758	
24	139.27890610694885	movie	1		244	22.0	2.5	/experiments/knapen_AOT/AOT_stimuli/rescaled_final/2122_fw.mp4	0.0	163.26109218597412	2.5003600120544434
24	140.0626540184021	pulse	1	t		22.0	2.5	/experiments/knapen_AOT/AOT_stimuli/rescaled_final/2122_fw.mp4	0.0	164.04484009742737	
24	141.6628909111023	pulse	1	t		22.0	2.5	/experiments/knapen_AOT/AOT_stimuli/rescaled_final/2122_fw.mp4	0.0	165.64507699012756	
24	141.7792661190033	fix_post	2		12	22.0	2.5	/experiments/knapen_AOT/AOT_stimuli/rescaled_final/2122_fw.mp4	0.0	165.76145219802856	0.10005378723144531
25	141.87931990623474	fix_pre	0		120	23.0	2.5	/experiments/knapen_AOT/AOT_stimuli/rescaled_final/1965_rv.mp4	0.0	165.86150598526	1.0001511573791504
25	142.8794710636139	movie	1		244	23.0	2.5	/experiments/knapen_AOT/AOT_stimuli/rescaled_final/1965_rv.mp4	0.0	166.86165714263916	2.492029905319214
25	143.26442003250122	pulse	1	t		23.0	2.5	/experiments/knapen_AOT/AOT_stimuli/rescaled_final/1965_rv.mp4	0.0	167.2466061115265	
25	144.86332988739014	pulse	1	t		23.0	2.5	/experiments/knapen_AOT/AOT_stimuli/rescaled_final/1965_rv.mp4	0.0	168.8455159664154	
25	145.3715009689331	fix_post	2		12	23.0	2.5	/experiments/knapen_AOT/AOT_stimuli/rescaled_final/1965_rv.mp4	0.0	169.35368704795837	0.10005807876586914
26	145.47155904769897	fix_pre	0		120	24.0	2.5	/experiments/knapen_AOT/AOT_stimuli/rescaled_final/0335_fw.mp4	0.0	169.45374512672424	1.0001120567321777
26	146.46360206604004	pulse	0	t		24.0	2.5	/experiments/knapen_AOT/AOT_stimuli/rescaled_final/0335_fw.mp4	0.0	170.4457881450653	
26	146.47167110443115	movie	1		245	24.0	2.5	/experiments/knapen_AOT/AOT_stimuli/rescaled_final/0335_fw.mp4	0.0	170.45385718345642	2.5086898803710938
26	148.06432104110718	pulse	1	t		24.0	2.5	/experiments/knapen_AOT/AOT_stimuli/rescaled_final/0335_fw.mp4	0.0	172.04650712013245	
26	148.98036098480225	fix_post	2		12	24.0	2.5	/experiments/knapen_AOT/AOT_stimuli/rescaled_final/0335_fw.mp4	0.0	172.96254706382751	0.1000359058380127
27	149.08039689064026	fix_pre	0		120	25.0	2.5	/experiments/knapen_AOT/AOT_stimuli/rescaled_final/0586_fw.mp4	0.0	173.06258296966553	1.0001161098480225
27	149.6639859676361	pulse	0	t		25.0	2.5	/experiments/knapen_AOT/AOT_stimuli/rescaled_final/0586_fw.mp4	0.0	173.64617204666138	
27	150.08051300048828	movie	1		243	25.0	2.5	/experiments/knapen_AOT/AOT_stimuli/rescaled_final/0586_fw.mp4	0.0	174.06269907951355	2.5004119873046875
27	151.26430892944336	pulse	1	t		25.0	2.5	/experiments/knapen_AOT/AOT_stimuli/rescaled_final/0586_fw.mp4	0.0	175.24649500846863	
27	152.58092498779297	fix_post	2		12	25.0	2.5	/experiments/knapen_AOT/AOT_stimuli/rescaled_final/0586_fw.mp4	0.0	176.56311106681824	0.09997701644897461
28	152.68090200424194	fix_pre	0		120	26.0	2.5	/experiments/knapen_AOT/AOT_stimuli/rescaled_final/0419_fw.mp4	0.0	176.6630880832672	1.0001740455627441
28	152.8645589351654	pulse	0	t		26.0	2.5	/experiments/knapen_AOT/AOT_stimuli/rescaled_final/0419_fw.mp4	0.0	176.84674501419067	
28	153.6810760498047	movie	1		244	26.0	2.5	/experiments/knapen_AOT/AOT_stimuli/rescaled_final/0419_fw.mp4	0.0	177.66326212882996	2.5003578662872314
28	154.46485209465027	pulse	1	t		26.0	2.5	/experiments/knapen_AOT/AOT_stimuli/rescaled_final/0419_fw.mp4	0.0	178.44703817367554	
28	156.06548309326172	pulse	1	t		26.0	2.5	/experiments/knapen_AOT/AOT_stimuli/rescaled_final/0419_fw.mp4	0.0	180.047669172287	
28	156.18143391609192	fix_post	2		12	26.0	2.5	/experiments/knapen_AOT/AOT_stimuli/rescaled_final/0419_fw.mp4	0.0	180.1636199951172	0.10001802444458008
29	156.2814519405365	fix_pre	0		120	27.0	2.5	/experiments/knapen_AOT/AOT_stimuli/rescaled_final/1293_fw.mp4	0.0	180.26363801956177	1.000175952911377
29	157.28162789344788	movie	1		242	27.0	2.5	/experiments/knapen_AOT/AOT_stimuli/rescaled_final/1293_fw.mp4	0.0	181.26381397247314	2.49200701713562
29	157.66566109657288	pulse	1	t		27.0	2.5	/experiments/knapen_AOT/AOT_stimuli/rescaled_final/1293_fw.mp4	0.0	181.64784717559814	
29	159.2654550075531	pulse	1	t		27.0	2.5	/experiments/knapen_AOT/AOT_stimuli/rescaled_final/1293_fw.mp4	0.0	183.24764108657837	
29	159.7736349105835	fix_post	2		12	27.0	2.5	/experiments/knapen_AOT/AOT_stimuli/rescaled_final/1293_fw.mp4	0.0	183.75582098960876	0.10005712509155273
30	159.87369203567505	fix_pre	0		120	28.0	2.5	blank	1.0	183.85587811470032	1.0001089572906494
30	160.86579990386963	pulse	0	t		28.0	2.5	blank	1.0	184.8479859828949	
30	160.8738009929657	movie	1		301	28.0	2.5	blank	1.0	184.85598707199097	2.5087311267852783
30	162.46594905853271	pulse	1	t		28.0	2.5	blank	1.0	186.44813513755798	
30	163.38253211975098	fix_post	2		12	28.0	2.5	blank	1.0	187.36471819877625	0.10000491142272949
31	163.4825370311737	fix_pre	0		120	29.0	2.5	/experiments/knapen_AOT/AOT_stimuli/rescaled_final/1504_rv.mp4	0.0	187.46472311019897	1.0001490116119385
31	164.06611108779907	pulse	0	t		29.0	2.5	/experiments/knapen_AOT/AOT_stimuli/rescaled_final/1504_rv.mp4	0.0	188.04829716682434	
31	164.48268604278564	movie	1		246	29.0	2.5	/experiments/knapen_AOT/AOT_stimuli/rescaled_final/1504_rv.mp4	0.0	188.4648721218109	2.5003409385681152
31	165.6664400100708	pulse	1	t		29.0	2.5	/experiments/knapen_AOT/AOT_stimuli/rescaled_final/1504_rv.mp4	0.0	189.64862608909607	
31	166.98302698135376	fix_post	2		12	29.0	2.5	/experiments/knapen_AOT/AOT_stimuli/rescaled_final/1504_rv.mp4	0.0	190.96521306037903	0.10009407997131348
32	167.08312106132507	fix_pre	0		120	30.0	2.5	/experiments/knapen_AOT/AOT_stimuli/rescaled_final/2122_rv.mp4	0.0	191.06530714035034	1.0000898838043213
32	167.25908207893372	pulse	0	t		30.0	2.5	/experiments/knapen_AOT/AOT_stimuli/rescaled_final/2122_rv.mp4	0.0	191.24126815795898	
32	168.0832109451294	movie	1		243	30.0	2.5	/experiments/knapen_AOT/AOT_stimuli/rescaled_final/2122_rv.mp4	0.0	192.06539702415466	2.500364065170288
32	168.85867404937744	pulse	1	t		30.0	2.5	/experiments/knapen_AOT/AOT_stimuli/rescaled_final/2122_rv.mp4	0.0	192.8408601284027	
32	170.458722114563	pulse	1	t		30.0	2.5	/experiments/knapen_AOT/AOT_stimuli/rescaled_final/2122_rv.mp4	0.0	194.44090819358826	
32	170.58357501029968	fix_post	2		12	30.0	2.5	/experiments/knapen_AOT/AOT_stimuli/rescaled_final/2122_rv.mp4	0.0	194.56576108932495	0.10001802444458008
33	170.68359303474426	fix_pre	0		120	31.0	2.5	/experiments/knapen_AOT/AOT_stimuli/rescaled_final/1012_fw.mp4	0.0	194.66577911376953	1.0001790523529053
33	171.68377208709717	movie	1		242	31.0	2.5	/experiments/knapen_AOT/AOT_stimuli/rescaled_final/1012_fw.mp4	0.0	195.66595816612244	2.4920217990875244
33	172.05895400047302	pulse	1	t		31.0	2.5	/experiments/knapen_AOT/AOT_stimuli/rescaled_final/1012_fw.mp4	0.0	196.0411400794983	
33	173.6594009399414	pulse	1	t		31.0	2.5	/experiments/knapen_AOT/AOT_stimuli/rescaled_final/1012_fw.mp4	0.0	197.64158701896667	
33	174.1757938861847	fix_post	2		12	31.0	2.5	/experiments/knapen_AOT/AOT_stimuli/rescaled_final/1012_fw.mp4	0.0	198.15797996520996	0.10000109672546387
34	174.27579498291016	fix_pre	0		119	32.0	2.5	/experiments/knapen_AOT/AOT_stimuli/rescaled_final/0441_fw.mp4	0.0	198.25798106193542	0.991858959197998
34	175.25954699516296	pulse	0	t		32.0	2.5	/experiments/knapen_AOT/AOT_stimuli/rescaled_final/0441_fw.mp4	0.0	199.24173307418823	
34	175.26765394210815	movie	1		245	32.0	2.5	/experiments/knapen_AOT/AOT_stimuli/rescaled_final/0441_fw.mp4	0.0	199.24984002113342	2.5086631774902344
34	176.8602809906006	pulse	1	t		32.0	2.5	/experiments/knapen_AOT/AOT_stimuli/rescaled_final/0441_fw.mp4	0.0	200.84246706962585	
34	177.7763171195984	fix_post	2		9	32.0	2.5	/experiments/knapen_AOT/AOT_stimuli/rescaled_final/0441_fw.mp4	0.0	201.75850319862366	0.10004591941833496
35	177.87636303901672	fix_pre	0		120	33.0	2.5	/experiments/knapen_AOT/AOT_stimuli/rescaled_final/0059_rv.mp4	0.0	201.858549118042	1.0002360343933105
35	178.4599449634552	pulse	0	t		33.0	2.5	/experiments/knapen_AOT/AOT_stimuli/rescaled_final/0059_rv.mp4	0.0	202.44213104248047	
35	178.87659907341003	movie	1		243	33.0	2.5	/experiments/knapen_AOT/AOT_stimuli/rescaled_final/0059_rv.mp4	0.0	202.8587851524353	2.5002758502960205
35	180.06035995483398	pulse	1	t		33.0	2.5	/experiments/knapen_AOT/AOT_stimuli/rescaled_final/0059_rv.mp4	0.0	204.04254603385925	
35	181.37687492370605	fix_post	2		12	33.0	2.5	/experiments/knapen_AOT/AOT_stimuli/rescaled_final/0059_rv.mp4	0.0	205.35906100273132	0.10003399848937988
36	181.47690892219543	fix_pre	0		120	34.0	2.5	blank	1.0	205.4590950012207	1.000169038772583
36	181.66056108474731	pulse	0	t		34.0	2.5	blank	1.0	205.64274716377258	
36	182.47707796096802	movie	1		300	34.0	2.5	blank	1.0	206.4592640399933	2.5003349781036377
36	183.26067900657654	pulse	1	t		34.0	2.5	blank	1.0	207.2428650856018	
36	184.86097311973572	pulse	1	t		34.0	2.5	blank	1.0	208.843159198761	
36	184.97741293907166	fix_post	2		12	34.0	2.5	blank	1.0	208.95959901809692	0.1000220775604248
37	185.07743501663208	fix_pre	0		120	35.0	2.5	/experiments/knapen_AOT/AOT_stimuli/rescaled_final/1432_rv.mp4	0.0	209.05962109565735	1.0003058910369873
37	186.07774090766907	movie	1		243	35.0	2.5	/experiments/knapen_AOT/AOT_stimuli/rescaled_final/1432_rv.mp4	0.0	210.05992698669434	2.4918811321258545
37	186.46174001693726	pulse	1	t		35.0	2.5	/experiments/knapen_AOT/AOT_stimuli/rescaled_final/1432_rv.mp4	0.0	210.44392609596252	
37	188.0615429878235	pulse	1	t		35.0	2.5	/experiments/knapen_AOT/AOT_stimuli/rescaled_final/1432_rv.mp4	0.0	212.04372906684875	
37	188.56962203979492	fix_post	2		12	35.0	2.5	/experiments/knapen_AOT/AOT_stimuli/rescaled_final/1432_rv.mp4	0.0	212.5518081188202	0.1000368595123291
38	188.66965889930725	fix_pre	0		120	36.0	2.5	/experiments/knapen_AOT/AOT_stimuli/rescaled_final/1023_rv.mp4	0.0	212.65184497833252	1.0001060962677002
38	189.66164803504944	pulse	0	t		36.0	2.5	/experiments/knapen_AOT/AOT_stimuli/rescaled_final/1023_rv.mp4	0.0	213.6438341140747	
38	189.66976499557495	movie	1		244	36.0	2.5	/experiments/knapen_AOT/AOT_stimuli/rescaled_final/1023_rv.mp4	0.0	213.65195107460022	2.508755922317505
38	191.2624969482422	pulse	1	t		36.0	2.5	/experiments/knapen_AOT/AOT_stimuli/rescaled_final/1023_rv.mp4	0.0	215.24468302726746	
38	192.17852091789246	fix_post	2		12	36.0	2.5	/experiments/knapen_AOT/AOT_stimuli/rescaled_final/1023_rv.mp4	0.0	216.16070699691772	0.09999608993530273
39	192.27851700782776	fix_pre	0		120	37.0	2.5	/experiments/knapen_AOT/AOT_stimuli/rescaled_final/1779_rv.mp4	0.0	216.26070308685303	1.0001380443572998
39	192.862144947052	pulse	0	t		37.0	2.5	/experiments/knapen_AOT/AOT_stimuli/rescaled_final/1779_rv.mp4	0.0	216.84433102607727	
39	193.27865505218506	movie	1		243	37.0	2.5	/experiments/knapen_AOT/AOT_stimuli/rescaled_final/1779_rv.mp4	0.0	217.26084113121033	2.5003960132598877
39	194.46255111694336	pulse	1	t		37.0	2.5	/experiments/knapen_AOT/AOT_stimuli/rescaled_final/1779_rv.mp4	0.0	218.44473719596863	
39	195.77905106544495	fix_post	2		12	37.0	2.5	/experiments/knapen_AOT/AOT_stimuli/rescaled_final/1779_rv.mp4	0.0	219.76123714447021	0.09998297691345215
40	195.8790340423584	fix_pre	0		120	38.0	2.5	/experiments/knapen_AOT/AOT_stimuli/rescaled_final/0986_fw.mp4	0.0	219.86122012138367	1.0001800060272217
40	196.06255888938904	pulse	0	t		38.0	2.5	/experiments/knapen_AOT/AOT_stimuli/rescaled_final/0986_fw.mp4	0.0	220.0447449684143	
40	196.87921404838562	movie	1		244	38.0	2.5	/experiments/knapen_AOT/AOT_stimuli/rescaled_final/0986_fw.mp4	0.0	220.8614001274109	2.5003299713134766
40	197.66280508041382	pulse	1	t		38.0	2.5	/experiments/knapen_AOT/AOT_stimuli/rescaled_final/0986_fw.mp4	0.0	221.6449911594391	
40	199.26300597190857	pulse	1	t		38.0	2.5	/experiments/knapen_AOT/AOT_stimuli/rescaled_final/0986_fw.mp4	0.0	223.24519205093384	
40	199.3795440196991	fix_post	2		12	38.0	2.5	/experiments/knapen_AOT/AOT_stimuli/rescaled_final/0986_fw.mp4	0.0	223.36173009872437	0.10001492500305176
41	199.47955894470215	fix_pre	0		119	39.0	2.5	/experiments/knapen_AOT/AOT_stimuli/rescaled_final/1441_fw.mp4	0.0	223.46174502372742	0.9918341636657715
41	200.47139310836792	movie	1		244	39.0	2.5	/experiments/knapen_AOT/AOT_stimuli/rescaled_final/1441_fw.mp4	0.0	224.4535791873932	2.5003609657287598
41	200.86350107192993	pulse	1	t		39.0	2.5	/experiments/knapen_AOT/AOT_stimuli/rescaled_final/1441_fw.mp4	0.0	224.8456871509552	
41	202.46364998817444	pulse	1	t		39.0	2.5	/experiments/knapen_AOT/AOT_stimuli/rescaled_final/1441_fw.mp4	0.0	226.4458360671997	
41	202.97175407409668	fix_post	2		12	39.0	2.5	/experiments/knapen_AOT/AOT_stimuli/rescaled_final/1441_fw.mp4	0.0	226.95394015312195	0.10000491142272949
42	203.0717589855194	fix_pre	0		120	40.0	2.5	/experiments/knapen_AOT/AOT_stimuli/rescaled_final/0210_fw.mp4	0.0	227.05394506454468	1.0001609325408936
42	204.0638210773468	pulse	0	t		40.0	2.5	/experiments/knapen_AOT/AOT_stimuli/rescaled_final/0210_fw.mp4	0.0	228.04600715637207	
42	204.0719199180603	movie	1		245	40.0	2.5	/experiments/knapen_AOT/AOT_stimuli/rescaled_final/0210_fw.mp4	0.0	228.05410599708557	2.5087339878082275
42	205.66451501846313	pulse	1	t		40.0	2.5	/experiments/knapen_AOT/AOT_stimuli/rescaled_final/0210_fw.mp4	0.0	229.6467010974884	
42	206.58065390586853	fix_post	2		12	40.0	2.5	/experiments/knapen_AOT/AOT_stimuli/rescaled_final/0210_fw.mp4	0.0	230.5628399848938	0.10002303123474121
43	206.68067693710327	fix_pre	0		120	41.0	2.5	blank	1.0	230.66286301612854	1.000108003616333
43	207.2643530368805	pulse	0	t		41.0	2.5	blank	1.0	231.24653911590576	
43	207.6807849407196	movie	1		300	41.0	2.5	blank	1.0	231.66297101974487	2.5003881454467773
43	208.86464500427246	pulse	1	t		41.0	2.5	blank	1.0	232.84683108329773	
43	210.18117308616638	fix_post	2		12	41.0	2.5	blank	1.0	234.16335916519165	0.09999990463256836
44	210.28117299079895	fix_pre	0		120	42.0	2.5	/experiments/knapen_AOT/AOT_stimuli/rescaled_final/1402_rv.mp4	0.0	234.26335906982422	1.0001859664916992
44	210.46478605270386	pulse	0	t		42.0	2.5	/experiments/knapen_AOT/AOT_stimuli/rescaled_final/1402_rv.mp4	0.0	234.44697213172913	
44	211.28135895729065	movie	1		243	42.0	2.5	/experiments/knapen_AOT/AOT_stimuli/rescaled_final/1402_rv.mp4	0.0	235.26354503631592	2.500349998474121
44	212.06493091583252	pulse	1	t		42.0	2.5	/experiments/knapen_AOT/AOT_stimuli/rescaled_final/1402_rv.mp4	0.0	236.0471169948578	
44	213.66501188278198	pulse	1	t		42.0	2.5	/experiments/knapen_AOT/AOT_stimuli/rescaled_final/1402_rv.mp4	0.0	237.64719796180725	
44	213.78170895576477	fix_post	2		12	42.0	2.5	/experiments/knapen_AOT/AOT_stimuli/rescaled_final/1402_rv.mp4	0.0	237.76389503479004	0.10001611709594727
45	213.88172507286072	fix_pre	0		120	43.0	2.5	/experiments/knapen_AOT/AOT_stimuli/rescaled_final/0411_fw.mp4	0.0	237.863911151886	1.0001418590545654
45	214.88186693191528	movie	1		243	43.0	2.5	/experiments/knapen_AOT/AOT_stimuli/rescaled_final/0411_fw.mp4	0.0	238.86405301094055	2.492027997970581
45	215.26597905158997	pulse	1	t		43.0	2.5	/experiments/knapen_AOT/AOT_stimuli/rescaled_final/0411_fw.mp4	0.0	239.24816513061523	
45	216.86582207679749	pulse	1	t		43.0	2.5	/experiments/knapen_AOT/AOT_stimuli/rescaled_final/0411_fw.mp4	0.0	240.84800815582275	
45	217.37389492988586	fix_post	2		12	43.0	2.5	/experiments/knapen_AOT/AOT_stimuli/rescaled_final/0411_fw.mp4	0.0	241.35608100891113	0.10003113746643066
46	217.4739260673523	fix_pre	0		120	44.0	2.5	/experiments/knapen_AOT/AOT_stimuli/rescaled_final/0682_fw.mp4	0.0	241.45611214637756	1.000166893005371
46	218.46597409248352	pulse	0	t		44.0	2.5	/experiments/knapen_AOT/AOT_stimuli/rescaled_final/0682_fw.mp4	0.0	242.4481601715088	
46	218.47409296035767	movie	1		245	44.0	2.5	/experiments/knapen_AOT/AOT_stimuli/rescaled_final/0682_fw.mp4	0.0	242.45627903938293	2.508697986602783
46	220.06679391860962	pulse	1	t		44.0	2.5	/experiments/knapen_AOT/AOT_stimuli/rescaled_final/0682_fw.mp4	0.0	244.0489799976349	
46	220.98279094696045	fix_post	2		12	44.0	2.5	/experiments/knapen_AOT/AOT_stimuli/rescaled_final/0682_fw.mp4	0.0	244.96497702598572	0.10001015663146973
47	221.08280110359192	fix_pre	0		120	45.0	2.5	/experiments/knapen_AOT/AOT_stimuli/rescaled_final/0382_rv.mp4	0.0	245.0649871826172	1.0001769065856934
47	221.66649508476257	pulse	0	t		45.0	2.5	/experiments/knapen_AOT/AOT_stimuli/rescaled_final/0382_rv.mp4	0.0	245.64868116378784	
47	222.0829780101776	movie	1		244	45.0	2.5	/experiments/knapen_AOT/AOT_stimuli/rescaled_final/0382_rv.mp4	0.0	246.06516408920288	2.500438928604126
47	223.2668159008026	pulse	1	t		45.0	2.5	/experiments/knapen_AOT/AOT_stimuli/rescaled_final/0382_rv.mp4	0.0	247.24900197982788	
47	224.58341693878174	fix_post	2		12	45.0	2.5	/experiments/knapen_AOT/AOT_stimuli/rescaled_final/0382_rv.mp4	0.0	248.565603017807	0.09992694854736328
48	224.6833438873291	fix_pre	0		120	46.0	2.5	/experiments/knapen_AOT/AOT_stimuli/rescaled_final/0298_rv.mp4	0.0	248.66552996635437	1.0001451969146729
48	224.85949206352234	pulse	0	t		46.0	2.5	/experiments/knapen_AOT/AOT_stimuli/rescaled_final/0298_rv.mp4	0.0	248.8416781425476	
48	225.68348908424377	movie	1		244	46.0	2.5	/experiments/knapen_AOT/AOT_stimuli/rescaled_final/0298_rv.mp4	0.0	249.66567516326904	2.500386953353882
48	226.4598081111908	pulse	1	t		46.0	2.5	/experiments/knapen_AOT/AOT_stimuli/rescaled_final/0298_rv.mp4	0.0	250.44199419021606	
48	228.06892704963684	pulse	1	t		46.0	2.5	/experiments/knapen_AOT/AOT_stimuli/rescaled_final/0298_rv.mp4	0.0	252.0511131286621	
48	228.18387603759766	fix_post	2		12	46.0	2.5	/experiments/knapen_AOT/AOT_stimuli/rescaled_final/0298_rv.mp4	0.0	252.16606211662292	0.09998798370361328
49	228.28386402130127	fix_pre	0		120	47.0	2.5	/experiments/knapen_AOT/AOT_stimuli/rescaled_final/0509_rv.mp4	0.0	252.26605010032654	1.0001740455627441
49	229.284038066864	movie	1		246	47.0	2.5	/experiments/knapen_AOT/AOT_stimuli/rescaled_final/0509_rv.mp4	0.0	253.26622414588928	2.4920270442962646
49	229.65919399261475	pulse	1	t		47.0	2.5	/experiments/knapen_AOT/AOT_stimuli/rescaled_final/0509_rv.mp4	0.0	253.64138007164001	
49	231.25953006744385	pulse	1	t		47.0	2.5	/experiments/knapen_AOT/AOT_stimuli/rescaled_final/0509_rv.mp4	0.0	255.24171614646912	
49	231.77606511116028	fix_post	2		12	47.0	2.5	/experiments/knapen_AOT/AOT_stimuli/rescaled_final/0509_rv.mp4	0.0	255.75825119018555	0.10009098052978516
50	231.87615609169006	fix_pre	0		119	48.0	2.5	blank	1.0	255.85834217071533	0.9917178153991699
50	232.85984110832214	pulse	0	t		48.0	2.5	blank	1.0	256.8420271873474	
50	232.86787390708923	movie	1		301	48.0	2.5	blank	1.0	256.8500599861145	2.5086801052093506
50	234.4599370956421	pulse	1	t		48.0	2.5	blank	1.0	258.44212317466736	
50	235.37655401229858	fix_post	2		12	48.0	2.5	blank	1.0	259.35874009132385	0.10003805160522461
51	235.4765920639038	fix_pre	0		120	49.0	2.5	/experiments/knapen_AOT/AOT_stimuli/rescaled_final/0450_rv.mp4	0.0	259.4587781429291	1.0001699924468994
51	236.06021308898926	pulse	0	t		49.0	2.5	/experiments/knapen_AOT/AOT_stimuli/rescaled_final/0450_rv.mp4	0.0	260.0423991680145	
51	236.4767620563507	movie	1		245	49.0	2.5	/experiments/knapen_AOT/AOT_stimuli/rescaled_final/0450_rv.mp4	0.0	260.458948135376	2.501246929168701
51	237.66057896614075	pulse	1	t		49.0	2.5	/experiments/knapen_AOT/AOT_stimuli/rescaled_final/0450_rv.mp4	0.0	261.642765045166	
51	238.9780089855194	fix_post	2		10	49.0	2.5	/experiments/knapen_AOT/AOT_stimuli/rescaled_final/0450_rv.mp4	0.0	262.9601950645447	0.09912490844726562
52	239.07713389396667	fix_pre	0		120	50.0	2.5	/experiments/knapen_AOT/AOT_stimuli/rescaled_final/1275_rv.mp4	0.0	263.05931997299194	1.0001990795135498
52	239.26069808006287	pulse	0	t		50.0	2.5	/experiments/knapen_AOT/AOT_stimuli/rescaled_final/1275_rv.mp4	0.0	263.24288415908813	
52	240.07733297348022	movie	1		245	50.0	2.5	/experiments/knapen_AOT/AOT_stimuli/rescaled_final/1275_rv.mp4	0.0	264.0595190525055	2.5003209114074707
52	240.86095809936523	pulse	1	t		50.0	2.5	/experiments/knapen_AOT/AOT_stimuli/rescaled_final/1275_rv.mp4	0.0	264.8431441783905	
52	242.461177110672	pulse	1	t		50.0	2.5	/experiments/knapen_AOT/AOT_stimuli/rescaled_final/1275_rv.mp4	0.0	266.44336318969727	
52	242.5776538848877	fix_post	2		12	50.0	2.5	/experiments/knapen_AOT/AOT_stimuli/rescaled_final/1275_rv.mp4	0.0	266.55983996391296	0.10006999969482422
53	242.67772388458252	fix_pre	0		120	51.0	2.5	/experiments/knapen_AOT/AOT_stimuli/rescaled_final/1893_rv.mp4	0.0	266.6599099636078	1.0001020431518555
53	243.67782592773438	movie	1		243	51.0	2.5	/experiments/knapen_AOT/AOT_stimuli/rescaled_final/1893_rv.mp4	0.0	267.66001200675964	2.492048978805542
53	244.0618109703064	pulse	1	t		51.0	2.5	/experiments/knapen_AOT/AOT_stimuli/rescaled_final/1893_rv.mp4	0.0	268.04399704933167	
53	245.6618208885193	pulse	1	t		51.0	2.5	/experiments/knapen_AOT/AOT_stimuli/rescaled_final/1893_rv.mp4	0.0	269.64400696754456	
53	246.16987490653992	fix_post	2		12	51.0	2.5	/experiments/knapen_AOT/AOT_stimuli/rescaled_final/1893_rv.mp4	0.0	270.1520609855652	0.1000370979309082
54	246.26991200447083	fix_pre	0		120	52.0	2.5	/experiments/knapen_AOT/AOT_stimuli/rescaled_final/0465_rv.mp4	0.0	270.2520980834961	1.0001170635223389
54	247.26193594932556	pulse	0	t		52.0	2.5	/experiments/knapen_AOT/AOT_stimuli/rescaled_final/0465_rv.mp4	0.0	271.24412202835083	
54	247.27002906799316	movie	1		244	52.0	2.5	/experiments/knapen_AOT/AOT_stimuli/rescaled_final/0465_rv.mp4	0.0	271.25221514701843	2.508707046508789
54	248.86280608177185	pulse	1	t		52.0	2.5	/experiments/knapen_AOT/AOT_stimuli/rescaled_final/0465_rv.mp4	0.0	272.8449921607971	
54	249.77873611450195	fix_post	2		12	52.0	2.5	/experiments/knapen_AOT/AOT_stimuli/rescaled_final/0465_rv.mp4	0.0	273.7609221935272	0.10003185272216797
55	249.87876796722412	fix_pre	0		120	53.0	2.5	/experiments/knapen_AOT/AOT_stimuli/rescaled_final/0450_rv.mp4	0.0	273.8609540462494	1.000162124633789
55	250.46233105659485	pulse	0	t		53.0	2.5	/experiments/knapen_AOT/AOT_stimuli/rescaled_final/0450_rv.mp4	0.0	274.4445171356201	
55	250.8789300918579	movie	1		245	53.0	2.5	/experiments/knapen_AOT/AOT_stimuli/rescaled_final/0450_rv.mp4	0.0	274.8611161708832	2.500372886657715
55	252.06273007392883	pulse	1	t		53.0	2.5	/experiments/knapen_AOT/AOT_stimuli/rescaled_final/0450_rv.mp4	0.0	276.0449161529541	
55	253.37930297851562	fix_post	2		12	53.0	2.5	/experiments/knapen_AOT/AOT_stimuli/rescaled_final/0450_rv.mp4	0.0	277.3614890575409	0.09999513626098633
56	253.4792981147766	fix_pre	0		120	54.0	2.5	/experiments/knapen_AOT/AOT_stimuli/rescaled_final/1421_fw.mp4	0.0	277.4614841938019	1.0001678466796875
56	253.66291093826294	pulse	0	t		54.0	2.5	/experiments/knapen_AOT/AOT_stimuli/rescaled_final/1421_fw.mp4	0.0	277.6450970172882	
56	254.4794659614563	movie	1		243	54.0	2.5	/experiments/knapen_AOT/AOT_stimuli/rescaled_final/1421_fw.mp4	0.0	278.46165204048157	2.5003609657287598
56	255.26308393478394	pulse	1	t		54.0	2.5	/experiments/knapen_AOT/AOT_stimuli/rescaled_final/1421_fw.mp4	0.0	279.2452700138092	
56	256.86337995529175	pulse	1	t		54.0	2.5	/experiments/knapen_AOT/AOT_stimuli/rescaled_final/1421_fw.mp4	0.0	280.845566034317	
56	256.97982692718506	fix_post	2		12	54.0	2.5	/experiments/knapen_AOT/AOT_stimuli/rescaled_final/1421_fw.mp4	0.0	280.9620130062103	0.09997296333312988
57	257.0797998905182	fix_pre	0		120	55.0	2.5	blank	1.0	281.06198596954346	1.00018310546875
57	258.07998299598694	movie	1		299	55.0	2.5	blank	1.0	282.0621690750122	2.492033004760742
57	258.463632106781	pulse	1	t		55.0	2.5	blank	1.0	282.4458181858063	
57	260.0638060569763	pulse	1	t		55.0	2.5	blank	1.0	284.0459921360016	
57	260.5720160007477	fix_post	2		12	55.0	2.5	blank	1.0	284.55420207977295	0.10001993179321289
58	260.6720359325409	fix_pre	0		120	56.0	2.5	/experiments/knapen_AOT/AOT_stimuli/rescaled_final/0107_rv.mp4	0.0	284.65422201156616	1.0001640319824219
58	261.6640100479126	pulse	0	t		56.0	2.5	/experiments/knapen_AOT/AOT_stimuli/rescaled_final/0107_rv.mp4	0.0	285.64619612693787	
58	261.6721999645233	movie	1		245	56.0	2.5	/experiments/knapen_AOT/AOT_stimuli/rescaled_final/0107_rv.mp4	0.0	285.6543860435486	2.5086889266967773
58	263.2651779651642	pulse	1	t		56.0	2.5	/experiments/knapen_AOT/AOT_stimuli/rescaled_final/0107_rv.mp4	0.0	287.24736404418945	
58	264.1808888912201	fix_post	2		12	56.0	2.5	/experiments/knapen_AOT/AOT_stimuli/rescaled_final/0107_rv.mp4	0.0	288.16307497024536	0.10000801086425781
59	264.28089690208435	fix_pre	0		120	57.0	2.5	/experiments/knapen_AOT/AOT_stimuli/rescaled_final/0615_fw.mp4	0.0	288.2630829811096	1.0001699924468994
59	264.8644940853119	pulse	0	t		57.0	2.5	/experiments/knapen_AOT/AOT_stimuli/rescaled_final/0615_fw.mp4	0.0	288.84668016433716	
59	265.28106689453125	movie	1		243	57.0	2.5	/experiments/knapen_AOT/AOT_stimuli/rescaled_final/0615_fw.mp4	0.0	289.2632529735565	2.5003671646118164
59	266.4649848937988	pulse	1	t		57.0	2.5	/experiments/knapen_AOT/AOT_stimuli/rescaled_final/0615_fw.mp4	0.0	290.4471709728241	
59	267.78143405914307	fix_post	2		12	57.0	2.5	/experiments/knapen_AOT/AOT_stimuli/rescaled_final/0615_fw.mp4	0.0	291.76362013816833	0.10001802444458008
60	267.88145208358765	fix_pre	0		120	58.0	2.5	/experiments/knapen_AOT/AOT_stimuli/rescaled_final/0044_fw.mp4	0.0	291.8636381626129	1.0001440048217773
60	268.06500601768494	pulse	0	t		58.0	2.5	/experiments/knapen_AOT/AOT_stimuli/rescaled_final/0044_fw.mp4	0.0	292.0471920967102	
60	268.8815960884094	movie	1		245	58.0	2.5	/experiments/knapen_AOT/AOT_stimuli/rescaled_final/0044_fw.mp4	0.0	292.8637821674347	2.5003628730773926
60	269.6654269695282	pulse	1	t		58.0	2.5	/experiments/knapen_AOT/AOT_stimuli/rescaled_final/0044_fw.mp4	0.0	293.64761304855347	
60	271.2654769420624	pulse	1	t		58.0	2.5	/experiments/knapen_AOT/AOT_stimuli/rescaled_final/0044_fw.mp4	0.0	295.24766302108765	
60	271.3819589614868	fix_post	2		12	58.0	2.5	/experiments/knapen_AOT/AOT_stimuli/rescaled_final/0044_fw.mp4	0.0	295.3641450405121	0.10004115104675293
61	271.48200011253357	fix_pre	0		120	59.0	2.5	/experiments/knapen_AOT/AOT_stimuli/rescaled_final/1887_rv.mp4	0.0	295.46418619155884	1.0001368522644043
61	272.482136964798	movie	1		244	59.0	2.5	/experiments/knapen_AOT/AOT_stimuli/rescaled_final/1887_rv.mp4	0.0	296.46432304382324	2.492027997970581
61	272.8662910461426	pulse	1	t		59.0	2.5	/experiments/knapen_AOT/AOT_stimuli/rescaled_final/1887_rv.mp4	0.0	296.84847712516785	
61	274.45864391326904	pulse	1	t		59.0	2.5	/experiments/knapen_AOT/AOT_stimuli/rescaled_final/1887_rv.mp4	0.0	298.4408299922943	
61	274.97416496276855	fix_post	2		12	59.0	2.5	/experiments/knapen_AOT/AOT_stimuli/rescaled_final/1887_rv.mp4	0.0	298.9563510417938	0.10006999969482422
62	275.0742349624634	fix_pre	0		120	60.0	2.5	/experiments/knapen_AOT/AOT_stimuli/rescaled_final/1861_fw.mp4	0.0	299.05642104148865	1.0000970363616943
62	276.06616401672363	pulse	0	t		60.0	2.5	/experiments/knapen_AOT/AOT_stimuli/rescaled_final/1861_fw.mp4	0.0	300.0483500957489	
62	276.0743319988251	movie	1		245	60.0	2.5	/experiments/knapen_AOT/AOT_stimuli/rescaled_final/1861_fw.mp4	0.0	300.05651807785034	2.5086939334869385
62	277.66696405410767	pulse	1	t		60.0	2.5	/experiments/knapen_AOT/AOT_stimuli/rescaled_final/1861_fw.mp4	0.0	301.64915013313293	
62	278.583025932312	fix_post	2		12	60.0	2.5	/experiments/knapen_AOT/AOT_stimuli/rescaled_final/1861_fw.mp4	0.0	302.5652120113373	0.10003495216369629
63	278.6830608844757	fix_pre	0		120	61.0	2.5	/experiments/knapen_AOT/AOT_stimuli/rescaled_final/2152_fw.mp4	0.0	302.665246963501	1.0001730918884277
63	279.2594668865204	pulse	0	t		61.0	2.5	/experiments/knapen_AOT/AOT_stimuli/rescaled_final/2152_fw.mp4	0.0	303.24165296554565	
63	279.68323397636414	movie	1		243	61.0	2.5	/experiments/knapen_AOT/AOT_stimuli/rescaled_final/2152_fw.mp4	0.0	303.6654200553894	2.5003669261932373
63	280.85934710502625	pulse	1	t		61.0	2.5	/experiments/knapen_AOT/AOT_stimuli/rescaled_final/2152_fw.mp4	0.0	304.8415331840515	
63	282.1836009025574	fix_post	2		12	61.0	2.5	/experiments/knapen_AOT/AOT_stimuli/rescaled_final/2152_fw.mp4	0.0	306.16578698158264	0.10003900527954102
64	282.2836399078369	fix_pre	0		120	62.0	2.5	/experiments/knapen_AOT/AOT_stimuli/rescaled_final/1424_rv.mp4	0.0	306.2658259868622	1.0001490116119385
64	282.45892310142517	pulse	0	t		62.0	2.5	/experiments/knapen_AOT/AOT_stimuli/rescaled_final/1424_rv.mp4	0.0	306.44110918045044	
64	283.28378891944885	movie	1		245	62.0	2.5	/experiments/knapen_AOT/AOT_stimuli/rescaled_final/1424_rv.mp4	0.0	307.2659749984741	2.50032114982605
64	284.0589990615845	pulse	1	t		62.0	2.5	/experiments/knapen_AOT/AOT_stimuli/rescaled_final/1424_rv.mp4	0.0	308.04118514060974	
64	285.6592700481415	pulse	1	t		62.0	2.5	/experiments/knapen_AOT/AOT_stimuli/rescaled_final/1424_rv.mp4	0.0	309.64145612716675	
64	285.7841100692749	fix_post	2		12	62.0	2.5	/experiments/knapen_AOT/AOT_stimuli/rescaled_final/1424_rv.mp4	0.0	309.76629614830017	0.10002899169921875
65	285.8841390609741	fix_pre	0		120	63.0	2.5	blank	1.0	309.8663251399994	1.0002498626708984
65	286.884388923645	movie	1		299	63.0	2.5	blank	1.0	310.8665750026703	2.4919590950012207
65	287.25964188575745	pulse	1	t		63.0	2.5	blank	1.0	311.2418279647827	
65	288.8598039150238	pulse	1	t		63.0	2.5	blank	1.0	312.8419899940491	
65	289.37634801864624	fix_post	2		12	63.0	2.5	blank	1.0	313.3585340976715	0.10000300407409668
66	289.47635102272034	fix_pre	0		119	64.0	2.5	/experiments/knapen_AOT/AOT_stimuli/rescaled_final/1164_fw.mp4	0.0	313.4585371017456	0.9918150901794434
66	290.4599840641022	pulse	0	t		64.0	2.5	/experiments/knapen_AOT/AOT_stimuli/rescaled_final/1164_fw.mp4	0.0	314.44217014312744	
66	290.4681661128998	movie	1		245	64.0	2.5	/experiments/knapen_AOT/AOT_stimuli/rescaled_final/1164_fw.mp4	0.0	314.45035219192505	2.508683919906616
66	292.06078696250916	pulse	1	t		64.0	2.5	/experiments/knapen_AOT/AOT_stimuli/rescaled_final/1164_fw.mp4	0.0	316.0429730415344	
66	292.9768500328064	fix_post	2		12	64.0	2.5	/experiments/knapen_AOT/AOT_stimuli/rescaled_final/1164_fw.mp4	0.0	316.95903611183167	0.10003304481506348
67	293.07688307762146	fix_pre	0		120	65.0	2.5	/experiments/knapen_AOT/AOT_stimuli/rescaled_final/1887_rv.mp4	0.0	317.05906915664673	1.0001578330993652
67	293.6606390476227	pulse	0	t		65.0	2.5	/experiments/knapen_AOT/AOT_stimuli/rescaled_final/1887_rv.mp4	0.0	317.64282512664795	
67	294.0770409107208	movie	1		245	65.0	2.5	/experiments/knapen_AOT/AOT_stimuli/rescaled_final/1887_rv.mp4	0.0	318.0592269897461	2.500392198562622
67	295.26088309288025	pulse	1	t		65.0	2.5	/experiments/knapen_AOT/AOT_stimuli/rescaled_final/1887_rv.mp4	0.0	319.2430691719055	
67	296.57743310928345	fix_post	2		12	65.0	2.5	/experiments/knapen_AOT/AOT_stimuli/rescaled_final/1887_rv.mp4	0.0	320.5596191883087	0.10004186630249023
68	296.67747497558594	fix_pre	0		120	66.0	2.5	/experiments/knapen_AOT/AOT_stimuli/rescaled_final/1495_rv.mp4	0.0	320.6596610546112	1.0001029968261719
68	296.8609240055084	pulse	0	t		66.0	2.5	/experiments/knapen_AOT/AOT_stimuli/rescaled_final/1495_rv.mp4	0.0	320.8431100845337	
68	297.6775779724121	movie	1		247	66.0	2.5	/experiments/knapen_AOT/AOT_stimuli/rescaled_final/1495_rv.mp4	0.0	321.6597640514374	2.500385046005249
68	298.4612739086151	pulse	1	t		66.0	2.5	/experiments/knapen_AOT/AOT_stimuli/rescaled_final/1495_rv.mp4	0.0	322.4434599876404	
68	300.0614809989929	pulse	1	t		66.0	2.5	/experiments/knapen_AOT/AOT_stimuli/rescaled_final/1495_rv.mp4	0.0	324.0436670780182	
68	300.17796301841736	fix_post	2		12	66.0	2.5	/experiments/knapen_AOT/AOT_stimuli/rescaled_final/1495_rv.mp4	0.0	324.1601490974426	0.10000300407409668
69	300.27796602249146	fix_pre	0		117	67.0	2.5	/experiments/knapen_AOT/AOT_stimuli/rescaled_final/1444_rv.mp4	0.0	324.2601521015167	0.9917900562286377
69	301.2697560787201	movie	1		245	67.0	2.5	/experiments/knapen_AOT/AOT_stimuli/rescaled_final/1444_rv.mp4	0.0	325.25194215774536	2.500377893447876
69	301.66177010536194	pulse	1	t		67.0	2.5	/experiments/knapen_AOT/AOT_stimuli/rescaled_final/1444_rv.mp4	0.0	325.6439561843872	
69	303.26193594932556	pulse	1	t		67.0	2.5	/experiments/knapen_AOT/AOT_stimuli/rescaled_final/1444_rv.mp4	0.0	327.24412202835083	
69	303.77013397216797	fix_post	2		12	67.0	2.5	/experiments/knapen_AOT/AOT_stimuli/rescaled_final/1444_rv.mp4	0.0	327.75232005119324	0.10001611709594727
70	303.8701500892639	fix_pre	0		120	68.0	2.5	/experiments/knapen_AOT/AOT_stimuli/rescaled_final/0586_fw.mp4	0.0	327.8523361682892	1.0001978874206543
70	304.86217498779297	pulse	0	t		68.0	2.5	/experiments/knapen_AOT/AOT_stimuli/rescaled_final/0586_fw.mp4	0.0	328.84436106681824	
70	304.87034797668457	movie	1		246	68.0	2.5	/experiments/knapen_AOT/AOT_stimuli/rescaled_final/0586_fw.mp4	0.0	328.85253405570984	2.5086610317230225
70	306.46314096450806	pulse	1	t		68.0	2.5	/experiments/knapen_AOT/AOT_stimuli/rescaled_final/0586_fw.mp4	0.0	330.4453270435333	
70	307.3790090084076	fix_post	2		12	68.0	2.5	/experiments/knapen_AOT/AOT_stimuli/rescaled_final/0586_fw.mp4	0.0	331.36119508743286	0.10004711151123047
71	307.4790561199188	fix_pre	0		120	69.0	2.5	blank	1.0	331.4612421989441	1.0001249313354492
71	308.06276988983154	pulse	0	t		69.0	2.5	blank	1.0	332.0449559688568	
71	308.4791810512543	movie	1		300	69.0	2.5	blank	1.0	332.46136713027954	2.500335931777954
71	309.66283988952637	pulse	1	t		69.0	2.5	blank	1.0	333.64502596855164	
71	310.9795169830322	fix_post	2		12	69.0	2.5	blank	1.0	334.9617030620575	0.10006403923034668
72	311.0795810222626	fix_pre	0		120	70.0	2.5	/experiments/knapen_AOT/AOT_stimuli/rescaled_final/0656_rv.mp4	0.0	335.06176710128784	1.000143051147461
72	311.2631049156189	pulse	0	t		70.0	2.5	/experiments/knapen_AOT/AOT_stimuli/rescaled_final/0656_rv.mp4	0.0	335.24529099464417	
72	312.07972407341003	movie	1		245	70.0	2.5	/experiments/knapen_AOT/AOT_stimuli/rescaled_final/0656_rv.mp4	0.0	336.0619101524353	2.5003559589385986
72	312.8634600639343	pulse	1	t		70.0	2.5	/experiments/knapen_AOT/AOT_stimuli/rescaled_final/0656_rv.mp4	0.0	336.8456461429596	
72	314.46125197410583	pulse	1	t		70.0	2.5	/experiments/knapen_AOT/AOT_stimuli/rescaled_final/0656_rv.mp4	0.0	338.4434380531311	
72	314.58008003234863	fix_post	2		12	70.0	2.5	/experiments/knapen_AOT/AOT_stimuli/rescaled_final/0656_rv.mp4	0.0	338.5622661113739	0.10006093978881836
73	314.68014097213745	fix_pre	0		119	71.0	2.5	/experiments/knapen_AOT/AOT_stimuli/rescaled_final/1786_rv.mp4	0.0	338.6623270511627	0.9917631149291992
73	315.67190408706665	movie	1		245	71.0	2.5	/experiments/knapen_AOT/AOT_stimuli/rescaled_final/1786_rv.mp4	0.0	339.6540901660919	2.5003600120544434
73	316.0600619316101	pulse	1	t		71.0	2.5	/experiments/knapen_AOT/AOT_stimuli/rescaled_final/1786_rv.mp4	0.0	340.0422480106354	
73	317.66404604911804	pulse	1	t		71.0	2.5	/experiments/knapen_AOT/AOT_stimuli/rescaled_final/1786_rv.mp4	0.0	341.6462321281433	
73	318.1722640991211	fix_post	2		12	71.0	2.5	/experiments/knapen_AOT/AOT_stimuli/rescaled_final/1786_rv.mp4	0.0	342.15445017814636	0.10004186630249023
74	318.2723059654236	fix_pre	0		120	72.0	2.5	/experiments/knapen_AOT/AOT_stimuli/rescaled_final/0646_fw.mp4	0.0	342.25449204444885	1.0001461505889893
74	319.2644031047821	pulse	0	t		72.0	2.5	/experiments/knapen_AOT/AOT_stimuli/rescaled_final/0646_fw.mp4	0.0	343.2465891838074	
74	319.2724521160126	movie	1		246	72.0	2.5	/experiments/knapen_AOT/AOT_stimuli/rescaled_final/0646_fw.mp4	0.0	343.25463819503784	2.508798837661743
74	320.86500811576843	pulse	1	t		72.0	2.5	/experiments/knapen_AOT/AOT_stimuli/rescaled_final/0646_fw.mp4	0.0	344.8471941947937	
74	321.7812509536743	fix_post	2		12	72.0	2.5	/experiments/knapen_AOT/AOT_stimuli/rescaled_final/0646_fw.mp4	0.0	345.7634370326996	0.09992408752441406
75	321.88117504119873	fix_pre	0		120	73.0	2.5	/experiments/knapen_AOT/AOT_stimuli/rescaled_final/2151_fw.mp4	0.0	345.863361120224	1.000133991241455
75	322.4649078845978	pulse	0	t		73.0	2.5	/experiments/knapen_AOT/AOT_stimuli/rescaled_final/2151_fw.mp4	0.0	346.44709396362305	
75	322.8813090324402	movie	1		245	73.0	2.5	/experiments/knapen_AOT/AOT_stimuli/rescaled_final/2151_fw.mp4	0.0	346.86349511146545	2.500393867492676
75	324.06515288352966	pulse	1	t		73.0	2.5	/experiments/knapen_AOT/AOT_stimuli/rescaled_final/2151_fw.mp4	0.0	348.04733896255493	
75	325.38170289993286	fix_post	2		12	73.0	2.5	/experiments/knapen_AOT/AOT_stimuli/rescaled_final/2151_fw.mp4	0.0	349.36388897895813	0.10001015663146973
76	325.48171305656433	fix_pre	0		120	74.0	2.5	/experiments/knapen_AOT/AOT_stimuli/rescaled_final/0586_rv.mp4	0.0	349.4638991355896	1.0001509189605713
76	325.66522693634033	pulse	0	t		74.0	2.5	/experiments/knapen_AOT/AOT_stimuli/rescaled_final/0586_rv.mp4	0.0	349.6474130153656	
76	326.4818639755249	movie	1		244	74.0	2.5	/experiments/knapen_AOT/AOT_stimuli/rescaled_final/0586_rv.mp4	0.0	350.46405005455017	2.5003910064697266
76	327.2655689716339	pulse	1	t		74.0	2.5	/experiments/knapen_AOT/AOT_stimuli/rescaled_final/0586_rv.mp4	0.0	351.2477550506592	
76	328.86578011512756	pulse	1	t		74.0	2.5	/experiments/knapen_AOT/AOT_stimuli/rescaled_final/0586_rv.mp4	0.0	352.84796619415283	
76	328.98225498199463	fix_post	2		12	74.0	2.5	/experiments/knapen_AOT/AOT_stimuli/rescaled_final/0586_rv.mp4	0.0	352.9644410610199	0.09998297691345215
77	329.0822379589081	fix_pre	0		120	75.0	2.5	blank	1.0	353.06442403793335	1.0001349449157715
77	330.08237290382385	movie	1		299	75.0	2.5	blank	1.0	354.0645589828491	2.4920620918273926
77	330.4659740924835	pulse	1	t		75.0	2.5	blank	1.0	354.4481601715088	
77	332.0661549568176	pulse	1	t		75.0	2.5	blank	1.0	356.0483410358429	
77	332.57443499565125	fix_post	2		12	75.0	2.5	blank	1.0	356.5566210746765	0.10000491142272949
78	332.674439907074	fix_pre	0		120	76.0	2.5	/experiments/knapen_AOT/AOT_stimuli/rescaled_final/0597_rv.mp4	0.0	356.65662598609924	1.0001461505889893
78	333.6665720939636	pulse	0	t		76.0	2.5	/experiments/knapen_AOT/AOT_stimuli/rescaled_final/0597_rv.mp4	0.0	357.6487581729889	
78	333.67458605766296	movie	1		247	76.0	2.5	/experiments/knapen_AOT/AOT_stimuli/rescaled_final/0597_rv.mp4	0.0	357.65677213668823	2.508746862411499
78	335.2672679424286	pulse	1	t		76.0	2.5	/experiments/knapen_AOT/AOT_stimuli/rescaled_final/0597_rv.mp4	0.0	359.24945402145386	
78	336.18333292007446	fix_post	2		12	76.0	2.5	/experiments/knapen_AOT/AOT_stimuli/rescaled_final/0597_rv.mp4	0.0	360.16551899909973	0.09998798370361328
79	336.2833209037781	fix_pre	0		120	77.0	2.5	/experiments/knapen_AOT/AOT_stimuli/rescaled_final/1858_fw.mp4	0.0	360.26550698280334	1.000128984451294
79	336.859503030777	pulse	0	t		77.0	2.5	/experiments/knapen_AOT/AOT_stimuli/rescaled_final/1858_fw.mp4	0.0	360.84168910980225	
79	337.28344988822937	movie	1		246	77.0	2.5	/experiments/knapen_AOT/AOT_stimuli/rescaled_final/1858_fw.mp4	0.0	361.26563596725464	2.5003812313079834
79	338.4594979286194	pulse	1	t		77.0	2.5	/experiments/knapen_AOT/AOT_stimuli/rescaled_final/1858_fw.mp4	0.0	362.44168400764465	
79	339.78383111953735	fix_post	2		12	77.0	2.5	/experiments/knapen_AOT/AOT_stimuli/rescaled_final/1858_fw.mp4	0.0	363.7660171985626	0.10001683235168457
80	339.88384795188904	fix_pre	0		120	78.0	2.5	/experiments/knapen_AOT/AOT_stimuli/rescaled_final/0998_fw.mp4	0.0	363.8660340309143	1.000148057937622
80	340.0598430633545	pulse	0	t		78.0	2.5	/experiments/knapen_AOT/AOT_stimuli/rescaled_final/0998_fw.mp4	0.0	364.04202914237976	
80	340.88399600982666	movie	1		245	78.0	2.5	/experiments/knapen_AOT/AOT_stimuli/rescaled_final/0998_fw.mp4	0.0	364.86618208885193	2.500380039215088
80	341.66023302078247	pulse	1	t		78.0	2.5	/experiments/knapen_AOT/AOT_stimuli/rescaled_final/0998_fw.mp4	0.0	365.64241909980774	
80	343.2596890926361	pulse	1	t		78.0	2.5	/experiments/knapen_AOT/AOT_stimuli/rescaled_final/0998_fw.mp4	0.0	367.2418751716614	
80	343.38437604904175	fix_post	2		12	78.0	2.5	/experiments/knapen_AOT/AOT_stimuli/rescaled_final/0998_fw.mp4	0.0	367.366562128067	0.10001301765441895
81	343.48438906669617	fix_pre	0		120	79.0	2.5	/experiments/knapen_AOT/AOT_stimuli/rescaled_final/1723_fw.mp4	0.0	367.46657514572144	1.0001649856567383
81	344.4845540523529	movie	1		243	79.0	2.5	/experiments/knapen_AOT/AOT_stimuli/rescaled_final/1723_fw.mp4	0.0	368.4667401313782	2.4919798374176025
81	344.8597819805145	pulse	1	t		79.0	2.5	/experiments/knapen_AOT/AOT_stimuli/rescaled_final/1723_fw.mp4	0.0	368.8419680595398	
81	346.46012806892395	pulse	1	t		79.0	2.5	/experiments/knapen_AOT/AOT_stimuli/rescaled_final/1723_fw.mp4	0.0	370.4423141479492	
81	346.9765338897705	fix_post	2		12	79.0	2.5	/experiments/knapen_AOT/AOT_stimuli/rescaled_final/1723_fw.mp4	0.0	370.9587199687958	0.1000511646270752
82	347.0765850543976	fix_pre	0		119	80.0	2.5	/experiments/knapen_AOT/AOT_stimuli/rescaled_final/0569_fw.mp4	0.0	371.05877113342285	0.9918198585510254
82	348.06034111976624	pulse	0	t		80.0	2.5	/experiments/knapen_AOT/AOT_stimuli/rescaled_final/0569_fw.mp4	0.0	372.0425271987915	
82	348.0684049129486	movie	1		246	80.0	2.5	/experiments/knapen_AOT/AOT_stimuli/rescaled_final/0569_fw.mp4	0.0	372.0505909919739	2.5086851119995117
82	349.66114592552185	pulse	1	t		80.0	2.5	/experiments/knapen_AOT/AOT_stimuli/rescaled_final/0569_fw.mp4	0.0	373.6433320045471	
82	350.5770900249481	fix_post	2		12	80.0	2.5	/experiments/knapen_AOT/AOT_stimuli/rescaled_final/0569_fw.mp4	0.0	374.5592761039734	0.10004091262817383
83	350.6771309375763	fix_pre	0		120	81.0	2.5	/experiments/knapen_AOT/AOT_stimuli/rescaled_final/0975_rv.mp4	0.0	374.65931701660156	1.000216007232666
83	351.26077103614807	pulse	0	t		81.0	2.5	/experiments/knapen_AOT/AOT_stimuli/rescaled_final/0975_rv.mp4	0.0	375.24295711517334	
83	351.67734694480896	movie	1		243	81.0	2.5	/experiments/knapen_AOT/AOT_stimuli/rescaled_final/0975_rv.mp4	0.0	375.65953302383423	2.500300168991089
83	352.86099004745483	pulse	1	t		81.0	2.5	/experiments/knapen_AOT/AOT_stimuli/rescaled_final/0975_rv.mp4	0.0	376.8431761264801	
83	354.17764711380005	fix_post	2		12	81.0	2.5	/experiments/knapen_AOT/AOT_stimuli/rescaled_final/0975_rv.mp4	0.0	378.1598331928253	0.10004591941833496
84	354.2776930332184	fix_pre	0		120	82.0	2.5	/experiments/knapen_AOT/AOT_stimuli/rescaled_final/0509_rv.mp4	0.0	378.25987911224365	1.0001239776611328
84	354.4612820148468	pulse	0	t		82.0	2.5	/experiments/knapen_AOT/AOT_stimuli/rescaled_final/0509_rv.mp4	0.0	378.44346809387207	
84	355.2778170108795	movie	1		246	82.0	2.5	/experiments/knapen_AOT/AOT_stimuli/rescaled_final/0509_rv.mp4	0.0	379.2600030899048	2.500396966934204
84	356.06143403053284	pulse	1	t		82.0	2.5	/experiments/knapen_AOT/AOT_stimuli/rescaled_final/0509_rv.mp4	0.0	380.0436201095581	
84	357.6617500782013	pulse	1	t		82.0	2.5	/experiments/knapen_AOT/AOT_stimuli/rescaled_final/0509_rv.mp4	0.0	381.64393615722656	
84	357.7782139778137	fix_post	2		12	82.0	2.5	/experiments/knapen_AOT/AOT_stimuli/rescaled_final/0509_rv.mp4	0.0	381.760400056839	0.09999990463256836
85	357.8782138824463	fix_pre	0		120	83.0	2.5	blank	1.0	381.86039996147156	1.0001530647277832
85	358.8783669471741	movie	1		299	83.0	2.5	blank	1.0	382.86055302619934	2.492037057876587
85	359.2620298862457	pulse	1	t		83.0	2.5	blank	1.0	383.244215965271	
85	360.86228489875793	pulse	1	t		83.0	2.5	blank	1.0	384.8444709777832	
85	361.37040400505066	fix_post	2		12	83.0	2.5	blank	1.0	385.3525900840759	0.09999299049377441
87	361.47039699554443	stim	0		1716					385.4525830745697	14.30223298072815
87	362.4624979496002	pulse	0	t						386.4446840286255	
87	364.0626549720764	pulse	0	t						388.0448410511017	
87	365.6629331111908	pulse	0	t						389.64511919021606	
87	367.26320910453796	pulse	0	t						391.24539518356323	
87	368.86343002319336	pulse	0	t						392.8456161022186	
87	370.46364188194275	pulse	0	t						394.445827960968	
87	372.06380105018616	pulse	0	t						396.0459871292114	
87	373.6640090942383	pulse	0	t						397.64619517326355	
87	375.26448011398315	pulse	0	t						399.2466661930084	
