trial_nr	onset	event_type	phase	response	nr_frames	movie_index	movie_duration	movie_file	blank	onset_abs	duration
0	0.16655588150024414	stim	0		7					16.936290979385376	0.05815005302429199
0	0.21665263175964355	response	0	space						16.986387729644775	
1	0.22470593452453613	stim	0		4647					16.994441032409668	38.74138593673706
1	38.956249952316284	pulse	0	t						55.725985050201416	
1	38.9660918712616	stim	1		1716					55.73582696914673	14.308292388916016
1	40.547706842422485	pulse	1	t						57.31744194030762	
1	42.14793658256531	pulse	1	t						58.91767168045044	
1	43.74809646606445	pulse	1	t						60.517831563949585	
1	45.34836959838867	pulse	1	t						62.118104696273804	
1	46.94865036010742	pulse	1	t						63.718385457992554	
1	48.54887247085571	pulse	1	t						65.31860756874084	
1	50.14906191825867	pulse	1	t						66.9187970161438	
1	51.74931311607361	pulse	1	t						68.51904821395874	
2	53.27438426017761	fix_pre	0		10	0.0	2.5	/experiments/knapen_AOT/AOT_stimuli/rescaled_final/0077_rv.mp4	0.0	70.04411935806274	0.10001182556152344
2	53.34964609146118	pulse	0	t		0.0	2.5	/experiments/knapen_AOT/AOT_stimuli/rescaled_final/0077_rv.mp4	0.0	70.11938118934631	
2	53.374396085739136	movie	1		285	0.0	2.5	/experiments/knapen_AOT/AOT_stimuli/rescaled_final/0077_rv.mp4	0.0	70.14413118362427	2.492058277130127
2	54.94821000099182	pulse	1	t		0.0	2.5	/experiments/knapen_AOT/AOT_stimuli/rescaled_final/0077_rv.mp4	0.0	71.71794509887695	
2	55.86645436286926	fix_post	2		12	0.0	2.5	/experiments/knapen_AOT/AOT_stimuli/rescaled_final/0077_rv.mp4	0.0	72.6361894607544	0.10000300407409668
3	55.96645736694336	fix_pre	0		120	1.0	2.5	/experiments/knapen_AOT/AOT_stimuli/rescaled_final/0650_fw.mp4	0.0	72.73619246482849	1.0084819793701172
3	56.550119400024414	pulse	0	t		1.0	2.5	/experiments/knapen_AOT/AOT_stimuli/rescaled_final/0650_fw.mp4	0.0	73.31985449790955	
3	56.97493934631348	movie	1		288	1.0	2.5	/experiments/knapen_AOT/AOT_stimuli/rescaled_final/0650_fw.mp4	0.0	73.74467444419861	2.492022752761841
3	58.14825773239136	pulse	1	t		1.0	2.5	/experiments/knapen_AOT/AOT_stimuli/rescaled_final/0650_fw.mp4	0.0	74.91799283027649	
3	59.46696209907532	fix_post	2		12	1.0	2.5	/experiments/knapen_AOT/AOT_stimuli/rescaled_final/0650_fw.mp4	0.0	76.23669719696045	0.10002493858337402
4	59.56698703765869	fix_pre	0		120	2.0	2.5	/experiments/knapen_AOT/AOT_stimuli/rescaled_final/1746_rv.mp4	0.0	76.33672213554382	1.0084905624389648
4	59.75051426887512	pulse	0	t		2.0	2.5	/experiments/knapen_AOT/AOT_stimuli/rescaled_final/1746_rv.mp4	0.0	76.52024936676025	
4	60.575477600097656	movie	1		274	2.0	2.5	/experiments/knapen_AOT/AOT_stimuli/rescaled_final/1746_rv.mp4	0.0	77.34521269798279	2.492077112197876
4	61.348448753356934	pulse	1	t		2.0	2.5	/experiments/knapen_AOT/AOT_stimuli/rescaled_final/1746_rv.mp4	0.0	78.11818385124207	
4	62.94897508621216	pulse	1	t		2.0	2.5	/experiments/knapen_AOT/AOT_stimuli/rescaled_final/1746_rv.mp4	0.0	79.71871018409729	
4	63.06755471229553	fix_post	2		12	2.0	2.5	/experiments/knapen_AOT/AOT_stimuli/rescaled_final/1746_rv.mp4	0.0	79.83728981018066	0.0999751091003418
5	63.167529821395874	fix_pre	0		120	3.0	2.5	/experiments/knapen_AOT/AOT_stimuli/rescaled_final/0466_fw.mp4	0.0	79.937264919281	1.0085375308990479
5	64.17606735229492	movie	1		284	3.0	2.5	/experiments/knapen_AOT/AOT_stimuli/rescaled_final/0466_fw.mp4	0.0	80.94580245018005	2.4919698238372803
5	64.54969453811646	pulse	1	t		3.0	2.5	/experiments/knapen_AOT/AOT_stimuli/rescaled_final/0466_fw.mp4	0.0	81.31942963600159	
5	66.15283560752869	pulse	1	t		3.0	2.5	/experiments/knapen_AOT/AOT_stimuli/rescaled_final/0466_fw.mp4	0.0	82.92257070541382	
5	66.6680371761322	fix_post	2		12	3.0	2.5	/experiments/knapen_AOT/AOT_stimuli/rescaled_final/0466_fw.mp4	0.0	83.43777227401733	0.10002946853637695
6	66.76806664466858	fix_pre	0		119	4.0	2.5	/experiments/knapen_AOT/AOT_stimuli/rescaled_final/0488_fw.mp4	0.0	83.53780174255371	1.0001559257507324
6	67.7517716884613	pulse	0	t		4.0	2.5	/experiments/knapen_AOT/AOT_stimuli/rescaled_final/0488_fw.mp4	0.0	84.52150678634644	
6	67.76822257041931	movie	1		276	4.0	2.5	/experiments/knapen_AOT/AOT_stimuli/rescaled_final/0488_fw.mp4	0.0	84.53795766830444	2.500426769256592
6	69.3501648902893	pulse	1	t		4.0	2.5	/experiments/knapen_AOT/AOT_stimuli/rescaled_final/0488_fw.mp4	0.0	86.11989998817444	
6	70.2686493396759	fix_post	2		12	4.0	2.5	/experiments/knapen_AOT/AOT_stimuli/rescaled_final/0488_fw.mp4	0.0	87.03838443756104	0.09996914863586426
7	70.36861848831177	fix_pre	0		120	5.0	2.5	blank	1.0	87.1383535861969	1.0001366138458252
7	70.95223641395569	pulse	0	t		5.0	2.5	blank	1.0	87.72197151184082	
7	71.36875510215759	movie	1		300	5.0	2.5	blank	1.0	88.13849020004272	2.500364303588867
7	72.55254888534546	pulse	1	t		5.0	2.5	blank	1.0	89.32228398323059	
7	73.86911940574646	fix_post	2		12	5.0	2.5	blank	1.0	90.63885450363159	0.10014510154724121
8	73.9692645072937	fix_pre	0		120	6.0	2.5	/experiments/knapen_AOT/AOT_stimuli/rescaled_final/0436_fw.mp4	0.0	90.73899960517883	1.008399486541748
8	74.15278005599976	pulse	0	t		6.0	2.5	/experiments/knapen_AOT/AOT_stimuli/rescaled_final/0436_fw.mp4	0.0	90.92251515388489	
8	74.97766399383545	movie	1		279	6.0	2.5	/experiments/knapen_AOT/AOT_stimuli/rescaled_final/0436_fw.mp4	0.0	91.74739909172058	2.4920225143432617
8	75.75064992904663	pulse	1	t		6.0	2.5	/experiments/knapen_AOT/AOT_stimuli/rescaled_final/0436_fw.mp4	0.0	92.52038502693176	
8	77.35120725631714	pulse	1	t		6.0	2.5	/experiments/knapen_AOT/AOT_stimuli/rescaled_final/0436_fw.mp4	0.0	94.12094235420227	
8	77.46968650817871	fix_post	2		12	6.0	2.5	/experiments/knapen_AOT/AOT_stimuli/rescaled_final/0436_fw.mp4	0.0	94.23942160606384	0.10002350807189941
9	77.56971001625061	fix_pre	0		120	7.0	2.5	/experiments/knapen_AOT/AOT_stimuli/rescaled_final/1008_fw.mp4	0.0	94.33944511413574	1.008472204208374
9	78.57818222045898	movie	1		275	7.0	2.5	/experiments/knapen_AOT/AOT_stimuli/rescaled_final/1008_fw.mp4	0.0	95.34791731834412	2.492025136947632
9	78.95201444625854	pulse	1	t		7.0	2.5	/experiments/knapen_AOT/AOT_stimuli/rescaled_final/1008_fw.mp4	0.0	95.72174954414368	
9	80.54562425613403	pulse	1	t		7.0	2.5	/experiments/knapen_AOT/AOT_stimuli/rescaled_final/1008_fw.mp4	0.0	97.31535935401917	
9	81.07020735740662	fix_post	2		12	7.0	2.5	/experiments/knapen_AOT/AOT_stimuli/rescaled_final/1008_fw.mp4	0.0	97.83994245529175	0.1000208854675293
10	81.17022824287415	fix_pre	0		118	8.0	2.5	/experiments/knapen_AOT/AOT_stimuli/rescaled_final/1355_fw.mp4	0.0	97.93996334075928	0.9918529987335205
10	82.14573335647583	pulse	0	t		8.0	2.5	/experiments/knapen_AOT/AOT_stimuli/rescaled_final/1355_fw.mp4	0.0	98.91546845436096	
10	82.16208124160767	movie	1		267	8.0	2.5	/experiments/knapen_AOT/AOT_stimuli/rescaled_final/1355_fw.mp4	0.0	98.9318163394928	2.5003700256347656
10	83.7465124130249	pulse	1	t		8.0	2.5	/experiments/knapen_AOT/AOT_stimuli/rescaled_final/1355_fw.mp4	0.0	100.51624751091003	
10	84.66245126724243	fix_post	2		12	8.0	2.5	/experiments/knapen_AOT/AOT_stimuli/rescaled_final/1355_fw.mp4	0.0	101.43218636512756	0.09999370574951172
11	84.76244497299194	fix_pre	0		120	9.0	2.5	/experiments/knapen_AOT/AOT_stimuli/rescaled_final/1230_fw.mp4	0.0	101.53218007087708	1.0084939002990723
11	85.34608483314514	pulse	0	t		9.0	2.5	/experiments/knapen_AOT/AOT_stimuli/rescaled_final/1230_fw.mp4	0.0	102.11581993103027	
11	85.77093887329102	movie	1		281	9.0	2.5	/experiments/knapen_AOT/AOT_stimuli/rescaled_final/1230_fw.mp4	0.0	102.54067397117615	2.4920003414154053
11	86.94633030891418	pulse	1	t		9.0	2.5	/experiments/knapen_AOT/AOT_stimuli/rescaled_final/1230_fw.mp4	0.0	103.71606540679932	
11	88.26293921470642	fix_post	2		12	9.0	2.5	/experiments/knapen_AOT/AOT_stimuli/rescaled_final/1230_fw.mp4	0.0	105.03267431259155	0.10004281997680664
12	88.36298203468323	fix_pre	0		120	10.0	2.5	/experiments/knapen_AOT/AOT_stimuli/rescaled_final/1011_rv.mp4	0.0	105.13271713256836	1.0084939002990723
12	88.54654884338379	pulse	0	t		10.0	2.5	/experiments/knapen_AOT/AOT_stimuli/rescaled_final/1011_rv.mp4	0.0	105.31628394126892	
12	89.3714759349823	movie	1		279	10.0	2.5	/experiments/knapen_AOT/AOT_stimuli/rescaled_final/1011_rv.mp4	0.0	106.14121103286743	2.492276191711426
12	90.14678192138672	pulse	1	t		10.0	2.5	/experiments/knapen_AOT/AOT_stimuli/rescaled_final/1011_rv.mp4	0.0	106.91651701927185	
12	91.74702095985413	pulse	1	t		10.0	2.5	/experiments/knapen_AOT/AOT_stimuli/rescaled_final/1011_rv.mp4	0.0	108.51675605773926	
12	91.86375212669373	fix_post	2		12	10.0	2.5	/experiments/knapen_AOT/AOT_stimuli/rescaled_final/1011_rv.mp4	0.0	108.63348722457886	0.09992432594299316
13	91.96367645263672	fix_pre	0		120	11.0	2.5	/experiments/knapen_AOT/AOT_stimuli/rescaled_final/1334_fw.mp4	0.0	108.73341155052185	1.0083308219909668
13	92.97200727462769	movie	1		259	11.0	2.5	/experiments/knapen_AOT/AOT_stimuli/rescaled_final/1334_fw.mp4	0.0	109.74174237251282	2.4920270442962646
13	93.34730458259583	pulse	1	t		11.0	2.5	/experiments/knapen_AOT/AOT_stimuli/rescaled_final/1334_fw.mp4	0.0	110.11703968048096	
13	94.94758915901184	pulse	1	t		11.0	2.5	/experiments/knapen_AOT/AOT_stimuli/rescaled_final/1334_fw.mp4	0.0	111.71732425689697	
13	95.46403431892395	fix_post	2		12	11.0	2.5	/experiments/knapen_AOT/AOT_stimuli/rescaled_final/1334_fw.mp4	0.0	112.23376941680908	0.10001993179321289
14	95.56405425071716	fix_pre	0		119	12.0	2.5	/experiments/knapen_AOT/AOT_stimuli/rescaled_final/1699_rv.mp4	0.0	112.3337893486023	1.0001490116119385
14	96.54778003692627	pulse	0	t		12.0	2.5	/experiments/knapen_AOT/AOT_stimuli/rescaled_final/1699_rv.mp4	0.0	113.3175151348114	
14	96.5642032623291	movie	1		279	12.0	2.5	/experiments/knapen_AOT/AOT_stimuli/rescaled_final/1699_rv.mp4	0.0	113.33393836021423	2.5004334449768066
14	98.14659976959229	pulse	1	t		12.0	2.5	/experiments/knapen_AOT/AOT_stimuli/rescaled_final/1699_rv.mp4	0.0	114.91633486747742	
14	99.06463670730591	fix_post	2		12	12.0	2.5	/experiments/knapen_AOT/AOT_stimuli/rescaled_final/1699_rv.mp4	0.0	115.83437180519104	0.09995532035827637
15	99.16459202766418	fix_pre	0		120	13.0	2.5	/experiments/knapen_AOT/AOT_stimuli/rescaled_final/1386_fw.mp4	0.0	115.93432712554932	1.008533000946045
15	99.74826955795288	pulse	0	t		13.0	2.5	/experiments/knapen_AOT/AOT_stimuli/rescaled_final/1386_fw.mp4	0.0	116.51800465583801	
15	100.17312502861023	movie	1		272	13.0	2.5	/experiments/knapen_AOT/AOT_stimuli/rescaled_final/1386_fw.mp4	0.0	116.94286012649536	2.491999626159668
15	101.34635162353516	pulse	1	t		13.0	2.5	/experiments/knapen_AOT/AOT_stimuli/rescaled_final/1386_fw.mp4	0.0	118.11608672142029	
15	102.6651246547699	fix_post	2		12	13.0	2.5	/experiments/knapen_AOT/AOT_stimuli/rescaled_final/1386_fw.mp4	0.0	119.43485975265503	0.10002422332763672
16	102.76514887809753	fix_pre	0		120	14.0	2.5	blank	1.0	119.53488397598267	1.0001294612884521
16	102.9486985206604	pulse	0	t		14.0	2.5	blank	1.0	119.71843361854553	
16	103.76527833938599	movie	1		300	14.0	2.5	blank	1.0	120.53501343727112	2.5004186630249023
16	104.54893898963928	pulse	1	t		14.0	2.5	blank	1.0	121.31867408752441	
16	106.14922428131104	pulse	1	t		14.0	2.5	blank	1.0	122.91895937919617	
16	106.26569700241089	fix_post	2		12	14.0	2.5	blank	1.0	123.03543210029602	0.0999906063079834
17	106.36568760871887	fix_pre	0		120	15.0	2.5	/experiments/knapen_AOT/AOT_stimuli/rescaled_final/0475_rv.mp4	0.0	123.135422706604	1.0085220336914062
17	107.37420964241028	movie	1		257	15.0	2.5	/experiments/knapen_AOT/AOT_stimuli/rescaled_final/0475_rv.mp4	0.0	124.14394474029541	2.49212384223938
17	107.7477011680603	pulse	1	t		15.0	2.5	/experiments/knapen_AOT/AOT_stimuli/rescaled_final/0475_rv.mp4	0.0	124.51743626594543	
17	109.34814071655273	pulse	1	t		15.0	2.5	/experiments/knapen_AOT/AOT_stimuli/rescaled_final/0475_rv.mp4	0.0	126.11787581443787	
17	109.86633348464966	fix_post	2		12	15.0	2.5	/experiments/knapen_AOT/AOT_stimuli/rescaled_final/0475_rv.mp4	0.0	126.63606858253479	0.09988617897033691
18	109.96621966362	fix_pre	0		119	16.0	2.5	/experiments/knapen_AOT/AOT_stimuli/rescaled_final/1286_rv.mp4	0.0	126.73595476150513	1.0001921653747559
18	110.94993567466736	pulse	0	t		16.0	2.5	/experiments/knapen_AOT/AOT_stimuli/rescaled_final/1286_rv.mp4	0.0	127.71967077255249	
18	110.96641182899475	movie	1		281	16.0	2.5	/experiments/knapen_AOT/AOT_stimuli/rescaled_final/1286_rv.mp4	0.0	127.73614692687988	2.5003790855407715
18	112.54954171180725	pulse	1	t		16.0	2.5	/experiments/knapen_AOT/AOT_stimuli/rescaled_final/1286_rv.mp4	0.0	129.31927680969238	
18	113.46679091453552	fix_post	2		12	16.0	2.5	/experiments/knapen_AOT/AOT_stimuli/rescaled_final/1286_rv.mp4	0.0	130.23652601242065	0.10001325607299805
19	113.56680417060852	fix_pre	0		120	17.0	2.5	/experiments/knapen_AOT/AOT_stimuli/rescaled_final/1497_rv.mp4	0.0	130.33653926849365	1.0084607601165771
19	114.15062046051025	pulse	0	t		17.0	2.5	/experiments/knapen_AOT/AOT_stimuli/rescaled_final/1497_rv.mp4	0.0	130.92035555839539	
19	114.5752649307251	movie	1		278	17.0	2.5	/experiments/knapen_AOT/AOT_stimuli/rescaled_final/1497_rv.mp4	0.0	131.34500002861023	2.492037773132324
19	115.74863791465759	pulse	1	t		17.0	2.5	/experiments/knapen_AOT/AOT_stimuli/rescaled_final/1497_rv.mp4	0.0	132.51837301254272	
19	117.06730270385742	fix_post	2		12	17.0	2.5	/experiments/knapen_AOT/AOT_stimuli/rescaled_final/1497_rv.mp4	0.0	133.83703780174255	0.10001897811889648
20	117.16732168197632	fix_pre	0		120	18.0	2.5	/experiments/knapen_AOT/AOT_stimuli/rescaled_final/1726_rv.mp4	0.0	133.93705677986145	1.008497714996338
20	117.35095500946045	pulse	0	t		18.0	2.5	/experiments/knapen_AOT/AOT_stimuli/rescaled_final/1726_rv.mp4	0.0	134.12069010734558	
20	118.17581939697266	movie	1		271	18.0	2.5	/experiments/knapen_AOT/AOT_stimuli/rescaled_final/1726_rv.mp4	0.0	134.9455544948578	2.4920060634613037
20	118.9490098953247	pulse	1	t		18.0	2.5	/experiments/knapen_AOT/AOT_stimuli/rescaled_final/1726_rv.mp4	0.0	135.71874499320984	
20	120.54944515228271	pulse	1	t		18.0	2.5	/experiments/knapen_AOT/AOT_stimuli/rescaled_final/1726_rv.mp4	0.0	137.31918025016785	
20	120.66782546043396	fix_post	2		12	18.0	2.5	/experiments/knapen_AOT/AOT_stimuli/rescaled_final/1726_rv.mp4	0.0	137.4375605583191	0.10006403923034668
21	120.7678894996643	fix_pre	0		120	19.0	2.5	/experiments/knapen_AOT/AOT_stimuli/rescaled_final/1003_rv.mp4	0.0	137.53762459754944	1.0084412097930908
21	121.7763307094574	movie	1		285	19.0	2.5	/experiments/knapen_AOT/AOT_stimuli/rescaled_final/1003_rv.mp4	0.0	138.54606580734253	2.4920310974121094
21	122.15000510215759	pulse	1	t		19.0	2.5	/experiments/knapen_AOT/AOT_stimuli/rescaled_final/1003_rv.mp4	0.0	138.91974020004272	
21	123.75108456611633	pulse	1	t		19.0	2.5	/experiments/knapen_AOT/AOT_stimuli/rescaled_final/1003_rv.mp4	0.0	140.52081966400146	
21	124.2683618068695	fix_post	2		12	19.0	2.5	/experiments/knapen_AOT/AOT_stimuli/rescaled_final/1003_rv.mp4	0.0	141.03809690475464	0.10006117820739746
22	124.3684229850769	fix_pre	0		119	20.0	2.5	blank	1.0	141.13815808296204	0.9917829036712646
22	125.35202383995056	pulse	0	t		20.0	2.5	blank	1.0	142.1217589378357	
22	125.36020588874817	movie	1		301	20.0	2.5	blank	1.0	142.1299409866333	2.5086982250213623
22	126.95245671272278	pulse	1	t		20.0	2.5	blank	1.0	143.7221918106079	
22	127.86890411376953	fix_post	2		12	20.0	2.5	blank	1.0	144.63863921165466	0.1000969409942627
23	127.9690010547638	fix_pre	0		120	21.0	2.5	/experiments/knapen_AOT/AOT_stimuli/rescaled_final/1597_rv.mp4	0.0	144.73873615264893	1.0084340572357178
23	128.55248999595642	pulse	0	t		21.0	2.5	/experiments/knapen_AOT/AOT_stimuli/rescaled_final/1597_rv.mp4	0.0	145.32222509384155	
23	128.9774351119995	movie	1		272	21.0	2.5	/experiments/knapen_AOT/AOT_stimuli/rescaled_final/1597_rv.mp4	0.0	145.74717020988464	2.5003678798675537
23	130.15074634552002	pulse	1	t		21.0	2.5	/experiments/knapen_AOT/AOT_stimuli/rescaled_final/1597_rv.mp4	0.0	146.92048144340515	
23	131.47780299186707	fix_post	2		11	21.0	2.5	/experiments/knapen_AOT/AOT_stimuli/rescaled_final/1597_rv.mp4	0.0	148.2475380897522	0.09170889854431152
24	131.56951189041138	fix_pre	0		120	22.0	2.5	/experiments/knapen_AOT/AOT_stimuli/rescaled_final/1562_fw.mp4	0.0	148.3392469882965	1.0084905624389648
24	131.75314617156982	pulse	0	t		22.0	2.5	/experiments/knapen_AOT/AOT_stimuli/rescaled_final/1562_fw.mp4	0.0	148.52288126945496	
24	132.57800245285034	movie	1		267	22.0	2.5	/experiments/knapen_AOT/AOT_stimuli/rescaled_final/1562_fw.mp4	0.0	149.34773755073547	2.4920170307159424
24	133.35207319259644	pulse	1	t		22.0	2.5	/experiments/knapen_AOT/AOT_stimuli/rescaled_final/1562_fw.mp4	0.0	150.12180829048157	
24	134.94642639160156	pulse	1	t		22.0	2.5	/experiments/knapen_AOT/AOT_stimuli/rescaled_final/1562_fw.mp4	0.0	151.7161614894867	
24	135.07001948356628	fix_post	2		12	22.0	2.5	/experiments/knapen_AOT/AOT_stimuli/rescaled_final/1562_fw.mp4	0.0	151.83975458145142	0.09997892379760742
25	135.1699984073639	fix_pre	0		120	23.0	2.5	/experiments/knapen_AOT/AOT_stimuli/rescaled_final/1722_fw.mp4	0.0	151.93973350524902	1.008514642715454
25	136.17851305007935	movie	1		276	23.0	2.5	/experiments/knapen_AOT/AOT_stimuli/rescaled_final/1722_fw.mp4	0.0	152.94824814796448	2.492016077041626
25	136.55327081680298	pulse	1	t		23.0	2.5	/experiments/knapen_AOT/AOT_stimuli/rescaled_final/1722_fw.mp4	0.0	153.3230059146881	
25	138.14681434631348	pulse	1	t		23.0	2.5	/experiments/knapen_AOT/AOT_stimuli/rescaled_final/1722_fw.mp4	0.0	154.9165494441986	
25	138.67052912712097	fix_post	2		12	23.0	2.5	/experiments/knapen_AOT/AOT_stimuli/rescaled_final/1722_fw.mp4	0.0	155.4402642250061	0.10002803802490234
26	138.77055716514587	fix_pre	0		118	24.0	2.5	/experiments/knapen_AOT/AOT_stimuli/rescaled_final/0613_rv.mp4	0.0	155.540292263031	0.9918398857116699
26	139.74601793289185	pulse	0	t		24.0	2.5	/experiments/knapen_AOT/AOT_stimuli/rescaled_final/0613_rv.mp4	0.0	156.51575303077698	
26	139.76239705085754	movie	1		279	24.0	2.5	/experiments/knapen_AOT/AOT_stimuli/rescaled_final/0613_rv.mp4	0.0	156.53213214874268	2.5003561973571777
26	141.3450584411621	pulse	1	t		24.0	2.5	/experiments/knapen_AOT/AOT_stimuli/rescaled_final/0613_rv.mp4	0.0	158.11479353904724	
26	142.26275324821472	fix_post	2		12	24.0	2.5	/experiments/knapen_AOT/AOT_stimuli/rescaled_final/0613_rv.mp4	0.0	159.03248834609985	0.10000157356262207
27	142.36275482177734	fix_pre	0		120	25.0	2.5	/experiments/knapen_AOT/AOT_stimuli/rescaled_final/1699_fw.mp4	0.0	159.13248991966248	1.008509635925293
27	142.94640684127808	pulse	0	t		25.0	2.5	/experiments/knapen_AOT/AOT_stimuli/rescaled_final/1699_fw.mp4	0.0	159.7161419391632	
27	143.37126445770264	movie	1		272	25.0	2.5	/experiments/knapen_AOT/AOT_stimuli/rescaled_final/1699_fw.mp4	0.0	160.14099955558777	2.4920599460601807
27	144.54674410820007	pulse	1	t		25.0	2.5	/experiments/knapen_AOT/AOT_stimuli/rescaled_final/1699_fw.mp4	0.0	161.3164792060852	
27	145.86332440376282	fix_post	2		12	25.0	2.5	/experiments/knapen_AOT/AOT_stimuli/rescaled_final/1699_fw.mp4	0.0	162.63305950164795	0.09999775886535645
28	145.96332216262817	fix_pre	0		120	26.0	2.5	/experiments/knapen_AOT/AOT_stimuli/rescaled_final/0363_fw.mp4	0.0	162.7330572605133	1.0085008144378662
28	146.14701318740845	pulse	0	t		26.0	2.5	/experiments/knapen_AOT/AOT_stimuli/rescaled_final/0363_fw.mp4	0.0	162.91674828529358	
28	146.97182297706604	movie	1		270	26.0	2.5	/experiments/knapen_AOT/AOT_stimuli/rescaled_final/0363_fw.mp4	0.0	163.74155807495117	2.4920661449432373
28	147.74610686302185	pulse	1	t		26.0	2.5	/experiments/knapen_AOT/AOT_stimuli/rescaled_final/0363_fw.mp4	0.0	164.51584196090698	
28	149.34537029266357	pulse	1	t		26.0	2.5	/experiments/knapen_AOT/AOT_stimuli/rescaled_final/0363_fw.mp4	0.0	166.1151053905487	
28	149.46388912200928	fix_post	2		12	26.0	2.5	/experiments/knapen_AOT/AOT_stimuli/rescaled_final/0363_fw.mp4	0.0	166.2336242198944	0.0999455451965332
29	149.5638346672058	fix_pre	0		120	27.0	2.5	/experiments/knapen_AOT/AOT_stimuli/rescaled_final/0847_fw.mp4	0.0	166.33356976509094	1.0086615085601807
29	150.572496175766	movie	1		286	27.0	2.5	/experiments/knapen_AOT/AOT_stimuli/rescaled_final/0847_fw.mp4	0.0	167.34223127365112	2.491945505142212
29	150.9458305835724	pulse	1	t		27.0	2.5	/experiments/knapen_AOT/AOT_stimuli/rescaled_final/0847_fw.mp4	0.0	167.71556568145752	
29	152.54570770263672	pulse	1	t		27.0	2.5	/experiments/knapen_AOT/AOT_stimuli/rescaled_final/0847_fw.mp4	0.0	169.31544280052185	
29	153.0644416809082	fix_post	2		12	27.0	2.5	/experiments/knapen_AOT/AOT_stimuli/rescaled_final/0847_fw.mp4	0.0	169.83417677879333	0.09992742538452148
30	153.16436910629272	fix_pre	0		119	28.0	2.5	blank	1.0	169.93410420417786	0.9918334484100342
30	154.14814925193787	pulse	0	t		28.0	2.5	blank	1.0	170.917884349823	
30	154.15620255470276	movie	1		301	28.0	2.5	blank	1.0	170.9259376525879	2.5087320804595947
30	155.74860191345215	pulse	1	t		28.0	2.5	blank	1.0	172.51833701133728	
30	156.66493463516235	fix_post	2		12	28.0	2.5	blank	1.0	173.43466973304749	0.09998416900634766
31	156.7649188041687	fix_pre	0		120	29.0	2.5	/experiments/knapen_AOT/AOT_stimuli/rescaled_final/1324_fw.mp4	0.0	173.53465390205383	1.0084984302520752
31	157.34854316711426	pulse	0	t		29.0	2.5	/experiments/knapen_AOT/AOT_stimuli/rescaled_final/1324_fw.mp4	0.0	174.1182782649994	
31	157.77341723442078	movie	1		285	29.0	2.5	/experiments/knapen_AOT/AOT_stimuli/rescaled_final/1324_fw.mp4	0.0	174.5431523323059	2.492133855819702
31	158.9469542503357	pulse	1	t		29.0	2.5	/experiments/knapen_AOT/AOT_stimuli/rescaled_final/1324_fw.mp4	0.0	175.71668934822083	
31	160.26555109024048	fix_post	2		12	29.0	2.5	/experiments/knapen_AOT/AOT_stimuli/rescaled_final/1324_fw.mp4	0.0	177.0352861881256	0.09991455078125
32	160.36546564102173	fix_pre	0		120	30.0	2.5	/experiments/knapen_AOT/AOT_stimuli/rescaled_final/1230_fw.mp4	0.0	177.13520073890686	1.0084900856018066
32	160.5490438938141	pulse	0	t		30.0	2.5	/experiments/knapen_AOT/AOT_stimuli/rescaled_final/1230_fw.mp4	0.0	177.31877899169922	
32	161.37395572662354	movie	1		284	30.0	2.5	/experiments/knapen_AOT/AOT_stimuli/rescaled_final/1230_fw.mp4	0.0	178.14369082450867	2.492009162902832
32	162.14929604530334	pulse	1	t		30.0	2.5	/experiments/knapen_AOT/AOT_stimuli/rescaled_final/1230_fw.mp4	0.0	178.91903114318848	
32	163.7474329471588	pulse	1	t		30.0	2.5	/experiments/knapen_AOT/AOT_stimuli/rescaled_final/1230_fw.mp4	0.0	180.51716804504395	
32	163.86596488952637	fix_post	2		12	30.0	2.5	/experiments/knapen_AOT/AOT_stimuli/rescaled_final/1230_fw.mp4	0.0	180.6356999874115	0.10001969337463379
33	163.965984582901	fix_pre	0		120	31.0	2.5	/experiments/knapen_AOT/AOT_stimuli/rescaled_final/1279_rv.mp4	0.0	180.73571968078613	1.0085396766662598
33	164.97452425956726	movie	1		288	31.0	2.5	/experiments/knapen_AOT/AOT_stimuli/rescaled_final/1279_rv.mp4	0.0	181.7442593574524	2.4920036792755127
33	165.3482666015625	pulse	1	t		31.0	2.5	/experiments/knapen_AOT/AOT_stimuli/rescaled_final/1279_rv.mp4	0.0	182.11800169944763	
33	166.94784712791443	pulse	1	t		31.0	2.5	/experiments/knapen_AOT/AOT_stimuli/rescaled_final/1279_rv.mp4	0.0	183.71758222579956	
33	167.46652793884277	fix_post	2		12	31.0	2.5	/experiments/knapen_AOT/AOT_stimuli/rescaled_final/1279_rv.mp4	0.0	184.2362630367279	0.1000373363494873
34	167.56656527519226	fix_pre	0		119	32.0	2.5	/experiments/knapen_AOT/AOT_stimuli/rescaled_final/1597_fw.mp4	0.0	184.3363003730774	1.000150442123413
34	168.55024194717407	pulse	0	t		32.0	2.5	/experiments/knapen_AOT/AOT_stimuli/rescaled_final/1597_fw.mp4	0.0	185.3199770450592	
34	168.56671571731567	movie	1		286	32.0	2.5	/experiments/knapen_AOT/AOT_stimuli/rescaled_final/1597_fw.mp4	0.0	185.3364508152008	2.5003247261047363
34	170.1486918926239	pulse	1	t		32.0	2.5	/experiments/knapen_AOT/AOT_stimuli/rescaled_final/1597_fw.mp4	0.0	186.91842699050903	
34	171.0670404434204	fix_post	2		12	32.0	2.5	/experiments/knapen_AOT/AOT_stimuli/rescaled_final/1597_fw.mp4	0.0	187.83677554130554	0.10002636909484863
35	171.16706681251526	fix_pre	0		120	33.0	2.5	/experiments/knapen_AOT/AOT_stimuli/rescaled_final/1362_rv.mp4	0.0	187.9368019104004	1.0085651874542236
35	171.75071954727173	pulse	0	t		33.0	2.5	/experiments/knapen_AOT/AOT_stimuli/rescaled_final/1362_rv.mp4	0.0	188.52045464515686	
35	172.17563199996948	movie	1		288	33.0	2.5	/experiments/knapen_AOT/AOT_stimuli/rescaled_final/1362_rv.mp4	0.0	188.94536709785461	2.492002487182617
35	173.34939312934875	pulse	1	t		33.0	2.5	/experiments/knapen_AOT/AOT_stimuli/rescaled_final/1362_rv.mp4	0.0	190.1191282272339	
35	174.6676344871521	fix_post	2		12	33.0	2.5	/experiments/knapen_AOT/AOT_stimuli/rescaled_final/1362_rv.mp4	0.0	191.43736958503723	0.10000991821289062
36	174.767644405365	fix_pre	0		120	34.0	2.5	blank	1.0	191.53737950325012	1.000216007232666
36	174.95116591453552	pulse	0	t		34.0	2.5	blank	1.0	191.72090101242065	
36	175.76786041259766	movie	1		300	34.0	2.5	blank	1.0	192.5375955104828	2.5003039836883545
36	176.55172181129456	pulse	1	t		34.0	2.5	blank	1.0	193.3214569091797	
36	178.15188765525818	pulse	1	t		34.0	2.5	blank	1.0	194.9216227531433	
36	178.268164396286	fix_post	2		12	34.0	2.5	blank	1.0	195.03789949417114	0.10001206398010254
37	178.3681764602661	fix_pre	0		120	35.0	2.5	/experiments/knapen_AOT/AOT_stimuli/rescaled_final/0947_rv.mp4	0.0	195.13791155815125	1.0085134506225586
37	179.37668991088867	movie	1		281	35.0	2.5	/experiments/knapen_AOT/AOT_stimuli/rescaled_final/0947_rv.mp4	0.0	196.1464250087738	2.492017984390259
37	179.75082659721375	pulse	1	t		35.0	2.5	/experiments/knapen_AOT/AOT_stimuli/rescaled_final/0947_rv.mp4	0.0	196.52056169509888	
37	181.35010170936584	pulse	1	t		35.0	2.5	/experiments/knapen_AOT/AOT_stimuli/rescaled_final/0947_rv.mp4	0.0	198.11983680725098	
37	181.86870789527893	fix_post	2		12	35.0	2.5	/experiments/knapen_AOT/AOT_stimuli/rescaled_final/0947_rv.mp4	0.0	198.63844299316406	0.10005307197570801
38	181.96876096725464	fix_pre	0		119	36.0	2.5	/experiments/knapen_AOT/AOT_stimuli/rescaled_final/0524_fw.mp4	0.0	198.73849606513977	1.0084612369537354
38	182.95259737968445	pulse	0	t		36.0	2.5	/experiments/knapen_AOT/AOT_stimuli/rescaled_final/0524_fw.mp4	0.0	199.72233247756958	
38	182.97722220420837	movie	1		273	36.0	2.5	/experiments/knapen_AOT/AOT_stimuli/rescaled_final/0524_fw.mp4	0.0	199.7469573020935	2.4920947551727295
38	184.55080461502075	pulse	1	t		36.0	2.5	/experiments/knapen_AOT/AOT_stimuli/rescaled_final/0524_fw.mp4	0.0	201.32053971290588	
38	185.4693169593811	fix_post	2		12	36.0	2.5	/experiments/knapen_AOT/AOT_stimuli/rescaled_final/0524_fw.mp4	0.0	202.23905205726624	0.09993863105773926
39	185.56925559043884	fix_pre	0		120	37.0	2.5	/experiments/knapen_AOT/AOT_stimuli/rescaled_final/0092_fw.mp4	0.0	202.33899068832397	1.00850248336792
39	186.14517736434937	pulse	0	t		37.0	2.5	/experiments/knapen_AOT/AOT_stimuli/rescaled_final/0092_fw.mp4	0.0	202.9149124622345	
39	186.57775807380676	movie	1		284	37.0	2.5	/experiments/knapen_AOT/AOT_stimuli/rescaled_final/0092_fw.mp4	0.0	203.3474931716919	2.492030143737793
39	187.75334477424622	pulse	1	t		37.0	2.5	/experiments/knapen_AOT/AOT_stimuli/rescaled_final/0092_fw.mp4	0.0	204.52307987213135	
39	189.06978821754456	fix_post	2		12	37.0	2.5	/experiments/knapen_AOT/AOT_stimuli/rescaled_final/0092_fw.mp4	0.0	205.8395233154297	0.0999906063079834
40	189.16977882385254	fix_pre	0		120	38.0	2.5	/experiments/knapen_AOT/AOT_stimuli/rescaled_final/0613_rv.mp4	0.0	205.93951392173767	1.0084929466247559
40	189.3454098701477	pulse	0	t		38.0	2.5	/experiments/knapen_AOT/AOT_stimuli/rescaled_final/0613_rv.mp4	0.0	206.11514496803284	
40	190.1782717704773	movie	1		277	38.0	2.5	/experiments/knapen_AOT/AOT_stimuli/rescaled_final/0613_rv.mp4	0.0	206.94800686836243	2.4920480251312256
40	190.95395636558533	pulse	1	t		38.0	2.5	/experiments/knapen_AOT/AOT_stimuli/rescaled_final/0613_rv.mp4	0.0	207.72369146347046	
40	192.5455141067505	pulse	1	t		38.0	2.5	/experiments/knapen_AOT/AOT_stimuli/rescaled_final/0613_rv.mp4	0.0	209.31524920463562	
40	192.67031979560852	fix_post	2		12	38.0	2.5	/experiments/knapen_AOT/AOT_stimuli/rescaled_final/0613_rv.mp4	0.0	209.44005489349365	0.10000157356262207
41	192.77032136917114	fix_pre	0		120	39.0	2.5	/experiments/knapen_AOT/AOT_stimuli/rescaled_final/0332_fw.mp4	0.0	209.54005646705627	1.0085296630859375
41	193.77885103225708	movie	1		285	39.0	2.5	/experiments/knapen_AOT/AOT_stimuli/rescaled_final/0332_fw.mp4	0.0	210.5485861301422	2.492063045501709
41	194.14584612846375	pulse	1	t		39.0	2.5	/experiments/knapen_AOT/AOT_stimuli/rescaled_final/0332_fw.mp4	0.0	210.91558122634888	
41	195.74608421325684	pulse	1	t		39.0	2.5	/experiments/knapen_AOT/AOT_stimuli/rescaled_final/0332_fw.mp4	0.0	212.51581931114197	
41	196.2709140777588	fix_post	2		12	39.0	2.5	/experiments/knapen_AOT/AOT_stimuli/rescaled_final/0332_fw.mp4	0.0	213.04064917564392	0.09997415542602539
42	196.37088823318481	fix_pre	0		118	40.0	2.5	/experiments/knapen_AOT/AOT_stimuli/rescaled_final/0893_rv.mp4	0.0	213.14062333106995	0.9918186664581299
42	197.34627890586853	pulse	0	t		40.0	2.5	/experiments/knapen_AOT/AOT_stimuli/rescaled_final/0893_rv.mp4	0.0	214.11601400375366	
42	197.36270689964294	movie	1		289	40.0	2.5	/experiments/knapen_AOT/AOT_stimuli/rescaled_final/0893_rv.mp4	0.0	214.13244199752808	2.500401020050049
42	198.94673609733582	pulse	1	t		40.0	2.5	/experiments/knapen_AOT/AOT_stimuli/rescaled_final/0893_rv.mp4	0.0	215.71647119522095	
42	199.863107919693	fix_post	2		12	40.0	2.5	/experiments/knapen_AOT/AOT_stimuli/rescaled_final/0893_rv.mp4	0.0	216.63284301757812	0.09998559951782227
43	199.96309351921082	fix_pre	0		120	41.0	2.5	blank	1.0	216.73282861709595	1.0001215934753418
43	200.5467438697815	pulse	0	t		41.0	2.5	blank	1.0	217.31647896766663	
43	200.96321511268616	movie	1		300	41.0	2.5	blank	1.0	217.7329502105713	2.500429391860962
43	202.14699745178223	pulse	1	t		41.0	2.5	blank	1.0	218.91673254966736	
43	203.46364450454712	fix_post	2		12	41.0	2.5	blank	1.0	220.23337960243225	0.10004973411560059
44	203.56369423866272	fix_pre	0		120	42.0	2.5	/experiments/knapen_AOT/AOT_stimuli/rescaled_final/0269_rv.mp4	0.0	220.33342933654785	1.0084896087646484
44	203.74723410606384	pulse	0	t		42.0	2.5	/experiments/knapen_AOT/AOT_stimuli/rescaled_final/0269_rv.mp4	0.0	220.51696920394897	
44	204.57218384742737	movie	1		281	42.0	2.5	/experiments/knapen_AOT/AOT_stimuli/rescaled_final/0269_rv.mp4	0.0	221.3419189453125	2.4920036792755127
44	205.34570813179016	pulse	1	t		42.0	2.5	/experiments/knapen_AOT/AOT_stimuli/rescaled_final/0269_rv.mp4	0.0	222.1154432296753	
44	206.94600868225098	pulse	1	t		42.0	2.5	/experiments/knapen_AOT/AOT_stimuli/rescaled_final/0269_rv.mp4	0.0	223.7157437801361	
44	207.06418752670288	fix_post	2		12	42.0	2.5	/experiments/knapen_AOT/AOT_stimuli/rescaled_final/0269_rv.mp4	0.0	223.833922624588	0.1000204086303711
45	207.16420793533325	fix_pre	0		120	43.0	2.5	/experiments/knapen_AOT/AOT_stimuli/rescaled_final/0628_fw.mp4	0.0	223.93394303321838	1.0084712505340576
45	208.1726791858673	movie	1		279	43.0	2.5	/experiments/knapen_AOT/AOT_stimuli/rescaled_final/0628_fw.mp4	0.0	224.94241428375244	2.492206335067749
45	208.54797530174255	pulse	1	t		43.0	2.5	/experiments/knapen_AOT/AOT_stimuli/rescaled_final/0628_fw.mp4	0.0	225.31771039962769	
45	210.1461935043335	pulse	1	t		43.0	2.5	/experiments/knapen_AOT/AOT_stimuli/rescaled_final/0628_fw.mp4	0.0	226.91592860221863	
45	210.66488552093506	fix_post	2		12	43.0	2.5	/experiments/knapen_AOT/AOT_stimuli/rescaled_final/0628_fw.mp4	0.0	227.4346206188202	0.09982109069824219
46	210.7647066116333	fix_pre	0		119	44.0	2.5	/experiments/knapen_AOT/AOT_stimuli/rescaled_final/1019_rv.mp4	0.0	227.53444170951843	1.000145435333252
46	211.74843978881836	pulse	0	t		44.0	2.5	/experiments/knapen_AOT/AOT_stimuli/rescaled_final/1019_rv.mp4	0.0	228.5181748867035	
46	211.76485204696655	movie	1		286	44.0	2.5	/experiments/knapen_AOT/AOT_stimuli/rescaled_final/1019_rv.mp4	0.0	228.53458714485168	2.5003631114959717
46	213.34682536125183	pulse	1	t		44.0	2.5	/experiments/knapen_AOT/AOT_stimuli/rescaled_final/1019_rv.mp4	0.0	230.11656045913696	
46	214.26521515846252	fix_post	2		12	44.0	2.5	/experiments/knapen_AOT/AOT_stimuli/rescaled_final/1019_rv.mp4	0.0	231.03495025634766	0.10005044937133789
47	214.36526560783386	fix_pre	0		120	45.0	2.5	/experiments/knapen_AOT/AOT_stimuli/rescaled_final/0177_fw.mp4	0.0	231.135000705719	1.0084829330444336
47	214.94912338256836	pulse	0	t		45.0	2.5	/experiments/knapen_AOT/AOT_stimuli/rescaled_final/0177_fw.mp4	0.0	231.7188584804535	
47	215.3737485408783	movie	1		282	45.0	2.5	/experiments/knapen_AOT/AOT_stimuli/rescaled_final/0177_fw.mp4	0.0	232.14348363876343	2.4920246601104736
47	216.54710960388184	pulse	1	t		45.0	2.5	/experiments/knapen_AOT/AOT_stimuli/rescaled_final/0177_fw.mp4	0.0	233.31684470176697	
47	217.86577320098877	fix_post	2		12	45.0	2.5	/experiments/knapen_AOT/AOT_stimuli/rescaled_final/0177_fw.mp4	0.0	234.6355082988739	0.10004973411560059
48	217.96582293510437	fix_pre	0		120	46.0	2.5	/experiments/knapen_AOT/AOT_stimuli/rescaled_final/1100_fw.mp4	0.0	234.7355580329895	1.0084543228149414
48	218.14936780929565	pulse	0	t		46.0	2.5	/experiments/knapen_AOT/AOT_stimuli/rescaled_final/1100_fw.mp4	0.0	234.9191029071808	
48	218.9742772579193	movie	1		263	46.0	2.5	/experiments/knapen_AOT/AOT_stimuli/rescaled_final/1100_fw.mp4	0.0	235.74401235580444	2.492025375366211
48	219.7480080127716	pulse	1	t		46.0	2.5	/experiments/knapen_AOT/AOT_stimuli/rescaled_final/1100_fw.mp4	0.0	236.51774311065674	
48	221.3482141494751	pulse	1	t		46.0	2.5	/experiments/knapen_AOT/AOT_stimuli/rescaled_final/1100_fw.mp4	0.0	238.11794924736023	
48	221.46630263328552	fix_post	2		12	46.0	2.5	/experiments/knapen_AOT/AOT_stimuli/rescaled_final/1100_fw.mp4	0.0	238.23603773117065	0.10007071495056152
49	221.56637334823608	fix_pre	0		120	47.0	2.5	/experiments/knapen_AOT/AOT_stimuli/rescaled_final/1846_rv.mp4	0.0	238.33610844612122	1.008439064025879
49	222.57481241226196	movie	1		278	47.0	2.5	/experiments/knapen_AOT/AOT_stimuli/rescaled_final/1846_rv.mp4	0.0	239.3445475101471	2.492046356201172
49	222.95050048828125	pulse	1	t		47.0	2.5	/experiments/knapen_AOT/AOT_stimuli/rescaled_final/1846_rv.mp4	0.0	239.72023558616638	
49	224.5482337474823	pulse	1	t		47.0	2.5	/experiments/knapen_AOT/AOT_stimuli/rescaled_final/1846_rv.mp4	0.0	241.31796884536743	
49	225.06685876846313	fix_post	2		12	47.0	2.5	/experiments/knapen_AOT/AOT_stimuli/rescaled_final/1846_rv.mp4	0.0	241.83659386634827	0.10004591941833496
50	225.16690468788147	fix_pre	0		119	48.0	2.5	/experiments/knapen_AOT/AOT_stimuli/rescaled_final/1870_fw.mp4	0.0	241.9366397857666	1.0001473426818848
50	226.150719165802	pulse	0	t		48.0	2.5	/experiments/knapen_AOT/AOT_stimuli/rescaled_final/1870_fw.mp4	0.0	242.92045426368713	
50	226.16705203056335	movie	1		284	48.0	2.5	/experiments/knapen_AOT/AOT_stimuli/rescaled_final/1870_fw.mp4	0.0	242.9367871284485	2.5003254413604736
50	227.74923491477966	pulse	1	t		48.0	2.5	/experiments/knapen_AOT/AOT_stimuli/rescaled_final/1870_fw.mp4	0.0	244.5189700126648	
50	228.66737747192383	fix_post	2		12	48.0	2.5	/experiments/knapen_AOT/AOT_stimuli/rescaled_final/1870_fw.mp4	0.0	245.43711256980896	0.10002398490905762
51	228.76740145683289	fix_pre	0		120	49.0	2.5	blank	1.0	245.53713655471802	1.0001449584960938
51	229.35102772712708	pulse	0	t		49.0	2.5	blank	1.0	246.1207628250122	
51	229.76754641532898	movie	1		300	49.0	2.5	blank	1.0	246.5372815132141	2.500427484512329
51	230.9512538909912	pulse	1	t		49.0	2.5	blank	1.0	247.72098898887634	
51	232.2679738998413	fix_post	2		12	49.0	2.5	blank	1.0	249.03770899772644	0.10000276565551758
52	232.36797666549683	fix_pre	0		120	50.0	2.5	/experiments/knapen_AOT/AOT_stimuli/rescaled_final/0177_rv.mp4	0.0	249.13771176338196	1.0084607601165771
52	232.5515308380127	pulse	0	t		50.0	2.5	/experiments/knapen_AOT/AOT_stimuli/rescaled_final/0177_rv.mp4	0.0	249.32126593589783	
52	233.3764374256134	movie	1		276	50.0	2.5	/experiments/knapen_AOT/AOT_stimuli/rescaled_final/0177_rv.mp4	0.0	250.14617252349854	2.4920241832733154
52	234.14963960647583	pulse	1	t		50.0	2.5	/experiments/knapen_AOT/AOT_stimuli/rescaled_final/0177_rv.mp4	0.0	250.91937470436096	
52	235.7523169517517	pulse	1	t		50.0	2.5	/experiments/knapen_AOT/AOT_stimuli/rescaled_final/0177_rv.mp4	0.0	252.52205204963684	
52	235.86846160888672	fix_post	2		12	50.0	2.5	/experiments/knapen_AOT/AOT_stimuli/rescaled_final/0177_rv.mp4	0.0	252.63819670677185	0.10001850128173828
53	235.96848011016846	fix_pre	0		120	51.0	2.5	/experiments/knapen_AOT/AOT_stimuli/rescaled_final/1172_fw.mp4	0.0	252.7382152080536	1.0085031986236572
53	236.97698330879211	movie	1		278	51.0	2.5	/experiments/knapen_AOT/AOT_stimuli/rescaled_final/1172_fw.mp4	0.0	253.74671840667725	2.4920127391815186
53	237.35308599472046	pulse	1	t		51.0	2.5	/experiments/knapen_AOT/AOT_stimuli/rescaled_final/1172_fw.mp4	0.0	254.1228210926056	
53	238.95029473304749	pulse	1	t		51.0	2.5	/experiments/knapen_AOT/AOT_stimuli/rescaled_final/1172_fw.mp4	0.0	255.72002983093262	
53	239.46899604797363	fix_post	2		12	51.0	2.5	/experiments/knapen_AOT/AOT_stimuli/rescaled_final/1172_fw.mp4	0.0	256.23873114585876	0.10004544258117676
54	239.5690414905548	fix_pre	0		119	52.0	2.5	/experiments/knapen_AOT/AOT_stimuli/rescaled_final/0901_rv.mp4	0.0	256.33877658843994	1.0001485347747803
54	240.55285930633545	pulse	0	t		52.0	2.5	/experiments/knapen_AOT/AOT_stimuli/rescaled_final/0901_rv.mp4	0.0	257.3225944042206	
54	240.5691900253296	movie	1		287	52.0	2.5	/experiments/knapen_AOT/AOT_stimuli/rescaled_final/0901_rv.mp4	0.0	257.3389251232147	2.5004215240478516
54	242.15144038200378	pulse	1	t		52.0	2.5	/experiments/knapen_AOT/AOT_stimuli/rescaled_final/0901_rv.mp4	0.0	258.9211754798889	
54	243.06961154937744	fix_post	2		12	52.0	2.5	/experiments/knapen_AOT/AOT_stimuli/rescaled_final/0901_rv.mp4	0.0	259.8393466472626	0.0999901294708252
55	243.16960167884827	fix_pre	0		120	53.0	2.5	/experiments/knapen_AOT/AOT_stimuli/rescaled_final/0095_fw.mp4	0.0	259.9393367767334	1.0084619522094727
55	243.75319814682007	pulse	0	t		53.0	2.5	/experiments/knapen_AOT/AOT_stimuli/rescaled_final/0095_fw.mp4	0.0	260.5229332447052	
55	244.17806363105774	movie	1		281	53.0	2.5	/experiments/knapen_AOT/AOT_stimuli/rescaled_final/0095_fw.mp4	0.0	260.94779872894287	2.492030382156372
55	245.35278725624084	pulse	1	t		53.0	2.5	/experiments/knapen_AOT/AOT_stimuli/rescaled_final/0095_fw.mp4	0.0	262.122522354126	
55	246.6700940132141	fix_post	2		12	53.0	2.5	/experiments/knapen_AOT/AOT_stimuli/rescaled_final/0095_fw.mp4	0.0	263.43982911109924	0.10005450248718262
56	246.7701485157013	fix_pre	0		120	54.0	2.5	/experiments/knapen_AOT/AOT_stimuli/rescaled_final/0592_rv.mp4	0.0	263.5398836135864	1.0085699558258057
56	246.9458281993866	pulse	0	t		54.0	2.5	/experiments/knapen_AOT/AOT_stimuli/rescaled_final/0592_rv.mp4	0.0	263.71556329727173	
56	247.7787184715271	movie	1		290	54.0	2.5	/experiments/knapen_AOT/AOT_stimuli/rescaled_final/0592_rv.mp4	0.0	264.54845356941223	2.4919934272766113
56	248.54586267471313	pulse	1	t		54.0	2.5	/experiments/knapen_AOT/AOT_stimuli/rescaled_final/0592_rv.mp4	0.0	265.31559777259827	
56	250.146062374115	pulse	1	t		54.0	2.5	/experiments/knapen_AOT/AOT_stimuli/rescaled_final/0592_rv.mp4	0.0	266.9157974720001	
56	250.2707118988037	fix_post	2		12	54.0	2.5	/experiments/knapen_AOT/AOT_stimuli/rescaled_final/0592_rv.mp4	0.0	267.04044699668884	0.0999908447265625
57	250.37070274353027	fix_pre	0		120	55.0	2.5	/experiments/knapen_AOT/AOT_stimuli/rescaled_final/0492_fw.mp4	0.0	267.1404378414154	1.0084714889526367
57	251.3791742324829	movie	1		282	55.0	2.5	/experiments/knapen_AOT/AOT_stimuli/rescaled_final/0492_fw.mp4	0.0	268.14890933036804	2.492053985595703
57	251.74622344970703	pulse	1	t		55.0	2.5	/experiments/knapen_AOT/AOT_stimuli/rescaled_final/0492_fw.mp4	0.0	268.51595854759216	
57	253.3463373184204	pulse	1	t		55.0	2.5	/experiments/knapen_AOT/AOT_stimuli/rescaled_final/0492_fw.mp4	0.0	270.11607241630554	
57	253.8712282180786	fix_post	2		12	55.0	2.5	/experiments/knapen_AOT/AOT_stimuli/rescaled_final/0492_fw.mp4	0.0	270.64096331596375	0.09998440742492676
58	253.97121262550354	fix_pre	0		118	56.0	2.5	blank	1.0	270.7409477233887	0.9834444522857666
58	254.946613073349	pulse	0	t		56.0	2.5	blank	1.0	271.71634817123413	
58	254.9546570777893	movie	1		301	56.0	2.5	blank	1.0	271.72439217567444	2.508725166320801
58	256.5468933582306	pulse	1	t		56.0	2.5	blank	1.0	273.3166284561157	
58	257.4633822441101	fix_post	2		12	56.0	2.5	blank	1.0	274.23311734199524	0.10002827644348145
59	257.5634105205536	fix_pre	0		120	57.0	2.5	/experiments/knapen_AOT/AOT_stimuli/rescaled_final/0987_rv.mp4	0.0	274.3331456184387	1.0084850788116455
59	258.1470408439636	pulse	0	t		57.0	2.5	/experiments/knapen_AOT/AOT_stimuli/rescaled_final/0987_rv.mp4	0.0	274.91677594184875	
59	258.57189559936523	movie	1		283	57.0	2.5	/experiments/knapen_AOT/AOT_stimuli/rescaled_final/0987_rv.mp4	0.0	275.34163069725037	2.4921953678131104
59	259.7473087310791	pulse	1	t		57.0	2.5	/experiments/knapen_AOT/AOT_stimuli/rescaled_final/0987_rv.mp4	0.0	276.51704382896423	
59	261.06409096717834	fix_post	2		12	57.0	2.5	/experiments/knapen_AOT/AOT_stimuli/rescaled_final/0987_rv.mp4	0.0	277.8338260650635	0.09987306594848633
60	261.16396403312683	fix_pre	0		120	58.0	2.5	/experiments/knapen_AOT/AOT_stimuli/rescaled_final/1058_rv.mp4	0.0	277.93369913101196	1.0084609985351562
60	261.3475387096405	pulse	0	t		58.0	2.5	/experiments/knapen_AOT/AOT_stimuli/rescaled_final/1058_rv.mp4	0.0	278.11727380752563	
60	262.172425031662	movie	1		285	58.0	2.5	/experiments/knapen_AOT/AOT_stimuli/rescaled_final/1058_rv.mp4	0.0	278.9421601295471	2.4920694828033447
60	262.9478130340576	pulse	1	t		58.0	2.5	/experiments/knapen_AOT/AOT_stimuli/rescaled_final/1058_rv.mp4	0.0	279.71754813194275	
60	264.5459201335907	pulse	1	t		58.0	2.5	/experiments/knapen_AOT/AOT_stimuli/rescaled_final/1058_rv.mp4	0.0	281.31565523147583	
60	264.66449451446533	fix_post	2		12	58.0	2.5	/experiments/knapen_AOT/AOT_stimuli/rescaled_final/1058_rv.mp4	0.0	281.43422961235046	0.10000729560852051
61	264.76450181007385	fix_pre	0		120	59.0	2.5	/experiments/knapen_AOT/AOT_stimuli/rescaled_final/0650_rv.mp4	0.0	281.534236907959	1.0084850788116455
61	265.7729868888855	movie	1		272	59.0	2.5	/experiments/knapen_AOT/AOT_stimuli/rescaled_final/0650_rv.mp4	0.0	282.54272198677063	2.491997480392456
61	266.1469900608063	pulse	1	t		59.0	2.5	/experiments/knapen_AOT/AOT_stimuli/rescaled_final/0650_rv.mp4	0.0	282.9167251586914	
61	267.74653935432434	pulse	1	t		59.0	2.5	/experiments/knapen_AOT/AOT_stimuli/rescaled_final/0650_rv.mp4	0.0	284.5162744522095	
61	268.26498436927795	fix_post	2		12	59.0	2.5	/experiments/knapen_AOT/AOT_stimuli/rescaled_final/0650_rv.mp4	0.0	285.0347194671631	0.10009765625
62	268.36508202552795	fix_pre	0		119	60.0	2.5	/experiments/knapen_AOT/AOT_stimuli/rescaled_final/1331_rv.mp4	0.0	285.1348171234131	1.000185489654541
62	269.3487968444824	pulse	0	t		60.0	2.5	/experiments/knapen_AOT/AOT_stimuli/rescaled_final/1331_rv.mp4	0.0	286.11853194236755	
62	269.3652675151825	movie	1		276	60.0	2.5	/experiments/knapen_AOT/AOT_stimuli/rescaled_final/1331_rv.mp4	0.0	286.1350026130676	2.500309705734253
62	270.94821310043335	pulse	1	t		60.0	2.5	/experiments/knapen_AOT/AOT_stimuli/rescaled_final/1331_rv.mp4	0.0	287.7179481983185	
62	271.86557722091675	fix_post	2		12	60.0	2.5	/experiments/knapen_AOT/AOT_stimuli/rescaled_final/1331_rv.mp4	0.0	288.6353123188019	0.09997820854187012
63	271.9655554294586	fix_pre	0		120	61.0	2.5	/experiments/knapen_AOT/AOT_stimuli/rescaled_final/1114_rv.mp4	0.0	288.73529052734375	1.0085842609405518
63	272.5491783618927	pulse	0	t		61.0	2.5	/experiments/knapen_AOT/AOT_stimuli/rescaled_final/1114_rv.mp4	0.0	289.31891345977783	
63	272.97413969039917	movie	1		274	61.0	2.5	/experiments/knapen_AOT/AOT_stimuli/rescaled_final/1114_rv.mp4	0.0	289.7438747882843	2.491953134536743
63	274.14909839630127	pulse	1	t		61.0	2.5	/experiments/knapen_AOT/AOT_stimuli/rescaled_final/1114_rv.mp4	0.0	290.9188334941864	
63	275.4660928249359	fix_post	2		12	61.0	2.5	/experiments/knapen_AOT/AOT_stimuli/rescaled_final/1114_rv.mp4	0.0	292.23582792282104	0.10002326965332031
64	275.56611609458923	fix_pre	0		120	62.0	2.5	/experiments/knapen_AOT/AOT_stimuli/rescaled_final/1790_fw.mp4	0.0	292.33585119247437	1.0085217952728271
64	275.7498574256897	pulse	0	t		62.0	2.5	/experiments/knapen_AOT/AOT_stimuli/rescaled_final/1790_fw.mp4	0.0	292.51959252357483	
64	276.57463788986206	movie	1		281	62.0	2.5	/experiments/knapen_AOT/AOT_stimuli/rescaled_final/1790_fw.mp4	0.0	293.3443729877472	2.49198317527771
64	277.3479337692261	pulse	1	t		62.0	2.5	/experiments/knapen_AOT/AOT_stimuli/rescaled_final/1790_fw.mp4	0.0	294.1176688671112	
64	278.94854068756104	pulse	1	t		62.0	2.5	/experiments/knapen_AOT/AOT_stimuli/rescaled_final/1790_fw.mp4	0.0	295.71827578544617	
64	279.06662106513977	fix_post	2		12	62.0	2.5	/experiments/knapen_AOT/AOT_stimuli/rescaled_final/1790_fw.mp4	0.0	295.8363561630249	0.1000220775604248
65	279.1666431427002	fix_pre	0		120	63.0	2.5	blank	1.0	295.9363782405853	1.000143051147461
65	280.16678619384766	movie	1		300	63.0	2.5	blank	1.0	296.9365212917328	2.500394344329834
65	280.5503354072571	pulse	1	t		63.0	2.5	blank	1.0	297.3200705051422	
65	282.1505913734436	pulse	1	t		63.0	2.5	blank	1.0	298.92032647132874	
65	282.6671805381775	fix_post	2		12	63.0	2.5	blank	1.0	299.4369156360626	0.09998512268066406
66	282.76716566085815	fix_pre	0		119	64.0	2.5	/experiments/knapen_AOT/AOT_stimuli/rescaled_final/0624_fw.mp4	0.0	299.5369007587433	1.000168800354004
66	283.75079917907715	pulse	0	t		64.0	2.5	/experiments/knapen_AOT/AOT_stimuli/rescaled_final/0624_fw.mp4	0.0	300.5205342769623	
66	283.76733446121216	movie	1		286	64.0	2.5	/experiments/knapen_AOT/AOT_stimuli/rescaled_final/0624_fw.mp4	0.0	300.5370695590973	2.50050687789917
66	285.349760055542	pulse	1	t		64.0	2.5	/experiments/knapen_AOT/AOT_stimuli/rescaled_final/0624_fw.mp4	0.0	302.1194951534271	
66	286.2678413391113	fix_post	2		12	64.0	2.5	/experiments/knapen_AOT/AOT_stimuli/rescaled_final/0624_fw.mp4	0.0	303.03757643699646	0.09993982315063477
67	286.36778116226196	fix_pre	0		120	65.0	2.5	/experiments/knapen_AOT/AOT_stimuli/rescaled_final/0972_fw.mp4	0.0	303.1375162601471	1.0085554122924805
67	286.9513826370239	pulse	0	t		65.0	2.5	/experiments/knapen_AOT/AOT_stimuli/rescaled_final/0972_fw.mp4	0.0	303.72111773490906	
67	287.37633657455444	movie	1		286	65.0	2.5	/experiments/knapen_AOT/AOT_stimuli/rescaled_final/0972_fw.mp4	0.0	304.1460716724396	2.4919164180755615
67	288.5499520301819	pulse	1	t		65.0	2.5	/experiments/knapen_AOT/AOT_stimuli/rescaled_final/0972_fw.mp4	0.0	305.319687128067	
67	289.86825299263	fix_post	2		12	65.0	2.5	/experiments/knapen_AOT/AOT_stimuli/rescaled_final/0972_fw.mp4	0.0	306.63798809051514	0.10003423690795898
68	289.96828722953796	fix_pre	0		120	66.0	2.5	/experiments/knapen_AOT/AOT_stimuli/rescaled_final/0852_rv.mp4	0.0	306.7380223274231	1.0085196495056152
68	290.1518888473511	pulse	0	t		66.0	2.5	/experiments/knapen_AOT/AOT_stimuli/rescaled_final/0852_rv.mp4	0.0	306.9216239452362	
68	290.9768068790436	movie	1		278	66.0	2.5	/experiments/knapen_AOT/AOT_stimuli/rescaled_final/0852_rv.mp4	0.0	307.7465419769287	2.49198055267334
68	291.75223755836487	pulse	1	t		66.0	2.5	/experiments/knapen_AOT/AOT_stimuli/rescaled_final/0852_rv.mp4	0.0	308.52197265625	
68	293.3501696586609	pulse	1	t		66.0	2.5	/experiments/knapen_AOT/AOT_stimuli/rescaled_final/0852_rv.mp4	0.0	310.119904756546	
68	293.4687874317169	fix_post	2		12	66.0	2.5	/experiments/knapen_AOT/AOT_stimuli/rescaled_final/0852_rv.mp4	0.0	310.23852252960205	0.10001873970031738
69	293.56880617141724	fix_pre	0		120	67.0	2.5	/experiments/knapen_AOT/AOT_stimuli/rescaled_final/0798_rv.mp4	0.0	310.33854126930237	1.008523941040039
69	294.5773301124573	movie	1		287	67.0	2.5	/experiments/knapen_AOT/AOT_stimuli/rescaled_final/0798_rv.mp4	0.0	311.3470652103424	2.492002248764038
69	294.9512028694153	pulse	1	t		67.0	2.5	/experiments/knapen_AOT/AOT_stimuli/rescaled_final/0798_rv.mp4	0.0	311.7209379673004	
69	296.55076813697815	pulse	1	t		67.0	2.5	/experiments/knapen_AOT/AOT_stimuli/rescaled_final/0798_rv.mp4	0.0	313.3205032348633	
69	297.0693323612213	fix_post	2		12	67.0	2.5	/experiments/knapen_AOT/AOT_stimuli/rescaled_final/0798_rv.mp4	0.0	313.83906745910645	0.10002326965332031
70	297.16935563087463	fix_pre	0		119	68.0	2.5	/experiments/knapen_AOT/AOT_stimuli/rescaled_final/1003_rv.mp4	0.0	313.93909072875977	1.0001561641693115
70	298.15306878089905	pulse	0	t		68.0	2.5	/experiments/knapen_AOT/AOT_stimuli/rescaled_final/1003_rv.mp4	0.0	314.9228038787842	
70	298.16951179504395	movie	1		270	68.0	2.5	/experiments/knapen_AOT/AOT_stimuli/rescaled_final/1003_rv.mp4	0.0	314.9392468929291	2.500361204147339
70	299.7532889842987	pulse	1	t		68.0	2.5	/experiments/knapen_AOT/AOT_stimuli/rescaled_final/1003_rv.mp4	0.0	316.52302408218384	
70	300.6698729991913	fix_post	2		12	68.0	2.5	/experiments/knapen_AOT/AOT_stimuli/rescaled_final/1003_rv.mp4	0.0	317.4396080970764	0.10003066062927246
71	300.76990365982056	fix_pre	0		120	69.0	2.5	blank	1.0	317.5396387577057	1.000136137008667
71	301.35351824760437	pulse	0	t		69.0	2.5	blank	1.0	318.1232533454895	
71	301.7700397968292	movie	1		300	69.0	2.5	blank	1.0	318.53977489471436	2.500359535217285
71	302.9539740085602	pulse	1	t		69.0	2.5	blank	1.0	319.7237091064453	
71	304.2703993320465	fix_post	2		12	69.0	2.5	blank	1.0	321.04013442993164	0.10002899169921875
72	304.3704283237457	fix_pre	0		120	70.0	2.5	/experiments/knapen_AOT/AOT_stimuli/rescaled_final/1172_rv.mp4	0.0	321.14016342163086	1.0086445808410645
72	304.546350479126	pulse	0	t		70.0	2.5	/experiments/knapen_AOT/AOT_stimuli/rescaled_final/1172_rv.mp4	0.0	321.3160855770111	
72	305.3790729045868	movie	1		287	70.0	2.5	/experiments/knapen_AOT/AOT_stimuli/rescaled_final/1172_rv.mp4	0.0	322.1488080024719	2.491888999938965
72	306.14647245407104	pulse	1	t		70.0	2.5	/experiments/knapen_AOT/AOT_stimuli/rescaled_final/1172_rv.mp4	0.0	322.9162075519562	
72	307.7466239929199	pulse	1	t		70.0	2.5	/experiments/knapen_AOT/AOT_stimuli/rescaled_final/1172_rv.mp4	0.0	324.51635909080505	
72	307.87096190452576	fix_post	2		12	70.0	2.5	/experiments/knapen_AOT/AOT_stimuli/rescaled_final/1172_rv.mp4	0.0	324.6406970024109	0.10001587867736816
73	307.9709777832031	fix_pre	0		120	71.0	2.5	/experiments/knapen_AOT/AOT_stimuli/rescaled_final/1016_fw.mp4	0.0	324.74071288108826	1.008495569229126
73	308.97947335243225	movie	1		284	71.0	2.5	/experiments/knapen_AOT/AOT_stimuli/rescaled_final/1016_fw.mp4	0.0	325.7492084503174	2.492032051086426
73	309.34700083732605	pulse	1	t		71.0	2.5	/experiments/knapen_AOT/AOT_stimuli/rescaled_final/1016_fw.mp4	0.0	326.1167359352112	
73	310.94704818725586	pulse	1	t		71.0	2.5	/experiments/knapen_AOT/AOT_stimuli/rescaled_final/1016_fw.mp4	0.0	327.716783285141	
73	311.4715054035187	fix_post	2		12	71.0	2.5	/experiments/knapen_AOT/AOT_stimuli/rescaled_final/1016_fw.mp4	0.0	328.2412405014038	0.10020756721496582
74	311.57171297073364	fix_pre	0		118	72.0	2.5	/experiments/knapen_AOT/AOT_stimuli/rescaled_final/2076_rv.mp4	0.0	328.3414480686188	0.9916324615478516
74	312.5469551086426	pulse	0	t		72.0	2.5	/experiments/knapen_AOT/AOT_stimuli/rescaled_final/2076_rv.mp4	0.0	329.3166902065277	
74	312.5633454322815	movie	1		273	72.0	2.5	/experiments/knapen_AOT/AOT_stimuli/rescaled_final/2076_rv.mp4	0.0	329.3330805301666	2.500556230545044
74	314.14719414711	pulse	1	t		72.0	2.5	/experiments/knapen_AOT/AOT_stimuli/rescaled_final/2076_rv.mp4	0.0	330.9169292449951	
74	315.06390166282654	fix_post	2		12	72.0	2.5	/experiments/knapen_AOT/AOT_stimuli/rescaled_final/2076_rv.mp4	0.0	331.83363676071167	0.09982633590698242
75	315.1637279987335	fix_pre	0		120	73.0	2.5	/experiments/knapen_AOT/AOT_stimuli/rescaled_final/0092_rv.mp4	0.0	331.93346309661865	1.0085945129394531
75	315.74739170074463	pulse	0	t		73.0	2.5	/experiments/knapen_AOT/AOT_stimuli/rescaled_final/0092_rv.mp4	0.0	332.51712679862976	
75	316.172322511673	movie	1		281	73.0	2.5	/experiments/knapen_AOT/AOT_stimuli/rescaled_final/0092_rv.mp4	0.0	332.9420576095581	2.491917610168457
75	317.3460774421692	pulse	1	t		73.0	2.5	/experiments/knapen_AOT/AOT_stimuli/rescaled_final/0092_rv.mp4	0.0	334.1158125400543	
75	318.66424012184143	fix_post	2		12	73.0	2.5	/experiments/knapen_AOT/AOT_stimuli/rescaled_final/0092_rv.mp4	0.0	335.43397521972656	0.10002636909484863
76	318.7642664909363	fix_pre	0		120	74.0	2.5	/experiments/knapen_AOT/AOT_stimuli/rescaled_final/0436_rv.mp4	0.0	335.5340015888214	1.0085041522979736
76	318.94782543182373	pulse	0	t		74.0	2.5	/experiments/knapen_AOT/AOT_stimuli/rescaled_final/0436_rv.mp4	0.0	335.71756052970886	
76	319.77277064323425	movie	1		286	74.0	2.5	/experiments/knapen_AOT/AOT_stimuli/rescaled_final/0436_rv.mp4	0.0	336.5425057411194	2.492112398147583
76	320.5458912849426	pulse	1	t		74.0	2.5	/experiments/knapen_AOT/AOT_stimuli/rescaled_final/0436_rv.mp4	0.0	337.31562638282776	
76	322.14869713783264	pulse	1	t		74.0	2.5	/experiments/knapen_AOT/AOT_stimuli/rescaled_final/0436_rv.mp4	0.0	338.9184322357178	
76	322.26488304138184	fix_post	2		12	74.0	2.5	/experiments/knapen_AOT/AOT_stimuli/rescaled_final/0436_rv.mp4	0.0	339.03461813926697	0.09992671012878418
77	322.3648097515106	fix_pre	0		120	75.0	2.5	/experiments/knapen_AOT/AOT_stimuli/rescaled_final/0077_rv.mp4	0.0	339.13454484939575	1.0084784030914307
77	323.37328815460205	movie	1		280	75.0	2.5	/experiments/knapen_AOT/AOT_stimuli/rescaled_final/0077_rv.mp4	0.0	340.1430232524872	2.4920876026153564
77	323.7487735748291	pulse	1	t		75.0	2.5	/experiments/knapen_AOT/AOT_stimuli/rescaled_final/0077_rv.mp4	0.0	340.51850867271423	
77	325.3469293117523	pulse	1	t		75.0	2.5	/experiments/knapen_AOT/AOT_stimuli/rescaled_final/0077_rv.mp4	0.0	342.11666440963745	
77	325.8653757572174	fix_post	2		12	75.0	2.5	/experiments/knapen_AOT/AOT_stimuli/rescaled_final/0077_rv.mp4	0.0	342.63511085510254	0.09997224807739258
78	325.9653480052948	fix_pre	0		119	76.0	2.5	/experiments/knapen_AOT/AOT_stimuli/rescaled_final/0466_fw.mp4	0.0	342.73508310317993	1.0002260208129883
78	326.9491913318634	pulse	0	t		76.0	2.5	/experiments/knapen_AOT/AOT_stimuli/rescaled_final/0466_fw.mp4	0.0	343.71892642974854	
78	326.9655740261078	movie	1		288	76.0	2.5	/experiments/knapen_AOT/AOT_stimuli/rescaled_final/0466_fw.mp4	0.0	343.7353091239929	2.50028133392334
78	328.5493824481964	pulse	1	t		76.0	2.5	/experiments/knapen_AOT/AOT_stimuli/rescaled_final/0466_fw.mp4	0.0	345.31911754608154	
78	329.4658553600311	fix_post	2		12	76.0	2.5	/experiments/knapen_AOT/AOT_stimuli/rescaled_final/0466_fw.mp4	0.0	346.23559045791626	0.10002255439758301
79	329.5658779144287	fix_pre	0		120	77.0	2.5	blank	1.0	346.33561301231384	1.0001263618469238
79	330.1494963169098	pulse	0	t		77.0	2.5	blank	1.0	346.9192314147949	
79	330.56600427627563	movie	1		300	77.0	2.5	blank	1.0	347.33573937416077	2.5003914833068848
79	331.7498378753662	pulse	1	t		77.0	2.5	blank	1.0	348.51957297325134	
79	333.0663957595825	fix_post	2		12	77.0	2.5	blank	1.0	349.83613085746765	0.10002017021179199
80	333.1664159297943	fix_pre	0		120	78.0	2.5	/experiments/knapen_AOT/AOT_stimuli/rescaled_final/2179_fw.mp4	0.0	349.93615102767944	1.0084755420684814
80	333.35000491142273	pulse	0	t		78.0	2.5	/experiments/knapen_AOT/AOT_stimuli/rescaled_final/2179_fw.mp4	0.0	350.11974000930786	
80	334.1748914718628	movie	1		275	78.0	2.5	/experiments/knapen_AOT/AOT_stimuli/rescaled_final/2179_fw.mp4	0.0	350.9446265697479	2.492055892944336
80	334.9479548931122	pulse	1	t		78.0	2.5	/experiments/knapen_AOT/AOT_stimuli/rescaled_final/2179_fw.mp4	0.0	351.7176899909973	
80	336.5486812591553	pulse	1	t		78.0	2.5	/experiments/knapen_AOT/AOT_stimuli/rescaled_final/2179_fw.mp4	0.0	353.3184163570404	
80	336.66694736480713	fix_post	2		12	78.0	2.5	/experiments/knapen_AOT/AOT_stimuli/rescaled_final/2179_fw.mp4	0.0	353.43668246269226	0.1000220775604248
81	336.76696944236755	fix_pre	0		120	79.0	2.5	/experiments/knapen_AOT/AOT_stimuli/rescaled_final/2076_rv.mp4	0.0	353.5367045402527	1.0085344314575195
81	337.7755038738251	movie	1		274	79.0	2.5	/experiments/knapen_AOT/AOT_stimuli/rescaled_final/2076_rv.mp4	0.0	354.5452389717102	2.4919886589050293
81	338.1493694782257	pulse	1	t		79.0	2.5	/experiments/knapen_AOT/AOT_stimuli/rescaled_final/2076_rv.mp4	0.0	354.91910457611084	
81	339.7490978240967	pulse	1	t		79.0	2.5	/experiments/knapen_AOT/AOT_stimuli/rescaled_final/2076_rv.mp4	0.0	356.5188329219818	
81	340.2674925327301	fix_post	2		12	79.0	2.5	/experiments/knapen_AOT/AOT_stimuli/rescaled_final/2076_rv.mp4	0.0	357.03722763061523	0.10000038146972656
82	340.36749291419983	fix_pre	0		119	80.0	2.5	/experiments/knapen_AOT/AOT_stimuli/rescaled_final/1774_fw.mp4	0.0	357.13722801208496	1.0085415840148926
82	341.3512408733368	pulse	0	t		80.0	2.5	/experiments/knapen_AOT/AOT_stimuli/rescaled_final/1774_fw.mp4	0.0	358.1209759712219	
82	341.3760344982147	movie	1		265	80.0	2.5	/experiments/knapen_AOT/AOT_stimuli/rescaled_final/1774_fw.mp4	0.0	358.14576959609985	2.492006301879883
82	342.950528383255	pulse	1	t		80.0	2.5	/experiments/knapen_AOT/AOT_stimuli/rescaled_final/1774_fw.mp4	0.0	359.72026348114014	
82	343.8680408000946	fix_post	2		12	80.0	2.5	/experiments/knapen_AOT/AOT_stimuli/rescaled_final/1774_fw.mp4	0.0	360.63777589797974	0.10006046295166016
83	343.96810126304626	fix_pre	0		120	81.0	2.5	/experiments/knapen_AOT/AOT_stimuli/rescaled_final/1427_rv.mp4	0.0	360.7378363609314	1.0084185600280762
83	344.5516765117645	pulse	0	t		81.0	2.5	/experiments/knapen_AOT/AOT_stimuli/rescaled_final/1427_rv.mp4	0.0	361.32141160964966	
83	344.97651982307434	movie	1		274	81.0	2.5	/experiments/knapen_AOT/AOT_stimuli/rescaled_final/1427_rv.mp4	0.0	361.7462549209595	2.4920413494110107
83	346.1500389575958	pulse	1	t		81.0	2.5	/experiments/knapen_AOT/AOT_stimuli/rescaled_final/1427_rv.mp4	0.0	362.91977405548096	
83	347.46856117248535	fix_post	2		12	81.0	2.5	/experiments/knapen_AOT/AOT_stimuli/rescaled_final/1427_rv.mp4	0.0	364.2382962703705	0.10003185272216797
84	347.5685930252075	fix_pre	0		120	82.0	2.5	/experiments/knapen_AOT/AOT_stimuli/rescaled_final/2089_rv.mp4	0.0	364.33832812309265	1.0085117816925049
84	347.7522168159485	pulse	0	t		82.0	2.5	/experiments/knapen_AOT/AOT_stimuli/rescaled_final/2089_rv.mp4	0.0	364.5219519138336	
84	348.5771048069	movie	1		276	82.0	2.5	/experiments/knapen_AOT/AOT_stimuli/rescaled_final/2089_rv.mp4	0.0	365.34683990478516	2.4920365810394287
84	349.3505527973175	pulse	1	t		82.0	2.5	/experiments/knapen_AOT/AOT_stimuli/rescaled_final/2089_rv.mp4	0.0	366.12028789520264	
84	350.9508204460144	pulse	1	t		82.0	2.5	/experiments/knapen_AOT/AOT_stimuli/rescaled_final/2089_rv.mp4	0.0	367.72055554389954	
84	351.06914138793945	fix_post	2		12	82.0	2.5	/experiments/knapen_AOT/AOT_stimuli/rescaled_final/2089_rv.mp4	0.0	367.8388764858246	0.09998250007629395
85	351.16912388801575	fix_pre	0		120	83.0	2.5	blank	1.0	367.9388589859009	1.000150203704834
85	352.1692740917206	movie	1		300	83.0	2.5	blank	1.0	368.9390091896057	2.500431537628174
85	352.5529396533966	pulse	1	t		83.0	2.5	blank	1.0	369.32267475128174	
85	354.14627599716187	pulse	1	t		83.0	2.5	blank	1.0	370.916011095047	
85	354.66970562934875	fix_post	2		11	83.0	2.5	blank	1.0	371.4394407272339	0.10004162788391113
87	354.76974725723267	stim	0		1715					371.5394823551178	14.293760538101196
87	355.74688506126404	pulse	0	t						372.51662015914917	
87	357.345751285553	pulse	0	t						374.1154863834381	
87	358.94551634788513	pulse	0	t						375.71525144577026	
87	360.5458915233612	pulse	0	t						377.31562662124634	
87	362.146137714386	pulse	0	t						378.9158728122711	
87	363.74623465538025	pulse	0	t						380.5159697532654	
87	365.34648060798645	pulse	0	t						382.1162157058716	
87	366.9468262195587	pulse	0	t						383.71656131744385	
87	368.54698491096497	pulse	0	t						385.3167200088501	
