trial_nr	onset	event_type	phase	response	nr_frames	movie_index	movie_duration	movie_file	blank	onset_abs	duration
0	0.20815801620483398	stim	0		33					19.525156021118164	0.27497100830078125
0	0.4750058650970459	response	0	space						19.792003870010376	
1	0.48312902450561523	stim	0		4287					19.800127029418945	35.74194288253784
1	36.21492886543274	pulse	0	t						55.53192687034607	
1	36.22507190704346	stim	1		1717					55.54206991195679	14.307204008102417
1	37.80570197105408	pulse	1	t						57.12269997596741	
1	39.405844926834106	pulse	1	t						58.72284293174744	
1	41.00615906715393	pulse	1	t						60.32315707206726	
1	42.606236934661865	pulse	1	t						61.923234939575195	
1	44.20656704902649	pulse	1	t						63.52356505393982	
1	45.80673694610596	pulse	1	t						65.12373495101929	
1	47.4070029258728	pulse	1	t						66.72400093078613	
1	49.00722002983093	pulse	1	t						68.32421803474426	
2	50.532275915145874	fix_pre	0		10	0.0	2.5	/experiments/knapen_AOT/AOT_stimuli/rescaled_final/0565_fw.mp4	0.0	69.8492739200592	0.08345293998718262
2	50.60747694969177	pulse	0	t		0.0	2.5	/experiments/knapen_AOT/AOT_stimuli/rescaled_final/0565_fw.mp4	0.0	69.9244749546051	
2	50.61572885513306	movie	1		243	0.0	2.5	/experiments/knapen_AOT/AOT_stimuli/rescaled_final/0565_fw.mp4	0.0	69.93272686004639	2.508772134780884
2	52.20905089378357	pulse	1	t		0.0	2.5	/experiments/knapen_AOT/AOT_stimuli/rescaled_final/0565_fw.mp4	0.0	71.5260488986969	
2	53.12450098991394	fix_post	2		12	0.0	2.5	/experiments/knapen_AOT/AOT_stimuli/rescaled_final/0565_fw.mp4	0.0	72.44149899482727	0.09994888305664062
3	53.22444987297058	fix_pre	0		120	1.0	2.5	/experiments/knapen_AOT/AOT_stimuli/rescaled_final/1797_rv.mp4	0.0	72.54144787788391	1.0000619888305664
3	53.80807089805603	pulse	0	t		1.0	2.5	/experiments/knapen_AOT/AOT_stimuli/rescaled_final/1797_rv.mp4	0.0	73.12506890296936	
3	54.22451186180115	movie	1		243	1.0	2.5	/experiments/knapen_AOT/AOT_stimuli/rescaled_final/1797_rv.mp4	0.0	73.54150986671448	2.50058913230896
3	55.408427000045776	pulse	1	t		1.0	2.5	/experiments/knapen_AOT/AOT_stimuli/rescaled_final/1797_rv.mp4	0.0	74.7254250049591	
3	56.72510099411011	fix_post	2		12	1.0	2.5	/experiments/knapen_AOT/AOT_stimuli/rescaled_final/1797_rv.mp4	0.0	76.04209899902344	0.09985804557800293
4	56.82495903968811	fix_pre	0		120	2.0	2.5	/experiments/knapen_AOT/AOT_stimuli/rescaled_final/0872_fw.mp4	0.0	76.14195704460144	1.0001499652862549
4	57.00838589668274	pulse	0	t		2.0	2.5	/experiments/knapen_AOT/AOT_stimuli/rescaled_final/0872_fw.mp4	0.0	76.32538390159607	
4	57.825109004974365	movie	1		243	2.0	2.5	/experiments/knapen_AOT/AOT_stimuli/rescaled_final/0872_fw.mp4	0.0	77.1421070098877	2.500472068786621
4	58.60869884490967	pulse	1	t		2.0	2.5	/experiments/knapen_AOT/AOT_stimuli/rescaled_final/0872_fw.mp4	0.0	77.925696849823	
4	60.208802938461304	pulse	1	t		2.0	2.5	/experiments/knapen_AOT/AOT_stimuli/rescaled_final/0872_fw.mp4	0.0	79.52580094337463	
4	60.325581073760986	fix_post	2		12	2.0	2.5	/experiments/knapen_AOT/AOT_stimuli/rescaled_final/0872_fw.mp4	0.0	79.64257907867432	0.09990692138671875
5	60.425487995147705	fix_pre	0		120	3.0	2.5	/experiments/knapen_AOT/AOT_stimuli/rescaled_final/0346_rv.mp4	0.0	79.74248600006104	1.0001089572906494
5	61.425596952438354	movie	1		242	3.0	2.5	/experiments/knapen_AOT/AOT_stimuli/rescaled_final/0346_rv.mp4	0.0	80.74259495735168	2.4922420978546143
5	61.80979299545288	pulse	1	t		3.0	2.5	/experiments/knapen_AOT/AOT_stimuli/rescaled_final/0346_rv.mp4	0.0	81.12679100036621	
5	63.40939402580261	pulse	1	t		3.0	2.5	/experiments/knapen_AOT/AOT_stimuli/rescaled_final/0346_rv.mp4	0.0	82.72639203071594	
5	63.91783905029297	fix_post	2		12	3.0	2.5	/experiments/knapen_AOT/AOT_stimuli/rescaled_final/0346_rv.mp4	0.0	83.2348370552063	0.0998678207397461
6	64.01770687103271	fix_pre	0		120	4.0	2.5	/experiments/knapen_AOT/AOT_stimuli/rescaled_final/0271_fw.mp4	0.0	83.33470487594604	1.0001699924468994
6	65.00967192649841	pulse	0	t		4.0	2.5	/experiments/knapen_AOT/AOT_stimuli/rescaled_final/0271_fw.mp4	0.0	84.32666993141174	
6	65.01787686347961	movie	1		244	4.0	2.5	/experiments/knapen_AOT/AOT_stimuli/rescaled_final/0271_fw.mp4	0.0	84.33487486839294	2.508697986602783
6	66.61059093475342	pulse	1	t		4.0	2.5	/experiments/knapen_AOT/AOT_stimuli/rescaled_final/0271_fw.mp4	0.0	85.92758893966675	
6	67.5265748500824	fix_post	2		12	4.0	2.5	/experiments/knapen_AOT/AOT_stimuli/rescaled_final/0271_fw.mp4	0.0	86.84357285499573	0.09997820854187012
7	67.62655305862427	fix_pre	0		120	5.0	2.5	blank	1.0	86.9435510635376	1.000126838684082
7	68.21023201942444	pulse	0	t		5.0	2.5	blank	1.0	87.52723002433777	
7	68.62667989730835	movie	1		300	5.0	2.5	blank	1.0	87.94367790222168	2.5004351139068604
7	69.81036400794983	pulse	1	t		5.0	2.5	blank	1.0	89.12736201286316	
7	71.12711501121521	fix_post	2		12	5.0	2.5	blank	1.0	90.44411301612854	0.0999748706817627
8	71.22708988189697	fix_pre	0		120	6.0	2.5	/experiments/knapen_AOT/AOT_stimuli/rescaled_final/1810_fw.mp4	0.0	90.5440878868103	1.0001201629638672
8	71.41056084632874	pulse	0	t		6.0	2.5	/experiments/knapen_AOT/AOT_stimuli/rescaled_final/1810_fw.mp4	0.0	90.72755885124207	
8	72.22721004486084	movie	1		242	6.0	2.5	/experiments/knapen_AOT/AOT_stimuli/rescaled_final/1810_fw.mp4	0.0	91.54420804977417	2.5004639625549316
8	73.01097393035889	pulse	1	t		6.0	2.5	/experiments/knapen_AOT/AOT_stimuli/rescaled_final/1810_fw.mp4	0.0	92.32797193527222	
8	74.61103105545044	pulse	1	t		6.0	2.5	/experiments/knapen_AOT/AOT_stimuli/rescaled_final/1810_fw.mp4	0.0	93.92802906036377	
8	74.72767400741577	fix_post	2		12	6.0	2.5	/experiments/knapen_AOT/AOT_stimuli/rescaled_final/1810_fw.mp4	0.0	94.0446720123291	0.09994888305664062
9	74.82762289047241	fix_pre	0		120	7.0	2.5	/experiments/knapen_AOT/AOT_stimuli/rescaled_final/0135_rv.mp4	0.0	94.14462089538574	1.0001161098480225
9	75.82773900032043	movie	1		241	7.0	2.5	/experiments/knapen_AOT/AOT_stimuli/rescaled_final/0135_rv.mp4	0.0	95.14473700523376	2.4922149181365967
9	76.21193790435791	pulse	1	t		7.0	2.5	/experiments/knapen_AOT/AOT_stimuli/rescaled_final/0135_rv.mp4	0.0	95.52893590927124	
9	77.80429792404175	pulse	1	t		7.0	2.5	/experiments/knapen_AOT/AOT_stimuli/rescaled_final/0135_rv.mp4	0.0	97.12129592895508	
9	78.31995391845703	fix_post	2		12	7.0	2.5	/experiments/knapen_AOT/AOT_stimuli/rescaled_final/0135_rv.mp4	0.0	97.63695192337036	0.09986400604248047
10	78.41981792449951	fix_pre	0		120	8.0	2.5	/experiments/knapen_AOT/AOT_stimuli/rescaled_final/0438_fw.mp4	0.0	97.73681592941284	1.0001389980316162
10	79.40447306632996	pulse	0	t		8.0	2.5	/experiments/knapen_AOT/AOT_stimuli/rescaled_final/0438_fw.mp4	0.0	98.72147107124329	
10	79.41995692253113	movie	1		244	8.0	2.5	/experiments/knapen_AOT/AOT_stimuli/rescaled_final/0438_fw.mp4	0.0	98.73695492744446	2.508810043334961
10	81.01638984680176	pulse	1	t		8.0	2.5	/experiments/knapen_AOT/AOT_stimuli/rescaled_final/0438_fw.mp4	0.0	100.33338785171509	
10	81.92876696586609	fix_post	2		12	8.0	2.5	/experiments/knapen_AOT/AOT_stimuli/rescaled_final/0438_fw.mp4	0.0	101.24576497077942	0.09993791580200195
11	82.02870488166809	fix_pre	0		120	9.0	2.5	/experiments/knapen_AOT/AOT_stimuli/rescaled_final/1853_fw.mp4	0.0	101.34570288658142	1.0001029968261719
11	82.60471391677856	pulse	0	t		9.0	2.5	/experiments/knapen_AOT/AOT_stimuli/rescaled_final/1853_fw.mp4	0.0	101.9217119216919	
11	83.02880787849426	movie	1		242	9.0	2.5	/experiments/knapen_AOT/AOT_stimuli/rescaled_final/1853_fw.mp4	0.0	102.34580588340759	2.500472068786621
11	84.20480990409851	pulse	1	t		9.0	2.5	/experiments/knapen_AOT/AOT_stimuli/rescaled_final/1853_fw.mp4	0.0	103.52180790901184	
11	85.52927994728088	fix_post	2		12	9.0	2.5	/experiments/knapen_AOT/AOT_stimuli/rescaled_final/1853_fw.mp4	0.0	104.84627795219421	0.09992599487304688
12	85.62920594215393	fix_pre	0		118	10.0	2.5	/experiments/knapen_AOT/AOT_stimuli/rescaled_final/0280_fw.mp4	0.0	104.94620394706726	1.0001819133758545
12	85.80432987213135	pulse	0	t		10.0	2.5	/experiments/knapen_AOT/AOT_stimuli/rescaled_final/0280_fw.mp4	0.0	105.12132787704468	
12	86.62938785552979	movie	1		242	10.0	2.5	/experiments/knapen_AOT/AOT_stimuli/rescaled_final/0280_fw.mp4	0.0	105.94638586044312	2.5005362033843994
12	87.40469193458557	pulse	1	t		10.0	2.5	/experiments/knapen_AOT/AOT_stimuli/rescaled_final/0280_fw.mp4	0.0	106.7216899394989	
12	89.00495290756226	pulse	1	t		10.0	2.5	/experiments/knapen_AOT/AOT_stimuli/rescaled_final/0280_fw.mp4	0.0	108.32195091247559	
12	89.12992405891418	fix_post	2		12	10.0	2.5	/experiments/knapen_AOT/AOT_stimuli/rescaled_final/0280_fw.mp4	0.0	108.44692206382751	0.0998067855834961
13	89.22973084449768	fix_pre	0		120	11.0	2.5	/experiments/knapen_AOT/AOT_stimuli/rescaled_final/1373_fw.mp4	0.0	108.54672884941101	1.00018310546875
13	90.22991394996643	movie	1		241	11.0	2.5	/experiments/knapen_AOT/AOT_stimuli/rescaled_final/1373_fw.mp4	0.0	109.54691195487976	2.4921250343322754
13	90.60514187812805	pulse	1	t		11.0	2.5	/experiments/knapen_AOT/AOT_stimuli/rescaled_final/1373_fw.mp4	0.0	109.92213988304138	
13	92.2054979801178	pulse	1	t		11.0	2.5	/experiments/knapen_AOT/AOT_stimuli/rescaled_final/1373_fw.mp4	0.0	111.52249598503113	
13	92.7220389842987	fix_post	2		12	11.0	2.5	/experiments/knapen_AOT/AOT_stimuli/rescaled_final/1373_fw.mp4	0.0	112.03903698921204	0.09998106956481934
14	92.82202005386353	fix_pre	0		119	12.0	2.5	blank	1.0	112.13901805877686	0.9917709827423096
14	93.80565786361694	pulse	0	t		12.0	2.5	blank	1.0	113.12265586853027	
14	93.81379103660583	movie	1		301	12.0	2.5	blank	1.0	113.13078904151917	2.508708953857422
14	95.40586185455322	pulse	1	t		12.0	2.5	blank	1.0	114.72285985946655	
14	96.32249999046326	fix_post	2		12	12.0	2.5	blank	1.0	115.63949799537659	0.09996294975280762
15	96.42246294021606	fix_pre	0		120	13.0	2.5	/experiments/knapen_AOT/AOT_stimuli/rescaled_final/0362_rv.mp4	0.0	115.7394609451294	1.0001740455627441
15	97.00607085227966	pulse	0	t		13.0	2.5	/experiments/knapen_AOT/AOT_stimuli/rescaled_final/0362_rv.mp4	0.0	116.323068857193	
15	97.42263698577881	movie	1		243	13.0	2.5	/experiments/knapen_AOT/AOT_stimuli/rescaled_final/0362_rv.mp4	0.0	116.73963499069214	2.5003509521484375
15	98.60642886161804	pulse	1	t		13.0	2.5	/experiments/knapen_AOT/AOT_stimuli/rescaled_final/0362_rv.mp4	0.0	117.92342686653137	
15	99.92298793792725	fix_post	2		12	13.0	2.5	/experiments/knapen_AOT/AOT_stimuli/rescaled_final/0362_rv.mp4	0.0	119.23998594284058	0.10006904602050781
16	100.02305698394775	fix_pre	0		120	14.0	2.5	/experiments/knapen_AOT/AOT_stimuli/rescaled_final/0125_fw.mp4	0.0	119.34005498886108	1.0001249313354492
16	100.20656991004944	pulse	0	t		14.0	2.5	/experiments/knapen_AOT/AOT_stimuli/rescaled_final/0125_fw.mp4	0.0	119.52356791496277	
16	101.0231819152832	movie	1		242	14.0	2.5	/experiments/knapen_AOT/AOT_stimuli/rescaled_final/0125_fw.mp4	0.0	120.34017992019653	2.5005531311035156
16	101.80686688423157	pulse	1	t		14.0	2.5	/experiments/knapen_AOT/AOT_stimuli/rescaled_final/0125_fw.mp4	0.0	121.1238648891449	
16	103.40691685676575	pulse	1	t		14.0	2.5	/experiments/knapen_AOT/AOT_stimuli/rescaled_final/0125_fw.mp4	0.0	122.72391486167908	
16	103.52373504638672	fix_post	2		12	14.0	2.5	/experiments/knapen_AOT/AOT_stimuli/rescaled_final/0125_fw.mp4	0.0	122.84073305130005	0.09985494613647461
17	103.6235899925232	fix_pre	0		120	15.0	2.5	/experiments/knapen_AOT/AOT_stimuli/rescaled_final/0936_rv.mp4	0.0	122.94058799743652	1.0001108646392822
17	104.62370085716248	movie	1		242	15.0	2.5	/experiments/knapen_AOT/AOT_stimuli/rescaled_final/0936_rv.mp4	0.0	123.9406988620758	2.4922001361846924
17	105.00872206687927	pulse	1	t		15.0	2.5	/experiments/knapen_AOT/AOT_stimuli/rescaled_final/0936_rv.mp4	0.0	124.3257200717926	
17	106.60751295089722	pulse	1	t		15.0	2.5	/experiments/knapen_AOT/AOT_stimuli/rescaled_final/0936_rv.mp4	0.0	125.92451095581055	
17	107.11590099334717	fix_post	2		12	15.0	2.5	/experiments/knapen_AOT/AOT_stimuli/rescaled_final/0936_rv.mp4	0.0	126.4328989982605	0.09991192817687988
18	107.21581292152405	fix_pre	0		120	16.0	2.5	/experiments/knapen_AOT/AOT_stimuli/rescaled_final/1931_rv.mp4	0.0	126.53281092643738	1.0000929832458496
18	108.20785188674927	pulse	0	t		16.0	2.5	/experiments/knapen_AOT/AOT_stimuli/rescaled_final/1931_rv.mp4	0.0	127.5248498916626	
18	108.2159059047699	movie	1		243	16.0	2.5	/experiments/knapen_AOT/AOT_stimuli/rescaled_final/1931_rv.mp4	0.0	127.53290390968323	2.508763074874878
18	109.81263089179993	pulse	1	t		16.0	2.5	/experiments/knapen_AOT/AOT_stimuli/rescaled_final/1931_rv.mp4	0.0	129.12962889671326	
18	110.72466897964478	fix_post	2		12	16.0	2.5	/experiments/knapen_AOT/AOT_stimuli/rescaled_final/1931_rv.mp4	0.0	130.0416669845581	0.1000058650970459
19	110.82467484474182	fix_pre	0		120	17.0	2.5	/experiments/knapen_AOT/AOT_stimuli/rescaled_final/0574_rv.mp4	0.0	130.14167284965515	1.0001342296600342
19	111.40820789337158	pulse	0	t		17.0	2.5	/experiments/knapen_AOT/AOT_stimuli/rescaled_final/0574_rv.mp4	0.0	130.7252058982849	
19	111.82480907440186	movie	1		245	17.0	2.5	/experiments/knapen_AOT/AOT_stimuli/rescaled_final/0574_rv.mp4	0.0	131.14180707931519	2.5003387928009033
19	113.00854587554932	pulse	1	t		17.0	2.5	/experiments/knapen_AOT/AOT_stimuli/rescaled_final/0574_rv.mp4	0.0	132.32554388046265	
19	114.32514786720276	fix_post	2		12	17.0	2.5	/experiments/knapen_AOT/AOT_stimuli/rescaled_final/0574_rv.mp4	0.0	133.6421458721161	0.10003900527954102
20	114.4251868724823	fix_pre	0		120	18.0	2.5	/experiments/knapen_AOT/AOT_stimuli/rescaled_final/1964_rv.mp4	0.0	133.74218487739563	1.0001189708709717
20	114.60885000228882	pulse	0	t		18.0	2.5	/experiments/knapen_AOT/AOT_stimuli/rescaled_final/1964_rv.mp4	0.0	133.92584800720215	
20	115.42530584335327	movie	1		243	18.0	2.5	/experiments/knapen_AOT/AOT_stimuli/rescaled_final/1964_rv.mp4	0.0	134.7423038482666	2.5006091594696045
20	116.20905900001526	pulse	1	t		18.0	2.5	/experiments/knapen_AOT/AOT_stimuli/rescaled_final/1964_rv.mp4	0.0	135.5260570049286	
20	117.80932593345642	pulse	1	t		18.0	2.5	/experiments/knapen_AOT/AOT_stimuli/rescaled_final/1964_rv.mp4	0.0	137.12632393836975	
20	117.92591500282288	fix_post	2		12	18.0	2.5	/experiments/knapen_AOT/AOT_stimuli/rescaled_final/1964_rv.mp4	0.0	137.2429130077362	0.10011601448059082
21	118.02603101730347	fix_pre	0		120	19.0	2.5	blank	1.0	137.3430290222168	0.9998569488525391
21	119.025887966156	movie	1		299	19.0	2.5	blank	1.0	138.34288597106934	2.492027997970581
21	119.40952801704407	pulse	1	t		19.0	2.5	blank	1.0	138.7265260219574	
21	121.00976896286011	pulse	1	t		19.0	2.5	blank	1.0	140.32676696777344	
21	121.51791596412659	fix_post	2		12	19.0	2.5	blank	1.0	140.83491396903992	0.09999203681945801
22	121.61790800094604	fix_pre	0		120	20.0	2.5	/experiments/knapen_AOT/AOT_stimuli/rescaled_final/1024_rv.mp4	0.0	140.93490600585938	1.0001640319824219
22	122.61002492904663	pulse	0	t		20.0	2.5	/experiments/knapen_AOT/AOT_stimuli/rescaled_final/1024_rv.mp4	0.0	141.92702293395996	
22	122.61807203292847	movie	1		243	20.0	2.5	/experiments/knapen_AOT/AOT_stimuli/rescaled_final/1024_rv.mp4	0.0	141.9350700378418	2.508725881576538
22	124.21115398406982	pulse	1	t		20.0	2.5	/experiments/knapen_AOT/AOT_stimuli/rescaled_final/1024_rv.mp4	0.0	143.52815198898315	
22	125.126797914505	fix_post	2		12	20.0	2.5	/experiments/knapen_AOT/AOT_stimuli/rescaled_final/1024_rv.mp4	0.0	144.44379591941833	0.10005307197570801
23	125.22685098648071	fix_pre	0		120	21.0	2.5	/experiments/knapen_AOT/AOT_stimuli/rescaled_final/0481_fw.mp4	0.0	144.54384899139404	1.0000600814819336
23	125.81036496162415	pulse	0	t		21.0	2.5	/experiments/knapen_AOT/AOT_stimuli/rescaled_final/0481_fw.mp4	0.0	145.12736296653748	
23	126.22691106796265	movie	1		244	21.0	2.5	/experiments/knapen_AOT/AOT_stimuli/rescaled_final/0481_fw.mp4	0.0	145.54390907287598	2.500433921813965
23	127.41072797775269	pulse	1	t		21.0	2.5	/experiments/knapen_AOT/AOT_stimuli/rescaled_final/0481_fw.mp4	0.0	146.72772598266602	
23	128.7273449897766	fix_post	2		12	21.0	2.5	/experiments/knapen_AOT/AOT_stimuli/rescaled_final/0481_fw.mp4	0.0	148.04434299468994	0.09999299049377441
24	128.82733798027039	fix_pre	0		120	22.0	2.5	/experiments/knapen_AOT/AOT_stimuli/rescaled_final/0435_fw.mp4	0.0	148.14433598518372	1.000187873840332
24	129.01087594032288	pulse	0	t		22.0	2.5	/experiments/knapen_AOT/AOT_stimuli/rescaled_final/0435_fw.mp4	0.0	148.3278739452362	
24	129.82752585411072	movie	1		243	22.0	2.5	/experiments/knapen_AOT/AOT_stimuli/rescaled_final/0435_fw.mp4	0.0	149.14452385902405	2.500519037246704
24	130.611172914505	pulse	1	t		22.0	2.5	/experiments/knapen_AOT/AOT_stimuli/rescaled_final/0435_fw.mp4	0.0	149.92817091941833	
24	132.21118998527527	pulse	1	t		22.0	2.5	/experiments/knapen_AOT/AOT_stimuli/rescaled_final/0435_fw.mp4	0.0	151.5281879901886	
24	132.32804489135742	fix_post	2		12	22.0	2.5	/experiments/knapen_AOT/AOT_stimuli/rescaled_final/0435_fw.mp4	0.0	151.64504289627075	0.09986209869384766
25	132.42790699005127	fix_pre	0		120	23.0	2.5	/experiments/knapen_AOT/AOT_stimuli/rescaled_final/1743_fw.mp4	0.0	151.7449049949646	1.0001749992370605
25	133.42808198928833	movie	1		241	23.0	2.5	/experiments/knapen_AOT/AOT_stimuli/rescaled_final/1743_fw.mp4	0.0	152.74507999420166	2.4920549392700195
25	133.81282997131348	pulse	1	t		23.0	2.5	/experiments/knapen_AOT/AOT_stimuli/rescaled_final/1743_fw.mp4	0.0	153.1298279762268	
25	135.4119689464569	pulse	1	t		23.0	2.5	/experiments/knapen_AOT/AOT_stimuli/rescaled_final/1743_fw.mp4	0.0	154.72896695137024	
25	135.92013692855835	fix_post	2		12	23.0	2.5	/experiments/knapen_AOT/AOT_stimuli/rescaled_final/1743_fw.mp4	0.0	155.23713493347168	0.10001611709594727
26	136.0201530456543	fix_pre	0		120	24.0	2.5	/experiments/knapen_AOT/AOT_stimuli/rescaled_final/1450_fw.mp4	0.0	155.33715105056763	1.000046968460083
26	137.00471901893616	pulse	0	t		24.0	2.5	/experiments/knapen_AOT/AOT_stimuli/rescaled_final/1450_fw.mp4	0.0	156.3217170238495	
26	137.02020001411438	movie	1		243	24.0	2.5	/experiments/knapen_AOT/AOT_stimuli/rescaled_final/1450_fw.mp4	0.0	156.3371980190277	2.5088069438934326
26	138.612872838974	pulse	1	t		24.0	2.5	/experiments/knapen_AOT/AOT_stimuli/rescaled_final/1450_fw.mp4	0.0	157.92987084388733	
26	139.5290069580078	fix_post	2		12	24.0	2.5	/experiments/knapen_AOT/AOT_stimuli/rescaled_final/1450_fw.mp4	0.0	158.84600496292114	0.0999751091003418
27	139.62898206710815	fix_pre	0		120	25.0	2.5	/experiments/knapen_AOT/AOT_stimuli/rescaled_final/2043_rv.mp4	0.0	158.94598007202148	1.0001227855682373
27	140.20508790016174	pulse	0	t		25.0	2.5	/experiments/knapen_AOT/AOT_stimuli/rescaled_final/2043_rv.mp4	0.0	159.52208590507507	
27	140.6291048526764	movie	1		243	25.0	2.5	/experiments/knapen_AOT/AOT_stimuli/rescaled_final/2043_rv.mp4	0.0	159.94610285758972	2.5005650520324707
27	141.80871987342834	pulse	1	t		25.0	2.5	/experiments/knapen_AOT/AOT_stimuli/rescaled_final/2043_rv.mp4	0.0	161.12571787834167	
27	143.12966990470886	fix_post	2		12	25.0	2.5	/experiments/knapen_AOT/AOT_stimuli/rescaled_final/2043_rv.mp4	0.0	162.4466679096222	0.09981799125671387
28	143.22948789596558	fix_pre	0		120	26.0	2.5	/experiments/knapen_AOT/AOT_stimuli/rescaled_final/0717_rv.mp4	0.0	162.5464859008789	1.000148057937622
28	143.4048318862915	pulse	0	t		26.0	2.5	/experiments/knapen_AOT/AOT_stimuli/rescaled_final/0717_rv.mp4	0.0	162.72182989120483	
28	144.2296359539032	movie	1		242	26.0	2.5	/experiments/knapen_AOT/AOT_stimuli/rescaled_final/0717_rv.mp4	0.0	163.54663395881653	2.492361068725586
28	145.005126953125	pulse	1	t		26.0	2.5	/experiments/knapen_AOT/AOT_stimuli/rescaled_final/0717_rv.mp4	0.0	164.32212495803833	
28	146.60543084144592	pulse	1	t		26.0	2.5	/experiments/knapen_AOT/AOT_stimuli/rescaled_final/0717_rv.mp4	0.0	165.92242884635925	
28	146.72199702262878	fix_post	2		8	26.0	2.5	/experiments/knapen_AOT/AOT_stimuli/rescaled_final/0717_rv.mp4	0.0	166.03899502754211	0.09973382949829102
29	146.82173085212708	fix_pre	0		120	27.0	2.5	blank	1.0	166.1387288570404	1.00018310546875
29	147.82191395759583	movie	1		300	27.0	2.5	blank	1.0	167.13891196250916	2.500309944152832
29	148.20535397529602	pulse	1	t		27.0	2.5	blank	1.0	167.52235198020935	
29	149.80565690994263	pulse	1	t		27.0	2.5	blank	1.0	169.12265491485596	
29	150.32222390174866	fix_post	2		12	27.0	2.5	blank	1.0	169.639221906662	0.09997105598449707
30	150.42219495773315	fix_pre	0		119	28.0	2.5	/experiments/knapen_AOT/AOT_stimuli/rescaled_final/0461_fw.mp4	0.0	169.73919296264648	0.9918489456176758
30	151.405907869339	pulse	0	t		28.0	2.5	/experiments/knapen_AOT/AOT_stimuli/rescaled_final/0461_fw.mp4	0.0	170.72290587425232	
30	151.41404390335083	movie	1		244	28.0	2.5	/experiments/knapen_AOT/AOT_stimuli/rescaled_final/0461_fw.mp4	0.0	170.73104190826416	2.5087740421295166
30	153.0073220729828	pulse	1	t		28.0	2.5	/experiments/knapen_AOT/AOT_stimuli/rescaled_final/0461_fw.mp4	0.0	172.32432007789612	
30	153.92281794548035	fix_post	2		12	28.0	2.5	/experiments/knapen_AOT/AOT_stimuli/rescaled_final/0461_fw.mp4	0.0	173.23981595039368	0.09997797012329102
31	154.02279591560364	fix_pre	0		120	29.0	2.5	/experiments/knapen_AOT/AOT_stimuli/rescaled_final/1833_rv.mp4	0.0	173.33979392051697	1.000115156173706
31	154.60635685920715	pulse	0	t		29.0	2.5	/experiments/knapen_AOT/AOT_stimuli/rescaled_final/1833_rv.mp4	0.0	173.92335486412048	
31	155.02291107177734	movie	1		242	29.0	2.5	/experiments/knapen_AOT/AOT_stimuli/rescaled_final/1833_rv.mp4	0.0	174.33990907669067	2.500487804412842
31	156.20666694641113	pulse	1	t		29.0	2.5	/experiments/knapen_AOT/AOT_stimuli/rescaled_final/1833_rv.mp4	0.0	175.52366495132446	
31	157.52339887619019	fix_post	2		12	29.0	2.5	/experiments/knapen_AOT/AOT_stimuli/rescaled_final/1833_rv.mp4	0.0	176.84039688110352	0.09991312026977539
32	157.62331199645996	fix_pre	0		120	30.0	2.5	/experiments/knapen_AOT/AOT_stimuli/rescaled_final/1197_rv.mp4	0.0	176.9403100013733	1.0001699924468994
32	157.80696487426758	pulse	0	t		30.0	2.5	/experiments/knapen_AOT/AOT_stimuli/rescaled_final/1197_rv.mp4	0.0	177.1239628791809	
32	158.62348198890686	movie	1		242	30.0	2.5	/experiments/knapen_AOT/AOT_stimuli/rescaled_final/1197_rv.mp4	0.0	177.9404799938202	2.500519037246704
32	159.40717887878418	pulse	1	t		30.0	2.5	/experiments/knapen_AOT/AOT_stimuli/rescaled_final/1197_rv.mp4	0.0	178.7241768836975	
32	161.00924396514893	pulse	1	t		30.0	2.5	/experiments/knapen_AOT/AOT_stimuli/rescaled_final/1197_rv.mp4	0.0	180.32624197006226	
32	161.12400102615356	fix_post	2		12	30.0	2.5	/experiments/knapen_AOT/AOT_stimuli/rescaled_final/1197_rv.mp4	0.0	180.4409990310669	0.09987497329711914
33	161.22387599945068	fix_pre	0		120	31.0	2.5	/experiments/knapen_AOT/AOT_stimuli/rescaled_final/0421_rv.mp4	0.0	180.540874004364	1.0001988410949707
33	162.22407484054565	movie	1		241	31.0	2.5	/experiments/knapen_AOT/AOT_stimuli/rescaled_final/0421_rv.mp4	0.0	181.54107284545898	2.4920542240142822
33	162.60930705070496	pulse	1	t		31.0	2.5	/experiments/knapen_AOT/AOT_stimuli/rescaled_final/0421_rv.mp4	0.0	181.9263050556183	
33	164.20783185958862	pulse	1	t		31.0	2.5	/experiments/knapen_AOT/AOT_stimuli/rescaled_final/0421_rv.mp4	0.0	183.52482986450195	
33	164.71612906455994	fix_post	2		12	31.0	2.5	/experiments/knapen_AOT/AOT_stimuli/rescaled_final/0421_rv.mp4	0.0	184.03312706947327	0.09995079040527344
34	164.8160798549652	fix_pre	0		120	32.0	2.5	/experiments/knapen_AOT/AOT_stimuli/rescaled_final/1976_fw.mp4	0.0	184.13307785987854	1.000089168548584
34	165.8081510066986	pulse	0	t		32.0	2.5	/experiments/knapen_AOT/AOT_stimuli/rescaled_final/1976_fw.mp4	0.0	185.12514901161194	
34	165.8161690235138	movie	1		243	32.0	2.5	/experiments/knapen_AOT/AOT_stimuli/rescaled_final/1976_fw.mp4	0.0	185.13316702842712	2.508870840072632
34	167.4128999710083	pulse	1	t		32.0	2.5	/experiments/knapen_AOT/AOT_stimuli/rescaled_final/1976_fw.mp4	0.0	186.72989797592163	
34	168.32503986358643	fix_post	2		12	32.0	2.5	/experiments/knapen_AOT/AOT_stimuli/rescaled_final/1976_fw.mp4	0.0	187.64203786849976	0.09989619255065918
35	168.42493605613708	fix_pre	0		120	33.0	2.5	blank	1.0	187.74193406105042	1.0001099109649658
35	169.00849986076355	pulse	0	t		33.0	2.5	blank	1.0	188.32549786567688	
35	169.42504596710205	movie	1		300	33.0	2.5	blank	1.0	188.74204397201538	2.500372886657715
35	170.6087830066681	pulse	1	t		33.0	2.5	blank	1.0	189.92578101158142	
35	171.92541885375977	fix_post	2		12	33.0	2.5	blank	1.0	191.2424168586731	0.1000211238861084
36	172.02543997764587	fix_pre	0		120	34.0	2.5	/experiments/knapen_AOT/AOT_stimuli/rescaled_final/0962_rv.mp4	0.0	191.3424379825592	1.0001399517059326
36	172.20912885665894	pulse	0	t		34.0	2.5	/experiments/knapen_AOT/AOT_stimuli/rescaled_final/0962_rv.mp4	0.0	191.52612686157227	
36	173.0255799293518	movie	1		245	34.0	2.5	/experiments/knapen_AOT/AOT_stimuli/rescaled_final/0962_rv.mp4	0.0	192.34257793426514	2.5004429817199707
36	173.80931091308594	pulse	1	t		34.0	2.5	/experiments/knapen_AOT/AOT_stimuli/rescaled_final/0962_rv.mp4	0.0	193.12630891799927	
36	175.40947604179382	pulse	1	t		34.0	2.5	/experiments/knapen_AOT/AOT_stimuli/rescaled_final/0962_rv.mp4	0.0	194.72647404670715	
36	175.52602291107178	fix_post	2		12	34.0	2.5	/experiments/knapen_AOT/AOT_stimuli/rescaled_final/0962_rv.mp4	0.0	194.8430209159851	0.09998607635498047
37	175.62600898742676	fix_pre	0		120	35.0	2.5	/experiments/knapen_AOT/AOT_stimuli/rescaled_final/0021_fw.mp4	0.0	194.9430069923401	1.0001020431518555
37	176.6261110305786	movie	1		243	35.0	2.5	/experiments/knapen_AOT/AOT_stimuli/rescaled_final/0021_fw.mp4	0.0	195.94310903549194	2.492041826248169
37	177.01114702224731	pulse	1	t		35.0	2.5	/experiments/knapen_AOT/AOT_stimuli/rescaled_final/0021_fw.mp4	0.0	196.32814502716064	
37	178.60995388031006	pulse	1	t		35.0	2.5	/experiments/knapen_AOT/AOT_stimuli/rescaled_final/0021_fw.mp4	0.0	197.9269518852234	
37	179.11815285682678	fix_post	2		12	35.0	2.5	/experiments/knapen_AOT/AOT_stimuli/rescaled_final/0021_fw.mp4	0.0	198.4351508617401	0.10001015663146973
38	179.21816301345825	fix_pre	0		120	36.0	2.5	/experiments/knapen_AOT/AOT_stimuli/rescaled_final/0458_rv.mp4	0.0	198.53516101837158	1.0001509189605713
38	180.2101788520813	pulse	0	t		36.0	2.5	/experiments/knapen_AOT/AOT_stimuli/rescaled_final/0458_rv.mp4	0.0	199.52717685699463	
38	180.21831393241882	movie	1		244	36.0	2.5	/experiments/knapen_AOT/AOT_stimuli/rescaled_final/0458_rv.mp4	0.0	199.53531193733215	2.508816957473755
38	181.81104683876038	pulse	1	t		36.0	2.5	/experiments/knapen_AOT/AOT_stimuli/rescaled_final/0458_rv.mp4	0.0	201.1280448436737	
38	182.72713088989258	fix_post	2		12	36.0	2.5	/experiments/knapen_AOT/AOT_stimuli/rescaled_final/0458_rv.mp4	0.0	202.0441288948059	0.09993195533752441
39	182.8270628452301	fix_pre	0		120	37.0	2.5	/experiments/knapen_AOT/AOT_stimuli/rescaled_final/1964_fw.mp4	0.0	202.14406085014343	1.0001661777496338
39	183.4107768535614	pulse	0	t		37.0	2.5	/experiments/knapen_AOT/AOT_stimuli/rescaled_final/1964_fw.mp4	0.0	202.72777485847473	
39	183.82722902297974	movie	1		244	37.0	2.5	/experiments/knapen_AOT/AOT_stimuli/rescaled_final/1964_fw.mp4	0.0	203.14422702789307	2.5003550052642822
39	185.01095604896545	pulse	1	t		37.0	2.5	/experiments/knapen_AOT/AOT_stimuli/rescaled_final/1964_fw.mp4	0.0	204.32795405387878	
39	186.32758402824402	fix_post	2		12	37.0	2.5	/experiments/knapen_AOT/AOT_stimuli/rescaled_final/1964_fw.mp4	0.0	205.64458203315735	0.10001182556152344
40	186.42759585380554	fix_pre	0		120	38.0	2.5	/experiments/knapen_AOT/AOT_stimuli/rescaled_final/0098_rv.mp4	0.0	205.74459385871887	1.000148057937622
40	186.61110401153564	pulse	0	t		38.0	2.5	/experiments/knapen_AOT/AOT_stimuli/rescaled_final/0098_rv.mp4	0.0	205.92810201644897	
40	187.42774391174316	movie	1		243	38.0	2.5	/experiments/knapen_AOT/AOT_stimuli/rescaled_final/0098_rv.mp4	0.0	206.7447419166565	2.5005569458007812
40	188.21134185791016	pulse	1	t		38.0	2.5	/experiments/knapen_AOT/AOT_stimuli/rescaled_final/0098_rv.mp4	0.0	207.5283398628235	
40	189.81182503700256	pulse	1	t		38.0	2.5	/experiments/knapen_AOT/AOT_stimuli/rescaled_final/0098_rv.mp4	0.0	209.1288230419159	
40	189.92830085754395	fix_post	2		12	38.0	2.5	/experiments/knapen_AOT/AOT_stimuli/rescaled_final/0098_rv.mp4	0.0	209.24529886245728	0.09981417655944824
41	190.0281150341034	fix_pre	0		120	39.0	2.5	/experiments/knapen_AOT/AOT_stimuli/rescaled_final/1490_rv.mp4	0.0	209.34511303901672	1.0001749992370605
41	191.02829003334045	movie	1		241	39.0	2.5	/experiments/knapen_AOT/AOT_stimuli/rescaled_final/1490_rv.mp4	0.0	210.34528803825378	2.4920918941497803
41	191.41254591941833	pulse	1	t		39.0	2.5	/experiments/knapen_AOT/AOT_stimuli/rescaled_final/1490_rv.mp4	0.0	210.72954392433167	
41	193.00479984283447	pulse	1	t		39.0	2.5	/experiments/knapen_AOT/AOT_stimuli/rescaled_final/1490_rv.mp4	0.0	212.3217978477478	
41	193.52038192749023	fix_post	2		12	39.0	2.5	/experiments/knapen_AOT/AOT_stimuli/rescaled_final/1490_rv.mp4	0.0	212.83737993240356	0.09994101524353027
42	193.62032294273376	fix_pre	0		120	40.0	2.5	blank	1.0	212.9373209476471	1.0002360343933105
42	194.60496306419373	pulse	0	t		40.0	2.5	blank	1.0	213.92196106910706	
42	194.62055897712708	movie	1		301	40.0	2.5	blank	1.0	213.9375569820404	2.508620023727417
42	196.20514798164368	pulse	1	t		40.0	2.5	blank	1.0	215.522145986557	
42	197.1291790008545	fix_post	2		12	40.0	2.5	blank	1.0	216.44617700576782	0.10000801086425781
43	197.22918701171875	fix_pre	0		120	41.0	2.5	/experiments/knapen_AOT/AOT_stimuli/rescaled_final/0009_fw.mp4	0.0	216.54618501663208	1.0001599788665771
43	197.80452394485474	pulse	0	t		41.0	2.5	/experiments/knapen_AOT/AOT_stimuli/rescaled_final/0009_fw.mp4	0.0	217.12152194976807	
43	198.22934699058533	movie	1		242	41.0	2.5	/experiments/knapen_AOT/AOT_stimuli/rescaled_final/0009_fw.mp4	0.0	217.54634499549866	2.500576972961426
43	199.40510296821594	pulse	1	t		41.0	2.5	/experiments/knapen_AOT/AOT_stimuli/rescaled_final/0009_fw.mp4	0.0	218.72210097312927	
43	200.72992396354675	fix_post	2		12	41.0	2.5	/experiments/knapen_AOT/AOT_stimuli/rescaled_final/0009_fw.mp4	0.0	220.04692196846008	0.09989595413208008
44	200.82981991767883	fix_pre	0		120	42.0	2.5	/experiments/knapen_AOT/AOT_stimuli/rescaled_final/0962_fw.mp4	0.0	220.14681792259216	1.0001039505004883
44	201.00500893592834	pulse	0	t		42.0	2.5	/experiments/knapen_AOT/AOT_stimuli/rescaled_final/0962_fw.mp4	0.0	220.32200694084167	
44	201.82992386817932	movie	1		243	42.0	2.5	/experiments/knapen_AOT/AOT_stimuli/rescaled_final/0962_fw.mp4	0.0	221.14692187309265	2.492048978805542
44	202.6052348613739	pulse	1	t		42.0	2.5	/experiments/knapen_AOT/AOT_stimuli/rescaled_final/0962_fw.mp4	0.0	221.92223286628723	
44	204.20538187026978	pulse	1	t		42.0	2.5	/experiments/knapen_AOT/AOT_stimuli/rescaled_final/0962_fw.mp4	0.0	223.5223798751831	
44	204.32197284698486	fix_post	2		12	42.0	2.5	/experiments/knapen_AOT/AOT_stimuli/rescaled_final/0962_fw.mp4	0.0	223.6389708518982	0.09998202323913574
45	204.421954870224	fix_pre	0		120	43.0	2.5	/experiments/knapen_AOT/AOT_stimuli/rescaled_final/1534_fw.mp4	0.0	223.73895287513733	1.000154972076416
45	205.42210984230042	movie	1		242	43.0	2.5	/experiments/knapen_AOT/AOT_stimuli/rescaled_final/1534_fw.mp4	0.0	224.73910784721375	2.50058913230896
45	205.8060278892517	pulse	1	t		43.0	2.5	/experiments/knapen_AOT/AOT_stimuli/rescaled_final/1534_fw.mp4	0.0	225.12302589416504	
45	207.4059760570526	pulse	1	t		43.0	2.5	/experiments/knapen_AOT/AOT_stimuli/rescaled_final/1534_fw.mp4	0.0	226.72297406196594	
45	207.92269897460938	fix_post	2		12	43.0	2.5	/experiments/knapen_AOT/AOT_stimuli/rescaled_final/1534_fw.mp4	0.0	227.2396969795227	0.09982609748840332
46	208.02252507209778	fix_pre	0		119	44.0	2.5	/experiments/knapen_AOT/AOT_stimuli/rescaled_final/0412_fw.mp4	0.0	227.3395230770111	0.9917888641357422
46	209.0061159133911	pulse	0	t		44.0	2.5	/experiments/knapen_AOT/AOT_stimuli/rescaled_final/0412_fw.mp4	0.0	228.32311391830444	
46	209.01431393623352	movie	1		241	44.0	2.5	/experiments/knapen_AOT/AOT_stimuli/rescaled_final/0412_fw.mp4	0.0	228.33131194114685	2.5086989402770996
46	210.60772585868835	pulse	1	t		44.0	2.5	/experiments/knapen_AOT/AOT_stimuli/rescaled_final/0412_fw.mp4	0.0	229.92472386360168	
46	211.52301287651062	fix_post	2		12	44.0	2.5	/experiments/knapen_AOT/AOT_stimuli/rescaled_final/0412_fw.mp4	0.0	230.84001088142395	0.10004615783691406
47	211.62305903434753	fix_pre	0		120	45.0	2.5	/experiments/knapen_AOT/AOT_stimuli/rescaled_final/1130_rv.mp4	0.0	230.94005703926086	1.0001459121704102
47	212.20671486854553	pulse	0	t		45.0	2.5	/experiments/knapen_AOT/AOT_stimuli/rescaled_final/1130_rv.mp4	0.0	231.52371287345886	
47	212.62320494651794	movie	1		243	45.0	2.5	/experiments/knapen_AOT/AOT_stimuli/rescaled_final/1130_rv.mp4	0.0	231.94020295143127	2.500546932220459
47	213.80701804161072	pulse	1	t		45.0	2.5	/experiments/knapen_AOT/AOT_stimuli/rescaled_final/1130_rv.mp4	0.0	233.12401604652405	
47	215.1237518787384	fix_post	2		12	45.0	2.5	/experiments/knapen_AOT/AOT_stimuli/rescaled_final/1130_rv.mp4	0.0	234.44074988365173	0.09982013702392578
48	215.22357201576233	fix_pre	0		120	46.0	2.5	/experiments/knapen_AOT/AOT_stimuli/rescaled_final/0573_rv.mp4	0.0	234.54057002067566	1.0001678466796875
48	215.40711188316345	pulse	0	t		46.0	2.5	/experiments/knapen_AOT/AOT_stimuli/rescaled_final/0573_rv.mp4	0.0	234.72410988807678	
48	216.22373986244202	movie	1		244	46.0	2.5	/experiments/knapen_AOT/AOT_stimuli/rescaled_final/0573_rv.mp4	0.0	235.54073786735535	2.500336170196533
48	217.00737595558167	pulse	1	t		46.0	2.5	/experiments/knapen_AOT/AOT_stimuli/rescaled_final/0573_rv.mp4	0.0	236.324373960495	
48	218.61103796958923	pulse	1	t		46.0	2.5	/experiments/knapen_AOT/AOT_stimuli/rescaled_final/0573_rv.mp4	0.0	237.92803597450256	
48	218.72407603263855	fix_post	2		12	46.0	2.5	/experiments/knapen_AOT/AOT_stimuli/rescaled_final/0573_rv.mp4	0.0	238.04107403755188	0.10002493858337402
49	218.82410097122192	fix_pre	0		119	47.0	2.5	blank	1.0	238.14109897613525	0.9918069839477539
49	219.81590795516968	movie	1		300	47.0	2.5	blank	1.0	239.132905960083	2.5004138946533203
49	220.20792388916016	pulse	1	t		47.0	2.5	blank	1.0	239.5249218940735	
49	221.80821084976196	pulse	1	t		47.0	2.5	blank	1.0	241.1252088546753	
49	222.316321849823	fix_post	2		12	47.0	2.5	blank	1.0	241.63331985473633	0.10008621215820312
50	222.4164080619812	fix_pre	0		120	48.0	2.5	/experiments/knapen_AOT/AOT_stimuli/rescaled_final/1127_rv.mp4	0.0	241.73340606689453	1.0000779628753662
50	223.40828490257263	pulse	0	t		48.0	2.5	/experiments/knapen_AOT/AOT_stimuli/rescaled_final/1127_rv.mp4	0.0	242.72528290748596	
50	223.41648602485657	movie	1		244	48.0	2.5	/experiments/knapen_AOT/AOT_stimuli/rescaled_final/1127_rv.mp4	0.0	242.7334840297699	2.5087599754333496
50	225.00916695594788	pulse	1	t		48.0	2.5	/experiments/knapen_AOT/AOT_stimuli/rescaled_final/1127_rv.mp4	0.0	244.3261649608612	
50	225.92524600028992	fix_post	2		12	48.0	2.5	/experiments/knapen_AOT/AOT_stimuli/rescaled_final/1127_rv.mp4	0.0	245.24224400520325	0.0999150276184082
51	226.02516102790833	fix_pre	0		120	49.0	2.5	/experiments/knapen_AOT/AOT_stimuli/rescaled_final/1020_fw.mp4	0.0	245.34215903282166	1.0001578330993652
51	226.60874199867249	pulse	0	t		49.0	2.5	/experiments/knapen_AOT/AOT_stimuli/rescaled_final/1020_fw.mp4	0.0	245.92574000358582	
51	227.0253188610077	movie	1		243	49.0	2.5	/experiments/knapen_AOT/AOT_stimuli/rescaled_final/1020_fw.mp4	0.0	246.34231686592102	2.5006110668182373
51	228.20908784866333	pulse	1	t		49.0	2.5	/experiments/knapen_AOT/AOT_stimuli/rescaled_final/1020_fw.mp4	0.0	247.52608585357666	
51	229.52592992782593	fix_post	2		12	49.0	2.5	/experiments/knapen_AOT/AOT_stimuli/rescaled_final/1020_fw.mp4	0.0	248.84292793273926	0.09983205795288086
52	229.6257619857788	fix_pre	0		120	50.0	2.5	/experiments/knapen_AOT/AOT_stimuli/rescaled_final/1378_rv.mp4	0.0	248.94275999069214	1.0000860691070557
52	229.80929589271545	pulse	0	t		50.0	2.5	/experiments/knapen_AOT/AOT_stimuli/rescaled_final/1378_rv.mp4	0.0	249.12629389762878	
52	230.62584805488586	movie	1		244	50.0	2.5	/experiments/knapen_AOT/AOT_stimuli/rescaled_final/1378_rv.mp4	0.0	249.9428460597992	2.500370979309082
52	231.40955090522766	pulse	1	t		50.0	2.5	/experiments/knapen_AOT/AOT_stimuli/rescaled_final/1378_rv.mp4	0.0	250.726548910141	
52	233.00950002670288	pulse	1	t		50.0	2.5	/experiments/knapen_AOT/AOT_stimuli/rescaled_final/1378_rv.mp4	0.0	252.3264980316162	
52	233.12621903419495	fix_post	2		12	50.0	2.5	/experiments/knapen_AOT/AOT_stimuli/rescaled_final/1378_rv.mp4	0.0	252.44321703910828	0.10003781318664551
53	233.2262568473816	fix_pre	0		119	51.0	2.5	/experiments/knapen_AOT/AOT_stimuli/rescaled_final/1652_rv.mp4	0.0	252.54325485229492	0.9918041229248047
53	234.2180609703064	movie	1		242	51.0	2.5	/experiments/knapen_AOT/AOT_stimuli/rescaled_final/1652_rv.mp4	0.0	253.53505897521973	2.50067400932312
53	234.6101589202881	pulse	1	t		51.0	2.5	/experiments/knapen_AOT/AOT_stimuli/rescaled_final/1652_rv.mp4	0.0	253.92715692520142	
53	236.21026802062988	pulse	1	t		51.0	2.5	/experiments/knapen_AOT/AOT_stimuli/rescaled_final/1652_rv.mp4	0.0	255.5272660255432	
53	236.71873497962952	fix_post	2		12	51.0	2.5	/experiments/knapen_AOT/AOT_stimuli/rescaled_final/1652_rv.mp4	0.0	256.03573298454285	0.09977293014526367
54	236.81850790977478	fix_pre	0		120	52.0	2.5	/experiments/knapen_AOT/AOT_stimuli/rescaled_final/1964_fw.mp4	0.0	256.1355059146881	1.0001201629638672
54	237.8104510307312	pulse	0	t		52.0	2.5	/experiments/knapen_AOT/AOT_stimuli/rescaled_final/1964_fw.mp4	0.0	257.12744903564453	
54	237.81862807273865	movie	1		244	52.0	2.5	/experiments/knapen_AOT/AOT_stimuli/rescaled_final/1964_fw.mp4	0.0	257.135626077652	2.5086958408355713
54	239.41189789772034	pulse	1	t		52.0	2.5	/experiments/knapen_AOT/AOT_stimuli/rescaled_final/1964_fw.mp4	0.0	258.72889590263367	
54	240.32732391357422	fix_post	2		12	52.0	2.5	/experiments/knapen_AOT/AOT_stimuli/rescaled_final/1964_fw.mp4	0.0	259.64432191848755	0.09997200965881348
55	240.42729592323303	fix_pre	0		120	53.0	2.5	/experiments/knapen_AOT/AOT_stimuli/rescaled_final/0487_rv.mp4	0.0	259.74429392814636	1.000227928161621
55	241.01098084449768	pulse	0	t		53.0	2.5	/experiments/knapen_AOT/AOT_stimuli/rescaled_final/0487_rv.mp4	0.0	260.327978849411	
55	241.42752385139465	movie	1		245	53.0	2.5	/experiments/knapen_AOT/AOT_stimuli/rescaled_final/0487_rv.mp4	0.0	260.744521856308	2.5003931522369385
55	242.60754704475403	pulse	1	t		53.0	2.5	/experiments/knapen_AOT/AOT_stimuli/rescaled_final/0487_rv.mp4	0.0	261.92454504966736	
55	243.9279170036316	fix_post	2		12	53.0	2.5	/experiments/knapen_AOT/AOT_stimuli/rescaled_final/0487_rv.mp4	0.0	263.2449150085449	0.09996891021728516
56	244.02788591384888	fix_pre	0		120	54.0	2.5	blank	1.0	263.3448839187622	1.0001130104064941
56	244.211492061615	pulse	0	t		54.0	2.5	blank	1.0	263.5284900665283	
56	245.02799892425537	movie	1		300	54.0	2.5	blank	1.0	264.3449969291687	2.500385046005249
56	245.81159901618958	pulse	1	t		54.0	2.5	blank	1.0	265.1285970211029	
56	247.40427494049072	pulse	1	t		54.0	2.5	blank	1.0	266.72127294540405	
56	247.52838397026062	fix_post	2		12	54.0	2.5	blank	1.0	266.84538197517395	0.1000208854675293
57	247.62840485572815	fix_pre	0		120	55.0	2.5	/experiments/knapen_AOT/AOT_stimuli/rescaled_final/2117_rv.mp4	0.0	266.9454028606415	1.0001280307769775
57	248.62853288650513	movie	1		244	55.0	2.5	/experiments/knapen_AOT/AOT_stimuli/rescaled_final/2117_rv.mp4	0.0	267.94553089141846	2.4920401573181152
57	249.01257801055908	pulse	1	t		55.0	2.5	/experiments/knapen_AOT/AOT_stimuli/rescaled_final/2117_rv.mp4	0.0	268.3295760154724	
57	250.6041910648346	pulse	1	t		55.0	2.5	/experiments/knapen_AOT/AOT_stimuli/rescaled_final/2117_rv.mp4	0.0	269.9211890697479	
57	251.12057304382324	fix_post	2		12	55.0	2.5	/experiments/knapen_AOT/AOT_stimuli/rescaled_final/2117_rv.mp4	0.0	270.4375710487366	0.10010290145874023
58	251.22067594528198	fix_pre	0		119	56.0	2.5	/experiments/knapen_AOT/AOT_stimuli/rescaled_final/1915_rv.mp4	0.0	270.5376739501953	0.9917540550231934
58	252.20423007011414	pulse	0	t		56.0	2.5	/experiments/knapen_AOT/AOT_stimuli/rescaled_final/1915_rv.mp4	0.0	271.52122807502747	
58	252.21243000030518	movie	1		243	56.0	2.5	/experiments/knapen_AOT/AOT_stimuli/rescaled_final/1915_rv.mp4	0.0	271.5294280052185	2.50874400138855
58	253.80595898628235	pulse	1	t		56.0	2.5	/experiments/knapen_AOT/AOT_stimuli/rescaled_final/1915_rv.mp4	0.0	273.1229569911957	
58	254.72117400169373	fix_post	2		12	56.0	2.5	/experiments/knapen_AOT/AOT_stimuli/rescaled_final/1915_rv.mp4	0.0	274.03817200660706	0.09996986389160156
59	254.82114386558533	fix_pre	0		120	57.0	2.5	/experiments/knapen_AOT/AOT_stimuli/rescaled_final/1847_rv.mp4	0.0	274.13814187049866	1.0001461505889893
59	255.40474700927734	pulse	0	t		57.0	2.5	/experiments/knapen_AOT/AOT_stimuli/rescaled_final/1847_rv.mp4	0.0	274.7217450141907	
59	255.82129001617432	movie	1		242	57.0	2.5	/experiments/knapen_AOT/AOT_stimuli/rescaled_final/1847_rv.mp4	0.0	275.13828802108765	2.5005340576171875
59	257.0051848888397	pulse	1	t		57.0	2.5	/experiments/knapen_AOT/AOT_stimuli/rescaled_final/1847_rv.mp4	0.0	276.32218289375305	
59	258.3218240737915	fix_post	2		12	57.0	2.5	/experiments/knapen_AOT/AOT_stimuli/rescaled_final/1847_rv.mp4	0.0	277.63882207870483	0.09987783432006836
60	258.4217019081116	fix_pre	0		120	58.0	2.5	/experiments/knapen_AOT/AOT_stimuli/rescaled_final/1468_rv.mp4	0.0	277.7386999130249	1.0001721382141113
60	258.60524797439575	pulse	0	t		58.0	2.5	/experiments/knapen_AOT/AOT_stimuli/rescaled_final/1468_rv.mp4	0.0	277.9222459793091	
60	259.4218740463257	movie	1		242	58.0	2.5	/experiments/knapen_AOT/AOT_stimuli/rescaled_final/1468_rv.mp4	0.0	278.738872051239	2.500424861907959
60	260.2054898738861	pulse	1	t		58.0	2.5	/experiments/knapen_AOT/AOT_stimuli/rescaled_final/1468_rv.mp4	0.0	279.52248787879944	
60	261.80634784698486	pulse	1	t		58.0	2.5	/experiments/knapen_AOT/AOT_stimuli/rescaled_final/1468_rv.mp4	0.0	281.1233458518982	
60	261.92229890823364	fix_post	2		12	58.0	2.5	/experiments/knapen_AOT/AOT_stimuli/rescaled_final/1468_rv.mp4	0.0	281.239296913147	0.0999000072479248
61	262.02219891548157	fix_pre	0		120	59.0	2.5	/experiments/knapen_AOT/AOT_stimuli/rescaled_final/0536_rv.mp4	0.0	281.3391969203949	1.0002241134643555
61	263.0224230289459	movie	1		242	59.0	2.5	/experiments/knapen_AOT/AOT_stimuli/rescaled_final/0536_rv.mp4	0.0	282.33942103385925	2.492154836654663
61	263.40659499168396	pulse	1	t		59.0	2.5	/experiments/knapen_AOT/AOT_stimuli/rescaled_final/0536_rv.mp4	0.0	282.7235929965973	
61	265.0062839984894	pulse	1	t		59.0	2.5	/experiments/knapen_AOT/AOT_stimuli/rescaled_final/0536_rv.mp4	0.0	284.3232820034027	
61	265.5145778656006	fix_post	2		12	59.0	2.5	/experiments/knapen_AOT/AOT_stimuli/rescaled_final/0536_rv.mp4	0.0	284.8315758705139	0.09989500045776367
62	265.61447286605835	fix_pre	0		120	60.0	2.5	/experiments/knapen_AOT/AOT_stimuli/rescaled_final/2154_rv.mp4	0.0	284.9314708709717	1.0000782012939453
62	266.6063508987427	pulse	0	t		60.0	2.5	/experiments/knapen_AOT/AOT_stimuli/rescaled_final/2154_rv.mp4	0.0	285.923348903656	
62	266.6145510673523	movie	1		244	60.0	2.5	/experiments/knapen_AOT/AOT_stimuli/rescaled_final/2154_rv.mp4	0.0	285.9315490722656	2.50881290435791
62	268.2072720527649	pulse	1	t		60.0	2.5	/experiments/knapen_AOT/AOT_stimuli/rescaled_final/2154_rv.mp4	0.0	287.5242700576782	
62	269.1233639717102	fix_post	2		12	60.0	2.5	/experiments/knapen_AOT/AOT_stimuli/rescaled_final/2154_rv.mp4	0.0	288.44036197662354	0.09993600845336914
63	269.2232999801636	fix_pre	0		120	61.0	2.5	/experiments/knapen_AOT/AOT_stimuli/rescaled_final/1234_rv.mp4	0.0	288.5402979850769	1.0001740455627441
63	269.8068940639496	pulse	0	t		61.0	2.5	/experiments/knapen_AOT/AOT_stimuli/rescaled_final/1234_rv.mp4	0.0	289.1238920688629	
63	270.2234740257263	movie	1		243	61.0	2.5	/experiments/knapen_AOT/AOT_stimuli/rescaled_final/1234_rv.mp4	0.0	289.54047203063965	2.5003299713134766
63	271.4072439670563	pulse	1	t		61.0	2.5	/experiments/knapen_AOT/AOT_stimuli/rescaled_final/1234_rv.mp4	0.0	290.7242419719696	
63	272.7238039970398	fix_post	2		12	61.0	2.5	/experiments/knapen_AOT/AOT_stimuli/rescaled_final/1234_rv.mp4	0.0	292.0408020019531	0.10003399848937988
64	272.8238379955292	fix_pre	0		120	62.0	2.5	blank	1.0	292.1408360004425	1.0002479553222656
64	273.0073518753052	pulse	0	t		62.0	2.5	blank	1.0	292.3243498802185	
64	273.82408595085144	movie	1		300	62.0	2.5	blank	1.0	293.14108395576477	2.5002989768981934
64	274.60770893096924	pulse	1	t		62.0	2.5	blank	1.0	293.92470693588257	
64	276.2079200744629	pulse	1	t		62.0	2.5	blank	1.0	295.5249180793762	
64	276.32438492774963	fix_post	2		12	62.0	2.5	blank	1.0	295.64138293266296	0.0999600887298584
65	276.4243450164795	fix_pre	0		120	63.0	2.5	/experiments/knapen_AOT/AOT_stimuli/rescaled_final/0412_rv.mp4	0.0	295.7413430213928	1.0001938343048096
65	277.4245388507843	movie	1		243	63.0	2.5	/experiments/knapen_AOT/AOT_stimuli/rescaled_final/0412_rv.mp4	0.0	296.74153685569763	2.4920730590820312
65	277.80880093574524	pulse	1	t		63.0	2.5	/experiments/knapen_AOT/AOT_stimuli/rescaled_final/0412_rv.mp4	0.0	297.12579894065857	
65	279.4083650112152	pulse	1	t		63.0	2.5	/experiments/knapen_AOT/AOT_stimuli/rescaled_final/0412_rv.mp4	0.0	298.72536301612854	
65	279.91661190986633	fix_post	2		12	63.0	2.5	/experiments/knapen_AOT/AOT_stimuli/rescaled_final/0412_rv.mp4	0.0	299.23360991477966	0.09999704360961914
66	280.01660895347595	fix_pre	0		120	64.0	2.5	/experiments/knapen_AOT/AOT_stimuli/rescaled_final/1486_rv.mp4	0.0	299.3336069583893	1.000114917755127
66	281.00862193107605	pulse	0	t		64.0	2.5	/experiments/knapen_AOT/AOT_stimuli/rescaled_final/1486_rv.mp4	0.0	300.3256199359894	
66	281.0167238712311	movie	1		244	64.0	2.5	/experiments/knapen_AOT/AOT_stimuli/rescaled_final/1486_rv.mp4	0.0	300.3337218761444	2.508831024169922
66	282.6098470687866	pulse	1	t		64.0	2.5	/experiments/knapen_AOT/AOT_stimuli/rescaled_final/1486_rv.mp4	0.0	301.92684507369995	
66	283.525554895401	fix_post	2		12	64.0	2.5	/experiments/knapen_AOT/AOT_stimuli/rescaled_final/1486_rv.mp4	0.0	302.84255290031433	0.09986209869384766
67	283.62541699409485	fix_pre	0		120	65.0	2.5	/experiments/knapen_AOT/AOT_stimuli/rescaled_final/0031_fw.mp4	0.0	302.9424149990082	1.000251054763794
67	284.2090599536896	pulse	0	t		65.0	2.5	/experiments/knapen_AOT/AOT_stimuli/rescaled_final/0031_fw.mp4	0.0	303.5260579586029	
67	284.62566804885864	movie	1		244	65.0	2.5	/experiments/knapen_AOT/AOT_stimuli/rescaled_final/0031_fw.mp4	0.0	303.942666053772	2.500314950942993
67	285.8093559741974	pulse	1	t		65.0	2.5	/experiments/knapen_AOT/AOT_stimuli/rescaled_final/0031_fw.mp4	0.0	305.1263539791107	
67	287.12598299980164	fix_post	2		12	65.0	2.5	/experiments/knapen_AOT/AOT_stimuli/rescaled_final/0031_fw.mp4	0.0	306.44298100471497	0.09998893737792969
68	287.22597193717957	fix_pre	0		120	66.0	2.5	/experiments/knapen_AOT/AOT_stimuli/rescaled_final/2083_rv.mp4	0.0	306.5429699420929	1.000157117843628
68	287.4095640182495	pulse	0	t		66.0	2.5	/experiments/knapen_AOT/AOT_stimuli/rescaled_final/2083_rv.mp4	0.0	306.72656202316284	
68	288.2261290550232	movie	1		242	66.0	2.5	/experiments/knapen_AOT/AOT_stimuli/rescaled_final/2083_rv.mp4	0.0	307.5431270599365	2.5006208419799805
68	289.0098419189453	pulse	1	t		66.0	2.5	/experiments/knapen_AOT/AOT_stimuli/rescaled_final/2083_rv.mp4	0.0	308.32683992385864	
68	290.61002492904663	pulse	1	t		66.0	2.5	/experiments/knapen_AOT/AOT_stimuli/rescaled_final/2083_rv.mp4	0.0	309.92702293395996	
68	290.7267498970032	fix_post	2		12	66.0	2.5	/experiments/knapen_AOT/AOT_stimuli/rescaled_final/2083_rv.mp4	0.0	310.0437479019165	0.09981012344360352
69	290.8265600204468	fix_pre	0		120	67.0	2.5	/experiments/knapen_AOT/AOT_stimuli/rescaled_final/0070_fw.mp4	0.0	310.1435580253601	1.0001089572906494
69	291.8266689777374	movie	1		244	67.0	2.5	/experiments/knapen_AOT/AOT_stimuli/rescaled_final/0070_fw.mp4	0.0	311.14366698265076	2.4920120239257812
69	292.2108759880066	pulse	1	t		67.0	2.5	/experiments/knapen_AOT/AOT_stimuli/rescaled_final/0070_fw.mp4	0.0	311.5278739929199	
69	293.8104569911957	pulse	1	t		67.0	2.5	/experiments/knapen_AOT/AOT_stimuli/rescaled_final/0070_fw.mp4	0.0	313.127454996109	
69	294.3186810016632	fix_post	2		12	67.0	2.5	/experiments/knapen_AOT/AOT_stimuli/rescaled_final/0070_fw.mp4	0.0	313.63567900657654	0.10008788108825684
70	294.41876888275146	fix_pre	0		120	68.0	2.5	/experiments/knapen_AOT/AOT_stimuli/rescaled_final/0364_rv.mp4	0.0	313.7357668876648	1.0001611709594727
70	295.4108190536499	pulse	0	t		68.0	2.5	/experiments/knapen_AOT/AOT_stimuli/rescaled_final/0364_rv.mp4	0.0	314.72781705856323	
70	295.41893005371094	movie	1		245	68.0	2.5	/experiments/knapen_AOT/AOT_stimuli/rescaled_final/0364_rv.mp4	0.0	314.73592805862427	2.508657932281494
70	297.0119888782501	pulse	1	t		68.0	2.5	/experiments/knapen_AOT/AOT_stimuli/rescaled_final/0364_rv.mp4	0.0	316.32898688316345	
70	297.92758798599243	fix_post	2		12	68.0	2.5	/experiments/knapen_AOT/AOT_stimuli/rescaled_final/0364_rv.mp4	0.0	317.24458599090576	0.10003304481506348
71	298.0276210308075	fix_pre	0		120	69.0	2.5	/experiments/knapen_AOT/AOT_stimuli/rescaled_final/1289_fw.mp4	0.0	317.3446190357208	1.000152826309204
71	298.61122488975525	pulse	0	t		69.0	2.5	/experiments/knapen_AOT/AOT_stimuli/rescaled_final/1289_fw.mp4	0.0	317.9282228946686	
71	299.0277738571167	movie	1		242	69.0	2.5	/experiments/knapen_AOT/AOT_stimuli/rescaled_final/1289_fw.mp4	0.0	318.34477186203003	2.5004920959472656
71	300.21154594421387	pulse	1	t		69.0	2.5	/experiments/knapen_AOT/AOT_stimuli/rescaled_final/1289_fw.mp4	0.0	319.5285439491272	
71	301.52826595306396	fix_post	2		12	69.0	2.5	/experiments/knapen_AOT/AOT_stimuli/rescaled_final/1289_fw.mp4	0.0	320.8452639579773	0.09985995292663574
72	301.6281259059906	fix_pre	0		120	70.0	2.5	blank	1.0	320.94512391090393	1.0001840591430664
72	301.8118178844452	pulse	0	t		70.0	2.5	blank	1.0	321.1288158893585	
72	302.62830996513367	movie	1		300	70.0	2.5	blank	1.0	321.945307970047	2.500354051589966
72	303.40453600883484	pulse	1	t		70.0	2.5	blank	1.0	322.72153401374817	
72	305.00473284721375	pulse	1	t		70.0	2.5	blank	1.0	324.3217308521271	
72	305.12866401672363	fix_post	2		12	70.0	2.5	blank	1.0	324.44566202163696	0.10009002685546875
73	305.2287540435791	fix_pre	0		120	71.0	2.5	/experiments/knapen_AOT/AOT_stimuli/rescaled_final/1259_fw.mp4	0.0	324.54575204849243	1.000093936920166
73	306.22884798049927	movie	1		243	71.0	2.5	/experiments/knapen_AOT/AOT_stimuli/rescaled_final/1259_fw.mp4	0.0	325.5458459854126	2.492011070251465
73	306.6165280342102	pulse	1	t		71.0	2.5	/experiments/knapen_AOT/AOT_stimuli/rescaled_final/1259_fw.mp4	0.0	325.93352603912354	
73	308.2052628993988	pulse	1	t		71.0	2.5	/experiments/knapen_AOT/AOT_stimuli/rescaled_final/1259_fw.mp4	0.0	327.52226090431213	
73	308.72085905075073	fix_post	2		12	71.0	2.5	/experiments/knapen_AOT/AOT_stimuli/rescaled_final/1259_fw.mp4	0.0	328.03785705566406	0.1000669002532959
74	308.820925951004	fix_pre	0		120	72.0	2.5	/experiments/knapen_AOT/AOT_stimuli/rescaled_final/0459_rv.mp4	0.0	328.13792395591736	1.0000901222229004
74	309.8053560256958	pulse	0	t		72.0	2.5	/experiments/knapen_AOT/AOT_stimuli/rescaled_final/0459_rv.mp4	0.0	329.12235403060913	
74	309.82101607322693	movie	1		244	72.0	2.5	/experiments/knapen_AOT/AOT_stimuli/rescaled_final/0459_rv.mp4	0.0	329.13801407814026	2.508741855621338
74	311.4048418998718	pulse	1	t		72.0	2.5	/experiments/knapen_AOT/AOT_stimuli/rescaled_final/0459_rv.mp4	0.0	330.72183990478516	
74	312.32975792884827	fix_post	2		12	72.0	2.5	/experiments/knapen_AOT/AOT_stimuli/rescaled_final/0459_rv.mp4	0.0	331.6467559337616	0.10000300407409668
75	312.42976093292236	fix_pre	0		120	73.0	2.5	/experiments/knapen_AOT/AOT_stimuli/rescaled_final/1229_fw.mp4	0.0	331.7467589378357	1.0001580715179443
75	313.0049538612366	pulse	0	t		73.0	2.5	/experiments/knapen_AOT/AOT_stimuli/rescaled_final/1229_fw.mp4	0.0	332.3219518661499	
75	313.4299190044403	movie	1		243	73.0	2.5	/experiments/knapen_AOT/AOT_stimuli/rescaled_final/1229_fw.mp4	0.0	332.74691700935364	2.500440835952759
75	314.6057779788971	pulse	1	t		73.0	2.5	/experiments/knapen_AOT/AOT_stimuli/rescaled_final/1229_fw.mp4	0.0	333.9227759838104	
75	315.93035984039307	fix_post	2		12	73.0	2.5	/experiments/knapen_AOT/AOT_stimuli/rescaled_final/1229_fw.mp4	0.0	335.2473578453064	0.09993100166320801
76	316.0302908420563	fix_pre	0		120	74.0	2.5	/experiments/knapen_AOT/AOT_stimuli/rescaled_final/2117_fw.mp4	0.0	335.3472888469696	1.0002682209014893
76	316.20553398132324	pulse	0	t		74.0	2.5	/experiments/knapen_AOT/AOT_stimuli/rescaled_final/2117_fw.mp4	0.0	335.5225319862366	
76	317.03055906295776	movie	1		245	74.0	2.5	/experiments/knapen_AOT/AOT_stimuli/rescaled_final/2117_fw.mp4	0.0	336.3475570678711	2.5002968311309814
76	317.8058319091797	pulse	1	t		74.0	2.5	/experiments/knapen_AOT/AOT_stimuli/rescaled_final/2117_fw.mp4	0.0	337.122829914093	
76	319.40612292289734	pulse	1	t		74.0	2.5	/experiments/knapen_AOT/AOT_stimuli/rescaled_final/2117_fw.mp4	0.0	338.72312092781067	
76	319.53085589408875	fix_post	2		12	74.0	2.5	/experiments/knapen_AOT/AOT_stimuli/rescaled_final/2117_fw.mp4	0.0	338.8478538990021	0.10000205039978027
77	319.6308579444885	fix_pre	0		120	75.0	2.5	blank	1.0	338.94785594940186	1.0001299381256104
77	320.63098788261414	movie	1		299	75.0	2.5	blank	1.0	339.94798588752747	2.4920120239257812
77	321.00624799728394	pulse	1	t		75.0	2.5	blank	1.0	340.32324600219727	
77	322.6063849925995	pulse	1	t		75.0	2.5	blank	1.0	341.9233829975128	
77	323.1229999065399	fix_post	2		9	75.0	2.5	blank	1.0	342.43999791145325	0.10005497932434082
78	323.22305488586426	fix_pre	0		119	76.0	2.5	/experiments/knapen_AOT/AOT_stimuli/rescaled_final/1136_rv.mp4	0.0	342.5400528907776	0.9917869567871094
78	324.2068428993225	pulse	0	t		76.0	2.5	/experiments/knapen_AOT/AOT_stimuli/rescaled_final/1136_rv.mp4	0.0	343.52384090423584	
78	324.21484184265137	movie	1		244	76.0	2.5	/experiments/knapen_AOT/AOT_stimuli/rescaled_final/1136_rv.mp4	0.0	343.5318398475647	2.5087711811065674
78	325.80806589126587	pulse	1	t		76.0	2.5	/experiments/knapen_AOT/AOT_stimuli/rescaled_final/1136_rv.mp4	0.0	345.1250638961792	
78	326.72361302375793	fix_post	2		12	76.0	2.5	/experiments/knapen_AOT/AOT_stimuli/rescaled_final/1136_rv.mp4	0.0	346.04061102867126	0.09998083114624023
79	326.8235938549042	fix_pre	0		120	77.0	2.5	/experiments/knapen_AOT/AOT_stimuli/rescaled_final/1565_fw.mp4	0.0	346.1405918598175	1.000162124633789
79	327.4072730541229	pulse	0	t		77.0	2.5	/experiments/knapen_AOT/AOT_stimuli/rescaled_final/1565_fw.mp4	0.0	346.72427105903625	
79	327.82375597953796	movie	1		243	77.0	2.5	/experiments/knapen_AOT/AOT_stimuli/rescaled_final/1565_fw.mp4	0.0	347.1407539844513	2.500541925430298
79	329.0074498653412	pulse	1	t		77.0	2.5	/experiments/knapen_AOT/AOT_stimuli/rescaled_final/1565_fw.mp4	0.0	348.3244478702545	
79	330.32429790496826	fix_post	2		12	77.0	2.5	/experiments/knapen_AOT/AOT_stimuli/rescaled_final/1565_fw.mp4	0.0	349.6412959098816	0.09980511665344238
80	330.4241030216217	fix_pre	0		120	78.0	2.5	/experiments/knapen_AOT/AOT_stimuli/rescaled_final/0473_fw.mp4	0.0	349.74110102653503	1.0001499652862549
80	330.60762906074524	pulse	0	t		78.0	2.5	/experiments/knapen_AOT/AOT_stimuli/rescaled_final/0473_fw.mp4	0.0	349.92462706565857	
80	331.42425298690796	movie	1		243	78.0	2.5	/experiments/knapen_AOT/AOT_stimuli/rescaled_final/0473_fw.mp4	0.0	350.7412509918213	2.500602960586548
80	332.20795798301697	pulse	1	t		78.0	2.5	/experiments/knapen_AOT/AOT_stimuli/rescaled_final/0473_fw.mp4	0.0	351.5249559879303	
80	333.8078279495239	pulse	1	t		78.0	2.5	/experiments/knapen_AOT/AOT_stimuli/rescaled_final/0473_fw.mp4	0.0	353.12482595443726	
80	333.9248559474945	fix_post	2		12	78.0	2.5	/experiments/knapen_AOT/AOT_stimuli/rescaled_final/0473_fw.mp4	0.0	353.24185395240784	0.09981799125671387
81	334.0246739387512	fix_pre	0		120	79.0	2.5	/experiments/knapen_AOT/AOT_stimuli/rescaled_final/1336_rv.mp4	0.0	353.34167194366455	1.0001399517059326
81	335.02481389045715	movie	1		242	79.0	2.5	/experiments/knapen_AOT/AOT_stimuli/rescaled_final/1336_rv.mp4	0.0	354.3418118953705	2.4920430183410645
81	335.4089789390564	pulse	1	t		79.0	2.5	/experiments/knapen_AOT/AOT_stimuli/rescaled_final/1336_rv.mp4	0.0	354.7259769439697	
81	337.0085880756378	pulse	1	t		79.0	2.5	/experiments/knapen_AOT/AOT_stimuli/rescaled_final/1336_rv.mp4	0.0	356.32558608055115	
81	337.5168569087982	fix_post	2		12	79.0	2.5	/experiments/knapen_AOT/AOT_stimuli/rescaled_final/1336_rv.mp4	0.0	356.83385491371155	0.09998798370361328
82	337.61684489250183	fix_pre	0		120	80.0	2.5	/experiments/knapen_AOT/AOT_stimuli/rescaled_final/0211_fw.mp4	0.0	356.93384289741516	1.000148057937622
82	338.60891103744507	pulse	0	t		80.0	2.5	/experiments/knapen_AOT/AOT_stimuli/rescaled_final/0211_fw.mp4	0.0	357.9259090423584	
82	338.61699295043945	movie	1		244	80.0	2.5	/experiments/knapen_AOT/AOT_stimuli/rescaled_final/0211_fw.mp4	0.0	357.9339909553528	2.5087358951568604
82	340.21331691741943	pulse	1	t		80.0	2.5	/experiments/knapen_AOT/AOT_stimuli/rescaled_final/0211_fw.mp4	0.0	359.53031492233276	
82	341.1257288455963	fix_post	2		12	80.0	2.5	/experiments/knapen_AOT/AOT_stimuli/rescaled_final/0211_fw.mp4	0.0	360.44272685050964	0.100006103515625
83	341.22573494911194	fix_pre	0		120	81.0	2.5	/experiments/knapen_AOT/AOT_stimuli/rescaled_final/0477_rv.mp4	0.0	360.54273295402527	1.0001780986785889
83	341.80930185317993	pulse	0	t		81.0	2.5	/experiments/knapen_AOT/AOT_stimuli/rescaled_final/0477_rv.mp4	0.0	361.12629985809326	
83	342.2259130477905	movie	1		243	81.0	2.5	/experiments/knapen_AOT/AOT_stimuli/rescaled_final/0477_rv.mp4	0.0	361.54291105270386	2.5004079341888428
83	343.4055600166321	pulse	1	t		81.0	2.5	/experiments/knapen_AOT/AOT_stimuli/rescaled_final/0477_rv.mp4	0.0	362.7225580215454	
83	344.72632098197937	fix_post	2		12	81.0	2.5	/experiments/knapen_AOT/AOT_stimuli/rescaled_final/0477_rv.mp4	0.0	364.0433189868927	0.09994006156921387
84	344.8262610435486	fix_pre	0		120	82.0	2.5	/experiments/knapen_AOT/AOT_stimuli/rescaled_final/0606_rv.mp4	0.0	364.1432590484619	1.000140905380249
84	345.00977087020874	pulse	0	t		82.0	2.5	/experiments/knapen_AOT/AOT_stimuli/rescaled_final/0606_rv.mp4	0.0	364.32676887512207	
84	345.82640194892883	movie	1		243	82.0	2.5	/experiments/knapen_AOT/AOT_stimuli/rescaled_final/0606_rv.mp4	0.0	365.14339995384216	2.5003631114959717
84	346.6100778579712	pulse	1	t		82.0	2.5	/experiments/knapen_AOT/AOT_stimuli/rescaled_final/0606_rv.mp4	0.0	365.9270758628845	
84	348.2101500034332	pulse	1	t		82.0	2.5	/experiments/knapen_AOT/AOT_stimuli/rescaled_final/0606_rv.mp4	0.0	367.52714800834656	
84	348.3267650604248	fix_post	2		12	82.0	2.5	/experiments/knapen_AOT/AOT_stimuli/rescaled_final/0606_rv.mp4	0.0	367.64376306533813	0.10005998611450195
85	348.4268250465393	fix_pre	0		120	83.0	2.5	blank	1.0	367.74382305145264	1.0000948905944824
85	349.4269199371338	movie	1		299	83.0	2.5	blank	1.0	368.7439179420471	2.4920849800109863
85	349.81049394607544	pulse	1	t		83.0	2.5	blank	1.0	369.12749195098877	
85	351.4107789993286	pulse	1	t		83.0	2.5	blank	1.0	370.72777700424194	
85	351.9190049171448	fix_post	2		12	83.0	2.5	blank	1.0	371.2360029220581	0.09999895095825195
87	352.019003868103	stim	0		1716					371.33600187301636	14.302147150039673
87	353.0110330581665	pulse	0	t						372.32803106307983	
87	354.6112308502197	pulse	0	t						373.92822885513306	
87	356.2114899158478	pulse	0	t						375.5284879207611	
87	357.8043749332428	pulse	0	t						377.1213729381561	
87	359.4046268463135	pulse	0	t						378.7216248512268	
87	361.00482296943665	pulse	0	t						380.32182097435	
87	362.60505986213684	pulse	0	t						381.92205786705017	
87	364.2051739692688	pulse	0	t						383.52217197418213	
87	365.8044409751892	pulse	0	t						385.12143898010254	
