trial_nr	onset	event_type	phase	response	nr_frames	movie_index	movie_duration	movie_file	blank	onset_abs	duration
0	0.158433198928833	stim	0		36					20.222736120224	0.3003089427947998
0	0.4509460926055908	response	0	space						20.515249013900757	
1	0.4587421417236328	stim	0		3415					20.5230450630188	28.45777702331543
1	28.910543203353882	pulse	0	t						48.97484612464905	
1	28.916519165039062	stim	1		1717					48.98082208633423	14.308693885803223
1	30.508974075317383	pulse	1	t						50.57327699661255	
1	32.10881018638611	pulse	1	t						52.173113107681274	
1	33.708796977996826	pulse	1	t						53.77309989929199	
1	35.30882406234741	pulse	1	t						55.37312698364258	
1	36.90866208076477	pulse	1	t						56.97296500205994	
1	38.50865316390991	pulse	1	t						58.57295608520508	
1	40.108668088912964	pulse	1	t						60.17297101020813	
1	41.708638191223145	pulse	1	t						61.77294111251831	
2	43.225213050842285	fix_pre	0		11	0.0	2.5	/experiments/AOT/AOT_stimuli/rescaled_final/0760_rv.mp4	0.0	63.28951597213745	0.09158611297607422
2	43.30867004394531	pulse	0	t		0.0	2.5	/experiments/AOT/AOT_stimuli/rescaled_final/0760_rv.mp4	0.0	63.37297296524048	
2	43.31679916381836	movie	1		244	0.0	2.5	/experiments/AOT/AOT_stimuli/rescaled_final/0760_rv.mp4	0.0	63.381102085113525	2.5084140300750732
2	44.90844011306763	pulse	1	t		0.0	2.5	/experiments/AOT/AOT_stimuli/rescaled_final/0760_rv.mp4	0.0	64.9727430343628	
2	45.82521319389343	fix_post	2		12	0.0	2.5	/experiments/AOT/AOT_stimuli/rescaled_final/0760_rv.mp4	0.0	65.8895161151886	0.09996700286865234
3	45.925180196762085	fix_pre	0		120	1.0	2.5	/experiments/AOT/AOT_stimuli/rescaled_final/1164_fw.mp4	0.0	65.98948311805725	1.0000348091125488
3	46.50869703292847	pulse	0	t		1.0	2.5	/experiments/AOT/AOT_stimuli/rescaled_final/1164_fw.mp4	0.0	66.57299995422363	
3	46.925215005874634	movie	1		243	1.0	2.5	/experiments/AOT/AOT_stimuli/rescaled_final/1164_fw.mp4	0.0	66.9895179271698	2.49997615814209
3	48.10877704620361	pulse	1	t		1.0	2.5	/experiments/AOT/AOT_stimuli/rescaled_final/1164_fw.mp4	0.0	68.17307996749878	
3	49.425191164016724	fix_post	2		12	1.0	2.5	/experiments/AOT/AOT_stimuli/rescaled_final/1164_fw.mp4	0.0	69.48949408531189	0.09997987747192383
4	49.52517104148865	fix_pre	0		120	2.0	2.5	/experiments/AOT/AOT_stimuli/rescaled_final/0095_fw.mp4	0.0	69.58947396278381	1.000028133392334
4	49.70871305465698	pulse	0	t		2.0	2.5	/experiments/AOT/AOT_stimuli/rescaled_final/0095_fw.mp4	0.0	69.77301597595215	
4	50.52519917488098	movie	1		244	2.0	2.5	/experiments/AOT/AOT_stimuli/rescaled_final/0095_fw.mp4	0.0	70.58950209617615	2.500053882598877
4	51.30861711502075	pulse	1	t		2.0	2.5	/experiments/AOT/AOT_stimuli/rescaled_final/0095_fw.mp4	0.0	71.37292003631592	
4	52.90782117843628	pulse	1	t		2.0	2.5	/experiments/AOT/AOT_stimuli/rescaled_final/0095_fw.mp4	0.0	72.97212409973145	
4	53.02525305747986	fix_post	2		12	2.0	2.5	/experiments/AOT/AOT_stimuli/rescaled_final/0095_fw.mp4	0.0	73.08955597877502	0.09993314743041992
5	53.12518620491028	fix_pre	0		120	3.0	2.5	/experiments/AOT/AOT_stimuli/rescaled_final/1660_rv.mp4	0.0	73.18948912620544	1.0000288486480713
5	54.12521505355835	movie	1		246	3.0	2.5	/experiments/AOT/AOT_stimuli/rescaled_final/1660_rv.mp4	0.0	74.18951797485352	2.4999351501464844
5	54.5082221031189	pulse	1	t		3.0	2.5	/experiments/AOT/AOT_stimuli/rescaled_final/1660_rv.mp4	0.0	74.57252502441406	
5	56.10859298706055	pulse	1	t		3.0	2.5	/experiments/AOT/AOT_stimuli/rescaled_final/1660_rv.mp4	0.0	76.17289590835571	
5	56.625150203704834	fix_post	2		12	3.0	2.5	/experiments/AOT/AOT_stimuli/rescaled_final/1660_rv.mp4	0.0	76.689453125	0.10001397132873535
6	56.72516417503357	fix_pre	0		119	4.0	2.5	/experiments/AOT/AOT_stimuli/rescaled_final/0760_fw.mp4	0.0	76.78946709632874	0.9916470050811768
6	57.7086820602417	pulse	0	t		4.0	2.5	/experiments/AOT/AOT_stimuli/rescaled_final/0760_fw.mp4	0.0	77.77298498153687	
6	57.716811180114746	movie	1		247	4.0	2.5	/experiments/AOT/AOT_stimuli/rescaled_final/0760_fw.mp4	0.0	77.78111410140991	2.5079269409179688
6	59.30858898162842	pulse	1	t		4.0	2.5	/experiments/AOT/AOT_stimuli/rescaled_final/0760_fw.mp4	0.0	79.37289190292358	
6	60.224738121032715	fix_post	2		12	4.0	2.5	/experiments/AOT/AOT_stimuli/rescaled_final/0760_fw.mp4	0.0	80.28904104232788	0.10034799575805664
7	60.32508611679077	fix_pre	0		120	5.0	2.5	blank	1.0	80.38938903808594	1.0000309944152832
7	60.90863013267517	pulse	0	t		5.0	2.5	blank	1.0	80.97293305397034	
7	61.325117111206055	movie	1		300	5.0	2.5	blank	1.0	81.38942003250122	2.499979019165039
7	62.508630990982056	pulse	1	t		5.0	2.5	blank	1.0	82.57293391227722	
7	63.825096130371094	fix_post	2		12	5.0	2.5	blank	1.0	83.88939905166626	0.10006499290466309
8	63.92516112327576	fix_pre	0		120	6.0	2.5	/experiments/AOT/AOT_stimuli/rescaled_final/1271_rv.mp4	0.0	83.98946404457092	0.9999270439147949
8	64.10863018035889	pulse	0	t		6.0	2.5	/experiments/AOT/AOT_stimuli/rescaled_final/1271_rv.mp4	0.0	84.17293310165405	
8	64.92508816719055	movie	1		244	6.0	2.5	/experiments/AOT/AOT_stimuli/rescaled_final/1271_rv.mp4	0.0	84.98939108848572	2.500030040740967
8	65.7088520526886	pulse	1	t		6.0	2.5	/experiments/AOT/AOT_stimuli/rescaled_final/1271_rv.mp4	0.0	85.77315497398376	
8	67.30731201171875	pulse	1	t		6.0	2.5	/experiments/AOT/AOT_stimuli/rescaled_final/1271_rv.mp4	0.0	87.37161493301392	
8	67.42511820793152	fix_post	2		12	6.0	2.5	/experiments/AOT/AOT_stimuli/rescaled_final/1271_rv.mp4	0.0	87.48942112922668	0.09957599639892578
9	67.52469420433044	fix_pre	0		120	7.0	2.5	/experiments/AOT/AOT_stimuli/rescaled_final/1955_rv.mp4	0.0	87.58899712562561	1.0003809928894043
9	68.52507519721985	movie	1		244	7.0	2.5	/experiments/AOT/AOT_stimuli/rescaled_final/1955_rv.mp4	0.0	88.58937811851501	2.500070810317993
9	68.90809798240662	pulse	1	t		7.0	2.5	/experiments/AOT/AOT_stimuli/rescaled_final/1955_rv.mp4	0.0	88.97240090370178	
9	70.5085961818695	pulse	1	t		7.0	2.5	/experiments/AOT/AOT_stimuli/rescaled_final/1955_rv.mp4	0.0	90.57289910316467	
9	71.02514600753784	fix_post	2		12	7.0	2.5	/experiments/AOT/AOT_stimuli/rescaled_final/1955_rv.mp4	0.0	91.08944892883301	0.09986019134521484
10	71.12500619888306	fix_pre	0		119	8.0	2.5	/experiments/AOT/AOT_stimuli/rescaled_final/0837_rv.mp4	0.0	91.18930912017822	0.9918169975280762
10	72.10864806175232	pulse	0	t		8.0	2.5	/experiments/AOT/AOT_stimuli/rescaled_final/0837_rv.mp4	0.0	92.17295098304749	
10	72.11682319641113	movie	1		244	8.0	2.5	/experiments/AOT/AOT_stimuli/rescaled_final/0837_rv.mp4	0.0	92.1811261177063	2.507828950881958
10	73.70825099945068	pulse	1	t		8.0	2.5	/experiments/AOT/AOT_stimuli/rescaled_final/0837_rv.mp4	0.0	93.77255392074585	
10	74.62465214729309	fix_post	2		12	8.0	2.5	/experiments/AOT/AOT_stimuli/rescaled_final/0837_rv.mp4	0.0	94.68895506858826	0.10047698020935059
11	74.72512912750244	fix_pre	0		120	9.0	2.5	/experiments/AOT/AOT_stimuli/rescaled_final/0326_fw.mp4	0.0	94.78943204879761	0.999945878982544
11	75.30858516693115	pulse	0	t		9.0	2.5	/experiments/AOT/AOT_stimuli/rescaled_final/0326_fw.mp4	0.0	95.37288808822632	
11	75.72507500648499	movie	1		246	9.0	2.5	/experiments/AOT/AOT_stimuli/rescaled_final/0326_fw.mp4	0.0	95.78937792778015	2.4999730587005615
11	76.9087700843811	pulse	1	t		9.0	2.5	/experiments/AOT/AOT_stimuli/rescaled_final/0326_fw.mp4	0.0	96.97307300567627	
11	78.22504806518555	fix_post	2		12	9.0	2.5	/experiments/AOT/AOT_stimuli/rescaled_final/0326_fw.mp4	0.0	98.28935098648071	0.09998297691345215
12	78.325031042099	fix_pre	0		120	10.0	2.5	/experiments/AOT/AOT_stimuli/rescaled_final/1222_fw.mp4	0.0	98.38933396339417	1.0000441074371338
12	78.50851202011108	pulse	0	t		10.0	2.5	/experiments/AOT/AOT_stimuli/rescaled_final/1222_fw.mp4	0.0	98.57281494140625	
12	79.32507514953613	movie	1		242	10.0	2.5	/experiments/AOT/AOT_stimuli/rescaled_final/1222_fw.mp4	0.0	99.3893780708313	2.500455856323242
12	80.10854005813599	pulse	1	t		10.0	2.5	/experiments/AOT/AOT_stimuli/rescaled_final/1222_fw.mp4	0.0	100.17284297943115	
12	81.7071521282196	pulse	1	t		10.0	2.5	/experiments/AOT/AOT_stimuli/rescaled_final/1222_fw.mp4	0.0	101.77145504951477	
12	81.82553100585938	fix_post	2		12	10.0	2.5	/experiments/AOT/AOT_stimuli/rescaled_final/1222_fw.mp4	0.0	101.88983392715454	0.09949898719787598
13	81.92502999305725	fix_pre	0		120	11.0	2.5	/experiments/AOT/AOT_stimuli/rescaled_final/0567_fw.mp4	0.0	101.98933291435242	0.99996018409729
13	82.92499017715454	movie	1		244	11.0	2.5	/experiments/AOT/AOT_stimuli/rescaled_final/0567_fw.mp4	0.0	102.9892930984497	2.5000648498535156
13	83.30816197395325	pulse	1	t		11.0	2.5	/experiments/AOT/AOT_stimuli/rescaled_final/0567_fw.mp4	0.0	103.37246489524841	
13	84.90812397003174	pulse	1	t		11.0	2.5	/experiments/AOT/AOT_stimuli/rescaled_final/0567_fw.mp4	0.0	104.9724268913269	
13	85.42505502700806	fix_post	2		12	11.0	2.5	/experiments/AOT/AOT_stimuli/rescaled_final/0567_fw.mp4	0.0	105.48935794830322	0.09972000122070312
14	85.52477502822876	fix_pre	0		119	12.0	2.5	blank	1.0	105.58907794952393	0.9922080039978027
14	86.50876712799072	pulse	0	t		12.0	2.5	blank	1.0	106.57307004928589	
14	86.51698303222656	movie	1		301	12.0	2.5	blank	1.0	106.58128595352173	2.508136034011841
14	88.10858416557312	pulse	1	t		12.0	2.5	blank	1.0	108.17288708686829	
14	89.0251190662384	fix_post	2		12	12.0	2.5	blank	1.0	109.08942198753357	0.09987807273864746
15	89.12499713897705	fix_pre	0		120	13.0	2.5	/experiments/AOT/AOT_stimuli/rescaled_final/0820_rv.mp4	0.0	109.18930006027222	0.9999699592590332
15	89.70852708816528	pulse	0	t		13.0	2.5	/experiments/AOT/AOT_stimuli/rescaled_final/0820_rv.mp4	0.0	109.77283000946045	
15	90.12496709823608	movie	1		244	13.0	2.5	/experiments/AOT/AOT_stimuli/rescaled_final/0820_rv.mp4	0.0	110.18927001953125	2.4999780654907227
15	91.30848002433777	pulse	1	t		13.0	2.5	/experiments/AOT/AOT_stimuli/rescaled_final/0820_rv.mp4	0.0	111.37278294563293	
15	92.6249451637268	fix_post	2		12	13.0	2.5	/experiments/AOT/AOT_stimuli/rescaled_final/0820_rv.mp4	0.0	112.68924808502197	0.09996700286865234
16	92.72491216659546	fix_pre	0		120	14.0	2.5	/experiments/AOT/AOT_stimuli/rescaled_final/1834_fw.mp4	0.0	112.78921508789062	1.0001368522644043
16	92.9083890914917	pulse	0	t		14.0	2.5	/experiments/AOT/AOT_stimuli/rescaled_final/1834_fw.mp4	0.0	112.97269201278687	
16	93.72504901885986	movie	1		244	14.0	2.5	/experiments/AOT/AOT_stimuli/rescaled_final/1834_fw.mp4	0.0	113.78935194015503	2.499873161315918
16	94.50836420059204	pulse	1	t		14.0	2.5	/experiments/AOT/AOT_stimuli/rescaled_final/1834_fw.mp4	0.0	114.5726671218872	
16	96.10676908493042	pulse	1	t		14.0	2.5	/experiments/AOT/AOT_stimuli/rescaled_final/1834_fw.mp4	0.0	116.17107200622559	
16	96.22492218017578	fix_post	2		12	14.0	2.5	/experiments/AOT/AOT_stimuli/rescaled_final/1834_fw.mp4	0.0	116.28922510147095	0.09998893737792969
17	96.32491111755371	fix_pre	0		120	15.0	2.5	/experiments/AOT/AOT_stimuli/rescaled_final/0812_fw.mp4	0.0	116.38921403884888	1.0
17	97.32491111755371	movie	1		245	15.0	2.5	/experiments/AOT/AOT_stimuli/rescaled_final/0812_fw.mp4	0.0	117.38921403884888	2.4996259212493896
17	97.70935106277466	pulse	1	t		15.0	2.5	/experiments/AOT/AOT_stimuli/rescaled_final/0812_fw.mp4	0.0	117.77365398406982	
17	99.30833315849304	pulse	1	t		15.0	2.5	/experiments/AOT/AOT_stimuli/rescaled_final/0812_fw.mp4	0.0	119.37263607978821	
17	99.8245370388031	fix_post	2		12	15.0	2.5	/experiments/AOT/AOT_stimuli/rescaled_final/0812_fw.mp4	0.0	119.88883996009827	0.10037612915039062
18	99.92491316795349	fix_pre	0		119	16.0	2.5	/experiments/AOT/AOT_stimuli/rescaled_final/1542_fw.mp4	0.0	119.98921608924866	0.9916329383850098
18	100.90844011306763	pulse	0	t		16.0	2.5	/experiments/AOT/AOT_stimuli/rescaled_final/1542_fw.mp4	0.0	120.9727430343628	
18	100.9165461063385	movie	1		245	16.0	2.5	/experiments/AOT/AOT_stimuli/rescaled_final/1542_fw.mp4	0.0	120.98084902763367	2.5083529949188232
18	102.50814509391785	pulse	1	t		16.0	2.5	/experiments/AOT/AOT_stimuli/rescaled_final/1542_fw.mp4	0.0	122.57244801521301	
18	103.42489910125732	fix_post	2		12	16.0	2.5	/experiments/AOT/AOT_stimuli/rescaled_final/1542_fw.mp4	0.0	123.48920202255249	0.10008502006530762
19	103.52498412132263	fix_pre	0		120	17.0	2.5	/experiments/AOT/AOT_stimuli/rescaled_final/1030_fw.mp4	0.0	123.5892870426178	1.0000200271606445
19	104.10846209526062	pulse	0	t		17.0	2.5	/experiments/AOT/AOT_stimuli/rescaled_final/1030_fw.mp4	0.0	124.17276501655579	
19	104.52500414848328	movie	1		245	17.0	2.5	/experiments/AOT/AOT_stimuli/rescaled_final/1030_fw.mp4	0.0	124.58930706977844	2.499513864517212
19	105.70851707458496	pulse	1	t		17.0	2.5	/experiments/AOT/AOT_stimuli/rescaled_final/1030_fw.mp4	0.0	125.77281999588013	
19	107.02451801300049	fix_post	2		12	17.0	2.5	/experiments/AOT/AOT_stimuli/rescaled_final/1030_fw.mp4	0.0	127.08882093429565	0.10030007362365723
20	107.12481808662415	fix_pre	0		120	18.0	2.5	/experiments/AOT/AOT_stimuli/rescaled_final/0328_fw.mp4	0.0	127.18912100791931	1.0001881122589111
20	107.30832004547119	pulse	0	t		18.0	2.5	/experiments/AOT/AOT_stimuli/rescaled_final/0328_fw.mp4	0.0	127.37262296676636	
20	108.12500619888306	movie	1		244	18.0	2.5	/experiments/AOT/AOT_stimuli/rescaled_final/0328_fw.mp4	0.0	128.18930912017822	2.4994568824768066
20	108.90841317176819	pulse	1	t		18.0	2.5	/experiments/AOT/AOT_stimuli/rescaled_final/0328_fw.mp4	0.0	128.97271609306335	
20	110.50699806213379	pulse	1	t		18.0	2.5	/experiments/AOT/AOT_stimuli/rescaled_final/0328_fw.mp4	0.0	130.57130098342896	
20	110.62446308135986	fix_post	2		12	18.0	2.5	/experiments/AOT/AOT_stimuli/rescaled_final/0328_fw.mp4	0.0	130.68876600265503	0.10050201416015625
21	110.72496509552002	fix_pre	0		120	19.0	2.5	blank	1.0	130.78926801681519	0.9998540878295898
21	111.72481918334961	movie	1		300	19.0	2.5	blank	1.0	131.78912210464478	2.5000948905944824
21	112.10848212242126	pulse	1	t		19.0	2.5	blank	1.0	132.17278504371643	
21	113.70834803581238	pulse	1	t		19.0	2.5	blank	1.0	133.77265095710754	
21	114.22491407394409	fix_post	2		12	19.0	2.5	blank	1.0	134.28921699523926	0.0999000072479248
22	114.32481408119202	fix_pre	0		119	20.0	2.5	/experiments/AOT/AOT_stimuli/rescaled_final/1567_fw.mp4	0.0	134.38911700248718	0.9916539192199707
22	115.30837202072144	pulse	0	t		20.0	2.5	/experiments/AOT/AOT_stimuli/rescaled_final/1567_fw.mp4	0.0	135.3726749420166	
22	115.31646800041199	movie	1		247	20.0	2.5	/experiments/AOT/AOT_stimuli/rescaled_final/1567_fw.mp4	0.0	135.38077092170715	2.5084221363067627
22	116.90790510177612	pulse	1	t		20.0	2.5	/experiments/AOT/AOT_stimuli/rescaled_final/1567_fw.mp4	0.0	136.9722080230713	
22	117.82489013671875	fix_post	2		12	20.0	2.5	/experiments/AOT/AOT_stimuli/rescaled_final/1567_fw.mp4	0.0	137.88919305801392	0.10003805160522461
23	117.92492818832397	fix_pre	0		120	21.0	2.5	/experiments/AOT/AOT_stimuli/rescaled_final/1144_rv.mp4	0.0	137.98923110961914	0.9999449253082275
23	118.5083441734314	pulse	0	t		21.0	2.5	/experiments/AOT/AOT_stimuli/rescaled_final/1144_rv.mp4	0.0	138.57264709472656	
23	118.9248731136322	movie	1		244	21.0	2.5	/experiments/AOT/AOT_stimuli/rescaled_final/1144_rv.mp4	0.0	138.98917603492737	2.5000100135803223
23	120.10833501815796	pulse	1	t		21.0	2.5	/experiments/AOT/AOT_stimuli/rescaled_final/1144_rv.mp4	0.0	140.17263793945312	
23	121.42488312721252	fix_post	2		12	21.0	2.5	/experiments/AOT/AOT_stimuli/rescaled_final/1144_rv.mp4	0.0	141.4891860485077	0.0999760627746582
24	121.52485918998718	fix_pre	0		120	22.0	2.5	/experiments/AOT/AOT_stimuli/rescaled_final/0586_fw.mp4	0.0	141.58916211128235	0.999871015548706
24	121.70833611488342	pulse	0	t		22.0	2.5	/experiments/AOT/AOT_stimuli/rescaled_final/0586_fw.mp4	0.0	141.7726390361786	
24	122.52473020553589	movie	1		242	22.0	2.5	/experiments/AOT/AOT_stimuli/rescaled_final/0586_fw.mp4	0.0	142.58903312683105	2.500513792037964
24	123.30834412574768	pulse	1	t		22.0	2.5	/experiments/AOT/AOT_stimuli/rescaled_final/0586_fw.mp4	0.0	143.37264704704285	
24	124.90657019615173	pulse	1	t		22.0	2.5	/experiments/AOT/AOT_stimuli/rescaled_final/0586_fw.mp4	0.0	144.9708731174469	
24	125.02524399757385	fix_post	2		12	22.0	2.5	/experiments/AOT/AOT_stimuli/rescaled_final/0586_fw.mp4	0.0	145.08954691886902	0.0995781421661377
25	125.12482213973999	fix_pre	0		120	23.0	2.5	/experiments/AOT/AOT_stimuli/rescaled_final/0937_rv.mp4	0.0	145.18912506103516	1.0000128746032715
25	126.12483501434326	movie	1		243	23.0	2.5	/experiments/AOT/AOT_stimuli/rescaled_final/0937_rv.mp4	0.0	146.18913793563843	2.500030040740967
25	126.50794911384583	pulse	1	t		23.0	2.5	/experiments/AOT/AOT_stimuli/rescaled_final/0937_rv.mp4	0.0	146.572252035141	
25	128.1082901954651	pulse	1	t		23.0	2.5	/experiments/AOT/AOT_stimuli/rescaled_final/0937_rv.mp4	0.0	148.17259311676025	
25	128.62486505508423	fix_post	2		12	23.0	2.5	/experiments/AOT/AOT_stimuli/rescaled_final/0937_rv.mp4	0.0	148.6891679763794	0.09998202323913574
26	128.72484707832336	fix_pre	0		119	24.0	2.5	/experiments/AOT/AOT_stimuli/rescaled_final/1390_rv.mp4	0.0	148.78914999961853	0.9916520118713379
26	129.70827198028564	pulse	0	t		24.0	2.5	/experiments/AOT/AOT_stimuli/rescaled_final/1390_rv.mp4	0.0	149.7725749015808	
26	129.7164990901947	movie	1		245	24.0	2.5	/experiments/AOT/AOT_stimuli/rescaled_final/1390_rv.mp4	0.0	149.78080201148987	2.5078868865966797
26	131.30781197547913	pulse	1	t		24.0	2.5	/experiments/AOT/AOT_stimuli/rescaled_final/1390_rv.mp4	0.0	151.3721148967743	
26	132.22438597679138	fix_post	2		12	24.0	2.5	/experiments/AOT/AOT_stimuli/rescaled_final/1390_rv.mp4	0.0	152.28868889808655	0.10039114952087402
27	132.32477712631226	fix_pre	0		120	25.0	2.5	/experiments/AOT/AOT_stimuli/rescaled_final/0856_rv.mp4	0.0	152.38908004760742	1.0000200271606445
27	132.90827703475952	pulse	0	t		25.0	2.5	/experiments/AOT/AOT_stimuli/rescaled_final/0856_rv.mp4	0.0	152.9725799560547	
27	133.3247971534729	movie	1		243	25.0	2.5	/experiments/AOT/AOT_stimuli/rescaled_final/0856_rv.mp4	0.0	153.38910007476807	2.4999208450317383
27	134.50828504562378	pulse	1	t		25.0	2.5	/experiments/AOT/AOT_stimuli/rescaled_final/0856_rv.mp4	0.0	154.57258796691895	
27	135.82471799850464	fix_post	2		12	25.0	2.5	/experiments/AOT/AOT_stimuli/rescaled_final/0856_rv.mp4	0.0	155.8890209197998	0.09998011589050293
28	135.92469811439514	fix_pre	0		120	26.0	2.5	/experiments/AOT/AOT_stimuli/rescaled_final/2071_rv.mp4	0.0	155.9890010356903	1.0000178813934326
28	136.10825419425964	pulse	0	t		26.0	2.5	/experiments/AOT/AOT_stimuli/rescaled_final/2071_rv.mp4	0.0	156.1725571155548	
28	136.92471599578857	movie	1		244	26.0	2.5	/experiments/AOT/AOT_stimuli/rescaled_final/2071_rv.mp4	0.0	156.98901891708374	2.500025987625122
28	137.7083101272583	pulse	1	t		26.0	2.5	/experiments/AOT/AOT_stimuli/rescaled_final/2071_rv.mp4	0.0	157.77261304855347	
28	139.30639505386353	pulse	1	t		26.0	2.5	/experiments/AOT/AOT_stimuli/rescaled_final/2071_rv.mp4	0.0	159.3706979751587	
28	139.4247419834137	fix_post	2		12	26.0	2.5	/experiments/AOT/AOT_stimuli/rescaled_final/2071_rv.mp4	0.0	159.48904490470886	0.09999608993530273
29	139.524738073349	fix_pre	0		120	27.0	2.5	/experiments/AOT/AOT_stimuli/rescaled_final/0069_fw.mp4	0.0	159.58904099464417	1.0000309944152832
29	140.52476906776428	movie	1		246	27.0	2.5	/experiments/AOT/AOT_stimuli/rescaled_final/0069_fw.mp4	0.0	160.58907198905945	2.5002870559692383
29	140.90745306015015	pulse	1	t		27.0	2.5	/experiments/AOT/AOT_stimuli/rescaled_final/0069_fw.mp4	0.0	160.9717559814453	
29	142.5079619884491	pulse	1	t		27.0	2.5	/experiments/AOT/AOT_stimuli/rescaled_final/0069_fw.mp4	0.0	162.57226490974426	
29	143.02505612373352	fix_post	2		12	27.0	2.5	/experiments/AOT/AOT_stimuli/rescaled_final/0069_fw.mp4	0.0	163.0893590450287	0.09958600997924805
30	143.12464213371277	fix_pre	0		119	28.0	2.5	blank	1.0	163.18894505500793	0.9918179512023926
30	144.10841298103333	pulse	0	t		28.0	2.5	blank	1.0	164.1727159023285	
30	144.11646008491516	movie	1		301	28.0	2.5	blank	1.0	164.18076300621033	2.5082530975341797
30	145.70822310447693	pulse	1	t		28.0	2.5	blank	1.0	165.7725260257721	
30	146.62471318244934	fix_post	2		12	28.0	2.5	blank	1.0	166.6890161037445	0.10001993179321289
31	146.72473311424255	fix_pre	0		120	29.0	2.5	/experiments/AOT/AOT_stimuli/rescaled_final/0250_fw.mp4	0.0	166.78903603553772	0.9999818801879883
31	147.30824518203735	pulse	0	t		29.0	2.5	/experiments/AOT/AOT_stimuli/rescaled_final/0250_fw.mp4	0.0	167.37254810333252	
31	147.72471499443054	movie	1		244	29.0	2.5	/experiments/AOT/AOT_stimuli/rescaled_final/0250_fw.mp4	0.0	167.7890179157257	2.5000832080841064
31	148.90815019607544	pulse	1	t		29.0	2.5	/experiments/AOT/AOT_stimuli/rescaled_final/0250_fw.mp4	0.0	168.9724531173706	
31	150.22479820251465	fix_post	2		12	29.0	2.5	/experiments/AOT/AOT_stimuli/rescaled_final/0250_fw.mp4	0.0	170.28910112380981	0.09990692138671875
32	150.32470512390137	fix_pre	0		120	30.0	2.5	/experiments/AOT/AOT_stimuli/rescaled_final/0445_rv.mp4	0.0	170.38900804519653	0.9998960494995117
32	150.50825715065002	pulse	0	t		30.0	2.5	/experiments/AOT/AOT_stimuli/rescaled_final/0445_rv.mp4	0.0	170.5725600719452	
32	151.32460117340088	movie	1		243	30.0	2.5	/experiments/AOT/AOT_stimuli/rescaled_final/0445_rv.mp4	0.0	171.38890409469604	2.4996438026428223
32	152.10814714431763	pulse	1	t		30.0	2.5	/experiments/AOT/AOT_stimuli/rescaled_final/0445_rv.mp4	0.0	172.1724500656128	
32	153.70648908615112	pulse	1	t		30.0	2.5	/experiments/AOT/AOT_stimuli/rescaled_final/0445_rv.mp4	0.0	173.7707920074463	
32	153.8242449760437	fix_post	2		12	30.0	2.5	/experiments/AOT/AOT_stimuli/rescaled_final/0445_rv.mp4	0.0	173.88854789733887	0.10035204887390137
33	153.9245970249176	fix_pre	0		120	31.0	2.5	/experiments/AOT/AOT_stimuli/rescaled_final/1710_rv.mp4	0.0	173.98889994621277	1.0000829696655273
33	154.92467999458313	movie	1		244	31.0	2.5	/experiments/AOT/AOT_stimuli/rescaled_final/1710_rv.mp4	0.0	174.9889829158783	2.4999170303344727
33	155.30773305892944	pulse	1	t		31.0	2.5	/experiments/AOT/AOT_stimuli/rescaled_final/1710_rv.mp4	0.0	175.3720359802246	
33	156.90806698799133	pulse	1	t		31.0	2.5	/experiments/AOT/AOT_stimuli/rescaled_final/1710_rv.mp4	0.0	176.9723699092865	
33	157.4245970249176	fix_post	2		12	31.0	2.5	/experiments/AOT/AOT_stimuli/rescaled_final/1710_rv.mp4	0.0	177.48889994621277	0.10002517700195312
34	157.52462220191956	fix_pre	0		119	32.0	2.5	/experiments/AOT/AOT_stimuli/rescaled_final/2050_rv.mp4	0.0	177.58892512321472	0.9917318820953369
34	158.50812411308289	pulse	0	t		32.0	2.5	/experiments/AOT/AOT_stimuli/rescaled_final/2050_rv.mp4	0.0	178.57242703437805	
34	158.5163540840149	movie	1		244	32.0	2.5	/experiments/AOT/AOT_stimuli/rescaled_final/2050_rv.mp4	0.0	178.58065700531006	2.5082650184631348
34	160.10786199569702	pulse	1	t		32.0	2.5	/experiments/AOT/AOT_stimuli/rescaled_final/2050_rv.mp4	0.0	180.1721649169922	
34	161.02461910247803	fix_post	2		12	32.0	2.5	/experiments/AOT/AOT_stimuli/rescaled_final/2050_rv.mp4	0.0	181.0889220237732	0.09990596771240234
35	161.12452507019043	fix_pre	0		120	33.0	2.5	/experiments/AOT/AOT_stimuli/rescaled_final/1129_fw.mp4	0.0	181.1888279914856	1.0001630783081055
35	161.70812106132507	pulse	0	t		33.0	2.5	/experiments/AOT/AOT_stimuli/rescaled_final/1129_fw.mp4	0.0	181.77242398262024	
35	162.12468814849854	movie	1		245	33.0	2.5	/experiments/AOT/AOT_stimuli/rescaled_final/1129_fw.mp4	0.0	182.1889910697937	2.4998929500579834
35	163.30817818641663	pulse	1	t		33.0	2.5	/experiments/AOT/AOT_stimuli/rescaled_final/1129_fw.mp4	0.0	183.3724811077118	
35	164.62458109855652	fix_post	2		12	33.0	2.5	/experiments/AOT/AOT_stimuli/rescaled_final/1129_fw.mp4	0.0	184.68888401985168	0.09997010231018066
36	164.7245512008667	fix_pre	0		120	34.0	2.5	blank	1.0	184.78885412216187	1.0000569820404053
36	164.9080901145935	pulse	0	t		34.0	2.5	blank	1.0	184.97239303588867	
36	165.7246081829071	movie	1		300	34.0	2.5	blank	1.0	185.78891110420227	2.500002861022949
36	166.50815510749817	pulse	1	t		34.0	2.5	blank	1.0	186.57245802879333	
36	168.10803198814392	pulse	1	t		34.0	2.5	blank	1.0	188.1723349094391	
36	168.22461104393005	fix_post	2		12	34.0	2.5	blank	1.0	188.28891396522522	0.09993910789489746
37	168.32455015182495	fix_pre	0		120	35.0	2.5	/experiments/AOT/AOT_stimuli/rescaled_final/0799_rv.mp4	0.0	188.38885307312012	1.0000648498535156
37	169.32461500167847	movie	1		242	35.0	2.5	/experiments/AOT/AOT_stimuli/rescaled_final/0799_rv.mp4	0.0	189.38891792297363	2.499981164932251
37	169.70755910873413	pulse	1	t		35.0	2.5	/experiments/AOT/AOT_stimuli/rescaled_final/0799_rv.mp4	0.0	189.7718620300293	
37	171.30809807777405	pulse	1	t		35.0	2.5	/experiments/AOT/AOT_stimuli/rescaled_final/0799_rv.mp4	0.0	191.3724009990692	
37	171.82459616661072	fix_post	2		12	35.0	2.5	/experiments/AOT/AOT_stimuli/rescaled_final/0799_rv.mp4	0.0	191.88889908790588	0.09991693496704102
38	171.92451310157776	fix_pre	0		119	36.0	2.5	/experiments/AOT/AOT_stimuli/rescaled_final/1675_fw.mp4	0.0	191.98881602287292	0.991703987121582
38	172.9080421924591	pulse	0	t		36.0	2.5	/experiments/AOT/AOT_stimuli/rescaled_final/1675_fw.mp4	0.0	192.97234511375427	
38	172.91621708869934	movie	1		244	36.0	2.5	/experiments/AOT/AOT_stimuli/rescaled_final/1675_fw.mp4	0.0	192.9805200099945	2.5083889961242676
38	174.5076150894165	pulse	1	t		36.0	2.5	/experiments/AOT/AOT_stimuli/rescaled_final/1675_fw.mp4	0.0	194.57191801071167	
38	175.4246060848236	fix_post	2		12	36.0	2.5	/experiments/AOT/AOT_stimuli/rescaled_final/1675_fw.mp4	0.0	195.48890900611877	0.09994912147521973
39	175.52455520629883	fix_pre	0		120	37.0	2.5	/experiments/AOT/AOT_stimuli/rescaled_final/1414_rv.mp4	0.0	195.588858127594	0.9999728202819824
39	176.10805010795593	pulse	0	t		37.0	2.5	/experiments/AOT/AOT_stimuli/rescaled_final/1414_rv.mp4	0.0	196.1723530292511	
39	176.5245280265808	movie	1		243	37.0	2.5	/experiments/AOT/AOT_stimuli/rescaled_final/1414_rv.mp4	0.0	196.58883094787598	2.5000081062316895
39	177.7080841064453	pulse	1	t		37.0	2.5	/experiments/AOT/AOT_stimuli/rescaled_final/1414_rv.mp4	0.0	197.77238702774048	
39	179.0245361328125	fix_post	2		12	37.0	2.5	/experiments/AOT/AOT_stimuli/rescaled_final/1414_rv.mp4	0.0	199.08883905410767	0.0999898910522461
40	179.12452602386475	fix_pre	0		120	38.0	2.5	/experiments/AOT/AOT_stimuli/rescaled_final/0445_rv.mp4	0.0	199.1888289451599	1.0000710487365723
40	179.30798816680908	pulse	0	t		38.0	2.5	/experiments/AOT/AOT_stimuli/rescaled_final/0445_rv.mp4	0.0	199.37229108810425	
40	180.12459707260132	movie	1		244	38.0	2.5	/experiments/AOT/AOT_stimuli/rescaled_final/0445_rv.mp4	0.0	200.18889999389648	2.500006914138794
40	180.90797901153564	pulse	1	t		38.0	2.5	/experiments/AOT/AOT_stimuli/rescaled_final/0445_rv.mp4	0.0	200.9722819328308	
40	182.5065200328827	pulse	1	t		38.0	2.5	/experiments/AOT/AOT_stimuli/rescaled_final/0445_rv.mp4	0.0	202.57082295417786	
40	182.6246039867401	fix_post	2		12	38.0	2.5	/experiments/AOT/AOT_stimuli/rescaled_final/0445_rv.mp4	0.0	202.68890690803528	0.09992098808288574
41	182.724524974823	fix_pre	0		120	39.0	2.5	/experiments/AOT/AOT_stimuli/rescaled_final/2140_fw.mp4	0.0	202.78882789611816	1.0000531673431396
41	183.72457814216614	movie	1		243	39.0	2.5	/experiments/AOT/AOT_stimuli/rescaled_final/2140_fw.mp4	0.0	203.7888810634613	2.4999680519104004
41	184.1078941822052	pulse	1	t		39.0	2.5	/experiments/AOT/AOT_stimuli/rescaled_final/2140_fw.mp4	0.0	204.17219710350037	
41	185.70806312561035	pulse	1	t		39.0	2.5	/experiments/AOT/AOT_stimuli/rescaled_final/2140_fw.mp4	0.0	205.77236604690552	
41	186.22454619407654	fix_post	2		12	39.0	2.5	/experiments/AOT/AOT_stimuli/rescaled_final/2140_fw.mp4	0.0	206.2888491153717	0.10008001327514648
42	186.32462620735168	fix_pre	0		119	40.0	2.5	blank	1.0	206.38892912864685	0.9915158748626709
42	187.30812311172485	pulse	0	t		40.0	2.5	blank	1.0	207.37242603302002	
42	187.31614208221436	movie	1		301	40.0	2.5	blank	1.0	207.38044500350952	2.50838303565979
42	188.9080421924591	pulse	1	t		40.0	2.5	blank	1.0	208.97234511375427	
42	189.82452511787415	fix_post	2		12	40.0	2.5	blank	1.0	209.8888280391693	0.10003185272216797
43	189.9245569705963	fix_pre	0		120	41.0	2.5	/experiments/AOT/AOT_stimuli/rescaled_final/0649_fw.mp4	0.0	209.98885989189148	1.0000121593475342
43	190.5079641342163	pulse	0	t		41.0	2.5	/experiments/AOT/AOT_stimuli/rescaled_final/0649_fw.mp4	0.0	210.57226705551147	
43	190.92456912994385	movie	1		244	41.0	2.5	/experiments/AOT/AOT_stimuli/rescaled_final/0649_fw.mp4	0.0	210.988872051239	2.499840021133423
43	192.10798597335815	pulse	1	t		41.0	2.5	/experiments/AOT/AOT_stimuli/rescaled_final/0649_fw.mp4	0.0	212.17228889465332	
43	193.42440915107727	fix_post	2		12	41.0	2.5	/experiments/AOT/AOT_stimuli/rescaled_final/0649_fw.mp4	0.0	213.48871207237244	0.1001739501953125
44	193.52458310127258	fix_pre	0		120	42.0	2.5	/experiments/AOT/AOT_stimuli/rescaled_final/1238_rv.mp4	0.0	213.58888602256775	0.9999299049377441
44	193.7081081867218	pulse	0	t		42.0	2.5	/experiments/AOT/AOT_stimuli/rescaled_final/1238_rv.mp4	0.0	213.77241110801697	
44	194.52451300621033	movie	1		243	42.0	2.5	/experiments/AOT/AOT_stimuli/rescaled_final/1238_rv.mp4	0.0	214.5888159275055	2.49959397315979
44	195.30747413635254	pulse	1	t		42.0	2.5	/experiments/AOT/AOT_stimuli/rescaled_final/1238_rv.mp4	0.0	215.3717770576477	
44	196.9061141014099	pulse	1	t		42.0	2.5	/experiments/AOT/AOT_stimuli/rescaled_final/1238_rv.mp4	0.0	216.97041702270508	
44	197.02410697937012	fix_post	2		12	42.0	2.5	/experiments/AOT/AOT_stimuli/rescaled_final/1238_rv.mp4	0.0	217.08840990066528	0.10003113746643066
45	197.12413811683655	fix_pre	0		120	43.0	2.5	/experiments/AOT/AOT_stimuli/rescaled_final/0315_rv.mp4	0.0	217.1884410381317	1.0000720024108887
45	198.12421011924744	movie	1		245	43.0	2.5	/experiments/AOT/AOT_stimuli/rescaled_final/0315_rv.mp4	0.0	218.1885130405426	2.500235080718994
45	198.5078990459442	pulse	1	t		43.0	2.5	/experiments/AOT/AOT_stimuli/rescaled_final/0315_rv.mp4	0.0	218.57220196723938	
45	200.10791897773743	pulse	1	t		43.0	2.5	/experiments/AOT/AOT_stimuli/rescaled_final/0315_rv.mp4	0.0	220.1722218990326	
45	200.62444519996643	fix_post	2		12	43.0	2.5	/experiments/AOT/AOT_stimuli/rescaled_final/0315_rv.mp4	0.0	220.6887481212616	0.10003399848937988
46	200.7244791984558	fix_pre	0		119	44.0	2.5	/experiments/AOT/AOT_stimuli/rescaled_final/1369_rv.mp4	0.0	220.78878211975098	0.9915909767150879
46	201.70798802375793	pulse	0	t		44.0	2.5	/experiments/AOT/AOT_stimuli/rescaled_final/1369_rv.mp4	0.0	221.7722909450531	
46	201.7160701751709	movie	1		246	44.0	2.5	/experiments/AOT/AOT_stimuli/rescaled_final/1369_rv.mp4	0.0	221.78037309646606	2.508476972579956
46	203.30798316001892	pulse	1	t		44.0	2.5	/experiments/AOT/AOT_stimuli/rescaled_final/1369_rv.mp4	0.0	223.3722860813141	
46	204.22454714775085	fix_post	2		12	44.0	2.5	/experiments/AOT/AOT_stimuli/rescaled_final/1369_rv.mp4	0.0	224.28885006904602	0.09982991218566895
47	204.32437705993652	fix_pre	0		120	45.0	2.5	/experiments/AOT/AOT_stimuli/rescaled_final/1604_rv.mp4	0.0	224.3886799812317	1.0000159740447998
47	204.90786814689636	pulse	0	t		45.0	2.5	/experiments/AOT/AOT_stimuli/rescaled_final/1604_rv.mp4	0.0	224.97217106819153	
47	205.32439303398132	movie	1		245	45.0	2.5	/experiments/AOT/AOT_stimuli/rescaled_final/1604_rv.mp4	0.0	225.3886959552765	2.4999771118164062
47	206.5079472064972	pulse	1	t		45.0	2.5	/experiments/AOT/AOT_stimuli/rescaled_final/1604_rv.mp4	0.0	226.57225012779236	
47	207.82437014579773	fix_post	2		12	45.0	2.5	/experiments/AOT/AOT_stimuli/rescaled_final/1604_rv.mp4	0.0	227.8886730670929	0.09998202323913574
48	207.92435216903687	fix_pre	0		120	46.0	2.5	/experiments/AOT/AOT_stimuli/rescaled_final/1504_rv.mp4	0.0	227.98865509033203	1.000020980834961
48	208.10784912109375	pulse	0	t		46.0	2.5	/experiments/AOT/AOT_stimuli/rescaled_final/1504_rv.mp4	0.0	228.17215204238892	
48	208.92437314987183	movie	1		247	46.0	2.5	/experiments/AOT/AOT_stimuli/rescaled_final/1504_rv.mp4	0.0	228.988676071167	2.5000200271606445
48	209.7078402042389	pulse	1	t		46.0	2.5	/experiments/AOT/AOT_stimuli/rescaled_final/1504_rv.mp4	0.0	229.77214312553406	
48	211.30780720710754	pulse	1	t		46.0	2.5	/experiments/AOT/AOT_stimuli/rescaled_final/1504_rv.mp4	0.0	231.3721101284027	
48	211.42439317703247	fix_post	2		12	46.0	2.5	/experiments/AOT/AOT_stimuli/rescaled_final/1504_rv.mp4	0.0	231.48869609832764	0.10003089904785156
49	211.52442407608032	fix_pre	0		120	47.0	2.5	/experiments/AOT/AOT_stimuli/rescaled_final/2095_rv.mp4	0.0	231.5887269973755	0.9999411106109619
49	212.52436518669128	movie	1		244	47.0	2.5	/experiments/AOT/AOT_stimuli/rescaled_final/2095_rv.mp4	0.0	232.58866810798645	2.5000619888305664
49	212.90787601470947	pulse	1	t		47.0	2.5	/experiments/AOT/AOT_stimuli/rescaled_final/2095_rv.mp4	0.0	232.97217893600464	
49	214.50781297683716	pulse	1	t		47.0	2.5	/experiments/AOT/AOT_stimuli/rescaled_final/2095_rv.mp4	0.0	234.57211589813232	
49	215.02442717552185	fix_post	2		12	47.0	2.5	/experiments/AOT/AOT_stimuli/rescaled_final/2095_rv.mp4	0.0	235.08873009681702	0.09992694854736328
50	215.1243541240692	fix_pre	0		119	48.0	2.5	blank	1.0	235.18865704536438	0.9916739463806152
50	216.10778903961182	pulse	0	t		48.0	2.5	blank	1.0	236.17209196090698	
50	216.11602807044983	movie	1		301	48.0	2.5	blank	1.0	236.180330991745	2.507901906967163
50	217.70785999298096	pulse	1	t		48.0	2.5	blank	1.0	237.77216291427612	
50	218.623929977417	fix_post	2		12	48.0	2.5	blank	1.0	238.68823289871216	0.10042405128479004
51	218.72435402870178	fix_pre	0		120	49.0	2.5	/experiments/AOT/AOT_stimuli/rescaled_final/0532_rv.mp4	0.0	238.78865694999695	1.0000979900360107
51	219.3077471256256	pulse	0	t		49.0	2.5	/experiments/AOT/AOT_stimuli/rescaled_final/0532_rv.mp4	0.0	239.37205004692078	
51	219.7244520187378	movie	1		244	49.0	2.5	/experiments/AOT/AOT_stimuli/rescaled_final/0532_rv.mp4	0.0	239.78875494003296	2.499922037124634
51	220.90790915489197	pulse	1	t		49.0	2.5	/experiments/AOT/AOT_stimuli/rescaled_final/0532_rv.mp4	0.0	240.97221207618713	
51	222.22437405586243	fix_post	2		12	49.0	2.5	/experiments/AOT/AOT_stimuli/rescaled_final/0532_rv.mp4	0.0	242.2886769771576	0.09997010231018066
52	222.3243441581726	fix_pre	0		120	50.0	2.5	/experiments/AOT/AOT_stimuli/rescaled_final/1675_rv.mp4	0.0	242.38864707946777	0.9999918937683105
52	222.50775909423828	pulse	0	t		50.0	2.5	/experiments/AOT/AOT_stimuli/rescaled_final/1675_rv.mp4	0.0	242.57206201553345	
52	223.32433605194092	movie	1		245	50.0	2.5	/experiments/AOT/AOT_stimuli/rescaled_final/1675_rv.mp4	0.0	243.38863897323608	2.4995601177215576
52	224.107764005661	pulse	1	t		50.0	2.5	/experiments/AOT/AOT_stimuli/rescaled_final/1675_rv.mp4	0.0	244.17206692695618	
52	225.70611310005188	pulse	1	t		50.0	2.5	/experiments/AOT/AOT_stimuli/rescaled_final/1675_rv.mp4	0.0	245.77041602134705	
52	225.82389616966248	fix_post	2		12	50.0	2.5	/experiments/AOT/AOT_stimuli/rescaled_final/1675_rv.mp4	0.0	245.88819909095764	0.1004178524017334
53	225.9243140220642	fix_pre	0		120	51.0	2.5	/experiments/AOT/AOT_stimuli/rescaled_final/1035_rv.mp4	0.0	245.98861694335938	0.9999890327453613
53	226.92430305480957	movie	1		247	51.0	2.5	/experiments/AOT/AOT_stimuli/rescaled_final/1035_rv.mp4	0.0	246.98860597610474	2.499558925628662
53	227.3087191581726	pulse	1	t		51.0	2.5	/experiments/AOT/AOT_stimuli/rescaled_final/1035_rv.mp4	0.0	247.37302207946777	
53	228.9077069759369	pulse	1	t		51.0	2.5	/experiments/AOT/AOT_stimuli/rescaled_final/1035_rv.mp4	0.0	248.97200989723206	
53	229.42386198043823	fix_post	2		12	51.0	2.5	/experiments/AOT/AOT_stimuli/rescaled_final/1035_rv.mp4	0.0	249.4881649017334	0.10047721862792969
54	229.52433919906616	fix_pre	0		119	52.0	2.5	/experiments/AOT/AOT_stimuli/rescaled_final/0837_fw.mp4	0.0	249.58864212036133	0.9916069507598877
54	230.50774717330933	pulse	0	t		52.0	2.5	/experiments/AOT/AOT_stimuli/rescaled_final/0837_fw.mp4	0.0	250.5720500946045	
54	230.51594614982605	movie	1		245	52.0	2.5	/experiments/AOT/AOT_stimuli/rescaled_final/0837_fw.mp4	0.0	250.58024907112122	2.5079469680786133
54	232.1074230670929	pulse	1	t		52.0	2.5	/experiments/AOT/AOT_stimuli/rescaled_final/0837_fw.mp4	0.0	252.17172598838806	
54	233.02389311790466	fix_post	2		12	52.0	2.5	/experiments/AOT/AOT_stimuli/rescaled_final/0837_fw.mp4	0.0	253.08819603919983	0.10039901733398438
55	233.12429213523865	fix_pre	0		120	53.0	2.5	/experiments/AOT/AOT_stimuli/rescaled_final/0566_rv.mp4	0.0	253.1885950565338	1.000058889389038
55	233.70773315429688	pulse	0	t		53.0	2.5	/experiments/AOT/AOT_stimuli/rescaled_final/0566_rv.mp4	0.0	253.77203607559204	
55	234.12435102462769	movie	1		243	53.0	2.5	/experiments/AOT/AOT_stimuli/rescaled_final/0566_rv.mp4	0.0	254.18865394592285	2.4999561309814453
55	235.3077449798584	pulse	1	t		53.0	2.5	/experiments/AOT/AOT_stimuli/rescaled_final/0566_rv.mp4	0.0	255.37204790115356	
55	236.62430715560913	fix_post	2		12	53.0	2.5	/experiments/AOT/AOT_stimuli/rescaled_final/0566_rv.mp4	0.0	256.6886100769043	0.0999758243560791
56	236.7242829799652	fix_pre	0		120	54.0	2.5	/experiments/AOT/AOT_stimuli/rescaled_final/0613_rv.mp4	0.0	256.7885859012604	0.9999871253967285
56	236.907781124115	pulse	0	t		54.0	2.5	/experiments/AOT/AOT_stimuli/rescaled_final/0613_rv.mp4	0.0	256.97208404541016	
56	237.72427010536194	movie	1		243	54.0	2.5	/experiments/AOT/AOT_stimuli/rescaled_final/0613_rv.mp4	0.0	257.7885730266571	2.5000200271606445
56	238.5077521800995	pulse	1	t		54.0	2.5	/experiments/AOT/AOT_stimuli/rescaled_final/0613_rv.mp4	0.0	258.57205510139465	
56	240.105966091156	pulse	1	t		54.0	2.5	/experiments/AOT/AOT_stimuli/rescaled_final/0613_rv.mp4	0.0	260.1702690124512	
56	240.22429013252258	fix_post	2		12	54.0	2.5	/experiments/AOT/AOT_stimuli/rescaled_final/0613_rv.mp4	0.0	260.28859305381775	0.09993600845336914
57	240.32422614097595	fix_pre	0		120	55.0	2.5	/experiments/AOT/AOT_stimuli/rescaled_final/0881_rv.mp4	0.0	260.3885290622711	0.9999918937683105
57	241.32421803474426	movie	1		245	55.0	2.5	/experiments/AOT/AOT_stimuli/rescaled_final/0881_rv.mp4	0.0	261.38852095603943	2.5000340938568115
57	241.70870399475098	pulse	1	t		55.0	2.5	/experiments/AOT/AOT_stimuli/rescaled_final/0881_rv.mp4	0.0	261.77300691604614	
57	243.30784010887146	pulse	1	t		55.0	2.5	/experiments/AOT/AOT_stimuli/rescaled_final/0881_rv.mp4	0.0	263.3721430301666	
57	243.82425212860107	fix_post	2		12	55.0	2.5	/experiments/AOT/AOT_stimuli/rescaled_final/0881_rv.mp4	0.0	263.88855504989624	0.09998297691345215
58	243.92423510551453	fix_pre	0		119	56.0	2.5	blank	1.0	263.9885380268097	0.9916698932647705
58	244.9077169895172	pulse	0	t		56.0	2.5	blank	1.0	264.9720199108124	
58	244.9159049987793	movie	1		301	56.0	2.5	blank	1.0	264.98020792007446	2.508324146270752
58	246.50777411460876	pulse	1	t		56.0	2.5	blank	1.0	266.57207703590393	
58	247.42422914505005	fix_post	2		12	56.0	2.5	blank	1.0	267.4885320663452	0.10005402565002441
59	247.52428317070007	fix_pre	0		120	57.0	2.5	/experiments/AOT/AOT_stimuli/rescaled_final/1497_fw.mp4	0.0	267.58858609199524	1.000018835067749
59	248.10767698287964	pulse	0	t		57.0	2.5	/experiments/AOT/AOT_stimuli/rescaled_final/1497_fw.mp4	0.0	268.1719799041748	
59	248.52430200576782	movie	1		244	57.0	2.5	/experiments/AOT/AOT_stimuli/rescaled_final/1497_fw.mp4	0.0	268.588604927063	2.4999749660491943
59	249.70774698257446	pulse	1	t		57.0	2.5	/experiments/AOT/AOT_stimuli/rescaled_final/1497_fw.mp4	0.0	269.77204990386963	
59	251.02427697181702	fix_post	2		12	57.0	2.5	/experiments/AOT/AOT_stimuli/rescaled_final/1497_fw.mp4	0.0	271.0885798931122	0.10000205039978027
60	251.1242790222168	fix_pre	0		120	58.0	2.5	/experiments/AOT/AOT_stimuli/rescaled_final/0800_rv.mp4	0.0	271.18858194351196	0.9995081424713135
60	251.30777716636658	pulse	0	t		58.0	2.5	/experiments/AOT/AOT_stimuli/rescaled_final/0800_rv.mp4	0.0	271.37208008766174	
60	252.1237871646881	movie	1		244	58.0	2.5	/experiments/AOT/AOT_stimuli/rescaled_final/0800_rv.mp4	0.0	272.1880900859833	2.5003409385681152
60	252.90739607810974	pulse	1	t		58.0	2.5	/experiments/AOT/AOT_stimuli/rescaled_final/0800_rv.mp4	0.0	272.9716989994049	
60	254.50651097297668	pulse	1	t		58.0	2.5	/experiments/AOT/AOT_stimuli/rescaled_final/0800_rv.mp4	0.0	274.57081389427185	
60	254.62412810325623	fix_post	2		12	58.0	2.5	/experiments/AOT/AOT_stimuli/rescaled_final/0800_rv.mp4	0.0	274.6884310245514	0.10037398338317871
61	254.7245020866394	fix_pre	0		120	59.0	2.5	/experiments/AOT/AOT_stimuli/rescaled_final/1111_fw.mp4	0.0	274.78880500793457	0.9997100830078125
61	255.72421216964722	movie	1		245	59.0	2.5	/experiments/AOT/AOT_stimuli/rescaled_final/1111_fw.mp4	0.0	275.7885150909424	2.499990940093994
61	256.1076171398163	pulse	1	t		59.0	2.5	/experiments/AOT/AOT_stimuli/rescaled_final/1111_fw.mp4	0.0	276.17192006111145	
61	257.7076451778412	pulse	1	t		59.0	2.5	/experiments/AOT/AOT_stimuli/rescaled_final/1111_fw.mp4	0.0	277.77194809913635	
61	258.2242031097412	fix_post	2		12	59.0	2.5	/experiments/AOT/AOT_stimuli/rescaled_final/1111_fw.mp4	0.0	278.2885060310364	0.09992289543151855
62	258.32412600517273	fix_pre	0		119	60.0	2.5	/experiments/AOT/AOT_stimuli/rescaled_final/0315_rv.mp4	0.0	278.3884289264679	0.9916801452636719
62	259.3075180053711	pulse	0	t		60.0	2.5	/experiments/AOT/AOT_stimuli/rescaled_final/0315_rv.mp4	0.0	279.37182092666626	
62	259.3158061504364	movie	1		247	60.0	2.5	/experiments/AOT/AOT_stimuli/rescaled_final/0315_rv.mp4	0.0	279.38010907173157	2.5083580017089844
62	260.90771412849426	pulse	1	t		60.0	2.5	/experiments/AOT/AOT_stimuli/rescaled_final/0315_rv.mp4	0.0	280.97201704978943	
62	261.8241641521454	fix_post	2		12	60.0	2.5	/experiments/AOT/AOT_stimuli/rescaled_final/0315_rv.mp4	0.0	281.88846707344055	0.0995628833770752
63	261.92372703552246	fix_pre	0		120	61.0	2.5	blank	1.0	281.9880299568176	1.0003700256347656
63	262.5076940059662	pulse	0	t		61.0	2.5	blank	1.0	282.57199692726135	
63	262.9240970611572	movie	1		300	61.0	2.5	blank	1.0	282.9883999824524	2.5000360012054443
63	264.10761404037476	pulse	1	t		61.0	2.5	blank	1.0	284.1719169616699	
63	265.42413306236267	fix_post	2		12	61.0	2.5	blank	1.0	285.48843598365784	0.10009193420410156
64	265.5242249965668	fix_pre	0		120	62.0	2.5	/experiments/AOT/AOT_stimuli/rescaled_final/1565_fw.mp4	0.0	285.58852791786194	0.999891996383667
64	265.7077331542969	pulse	0	t		62.0	2.5	/experiments/AOT/AOT_stimuli/rescaled_final/1565_fw.mp4	0.0	285.77203607559204	
64	266.52411699295044	movie	1		244	62.0	2.5	/experiments/AOT/AOT_stimuli/rescaled_final/1565_fw.mp4	0.0	286.5884199142456	2.4999470710754395
64	267.3075351715088	pulse	1	t		62.0	2.5	/experiments/AOT/AOT_stimuli/rescaled_final/1565_fw.mp4	0.0	287.37183809280396	
64	268.90611720085144	pulse	1	t		62.0	2.5	/experiments/AOT/AOT_stimuli/rescaled_final/1565_fw.mp4	0.0	288.9704201221466	
64	269.0240640640259	fix_post	2		12	62.0	2.5	/experiments/AOT/AOT_stimuli/rescaled_final/1565_fw.mp4	0.0	289.08836698532104	0.10001707077026367
65	269.12408113479614	fix_pre	0		120	63.0	2.5	/experiments/AOT/AOT_stimuli/rescaled_final/1703_fw.mp4	0.0	289.1883840560913	1.0001029968261719
65	270.1241841316223	movie	1		245	63.0	2.5	/experiments/AOT/AOT_stimuli/rescaled_final/1703_fw.mp4	0.0	290.1884870529175	2.4999349117279053
65	270.50787019729614	pulse	1	t		63.0	2.5	/experiments/AOT/AOT_stimuli/rescaled_final/1703_fw.mp4	0.0	290.5721731185913	
65	272.1074810028076	pulse	1	t		63.0	2.5	/experiments/AOT/AOT_stimuli/rescaled_final/1703_fw.mp4	0.0	292.1717839241028	
65	272.6241190433502	fix_post	2		12	63.0	2.5	/experiments/AOT/AOT_stimuli/rescaled_final/1703_fw.mp4	0.0	292.6884219646454	0.10006594657897949
66	272.7241849899292	fix_pre	0		119	64.0	2.5	/experiments/AOT/AOT_stimuli/rescaled_final/0844_fw.mp4	0.0	292.78848791122437	0.9915790557861328
66	273.707661151886	pulse	0	t		64.0	2.5	/experiments/AOT/AOT_stimuli/rescaled_final/0844_fw.mp4	0.0	293.77196407318115	
66	273.71576404571533	movie	1		248	64.0	2.5	/experiments/AOT/AOT_stimuli/rescaled_final/0844_fw.mp4	0.0	293.7800669670105	2.508347988128662
66	275.30719208717346	pulse	1	t		64.0	2.5	/experiments/AOT/AOT_stimuli/rescaled_final/0844_fw.mp4	0.0	295.3714950084686	
66	276.224112033844	fix_post	2		12	64.0	2.5	/experiments/AOT/AOT_stimuli/rescaled_final/0844_fw.mp4	0.0	296.28841495513916	0.0999150276184082
67	276.3240270614624	fix_pre	0		120	65.0	2.5	/experiments/AOT/AOT_stimuli/rescaled_final/0217_fw.mp4	0.0	296.38832998275757	1.0001039505004883
67	276.90750908851624	pulse	0	t		65.0	2.5	/experiments/AOT/AOT_stimuli/rescaled_final/0217_fw.mp4	0.0	296.9718120098114	
67	277.3241310119629	movie	1		246	65.0	2.5	/experiments/AOT/AOT_stimuli/rescaled_final/0217_fw.mp4	0.0	297.38843393325806	2.4995269775390625
67	278.5076241493225	pulse	1	t		65.0	2.5	/experiments/AOT/AOT_stimuli/rescaled_final/0217_fw.mp4	0.0	298.5719270706177	
67	279.82365798950195	fix_post	2		12	65.0	2.5	/experiments/AOT/AOT_stimuli/rescaled_final/0217_fw.mp4	0.0	299.8879609107971	0.10044002532958984
68	279.92409801483154	fix_pre	0		120	66.0	2.5	/experiments/AOT/AOT_stimuli/rescaled_final/1124_rv.mp4	0.0	299.9884009361267	0.9999799728393555
68	280.10750913619995	pulse	0	t		66.0	2.5	/experiments/AOT/AOT_stimuli/rescaled_final/1124_rv.mp4	0.0	300.1718120574951	
68	280.9240779876709	movie	1		246	66.0	2.5	/experiments/AOT/AOT_stimuli/rescaled_final/1124_rv.mp4	0.0	300.98838090896606	2.4999899864196777
68	281.7075181007385	pulse	1	t		66.0	2.5	/experiments/AOT/AOT_stimuli/rescaled_final/1124_rv.mp4	0.0	301.7718210220337	
68	283.3071200847626	pulse	1	t		66.0	2.5	/experiments/AOT/AOT_stimuli/rescaled_final/1124_rv.mp4	0.0	303.37142300605774	
68	283.4240679740906	fix_post	2		12	66.0	2.5	/experiments/AOT/AOT_stimuli/rescaled_final/1124_rv.mp4	0.0	303.48837089538574	0.09950017929077148
69	283.52356815338135	fix_pre	0		120	67.0	2.5	/experiments/AOT/AOT_stimuli/rescaled_final/2115_rv.mp4	0.0	303.5878710746765	1.0004839897155762
69	284.5240521430969	movie	1		244	67.0	2.5	/experiments/AOT/AOT_stimuli/rescaled_final/2115_rv.mp4	0.0	304.5883550643921	2.5001938343048096
69	284.9071810245514	pulse	1	t		67.0	2.5	/experiments/AOT/AOT_stimuli/rescaled_final/2115_rv.mp4	0.0	304.97148394584656	
69	286.5075399875641	pulse	1	t		67.0	2.5	/experiments/AOT/AOT_stimuli/rescaled_final/2115_rv.mp4	0.0	306.57184290885925	
69	287.02424597740173	fix_post	2		12	67.0	2.5	/experiments/AOT/AOT_stimuli/rescaled_final/2115_rv.mp4	0.0	307.0885488986969	0.09979915618896484
70	287.1240451335907	fix_pre	0		119	68.0	2.5	blank	1.0	307.18834805488586	0.9917259216308594
70	288.1075670719147	pulse	0	t		68.0	2.5	blank	1.0	308.17186999320984	
70	288.11577105522156	movie	1		301	68.0	2.5	blank	1.0	308.1800739765167	2.5081989765167236
70	289.7074542045593	pulse	1	t		68.0	2.5	blank	1.0	309.7717571258545	
70	290.6239700317383	fix_post	2		12	68.0	2.5	blank	1.0	310.68827295303345	0.10000109672546387
71	290.72397112846375	fix_pre	0		120	69.0	2.5	/experiments/AOT/AOT_stimuli/rescaled_final/0805_rv.mp4	0.0	310.7882740497589	1.0000319480895996
71	291.3075120449066	pulse	0	t		69.0	2.5	/experiments/AOT/AOT_stimuli/rescaled_final/0805_rv.mp4	0.0	311.3718149662018	
71	291.72400307655334	movie	1		248	69.0	2.5	/experiments/AOT/AOT_stimuli/rescaled_final/0805_rv.mp4	0.0	311.7883059978485	2.4996180534362793
71	292.9075891971588	pulse	1	t		69.0	2.5	/experiments/AOT/AOT_stimuli/rescaled_final/0805_rv.mp4	0.0	312.971892118454	
71	294.2236211299896	fix_post	2		12	69.0	2.5	/experiments/AOT/AOT_stimuli/rescaled_final/0805_rv.mp4	0.0	314.2879240512848	0.1004638671875
72	294.3240849971771	fix_pre	0		120	70.0	2.5	/experiments/AOT/AOT_stimuli/rescaled_final/1135_fw.mp4	0.0	314.3883879184723	1.0000011920928955
72	294.50749111175537	pulse	0	t		70.0	2.5	/experiments/AOT/AOT_stimuli/rescaled_final/1135_fw.mp4	0.0	314.57179403305054	
72	295.32408618927	movie	1		245	70.0	2.5	/experiments/AOT/AOT_stimuli/rescaled_final/1135_fw.mp4	0.0	315.3883891105652	2.4995429515838623
72	296.1075041294098	pulse	1	t		70.0	2.5	/experiments/AOT/AOT_stimuli/rescaled_final/1135_fw.mp4	0.0	316.17180705070496	
72	297.7075161933899	pulse	1	t		70.0	2.5	/experiments/AOT/AOT_stimuli/rescaled_final/1135_fw.mp4	0.0	317.77181911468506	
72	297.8236291408539	fix_post	2		12	70.0	2.5	/experiments/AOT/AOT_stimuli/rescaled_final/1135_fw.mp4	0.0	317.88793206214905	0.10038900375366211
73	297.92401814460754	fix_pre	0		120	71.0	2.5	/experiments/AOT/AOT_stimuli/rescaled_final/1466_rv.mp4	0.0	317.9883210659027	0.9999990463256836
73	298.9240171909332	movie	1		244	71.0	2.5	/experiments/AOT/AOT_stimuli/rescaled_final/1466_rv.mp4	0.0	318.9883201122284	2.4994778633117676
73	299.3076500892639	pulse	1	t		71.0	2.5	/experiments/AOT/AOT_stimuli/rescaled_final/1466_rv.mp4	0.0	319.3719530105591	
73	300.90743708610535	pulse	1	t		71.0	2.5	/experiments/AOT/AOT_stimuli/rescaled_final/1466_rv.mp4	0.0	320.9717400074005	
73	301.423495054245	fix_post	2		12	71.0	2.5	/experiments/AOT/AOT_stimuli/rescaled_final/1466_rv.mp4	0.0	321.48779797554016	0.10042214393615723
74	301.52391719818115	fix_pre	0		119	72.0	2.5	/experiments/AOT/AOT_stimuli/rescaled_final/0454_fw.mp4	0.0	321.5882201194763	0.991649866104126
74	302.5074670314789	pulse	0	t		72.0	2.5	/experiments/AOT/AOT_stimuli/rescaled_final/0454_fw.mp4	0.0	322.57176995277405	
74	302.5155670642853	movie	1		245	72.0	2.5	/experiments/AOT/AOT_stimuli/rescaled_final/0454_fw.mp4	0.0	322.57986998558044	2.5083959102630615
74	304.10701417922974	pulse	1	t		72.0	2.5	/experiments/AOT/AOT_stimuli/rescaled_final/0454_fw.mp4	0.0	324.1713171005249	
74	305.02396297454834	fix_post	2		12	72.0	2.5	/experiments/AOT/AOT_stimuli/rescaled_final/0454_fw.mp4	0.0	325.0882658958435	0.09998416900634766
75	305.1239471435547	fix_pre	0		120	73.0	2.5	/experiments/AOT/AOT_stimuli/rescaled_final/1763_rv.mp4	0.0	325.18825006484985	1.0001399517059326
75	305.707396030426	pulse	0	t		73.0	2.5	/experiments/AOT/AOT_stimuli/rescaled_final/1763_rv.mp4	0.0	325.7716989517212	
75	306.1240870952606	movie	1		245	73.0	2.5	/experiments/AOT/AOT_stimuli/rescaled_final/1763_rv.mp4	0.0	326.1883900165558	2.499866008758545
75	307.3069860935211	pulse	1	t		73.0	2.5	/experiments/AOT/AOT_stimuli/rescaled_final/1763_rv.mp4	0.0	327.3712890148163	
75	308.62395310401917	fix_post	2		12	73.0	2.5	/experiments/AOT/AOT_stimuli/rescaled_final/1763_rv.mp4	0.0	328.68825602531433	0.09960007667541504
76	308.7235531806946	fix_pre	0		120	74.0	2.5	/experiments/AOT/AOT_stimuli/rescaled_final/1390_fw.mp4	0.0	328.78785610198975	1.000558853149414
76	308.90701699256897	pulse	0	t		74.0	2.5	/experiments/AOT/AOT_stimuli/rescaled_final/1390_fw.mp4	0.0	328.97131991386414	
76	309.724112033844	movie	1		244	74.0	2.5	/experiments/AOT/AOT_stimuli/rescaled_final/1390_fw.mp4	0.0	329.78841495513916	2.4998650550842285
76	310.50743198394775	pulse	1	t		74.0	2.5	/experiments/AOT/AOT_stimuli/rescaled_final/1390_fw.mp4	0.0	330.5717349052429	
76	312.10614919662476	pulse	1	t		74.0	2.5	/experiments/AOT/AOT_stimuli/rescaled_final/1390_fw.mp4	0.0	332.1704521179199	
76	312.2239770889282	fix_post	2		12	74.0	2.5	/experiments/AOT/AOT_stimuli/rescaled_final/1390_fw.mp4	0.0	332.2882800102234	0.09990811347961426
77	312.32388520240784	fix_pre	0		120	75.0	2.5	/experiments/AOT/AOT_stimuli/rescaled_final/1415_fw.mp4	0.0	332.388188123703	1.000046968460083
77	313.3239321708679	movie	1		243	75.0	2.5	/experiments/AOT/AOT_stimuli/rescaled_final/1415_fw.mp4	0.0	333.3882350921631	2.4999468326568604
77	313.70850706100464	pulse	1	t		75.0	2.5	/experiments/AOT/AOT_stimuli/rescaled_final/1415_fw.mp4	0.0	333.7728099822998	
77	315.30724596977234	pulse	1	t		75.0	2.5	/experiments/AOT/AOT_stimuli/rescaled_final/1415_fw.mp4	0.0	335.3715488910675	
77	315.8238790035248	fix_post	2		12	75.0	2.5	/experiments/AOT/AOT_stimuli/rescaled_final/1415_fw.mp4	0.0	335.88818192481995	0.10014510154724121
78	315.924024105072	fix_pre	0		119	76.0	2.5	blank	1.0	335.9883270263672	0.9914228916168213
78	316.90742111206055	pulse	0	t		76.0	2.5	blank	1.0	336.9717240333557	
78	316.91544699668884	movie	1		301	76.0	2.5	blank	1.0	336.979749917984	2.508427143096924
78	318.50730204582214	pulse	1	t		76.0	2.5	blank	1.0	338.5716049671173	
78	319.42387413978577	fix_post	2		12	76.0	2.5	blank	1.0	339.48817706108093	0.0999748706817627
79	319.52384901046753	fix_pre	0		120	77.0	2.5	/experiments/AOT/AOT_stimuli/rescaled_final/2113_rv.mp4	0.0	339.5881519317627	1.0000109672546387
79	320.10731410980225	pulse	0	t		77.0	2.5	/experiments/AOT/AOT_stimuli/rescaled_final/2113_rv.mp4	0.0	340.1716170310974	
79	320.52385997772217	movie	1		245	77.0	2.5	/experiments/AOT/AOT_stimuli/rescaled_final/2113_rv.mp4	0.0	340.58816289901733	2.4999232292175293
79	321.7073152065277	pulse	1	t		77.0	2.5	/experiments/AOT/AOT_stimuli/rescaled_final/2113_rv.mp4	0.0	341.7716181278229	
79	323.0237832069397	fix_post	2		12	77.0	2.5	/experiments/AOT/AOT_stimuli/rescaled_final/2113_rv.mp4	0.0	343.08808612823486	0.10000276565551758
80	323.1237859725952	fix_pre	0		120	78.0	2.5	/experiments/AOT/AOT_stimuli/rescaled_final/1632_fw.mp4	0.0	343.1880888938904	0.9999980926513672
80	323.3072600364685	pulse	0	t		78.0	2.5	/experiments/AOT/AOT_stimuli/rescaled_final/1632_fw.mp4	0.0	343.3715629577637	
80	324.1237840652466	movie	1		247	78.0	2.5	/experiments/AOT/AOT_stimuli/rescaled_final/1632_fw.mp4	0.0	344.18808698654175	2.4996390342712402
80	324.9074001312256	pulse	1	t		78.0	2.5	/experiments/AOT/AOT_stimuli/rescaled_final/1632_fw.mp4	0.0	344.97170305252075	
80	326.507306098938	pulse	1	t		78.0	2.5	/experiments/AOT/AOT_stimuli/rescaled_final/1632_fw.mp4	0.0	346.57160902023315	
80	326.6234230995178	fix_post	2		12	78.0	2.5	/experiments/AOT/AOT_stimuli/rescaled_final/1632_fw.mp4	0.0	346.687726020813	0.10034990310668945
81	326.7237730026245	fix_pre	0		120	79.0	2.5	/experiments/AOT/AOT_stimuli/rescaled_final/0242_fw.mp4	0.0	346.7880759239197	1.0000061988830566
81	327.72377920150757	movie	1		245	79.0	2.5	/experiments/AOT/AOT_stimuli/rescaled_final/0242_fw.mp4	0.0	347.78808212280273	2.500041961669922
81	328.1084430217743	pulse	1	t		79.0	2.5	/experiments/AOT/AOT_stimuli/rescaled_final/0242_fw.mp4	0.0	348.17274594306946	
81	329.70727920532227	pulse	1	t		79.0	2.5	/experiments/AOT/AOT_stimuli/rescaled_final/0242_fw.mp4	0.0	349.77158212661743	
81	330.2238211631775	fix_post	2		12	79.0	2.5	/experiments/AOT/AOT_stimuli/rescaled_final/0242_fw.mp4	0.0	350.28812408447266	0.09993100166320801
82	330.3237521648407	fix_pre	0		119	80.0	2.5	/experiments/AOT/AOT_stimuli/rescaled_final/0967_fw.mp4	0.0	350.38805508613586	0.9916939735412598
82	331.3073251247406	pulse	0	t		80.0	2.5	/experiments/AOT/AOT_stimuli/rescaled_final/0967_fw.mp4	0.0	351.37162804603577	
82	331.31544613838196	movie	1		246	80.0	2.5	/experiments/AOT/AOT_stimuli/rescaled_final/0967_fw.mp4	0.0	351.3797490596771	2.5083119869232178
82	332.90727710723877	pulse	1	t		80.0	2.5	/experiments/AOT/AOT_stimuli/rescaled_final/0967_fw.mp4	0.0	352.97158002853394	
82	333.8237581253052	fix_post	2		12	80.0	2.5	/experiments/AOT/AOT_stimuli/rescaled_final/0967_fw.mp4	0.0	353.88806104660034	0.1000828742980957
83	333.92384099960327	fix_pre	0		120	81.0	2.5	/experiments/AOT/AOT_stimuli/rescaled_final/0564_rv.mp4	0.0	353.98814392089844	0.9999001026153564
83	334.5073142051697	pulse	0	t		81.0	2.5	/experiments/AOT/AOT_stimuli/rescaled_final/0564_rv.mp4	0.0	354.57161712646484	
83	334.9237411022186	movie	1		243	81.0	2.5	/experiments/AOT/AOT_stimuli/rescaled_final/0564_rv.mp4	0.0	354.9880440235138	2.5001299381256104
83	336.10732197761536	pulse	1	t		81.0	2.5	/experiments/AOT/AOT_stimuli/rescaled_final/0564_rv.mp4	0.0	356.1716248989105	
83	337.42387104034424	fix_post	2		12	81.0	2.5	/experiments/AOT/AOT_stimuli/rescaled_final/0564_rv.mp4	0.0	357.4881739616394	0.09999299049377441
84	337.523864030838	fix_pre	0		120	82.0	2.5	blank	1.0	357.5881669521332	0.9999489784240723
84	337.7072961330414	pulse	0	t		82.0	2.5	blank	1.0	357.77159905433655	
84	338.5238130092621	movie	1		300	82.0	2.5	blank	1.0	358.58811593055725	2.4999771118164062
84	339.307254076004	pulse	1	t		82.0	2.5	blank	1.0	359.3715569972992	
84	340.9072480201721	pulse	1	t		82.0	2.5	blank	1.0	360.9715509414673	
84	341.0237901210785	fix_post	2		12	82.0	2.5	blank	1.0	361.08809304237366	0.10002589225769043
85	341.1238160133362	fix_pre	0		120	83.0	2.5	/experiments/AOT/AOT_stimuli/rescaled_final/1145_fw.mp4	0.0	361.18811893463135	0.9999501705169678
85	342.12376618385315	movie	1		245	83.0	2.5	/experiments/AOT/AOT_stimuli/rescaled_final/1145_fw.mp4	0.0	362.1880691051483	2.499983787536621
85	342.5081670284271	pulse	1	t		83.0	2.5	/experiments/AOT/AOT_stimuli/rescaled_final/1145_fw.mp4	0.0	362.5724699497223	
85	344.10721707344055	pulse	1	t		83.0	2.5	/experiments/AOT/AOT_stimuli/rescaled_final/1145_fw.mp4	0.0	364.1715199947357	
85	344.62374997138977	fix_post	2		12	83.0	2.5	/experiments/AOT/AOT_stimuli/rescaled_final/1145_fw.mp4	0.0	364.68805289268494	0.09990715980529785
87	344.72365713119507	stim	0		1716					364.78796005249023	14.300068855285645
87	345.7072591781616	pulse	0	t						365.7715620994568	
87	347.3072500228882	pulse	0	t						367.37155294418335	
87	348.9071650505066	pulse	0	t						368.97146797180176	
87	350.50724816322327	pulse	0	t						370.57155108451843	
87	352.1071991920471	pulse	0	t						372.1715021133423	
87	353.7071599960327	pulse	0	t						373.7714629173279	
87	355.30710220336914	pulse	0	t						375.3714051246643	
87	356.9071490764618	pulse	0	t						376.97145199775696	
87	358.5071060657501	pulse	0	t						378.5714089870453	
