trial_nr	onset	event_type	phase	response	nr_frames	movie_index	movie_duration	movie_file	blank	onset_abs	duration
0	0.11649441719055176	stim	0		78					17.446196794509888	0.6499555110931396
0	0.7583825588226318	response	0	space						18.088084936141968	
1	0.7664499282836914	stim	0		4387					18.096152305603027	36.567750215530396
1	37.32241630554199	pulse	0	t						54.65211868286133	
1	37.33420014381409	stim	1		1714					54.66390252113342	14.298273086547852
1	38.92242908477783	pulse	1	t						56.25213146209717	
1	40.52283978462219	pulse	1	t						57.85254216194153	
1	42.12295603752136	pulse	1	t						59.4526584148407	
1	43.72320795059204	pulse	1	t						61.05291032791138	
1	45.323392391204834	pulse	1	t						62.65309476852417	
1	46.92359805107117	pulse	1	t						64.2533004283905	
1	48.5238733291626	pulse	1	t						65.85357570648193	
1	50.12411022186279	pulse	1	t						67.45381259918213	
2	51.63247323036194	fix_pre	0		12	0.0	2.5	/experiments/Knapen_AOT/AOT_stimuli/rescaled_final/1041_rv.mp4	0.0	68.96217560768127	0.12508821487426758
2	51.72473454475403	pulse	0	t		0.0	2.5	/experiments/Knapen_AOT/AOT_stimuli/rescaled_final/1041_rv.mp4	0.0	69.05443692207336	
2	51.757561445236206	movie	1		279	0.0	2.5	/experiments/Knapen_AOT/AOT_stimuli/rescaled_final/1041_rv.mp4	0.0	69.08726382255554	2.4836535453796387
2	53.32318091392517	pulse	1	t		0.0	2.5	/experiments/Knapen_AOT/AOT_stimuli/rescaled_final/1041_rv.mp4	0.0	70.6528832912445	
2	54.241214990615845	fix_post	2		12	0.0	2.5	/experiments/Knapen_AOT/AOT_stimuli/rescaled_final/1041_rv.mp4	0.0	71.57091736793518	0.10000085830688477
3	54.34121584892273	fix_pre	0		120	1.0	2.5	/experiments/Knapen_AOT/AOT_stimuli/rescaled_final/0204_fw.mp4	0.0	71.67091822624207	1.008512258529663
3	54.91678547859192	pulse	0	t		1.0	2.5	/experiments/Knapen_AOT/AOT_stimuli/rescaled_final/0204_fw.mp4	0.0	72.24648785591125	
3	55.34972810745239	movie	1		278	1.0	2.5	/experiments/Knapen_AOT/AOT_stimuli/rescaled_final/0204_fw.mp4	0.0	72.67943048477173	2.492013692855835
3	56.517104148864746	pulse	1	t		1.0	2.5	/experiments/Knapen_AOT/AOT_stimuli/rescaled_final/0204_fw.mp4	0.0	73.84680652618408	
3	57.84174180030823	fix_post	2		12	1.0	2.5	/experiments/Knapen_AOT/AOT_stimuli/rescaled_final/0204_fw.mp4	0.0	75.17144417762756	0.10001635551452637
4	57.941758155822754	fix_pre	0		120	2.0	2.5	/experiments/Knapen_AOT/AOT_stimuli/rescaled_final/0279_fw.mp4	0.0	75.27146053314209	1.0084912776947021
4	58.117151975631714	pulse	0	t		2.0	2.5	/experiments/Knapen_AOT/AOT_stimuli/rescaled_final/0279_fw.mp4	0.0	75.44685435295105	
4	58.950249433517456	movie	1		279	2.0	2.5	/experiments/Knapen_AOT/AOT_stimuli/rescaled_final/0279_fw.mp4	0.0	76.27995181083679	2.492032527923584
4	59.71702432632446	pulse	1	t		2.0	2.5	/experiments/Knapen_AOT/AOT_stimuli/rescaled_final/0279_fw.mp4	0.0	77.0467267036438	
4	61.317474365234375	pulse	1	t		2.0	2.5	/experiments/Knapen_AOT/AOT_stimuli/rescaled_final/0279_fw.mp4	0.0	78.64717674255371	
4	61.44228196144104	fix_post	2		12	2.0	2.5	/experiments/Knapen_AOT/AOT_stimuli/rescaled_final/0279_fw.mp4	0.0	78.77198433876038	0.10001921653747559
5	61.542301177978516	fix_pre	0		120	3.0	2.5	/experiments/Knapen_AOT/AOT_stimuli/rescaled_final/0007_fw.mp4	0.0	78.87200355529785	1.008493423461914
5	62.55079460144043	movie	1		287	3.0	2.5	/experiments/Knapen_AOT/AOT_stimuli/rescaled_final/0007_fw.mp4	0.0	79.88049697875977	2.492166519165039
5	62.9176824092865	pulse	1	t		3.0	2.5	/experiments/Knapen_AOT/AOT_stimuli/rescaled_final/0007_fw.mp4	0.0	80.24738478660583	
5	64.51927638053894	pulse	1	t		3.0	2.5	/experiments/Knapen_AOT/AOT_stimuli/rescaled_final/0007_fw.mp4	0.0	81.84897875785828	
5	65.04296112060547	fix_post	2		12	3.0	2.5	/experiments/Knapen_AOT/AOT_stimuli/rescaled_final/0007_fw.mp4	0.0	82.3726634979248	0.09990429878234863
6	65.14286541938782	fix_pre	0		118	4.0	2.5	/experiments/Knapen_AOT/AOT_stimuli/rescaled_final/0587_rv.mp4	0.0	82.47256779670715	0.9918076992034912
6	66.11819958686829	pulse	0	t		4.0	2.5	/experiments/Knapen_AOT/AOT_stimuli/rescaled_final/0587_rv.mp4	0.0	83.44790196418762	
6	66.13467311859131	movie	1		289	4.0	2.5	/experiments/Knapen_AOT/AOT_stimuli/rescaled_final/0587_rv.mp4	0.0	83.46437549591064	2.5003786087036133
6	67.71693992614746	pulse	1	t		4.0	2.5	/experiments/Knapen_AOT/AOT_stimuli/rescaled_final/0587_rv.mp4	0.0	85.0466423034668	
6	68.63505172729492	fix_post	2		12	4.0	2.5	/experiments/Knapen_AOT/AOT_stimuli/rescaled_final/0587_rv.mp4	0.0	85.96475410461426	0.10001111030578613
7	68.73506283760071	fix_pre	0		120	5.0	2.5	/experiments/Knapen_AOT/AOT_stimuli/rescaled_final/1662_rv.mp4	0.0	86.06476521492004	1.0084810256958008
7	69.31866955757141	pulse	0	t		5.0	2.5	/experiments/Knapen_AOT/AOT_stimuli/rescaled_final/1662_rv.mp4	0.0	86.64837193489075	
7	69.74354386329651	movie	1		287	5.0	2.5	/experiments/Knapen_AOT/AOT_stimuli/rescaled_final/1662_rv.mp4	0.0	87.07324624061584	2.4920225143432617
7	70.91695737838745	pulse	1	t		5.0	2.5	/experiments/Knapen_AOT/AOT_stimuli/rescaled_final/1662_rv.mp4	0.0	88.24665975570679	
7	72.23556637763977	fix_post	2		12	5.0	2.5	/experiments/Knapen_AOT/AOT_stimuli/rescaled_final/1662_rv.mp4	0.0	89.5652687549591	0.10000872611999512
8	72.33557510375977	fix_pre	0		120	6.0	2.5	/experiments/Knapen_AOT/AOT_stimuli/rescaled_final/0524_rv.mp4	0.0	89.6652774810791	1.0085086822509766
8	72.51919794082642	pulse	0	t		6.0	2.5	/experiments/Knapen_AOT/AOT_stimuli/rescaled_final/0524_rv.mp4	0.0	89.84890031814575	
8	73.34408378601074	movie	1		280	6.0	2.5	/experiments/Knapen_AOT/AOT_stimuli/rescaled_final/0524_rv.mp4	0.0	90.67378616333008	2.4920289516448975
8	74.11740565299988	pulse	1	t		6.0	2.5	/experiments/Knapen_AOT/AOT_stimuli/rescaled_final/0524_rv.mp4	0.0	91.44710803031921	
8	75.71744585037231	pulse	1	t		6.0	2.5	/experiments/Knapen_AOT/AOT_stimuli/rescaled_final/0524_rv.mp4	0.0	93.04714822769165	
8	75.83611273765564	fix_post	2		12	6.0	2.5	/experiments/Knapen_AOT/AOT_stimuli/rescaled_final/0524_rv.mp4	0.0	93.16581511497498	0.10001230239868164
9	75.93612504005432	fix_pre	0		120	7.0	2.5	blank	1.0	93.26582741737366	1.000162124633789
9	76.93628716468811	movie	1		300	7.0	2.5	blank	1.0	94.26598954200745	2.5003631114959717
9	77.32005095481873	pulse	1	t		7.0	2.5	blank	1.0	94.64975333213806	
9	78.92010617256165	pulse	1	t		7.0	2.5	blank	1.0	96.24980854988098	
9	79.43665027618408	fix_post	2		12	7.0	2.5	blank	1.0	96.76635265350342	0.10002541542053223
10	79.53667569160461	fix_pre	0		119	8.0	2.5	/experiments/Knapen_AOT/AOT_stimuli/rescaled_final/1294_rv.mp4	0.0	96.86637806892395	1.0004527568817139
10	80.52033686637878	pulse	0	t		8.0	2.5	/experiments/Knapen_AOT/AOT_stimuli/rescaled_final/1294_rv.mp4	0.0	97.85003924369812	
10	80.53712844848633	movie	1		285	8.0	2.5	/experiments/Knapen_AOT/AOT_stimuli/rescaled_final/1294_rv.mp4	0.0	97.86683082580566	2.5000646114349365
10	82.11967968940735	pulse	1	t		8.0	2.5	/experiments/Knapen_AOT/AOT_stimuli/rescaled_final/1294_rv.mp4	0.0	99.44938206672668	
10	83.03719305992126	fix_post	2		12	8.0	2.5	/experiments/Knapen_AOT/AOT_stimuli/rescaled_final/1294_rv.mp4	0.0	100.3668954372406	0.1000208854675293
11	83.1372139453888	fix_pre	0		120	9.0	2.5	/experiments/Knapen_AOT/AOT_stimuli/rescaled_final/0648_rv.mp4	0.0	100.46691632270813	1.0085186958312988
11	83.72084856033325	pulse	0	t		9.0	2.5	/experiments/Knapen_AOT/AOT_stimuli/rescaled_final/0648_rv.mp4	0.0	101.05055093765259	
11	84.14573264122009	movie	1		281	9.0	2.5	/experiments/Knapen_AOT/AOT_stimuli/rescaled_final/0648_rv.mp4	0.0	101.47543501853943	2.4921107292175293
11	85.31896233558655	pulse	1	t		9.0	2.5	/experiments/Knapen_AOT/AOT_stimuli/rescaled_final/0648_rv.mp4	0.0	102.64866471290588	
11	86.63784337043762	fix_post	2		12	9.0	2.5	/experiments/Knapen_AOT/AOT_stimuli/rescaled_final/0648_rv.mp4	0.0	103.96754574775696	0.09997129440307617
12	86.7378146648407	fix_pre	0		120	10.0	2.5	/experiments/Knapen_AOT/AOT_stimuli/rescaled_final/1445_fw.mp4	0.0	104.06751704216003	1.0084741115570068
12	86.92130327224731	pulse	0	t		10.0	2.5	/experiments/Knapen_AOT/AOT_stimuli/rescaled_final/1445_fw.mp4	0.0	104.25100564956665	
12	87.7462887763977	movie	1		279	10.0	2.5	/experiments/Knapen_AOT/AOT_stimuli/rescaled_final/1445_fw.mp4	0.0	105.07599115371704	2.4920308589935303
12	88.5194582939148	pulse	1	t		10.0	2.5	/experiments/Knapen_AOT/AOT_stimuli/rescaled_final/1445_fw.mp4	0.0	105.84916067123413	
12	90.12183737754822	pulse	1	t		10.0	2.5	/experiments/Knapen_AOT/AOT_stimuli/rescaled_final/1445_fw.mp4	0.0	107.45153975486755	
12	90.23831963539124	fix_post	2		12	10.0	2.5	/experiments/Knapen_AOT/AOT_stimuli/rescaled_final/1445_fw.mp4	0.0	107.56802201271057	0.1000051498413086
13	90.33832478523254	fix_pre	0		120	11.0	2.5	/experiments/Knapen_AOT/AOT_stimuli/rescaled_final/0942_rv.mp4	0.0	107.66802716255188	1.008474588394165
13	91.34679937362671	movie	1		280	11.0	2.5	/experiments/Knapen_AOT/AOT_stimuli/rescaled_final/0942_rv.mp4	0.0	108.67650175094604	2.4920904636383057
13	91.72032403945923	pulse	1	t		11.0	2.5	/experiments/Knapen_AOT/AOT_stimuli/rescaled_final/0942_rv.mp4	0.0	109.05002641677856	
13	93.3200216293335	pulse	1	t		11.0	2.5	/experiments/Knapen_AOT/AOT_stimuli/rescaled_final/0942_rv.mp4	0.0	110.64972400665283	
13	93.83888983726501	fix_post	2		12	11.0	2.5	/experiments/Knapen_AOT/AOT_stimuli/rescaled_final/0942_rv.mp4	0.0	111.16859221458435	0.09995484352111816
14	93.93884468078613	fix_pre	0		119	12.0	2.5	blank	1.0	111.26854705810547	0.9918196201324463
14	94.92250299453735	pulse	0	t		12.0	2.5	blank	1.0	112.25220537185669	
14	94.93066430091858	movie	1		301	12.0	2.5	blank	1.0	112.26036667823792	2.50872540473938
14	96.52276158332825	pulse	1	t		12.0	2.5	blank	1.0	113.85246396064758	
14	97.43938970565796	fix_post	2		12	12.0	2.5	blank	1.0	114.7690920829773	0.09998655319213867
15	97.5393762588501	fix_pre	0		120	13.0	2.5	/experiments/Knapen_AOT/AOT_stimuli/rescaled_final/1693_rv.mp4	0.0	114.86907863616943	1.0084943771362305
15	98.12314462661743	pulse	0	t		13.0	2.5	/experiments/Knapen_AOT/AOT_stimuli/rescaled_final/1693_rv.mp4	0.0	115.45284700393677	
15	98.54787063598633	movie	1		290	13.0	2.5	/experiments/Knapen_AOT/AOT_stimuli/rescaled_final/1693_rv.mp4	0.0	115.87757301330566	2.492039918899536
15	99.72136807441711	pulse	1	t		13.0	2.5	/experiments/Knapen_AOT/AOT_stimuli/rescaled_final/1693_rv.mp4	0.0	117.05107045173645	
15	101.03991055488586	fix_post	2		12	13.0	2.5	/experiments/Knapen_AOT/AOT_stimuli/rescaled_final/1693_rv.mp4	0.0	118.3696129322052	0.10002803802490234
16	101.13993859291077	fix_pre	0		120	14.0	2.5	/experiments/Knapen_AOT/AOT_stimuli/rescaled_final/1980_fw.mp4	0.0	118.4696409702301	1.0085334777832031
16	101.32370948791504	pulse	0	t		14.0	2.5	/experiments/Knapen_AOT/AOT_stimuli/rescaled_final/1980_fw.mp4	0.0	118.65341186523438	
16	102.14847207069397	movie	1		276	14.0	2.5	/experiments/Knapen_AOT/AOT_stimuli/rescaled_final/1980_fw.mp4	0.0	119.4781744480133	2.4919755458831787
16	102.92173767089844	pulse	1	t		14.0	2.5	/experiments/Knapen_AOT/AOT_stimuli/rescaled_final/1980_fw.mp4	0.0	120.25144004821777	
16	104.5219521522522	pulse	1	t		14.0	2.5	/experiments/Knapen_AOT/AOT_stimuli/rescaled_final/1980_fw.mp4	0.0	121.85165452957153	
16	104.64044761657715	fix_post	2		12	14.0	2.5	/experiments/Knapen_AOT/AOT_stimuli/rescaled_final/1980_fw.mp4	0.0	121.97014999389648	0.10001754760742188
17	104.74046516418457	fix_pre	0		120	15.0	2.5	/experiments/Knapen_AOT/AOT_stimuli/rescaled_final/1870_fw.mp4	0.0	122.0701675415039	1.0085012912750244
17	105.7489664554596	movie	1		291	15.0	2.5	/experiments/Knapen_AOT/AOT_stimuli/rescaled_final/1870_fw.mp4	0.0	123.07866883277893	2.491995334625244
17	106.11630344390869	pulse	1	t		15.0	2.5	/experiments/Knapen_AOT/AOT_stimuli/rescaled_final/1870_fw.mp4	0.0	123.44600582122803	
17	107.7168140411377	pulse	1	t		15.0	2.5	/experiments/Knapen_AOT/AOT_stimuli/rescaled_final/1870_fw.mp4	0.0	125.04651641845703	
17	108.24096179008484	fix_post	2		12	15.0	2.5	/experiments/Knapen_AOT/AOT_stimuli/rescaled_final/1870_fw.mp4	0.0	125.57066416740417	0.10002279281616211
18	108.340984582901	fix_pre	0		118	16.0	2.5	/experiments/Knapen_AOT/AOT_stimuli/rescaled_final/0378_fw.mp4	0.0	125.67068696022034	0.9918844699859619
18	109.31647086143494	pulse	0	t		16.0	2.5	/experiments/Knapen_AOT/AOT_stimuli/rescaled_final/0378_fw.mp4	0.0	126.64617323875427	
18	109.33286905288696	movie	1		281	16.0	2.5	/experiments/Knapen_AOT/AOT_stimuli/rescaled_final/0378_fw.mp4	0.0	126.6625714302063	2.500378370285034
18	110.91671752929688	pulse	1	t		16.0	2.5	/experiments/Knapen_AOT/AOT_stimuli/rescaled_final/0378_fw.mp4	0.0	128.2464199066162	
18	111.833247423172	fix_post	2		12	16.0	2.5	/experiments/Knapen_AOT/AOT_stimuli/rescaled_final/0378_fw.mp4	0.0	129.16294980049133	0.10000777244567871
19	111.93325519561768	fix_pre	0		120	17.0	2.5	/experiments/Knapen_AOT/AOT_stimuli/rescaled_final/0903_rv.mp4	0.0	129.262957572937	1.0085055828094482
19	112.5168707370758	pulse	0	t		17.0	2.5	/experiments/Knapen_AOT/AOT_stimuli/rescaled_final/0903_rv.mp4	0.0	129.84657311439514	
19	112.94176077842712	movie	1		282	17.0	2.5	/experiments/Knapen_AOT/AOT_stimuli/rescaled_final/0903_rv.mp4	0.0	130.27146315574646	2.4920003414154053
19	114.11726975440979	pulse	1	t		17.0	2.5	/experiments/Knapen_AOT/AOT_stimuli/rescaled_final/0903_rv.mp4	0.0	131.44697213172913	
19	115.43376111984253	fix_post	2		12	17.0	2.5	/experiments/Knapen_AOT/AOT_stimuli/rescaled_final/0903_rv.mp4	0.0	132.76346349716187	0.10002732276916504
20	115.5337884426117	fix_pre	0		120	18.0	2.5	/experiments/Knapen_AOT/AOT_stimuli/rescaled_final/0278_rv.mp4	0.0	132.86349081993103	1.008514404296875
20	115.71734547615051	pulse	0	t		18.0	2.5	/experiments/Knapen_AOT/AOT_stimuli/rescaled_final/0278_rv.mp4	0.0	133.04704785346985	
20	116.54230284690857	movie	1		291	18.0	2.5	/experiments/Knapen_AOT/AOT_stimuli/rescaled_final/0278_rv.mp4	0.0	133.8720052242279	2.4919769763946533
20	117.31756782531738	pulse	1	t		18.0	2.5	/experiments/Knapen_AOT/AOT_stimuli/rescaled_final/0278_rv.mp4	0.0	134.64727020263672	
20	118.9179117679596	pulse	1	t		18.0	2.5	/experiments/Knapen_AOT/AOT_stimuli/rescaled_final/0278_rv.mp4	0.0	136.24761414527893	
20	119.03427982330322	fix_post	2		12	18.0	2.5	/experiments/Knapen_AOT/AOT_stimuli/rescaled_final/0278_rv.mp4	0.0	136.36398220062256	0.1000216007232666
21	119.13430142402649	fix_pre	0		120	19.0	2.5	/experiments/Knapen_AOT/AOT_stimuli/rescaled_final/0743_fw.mp4	0.0	136.46400380134583	1.0084824562072754
21	120.14278388023376	movie	1		284	19.0	2.5	/experiments/Knapen_AOT/AOT_stimuli/rescaled_final/0743_fw.mp4	0.0	137.4724862575531	2.49204421043396
21	120.51664280891418	pulse	1	t		19.0	2.5	/experiments/Knapen_AOT/AOT_stimuli/rescaled_final/0743_fw.mp4	0.0	137.84634518623352	
21	122.116201877594	pulse	1	t		19.0	2.5	/experiments/Knapen_AOT/AOT_stimuli/rescaled_final/0743_fw.mp4	0.0	139.44590425491333	
21	122.63482809066772	fix_post	2		12	19.0	2.5	/experiments/Knapen_AOT/AOT_stimuli/rescaled_final/0743_fw.mp4	0.0	139.96453046798706	0.10004448890686035
22	122.73487257957458	fix_pre	0		119	20.0	2.5	/experiments/Knapen_AOT/AOT_stimuli/rescaled_final/0777_fw.mp4	0.0	140.06457495689392	1.0001521110534668
22	123.7188549041748	pulse	0	t		20.0	2.5	/experiments/Knapen_AOT/AOT_stimuli/rescaled_final/0777_fw.mp4	0.0	141.04855728149414	
22	123.73502469062805	movie	1		295	20.0	2.5	/experiments/Knapen_AOT/AOT_stimuli/rescaled_final/0777_fw.mp4	0.0	141.0647270679474	2.5002896785736084
22	125.31750392913818	pulse	1	t		20.0	2.5	/experiments/Knapen_AOT/AOT_stimuli/rescaled_final/0777_fw.mp4	0.0	142.64720630645752	
22	126.23531436920166	fix_post	2		12	20.0	2.5	/experiments/Knapen_AOT/AOT_stimuli/rescaled_final/0777_fw.mp4	0.0	143.565016746521	0.10001754760742188
23	126.33533191680908	fix_pre	0		120	21.0	2.5	blank	1.0	143.66503429412842	1.0001671314239502
23	126.91901922225952	pulse	0	t		21.0	2.5	blank	1.0	144.24872159957886	
23	127.33549904823303	movie	1		300	21.0	2.5	blank	1.0	144.66520142555237	2.5004072189331055
23	128.51933026313782	pulse	1	t		21.0	2.5	blank	1.0	145.84903264045715	
23	129.83590626716614	fix_post	2		12	21.0	2.5	blank	1.0	147.16560864448547	0.10004353523254395
24	129.93594980239868	fix_pre	0		120	22.0	2.5	/experiments/Knapen_AOT/AOT_stimuli/rescaled_final/0635_rv.mp4	0.0	147.26565217971802	1.0001475811004639
24	130.11958599090576	pulse	0	t		22.0	2.5	/experiments/Knapen_AOT/AOT_stimuli/rescaled_final/0635_rv.mp4	0.0	147.4492883682251	
24	130.93609738349915	movie	1		291	22.0	2.5	/experiments/Knapen_AOT/AOT_stimuli/rescaled_final/0635_rv.mp4	0.0	148.26579976081848	2.5003249645233154
24	131.71681594848633	pulse	1	t		22.0	2.5	/experiments/Knapen_AOT/AOT_stimuli/rescaled_final/0635_rv.mp4	0.0	149.04651832580566	
24	133.31723976135254	pulse	1	t		22.0	2.5	/experiments/Knapen_AOT/AOT_stimuli/rescaled_final/0635_rv.mp4	0.0	150.64694213867188	
24	133.43642234802246	fix_post	2		12	22.0	2.5	/experiments/Knapen_AOT/AOT_stimuli/rescaled_final/0635_rv.mp4	0.0	150.7661247253418	0.10004496574401855
25	133.53646731376648	fix_pre	0		120	23.0	2.5	/experiments/Knapen_AOT/AOT_stimuli/rescaled_final/1445_rv.mp4	0.0	150.86616969108582	1.008528232574463
25	134.54499554634094	movie	1		275	23.0	2.5	/experiments/Knapen_AOT/AOT_stimuli/rescaled_final/1445_rv.mp4	0.0	151.87469792366028	2.4919967651367188
25	134.9189875125885	pulse	1	t		23.0	2.5	/experiments/Knapen_AOT/AOT_stimuli/rescaled_final/1445_rv.mp4	0.0	152.24868988990784	
25	136.52070093154907	pulse	1	t		23.0	2.5	/experiments/Knapen_AOT/AOT_stimuli/rescaled_final/1445_rv.mp4	0.0	153.8504033088684	
25	137.03699231147766	fix_post	2		12	23.0	2.5	/experiments/Knapen_AOT/AOT_stimuli/rescaled_final/1445_rv.mp4	0.0	154.366694688797	0.10007810592651367
26	137.13707041740417	fix_pre	0		119	24.0	2.5	/experiments/Knapen_AOT/AOT_stimuli/rescaled_final/1288_rv.mp4	0.0	154.4667727947235	1.0001134872436523
26	138.1207013130188	pulse	0	t		24.0	2.5	/experiments/Knapen_AOT/AOT_stimuli/rescaled_final/1288_rv.mp4	0.0	155.45040369033813	
26	138.13718390464783	movie	1		266	24.0	2.5	/experiments/Knapen_AOT/AOT_stimuli/rescaled_final/1288_rv.mp4	0.0	155.46688628196716	2.500385046005249
26	139.72127628326416	pulse	1	t		24.0	2.5	/experiments/Knapen_AOT/AOT_stimuli/rescaled_final/1288_rv.mp4	0.0	157.0509786605835	
26	140.63756895065308	fix_post	2		12	24.0	2.5	/experiments/Knapen_AOT/AOT_stimuli/rescaled_final/1288_rv.mp4	0.0	157.9672713279724	0.09999489784240723
27	140.73756384849548	fix_pre	0		120	25.0	2.5	/experiments/Knapen_AOT/AOT_stimuli/rescaled_final/1868_fw.mp4	0.0	158.06726622581482	1.0084848403930664
27	141.32117176055908	pulse	0	t		25.0	2.5	/experiments/Knapen_AOT/AOT_stimuli/rescaled_final/1868_fw.mp4	0.0	158.65087413787842	
27	141.74604868888855	movie	1		292	25.0	2.5	/experiments/Knapen_AOT/AOT_stimuli/rescaled_final/1868_fw.mp4	0.0	159.07575106620789	2.4920241832733154
27	142.92115306854248	pulse	1	t		25.0	2.5	/experiments/Knapen_AOT/AOT_stimuli/rescaled_final/1868_fw.mp4	0.0	160.25085544586182	
27	144.23807287216187	fix_post	2		12	25.0	2.5	/experiments/Knapen_AOT/AOT_stimuli/rescaled_final/1868_fw.mp4	0.0	161.5677752494812	0.10002517700195312
28	144.33809804916382	fix_pre	0		120	26.0	2.5	/experiments/Knapen_AOT/AOT_stimuli/rescaled_final/1890_fw.mp4	0.0	161.66780042648315	1.0085327625274658
28	144.52179217338562	pulse	0	t		26.0	2.5	/experiments/Knapen_AOT/AOT_stimuli/rescaled_final/1890_fw.mp4	0.0	161.85149455070496	
28	145.34663081169128	movie	1		275	26.0	2.5	/experiments/Knapen_AOT/AOT_stimuli/rescaled_final/1890_fw.mp4	0.0	162.67633318901062	2.491995096206665
28	146.1215558052063	pulse	1	t		26.0	2.5	/experiments/Knapen_AOT/AOT_stimuli/rescaled_final/1890_fw.mp4	0.0	163.45125818252563	
28	147.72099351882935	pulse	1	t		26.0	2.5	/experiments/Knapen_AOT/AOT_stimuli/rescaled_final/1890_fw.mp4	0.0	165.05069589614868	
28	147.83862590789795	fix_post	2		12	26.0	2.5	/experiments/Knapen_AOT/AOT_stimuli/rescaled_final/1890_fw.mp4	0.0	165.16832828521729	0.10002470016479492
29	147.93865060806274	fix_pre	0		120	27.0	2.5	blank	1.0	165.26835298538208	1.0001919269561768
29	148.93884253501892	movie	1		300	27.0	2.5	blank	1.0	166.26854491233826	2.500307083129883
29	149.32238388061523	pulse	1	t		27.0	2.5	blank	1.0	166.65208625793457	
29	150.92277431488037	pulse	1	t		27.0	2.5	blank	1.0	168.2524766921997	
29	151.4391496181488	fix_post	2		12	27.0	2.5	blank	1.0	168.76885199546814	0.1000363826751709
30	151.53918600082397	fix_pre	0		119	28.0	2.5	/experiments/Knapen_AOT/AOT_stimuli/rescaled_final/0419_fw.mp4	0.0	168.8688883781433	1.0001449584960938
30	152.52294039726257	pulse	0	t		28.0	2.5	/experiments/Knapen_AOT/AOT_stimuli/rescaled_final/0419_fw.mp4	0.0	169.8526427745819	
30	152.53933095932007	movie	1		285	28.0	2.5	/experiments/Knapen_AOT/AOT_stimuli/rescaled_final/0419_fw.mp4	0.0	169.8690333366394	2.500383138656616
30	154.12157034873962	pulse	1	t		28.0	2.5	/experiments/Knapen_AOT/AOT_stimuli/rescaled_final/0419_fw.mp4	0.0	171.45127272605896	
30	155.03971409797668	fix_post	2		12	28.0	2.5	/experiments/Knapen_AOT/AOT_stimuli/rescaled_final/0419_fw.mp4	0.0	172.36941647529602	0.10013389587402344
31	155.1398479938507	fix_pre	0		120	29.0	2.5	/experiments/Knapen_AOT/AOT_stimuli/rescaled_final/1951_rv.mp4	0.0	172.46955037117004	1.0083556175231934
31	155.72333693504333	pulse	0	t		29.0	2.5	/experiments/Knapen_AOT/AOT_stimuli/rescaled_final/1951_rv.mp4	0.0	173.05303931236267	
31	156.1482036113739	movie	1		274	29.0	2.5	/experiments/Knapen_AOT/AOT_stimuli/rescaled_final/1951_rv.mp4	0.0	173.47790598869324	2.4920525550842285
31	157.32194638252258	pulse	1	t		29.0	2.5	/experiments/Knapen_AOT/AOT_stimuli/rescaled_final/1951_rv.mp4	0.0	174.65164875984192	
31	158.64025616645813	fix_post	2		12	29.0	2.5	/experiments/Knapen_AOT/AOT_stimuli/rescaled_final/1951_rv.mp4	0.0	175.96995854377747	0.1000056266784668
32	158.7402617931366	fix_pre	0		120	30.0	2.5	/experiments/Knapen_AOT/AOT_stimuli/rescaled_final/1954_rv.mp4	0.0	176.06996417045593	1.0085055828094482
32	158.9238224029541	pulse	0	t		30.0	2.5	/experiments/Knapen_AOT/AOT_stimuli/rescaled_final/1954_rv.mp4	0.0	176.25352478027344	
32	159.74876737594604	movie	1		282	30.0	2.5	/experiments/Knapen_AOT/AOT_stimuli/rescaled_final/1954_rv.mp4	0.0	177.07846975326538	2.4920225143432617
32	160.52188348770142	pulse	1	t		30.0	2.5	/experiments/Knapen_AOT/AOT_stimuli/rescaled_final/1954_rv.mp4	0.0	177.85158586502075	
32	162.12263083457947	pulse	1	t		30.0	2.5	/experiments/Knapen_AOT/AOT_stimuli/rescaled_final/1954_rv.mp4	0.0	179.4523332118988	
32	162.2407898902893	fix_post	2		12	30.0	2.5	/experiments/Knapen_AOT/AOT_stimuli/rescaled_final/1954_rv.mp4	0.0	179.57049226760864	0.10001230239868164
33	162.340802192688	fix_pre	0		120	31.0	2.5	/experiments/Knapen_AOT/AOT_stimuli/rescaled_final/2028_fw.mp4	0.0	179.67050457000732	1.0085203647613525
33	163.34932255744934	movie	1		281	31.0	2.5	/experiments/Knapen_AOT/AOT_stimuli/rescaled_final/2028_fw.mp4	0.0	180.67902493476868	2.4920105934143066
33	163.71660089492798	pulse	1	t		31.0	2.5	/experiments/Knapen_AOT/AOT_stimuli/rescaled_final/2028_fw.mp4	0.0	181.04630327224731	
33	165.31664323806763	pulse	1	t		31.0	2.5	/experiments/Knapen_AOT/AOT_stimuli/rescaled_final/2028_fw.mp4	0.0	182.64634561538696	
33	165.84133315086365	fix_post	2		12	31.0	2.5	/experiments/Knapen_AOT/AOT_stimuli/rescaled_final/2028_fw.mp4	0.0	183.17103552818298	0.10001850128173828
34	165.94135165214539	fix_pre	0		118	32.0	2.5	/experiments/Knapen_AOT/AOT_stimuli/rescaled_final/0871_rv.mp4	0.0	183.27105402946472	0.9918391704559326
34	166.9167284965515	pulse	0	t		32.0	2.5	/experiments/Knapen_AOT/AOT_stimuli/rescaled_final/0871_rv.mp4	0.0	184.24643087387085	
34	166.93319082260132	movie	1		290	32.0	2.5	/experiments/Knapen_AOT/AOT_stimuli/rescaled_final/0871_rv.mp4	0.0	184.26289319992065	2.5003769397735596
34	168.51698851585388	pulse	1	t		32.0	2.5	/experiments/Knapen_AOT/AOT_stimuli/rescaled_final/0871_rv.mp4	0.0	185.84669089317322	
34	169.43356776237488	fix_post	2		12	32.0	2.5	/experiments/Knapen_AOT/AOT_stimuli/rescaled_final/0871_rv.mp4	0.0	186.7632701396942	0.1000058650970459
35	169.53357362747192	fix_pre	0		120	33.0	2.5	blank	1.0	186.86327600479126	1.0002028942108154
35	170.11722993850708	pulse	0	t		33.0	2.5	blank	1.0	187.44693231582642	
35	170.53377652168274	movie	1		300	33.0	2.5	blank	1.0	187.86347889900208	2.5003042221069336
35	171.7175669670105	pulse	1	t		33.0	2.5	blank	1.0	189.04726934432983	
35	173.03408074378967	fix_post	2		12	33.0	2.5	blank	1.0	190.363783121109	0.10001921653747559
36	173.13409996032715	fix_pre	0		120	34.0	2.5	/experiments/Knapen_AOT/AOT_stimuli/rescaled_final/2115_rv.mp4	0.0	190.46380233764648	1.0084950923919678
36	173.3178005218506	pulse	0	t		34.0	2.5	/experiments/Knapen_AOT/AOT_stimuli/rescaled_final/2115_rv.mp4	0.0	190.64750289916992	
36	174.14259505271912	movie	1		288	34.0	2.5	/experiments/Knapen_AOT/AOT_stimuli/rescaled_final/2115_rv.mp4	0.0	191.47229743003845	2.492039203643799
36	174.91822266578674	pulse	1	t		34.0	2.5	/experiments/Knapen_AOT/AOT_stimuli/rescaled_final/2115_rv.mp4	0.0	192.24792504310608	
36	176.51816582679749	pulse	1	t		34.0	2.5	/experiments/Knapen_AOT/AOT_stimuli/rescaled_final/2115_rv.mp4	0.0	193.84786820411682	
36	176.63463425636292	fix_post	2		12	34.0	2.5	/experiments/Knapen_AOT/AOT_stimuli/rescaled_final/2115_rv.mp4	0.0	193.96433663368225	0.10007691383361816
37	176.73471117019653	fix_pre	0		120	35.0	2.5	/experiments/Knapen_AOT/AOT_stimuli/rescaled_final/2157_fw.mp4	0.0	194.06441354751587	1.008424997329712
37	177.74313616752625	movie	1		286	35.0	2.5	/experiments/Knapen_AOT/AOT_stimuli/rescaled_final/2157_fw.mp4	0.0	195.07283854484558	2.492029905319214
37	178.1183841228485	pulse	1	t		35.0	2.5	/experiments/Knapen_AOT/AOT_stimuli/rescaled_final/2157_fw.mp4	0.0	195.44808650016785	
37	179.7170855998993	pulse	1	t		35.0	2.5	/experiments/Knapen_AOT/AOT_stimuli/rescaled_final/2157_fw.mp4	0.0	197.04678797721863	
37	180.23516607284546	fix_post	2		12	35.0	2.5	/experiments/Knapen_AOT/AOT_stimuli/rescaled_final/2157_fw.mp4	0.0	197.5648684501648	0.10001492500305176
38	180.3351809978485	fix_pre	0		119	36.0	2.5	/experiments/Knapen_AOT/AOT_stimuli/rescaled_final/1288_fw.mp4	0.0	197.66488337516785	1.0001356601715088
38	181.31897044181824	pulse	0	t		36.0	2.5	/experiments/Knapen_AOT/AOT_stimuli/rescaled_final/1288_fw.mp4	0.0	198.64867281913757	
38	181.33531665802002	movie	1		287	36.0	2.5	/experiments/Knapen_AOT/AOT_stimuli/rescaled_final/1288_fw.mp4	0.0	198.66501903533936	2.500396490097046
38	182.91753768920898	pulse	1	t		36.0	2.5	/experiments/Knapen_AOT/AOT_stimuli/rescaled_final/1288_fw.mp4	0.0	200.24724006652832	
38	183.83571314811707	fix_post	2		12	36.0	2.5	/experiments/Knapen_AOT/AOT_stimuli/rescaled_final/1288_fw.mp4	0.0	201.1654155254364	0.10007572174072266
39	183.9357888698578	fix_pre	0		120	37.0	2.5	/experiments/Knapen_AOT/AOT_stimuli/rescaled_final/0091_fw.mp4	0.0	201.26549124717712	1.0084424018859863
39	184.51943254470825	pulse	0	t		37.0	2.5	/experiments/Knapen_AOT/AOT_stimuli/rescaled_final/0091_fw.mp4	0.0	201.8491349220276	
39	184.94423127174377	movie	1		280	37.0	2.5	/experiments/Knapen_AOT/AOT_stimuli/rescaled_final/0091_fw.mp4	0.0	202.2739336490631	2.492039680480957
39	186.11772298812866	pulse	1	t		37.0	2.5	/experiments/Knapen_AOT/AOT_stimuli/rescaled_final/0091_fw.mp4	0.0	203.447425365448	
39	187.43627095222473	fix_post	2		12	37.0	2.5	/experiments/Knapen_AOT/AOT_stimuli/rescaled_final/0091_fw.mp4	0.0	204.76597332954407	0.09999990463256836
40	187.5362708568573	fix_pre	0		120	38.0	2.5	/experiments/Knapen_AOT/AOT_stimuli/rescaled_final/1553_fw.mp4	0.0	204.86597323417664	1.0085017681121826
40	187.72000217437744	pulse	0	t		38.0	2.5	/experiments/Knapen_AOT/AOT_stimuli/rescaled_final/1553_fw.mp4	0.0	205.04970455169678	
40	188.54477262496948	movie	1		286	38.0	2.5	/experiments/Knapen_AOT/AOT_stimuli/rescaled_final/1553_fw.mp4	0.0	205.87447500228882	2.492016315460205
40	189.31820940971375	pulse	1	t		38.0	2.5	/experiments/Knapen_AOT/AOT_stimuli/rescaled_final/1553_fw.mp4	0.0	206.64791178703308	
40	190.91842079162598	pulse	1	t		38.0	2.5	/experiments/Knapen_AOT/AOT_stimuli/rescaled_final/1553_fw.mp4	0.0	208.2481231689453	
40	191.0367889404297	fix_post	2		12	38.0	2.5	/experiments/Knapen_AOT/AOT_stimuli/rescaled_final/1553_fw.mp4	0.0	208.36649131774902	0.10004162788391113
41	191.1368305683136	fix_pre	0		120	39.0	2.5	/experiments/Knapen_AOT/AOT_stimuli/rescaled_final/1435_rv.mp4	0.0	208.46653294563293	1.0084576606750488
41	192.14528822898865	movie	1		277	39.0	2.5	/experiments/Knapen_AOT/AOT_stimuli/rescaled_final/1435_rv.mp4	0.0	209.47499060630798	2.492037296295166
41	192.5187132358551	pulse	1	t		39.0	2.5	/experiments/Knapen_AOT/AOT_stimuli/rescaled_final/1435_rv.mp4	0.0	209.84841561317444	
41	194.11889839172363	pulse	1	t		39.0	2.5	/experiments/Knapen_AOT/AOT_stimuli/rescaled_final/1435_rv.mp4	0.0	211.44860076904297	
41	194.6373255252838	fix_post	2		12	39.0	2.5	/experiments/Knapen_AOT/AOT_stimuli/rescaled_final/1435_rv.mp4	0.0	211.96702790260315	0.10008430480957031
42	194.73740983009338	fix_pre	0		119	40.0	2.5	/experiments/Knapen_AOT/AOT_stimuli/rescaled_final/1508_rv.mp4	0.0	212.06711220741272	1.0002367496490479
42	195.72108364105225	pulse	0	t		40.0	2.5	/experiments/Knapen_AOT/AOT_stimuli/rescaled_final/1508_rv.mp4	0.0	213.05078601837158	
42	195.73764657974243	movie	1		282	40.0	2.5	/experiments/Knapen_AOT/AOT_stimuli/rescaled_final/1508_rv.mp4	0.0	213.06734895706177	2.5002734661102295
42	197.31990671157837	pulse	1	t		40.0	2.5	/experiments/Knapen_AOT/AOT_stimuli/rescaled_final/1508_rv.mp4	0.0	214.6496090888977	
42	198.23792004585266	fix_post	2		12	40.0	2.5	/experiments/Knapen_AOT/AOT_stimuli/rescaled_final/1508_rv.mp4	0.0	215.567622423172	0.10001778602600098
43	198.33793783187866	fix_pre	0		120	41.0	2.5	/experiments/Knapen_AOT/AOT_stimuli/rescaled_final/1455_rv.mp4	0.0	215.667640209198	1.0084571838378906
43	198.92151021957397	pulse	0	t		41.0	2.5	/experiments/Knapen_AOT/AOT_stimuli/rescaled_final/1455_rv.mp4	0.0	216.2512125968933	
43	199.34639501571655	movie	1		284	41.0	2.5	/experiments/Knapen_AOT/AOT_stimuli/rescaled_final/1455_rv.mp4	0.0	216.6760973930359	2.492007255554199
43	200.52013874053955	pulse	1	t		41.0	2.5	/experiments/Knapen_AOT/AOT_stimuli/rescaled_final/1455_rv.mp4	0.0	217.8498411178589	
43	201.83840227127075	fix_post	2		12	41.0	2.5	/experiments/Knapen_AOT/AOT_stimuli/rescaled_final/1455_rv.mp4	0.0	219.1681046485901	0.10002565383911133
44	201.93842792510986	fix_pre	0		120	42.0	2.5	blank	1.0	219.2681303024292	1.0001709461212158
44	202.1220452785492	pulse	0	t		42.0	2.5	blank	1.0	219.45174765586853	
44	202.93859887123108	movie	1		300	42.0	2.5	blank	1.0	220.26830124855042	2.500363349914551
44	203.7222764492035	pulse	1	t		42.0	2.5	blank	1.0	221.05197882652283	
44	205.32255053520203	pulse	1	t		42.0	2.5	blank	1.0	222.65225291252136	
44	205.43896222114563	fix_post	2		12	42.0	2.5	blank	1.0	222.76866459846497	0.1000525951385498
45	205.53901481628418	fix_pre	0		120	43.0	2.5	/experiments/Knapen_AOT/AOT_stimuli/rescaled_final/1709_rv.mp4	0.0	222.86871719360352	1.0084095001220703
45	206.54742431640625	movie	1		274	43.0	2.5	/experiments/Knapen_AOT/AOT_stimuli/rescaled_final/1709_rv.mp4	0.0	223.8771266937256	2.4921491146087646
45	206.92128348350525	pulse	1	t		43.0	2.5	/experiments/Knapen_AOT/AOT_stimuli/rescaled_final/1709_rv.mp4	0.0	224.25098586082458	
45	208.52094268798828	pulse	1	t		43.0	2.5	/experiments/Knapen_AOT/AOT_stimuli/rescaled_final/1709_rv.mp4	0.0	225.85064506530762	
45	209.03957343101501	fix_post	2		12	43.0	2.5	/experiments/Knapen_AOT/AOT_stimuli/rescaled_final/1709_rv.mp4	0.0	226.36927580833435	0.09995412826538086
46	209.1395275592804	fix_pre	0		119	44.0	2.5	/experiments/Knapen_AOT/AOT_stimuli/rescaled_final/1373_fw.mp4	0.0	226.46922993659973	1.0002813339233398
46	210.12336325645447	pulse	0	t		44.0	2.5	/experiments/Knapen_AOT/AOT_stimuli/rescaled_final/1373_fw.mp4	0.0	227.4530656337738	
46	210.13980889320374	movie	1		275	44.0	2.5	/experiments/Knapen_AOT/AOT_stimuli/rescaled_final/1373_fw.mp4	0.0	227.46951127052307	2.500250816345215
46	211.7218255996704	pulse	1	t		44.0	2.5	/experiments/Knapen_AOT/AOT_stimuli/rescaled_final/1373_fw.mp4	0.0	229.05152797698975	
46	212.64005970954895	fix_post	2		12	44.0	2.5	/experiments/Knapen_AOT/AOT_stimuli/rescaled_final/1373_fw.mp4	0.0	229.9697620868683	0.10000824928283691
47	212.7400679588318	fix_pre	0		120	45.0	2.5	/experiments/Knapen_AOT/AOT_stimuli/rescaled_final/0214_rv.mp4	0.0	230.06977033615112	1.0084922313690186
47	213.32380318641663	pulse	0	t		45.0	2.5	/experiments/Knapen_AOT/AOT_stimuli/rescaled_final/0214_rv.mp4	0.0	230.65350556373596	
47	213.7485601902008	movie	1		271	45.0	2.5	/experiments/Knapen_AOT/AOT_stimuli/rescaled_final/0214_rv.mp4	0.0	231.07826256752014	2.5004308223724365
47	214.9224681854248	pulse	1	t		45.0	2.5	/experiments/Knapen_AOT/AOT_stimuli/rescaled_final/0214_rv.mp4	0.0	232.25217056274414	
47	216.24899101257324	fix_post	2		11	45.0	2.5	/experiments/Knapen_AOT/AOT_stimuli/rescaled_final/0214_rv.mp4	0.0	233.57869338989258	0.09173011779785156
48	216.3407211303711	fix_pre	0		120	46.0	2.5	/experiments/Knapen_AOT/AOT_stimuli/rescaled_final/0936_fw.mp4	0.0	233.67042350769043	1.008509635925293
48	216.52416038513184	pulse	0	t		46.0	2.5	/experiments/Knapen_AOT/AOT_stimuli/rescaled_final/0936_fw.mp4	0.0	233.85386276245117	
48	217.3492307662964	movie	1		255	46.0	2.5	/experiments/Knapen_AOT/AOT_stimuli/rescaled_final/0936_fw.mp4	0.0	234.67893314361572	2.4918949604034424
48	218.1228153705597	pulse	1	t		46.0	2.5	/experiments/Knapen_AOT/AOT_stimuli/rescaled_final/0936_fw.mp4	0.0	235.45251774787903	
48	219.72287392616272	pulse	1	t		46.0	2.5	/experiments/Knapen_AOT/AOT_stimuli/rescaled_final/0936_fw.mp4	0.0	237.05257630348206	
48	219.84112572669983	fix_post	2		12	46.0	2.5	/experiments/Knapen_AOT/AOT_stimuli/rescaled_final/0936_fw.mp4	0.0	237.17082810401917	0.10002803802490234
49	219.94115376472473	fix_pre	0		120	47.0	2.5	blank	1.0	237.27085614204407	1.000145435333252
49	220.94129920005798	movie	1		300	47.0	2.5	blank	1.0	238.27100157737732	2.500403881072998
49	221.31701374053955	pulse	1	t		47.0	2.5	blank	1.0	238.6467161178589	
49	222.91703939437866	pulse	1	t		47.0	2.5	blank	1.0	240.246741771698	
49	223.44170308113098	fix_post	2		12	47.0	2.5	blank	1.0	240.77140545845032	0.09999489784240723
50	223.5416979789734	fix_pre	0		118	48.0	2.5	/experiments/Knapen_AOT/AOT_stimuli/rescaled_final/0711_rv.mp4	0.0	240.87140035629272	0.9918074607849121
50	224.5171115398407	pulse	0	t		48.0	2.5	/experiments/Knapen_AOT/AOT_stimuli/rescaled_final/0711_rv.mp4	0.0	241.84681391716003	
50	224.5335054397583	movie	1		280	48.0	2.5	/experiments/Knapen_AOT/AOT_stimuli/rescaled_final/0711_rv.mp4	0.0	241.86320781707764	2.5003790855407715
50	226.1173129081726	pulse	1	t		48.0	2.5	/experiments/Knapen_AOT/AOT_stimuli/rescaled_final/0711_rv.mp4	0.0	243.44701528549194	
50	227.03388452529907	fix_post	2		12	48.0	2.5	/experiments/Knapen_AOT/AOT_stimuli/rescaled_final/0711_rv.mp4	0.0	244.3635869026184	0.10001301765441895
51	227.1338975429535	fix_pre	0		120	49.0	2.5	/experiments/Knapen_AOT/AOT_stimuli/rescaled_final/0309_fw.mp4	0.0	244.46359992027283	1.008542537689209
51	227.71779775619507	pulse	0	t		49.0	2.5	/experiments/Knapen_AOT/AOT_stimuli/rescaled_final/0309_fw.mp4	0.0	245.0475001335144	
51	228.1424400806427	movie	1		288	49.0	2.5	/experiments/Knapen_AOT/AOT_stimuli/rescaled_final/0309_fw.mp4	0.0	245.47214245796204	2.491973400115967
51	229.31780242919922	pulse	1	t		49.0	2.5	/experiments/Knapen_AOT/AOT_stimuli/rescaled_final/0309_fw.mp4	0.0	246.64750480651855	
51	230.63441348075867	fix_post	2		12	49.0	2.5	/experiments/Knapen_AOT/AOT_stimuli/rescaled_final/0309_fw.mp4	0.0	247.964115858078	0.10002994537353516
52	230.7344434261322	fix_pre	0		120	50.0	2.5	/experiments/Knapen_AOT/AOT_stimuli/rescaled_final/1636_fw.mp4	0.0	248.06414580345154	1.0085055828094482
52	230.9181694984436	pulse	0	t		50.0	2.5	/experiments/Knapen_AOT/AOT_stimuli/rescaled_final/1636_fw.mp4	0.0	248.24787187576294	
52	231.74294900894165	movie	1		288	50.0	2.5	/experiments/Knapen_AOT/AOT_stimuli/rescaled_final/1636_fw.mp4	0.0	249.072651386261	2.492013692855835
52	232.51853108406067	pulse	1	t		50.0	2.5	/experiments/Knapen_AOT/AOT_stimuli/rescaled_final/1636_fw.mp4	0.0	249.84823346138	
52	234.11847448349	pulse	1	t		50.0	2.5	/experiments/Knapen_AOT/AOT_stimuli/rescaled_final/1636_fw.mp4	0.0	251.44817686080933	
52	234.23496270179749	fix_post	2		12	50.0	2.5	/experiments/Knapen_AOT/AOT_stimuli/rescaled_final/1636_fw.mp4	0.0	251.56466507911682	0.10003113746643066
53	234.33499383926392	fix_pre	0		120	51.0	2.5	/experiments/Knapen_AOT/AOT_stimuli/rescaled_final/0241_fw.mp4	0.0	251.66469621658325	1.0085186958312988
53	235.34351253509521	movie	1		275	51.0	2.5	/experiments/Knapen_AOT/AOT_stimuli/rescaled_final/0241_fw.mp4	0.0	252.67321491241455	2.492060899734497
53	235.7184784412384	pulse	1	t		51.0	2.5	/experiments/Knapen_AOT/AOT_stimuli/rescaled_final/0241_fw.mp4	0.0	253.04818081855774	
53	237.31791305541992	pulse	1	t		51.0	2.5	/experiments/Knapen_AOT/AOT_stimuli/rescaled_final/0241_fw.mp4	0.0	254.64761543273926	
53	237.8355734348297	fix_post	2		12	51.0	2.5	/experiments/Knapen_AOT/AOT_stimuli/rescaled_final/0241_fw.mp4	0.0	255.16527581214905	0.0999758243560791
54	237.9355492591858	fix_pre	0		119	52.0	2.5	/experiments/Knapen_AOT/AOT_stimuli/rescaled_final/1793_fw.mp4	0.0	255.26525163650513	1.0001039505004883
54	238.91926956176758	pulse	0	t		52.0	2.5	/experiments/Knapen_AOT/AOT_stimuli/rescaled_final/1793_fw.mp4	0.0	256.2489719390869	
54	238.93565320968628	movie	1		284	52.0	2.5	/experiments/Knapen_AOT/AOT_stimuli/rescaled_final/1793_fw.mp4	0.0	256.2653555870056	2.5004072189331055
54	240.51790595054626	pulse	1	t		52.0	2.5	/experiments/Knapen_AOT/AOT_stimuli/rescaled_final/1793_fw.mp4	0.0	257.8476083278656	
54	241.43606042861938	fix_post	2		12	52.0	2.5	/experiments/Knapen_AOT/AOT_stimuli/rescaled_final/1793_fw.mp4	0.0	258.7657628059387	0.10002851486206055
55	241.53608894348145	fix_pre	0		120	53.0	2.5	/experiments/Knapen_AOT/AOT_stimuli/rescaled_final/1740_fw.mp4	0.0	258.8657913208008	1.0084633827209473
55	242.11974692344666	pulse	0	t		53.0	2.5	/experiments/Knapen_AOT/AOT_stimuli/rescaled_final/1740_fw.mp4	0.0	259.449449300766	
55	242.5445523262024	movie	1		278	53.0	2.5	/experiments/Knapen_AOT/AOT_stimuli/rescaled_final/1740_fw.mp4	0.0	259.87425470352173	2.4920549392700195
55	243.71812272071838	pulse	1	t		53.0	2.5	/experiments/Knapen_AOT/AOT_stimuli/rescaled_final/1740_fw.mp4	0.0	261.0478250980377	
55	245.0366072654724	fix_post	2		12	53.0	2.5	/experiments/Knapen_AOT/AOT_stimuli/rescaled_final/1740_fw.mp4	0.0	262.36630964279175	0.10004830360412598
56	245.13665556907654	fix_pre	0		120	54.0	2.5	blank	1.0	262.4663579463959	1.0001018047332764
56	245.32014393806458	pulse	0	t		54.0	2.5	blank	1.0	262.6498463153839	
56	246.13675737380981	movie	1		300	54.0	2.5	blank	1.0	263.46645975112915	2.500361919403076
56	246.92037677764893	pulse	1	t		54.0	2.5	blank	1.0	264.25007915496826	
56	248.5207235813141	pulse	1	t		54.0	2.5	blank	1.0	265.8504259586334	
56	248.6371192932129	fix_post	2		12	54.0	2.5	blank	1.0	265.9668216705322	0.10004043579101562
57	248.7371597290039	fix_pre	0		120	55.0	2.5	/experiments/Knapen_AOT/AOT_stimuli/rescaled_final/1967_rv.mp4	0.0	266.06686210632324	1.0085082054138184
57	249.74566793441772	movie	1		278	55.0	2.5	/experiments/Knapen_AOT/AOT_stimuli/rescaled_final/1967_rv.mp4	0.0	267.07537031173706	2.4920642375946045
57	250.11955904960632	pulse	1	t		55.0	2.5	/experiments/Knapen_AOT/AOT_stimuli/rescaled_final/1967_rv.mp4	0.0	267.44926142692566	
57	251.71904134750366	pulse	1	t		55.0	2.5	/experiments/Knapen_AOT/AOT_stimuli/rescaled_final/1967_rv.mp4	0.0	269.048743724823	
57	252.23773217201233	fix_post	2		12	55.0	2.5	/experiments/Knapen_AOT/AOT_stimuli/rescaled_final/1967_rv.mp4	0.0	269.56743454933167	0.09995365142822266
58	252.33768582344055	fix_pre	0		119	56.0	2.5	/experiments/Knapen_AOT/AOT_stimuli/rescaled_final/0007_rv.mp4	0.0	269.6673882007599	1.000173807144165
58	253.32137441635132	pulse	0	t		56.0	2.5	/experiments/Knapen_AOT/AOT_stimuli/rescaled_final/0007_rv.mp4	0.0	270.65107679367065	
58	253.33785963058472	movie	1		270	56.0	2.5	/experiments/Knapen_AOT/AOT_stimuli/rescaled_final/0007_rv.mp4	0.0	270.66756200790405	2.500349998474121
58	254.92009973526	pulse	1	t		56.0	2.5	/experiments/Knapen_AOT/AOT_stimuli/rescaled_final/0007_rv.mp4	0.0	272.24980211257935	
58	255.83820962905884	fix_post	2		12	56.0	2.5	/experiments/Knapen_AOT/AOT_stimuli/rescaled_final/0007_rv.mp4	0.0	273.1679120063782	0.10001492500305176
59	255.9382245540619	fix_pre	0		120	57.0	2.5	/experiments/Knapen_AOT/AOT_stimuli/rescaled_final/0458_fw.mp4	0.0	273.2679269313812	1.0085079669952393
59	256.52196621894836	pulse	0	t		57.0	2.5	/experiments/Knapen_AOT/AOT_stimuli/rescaled_final/0458_fw.mp4	0.0	273.8516685962677	
59	256.94673252105713	movie	1		279	57.0	2.5	/experiments/Knapen_AOT/AOT_stimuli/rescaled_final/0458_fw.mp4	0.0	274.27643489837646	2.4920191764831543
59	258.12229013442993	pulse	1	t		57.0	2.5	/experiments/Knapen_AOT/AOT_stimuli/rescaled_final/0458_fw.mp4	0.0	275.45199251174927	
59	259.4387516975403	fix_post	2		12	57.0	2.5	/experiments/Knapen_AOT/AOT_stimuli/rescaled_final/0458_fw.mp4	0.0	276.7684540748596	0.10001945495605469
60	259.53877115249634	fix_pre	0		120	58.0	2.5	/experiments/Knapen_AOT/AOT_stimuli/rescaled_final/0443_rv.mp4	0.0	276.8684735298157	1.008504867553711
60	259.72237491607666	pulse	0	t		58.0	2.5	/experiments/Knapen_AOT/AOT_stimuli/rescaled_final/0443_rv.mp4	0.0	277.052077293396	
60	260.54727602005005	movie	1		266	58.0	2.5	/experiments/Knapen_AOT/AOT_stimuli/rescaled_final/0443_rv.mp4	0.0	277.8769783973694	2.4920077323913574
60	261.32063364982605	pulse	1	t		58.0	2.5	/experiments/Knapen_AOT/AOT_stimuli/rescaled_final/0443_rv.mp4	0.0	278.6503360271454	
60	262.92104935646057	pulse	1	t		58.0	2.5	/experiments/Knapen_AOT/AOT_stimuli/rescaled_final/0443_rv.mp4	0.0	280.2507517337799	
60	263.0392837524414	fix_post	2		12	58.0	2.5	/experiments/Knapen_AOT/AOT_stimuli/rescaled_final/0443_rv.mp4	0.0	280.36898612976074	0.10005736351013184
61	263.13934111595154	fix_pre	0		120	59.0	2.5	/experiments/Knapen_AOT/AOT_stimuli/rescaled_final/0007_rv.mp4	0.0	280.4690434932709	1.0085012912750244
61	264.14784240722656	movie	1		269	59.0	2.5	/experiments/Knapen_AOT/AOT_stimuli/rescaled_final/0007_rv.mp4	0.0	281.4775447845459	2.4920120239257812
61	264.5217115879059	pulse	1	t		59.0	2.5	/experiments/Knapen_AOT/AOT_stimuli/rescaled_final/0007_rv.mp4	0.0	281.8514139652252	
61	266.1237072944641	pulse	1	t		59.0	2.5	/experiments/Knapen_AOT/AOT_stimuli/rescaled_final/0007_rv.mp4	0.0	283.45340967178345	
61	266.63985443115234	fix_post	2		12	59.0	2.5	/experiments/Knapen_AOT/AOT_stimuli/rescaled_final/0007_rv.mp4	0.0	283.9695568084717	0.10001206398010254
62	266.73986649513245	fix_pre	0		119	60.0	2.5	/experiments/Knapen_AOT/AOT_stimuli/rescaled_final/0777_rv.mp4	0.0	284.0695688724518	1.0002739429473877
62	267.7237491607666	pulse	0	t		60.0	2.5	/experiments/Knapen_AOT/AOT_stimuli/rescaled_final/0777_rv.mp4	0.0	285.05345153808594	
62	267.74014043807983	movie	1		280	60.0	2.5	/experiments/Knapen_AOT/AOT_stimuli/rescaled_final/0777_rv.mp4	0.0	285.06984281539917	2.500236749649048
62	269.32378697395325	pulse	1	t		60.0	2.5	/experiments/Knapen_AOT/AOT_stimuli/rescaled_final/0777_rv.mp4	0.0	286.6534893512726	
62	270.2403771877289	fix_post	2		12	60.0	2.5	/experiments/Knapen_AOT/AOT_stimuli/rescaled_final/0777_rv.mp4	0.0	287.5700795650482	0.10001111030578613
63	270.34038829803467	fix_pre	0		120	61.0	2.5	/experiments/Knapen_AOT/AOT_stimuli/rescaled_final/1328_fw.mp4	0.0	287.670090675354	1.00850510597229
63	270.92451000213623	pulse	0	t		61.0	2.5	/experiments/Knapen_AOT/AOT_stimuli/rescaled_final/1328_fw.mp4	0.0	288.25421237945557	
63	271.34889340400696	movie	1		279	61.0	2.5	/experiments/Knapen_AOT/AOT_stimuli/rescaled_final/1328_fw.mp4	0.0	288.6785957813263	2.492036819458008
63	272.522584438324	pulse	1	t		61.0	2.5	/experiments/Knapen_AOT/AOT_stimuli/rescaled_final/1328_fw.mp4	0.0	289.8522868156433	
63	273.84093022346497	fix_post	2		12	61.0	2.5	/experiments/Knapen_AOT/AOT_stimuli/rescaled_final/1328_fw.mp4	0.0	291.1706326007843	0.10001683235168457
64	273.94094705581665	fix_pre	0		120	62.0	2.5	blank	1.0	291.270649433136	1.000133991241455
64	274.1164698600769	pulse	0	t		62.0	2.5	blank	1.0	291.44617223739624	
64	274.9410810470581	movie	1		300	62.0	2.5	blank	1.0	292.27078342437744	2.50036358833313
64	275.716406583786	pulse	1	t		62.0	2.5	blank	1.0	293.04610896110535	
64	277.31663393974304	pulse	1	t		62.0	2.5	blank	1.0	294.6463363170624	
64	277.44144463539124	fix_post	2		12	62.0	2.5	blank	1.0	294.77114701271057	0.10001873970031738
65	277.54146337509155	fix_pre	0		120	63.0	2.5	/experiments/Knapen_AOT/AOT_stimuli/rescaled_final/2085_rv.mp4	0.0	294.8711657524109	1.008502721786499
65	278.54996609687805	movie	1		283	63.0	2.5	/experiments/Knapen_AOT/AOT_stimuli/rescaled_final/2085_rv.mp4	0.0	295.8796684741974	2.492135524749756
65	278.91702151298523	pulse	1	t		63.0	2.5	/experiments/Knapen_AOT/AOT_stimuli/rescaled_final/2085_rv.mp4	0.0	296.24672389030457	
65	280.51718616485596	pulse	1	t		63.0	2.5	/experiments/Knapen_AOT/AOT_stimuli/rescaled_final/2085_rv.mp4	0.0	297.8468885421753	
65	281.0421016216278	fix_post	2		12	63.0	2.5	/experiments/Knapen_AOT/AOT_stimuli/rescaled_final/2085_rv.mp4	0.0	298.37180399894714	0.09994316101074219
66	281.14204478263855	fix_pre	0		118	64.0	2.5	/experiments/Knapen_AOT/AOT_stimuli/rescaled_final/0635_fw.mp4	0.0	298.4717471599579	0.9917912483215332
66	282.11746978759766	pulse	0	t		64.0	2.5	/experiments/Knapen_AOT/AOT_stimuli/rescaled_final/0635_fw.mp4	0.0	299.447172164917	
66	282.1338360309601	movie	1		275	64.0	2.5	/experiments/Knapen_AOT/AOT_stimuli/rescaled_final/0635_fw.mp4	0.0	299.4635384082794	2.500361919403076
66	283.7180392742157	pulse	1	t		64.0	2.5	/experiments/Knapen_AOT/AOT_stimuli/rescaled_final/0635_fw.mp4	0.0	301.04774165153503	
66	284.63419795036316	fix_post	2		12	64.0	2.5	/experiments/Knapen_AOT/AOT_stimuli/rescaled_final/0635_fw.mp4	0.0	301.9639003276825	0.10003018379211426
67	284.7342281341553	fix_pre	0		120	65.0	2.5	/experiments/Knapen_AOT/AOT_stimuli/rescaled_final/1903_rv.mp4	0.0	302.0639305114746	1.0085515975952148
67	285.31788301467896	pulse	0	t		65.0	2.5	/experiments/Knapen_AOT/AOT_stimuli/rescaled_final/1903_rv.mp4	0.0	302.6475853919983	
67	285.7427797317505	movie	1		285	65.0	2.5	/experiments/Knapen_AOT/AOT_stimuli/rescaled_final/1903_rv.mp4	0.0	303.0724821090698	2.4920120239257812
67	286.91654109954834	pulse	1	t		65.0	2.5	/experiments/Knapen_AOT/AOT_stimuli/rescaled_final/1903_rv.mp4	0.0	304.2462434768677	
67	288.23479175567627	fix_post	2		12	65.0	2.5	/experiments/Knapen_AOT/AOT_stimuli/rescaled_final/1903_rv.mp4	0.0	305.5644941329956	0.09998202323913574
68	288.3347737789154	fix_pre	0		120	66.0	2.5	/experiments/Knapen_AOT/AOT_stimuli/rescaled_final/0979_rv.mp4	0.0	305.66447615623474	1.0084733963012695
68	288.51834869384766	pulse	0	t		66.0	2.5	/experiments/Knapen_AOT/AOT_stimuli/rescaled_final/0979_rv.mp4	0.0	305.848051071167	
68	289.3432471752167	movie	1		276	66.0	2.5	/experiments/Knapen_AOT/AOT_stimuli/rescaled_final/0979_rv.mp4	0.0	306.672949552536	2.49204421043396
68	290.1165409088135	pulse	1	t		66.0	2.5	/experiments/Knapen_AOT/AOT_stimuli/rescaled_final/0979_rv.mp4	0.0	307.4462432861328	
68	291.71660447120667	pulse	1	t		66.0	2.5	/experiments/Knapen_AOT/AOT_stimuli/rescaled_final/0979_rv.mp4	0.0	309.046306848526	
68	291.83529138565063	fix_post	2		12	66.0	2.5	/experiments/Knapen_AOT/AOT_stimuli/rescaled_final/0979_rv.mp4	0.0	309.16499376296997	0.10007262229919434
69	291.93536400794983	fix_pre	0		120	67.0	2.5	/experiments/Knapen_AOT/AOT_stimuli/rescaled_final/2024_fw.mp4	0.0	309.26506638526917	1.0084807872772217
69	292.94384479522705	movie	1		283	67.0	2.5	/experiments/Knapen_AOT/AOT_stimuli/rescaled_final/2024_fw.mp4	0.0	310.2735471725464	2.492001533508301
69	293.3174080848694	pulse	1	t		67.0	2.5	/experiments/Knapen_AOT/AOT_stimuli/rescaled_final/2024_fw.mp4	0.0	310.6471104621887	
69	294.9175651073456	pulse	1	t		67.0	2.5	/experiments/Knapen_AOT/AOT_stimuli/rescaled_final/2024_fw.mp4	0.0	312.2472674846649	
69	295.43584632873535	fix_post	2		12	67.0	2.5	/experiments/Knapen_AOT/AOT_stimuli/rescaled_final/2024_fw.mp4	0.0	312.7655487060547	0.1000068187713623
70	295.5358531475067	fix_pre	0		119	68.0	2.5	/experiments/Knapen_AOT/AOT_stimuli/rescaled_final/1956_fw.mp4	0.0	312.86555552482605	1.0001475811004639
70	296.51985931396484	pulse	0	t		68.0	2.5	/experiments/Knapen_AOT/AOT_stimuli/rescaled_final/1956_fw.mp4	0.0	313.8495616912842	
70	296.5360007286072	movie	1		286	68.0	2.5	/experiments/Knapen_AOT/AOT_stimuli/rescaled_final/1956_fw.mp4	0.0	313.8657031059265	2.5004007816314697
70	298.1183371543884	pulse	1	t		68.0	2.5	/experiments/Knapen_AOT/AOT_stimuli/rescaled_final/1956_fw.mp4	0.0	315.44803953170776	
70	299.03640151023865	fix_post	2		12	68.0	2.5	/experiments/Knapen_AOT/AOT_stimuli/rescaled_final/1956_fw.mp4	0.0	316.366103887558	0.10007071495056152
71	299.1364722251892	fix_pre	0		120	69.0	2.5	/experiments/Knapen_AOT/AOT_stimuli/rescaled_final/0926_fw.mp4	0.0	316.46617460250854	1.0084583759307861
71	299.72001600265503	pulse	0	t		69.0	2.5	/experiments/Knapen_AOT/AOT_stimuli/rescaled_final/0926_fw.mp4	0.0	317.04971837997437	
71	300.14493060112	movie	1		285	69.0	2.5	/experiments/Knapen_AOT/AOT_stimuli/rescaled_final/0926_fw.mp4	0.0	317.47463297843933	2.491990089416504
71	301.3186728954315	pulse	1	t		69.0	2.5	/experiments/Knapen_AOT/AOT_stimuli/rescaled_final/0926_fw.mp4	0.0	318.64837527275085	
71	302.6369206905365	fix_post	2		12	69.0	2.5	/experiments/Knapen_AOT/AOT_stimuli/rescaled_final/0926_fw.mp4	0.0	319.96662306785583	0.10001754760742188
72	302.7369382381439	fix_pre	0		120	70.0	2.5	blank	1.0	320.06664061546326	1.0001659393310547
72	302.92053842544556	pulse	0	t		70.0	2.5	blank	1.0	320.2502408027649	
72	303.737104177475	movie	1		300	70.0	2.5	blank	1.0	321.0668065547943	2.5003793239593506
72	304.5208225250244	pulse	1	t		70.0	2.5	blank	1.0	321.85052490234375	
72	306.1209990978241	pulse	1	t		70.0	2.5	blank	1.0	323.45070147514343	
72	306.2374835014343	fix_post	2		12	70.0	2.5	blank	1.0	323.56718587875366	0.09996724128723145
73	306.33745074272156	fix_pre	0		120	71.0	2.5	/experiments/Knapen_AOT/AOT_stimuli/rescaled_final/1905_fw.mp4	0.0	323.6671531200409	1.0085179805755615
73	307.3459687232971	movie	1		267	71.0	2.5	/experiments/Knapen_AOT/AOT_stimuli/rescaled_final/1905_fw.mp4	0.0	324.67567110061646	2.492030382156372
73	307.72076749801636	pulse	1	t		71.0	2.5	/experiments/Knapen_AOT/AOT_stimuli/rescaled_final/1905_fw.mp4	0.0	325.0504698753357	
73	309.3192536830902	pulse	1	t		71.0	2.5	/experiments/Knapen_AOT/AOT_stimuli/rescaled_final/1905_fw.mp4	0.0	326.64895606040955	
73	309.8379991054535	fix_post	2		12	71.0	2.5	/experiments/Knapen_AOT/AOT_stimuli/rescaled_final/1905_fw.mp4	0.0	327.1677014827728	0.10002565383911133
74	309.9380247592926	fix_pre	0		119	72.0	2.5	/experiments/Knapen_AOT/AOT_stimuli/rescaled_final/0936_rv.mp4	0.0	327.26772713661194	1.0001609325408936
74	310.9217824935913	pulse	0	t		72.0	2.5	/experiments/Knapen_AOT/AOT_stimuli/rescaled_final/0936_rv.mp4	0.0	328.25148487091064	
74	310.9381856918335	movie	1		282	72.0	2.5	/experiments/Knapen_AOT/AOT_stimuli/rescaled_final/0936_rv.mp4	0.0	328.26788806915283	2.5003550052642822
74	312.52042722702026	pulse	1	t		72.0	2.5	/experiments/Knapen_AOT/AOT_stimuli/rescaled_final/0936_rv.mp4	0.0	329.8501296043396	
74	313.4385406970978	fix_post	2		12	72.0	2.5	/experiments/Knapen_AOT/AOT_stimuli/rescaled_final/0936_rv.mp4	0.0	330.7682430744171	0.10001826286315918
75	313.53855895996094	fix_pre	0		120	73.0	2.5	/experiments/Knapen_AOT/AOT_stimuli/rescaled_final/0279_rv.mp4	0.0	330.8682613372803	1.0084834098815918
75	314.12218046188354	pulse	0	t		73.0	2.5	/experiments/Knapen_AOT/AOT_stimuli/rescaled_final/0279_rv.mp4	0.0	331.4518828392029	
75	314.54704236984253	movie	1		277	73.0	2.5	/experiments/Knapen_AOT/AOT_stimuli/rescaled_final/0279_rv.mp4	0.0	331.87674474716187	2.4920408725738525
75	315.72050762176514	pulse	1	t		73.0	2.5	/experiments/Knapen_AOT/AOT_stimuli/rescaled_final/0279_rv.mp4	0.0	333.0502099990845	
75	317.0390832424164	fix_post	2		12	73.0	2.5	/experiments/Knapen_AOT/AOT_stimuli/rescaled_final/0279_rv.mp4	0.0	334.3687856197357	0.1001732349395752
76	317.13925647735596	fix_pre	0		120	74.0	2.5	/experiments/Knapen_AOT/AOT_stimuli/rescaled_final/0676_rv.mp4	0.0	334.4689588546753	1.00834059715271
76	317.3228154182434	pulse	0	t		74.0	2.5	/experiments/Knapen_AOT/AOT_stimuli/rescaled_final/0676_rv.mp4	0.0	334.65251779556274	
76	318.14759707450867	movie	1		273	74.0	2.5	/experiments/Knapen_AOT/AOT_stimuli/rescaled_final/0676_rv.mp4	0.0	335.477299451828	2.4920804500579834
76	318.9213271141052	pulse	1	t		74.0	2.5	/experiments/Knapen_AOT/AOT_stimuli/rescaled_final/0676_rv.mp4	0.0	336.25102949142456	
76	320.5214509963989	pulse	1	t		74.0	2.5	/experiments/Knapen_AOT/AOT_stimuli/rescaled_final/0676_rv.mp4	0.0	337.85115337371826	
76	320.63967752456665	fix_post	2		12	74.0	2.5	/experiments/Knapen_AOT/AOT_stimuli/rescaled_final/0676_rv.mp4	0.0	337.969379901886	0.09998226165771484
77	320.73965978622437	fix_pre	0		120	75.0	2.5	/experiments/Knapen_AOT/AOT_stimuli/rescaled_final/2022_fw.mp4	0.0	338.0693621635437	1.0084905624389648
77	321.74815034866333	movie	1		266	75.0	2.5	/experiments/Knapen_AOT/AOT_stimuli/rescaled_final/2022_fw.mp4	0.0	339.07785272598267	2.492013454437256
77	322.1224057674408	pulse	1	t		75.0	2.5	/experiments/Knapen_AOT/AOT_stimuli/rescaled_final/2022_fw.mp4	0.0	339.45210814476013	
77	323.721764087677	pulse	1	t		75.0	2.5	/experiments/Knapen_AOT/AOT_stimuli/rescaled_final/2022_fw.mp4	0.0	341.05146646499634	
77	324.2401638031006	fix_post	2		12	75.0	2.5	/experiments/Knapen_AOT/AOT_stimuli/rescaled_final/2022_fw.mp4	0.0	341.5698661804199	0.10002374649047852
78	324.34018754959106	fix_pre	0		119	76.0	2.5	/experiments/Knapen_AOT/AOT_stimuli/rescaled_final/1967_fw.mp4	0.0	341.6698899269104	1.0001347064971924
78	325.3238773345947	pulse	0	t		76.0	2.5	/experiments/Knapen_AOT/AOT_stimuli/rescaled_final/1967_fw.mp4	0.0	342.65357971191406	
78	325.34032225608826	movie	1		285	76.0	2.5	/experiments/Knapen_AOT/AOT_stimuli/rescaled_final/1967_fw.mp4	0.0	342.6700246334076	2.500561475753784
78	326.92269682884216	pulse	1	t		76.0	2.5	/experiments/Knapen_AOT/AOT_stimuli/rescaled_final/1967_fw.mp4	0.0	344.2523992061615	
78	327.84088373184204	fix_post	2		12	76.0	2.5	/experiments/Knapen_AOT/AOT_stimuli/rescaled_final/1967_fw.mp4	0.0	345.1705861091614	0.09988522529602051
79	327.94076895713806	fix_pre	0		120	77.0	2.5	blank	1.0	345.2704713344574	1.000115156173706
79	328.5243489742279	pulse	0	t		77.0	2.5	blank	1.0	345.85405135154724	
79	328.94088411331177	movie	1		300	77.0	2.5	blank	1.0	346.2705864906311	2.5003604888916016
79	330.11721539497375	pulse	1	t		77.0	2.5	blank	1.0	347.4469177722931	
79	331.44124460220337	fix_post	2		12	77.0	2.5	blank	1.0	348.7709469795227	0.1000359058380127
80	331.5412805080414	fix_pre	0		120	78.0	2.5	/experiments/Knapen_AOT/AOT_stimuli/rescaled_final/1578_rv.mp4	0.0	348.8709828853607	1.0085103511810303
80	331.71715545654297	pulse	0	t		78.0	2.5	/experiments/Knapen_AOT/AOT_stimuli/rescaled_final/1578_rv.mp4	0.0	349.0468578338623	
80	332.5497908592224	movie	1		286	78.0	2.5	/experiments/Knapen_AOT/AOT_stimuli/rescaled_final/1578_rv.mp4	0.0	349.87949323654175	2.491997241973877
80	333.3169014453888	pulse	1	t		78.0	2.5	/experiments/Knapen_AOT/AOT_stimuli/rescaled_final/1578_rv.mp4	0.0	350.64660382270813	
80	334.9171462059021	pulse	1	t		78.0	2.5	/experiments/Knapen_AOT/AOT_stimuli/rescaled_final/1578_rv.mp4	0.0	352.24684858322144	
80	335.0417881011963	fix_post	2		12	78.0	2.5	/experiments/Knapen_AOT/AOT_stimuli/rescaled_final/1578_rv.mp4	0.0	352.3714904785156	0.10004067420959473
81	335.1418287754059	fix_pre	0		120	79.0	2.5	/experiments/Knapen_AOT/AOT_stimuli/rescaled_final/0176_rv.mp4	0.0	352.4715311527252	1.008488416671753
81	336.15031719207764	movie	1		270	79.0	2.5	/experiments/Knapen_AOT/AOT_stimuli/rescaled_final/0176_rv.mp4	0.0	353.480019569397	2.492126703262329
81	336.5176100730896	pulse	1	t		79.0	2.5	/experiments/Knapen_AOT/AOT_stimuli/rescaled_final/0176_rv.mp4	0.0	353.84731245040894	
81	338.1174943447113	pulse	1	t		79.0	2.5	/experiments/Knapen_AOT/AOT_stimuli/rescaled_final/0176_rv.mp4	0.0	355.44719672203064	
81	338.64244389533997	fix_post	2		12	79.0	2.5	/experiments/Knapen_AOT/AOT_stimuli/rescaled_final/0176_rv.mp4	0.0	355.9721462726593	0.09992098808288574
82	338.74236488342285	fix_pre	0		118	80.0	2.5	/experiments/Knapen_AOT/AOT_stimuli/rescaled_final/1423_fw.mp4	0.0	356.0720672607422	0.9918303489685059
82	339.7178690433502	pulse	0	t		80.0	2.5	/experiments/Knapen_AOT/AOT_stimuli/rescaled_final/1423_fw.mp4	0.0	357.04757142066956	
82	339.73419523239136	movie	1		288	80.0	2.5	/experiments/Knapen_AOT/AOT_stimuli/rescaled_final/1423_fw.mp4	0.0	357.0638976097107	2.5003745555877686
82	341.3183376789093	pulse	1	t		80.0	2.5	/experiments/Knapen_AOT/AOT_stimuli/rescaled_final/1423_fw.mp4	0.0	358.64804005622864	
82	342.2345697879791	fix_post	2		12	80.0	2.5	/experiments/Knapen_AOT/AOT_stimuli/rescaled_final/1423_fw.mp4	0.0	359.56427216529846	0.09998941421508789
83	342.3345592021942	fix_pre	0		120	81.0	2.5	/experiments/Knapen_AOT/AOT_stimuli/rescaled_final/1879_fw.mp4	0.0	359.66426157951355	1.0084905624389648
83	342.91829800605774	pulse	0	t		81.0	2.5	/experiments/Knapen_AOT/AOT_stimuli/rescaled_final/1879_fw.mp4	0.0	360.2480003833771	
83	343.3430497646332	movie	1		281	81.0	2.5	/experiments/Knapen_AOT/AOT_stimuli/rescaled_final/1879_fw.mp4	0.0	360.6727521419525	2.4920356273651123
83	344.51682353019714	pulse	1	t		81.0	2.5	/experiments/Knapen_AOT/AOT_stimuli/rescaled_final/1879_fw.mp4	0.0	361.8465259075165	
83	345.8350853919983	fix_post	2		12	81.0	2.5	/experiments/Knapen_AOT/AOT_stimuli/rescaled_final/1879_fw.mp4	0.0	363.1647877693176	0.10006523132324219
84	345.93515062332153	fix_pre	0		120	82.0	2.5	/experiments/Knapen_AOT/AOT_stimuli/rescaled_final/0769_rv.mp4	0.0	363.26485300064087	1.0084319114685059
84	346.11880898475647	pulse	0	t		82.0	2.5	/experiments/Knapen_AOT/AOT_stimuli/rescaled_final/0769_rv.mp4	0.0	363.4485113620758	
84	346.94358253479004	movie	1		267	82.0	2.5	/experiments/Knapen_AOT/AOT_stimuli/rescaled_final/0769_rv.mp4	0.0	364.2732849121094	2.4920804500579834
84	347.7176368236542	pulse	1	t		82.0	2.5	/experiments/Knapen_AOT/AOT_stimuli/rescaled_final/0769_rv.mp4	0.0	365.0473392009735	
84	349.3188593387604	pulse	1	t		82.0	2.5	/experiments/Knapen_AOT/AOT_stimuli/rescaled_final/0769_rv.mp4	0.0	366.6485617160797	
84	349.435662984848	fix_post	2		12	82.0	2.5	/experiments/Knapen_AOT/AOT_stimuli/rescaled_final/0769_rv.mp4	0.0	366.76536536216736	0.09996533393859863
85	349.5356283187866	fix_pre	0		120	83.0	2.5	blank	1.0	366.86533069610596	1.0002248287200928
85	350.5358531475067	movie	1		300	83.0	2.5	blank	1.0	367.86555552482605	2.5003914833068848
85	350.9194703102112	pulse	1	t		83.0	2.5	blank	1.0	368.2491726875305	
85	352.51965737342834	pulse	1	t		83.0	2.5	blank	1.0	369.8493597507477	
85	353.0362446308136	fix_post	2		12	83.0	2.5	blank	1.0	370.36594700813293	0.12496781349182129
87	353.1612124443054	stim	0		1712					370.49091482162476	14.268834829330444
87	354.1199724674225	pulse	0	t						371.4496748447418	
87	355.7203323841095	pulse	0	t						373.05003476142883	
87	357.32033014297485	pulse	0	t						374.6500325202942	
87	358.92062520980835	pulse	0	t						376.2503275871277	
87	360.5209062099457	pulse	0	t						377.850608587265	
87	362.1211037635803	pulse	0	t						379.45080614089966	
87	363.72136759757996	pulse	0	t						381.0510699748993	
87	365.3215515613556	pulse	0	t						382.6512539386749	
87	366.9217994213104	pulse	0	t						384.25150179862976	
