trial_nr	onset	event_type	phase	response	nr_frames	movie_index	movie_duration	movie_file	blank	onset_abs	duration
0	0.157958984375	stim	0		17					19.791206121444702	0.14194798469543457
0	0.28479790687561035	response	0	space						19.918045043945312	
1	0.29990696907043457	stim	0		5143					19.933154106140137	42.85807394981384
1	43.15324783325195	pulse	0	t						62.786494970321655	
1	43.15798091888428	stim	1		1717					62.79122805595398	14.308223009109497
1	44.74996995925903	pulse	1	t						64.38321709632874	
1	46.349777936935425	pulse	1	t						65.98302507400513	
1	47.949795961380005	pulse	1	t						67.5830430984497	
1	49.54981303215027	pulse	1	t						69.18306016921997	
1	51.14979100227356	pulse	1	t						70.78303813934326	
1	52.74975299835205	pulse	1	t						72.38300013542175	
1	54.3497269153595	pulse	1	t						73.9829740524292	
1	55.94980788230896	pulse	1	t						75.58305501937866	
2	57.466203927993774	fix_pre	0		11	0.0	2.5	/experiments/AOT/AOT_stimuli/rescaled_final/0470_fw.mp4	0.0	77.09945106506348	0.09176802635192871
2	57.54971885681152	pulse	0	t		0.0	2.5	/experiments/AOT/AOT_stimuli/rescaled_final/0470_fw.mp4	0.0	77.18296599388123	
2	57.5579719543457	movie	1		245	0.0	2.5	/experiments/AOT/AOT_stimuli/rescaled_final/0470_fw.mp4	0.0	77.1912190914154	2.507828950881958
2	59.1492760181427	pulse	1	t		0.0	2.5	/experiments/AOT/AOT_stimuli/rescaled_final/0470_fw.mp4	0.0	78.7825231552124	
2	60.06580090522766	fix_post	2		12	0.0	2.5	/experiments/AOT/AOT_stimuli/rescaled_final/0470_fw.mp4	0.0	79.69904804229736	0.0999610424041748
3	60.165761947631836	fix_pre	0		120	1.0	2.5	/experiments/AOT/AOT_stimuli/rescaled_final/1220_fw.mp4	0.0	79.79900908470154	1.000020980834961
3	60.74978995323181	pulse	0	t		1.0	2.5	/experiments/AOT/AOT_stimuli/rescaled_final/1220_fw.mp4	0.0	80.38303709030151	
3	61.1657829284668	movie	1		245	1.0	2.5	/experiments/AOT/AOT_stimuli/rescaled_final/1220_fw.mp4	0.0	80.7990300655365	2.4999589920043945
3	62.34978199005127	pulse	1	t		1.0	2.5	/experiments/AOT/AOT_stimuli/rescaled_final/1220_fw.mp4	0.0	81.98302912712097	
3	63.66574192047119	fix_post	2		12	1.0	2.5	/experiments/AOT/AOT_stimuli/rescaled_final/1220_fw.mp4	0.0	83.2989890575409	0.10047698020935059
4	63.76621890068054	fix_pre	0		120	2.0	2.5	/experiments/AOT/AOT_stimuli/rescaled_final/0651_rv.mp4	0.0	83.39946603775024	1.000049114227295
4	63.94967603683472	pulse	0	t		2.0	2.5	/experiments/AOT/AOT_stimuli/rescaled_final/0651_rv.mp4	0.0	83.58292317390442	
4	64.76626801490784	movie	1		244	2.0	2.5	/experiments/AOT/AOT_stimuli/rescaled_final/0651_rv.mp4	0.0	84.39951515197754	2.4995198249816895
4	65.54970002174377	pulse	1	t		2.0	2.5	/experiments/AOT/AOT_stimuli/rescaled_final/0651_rv.mp4	0.0	85.18294715881348	
4	67.148020029068	pulse	1	t		2.0	2.5	/experiments/AOT/AOT_stimuli/rescaled_final/0651_rv.mp4	0.0	86.7812671661377	
4	67.26578783988953	fix_post	2		12	2.0	2.5	/experiments/AOT/AOT_stimuli/rescaled_final/0651_rv.mp4	0.0	86.89903497695923	0.10036396980285645
5	67.36615180969238	fix_pre	0		120	3.0	2.5	/experiments/AOT/AOT_stimuli/rescaled_final/0982_fw.mp4	0.0	86.99939894676208	1.0000131130218506
5	68.36616492271423	movie	1		242	3.0	2.5	/experiments/AOT/AOT_stimuli/rescaled_final/0982_fw.mp4	0.0	87.99941205978394	2.500016927719116
5	68.74915194511414	pulse	1	t		3.0	2.5	/experiments/AOT/AOT_stimuli/rescaled_final/0982_fw.mp4	0.0	88.38239908218384	
5	70.34973287582397	pulse	1	t		3.0	2.5	/experiments/AOT/AOT_stimuli/rescaled_final/0982_fw.mp4	0.0	89.98298001289368	
5	70.86618185043335	fix_post	2		12	3.0	2.5	/experiments/AOT/AOT_stimuli/rescaled_final/0982_fw.mp4	0.0	90.49942898750305	0.09995818138122559
6	70.96614003181458	fix_pre	0		119	4.0	2.5	/experiments/AOT/AOT_stimuli/rescaled_final/1879_rv.mp4	0.0	90.59938716888428	0.9917178153991699
6	71.94974184036255	pulse	0	t		4.0	2.5	/experiments/AOT/AOT_stimuli/rescaled_final/1879_rv.mp4	0.0	91.58298897743225	
6	71.95785784721375	movie	1		247	4.0	2.5	/experiments/AOT/AOT_stimuli/rescaled_final/1879_rv.mp4	0.0	91.59110498428345	2.5078530311584473
6	73.54895281791687	pulse	1	t		4.0	2.5	/experiments/AOT/AOT_stimuli/rescaled_final/1879_rv.mp4	0.0	93.18219995498657	
6	74.46571087837219	fix_post	2		12	4.0	2.5	/experiments/AOT/AOT_stimuli/rescaled_final/1879_rv.mp4	0.0	94.0989580154419	0.10046601295471191
7	74.5661768913269	fix_pre	0		120	5.0	2.5	/experiments/AOT/AOT_stimuli/rescaled_final/1577_rv.mp4	0.0	94.1994240283966	0.999751091003418
7	75.14923691749573	pulse	0	t		5.0	2.5	/experiments/AOT/AOT_stimuli/rescaled_final/1577_rv.mp4	0.0	94.78248405456543	
7	75.56592798233032	movie	1		243	5.0	2.5	/experiments/AOT/AOT_stimuli/rescaled_final/1577_rv.mp4	0.0	95.19917511940002	2.5002238750457764
7	76.74990582466125	pulse	1	t		5.0	2.5	/experiments/AOT/AOT_stimuli/rescaled_final/1577_rv.mp4	0.0	96.38315296173096	
7	78.0661518573761	fix_post	2		12	5.0	2.5	/experiments/AOT/AOT_stimuli/rescaled_final/1577_rv.mp4	0.0	97.6993989944458	0.1000370979309082
8	78.166188955307	fix_pre	0		120	6.0	2.5	blank	1.0	97.79943609237671	0.9999799728393555
8	78.3496208190918	pulse	0	t		6.0	2.5	blank	1.0	97.9828679561615	
8	79.16616892814636	movie	1		300	6.0	2.5	blank	1.0	98.79941606521606	2.4999780654907227
8	79.94961380958557	pulse	1	t		6.0	2.5	blank	1.0	99.58286094665527	
8	81.54958081245422	pulse	1	t		6.0	2.5	blank	1.0	101.18282794952393	
8	81.66614699363708	fix_post	2		12	6.0	2.5	blank	1.0	101.29939413070679	0.10013699531555176
9	81.76628398895264	fix_pre	0		120	7.0	2.5	/experiments/AOT/AOT_stimuli/rescaled_final/1226_fw.mp4	0.0	101.39953112602234	0.9998090267181396
9	82.76609301567078	movie	1		246	7.0	2.5	/experiments/AOT/AOT_stimuli/rescaled_final/1226_fw.mp4	0.0	102.39934015274048	2.4999887943267822
9	83.14894986152649	pulse	1	t		7.0	2.5	/experiments/AOT/AOT_stimuli/rescaled_final/1226_fw.mp4	0.0	102.78219699859619	
9	84.74965691566467	pulse	1	t		7.0	2.5	/experiments/AOT/AOT_stimuli/rescaled_final/1226_fw.mp4	0.0	104.38290405273438	
9	85.26608180999756	fix_post	2		12	7.0	2.5	/experiments/AOT/AOT_stimuli/rescaled_final/1226_fw.mp4	0.0	104.89932894706726	0.09960103034973145
10	85.36568284034729	fix_pre	0		119	8.0	2.5	/experiments/AOT/AOT_stimuli/rescaled_final/0362_fw.mp4	0.0	104.99892997741699	0.9920730590820312
10	86.34957981109619	pulse	0	t		8.0	2.5	/experiments/AOT/AOT_stimuli/rescaled_final/0362_fw.mp4	0.0	105.9828269481659	
10	86.35775589942932	movie	1		246	8.0	2.5	/experiments/AOT/AOT_stimuli/rescaled_final/0362_fw.mp4	0.0	105.99100303649902	2.5083301067352295
10	87.94895386695862	pulse	1	t		8.0	2.5	/experiments/AOT/AOT_stimuli/rescaled_final/0362_fw.mp4	0.0	107.58220100402832	
10	88.86608600616455	fix_post	2		12	8.0	2.5	/experiments/AOT/AOT_stimuli/rescaled_final/0362_fw.mp4	0.0	108.49933314323425	0.09997296333312988
11	88.96605896949768	fix_pre	0		120	9.0	2.5	/experiments/AOT/AOT_stimuli/rescaled_final/1912_fw.mp4	0.0	108.59930610656738	0.9995949268341064
11	89.54952883720398	pulse	0	t		9.0	2.5	/experiments/AOT/AOT_stimuli/rescaled_final/1912_fw.mp4	0.0	109.18277597427368	
11	89.96565389633179	movie	1		246	9.0	2.5	/experiments/AOT/AOT_stimuli/rescaled_final/1912_fw.mp4	0.0	109.59890103340149	2.500391960144043
11	91.14960598945618	pulse	1	t		9.0	2.5	/experiments/AOT/AOT_stimuli/rescaled_final/1912_fw.mp4	0.0	110.78285312652588	
11	92.46604585647583	fix_post	2		12	9.0	2.5	/experiments/AOT/AOT_stimuli/rescaled_final/1912_fw.mp4	0.0	112.09929299354553	0.09995508193969727
12	92.56600093841553	fix_pre	0		120	10.0	2.5	/experiments/AOT/AOT_stimuli/rescaled_final/1623_fw.mp4	0.0	112.19924807548523	1.000053882598877
12	92.7495129108429	pulse	0	t		10.0	2.5	/experiments/AOT/AOT_stimuli/rescaled_final/1623_fw.mp4	0.0	112.3827600479126	
12	93.5660548210144	movie	1		243	10.0	2.5	/experiments/AOT/AOT_stimuli/rescaled_final/1623_fw.mp4	0.0	113.1993019580841	2.500181198120117
12	94.34946084022522	pulse	1	t		10.0	2.5	/experiments/AOT/AOT_stimuli/rescaled_final/1623_fw.mp4	0.0	113.98270797729492	
12	95.94788885116577	pulse	1	t		10.0	2.5	/experiments/AOT/AOT_stimuli/rescaled_final/1623_fw.mp4	0.0	115.58113598823547	
12	96.06623601913452	fix_post	2		12	10.0	2.5	/experiments/AOT/AOT_stimuli/rescaled_final/1623_fw.mp4	0.0	115.69948315620422	0.09978699684143066
13	96.16602301597595	fix_pre	0		120	11.0	2.5	/experiments/AOT/AOT_stimuli/rescaled_final/0829_fw.mp4	0.0	115.79927015304565	0.9999568462371826
13	97.16597986221313	movie	1		243	11.0	2.5	/experiments/AOT/AOT_stimuli/rescaled_final/0829_fw.mp4	0.0	116.79922699928284	2.5000030994415283
13	97.54911494255066	pulse	1	t		11.0	2.5	/experiments/AOT/AOT_stimuli/rescaled_final/0829_fw.mp4	0.0	117.18236207962036	
13	99.1494870185852	pulse	1	t		11.0	2.5	/experiments/AOT/AOT_stimuli/rescaled_final/0829_fw.mp4	0.0	118.78273415565491	
13	99.66598296165466	fix_post	2		12	11.0	2.5	/experiments/AOT/AOT_stimuli/rescaled_final/0829_fw.mp4	0.0	119.29923009872437	0.09997701644897461
14	99.76595997810364	fix_pre	0		119	12.0	2.5	blank	1.0	119.39920711517334	0.9916698932647705
14	100.74942994117737	pulse	0	t		12.0	2.5	blank	1.0	120.38267707824707	
14	100.75762987136841	movie	1		301	12.0	2.5	blank	1.0	120.39087700843811	2.507956027984619
14	102.34948182106018	pulse	1	t		12.0	2.5	blank	1.0	121.98272895812988	
14	103.26558589935303	fix_post	2		12	12.0	2.5	blank	1.0	122.89883303642273	0.1003570556640625
15	103.36594295501709	fix_pre	0		120	13.0	2.5	/experiments/AOT/AOT_stimuli/rescaled_final/1485_fw.mp4	0.0	122.99919009208679	1.0000510215759277
15	103.94953989982605	pulse	0	t		13.0	2.5	/experiments/AOT/AOT_stimuli/rescaled_final/1485_fw.mp4	0.0	123.58278703689575	
15	104.36599397659302	movie	1		246	13.0	2.5	/experiments/AOT/AOT_stimuli/rescaled_final/1485_fw.mp4	0.0	123.99924111366272	2.4995110034942627
15	105.54953789710999	pulse	1	t		13.0	2.5	/experiments/AOT/AOT_stimuli/rescaled_final/1485_fw.mp4	0.0	125.18278503417969	
15	106.86550498008728	fix_post	2		12	13.0	2.5	/experiments/AOT/AOT_stimuli/rescaled_final/1485_fw.mp4	0.0	126.49875211715698	0.10048484802246094
16	106.96598982810974	fix_pre	0		120	14.0	2.5	/experiments/AOT/AOT_stimuli/rescaled_final/0042_fw.mp4	0.0	126.59923696517944	0.9999539852142334
16	107.14946603775024	pulse	0	t		14.0	2.5	/experiments/AOT/AOT_stimuli/rescaled_final/0042_fw.mp4	0.0	126.78271317481995	
16	107.96594381332397	movie	1		246	14.0	2.5	/experiments/AOT/AOT_stimuli/rescaled_final/0042_fw.mp4	0.0	127.59919095039368	2.4996161460876465
16	108.74955487251282	pulse	1	t		14.0	2.5	/experiments/AOT/AOT_stimuli/rescaled_final/0042_fw.mp4	0.0	128.38280200958252	
16	110.34913086891174	pulse	1	t		14.0	2.5	/experiments/AOT/AOT_stimuli/rescaled_final/0042_fw.mp4	0.0	129.98237800598145	
16	110.46555995941162	fix_post	2		12	14.0	2.5	/experiments/AOT/AOT_stimuli/rescaled_final/0042_fw.mp4	0.0	130.09880709648132	0.10042595863342285
17	110.56598591804504	fix_pre	0		120	15.0	2.5	/experiments/AOT/AOT_stimuli/rescaled_final/1608_rv.mp4	0.0	130.19923305511475	1.0000851154327393
17	111.56607103347778	movie	1		244	15.0	2.5	/experiments/AOT/AOT_stimuli/rescaled_final/1608_rv.mp4	0.0	131.19931817054749	2.499480962753296
17	111.94912385940552	pulse	1	t		15.0	2.5	/experiments/AOT/AOT_stimuli/rescaled_final/1608_rv.mp4	0.0	131.58237099647522	
17	113.54941892623901	pulse	1	t		15.0	2.5	/experiments/AOT/AOT_stimuli/rescaled_final/1608_rv.mp4	0.0	133.18266606330872	
17	114.06555199623108	fix_post	2		12	15.0	2.5	/experiments/AOT/AOT_stimuli/rescaled_final/1608_rv.mp4	0.0	133.69879913330078	0.10038495063781738
18	114.1659369468689	fix_pre	0		119	16.0	2.5	/experiments/AOT/AOT_stimuli/rescaled_final/0501_rv.mp4	0.0	133.7991840839386	0.9916970729827881
18	115.1494460105896	pulse	0	t		16.0	2.5	/experiments/AOT/AOT_stimuli/rescaled_final/0501_rv.mp4	0.0	134.7826931476593	
18	115.15763401985168	movie	1		244	16.0	2.5	/experiments/AOT/AOT_stimuli/rescaled_final/0501_rv.mp4	0.0	134.7908811569214	2.507830858230591
18	116.74912190437317	pulse	1	t		16.0	2.5	/experiments/AOT/AOT_stimuli/rescaled_final/0501_rv.mp4	0.0	136.38236904144287	
18	117.66546487808228	fix_post	2		12	16.0	2.5	/experiments/AOT/AOT_stimuli/rescaled_final/0501_rv.mp4	0.0	137.29871201515198	0.10049796104431152
19	117.76596283912659	fix_pre	0		120	17.0	2.5	/experiments/AOT/AOT_stimuli/rescaled_final/0190_fw.mp4	0.0	137.3992099761963	0.9999370574951172
19	118.34943795204163	pulse	0	t		17.0	2.5	/experiments/AOT/AOT_stimuli/rescaled_final/0190_fw.mp4	0.0	137.98268508911133	
19	118.7658998966217	movie	1		243	17.0	2.5	/experiments/AOT/AOT_stimuli/rescaled_final/0190_fw.mp4	0.0	138.3991470336914	2.499998092651367
19	119.94948482513428	pulse	1	t		17.0	2.5	/experiments/AOT/AOT_stimuli/rescaled_final/0190_fw.mp4	0.0	139.58273196220398	
19	121.26589798927307	fix_post	2		12	17.0	2.5	/experiments/AOT/AOT_stimuli/rescaled_final/0190_fw.mp4	0.0	140.89914512634277	0.10010790824890137
20	121.36600589752197	fix_pre	0		120	18.0	2.5	/experiments/AOT/AOT_stimuli/rescaled_final/1471_rv.mp4	0.0	140.99925303459167	0.99989914894104
20	121.54936003684998	pulse	0	t		18.0	2.5	/experiments/AOT/AOT_stimuli/rescaled_final/1471_rv.mp4	0.0	141.18260717391968	
20	122.36590504646301	movie	1		243	18.0	2.5	/experiments/AOT/AOT_stimuli/rescaled_final/1471_rv.mp4	0.0	141.99915218353271	2.49955677986145
20	123.14928102493286	pulse	1	t		18.0	2.5	/experiments/AOT/AOT_stimuli/rescaled_final/1471_rv.mp4	0.0	142.78252816200256	
20	124.74788403511047	pulse	1	t		18.0	2.5	/experiments/AOT/AOT_stimuli/rescaled_final/1471_rv.mp4	0.0	144.38113117218018	
20	124.86546182632446	fix_post	2		12	18.0	2.5	/experiments/AOT/AOT_stimuli/rescaled_final/1471_rv.mp4	0.0	144.49870896339417	0.10041117668151855
21	124.96587300300598	fix_pre	0		120	19.0	2.5	/experiments/AOT/AOT_stimuli/rescaled_final/0933_fw.mp4	0.0	144.59912014007568	1.00003981590271
21	125.96591281890869	movie	1		244	19.0	2.5	/experiments/AOT/AOT_stimuli/rescaled_final/0933_fw.mp4	0.0	145.5991599559784	2.499993085861206
21	126.34905791282654	pulse	1	t		19.0	2.5	/experiments/AOT/AOT_stimuli/rescaled_final/0933_fw.mp4	0.0	145.98230504989624	
21	127.94926500320435	pulse	1	t		19.0	2.5	/experiments/AOT/AOT_stimuli/rescaled_final/0933_fw.mp4	0.0	147.58251214027405	
21	128.4659059047699	fix_post	2		12	19.0	2.5	/experiments/AOT/AOT_stimuli/rescaled_final/0933_fw.mp4	0.0	148.0991530418396	0.09995913505554199
22	128.56586503982544	fix_pre	0		119	20.0	2.5	blank	1.0	148.19911217689514	0.9917309284210205
22	129.54893803596497	pulse	0	t		20.0	2.5	blank	1.0	149.18218517303467	
22	129.55759596824646	movie	1		301	20.0	2.5	blank	1.0	149.19084310531616	2.508105993270874
22	131.1494278907776	pulse	1	t		20.0	2.5	blank	1.0	150.7826750278473	
22	132.06570196151733	fix_post	2		12	20.0	2.5	blank	1.0	151.69894909858704	0.09997296333312988
23	132.16567492485046	fix_pre	0		120	21.0	2.5	/experiments/AOT/AOT_stimuli/rescaled_final/0583_fw.mp4	0.0	151.79892206192017	1.0001959800720215
23	132.74919295310974	pulse	0	t		21.0	2.5	/experiments/AOT/AOT_stimuli/rescaled_final/0583_fw.mp4	0.0	152.38244009017944	
23	133.16587090492249	movie	1		243	21.0	2.5	/experiments/AOT/AOT_stimuli/rescaled_final/0583_fw.mp4	0.0	152.7991180419922	2.49993896484375
23	134.3493149280548	pulse	1	t		21.0	2.5	/experiments/AOT/AOT_stimuli/rescaled_final/0583_fw.mp4	0.0	153.9825620651245	
23	135.66580986976624	fix_post	2		12	21.0	2.5	/experiments/AOT/AOT_stimuli/rescaled_final/0583_fw.mp4	0.0	155.29905700683594	0.09964394569396973
24	135.7654538154602	fix_pre	0		120	22.0	2.5	/experiments/AOT/AOT_stimuli/rescaled_final/1577_rv.mp4	0.0	155.3987009525299	1.0003480911254883
24	135.9493489265442	pulse	0	t		22.0	2.5	/experiments/AOT/AOT_stimuli/rescaled_final/1577_rv.mp4	0.0	155.5825960636139	
24	136.7658019065857	movie	1		244	22.0	2.5	/experiments/AOT/AOT_stimuli/rescaled_final/1577_rv.mp4	0.0	156.3990490436554	2.4999520778656006
24	137.5491979122162	pulse	1	t		22.0	2.5	/experiments/AOT/AOT_stimuli/rescaled_final/1577_rv.mp4	0.0	157.1824450492859	
24	139.1474859714508	pulse	1	t		22.0	2.5	/experiments/AOT/AOT_stimuli/rescaled_final/1577_rv.mp4	0.0	158.7807331085205	
24	139.2657539844513	fix_post	2		12	22.0	2.5	/experiments/AOT/AOT_stimuli/rescaled_final/1577_rv.mp4	0.0	158.899001121521	0.1000518798828125
25	139.3658058643341	fix_pre	0		120	23.0	2.5	/experiments/AOT/AOT_stimuli/rescaled_final/1427_fw.mp4	0.0	158.9990530014038	0.999946117401123
25	140.36575198173523	movie	1		247	23.0	2.5	/experiments/AOT/AOT_stimuli/rescaled_final/1427_fw.mp4	0.0	159.99899911880493	2.499621868133545
25	140.74879097938538	pulse	1	t		23.0	2.5	/experiments/AOT/AOT_stimuli/rescaled_final/1427_fw.mp4	0.0	160.38203811645508	
25	142.34920382499695	pulse	1	t		23.0	2.5	/experiments/AOT/AOT_stimuli/rescaled_final/1427_fw.mp4	0.0	161.98245096206665	
25	142.86537384986877	fix_post	2		12	23.0	2.5	/experiments/AOT/AOT_stimuli/rescaled_final/1427_fw.mp4	0.0	162.49862098693848	0.10035300254821777
26	142.965726852417	fix_pre	0		119	24.0	2.5	/experiments/AOT/AOT_stimuli/rescaled_final/0857_fw.mp4	0.0	162.5989739894867	0.9917190074920654
26	143.9492678642273	pulse	0	t		24.0	2.5	/experiments/AOT/AOT_stimuli/rescaled_final/0857_fw.mp4	0.0	163.582515001297	
26	143.95744585990906	movie	1		244	24.0	2.5	/experiments/AOT/AOT_stimuli/rescaled_final/0857_fw.mp4	0.0	163.59069299697876	2.5083260536193848
26	145.54880499839783	pulse	1	t		24.0	2.5	/experiments/AOT/AOT_stimuli/rescaled_final/0857_fw.mp4	0.0	165.18205213546753	
26	146.46577191352844	fix_post	2		12	24.0	2.5	/experiments/AOT/AOT_stimuli/rescaled_final/0857_fw.mp4	0.0	166.09901905059814	0.10000991821289062
27	146.56578183174133	fix_pre	0		120	25.0	2.5	/experiments/AOT/AOT_stimuli/rescaled_final/2157_fw.mp4	0.0	166.19902896881104	0.9999630451202393
27	147.14937686920166	pulse	0	t		25.0	2.5	/experiments/AOT/AOT_stimuli/rescaled_final/2157_fw.mp4	0.0	166.78262400627136	
27	147.56574487686157	movie	1		245	25.0	2.5	/experiments/AOT/AOT_stimuli/rescaled_final/2157_fw.mp4	0.0	167.19899201393127	2.499974012374878
27	148.74931001663208	pulse	1	t		25.0	2.5	/experiments/AOT/AOT_stimuli/rescaled_final/2157_fw.mp4	0.0	168.38255715370178	
27	150.06571888923645	fix_post	2		12	25.0	2.5	/experiments/AOT/AOT_stimuli/rescaled_final/2157_fw.mp4	0.0	169.69896602630615	0.10001611709594727
28	150.1657350063324	fix_pre	0		120	26.0	2.5	/experiments/AOT/AOT_stimuli/rescaled_final/1744_rv.mp4	0.0	169.7989821434021	0.9996039867401123
28	150.34925484657288	pulse	0	t		26.0	2.5	/experiments/AOT/AOT_stimuli/rescaled_final/1744_rv.mp4	0.0	169.98250198364258	
28	151.1653389930725	movie	1		244	26.0	2.5	/experiments/AOT/AOT_stimuli/rescaled_final/1744_rv.mp4	0.0	170.7985861301422	2.5003318786621094
28	151.94921803474426	pulse	1	t		26.0	2.5	/experiments/AOT/AOT_stimuli/rescaled_final/1744_rv.mp4	0.0	171.58246517181396	
28	153.54781889915466	pulse	1	t		26.0	2.5	/experiments/AOT/AOT_stimuli/rescaled_final/1744_rv.mp4	0.0	173.18106603622437	
28	153.66567087173462	fix_post	2		12	26.0	2.5	/experiments/AOT/AOT_stimuli/rescaled_final/1744_rv.mp4	0.0	173.29891800880432	0.10002398490905762
29	153.76569485664368	fix_pre	0		120	27.0	2.5	/experiments/AOT/AOT_stimuli/rescaled_final/1654_rv.mp4	0.0	173.39894199371338	0.9999990463256836
29	154.76569390296936	movie	1		244	27.0	2.5	/experiments/AOT/AOT_stimuli/rescaled_final/1654_rv.mp4	0.0	174.39894104003906	2.5000250339508057
29	155.1493468284607	pulse	1	t		27.0	2.5	/experiments/AOT/AOT_stimuli/rescaled_final/1654_rv.mp4	0.0	174.7825939655304	
29	156.74922800064087	pulse	1	t		27.0	2.5	/experiments/AOT/AOT_stimuli/rescaled_final/1654_rv.mp4	0.0	176.38247513771057	
29	157.26571893692017	fix_post	2		12	27.0	2.5	/experiments/AOT/AOT_stimuli/rescaled_final/1654_rv.mp4	0.0	176.89896607398987	0.09997105598449707
30	157.36568999290466	fix_pre	0		119	28.0	2.5	blank	1.0	176.99893712997437	0.9916739463806152
30	158.34925198554993	pulse	0	t		28.0	2.5	blank	1.0	177.98249912261963	
30	158.35736393928528	movie	1		301	28.0	2.5	blank	1.0	177.99061107635498	2.5083088874816895
30	159.94918203353882	pulse	1	t		28.0	2.5	blank	1.0	179.58242917060852	
30	160.86567282676697	fix_post	2		12	28.0	2.5	blank	1.0	180.49891996383667	0.10004520416259766
31	160.96571803092957	fix_pre	0		120	29.0	2.5	/experiments/AOT/AOT_stimuli/rescaled_final/1025_fw.mp4	0.0	180.59896516799927	0.9995608329772949
31	161.5492160320282	pulse	0	t		29.0	2.5	/experiments/AOT/AOT_stimuli/rescaled_final/1025_fw.mp4	0.0	181.1824631690979	
31	161.96527886390686	movie	1		243	29.0	2.5	/experiments/AOT/AOT_stimuli/rescaled_final/1025_fw.mp4	0.0	181.59852600097656	2.5004329681396484
31	163.14918494224548	pulse	1	t		29.0	2.5	/experiments/AOT/AOT_stimuli/rescaled_final/1025_fw.mp4	0.0	182.78243207931519	
31	164.4657118320465	fix_post	2		12	29.0	2.5	/experiments/AOT/AOT_stimuli/rescaled_final/1025_fw.mp4	0.0	184.0989589691162	0.10000419616699219
32	164.5657160282135	fix_pre	0		120	30.0	2.5	/experiments/AOT/AOT_stimuli/rescaled_final/0445_fw.mp4	0.0	184.1989631652832	0.9999477863311768
32	164.74920082092285	pulse	0	t		30.0	2.5	/experiments/AOT/AOT_stimuli/rescaled_final/0445_fw.mp4	0.0	184.38244795799255	
32	165.56566381454468	movie	1		243	30.0	2.5	/experiments/AOT/AOT_stimuli/rescaled_final/0445_fw.mp4	0.0	185.19891095161438	2.499561071395874
32	166.349112033844	pulse	1	t		30.0	2.5	/experiments/AOT/AOT_stimuli/rescaled_final/0445_fw.mp4	0.0	185.9823591709137	
32	167.94735193252563	pulse	1	t		30.0	2.5	/experiments/AOT/AOT_stimuli/rescaled_final/0445_fw.mp4	0.0	187.58059906959534	
32	168.06522488594055	fix_post	2		12	30.0	2.5	/experiments/AOT/AOT_stimuli/rescaled_final/0445_fw.mp4	0.0	187.69847202301025	0.10042405128479004
33	168.16564893722534	fix_pre	0		120	31.0	2.5	/experiments/AOT/AOT_stimuli/rescaled_final/0196_rv.mp4	0.0	187.79889607429504	1.0000429153442383
33	169.16569185256958	movie	1		243	31.0	2.5	/experiments/AOT/AOT_stimuli/rescaled_final/0196_rv.mp4	0.0	188.79893898963928	2.499936103820801
33	169.54904985427856	pulse	1	t		31.0	2.5	/experiments/AOT/AOT_stimuli/rescaled_final/0196_rv.mp4	0.0	189.18229699134827	
33	171.14919590950012	pulse	1	t		31.0	2.5	/experiments/AOT/AOT_stimuli/rescaled_final/0196_rv.mp4	0.0	190.78244304656982	
33	171.66562795639038	fix_post	2		12	31.0	2.5	/experiments/AOT/AOT_stimuli/rescaled_final/0196_rv.mp4	0.0	191.29887509346008	0.10005998611450195
34	171.76568794250488	fix_pre	0		119	32.0	2.5	/experiments/AOT/AOT_stimuli/rescaled_final/1995_rv.mp4	0.0	191.39893507957458	0.9916319847106934
34	172.74911093711853	pulse	0	t		32.0	2.5	/experiments/AOT/AOT_stimuli/rescaled_final/1995_rv.mp4	0.0	192.38235807418823	
34	172.75731992721558	movie	1		246	32.0	2.5	/experiments/AOT/AOT_stimuli/rescaled_final/1995_rv.mp4	0.0	192.39056706428528	2.508284091949463
34	174.34882593154907	pulse	1	t		32.0	2.5	/experiments/AOT/AOT_stimuli/rescaled_final/1995_rv.mp4	0.0	193.98207306861877	
34	175.26560401916504	fix_post	2		12	32.0	2.5	/experiments/AOT/AOT_stimuli/rescaled_final/1995_rv.mp4	0.0	194.89885115623474	0.09967899322509766
35	175.36528301239014	fix_pre	0		120	33.0	2.5	/experiments/AOT/AOT_stimuli/rescaled_final/0244_fw.mp4	0.0	194.99853014945984	1.0003719329833984
35	175.94911003112793	pulse	0	t		33.0	2.5	/experiments/AOT/AOT_stimuli/rescaled_final/0244_fw.mp4	0.0	195.58235716819763	
35	176.36565494537354	movie	1		244	33.0	2.5	/experiments/AOT/AOT_stimuli/rescaled_final/0244_fw.mp4	0.0	195.99890208244324	2.499922037124634
35	177.54915285110474	pulse	1	t		33.0	2.5	/experiments/AOT/AOT_stimuli/rescaled_final/0244_fw.mp4	0.0	197.18239998817444	
35	178.86557698249817	fix_post	2		12	33.0	2.5	/experiments/AOT/AOT_stimuli/rescaled_final/0244_fw.mp4	0.0	198.49882411956787	0.10001802444458008
36	178.96559500694275	fix_pre	0		120	34.0	2.5	/experiments/AOT/AOT_stimuli/rescaled_final/2061_fw.mp4	0.0	198.59884214401245	1.0000460147857666
36	179.14907002449036	pulse	0	t		34.0	2.5	/experiments/AOT/AOT_stimuli/rescaled_final/2061_fw.mp4	0.0	198.78231716156006	
36	179.96564102172852	movie	1		243	34.0	2.5	/experiments/AOT/AOT_stimuli/rescaled_final/2061_fw.mp4	0.0	199.59888815879822	2.499876022338867
36	180.7490270137787	pulse	1	t		34.0	2.5	/experiments/AOT/AOT_stimuli/rescaled_final/2061_fw.mp4	0.0	200.3822741508484	
36	182.34733700752258	pulse	1	t		34.0	2.5	/experiments/AOT/AOT_stimuli/rescaled_final/2061_fw.mp4	0.0	201.98058414459229	
36	182.46551704406738	fix_post	2		12	34.0	2.5	/experiments/AOT/AOT_stimuli/rescaled_final/2061_fw.mp4	0.0	202.09876418113708	0.10002398490905762
37	182.56554102897644	fix_pre	0		120	35.0	2.5	blank	1.0	202.19878816604614	1.0
37	183.56554102897644	movie	1		300	35.0	2.5	blank	1.0	203.19878816604614	2.4996209144592285
37	183.9490189552307	pulse	1	t		35.0	2.5	blank	1.0	203.58226609230042	
37	185.54903602600098	pulse	1	t		35.0	2.5	blank	1.0	205.18228316307068	
37	186.06516194343567	fix_post	2		12	35.0	2.5	blank	1.0	205.69840908050537	0.10043692588806152
38	186.16559886932373	fix_pre	0		119	36.0	2.5	/experiments/AOT/AOT_stimuli/rescaled_final/1332_fw.mp4	0.0	205.79884600639343	0.99173903465271
38	187.14919090270996	pulse	0	t		36.0	2.5	/experiments/AOT/AOT_stimuli/rescaled_final/1332_fw.mp4	0.0	206.78243803977966	
38	187.15733790397644	movie	1		243	36.0	2.5	/experiments/AOT/AOT_stimuli/rescaled_final/1332_fw.mp4	0.0	206.79058504104614	2.508333921432495
38	188.74894404411316	pulse	1	t		36.0	2.5	/experiments/AOT/AOT_stimuli/rescaled_final/1332_fw.mp4	0.0	208.38219118118286	
38	189.66567182540894	fix_post	2		12	36.0	2.5	/experiments/AOT/AOT_stimuli/rescaled_final/1332_fw.mp4	0.0	209.29891896247864	0.09988021850585938
39	189.7655520439148	fix_pre	0		120	37.0	2.5	/experiments/AOT/AOT_stimuli/rescaled_final/0618_fw.mp4	0.0	209.3987991809845	0.9999909400939941
39	190.3490068912506	pulse	0	t		37.0	2.5	/experiments/AOT/AOT_stimuli/rescaled_final/0618_fw.mp4	0.0	209.9822540283203	
39	190.7655429840088	movie	1		247	37.0	2.5	/experiments/AOT/AOT_stimuli/rescaled_final/0618_fw.mp4	0.0	210.3987901210785	2.5000200271606445
39	191.9490339756012	pulse	1	t		37.0	2.5	/experiments/AOT/AOT_stimuli/rescaled_final/0618_fw.mp4	0.0	211.5822811126709	
39	193.26556301116943	fix_post	2		12	37.0	2.5	/experiments/AOT/AOT_stimuli/rescaled_final/0618_fw.mp4	0.0	212.89881014823914	0.09984898567199707
40	193.36541199684143	fix_pre	0		120	38.0	2.5	/experiments/AOT/AOT_stimuli/rescaled_final/0693_rv.mp4	0.0	212.99865913391113	1.0001649856567383
40	193.54895997047424	pulse	0	t		38.0	2.5	/experiments/AOT/AOT_stimuli/rescaled_final/0693_rv.mp4	0.0	213.18220710754395	
40	194.36557698249817	movie	1		244	38.0	2.5	/experiments/AOT/AOT_stimuli/rescaled_final/0693_rv.mp4	0.0	213.99882411956787	2.499866008758545
40	195.148943901062	pulse	1	t		38.0	2.5	/experiments/AOT/AOT_stimuli/rescaled_final/0693_rv.mp4	0.0	214.7821910381317	
40	196.74755191802979	pulse	1	t		38.0	2.5	/experiments/AOT/AOT_stimuli/rescaled_final/0693_rv.mp4	0.0	216.3807990550995	
40	196.8654429912567	fix_post	2		12	38.0	2.5	/experiments/AOT/AOT_stimuli/rescaled_final/0693_rv.mp4	0.0	216.49869012832642	0.10014605522155762
41	196.96558904647827	fix_pre	0		120	39.0	2.5	/experiments/AOT/AOT_stimuli/rescaled_final/1272_fw.mp4	0.0	216.59883618354797	0.9994988441467285
41	197.965087890625	movie	1		247	39.0	2.5	/experiments/AOT/AOT_stimuli/rescaled_final/1272_fw.mp4	0.0	217.5983350276947	2.500472068786621
41	198.34918403625488	pulse	1	t		39.0	2.5	/experiments/AOT/AOT_stimuli/rescaled_final/1272_fw.mp4	0.0	217.98243117332458	
41	199.94894003868103	pulse	1	t		39.0	2.5	/experiments/AOT/AOT_stimuli/rescaled_final/1272_fw.mp4	0.0	219.58218717575073	
41	200.46555995941162	fix_post	2		12	39.0	2.5	/experiments/AOT/AOT_stimuli/rescaled_final/1272_fw.mp4	0.0	220.09880709648132	0.09986495971679688
42	200.56542491912842	fix_pre	0		119	40.0	2.5	/experiments/AOT/AOT_stimuli/rescaled_final/0460_fw.mp4	0.0	220.19867205619812	0.9916629791259766
42	201.5488679409027	pulse	0	t		40.0	2.5	/experiments/AOT/AOT_stimuli/rescaled_final/0460_fw.mp4	0.0	221.1821150779724	
42	201.5570878982544	movie	1		244	40.0	2.5	/experiments/AOT/AOT_stimuli/rescaled_final/0460_fw.mp4	0.0	221.1903350353241	2.5079290866851807
42	203.14915299415588	pulse	1	t		40.0	2.5	/experiments/AOT/AOT_stimuli/rescaled_final/0460_fw.mp4	0.0	222.7824001312256	
42	204.06501698493958	fix_post	2		12	40.0	2.5	/experiments/AOT/AOT_stimuli/rescaled_final/0460_fw.mp4	0.0	223.69826412200928	0.1004328727722168
43	204.1654498577118	fix_pre	0		120	41.0	2.5	/experiments/AOT/AOT_stimuli/rescaled_final/0783_fw.mp4	0.0	223.7986969947815	0.9999780654907227
43	204.74896788597107	pulse	0	t		41.0	2.5	/experiments/AOT/AOT_stimuli/rescaled_final/0783_fw.mp4	0.0	224.38221502304077	
43	205.16542792320251	movie	1		244	41.0	2.5	/experiments/AOT/AOT_stimuli/rescaled_final/0783_fw.mp4	0.0	224.79867506027222	2.500063896179199
43	206.34899592399597	pulse	1	t		41.0	2.5	/experiments/AOT/AOT_stimuli/rescaled_final/0783_fw.mp4	0.0	225.98224306106567	
43	207.6654918193817	fix_post	2		12	41.0	2.5	/experiments/AOT/AOT_stimuli/rescaled_final/0783_fw.mp4	0.0	227.29873895645142	0.10002017021179199
44	207.7655119895935	fix_pre	0		120	42.0	2.5	blank	1.0	227.3987591266632	0.999891996383667
44	207.94896697998047	pulse	0	t		42.0	2.5	blank	1.0	227.58221411705017	
44	208.76540398597717	movie	1		300	42.0	2.5	blank	1.0	228.39865112304688	2.5000510215759277
44	209.5490119457245	pulse	1	t		42.0	2.5	blank	1.0	229.1822590827942	
44	211.14886283874512	pulse	1	t		42.0	2.5	blank	1.0	230.78210997581482	
44	211.2654550075531	fix_post	2		12	42.0	2.5	blank	1.0	230.8987021446228	0.09996891021728516
45	211.36542391777039	fix_pre	0		120	43.0	2.5	/experiments/AOT/AOT_stimuli/rescaled_final/1062_rv.mp4	0.0	230.9986710548401	0.9999020099639893
45	212.36532592773438	movie	1		247	43.0	2.5	/experiments/AOT/AOT_stimuli/rescaled_final/1062_rv.mp4	0.0	231.99857306480408	2.5000579357147217
45	212.74833703041077	pulse	1	t		43.0	2.5	/experiments/AOT/AOT_stimuli/rescaled_final/1062_rv.mp4	0.0	232.38158416748047	
45	214.34888100624084	pulse	1	t		43.0	2.5	/experiments/AOT/AOT_stimuli/rescaled_final/1062_rv.mp4	0.0	233.98212814331055	
45	214.8653838634491	fix_post	2		12	43.0	2.5	/experiments/AOT/AOT_stimuli/rescaled_final/1062_rv.mp4	0.0	234.4986310005188	0.10002803802490234
46	214.965411901474	fix_pre	0		119	44.0	2.5	/experiments/AOT/AOT_stimuli/rescaled_final/0351_fw.mp4	0.0	234.5986590385437	0.9916200637817383
46	215.9488809108734	pulse	0	t		44.0	2.5	/experiments/AOT/AOT_stimuli/rescaled_final/0351_fw.mp4	0.0	235.58212804794312	
46	215.95703196525574	movie	1		248	44.0	2.5	/experiments/AOT/AOT_stimuli/rescaled_final/0351_fw.mp4	0.0	235.59027910232544	2.508342981338501
46	217.54974603652954	pulse	1	t		44.0	2.5	/experiments/AOT/AOT_stimuli/rescaled_final/0351_fw.mp4	0.0	237.18299317359924	
46	218.46537494659424	fix_post	2		12	44.0	2.5	/experiments/AOT/AOT_stimuli/rescaled_final/0351_fw.mp4	0.0	238.09862208366394	0.09999489784240723
47	218.56536984443665	fix_pre	0		120	45.0	2.5	/experiments/AOT/AOT_stimuli/rescaled_final/0817_rv.mp4	0.0	238.19861698150635	1.0000441074371338
47	219.148854970932	pulse	0	t		45.0	2.5	/experiments/AOT/AOT_stimuli/rescaled_final/0817_rv.mp4	0.0	238.7821021080017	
47	219.56541395187378	movie	1		244	45.0	2.5	/experiments/AOT/AOT_stimuli/rescaled_final/0817_rv.mp4	0.0	239.19866108894348	2.4999680519104004
47	220.7491729259491	pulse	1	t		45.0	2.5	/experiments/AOT/AOT_stimuli/rescaled_final/0817_rv.mp4	0.0	240.3824200630188	
47	222.06538200378418	fix_post	2		12	45.0	2.5	/experiments/AOT/AOT_stimuli/rescaled_final/0817_rv.mp4	0.0	241.69862914085388	0.09993290901184082
48	222.16531491279602	fix_pre	0		120	46.0	2.5	/experiments/AOT/AOT_stimuli/rescaled_final/1429_rv.mp4	0.0	241.79856204986572	1.0000901222229004
48	222.3488368988037	pulse	0	t		46.0	2.5	/experiments/AOT/AOT_stimuli/rescaled_final/1429_rv.mp4	0.0	241.9820840358734	
48	223.16540503501892	movie	1		243	46.0	2.5	/experiments/AOT/AOT_stimuli/rescaled_final/1429_rv.mp4	0.0	242.79865217208862	2.499889850616455
48	223.9488959312439	pulse	1	t		46.0	2.5	/experiments/AOT/AOT_stimuli/rescaled_final/1429_rv.mp4	0.0	243.5821430683136	
48	225.5474100112915	pulse	1	t		46.0	2.5	/experiments/AOT/AOT_stimuli/rescaled_final/1429_rv.mp4	0.0	245.1806571483612	
48	225.66529488563538	fix_post	2		12	46.0	2.5	/experiments/AOT/AOT_stimuli/rescaled_final/1429_rv.mp4	0.0	245.29854202270508	0.10005998611450195
49	225.76535487174988	fix_pre	0		120	47.0	2.5	blank	1.0	245.39860200881958	0.9995131492614746
49	226.76486802101135	movie	1		300	47.0	2.5	blank	1.0	246.39811515808105	2.5004589557647705
49	227.14882493019104	pulse	1	t		47.0	2.5	blank	1.0	246.78207206726074	
49	228.74885201454163	pulse	1	t		47.0	2.5	blank	1.0	248.38209915161133	
49	229.26532697677612	fix_post	2		12	47.0	2.5	blank	1.0	248.89857411384583	0.09992790222167969
50	229.3652548789978	fix_pre	0		119	48.0	2.5	/experiments/AOT/AOT_stimuli/rescaled_final/1226_rv.mp4	0.0	248.9985020160675	0.9917709827423096
50	230.34885597229004	pulse	0	t		48.0	2.5	/experiments/AOT/AOT_stimuli/rescaled_final/1226_rv.mp4	0.0	249.98210310935974	
50	230.3570258617401	movie	1		245	48.0	2.5	/experiments/AOT/AOT_stimuli/rescaled_final/1226_rv.mp4	0.0	249.99027299880981	2.5082249641418457
50	231.9484829902649	pulse	1	t		48.0	2.5	/experiments/AOT/AOT_stimuli/rescaled_final/1226_rv.mp4	0.0	251.5817301273346	
50	232.86525082588196	fix_post	2		12	48.0	2.5	/experiments/AOT/AOT_stimuli/rescaled_final/1226_rv.mp4	0.0	252.49849796295166	0.10001420974731445
51	232.96526503562927	fix_pre	0		120	49.0	2.5	/experiments/AOT/AOT_stimuli/rescaled_final/1865_fw.mp4	0.0	252.59851217269897	1.000025987625122
51	233.54873204231262	pulse	0	t		49.0	2.5	/experiments/AOT/AOT_stimuli/rescaled_final/1865_fw.mp4	0.0	253.18197917938232	
51	233.9652910232544	movie	1		243	49.0	2.5	/experiments/AOT/AOT_stimuli/rescaled_final/1865_fw.mp4	0.0	253.5985381603241	2.4999430179595947
51	235.1488299369812	pulse	1	t		49.0	2.5	/experiments/AOT/AOT_stimuli/rescaled_final/1865_fw.mp4	0.0	254.7820770740509	
51	236.465234041214	fix_post	2		12	49.0	2.5	/experiments/AOT/AOT_stimuli/rescaled_final/1865_fw.mp4	0.0	256.0984811782837	0.10008883476257324
52	236.56532287597656	fix_pre	0		120	50.0	2.5	/experiments/AOT/AOT_stimuli/rescaled_final/1376_rv.mp4	0.0	256.19857001304626	0.9999370574951172
52	236.74872589111328	pulse	0	t		50.0	2.5	/experiments/AOT/AOT_stimuli/rescaled_final/1376_rv.mp4	0.0	256.381973028183	
52	237.56525993347168	movie	1		243	50.0	2.5	/experiments/AOT/AOT_stimuli/rescaled_final/1376_rv.mp4	0.0	257.1985070705414	2.5000059604644775
52	238.34879302978516	pulse	1	t		50.0	2.5	/experiments/AOT/AOT_stimuli/rescaled_final/1376_rv.mp4	0.0	257.98204016685486	
52	239.95722198486328	pulse	1	t		50.0	2.5	/experiments/AOT/AOT_stimuli/rescaled_final/1376_rv.mp4	0.0	259.590469121933	
52	240.06526589393616	fix_post	2		12	50.0	2.5	/experiments/AOT/AOT_stimuli/rescaled_final/1376_rv.mp4	0.0	259.69851303100586	0.09997010231018066
53	240.16523599624634	fix_pre	0		120	51.0	2.5	/experiments/AOT/AOT_stimuli/rescaled_final/0488_fw.mp4	0.0	259.79848313331604	1.0000019073486328
53	241.16523790359497	movie	1		246	51.0	2.5	/experiments/AOT/AOT_stimuli/rescaled_final/0488_fw.mp4	0.0	260.7984850406647	2.5002100467681885
53	241.547935962677	pulse	1	t		51.0	2.5	/experiments/AOT/AOT_stimuli/rescaled_final/0488_fw.mp4	0.0	261.1811830997467	
53	243.14877891540527	pulse	1	t		51.0	2.5	/experiments/AOT/AOT_stimuli/rescaled_final/0488_fw.mp4	0.0	262.782026052475	
53	243.66544795036316	fix_post	2		12	51.0	2.5	/experiments/AOT/AOT_stimuli/rescaled_final/0488_fw.mp4	0.0	263.29869508743286	0.09961700439453125
54	243.7650649547577	fix_pre	0		119	52.0	2.5	/experiments/AOT/AOT_stimuli/rescaled_final/0184_fw.mp4	0.0	263.3983120918274	0.991826057434082
54	244.74872994422913	pulse	0	t		52.0	2.5	/experiments/AOT/AOT_stimuli/rescaled_final/0184_fw.mp4	0.0	264.3819770812988	
54	244.75689101219177	movie	1		245	52.0	2.5	/experiments/AOT/AOT_stimuli/rescaled_final/0184_fw.mp4	0.0	264.3901381492615	2.5079288482666016
54	246.34882187843323	pulse	1	t		52.0	2.5	/experiments/AOT/AOT_stimuli/rescaled_final/0184_fw.mp4	0.0	265.98206901550293	
54	247.26481986045837	fix_post	2		12	52.0	2.5	/experiments/AOT/AOT_stimuli/rescaled_final/0184_fw.mp4	0.0	266.8980669975281	0.10044503211975098
55	247.36526489257812	fix_pre	0		120	53.0	2.5	/experiments/AOT/AOT_stimuli/rescaled_final/0817_fw.mp4	0.0	266.9985120296478	0.9999289512634277
55	247.94870781898499	pulse	0	t		53.0	2.5	/experiments/AOT/AOT_stimuli/rescaled_final/0817_fw.mp4	0.0	267.5819549560547	
55	248.36519384384155	movie	1		245	53.0	2.5	/experiments/AOT/AOT_stimuli/rescaled_final/0817_fw.mp4	0.0	267.99844098091125	2.499986171722412
55	249.5486719608307	pulse	1	t		53.0	2.5	/experiments/AOT/AOT_stimuli/rescaled_final/0817_fw.mp4	0.0	269.1819190979004	
55	250.86518001556396	fix_post	2		12	53.0	2.5	/experiments/AOT/AOT_stimuli/rescaled_final/0817_fw.mp4	0.0	270.49842715263367	0.09999394416809082
56	250.96517395973206	fix_pre	0		120	54.0	2.5	blank	1.0	270.59842109680176	1.0000710487365723
56	251.14867091178894	pulse	0	t		54.0	2.5	blank	1.0	270.78191804885864	
56	251.96524500846863	movie	1		300	54.0	2.5	blank	1.0	271.59849214553833	2.4999148845672607
56	252.74866199493408	pulse	1	t		54.0	2.5	blank	1.0	272.3819091320038	
56	254.34859681129456	pulse	1	t		54.0	2.5	blank	1.0	273.98184394836426	
56	254.4651598930359	fix_post	2		12	54.0	2.5	blank	1.0	274.0984070301056	0.09970498085021973
57	254.5648648738861	fix_pre	0		120	55.0	2.5	/experiments/AOT/AOT_stimuli/rescaled_final/1695_fw.mp4	0.0	274.1981120109558	1.0003681182861328
57	255.56523299217224	movie	1		245	55.0	2.5	/experiments/AOT/AOT_stimuli/rescaled_final/1695_fw.mp4	0.0	275.19848012924194	2.4999818801879883
57	255.94824385643005	pulse	1	t		55.0	2.5	/experiments/AOT/AOT_stimuli/rescaled_final/1695_fw.mp4	0.0	275.58149099349976	
57	257.5485680103302	pulse	1	t		55.0	2.5	/experiments/AOT/AOT_stimuli/rescaled_final/1695_fw.mp4	0.0	277.1818151473999	
57	258.06521487236023	fix_post	2		12	55.0	2.5	/experiments/AOT/AOT_stimuli/rescaled_final/1695_fw.mp4	0.0	277.69846200942993	0.09995913505554199
58	258.16517400741577	fix_pre	0		119	56.0	2.5	/experiments/AOT/AOT_stimuli/rescaled_final/0196_fw.mp4	0.0	277.7984211444855	0.9916589260101318
58	259.14872002601624	pulse	0	t		56.0	2.5	/experiments/AOT/AOT_stimuli/rescaled_final/0196_fw.mp4	0.0	278.78196716308594	
58	259.1568329334259	movie	1		245	56.0	2.5	/experiments/AOT/AOT_stimuli/rescaled_final/0196_fw.mp4	0.0	278.7900800704956	2.5083909034729004
58	260.74855184555054	pulse	1	t		56.0	2.5	/experiments/AOT/AOT_stimuli/rescaled_final/0196_fw.mp4	0.0	280.38179898262024	
58	261.6652238368988	fix_post	2		12	56.0	2.5	/experiments/AOT/AOT_stimuli/rescaled_final/0196_fw.mp4	0.0	281.2984709739685	0.09993720054626465
59	261.76516103744507	fix_pre	0		120	57.0	2.5	/experiments/AOT/AOT_stimuli/rescaled_final/0341_fw.mp4	0.0	281.39840817451477	0.999985933303833
59	262.34876704216003	pulse	0	t		57.0	2.5	/experiments/AOT/AOT_stimuli/rescaled_final/0341_fw.mp4	0.0	281.98201417922974	
59	262.7651469707489	movie	1		245	57.0	2.5	/experiments/AOT/AOT_stimuli/rescaled_final/0341_fw.mp4	0.0	282.3983941078186	2.5000710487365723
59	263.9487190246582	pulse	1	t		57.0	2.5	/experiments/AOT/AOT_stimuli/rescaled_final/0341_fw.mp4	0.0	283.5819661617279	
59	265.2652180194855	fix_post	2		12	57.0	2.5	/experiments/AOT/AOT_stimuli/rescaled_final/0341_fw.mp4	0.0	284.8984651565552	0.0999000072479248
60	265.3651180267334	fix_pre	0		120	58.0	2.5	/experiments/AOT/AOT_stimuli/rescaled_final/1133_fw.mp4	0.0	284.9983651638031	1.0000908374786377
60	265.5486469268799	pulse	0	t		58.0	2.5	/experiments/AOT/AOT_stimuli/rescaled_final/1133_fw.mp4	0.0	285.1818940639496	
60	266.36520886421204	movie	1		245	58.0	2.5	/experiments/AOT/AOT_stimuli/rescaled_final/1133_fw.mp4	0.0	285.99845600128174	2.499962091445923
60	267.1486768722534	pulse	1	t		58.0	2.5	/experiments/AOT/AOT_stimuli/rescaled_final/1133_fw.mp4	0.0	286.7819240093231	
60	268.75722885131836	pulse	1	t		58.0	2.5	/experiments/AOT/AOT_stimuli/rescaled_final/1133_fw.mp4	0.0	288.39047598838806	
60	268.86517095565796	fix_post	2		12	58.0	2.5	/experiments/AOT/AOT_stimuli/rescaled_final/1133_fw.mp4	0.0	288.49841809272766	0.10003304481506348
61	268.965204000473	fix_pre	0		120	59.0	2.5	/experiments/AOT/AOT_stimuli/rescaled_final/0825_fw.mp4	0.0	288.5984511375427	0.9999270439147949
61	269.9651310443878	movie	1		244	59.0	2.5	/experiments/AOT/AOT_stimuli/rescaled_final/0825_fw.mp4	0.0	289.5983781814575	2.5000369548797607
61	270.3483748435974	pulse	1	t		59.0	2.5	/experiments/AOT/AOT_stimuli/rescaled_final/0825_fw.mp4	0.0	289.9816219806671	
61	271.9485960006714	pulse	1	t		59.0	2.5	/experiments/AOT/AOT_stimuli/rescaled_final/0825_fw.mp4	0.0	291.5818431377411	
61	272.4651679992676	fix_post	2		12	59.0	2.5	/experiments/AOT/AOT_stimuli/rescaled_final/0825_fw.mp4	0.0	292.0984151363373	0.09994387626647949
62	272.56511187553406	fix_pre	0		119	60.0	2.5	/experiments/AOT/AOT_stimuli/rescaled_final/1485_fw.mp4	0.0	292.19835901260376	0.9917521476745605
62	273.54862999916077	pulse	0	t		60.0	2.5	/experiments/AOT/AOT_stimuli/rescaled_final/1485_fw.mp4	0.0	293.18187713623047	
62	273.5568640232086	movie	1		245	60.0	2.5	/experiments/AOT/AOT_stimuli/rescaled_final/1485_fw.mp4	0.0	293.1901111602783	2.5082449913024902
62	275.14881682395935	pulse	1	t		60.0	2.5	/experiments/AOT/AOT_stimuli/rescaled_final/1485_fw.mp4	0.0	294.78206396102905	
62	276.0651090145111	fix_post	2		12	60.0	2.5	/experiments/AOT/AOT_stimuli/rescaled_final/1485_fw.mp4	0.0	295.6983561515808	0.09995293617248535
63	276.1650619506836	fix_pre	0		120	61.0	2.5	/experiments/AOT/AOT_stimuli/rescaled_final/1986_fw.mp4	0.0	295.7983090877533	1.0001060962677002
63	276.7486288547516	pulse	0	t		61.0	2.5	/experiments/AOT/AOT_stimuli/rescaled_final/1986_fw.mp4	0.0	296.3818759918213	
63	277.1651680469513	movie	1		244	61.0	2.5	/experiments/AOT/AOT_stimuli/rescaled_final/1986_fw.mp4	0.0	296.798415184021	2.499823808670044
63	278.34866189956665	pulse	1	t		61.0	2.5	/experiments/AOT/AOT_stimuli/rescaled_final/1986_fw.mp4	0.0	297.98190903663635	
63	279.66499185562134	fix_post	2		12	61.0	2.5	/experiments/AOT/AOT_stimuli/rescaled_final/1986_fw.mp4	0.0	299.29823899269104	0.10015106201171875
64	279.76514291763306	fix_pre	0		120	62.0	2.5	blank	1.0	299.39839005470276	1.0000479221343994
64	279.94860100746155	pulse	0	t		62.0	2.5	blank	1.0	299.58184814453125	
64	280.76519083976746	movie	1		300	62.0	2.5	blank	1.0	300.39843797683716	2.49983811378479
64	281.5485818386078	pulse	1	t		62.0	2.5	blank	1.0	301.1818289756775	
64	283.1483910083771	pulse	1	t		62.0	2.5	blank	1.0	302.7816381454468	
64	283.26502895355225	fix_post	2		12	62.0	2.5	blank	1.0	302.89827609062195	0.10003805160522461
65	283.36506700515747	fix_pre	0		120	63.0	2.5	/experiments/AOT/AOT_stimuli/rescaled_final/0020_rv.mp4	0.0	302.9983141422272	1.0000848770141602
65	284.36515188217163	movie	1		244	63.0	2.5	/experiments/AOT/AOT_stimuli/rescaled_final/0020_rv.mp4	0.0	303.99839901924133	2.4999091625213623
65	284.74811697006226	pulse	1	t		63.0	2.5	/experiments/AOT/AOT_stimuli/rescaled_final/0020_rv.mp4	0.0	304.38136410713196	
65	286.3485629558563	pulse	1	t		63.0	2.5	/experiments/AOT/AOT_stimuli/rescaled_final/0020_rv.mp4	0.0	305.981810092926	
65	286.865061044693	fix_post	2		12	63.0	2.5	/experiments/AOT/AOT_stimuli/rescaled_final/0020_rv.mp4	0.0	306.4983081817627	0.0999608039855957
66	286.9650218486786	fix_pre	0		119	64.0	2.5	/experiments/AOT/AOT_stimuli/rescaled_final/2161_rv.mp4	0.0	306.5982689857483	0.9916441440582275
66	287.94841289520264	pulse	0	t		64.0	2.5	/experiments/AOT/AOT_stimuli/rescaled_final/2161_rv.mp4	0.0	307.58166003227234	
66	287.9566659927368	movie	1		245	64.0	2.5	/experiments/AOT/AOT_stimuli/rescaled_final/2161_rv.mp4	0.0	307.5899131298065	2.5083060264587402
66	289.54984402656555	pulse	1	t		64.0	2.5	/experiments/AOT/AOT_stimuli/rescaled_final/2161_rv.mp4	0.0	309.18309116363525	
66	290.46497201919556	fix_post	2		12	64.0	2.5	/experiments/AOT/AOT_stimuli/rescaled_final/2161_rv.mp4	0.0	310.09821915626526	0.09973883628845215
67	290.564710855484	fix_pre	0		120	65.0	2.5	/experiments/AOT/AOT_stimuli/rescaled_final/1724_rv.mp4	0.0	310.1979579925537	1.0003249645233154
67	291.14863181114197	pulse	0	t		65.0	2.5	/experiments/AOT/AOT_stimuli/rescaled_final/1724_rv.mp4	0.0	310.78187894821167	
67	291.5650358200073	movie	1		244	65.0	2.5	/experiments/AOT/AOT_stimuli/rescaled_final/1724_rv.mp4	0.0	311.198282957077	2.500035047531128
67	292.74852204322815	pulse	1	t		65.0	2.5	/experiments/AOT/AOT_stimuli/rescaled_final/1724_rv.mp4	0.0	312.38176918029785	
67	294.06507086753845	fix_post	2		12	65.0	2.5	/experiments/AOT/AOT_stimuli/rescaled_final/1724_rv.mp4	0.0	313.69831800460815	0.09995412826538086
68	294.16502499580383	fix_pre	0		120	66.0	2.5	/experiments/AOT/AOT_stimuli/rescaled_final/0381_rv.mp4	0.0	313.79827213287354	0.9998989105224609
68	294.3486359119415	pulse	0	t		66.0	2.5	/experiments/AOT/AOT_stimuli/rescaled_final/0381_rv.mp4	0.0	313.98188304901123	
68	295.1649239063263	movie	1		246	66.0	2.5	/experiments/AOT/AOT_stimuli/rescaled_final/0381_rv.mp4	0.0	314.798171043396	2.4997000694274902
68	295.9485168457031	pulse	1	t		66.0	2.5	/experiments/AOT/AOT_stimuli/rescaled_final/0381_rv.mp4	0.0	315.5817639827728	
68	297.5480558872223	pulse	1	t		66.0	2.5	/experiments/AOT/AOT_stimuli/rescaled_final/0381_rv.mp4	0.0	317.181303024292	
68	297.6646239757538	fix_post	2		12	66.0	2.5	/experiments/AOT/AOT_stimuli/rescaled_final/0381_rv.mp4	0.0	317.2978711128235	0.09998703002929688
69	297.7646110057831	fix_pre	0		120	67.0	2.5	/experiments/AOT/AOT_stimuli/rescaled_final/0362_rv.mp4	0.0	317.3978581428528	1.000514030456543
69	298.7651250362396	movie	1		244	67.0	2.5	/experiments/AOT/AOT_stimuli/rescaled_final/0362_rv.mp4	0.0	318.3983721733093	2.4999148845672607
69	299.14761996269226	pulse	1	t		67.0	2.5	/experiments/AOT/AOT_stimuli/rescaled_final/0362_rv.mp4	0.0	318.78086709976196	
69	300.74841594696045	pulse	1	t		67.0	2.5	/experiments/AOT/AOT_stimuli/rescaled_final/0362_rv.mp4	0.0	320.38166308403015	
69	301.2650399208069	fix_post	2		12	67.0	2.5	/experiments/AOT/AOT_stimuli/rescaled_final/0362_rv.mp4	0.0	320.8982870578766	0.09993696212768555
70	301.36497688293457	fix_pre	0		119	68.0	2.5	/experiments/AOT/AOT_stimuli/rescaled_final/1834_fw.mp4	0.0	320.9982240200043	0.9916670322418213
70	302.34838581085205	pulse	0	t		68.0	2.5	/experiments/AOT/AOT_stimuli/rescaled_final/1834_fw.mp4	0.0	321.98163294792175	
70	302.3566439151764	movie	1		244	68.0	2.5	/experiments/AOT/AOT_stimuli/rescaled_final/1834_fw.mp4	0.0	321.9898910522461	2.5083110332489014
70	303.94880390167236	pulse	1	t		68.0	2.5	/experiments/AOT/AOT_stimuli/rescaled_final/1834_fw.mp4	0.0	323.58205103874207	
70	304.8649549484253	fix_post	2		12	68.0	2.5	/experiments/AOT/AOT_stimuli/rescaled_final/1834_fw.mp4	0.0	324.498202085495	0.10003304481506348
71	304.96498799324036	fix_pre	0		120	69.0	2.5	/experiments/AOT/AOT_stimuli/rescaled_final/0824_fw.mp4	0.0	324.59823513031006	0.9999339580535889
71	305.5483639240265	pulse	0	t		69.0	2.5	/experiments/AOT/AOT_stimuli/rescaled_final/0824_fw.mp4	0.0	325.1816110610962	
71	305.96492195129395	movie	1		246	69.0	2.5	/experiments/AOT/AOT_stimuli/rescaled_final/0824_fw.mp4	0.0	325.59816908836365	2.4999608993530273
71	307.14849185943604	pulse	1	t		69.0	2.5	/experiments/AOT/AOT_stimuli/rescaled_final/0824_fw.mp4	0.0	326.78173899650574	
71	308.464882850647	fix_post	2		12	69.0	2.5	/experiments/AOT/AOT_stimuli/rescaled_final/0824_fw.mp4	0.0	328.0981299877167	0.10004401206970215
72	308.5649268627167	fix_pre	0		120	70.0	2.5	blank	1.0	328.1981739997864	0.9999620914459229
72	308.74839091300964	pulse	0	t		70.0	2.5	blank	1.0	328.38163805007935	
72	309.5648889541626	movie	1		300	70.0	2.5	blank	1.0	329.1981360912323	2.500019073486328
72	310.34841895103455	pulse	1	t		70.0	2.5	blank	1.0	329.98166608810425	
72	311.94834899902344	pulse	1	t		70.0	2.5	blank	1.0	331.58159613609314	
72	312.0649080276489	fix_post	2		12	70.0	2.5	blank	1.0	331.6981551647186	0.09961295127868652
73	312.1645209789276	fix_pre	0		120	71.0	2.5	/experiments/AOT/AOT_stimuli/rescaled_final/1892_fw.mp4	0.0	331.7977681159973	1.0003299713134766
73	313.1648509502411	movie	1		244	71.0	2.5	/experiments/AOT/AOT_stimuli/rescaled_final/1892_fw.mp4	0.0	332.7980980873108	2.4995789527893066
73	313.5486388206482	pulse	1	t		71.0	2.5	/experiments/AOT/AOT_stimuli/rescaled_final/1892_fw.mp4	0.0	333.1818859577179	
73	315.1482949256897	pulse	1	t		71.0	2.5	/experiments/AOT/AOT_stimuli/rescaled_final/1892_fw.mp4	0.0	334.7815420627594	
73	315.6644299030304	fix_post	2		12	71.0	2.5	/experiments/AOT/AOT_stimuli/rescaled_final/1892_fw.mp4	0.0	335.2976770401001	0.10042214393615723
74	315.76485204696655	fix_pre	0		119	72.0	2.5	/experiments/AOT/AOT_stimuli/rescaled_final/0139_fw.mp4	0.0	335.39809918403625	0.9917099475860596
74	316.7483780384064	pulse	0	t		72.0	2.5	/experiments/AOT/AOT_stimuli/rescaled_final/0139_fw.mp4	0.0	336.3816251754761	
74	316.7565619945526	movie	1		245	72.0	2.5	/experiments/AOT/AOT_stimuli/rescaled_final/0139_fw.mp4	0.0	336.3898091316223	2.5083398818969727
74	318.3478488922119	pulse	1	t		72.0	2.5	/experiments/AOT/AOT_stimuli/rescaled_final/0139_fw.mp4	0.0	337.9810960292816	
74	319.2649018764496	fix_post	2		12	72.0	2.5	/experiments/AOT/AOT_stimuli/rescaled_final/0139_fw.mp4	0.0	338.8981490135193	0.0998680591583252
75	319.3647699356079	fix_pre	0		120	73.0	2.5	/experiments/AOT/AOT_stimuli/rescaled_final/1695_rv.mp4	0.0	338.9980170726776	1.0001389980316162
75	319.9483859539032	pulse	0	t		73.0	2.5	/experiments/AOT/AOT_stimuli/rescaled_final/1695_rv.mp4	0.0	339.5816330909729	
75	320.3649089336395	movie	1		243	73.0	2.5	/experiments/AOT/AOT_stimuli/rescaled_final/1695_rv.mp4	0.0	339.99815607070923	2.499617099761963
75	321.54846692085266	pulse	1	t		73.0	2.5	/experiments/AOT/AOT_stimuli/rescaled_final/1695_rv.mp4	0.0	341.18171405792236	
75	322.8645260334015	fix_post	2		12	73.0	2.5	/experiments/AOT/AOT_stimuli/rescaled_final/1695_rv.mp4	0.0	342.4977731704712	0.10028386116027832
76	322.96480989456177	fix_pre	0		120	74.0	2.5	/experiments/AOT/AOT_stimuli/rescaled_final/1246_rv.mp4	0.0	342.59805703163147	1.000075101852417
76	323.1483008861542	pulse	0	t		74.0	2.5	/experiments/AOT/AOT_stimuli/rescaled_final/1246_rv.mp4	0.0	342.7815480232239	
76	323.9648849964142	movie	1		244	74.0	2.5	/experiments/AOT/AOT_stimuli/rescaled_final/1246_rv.mp4	0.0	343.5981321334839	2.49953293800354
76	324.7483069896698	pulse	1	t		74.0	2.5	/experiments/AOT/AOT_stimuli/rescaled_final/1246_rv.mp4	0.0	344.3815541267395	
76	326.3470628261566	pulse	1	t		74.0	2.5	/experiments/AOT/AOT_stimuli/rescaled_final/1246_rv.mp4	0.0	345.9803099632263	
76	326.4644179344177	fix_post	2		12	74.0	2.5	/experiments/AOT/AOT_stimuli/rescaled_final/1246_rv.mp4	0.0	346.0976650714874	0.10040998458862305
77	326.56482791900635	fix_pre	0		120	75.0	2.5	/experiments/AOT/AOT_stimuli/rescaled_final/2039_rv.mp4	0.0	346.19807505607605	0.9999759197235107
77	327.56480383872986	movie	1		244	75.0	2.5	/experiments/AOT/AOT_stimuli/rescaled_final/2039_rv.mp4	0.0	347.19805097579956	2.499965190887451
77	327.9483230113983	pulse	1	t		75.0	2.5	/experiments/AOT/AOT_stimuli/rescaled_final/2039_rv.mp4	0.0	347.581570148468	
77	329.5483078956604	pulse	1	t		75.0	2.5	/experiments/AOT/AOT_stimuli/rescaled_final/2039_rv.mp4	0.0	349.1815550327301	
77	330.0647690296173	fix_post	2		12	75.0	2.5	/experiments/AOT/AOT_stimuli/rescaled_final/2039_rv.mp4	0.0	349.698016166687	0.10000991821289062
78	330.1647789478302	fix_pre	0		119	76.0	2.5	blank	1.0	349.7980260848999	0.9916620254516602
78	331.148334980011	pulse	0	t		76.0	2.5	blank	1.0	350.7815821170807	
78	331.15644097328186	movie	1		301	76.0	2.5	blank	1.0	350.78968811035156	2.5083909034729004
78	332.7483208179474	pulse	1	t		76.0	2.5	blank	1.0	352.3815679550171	
78	333.66483187675476	fix_post	2		12	76.0	2.5	blank	1.0	353.29807901382446	0.09992003440856934
79	333.76475191116333	fix_pre	0		120	77.0	2.5	/experiments/AOT/AOT_stimuli/rescaled_final/1356_fw.mp4	0.0	353.39799904823303	1.0001270771026611
79	334.3482918739319	pulse	0	t		77.0	2.5	/experiments/AOT/AOT_stimuli/rescaled_final/1356_fw.mp4	0.0	353.9815390110016	
79	334.764878988266	movie	1		243	77.0	2.5	/experiments/AOT/AOT_stimuli/rescaled_final/1356_fw.mp4	0.0	354.3981261253357	2.499992847442627
79	335.94836688041687	pulse	1	t		77.0	2.5	/experiments/AOT/AOT_stimuli/rescaled_final/1356_fw.mp4	0.0	355.5816140174866	
79	337.2648718357086	fix_post	2		12	77.0	2.5	/experiments/AOT/AOT_stimuli/rescaled_final/1356_fw.mp4	0.0	356.8981189727783	0.09990811347961426
80	337.36477994918823	fix_pre	0		120	78.0	2.5	/experiments/AOT/AOT_stimuli/rescaled_final/2101_fw.mp4	0.0	356.99802708625793	1.0000488758087158
80	337.54827404022217	pulse	0	t		78.0	2.5	/experiments/AOT/AOT_stimuli/rescaled_final/2101_fw.mp4	0.0	357.18152117729187	
80	338.36482882499695	movie	1		244	78.0	2.5	/experiments/AOT/AOT_stimuli/rescaled_final/2101_fw.mp4	0.0	357.99807596206665	2.50002121925354
80	339.14829182624817	pulse	1	t		78.0	2.5	/experiments/AOT/AOT_stimuli/rescaled_final/2101_fw.mp4	0.0	358.78153896331787	
80	340.75673484802246	pulse	1	t		78.0	2.5	/experiments/AOT/AOT_stimuli/rescaled_final/2101_fw.mp4	0.0	360.38998198509216	
80	340.8648500442505	fix_post	2		12	78.0	2.5	/experiments/AOT/AOT_stimuli/rescaled_final/2101_fw.mp4	0.0	360.4980971813202	0.09991693496704102
81	340.96476697921753	fix_pre	0		120	79.0	2.5	/experiments/AOT/AOT_stimuli/rescaled_final/0351_rv.mp4	0.0	360.59801411628723	0.9999558925628662
81	341.9647228717804	movie	1		244	79.0	2.5	/experiments/AOT/AOT_stimuli/rescaled_final/0351_rv.mp4	0.0	361.5979700088501	2.499591112136841
81	342.34855604171753	pulse	1	t		79.0	2.5	/experiments/AOT/AOT_stimuli/rescaled_final/0351_rv.mp4	0.0	361.98180317878723	
81	343.94814682006836	pulse	1	t		79.0	2.5	/experiments/AOT/AOT_stimuli/rescaled_final/0351_rv.mp4	0.0	363.58139395713806	
81	344.46431398391724	fix_post	2		12	79.0	2.5	/experiments/AOT/AOT_stimuli/rescaled_final/0351_rv.mp4	0.0	364.09756112098694	0.1004488468170166
82	344.56476283073425	fix_pre	0		119	80.0	2.5	/experiments/AOT/AOT_stimuli/rescaled_final/0123_rv.mp4	0.0	364.19800996780396	0.9916701316833496
82	345.5481798648834	pulse	0	t		80.0	2.5	/experiments/AOT/AOT_stimuli/rescaled_final/0123_rv.mp4	0.0	365.1814270019531	
82	345.5564329624176	movie	1		243	80.0	2.5	/experiments/AOT/AOT_stimuli/rescaled_final/0123_rv.mp4	0.0	365.1896800994873	2.5082788467407227
82	347.1495189666748	pulse	1	t		80.0	2.5	/experiments/AOT/AOT_stimuli/rescaled_final/0123_rv.mp4	0.0	366.7827661037445	
82	348.0647118091583	fix_post	2		12	80.0	2.5	/experiments/AOT/AOT_stimuli/rescaled_final/0123_rv.mp4	0.0	367.697958946228	0.10012102127075195
83	348.1648328304291	fix_pre	0		120	81.0	2.5	/experiments/AOT/AOT_stimuli/rescaled_final/0752_rv.mp4	0.0	367.7980799674988	0.9998750686645508
83	348.74828696250916	pulse	0	t		81.0	2.5	/experiments/AOT/AOT_stimuli/rescaled_final/0752_rv.mp4	0.0	368.38153409957886	
83	349.1647078990936	movie	1		245	81.0	2.5	/experiments/AOT/AOT_stimuli/rescaled_final/0752_rv.mp4	0.0	368.79795503616333	2.4996449947357178
83	350.34837102890015	pulse	1	t		81.0	2.5	/experiments/AOT/AOT_stimuli/rescaled_final/0752_rv.mp4	0.0	369.98161816596985	
83	351.66435289382935	fix_post	2		12	81.0	2.5	/experiments/AOT/AOT_stimuli/rescaled_final/0752_rv.mp4	0.0	371.29760003089905	0.10036993026733398
84	351.7647228240967	fix_pre	0		120	82.0	2.5	/experiments/AOT/AOT_stimuli/rescaled_final/1623_rv.mp4	0.0	371.3979699611664	1.0000360012054443
84	351.94821786880493	pulse	0	t		82.0	2.5	/experiments/AOT/AOT_stimuli/rescaled_final/1623_rv.mp4	0.0	371.58146500587463	
84	352.7647588253021	movie	1		247	82.0	2.5	/experiments/AOT/AOT_stimuli/rescaled_final/1623_rv.mp4	0.0	372.3980059623718	2.4997551441192627
84	353.547739982605	pulse	1	t		82.0	2.5	/experiments/AOT/AOT_stimuli/rescaled_final/1623_rv.mp4	0.0	373.1809871196747	
84	355.14805698394775	pulse	1	t		82.0	2.5	/experiments/AOT/AOT_stimuli/rescaled_final/1623_rv.mp4	0.0	374.78130412101746	
84	355.2645139694214	fix_post	2		12	82.0	2.5	/experiments/AOT/AOT_stimuli/rescaled_final/1623_rv.mp4	0.0	374.8977611064911	0.10001397132873535
85	355.3645279407501	fix_pre	0		120	83.0	2.5	blank	1.0	374.9977750778198	1.0001049041748047
85	356.3646328449249	movie	1		300	83.0	2.5	blank	1.0	375.99787998199463	2.5002691745758057
85	356.7481529712677	pulse	1	t		83.0	2.5	blank	1.0	376.3814001083374	
85	358.3481299877167	pulse	1	t		83.0	2.5	blank	1.0	377.9813771247864	
85	358.86490201950073	fix_post	2		12	83.0	2.5	blank	1.0	378.49814915657043	0.09979486465454102
87	358.9646968841553	stim	0		1716					378.597944021225	14.299968957901001
87	359.94815397262573	pulse	0	t						379.58140110969543	
87	361.54819083213806	pulse	0	t						381.18143796920776	
87	363.1481750011444	pulse	0	t						382.7814221382141	
87	364.7480618953705	pulse	0	t						384.3813090324402	
87	366.3480689525604	pulse	0	t						385.9813160896301	
87	367.9480679035187	pulse	0	t						387.5813150405884	
87	369.54804396629333	pulse	0	t						389.18129110336304	
87	371.1480338573456	pulse	0	t						390.7812809944153	
87	372.7479999065399	pulse	0	t						392.3812470436096	
