trial_nr	onset	event_type	phase	response	nr_frames	movie_index	movie_duration	movie_file	blank	onset_abs	duration
0	0.16655659675598145	stim	0		1					50.888439893722534	0.008289337158203125
0	0.16881990432739258	response	0	space						50.890703201293945	
1	0.17484593391418457	stim	0		4612					50.89672923088074	38.43893766403198
1	38.60580778121948	pulse	0	t						89.32769107818604	
1	38.61378359794617	stim	1		1715					89.33566689491272	14.302268743515015
1	40.205963373184204	pulse	1	t						90.92784667015076	
1	41.80614972114563	pulse	1	t						92.52803301811218	
1	43.40636110305786	pulse	1	t						94.12824440002441	
1	45.006638288497925	pulse	1	t						95.72852158546448	
1	46.60681414604187	pulse	1	t						97.32869744300842	
1	48.207061529159546	pulse	1	t						98.9289448261261	
1	49.80741333961487	pulse	1	t						100.52929663658142	
1	51.407615423202515	pulse	1	t						102.12949872016907	
2	52.91605234146118	fix_pre	0		12	0.0	2.5	/experiments/Knapen_AOT/AOT_stimuli/rescaled_final/1966_fw.mp4	0.0	103.63793563842773	0.11660981178283691
2	53.008084774017334	pulse	0	t		0.0	2.5	/experiments/Knapen_AOT/AOT_stimuli/rescaled_final/1966_fw.mp4	0.0	103.72996807098389	
2	53.03266215324402	movie	1		274	0.0	2.5	/experiments/Knapen_AOT/AOT_stimuli/rescaled_final/1966_fw.mp4	0.0	103.75454545021057	2.491982936859131
2	54.60694098472595	pulse	1	t		0.0	2.5	/experiments/Knapen_AOT/AOT_stimuli/rescaled_final/1966_fw.mp4	0.0	105.3288242816925	
2	55.52464509010315	fix_post	2		12	0.0	2.5	/experiments/Knapen_AOT/AOT_stimuli/rescaled_final/1966_fw.mp4	0.0	106.2465283870697	0.10002541542053223
3	55.62467050552368	fix_pre	0		120	1.0	2.5	/experiments/Knapen_AOT/AOT_stimuli/rescaled_final/1849_rv.mp4	0.0	106.34655380249023	1.0084905624389648
3	56.20834279060364	pulse	0	t		1.0	2.5	/experiments/Knapen_AOT/AOT_stimuli/rescaled_final/1849_rv.mp4	0.0	106.93022608757019	
3	56.63316106796265	movie	1		282	1.0	2.5	/experiments/Knapen_AOT/AOT_stimuli/rescaled_final/1849_rv.mp4	0.0	107.3550443649292	2.4919981956481934
3	57.806751012802124	pulse	1	t		1.0	2.5	/experiments/Knapen_AOT/AOT_stimuli/rescaled_final/1849_rv.mp4	0.0	108.52863430976868	
3	59.12515926361084	fix_post	2		12	1.0	2.5	/experiments/Knapen_AOT/AOT_stimuli/rescaled_final/1849_rv.mp4	0.0	109.84704256057739	0.10004639625549316
4	59.22520565986633	fix_pre	0		120	2.0	2.5	/experiments/Knapen_AOT/AOT_stimuli/rescaled_final/0465_rv.mp4	0.0	109.94708895683289	1.0085163116455078
4	59.408764123916626	pulse	0	t		2.0	2.5	/experiments/Knapen_AOT/AOT_stimuli/rescaled_final/0465_rv.mp4	0.0	110.13064742088318	
4	60.23372197151184	movie	1		278	2.0	2.5	/experiments/Knapen_AOT/AOT_stimuli/rescaled_final/0465_rv.mp4	0.0	110.9556052684784	2.4920127391815186
4	61.00690221786499	pulse	1	t		2.0	2.5	/experiments/Knapen_AOT/AOT_stimuli/rescaled_final/0465_rv.mp4	0.0	111.72878551483154	
4	62.607123136520386	pulse	1	t		2.0	2.5	/experiments/Knapen_AOT/AOT_stimuli/rescaled_final/0465_rv.mp4	0.0	113.32900643348694	
4	62.72573471069336	fix_post	2		12	2.0	2.5	/experiments/Knapen_AOT/AOT_stimuli/rescaled_final/0465_rv.mp4	0.0	113.44761800765991	0.10001397132873535
5	62.825748682022095	fix_pre	0		120	3.0	2.5	/experiments/Knapen_AOT/AOT_stimuli/rescaled_final/0702_rv.mp4	0.0	113.54763197898865	1.0084772109985352
5	63.83422589302063	movie	1		280	3.0	2.5	/experiments/Knapen_AOT/AOT_stimuli/rescaled_final/0702_rv.mp4	0.0	114.55610918998718	2.4920597076416016
5	64.20807027816772	pulse	1	t		3.0	2.5	/experiments/Knapen_AOT/AOT_stimuli/rescaled_final/0702_rv.mp4	0.0	114.92995357513428	
5	65.80775952339172	pulse	1	t		3.0	2.5	/experiments/Knapen_AOT/AOT_stimuli/rescaled_final/0702_rv.mp4	0.0	116.52964282035828	
5	66.32628560066223	fix_post	2		12	3.0	2.5	/experiments/Knapen_AOT/AOT_stimuli/rescaled_final/0702_rv.mp4	0.0	117.04816889762878	0.10016274452209473
6	66.42644834518433	fix_pre	0		119	4.0	2.5	/experiments/Knapen_AOT/AOT_stimuli/rescaled_final/1829_rv.mp4	0.0	117.14833164215088	1.0000007152557373
6	67.40998077392578	pulse	0	t		4.0	2.5	/experiments/Knapen_AOT/AOT_stimuli/rescaled_final/1829_rv.mp4	0.0	118.13186407089233	
6	67.42644906044006	movie	1		277	4.0	2.5	/experiments/Knapen_AOT/AOT_stimuli/rescaled_final/1829_rv.mp4	0.0	118.14833235740662	2.500349998474121
6	69.00881052017212	pulse	1	t		4.0	2.5	/experiments/Knapen_AOT/AOT_stimuli/rescaled_final/1829_rv.mp4	0.0	119.73069381713867	
6	69.92679905891418	fix_post	2		12	4.0	2.5	/experiments/Knapen_AOT/AOT_stimuli/rescaled_final/1829_rv.mp4	0.0	120.64868235588074	0.10001683235168457
7	70.02681589126587	fix_pre	0		120	5.0	2.5	/experiments/Knapen_AOT/AOT_stimuli/rescaled_final/0719_rv.mp4	0.0	120.74869918823242	1.0085432529449463
7	70.61045598983765	pulse	0	t		5.0	2.5	/experiments/Knapen_AOT/AOT_stimuli/rescaled_final/0719_rv.mp4	0.0	121.3323392868042	
7	71.03535914421082	movie	1		281	5.0	2.5	/experiments/Knapen_AOT/AOT_stimuli/rescaled_final/0719_rv.mp4	0.0	121.75724244117737	2.4919934272766113
7	72.20852041244507	pulse	1	t		5.0	2.5	/experiments/Knapen_AOT/AOT_stimuli/rescaled_final/0719_rv.mp4	0.0	122.93040370941162	
7	73.52735257148743	fix_post	2		12	5.0	2.5	/experiments/Knapen_AOT/AOT_stimuli/rescaled_final/0719_rv.mp4	0.0	124.24923586845398	0.10001373291015625
8	73.62736630439758	fix_pre	0		120	6.0	2.5	blank	1.0	124.34924960136414	1.0001487731933594
8	73.81105518341064	pulse	0	t		6.0	2.5	blank	1.0	124.5329384803772	
8	74.62751507759094	movie	1		300	6.0	2.5	blank	1.0	125.3493983745575	2.5003795623779297
8	75.40398812294006	pulse	1	t		6.0	2.5	blank	1.0	126.12587141990662	
8	77.00344705581665	pulse	1	t		6.0	2.5	blank	1.0	127.7253303527832	
8	77.12789463996887	fix_post	2		12	6.0	2.5	blank	1.0	127.84977793693542	0.10001945495605469
9	77.22791409492493	fix_pre	0		120	7.0	2.5	/experiments/Knapen_AOT/AOT_stimuli/rescaled_final/1668_rv.mp4	0.0	127.94979739189148	1.008495807647705
9	78.23640990257263	movie	1		284	7.0	2.5	/experiments/Knapen_AOT/AOT_stimuli/rescaled_final/1668_rv.mp4	0.0	128.95829319953918	2.4920151233673096
9	78.60367727279663	pulse	1	t		7.0	2.5	/experiments/Knapen_AOT/AOT_stimuli/rescaled_final/1668_rv.mp4	0.0	129.32556056976318	
9	80.20396590232849	pulse	1	t		7.0	2.5	/experiments/Knapen_AOT/AOT_stimuli/rescaled_final/1668_rv.mp4	0.0	130.92584919929504	
9	80.72842502593994	fix_post	2		12	7.0	2.5	/experiments/Knapen_AOT/AOT_stimuli/rescaled_final/1668_rv.mp4	0.0	131.4503083229065	0.10003876686096191
10	80.8284637928009	fix_pre	0		118	8.0	2.5	/experiments/Knapen_AOT/AOT_stimuli/rescaled_final/0328_rv.mp4	0.0	131.55034708976746	0.9917855262756348
10	81.80386853218079	pulse	0	t		8.0	2.5	/experiments/Knapen_AOT/AOT_stimuli/rescaled_final/0328_rv.mp4	0.0	132.52575182914734	
10	81.82024931907654	movie	1		286	8.0	2.5	/experiments/Knapen_AOT/AOT_stimuli/rescaled_final/0328_rv.mp4	0.0	132.5421326160431	2.5004725456237793
10	83.40410161018372	pulse	1	t		8.0	2.5	/experiments/Knapen_AOT/AOT_stimuli/rescaled_final/0328_rv.mp4	0.0	134.12598490715027	
10	84.32072186470032	fix_post	2		12	8.0	2.5	/experiments/Knapen_AOT/AOT_stimuli/rescaled_final/0328_rv.mp4	0.0	135.04260516166687	0.09997034072875977
11	84.42069220542908	fix_pre	0		120	9.0	2.5	/experiments/Knapen_AOT/AOT_stimuli/rescaled_final/0554_rv.mp4	0.0	135.14257550239563	1.0084950923919678
11	85.00438332557678	pulse	0	t		9.0	2.5	/experiments/Knapen_AOT/AOT_stimuli/rescaled_final/0554_rv.mp4	0.0	135.72626662254333	
11	85.42918729782104	movie	1		283	9.0	2.5	/experiments/Knapen_AOT/AOT_stimuli/rescaled_final/0554_rv.mp4	0.0	136.1510705947876	2.4919943809509277
11	86.60459160804749	pulse	1	t		9.0	2.5	/experiments/Knapen_AOT/AOT_stimuli/rescaled_final/0554_rv.mp4	0.0	137.32647490501404	
11	87.92118167877197	fix_post	2		12	9.0	2.5	/experiments/Knapen_AOT/AOT_stimuli/rescaled_final/0554_rv.mp4	0.0	138.64306497573853	0.10000991821289062
12	88.02119159698486	fix_pre	0		120	10.0	2.5	/experiments/Knapen_AOT/AOT_stimuli/rescaled_final/0589_rv.mp4	0.0	138.74307489395142	1.0086429119110107
12	88.20483136177063	pulse	0	t		10.0	2.5	/experiments/Knapen_AOT/AOT_stimuli/rescaled_final/0589_rv.mp4	0.0	138.92671465873718	
12	89.02983450889587	movie	1		279	10.0	2.5	/experiments/Knapen_AOT/AOT_stimuli/rescaled_final/0589_rv.mp4	0.0	139.75171780586243	2.4921414852142334
12	89.80507707595825	pulse	1	t		10.0	2.5	/experiments/Knapen_AOT/AOT_stimuli/rescaled_final/0589_rv.mp4	0.0	140.5269603729248	
12	91.40532374382019	pulse	1	t		10.0	2.5	/experiments/Knapen_AOT/AOT_stimuli/rescaled_final/0589_rv.mp4	0.0	142.12720704078674	
12	91.52197599411011	fix_post	2		12	10.0	2.5	/experiments/Knapen_AOT/AOT_stimuli/rescaled_final/0589_rv.mp4	0.0	142.24385929107666	0.09976911544799805
13	91.6217451095581	fix_pre	0		120	11.0	2.5	/experiments/Knapen_AOT/AOT_stimuli/rescaled_final/0655_fw.mp4	0.0	142.34362840652466	1.0085322856903076
13	92.63027739524841	movie	1		283	11.0	2.5	/experiments/Knapen_AOT/AOT_stimuli/rescaled_final/0655_fw.mp4	0.0	143.35216069221497	2.491990566253662
13	93.00368309020996	pulse	1	t		11.0	2.5	/experiments/Knapen_AOT/AOT_stimuli/rescaled_final/0655_fw.mp4	0.0	143.7255663871765	
13	94.60371971130371	pulse	1	t		11.0	2.5	/experiments/Knapen_AOT/AOT_stimuli/rescaled_final/0655_fw.mp4	0.0	145.32560300827026	
13	95.12226796150208	fix_post	2		12	11.0	2.5	/experiments/Knapen_AOT/AOT_stimuli/rescaled_final/0655_fw.mp4	0.0	145.84415125846863	0.10004901885986328
14	95.22231698036194	fix_pre	0		119	12.0	2.5	/experiments/Knapen_AOT/AOT_stimuli/rescaled_final/2150_rv.mp4	0.0	145.9442002773285	1.0001609325408936
14	96.20631122589111	pulse	0	t		12.0	2.5	/experiments/Knapen_AOT/AOT_stimuli/rescaled_final/2150_rv.mp4	0.0	146.92819452285767	
14	96.22247791290283	movie	1		279	12.0	2.5	/experiments/Knapen_AOT/AOT_stimuli/rescaled_final/2150_rv.mp4	0.0	146.94436120986938	2.5003530979156494
14	97.80480599403381	pulse	1	t		12.0	2.5	/experiments/Knapen_AOT/AOT_stimuli/rescaled_final/2150_rv.mp4	0.0	148.52668929100037	
14	98.72283101081848	fix_post	2		12	12.0	2.5	/experiments/Knapen_AOT/AOT_stimuli/rescaled_final/2150_rv.mp4	0.0	149.44471430778503	0.10001182556152344
15	98.82284283638	fix_pre	0		120	13.0	2.5	blank	1.0	149.54472613334656	1.0001270771026611
15	99.40641856193542	pulse	0	t		13.0	2.5	blank	1.0	150.12830185890198	
15	99.82296991348267	movie	1		300	13.0	2.5	blank	1.0	150.54485321044922	2.500380039215088
15	101.00674653053284	pulse	1	t		13.0	2.5	blank	1.0	151.7286298274994	
15	102.32334995269775	fix_post	2		12	13.0	2.5	blank	1.0	153.0452332496643	0.10002732276916504
16	102.42337727546692	fix_pre	0		120	14.0	2.5	/experiments/Knapen_AOT/AOT_stimuli/rescaled_final/1449_fw.mp4	0.0	153.14526057243347	1.0084583759307861
16	102.60705232620239	pulse	0	t		14.0	2.5	/experiments/Knapen_AOT/AOT_stimuli/rescaled_final/1449_fw.mp4	0.0	153.32893562316895	
16	103.4318356513977	movie	1		286	14.0	2.5	/experiments/Knapen_AOT/AOT_stimuli/rescaled_final/1449_fw.mp4	0.0	154.15371894836426	2.492065906524658
16	104.20522546768188	pulse	1	t		14.0	2.5	/experiments/Knapen_AOT/AOT_stimuli/rescaled_final/1449_fw.mp4	0.0	154.92710876464844	
16	105.80545091629028	pulse	1	t		14.0	2.5	/experiments/Knapen_AOT/AOT_stimuli/rescaled_final/1449_fw.mp4	0.0	156.52733421325684	
16	105.92390155792236	fix_post	2		12	14.0	2.5	/experiments/Knapen_AOT/AOT_stimuli/rescaled_final/1449_fw.mp4	0.0	156.64578485488892	0.10014057159423828
17	106.0240421295166	fix_pre	0		120	15.0	2.5	/experiments/Knapen_AOT/AOT_stimuli/rescaled_final/1575_fw.mp4	0.0	156.74592542648315	1.0083997249603271
17	107.03244185447693	movie	1		282	15.0	2.5	/experiments/Knapen_AOT/AOT_stimuli/rescaled_final/1575_fw.mp4	0.0	157.75432515144348	2.491994619369507
17	107.4063675403595	pulse	1	t		15.0	2.5	/experiments/Knapen_AOT/AOT_stimuli/rescaled_final/1575_fw.mp4	0.0	158.12825083732605	
17	109.00594973564148	pulse	1	t		15.0	2.5	/experiments/Knapen_AOT/AOT_stimuli/rescaled_final/1575_fw.mp4	0.0	159.72783303260803	
17	109.52443647384644	fix_post	2		12	15.0	2.5	/experiments/Knapen_AOT/AOT_stimuli/rescaled_final/1575_fw.mp4	0.0	160.246319770813	0.10011005401611328
18	109.62454652786255	fix_pre	0		119	16.0	2.5	/experiments/Knapen_AOT/AOT_stimuli/rescaled_final/0589_fw.mp4	0.0	160.3464298248291	1.0003714561462402
18	110.6082239151001	pulse	0	t		16.0	2.5	/experiments/Knapen_AOT/AOT_stimuli/rescaled_final/0589_fw.mp4	0.0	161.33010721206665	
18	110.62491798400879	movie	1		288	16.0	2.5	/experiments/Knapen_AOT/AOT_stimuli/rescaled_final/0589_fw.mp4	0.0	161.34680128097534	2.500070333480835
18	112.20712351799011	pulse	1	t		16.0	2.5	/experiments/Knapen_AOT/AOT_stimuli/rescaled_final/0589_fw.mp4	0.0	162.92900681495667	
18	113.12498831748962	fix_post	2		12	16.0	2.5	/experiments/Knapen_AOT/AOT_stimuli/rescaled_final/0589_fw.mp4	0.0	163.84687161445618	0.10003471374511719
19	113.22502303123474	fix_pre	0		120	17.0	2.5	/experiments/Knapen_AOT/AOT_stimuli/rescaled_final/0197_rv.mp4	0.0	163.9469063282013	1.0085411071777344
19	113.80870413780212	pulse	0	t		17.0	2.5	/experiments/Knapen_AOT/AOT_stimuli/rescaled_final/0197_rv.mp4	0.0	164.53058743476868	
19	114.23356413841248	movie	1		284	17.0	2.5	/experiments/Knapen_AOT/AOT_stimuli/rescaled_final/0197_rv.mp4	0.0	164.95544743537903	2.4919283390045166
19	115.40712332725525	pulse	1	t		17.0	2.5	/experiments/Knapen_AOT/AOT_stimuli/rescaled_final/0197_rv.mp4	0.0	166.1290066242218	
19	116.72549247741699	fix_post	2		12	17.0	2.5	/experiments/Knapen_AOT/AOT_stimuli/rescaled_final/0197_rv.mp4	0.0	167.44737577438354	0.10004353523254395
20	116.82553601264954	fix_pre	0		120	18.0	2.5	/experiments/Knapen_AOT/AOT_stimuli/rescaled_final/0465_fw.mp4	0.0	167.5474193096161	1.0085053443908691
20	117.00907301902771	pulse	0	t		18.0	2.5	/experiments/Knapen_AOT/AOT_stimuli/rescaled_final/0465_fw.mp4	0.0	167.73095631599426	
20	117.8340413570404	movie	1		294	18.0	2.5	/experiments/Knapen_AOT/AOT_stimuli/rescaled_final/0465_fw.mp4	0.0	168.55592465400696	2.492002487182617
20	118.60567903518677	pulse	1	t		18.0	2.5	/experiments/Knapen_AOT/AOT_stimuli/rescaled_final/0465_fw.mp4	0.0	169.32756233215332	
20	120.20715808868408	pulse	1	t		18.0	2.5	/experiments/Knapen_AOT/AOT_stimuli/rescaled_final/0465_fw.mp4	0.0	170.92904138565063	
20	120.32604384422302	fix_post	2		12	18.0	2.5	/experiments/Knapen_AOT/AOT_stimuli/rescaled_final/0465_fw.mp4	0.0	171.04792714118958	0.10000944137573242
21	120.42605328559875	fix_pre	0		120	19.0	2.5	/experiments/Knapen_AOT/AOT_stimuli/rescaled_final/1766_rv.mp4	0.0	171.1479365825653	1.008533000946045
21	121.4345862865448	movie	1		295	19.0	2.5	/experiments/Knapen_AOT/AOT_stimuli/rescaled_final/1766_rv.mp4	0.0	172.15646958351135	2.4920942783355713
21	121.8058340549469	pulse	1	t		19.0	2.5	/experiments/Knapen_AOT/AOT_stimuli/rescaled_final/1766_rv.mp4	0.0	172.52771735191345	
21	123.40560507774353	pulse	1	t		19.0	2.5	/experiments/Knapen_AOT/AOT_stimuli/rescaled_final/1766_rv.mp4	0.0	174.12748837471008	
21	123.92668056488037	fix_post	2		12	19.0	2.5	/experiments/Knapen_AOT/AOT_stimuli/rescaled_final/1766_rv.mp4	0.0	174.64856386184692	0.09998321533203125
22	124.0266637802124	fix_pre	0		119	20.0	2.5	blank	1.0	174.74854707717896	0.9917516708374023
22	125.01021981239319	pulse	0	t		20.0	2.5	blank	1.0	175.73210310935974	
22	125.0184154510498	movie	1		301	20.0	2.5	blank	1.0	175.74029874801636	2.5087454319000244
22	126.61063146591187	pulse	1	t		20.0	2.5	blank	1.0	177.33251476287842	
22	127.52716088294983	fix_post	2		12	20.0	2.5	blank	1.0	178.24904417991638	0.10002636909484863
23	127.62718725204468	fix_pre	0		120	21.0	2.5	/experiments/Knapen_AOT/AOT_stimuli/rescaled_final/1311_rv.mp4	0.0	178.34907054901123	1.008497714996338
23	128.2110619544983	pulse	0	t		21.0	2.5	/experiments/Knapen_AOT/AOT_stimuli/rescaled_final/1311_rv.mp4	0.0	178.93294525146484	
23	128.63568496704102	movie	1		293	21.0	2.5	/experiments/Knapen_AOT/AOT_stimuli/rescaled_final/1311_rv.mp4	0.0	179.35756826400757	2.4920530319213867
23	129.80758929252625	pulse	1	t		21.0	2.5	/experiments/Knapen_AOT/AOT_stimuli/rescaled_final/1311_rv.mp4	0.0	180.5294725894928	
23	131.1277379989624	fix_post	2		12	21.0	2.5	/experiments/Knapen_AOT/AOT_stimuli/rescaled_final/1311_rv.mp4	0.0	181.84962129592896	0.10000753402709961
24	131.2277455329895	fix_pre	0		120	22.0	2.5	/experiments/Knapen_AOT/AOT_stimuli/rescaled_final/1571_fw.mp4	0.0	181.94962882995605	1.0084848403930664
24	131.40432143211365	pulse	0	t		22.0	2.5	/experiments/Knapen_AOT/AOT_stimuli/rescaled_final/1571_fw.mp4	0.0	182.1262047290802	
24	132.23623037338257	movie	1		287	22.0	2.5	/experiments/Knapen_AOT/AOT_stimuli/rescaled_final/1571_fw.mp4	0.0	182.95811367034912	2.491982936859131
24	133.00953578948975	pulse	1	t		22.0	2.5	/experiments/Knapen_AOT/AOT_stimuli/rescaled_final/1571_fw.mp4	0.0	183.7314190864563	
24	134.6099727153778	pulse	1	t		22.0	2.5	/experiments/Knapen_AOT/AOT_stimuli/rescaled_final/1571_fw.mp4	0.0	185.33185601234436	
24	134.7282133102417	fix_post	2		12	22.0	2.5	/experiments/Knapen_AOT/AOT_stimuli/rescaled_final/1571_fw.mp4	0.0	185.45009660720825	0.10004258155822754
25	134.82825589179993	fix_pre	0		120	23.0	2.5	/experiments/Knapen_AOT/AOT_stimuli/rescaled_final/1829_fw.mp4	0.0	185.55013918876648	1.0085856914520264
25	135.83684158325195	movie	1		272	23.0	2.5	/experiments/Knapen_AOT/AOT_stimuli/rescaled_final/1829_fw.mp4	0.0	186.5587248802185	2.4835712909698486
25	136.20399522781372	pulse	1	t		23.0	2.5	/experiments/Knapen_AOT/AOT_stimuli/rescaled_final/1829_fw.mp4	0.0	186.92587852478027	
25	137.8039996623993	pulse	1	t		23.0	2.5	/experiments/Knapen_AOT/AOT_stimuli/rescaled_final/1829_fw.mp4	0.0	188.52588295936584	
25	138.3204128742218	fix_post	2		12	23.0	2.5	/experiments/Knapen_AOT/AOT_stimuli/rescaled_final/1829_fw.mp4	0.0	189.04229617118835	0.10003089904785156
26	138.42044377326965	fix_pre	0		119	24.0	2.5	/experiments/Knapen_AOT/AOT_stimuli/rescaled_final/0938_fw.mp4	0.0	189.1423270702362	1.0001904964447021
26	139.40425300598145	pulse	0	t		24.0	2.5	/experiments/Knapen_AOT/AOT_stimuli/rescaled_final/0938_fw.mp4	0.0	190.126136302948	
26	139.42063426971436	movie	1		286	24.0	2.5	/experiments/Knapen_AOT/AOT_stimuli/rescaled_final/0938_fw.mp4	0.0	190.1425175666809	2.5004143714904785
26	141.00441765785217	pulse	1	t		24.0	2.5	/experiments/Knapen_AOT/AOT_stimuli/rescaled_final/0938_fw.mp4	0.0	191.72630095481873	
26	141.92104864120483	fix_post	2		12	24.0	2.5	/experiments/Knapen_AOT/AOT_stimuli/rescaled_final/0938_fw.mp4	0.0	192.6429319381714	0.09997391700744629
27	142.02102255821228	fix_pre	0		120	25.0	2.5	/experiments/Knapen_AOT/AOT_stimuli/rescaled_final/0764_fw.mp4	0.0	192.74290585517883	1.00846266746521
27	142.6046781539917	pulse	0	t		25.0	2.5	/experiments/Knapen_AOT/AOT_stimuli/rescaled_final/0764_fw.mp4	0.0	193.32656145095825	
27	143.0294852256775	movie	1		288	25.0	2.5	/experiments/Knapen_AOT/AOT_stimuli/rescaled_final/0764_fw.mp4	0.0	193.75136852264404	2.4920120239257812
27	144.20520210266113	pulse	1	t		25.0	2.5	/experiments/Knapen_AOT/AOT_stimuli/rescaled_final/0764_fw.mp4	0.0	194.92708539962769	
27	145.52149724960327	fix_post	2		12	25.0	2.5	/experiments/Knapen_AOT/AOT_stimuli/rescaled_final/0764_fw.mp4	0.0	196.24338054656982	0.10009479522705078
28	145.62159204483032	fix_pre	0		120	26.0	2.5	blank	1.0	196.34347534179688	1.000107765197754
28	145.80518198013306	pulse	0	t		26.0	2.5	blank	1.0	196.5270652770996	
28	146.62169981002808	movie	1		300	26.0	2.5	blank	1.0	197.34358310699463	2.5004708766937256
28	147.4055302143097	pulse	1	t		26.0	2.5	blank	1.0	198.12741351127625	
28	149.00575351715088	pulse	1	t		26.0	2.5	blank	1.0	199.72763681411743	
28	149.1221706867218	fix_post	2		12	26.0	2.5	blank	1.0	199.84405398368835	0.0999901294708252
29	149.22216081619263	fix_pre	0		120	27.0	2.5	/experiments/Knapen_AOT/AOT_stimuli/rescaled_final/1176_rv.mp4	0.0	199.94404411315918	1.0083990097045898
29	150.23055982589722	movie	1		277	27.0	2.5	/experiments/Knapen_AOT/AOT_stimuli/rescaled_final/1176_rv.mp4	0.0	200.95244312286377	2.492093563079834
29	150.60402178764343	pulse	1	t		27.0	2.5	/experiments/Knapen_AOT/AOT_stimuli/rescaled_final/1176_rv.mp4	0.0	201.32590508460999	
29	152.2052104473114	pulse	1	t		27.0	2.5	/experiments/Knapen_AOT/AOT_stimuli/rescaled_final/1176_rv.mp4	0.0	202.92709374427795	
29	152.72265338897705	fix_post	2		12	27.0	2.5	/experiments/Knapen_AOT/AOT_stimuli/rescaled_final/1176_rv.mp4	0.0	203.4445366859436	0.1002657413482666
30	152.82291913032532	fix_pre	0		119	28.0	2.5	/experiments/Knapen_AOT/AOT_stimuli/rescaled_final/1280_fw.mp4	0.0	203.54480242729187	0.9999525547027588
30	153.8063509464264	pulse	0	t		28.0	2.5	/experiments/Knapen_AOT/AOT_stimuli/rescaled_final/1280_fw.mp4	0.0	204.52823424339294	
30	153.82287168502808	movie	1		276	28.0	2.5	/experiments/Knapen_AOT/AOT_stimuli/rescaled_final/1280_fw.mp4	0.0	204.54475498199463	2.500293493270874
30	155.40511298179626	pulse	1	t		28.0	2.5	/experiments/Knapen_AOT/AOT_stimuli/rescaled_final/1280_fw.mp4	0.0	206.12699627876282	
30	156.32316517829895	fix_post	2		12	28.0	2.5	/experiments/Knapen_AOT/AOT_stimuli/rescaled_final/1280_fw.mp4	0.0	207.0450484752655	0.10006904602050781
31	156.42323422431946	fix_pre	0		120	29.0	2.5	/experiments/Knapen_AOT/AOT_stimuli/rescaled_final/0702_fw.mp4	0.0	207.145117521286	1.0084199905395508
31	157.0067639350891	pulse	0	t		29.0	2.5	/experiments/Knapen_AOT/AOT_stimuli/rescaled_final/0702_fw.mp4	0.0	207.72864723205566	
31	157.431654214859	movie	1		284	29.0	2.5	/experiments/Knapen_AOT/AOT_stimuli/rescaled_final/0702_fw.mp4	0.0	208.15353751182556	2.492093563079834
31	158.60515546798706	pulse	1	t		29.0	2.5	/experiments/Knapen_AOT/AOT_stimuli/rescaled_final/0702_fw.mp4	0.0	209.3270387649536	
31	159.92374777793884	fix_post	2		12	29.0	2.5	/experiments/Knapen_AOT/AOT_stimuli/rescaled_final/0702_fw.mp4	0.0	210.6456310749054	0.09995889663696289
32	160.0237066745758	fix_pre	0		120	30.0	2.5	/experiments/Knapen_AOT/AOT_stimuli/rescaled_final/1517_fw.mp4	0.0	210.74558997154236	1.0084939002990723
32	160.20725417137146	pulse	0	t		30.0	2.5	/experiments/Knapen_AOT/AOT_stimuli/rescaled_final/1517_fw.mp4	0.0	210.929137468338	
32	161.03220057487488	movie	1		285	30.0	2.5	/experiments/Knapen_AOT/AOT_stimuli/rescaled_final/1517_fw.mp4	0.0	211.75408387184143	2.492077350616455
32	161.80564713478088	pulse	1	t		30.0	2.5	/experiments/Knapen_AOT/AOT_stimuli/rescaled_final/1517_fw.mp4	0.0	212.52753043174744	
32	163.40584659576416	pulse	1	t		30.0	2.5	/experiments/Knapen_AOT/AOT_stimuli/rescaled_final/1517_fw.mp4	0.0	214.1277298927307	
32	163.52427792549133	fix_post	2		12	30.0	2.5	/experiments/Knapen_AOT/AOT_stimuli/rescaled_final/1517_fw.mp4	0.0	214.24616122245789	0.09996962547302246
33	163.62424755096436	fix_pre	0		120	31.0	2.5	/experiments/Knapen_AOT/AOT_stimuli/rescaled_final/1290_rv.mp4	0.0	214.3461308479309	1.0084912776947021
33	164.63273882865906	movie	1		281	31.0	2.5	/experiments/Knapen_AOT/AOT_stimuli/rescaled_final/1290_rv.mp4	0.0	215.3546221256256	2.492022752761841
33	165.0066740512848	pulse	1	t		31.0	2.5	/experiments/Knapen_AOT/AOT_stimuli/rescaled_final/1290_rv.mp4	0.0	215.72855734825134	
33	166.60640406608582	pulse	1	t		31.0	2.5	/experiments/Knapen_AOT/AOT_stimuli/rescaled_final/1290_rv.mp4	0.0	217.32828736305237	
33	167.1247615814209	fix_post	2		12	31.0	2.5	/experiments/Knapen_AOT/AOT_stimuli/rescaled_final/1290_rv.mp4	0.0	217.84664487838745	0.10002756118774414
34	167.22478914260864	fix_pre	0		119	32.0	2.5	/experiments/Knapen_AOT/AOT_stimuli/rescaled_final/1686_fw.mp4	0.0	217.9466724395752	1.0001451969146729
34	168.2085063457489	pulse	0	t		32.0	2.5	/experiments/Knapen_AOT/AOT_stimuli/rescaled_final/1686_fw.mp4	0.0	218.93038964271545	
34	168.22493433952332	movie	1		287	32.0	2.5	/experiments/Knapen_AOT/AOT_stimuli/rescaled_final/1686_fw.mp4	0.0	218.94681763648987	2.500424861907959
34	169.80729579925537	pulse	1	t		32.0	2.5	/experiments/Knapen_AOT/AOT_stimuli/rescaled_final/1686_fw.mp4	0.0	220.52917909622192	
34	170.72535920143127	fix_post	2		12	32.0	2.5	/experiments/Knapen_AOT/AOT_stimuli/rescaled_final/1686_fw.mp4	0.0	221.44724249839783	0.09999632835388184
35	170.82535552978516	fix_pre	0		120	33.0	2.5	/experiments/Knapen_AOT/AOT_stimuli/rescaled_final/1552_fw.mp4	0.0	221.5472388267517	1.0084853172302246
35	171.40914344787598	pulse	0	t		33.0	2.5	/experiments/Knapen_AOT/AOT_stimuli/rescaled_final/1552_fw.mp4	0.0	222.13102674484253	
35	171.83384084701538	movie	1		270	33.0	2.5	/experiments/Knapen_AOT/AOT_stimuli/rescaled_final/1552_fw.mp4	0.0	222.55572414398193	2.4919934272766113
35	173.00755643844604	pulse	1	t		33.0	2.5	/experiments/Knapen_AOT/AOT_stimuli/rescaled_final/1552_fw.mp4	0.0	223.7294397354126	
35	174.325834274292	fix_post	2		12	33.0	2.5	/experiments/Knapen_AOT/AOT_stimuli/rescaled_final/1552_fw.mp4	0.0	225.04771757125854	0.10010170936584473
36	174.42593598365784	fix_pre	0		120	34.0	2.5	blank	1.0	225.1478192806244	1.0000667572021484
36	174.60950207710266	pulse	0	t		34.0	2.5	blank	1.0	225.3313853740692	
36	175.42600274085999	movie	1		300	34.0	2.5	blank	1.0	226.14788603782654	2.5004405975341797
36	176.20967721939087	pulse	1	t		34.0	2.5	blank	1.0	226.93156051635742	
36	177.8099489212036	pulse	1	t		34.0	2.5	blank	1.0	228.53183221817017	
36	177.92644333839417	fix_post	2		12	34.0	2.5	blank	1.0	228.64832663536072	0.10015630722045898
37	178.02659964561462	fix_pre	0		120	35.0	2.5	/experiments/Knapen_AOT/AOT_stimuli/rescaled_final/2050_rv.mp4	0.0	228.74848294258118	1.0083339214324951
37	179.03493356704712	movie	1		270	35.0	2.5	/experiments/Knapen_AOT/AOT_stimuli/rescaled_final/2050_rv.mp4	0.0	229.75681686401367	2.4919917583465576
37	179.40859389305115	pulse	1	t		35.0	2.5	/experiments/Knapen_AOT/AOT_stimuli/rescaled_final/2050_rv.mp4	0.0	230.1304771900177	
37	181.0104696750641	pulse	1	t		35.0	2.5	/experiments/Knapen_AOT/AOT_stimuli/rescaled_final/2050_rv.mp4	0.0	231.73235297203064	
37	181.52692532539368	fix_post	2		12	35.0	2.5	/experiments/Knapen_AOT/AOT_stimuli/rescaled_final/2050_rv.mp4	0.0	232.24880862236023	0.1000218391418457
38	181.62694716453552	fix_pre	0		119	36.0	2.5	/experiments/Knapen_AOT/AOT_stimuli/rescaled_final/0589_rv.mp4	0.0	232.34883046150208	1.0001847743988037
38	182.6108193397522	pulse	0	t		36.0	2.5	/experiments/Knapen_AOT/AOT_stimuli/rescaled_final/0589_rv.mp4	0.0	233.33270263671875	
38	182.62713193893433	movie	1		282	36.0	2.5	/experiments/Knapen_AOT/AOT_stimuli/rescaled_final/0589_rv.mp4	0.0	233.34901523590088	2.5004234313964844
38	184.20953106880188	pulse	1	t		36.0	2.5	/experiments/Knapen_AOT/AOT_stimuli/rescaled_final/0589_rv.mp4	0.0	234.93141436576843	
38	185.1275553703308	fix_post	2		12	36.0	2.5	/experiments/Knapen_AOT/AOT_stimuli/rescaled_final/0589_rv.mp4	0.0	235.84943866729736	0.10000729560852051
39	185.22756266593933	fix_pre	0		120	37.0	2.5	/experiments/Knapen_AOT/AOT_stimuli/rescaled_final/1776_fw.mp4	0.0	235.94944596290588	1.0084185600280762
39	185.80392980575562	pulse	0	t		37.0	2.5	/experiments/Knapen_AOT/AOT_stimuli/rescaled_final/1776_fw.mp4	0.0	236.52581310272217	
39	186.2359812259674	movie	1		279	37.0	2.5	/experiments/Knapen_AOT/AOT_stimuli/rescaled_final/1776_fw.mp4	0.0	236.95786452293396	2.4920494556427
39	187.40339517593384	pulse	1	t		37.0	2.5	/experiments/Knapen_AOT/AOT_stimuli/rescaled_final/1776_fw.mp4	0.0	238.1252784729004	
39	188.7280306816101	fix_post	2		12	37.0	2.5	/experiments/Knapen_AOT/AOT_stimuli/rescaled_final/1776_fw.mp4	0.0	239.44991397857666	0.10016727447509766
40	188.8281979560852	fix_pre	0		120	38.0	2.5	/experiments/Knapen_AOT/AOT_stimuli/rescaled_final/1691_fw.mp4	0.0	239.55008125305176	1.008314847946167
40	189.00353479385376	pulse	0	t		38.0	2.5	/experiments/Knapen_AOT/AOT_stimuli/rescaled_final/1691_fw.mp4	0.0	239.7254180908203	
40	189.83651280403137	movie	1		287	38.0	2.5	/experiments/Knapen_AOT/AOT_stimuli/rescaled_final/1691_fw.mp4	0.0	240.55839610099792	2.4920554161071777
40	190.60362029075623	pulse	1	t		38.0	2.5	/experiments/Knapen_AOT/AOT_stimuli/rescaled_final/1691_fw.mp4	0.0	241.32550358772278	
40	192.20377659797668	pulse	1	t		38.0	2.5	/experiments/Knapen_AOT/AOT_stimuli/rescaled_final/1691_fw.mp4	0.0	242.92565989494324	
40	192.32856822013855	fix_post	2		12	38.0	2.5	/experiments/Knapen_AOT/AOT_stimuli/rescaled_final/1691_fw.mp4	0.0	243.0504515171051	0.10007762908935547
41	192.4286458492279	fix_pre	0		120	39.0	2.5	/experiments/Knapen_AOT/AOT_stimuli/rescaled_final/0163_rv.mp4	0.0	243.15052914619446	1.0084340572357178
41	193.43707990646362	movie	1		286	39.0	2.5	/experiments/Knapen_AOT/AOT_stimuli/rescaled_final/0163_rv.mp4	0.0	244.15896320343018	2.49204421043396
41	193.8046853542328	pulse	1	t		39.0	2.5	/experiments/Knapen_AOT/AOT_stimuli/rescaled_final/0163_rv.mp4	0.0	244.52656865119934	
41	195.40426754951477	pulse	1	t		39.0	2.5	/experiments/Knapen_AOT/AOT_stimuli/rescaled_final/0163_rv.mp4	0.0	246.12615084648132	
41	195.92912411689758	fix_post	2		12	39.0	2.5	/experiments/Knapen_AOT/AOT_stimuli/rescaled_final/0163_rv.mp4	0.0	246.65100741386414	0.10002994537353516
42	196.02915406227112	fix_pre	0		118	40.0	2.5	/experiments/Knapen_AOT/AOT_stimuli/rescaled_final/1517_fw.mp4	0.0	246.75103735923767	0.9918086528778076
42	197.00462698936462	pulse	0	t		40.0	2.5	/experiments/Knapen_AOT/AOT_stimuli/rescaled_final/1517_fw.mp4	0.0	247.72651028633118	
42	197.02096271514893	movie	1		290	40.0	2.5	/experiments/Knapen_AOT/AOT_stimuli/rescaled_final/1517_fw.mp4	0.0	247.74284601211548	2.5003621578216553
42	198.60360598564148	pulse	1	t		40.0	2.5	/experiments/Knapen_AOT/AOT_stimuli/rescaled_final/1517_fw.mp4	0.0	249.32548928260803	
42	199.52132487297058	fix_post	2		12	40.0	2.5	/experiments/Knapen_AOT/AOT_stimuli/rescaled_final/1517_fw.mp4	0.0	250.24320816993713	0.10004544258117676
43	199.62137031555176	fix_pre	0		120	41.0	2.5	/experiments/Knapen_AOT/AOT_stimuli/rescaled_final/0228_rv.mp4	0.0	250.3432536125183	1.0084331035614014
43	200.2050223350525	pulse	0	t		41.0	2.5	/experiments/Knapen_AOT/AOT_stimuli/rescaled_final/0228_rv.mp4	0.0	250.92690563201904	
43	200.62980341911316	movie	1		277	41.0	2.5	/experiments/Knapen_AOT/AOT_stimuli/rescaled_final/0228_rv.mp4	0.0	251.3516867160797	2.492039680480957
43	201.80384969711304	pulse	1	t		41.0	2.5	/experiments/Knapen_AOT/AOT_stimuli/rescaled_final/0228_rv.mp4	0.0	252.5257329940796	
43	203.12184309959412	fix_post	2		12	41.0	2.5	/experiments/Knapen_AOT/AOT_stimuli/rescaled_final/0228_rv.mp4	0.0	253.84372639656067	0.10004210472106934
44	203.22188520431519	fix_pre	0		120	42.0	2.5	blank	1.0	253.94376850128174	1.000115156173706
44	203.40541458129883	pulse	0	t		42.0	2.5	blank	1.0	254.12729787826538	
44	204.2220003604889	movie	1		300	42.0	2.5	blank	1.0	254.94388365745544	2.500380754470825
44	205.00574684143066	pulse	1	t		42.0	2.5	blank	1.0	255.72763013839722	
44	206.60594177246094	pulse	1	t		42.0	2.5	blank	1.0	257.3278250694275	
44	206.72238111495972	fix_post	2		12	42.0	2.5	blank	1.0	257.44426441192627	0.10001921653747559
45	206.8224003314972	fix_pre	0		120	43.0	2.5	/experiments/Knapen_AOT/AOT_stimuli/rescaled_final/1162_fw.mp4	0.0	257.54428362846375	1.0085375308990479
45	207.83093786239624	movie	1		278	43.0	2.5	/experiments/Knapen_AOT/AOT_stimuli/rescaled_final/1162_fw.mp4	0.0	258.5528211593628	2.491992950439453
45	208.20444750785828	pulse	1	t		43.0	2.5	/experiments/Knapen_AOT/AOT_stimuli/rescaled_final/1162_fw.mp4	0.0	258.92633080482483	
45	209.80420064926147	pulse	1	t		43.0	2.5	/experiments/Knapen_AOT/AOT_stimuli/rescaled_final/1162_fw.mp4	0.0	260.526083946228	
45	210.3229308128357	fix_post	2		12	43.0	2.5	/experiments/Knapen_AOT/AOT_stimuli/rescaled_final/1162_fw.mp4	0.0	261.04481410980225	0.10001325607299805
46	210.4229440689087	fix_pre	0		119	44.0	2.5	/experiments/Knapen_AOT/AOT_stimuli/rescaled_final/1107_fw.mp4	0.0	261.14482736587524	1.0001225471496582
46	211.4066424369812	pulse	0	t		44.0	2.5	/experiments/Knapen_AOT/AOT_stimuli/rescaled_final/1107_fw.mp4	0.0	262.12852573394775	
46	211.42306661605835	movie	1		276	44.0	2.5	/experiments/Knapen_AOT/AOT_stimuli/rescaled_final/1107_fw.mp4	0.0	262.1449499130249	2.5004072189331055
46	213.0061628818512	pulse	1	t		44.0	2.5	/experiments/Knapen_AOT/AOT_stimuli/rescaled_final/1107_fw.mp4	0.0	263.72804617881775	
46	213.92347383499146	fix_post	2		12	44.0	2.5	/experiments/Knapen_AOT/AOT_stimuli/rescaled_final/1107_fw.mp4	0.0	264.645357131958	0.10000205039978027
47	214.02347588539124	fix_pre	0		120	45.0	2.5	/experiments/Knapen_AOT/AOT_stimuli/rescaled_final/1986_fw.mp4	0.0	264.7453591823578	1.0085647106170654
47	214.60710072517395	pulse	0	t		45.0	2.5	/experiments/Knapen_AOT/AOT_stimuli/rescaled_final/1986_fw.mp4	0.0	265.3289840221405	
47	215.0320405960083	movie	1		279	45.0	2.5	/experiments/Knapen_AOT/AOT_stimuli/rescaled_final/1986_fw.mp4	0.0	265.75392389297485	2.4919588565826416
47	216.20532250404358	pulse	1	t		45.0	2.5	/experiments/Knapen_AOT/AOT_stimuli/rescaled_final/1986_fw.mp4	0.0	266.92720580101013	
47	217.52399945259094	fix_post	2		12	45.0	2.5	/experiments/Knapen_AOT/AOT_stimuli/rescaled_final/1986_fw.mp4	0.0	268.2458827495575	0.10004305839538574
48	217.62404251098633	fix_pre	0		105	46.0	2.5	/experiments/Knapen_AOT/AOT_stimuli/rescaled_final/2167_fw.mp4	0.0	268.3459258079529	1.0085124969482422
48	217.8075671195984	pulse	0	t		46.0	2.5	/experiments/Knapen_AOT/AOT_stimuli/rescaled_final/2167_fw.mp4	0.0	268.52945041656494	
48	218.63255500793457	movie	1		277	46.0	2.5	/experiments/Knapen_AOT/AOT_stimuli/rescaled_final/2167_fw.mp4	0.0	269.3544383049011	2.491987705230713
48	219.4060389995575	pulse	1	t		46.0	2.5	/experiments/Knapen_AOT/AOT_stimuli/rescaled_final/2167_fw.mp4	0.0	270.12792229652405	
48	221.00639057159424	pulse	1	t		46.0	2.5	/experiments/Knapen_AOT/AOT_stimuli/rescaled_final/2167_fw.mp4	0.0	271.7282738685608	
48	221.12454271316528	fix_post	2		12	46.0	2.5	/experiments/Knapen_AOT/AOT_stimuli/rescaled_final/2167_fw.mp4	0.0	271.84642601013184	0.10006451606750488
49	221.2246072292328	fix_pre	0		120	47.0	2.5	/experiments/Knapen_AOT/AOT_stimuli/rescaled_final/0250_rv.mp4	0.0	271.94649052619934	1.0084893703460693
49	222.23309659957886	movie	1		273	47.0	2.5	/experiments/Knapen_AOT/AOT_stimuli/rescaled_final/0250_rv.mp4	0.0	272.9549798965454	2.492048978805542
49	222.60683584213257	pulse	1	t		47.0	2.5	/experiments/Knapen_AOT/AOT_stimuli/rescaled_final/0250_rv.mp4	0.0	273.3287191390991	
49	224.20678997039795	pulse	1	t		47.0	2.5	/experiments/Knapen_AOT/AOT_stimuli/rescaled_final/0250_rv.mp4	0.0	274.9286732673645	
49	224.7251455783844	fix_post	2		12	47.0	2.5	/experiments/Knapen_AOT/AOT_stimuli/rescaled_final/0250_rv.mp4	0.0	275.44702887535095	0.0999598503112793
50	224.82510542869568	fix_pre	0		119	48.0	2.5	/experiments/Knapen_AOT/AOT_stimuli/rescaled_final/1964_rv.mp4	0.0	275.54698872566223	1.0086607933044434
50	225.80888772010803	pulse	0	t		48.0	2.5	/experiments/Knapen_AOT/AOT_stimuli/rescaled_final/1964_rv.mp4	0.0	276.5307710170746	
50	225.83376622200012	movie	1		279	48.0	2.5	/experiments/Knapen_AOT/AOT_stimuli/rescaled_final/1964_rv.mp4	0.0	276.5556495189667	2.491872787475586
50	227.40747237205505	pulse	1	t		48.0	2.5	/experiments/Knapen_AOT/AOT_stimuli/rescaled_final/1964_rv.mp4	0.0	278.1293556690216	
50	228.3256390094757	fix_post	2		12	48.0	2.5	/experiments/Knapen_AOT/AOT_stimuli/rescaled_final/1964_rv.mp4	0.0	279.04752230644226	0.1000223159790039
51	228.4256613254547	fix_pre	0		120	49.0	2.5	blank	1.0	279.14754462242126	1.0001635551452637
51	229.0093479156494	pulse	0	t		49.0	2.5	blank	1.0	279.73123121261597	
51	229.42582488059998	movie	1		300	49.0	2.5	blank	1.0	280.1477081775665	2.500380277633667
51	230.6096019744873	pulse	1	t		49.0	2.5	blank	1.0	281.33148527145386	
51	231.92620515823364	fix_post	2		12	49.0	2.5	blank	1.0	282.6480884552002	0.0999917984008789
52	232.02619695663452	fix_pre	0		120	50.0	2.5	/experiments/Knapen_AOT/AOT_stimuli/rescaled_final/0100_rv.mp4	0.0	282.7480802536011	1.0085301399230957
52	232.20985078811646	pulse	0	t		50.0	2.5	/experiments/Knapen_AOT/AOT_stimuli/rescaled_final/0100_rv.mp4	0.0	282.931734085083	
52	233.03472709655762	movie	1		288	50.0	2.5	/experiments/Knapen_AOT/AOT_stimuli/rescaled_final/0100_rv.mp4	0.0	283.75661039352417	2.49198579788208
52	233.80802059173584	pulse	1	t		50.0	2.5	/experiments/Knapen_AOT/AOT_stimuli/rescaled_final/0100_rv.mp4	0.0	284.5299038887024	
52	235.4088532924652	pulse	1	t		50.0	2.5	/experiments/Knapen_AOT/AOT_stimuli/rescaled_final/0100_rv.mp4	0.0	286.13073658943176	
52	235.5267128944397	fix_post	2		12	50.0	2.5	/experiments/Knapen_AOT/AOT_stimuli/rescaled_final/0100_rv.mp4	0.0	286.24859619140625	0.10002517700195312
53	235.62673807144165	fix_pre	0		120	51.0	2.5	/experiments/Knapen_AOT/AOT_stimuli/rescaled_final/0554_rv.mp4	0.0	286.3486213684082	1.00848388671875
53	236.6352219581604	movie	1		269	51.0	2.5	/experiments/Knapen_AOT/AOT_stimuli/rescaled_final/0554_rv.mp4	0.0	287.35710525512695	2.49211049079895
53	237.00906372070312	pulse	1	t		51.0	2.5	/experiments/Knapen_AOT/AOT_stimuli/rescaled_final/0554_rv.mp4	0.0	287.7309470176697	
53	238.60931491851807	pulse	1	t		51.0	2.5	/experiments/Knapen_AOT/AOT_stimuli/rescaled_final/0554_rv.mp4	0.0	289.3311982154846	
53	239.12733244895935	fix_post	2		12	51.0	2.5	/experiments/Knapen_AOT/AOT_stimuli/rescaled_final/0554_rv.mp4	0.0	289.8492157459259	0.09994626045227051
54	239.22727870941162	fix_pre	0		119	52.0	2.5	/experiments/Knapen_AOT/AOT_stimuli/rescaled_final/1417_fw.mp4	0.0	289.9491620063782	1.0002617835998535
54	240.210999250412	pulse	0	t		52.0	2.5	/experiments/Knapen_AOT/AOT_stimuli/rescaled_final/1417_fw.mp4	0.0	290.93288254737854	
54	240.22754049301147	movie	1		286	52.0	2.5	/experiments/Knapen_AOT/AOT_stimuli/rescaled_final/1417_fw.mp4	0.0	290.949423789978	2.5002739429473877
54	241.8095633983612	pulse	1	t		52.0	2.5	/experiments/Knapen_AOT/AOT_stimuli/rescaled_final/1417_fw.mp4	0.0	292.53144669532776	
54	242.72781443595886	fix_post	2		12	52.0	2.5	/experiments/Knapen_AOT/AOT_stimuli/rescaled_final/1417_fw.mp4	0.0	293.4496977329254	0.10004997253417969
55	242.82786440849304	fix_pre	0		120	53.0	2.5	/experiments/Knapen_AOT/AOT_stimuli/rescaled_final/2111_fw.mp4	0.0	293.5497477054596	1.0085217952728271
55	243.4037094116211	pulse	0	t		53.0	2.5	/experiments/Knapen_AOT/AOT_stimuli/rescaled_final/2111_fw.mp4	0.0	294.12559270858765	
55	243.83638620376587	movie	1		276	53.0	2.5	/experiments/Knapen_AOT/AOT_stimuli/rescaled_final/2111_fw.mp4	0.0	294.5582695007324	2.4919497966766357
55	245.00368571281433	pulse	1	t		53.0	2.5	/experiments/Knapen_AOT/AOT_stimuli/rescaled_final/2111_fw.mp4	0.0	295.7255690097809	
55	246.3283360004425	fix_post	2		12	53.0	2.5	/experiments/Knapen_AOT/AOT_stimuli/rescaled_final/2111_fw.mp4	0.0	297.05021929740906	0.10003876686096191
56	246.42837476730347	fix_pre	0		120	54.0	2.5	/experiments/Knapen_AOT/AOT_stimuli/rescaled_final/0047_rv.mp4	0.0	297.15025806427	1.0084803104400635
56	246.60372233390808	pulse	0	t		54.0	2.5	/experiments/Knapen_AOT/AOT_stimuli/rescaled_final/0047_rv.mp4	0.0	297.32560563087463	
56	247.43685507774353	movie	1		285	54.0	2.5	/experiments/Knapen_AOT/AOT_stimuli/rescaled_final/0047_rv.mp4	0.0	298.1587383747101	2.492011308670044
56	248.20403575897217	pulse	1	t		54.0	2.5	/experiments/Knapen_AOT/AOT_stimuli/rescaled_final/0047_rv.mp4	0.0	298.9259190559387	
56	249.80416536331177	pulse	1	t		54.0	2.5	/experiments/Knapen_AOT/AOT_stimuli/rescaled_final/0047_rv.mp4	0.0	300.5260486602783	
56	249.92886638641357	fix_post	2		12	54.0	2.5	/experiments/Knapen_AOT/AOT_stimuli/rescaled_final/0047_rv.mp4	0.0	300.6507496833801	0.10008025169372559
57	250.0289466381073	fix_pre	0		120	55.0	2.5	/experiments/Knapen_AOT/AOT_stimuli/rescaled_final/0958_fw.mp4	0.0	300.75082993507385	1.008439064025879
57	251.03738570213318	movie	1		275	55.0	2.5	/experiments/Knapen_AOT/AOT_stimuli/rescaled_final/0958_fw.mp4	0.0	301.75926899909973	2.492027759552002
57	251.4044909477234	pulse	1	t		55.0	2.5	/experiments/Knapen_AOT/AOT_stimuli/rescaled_final/0958_fw.mp4	0.0	302.12637424468994	
57	253.00471425056458	pulse	1	t		55.0	2.5	/experiments/Knapen_AOT/AOT_stimuli/rescaled_final/0958_fw.mp4	0.0	303.7265975475311	
57	253.52941346168518	fix_post	2		12	55.0	2.5	/experiments/Knapen_AOT/AOT_stimuli/rescaled_final/0958_fw.mp4	0.0	304.25129675865173	0.10004281997680664
58	253.629456281662	fix_pre	0		118	56.0	2.5	blank	1.0	304.35133957862854	0.9834558963775635
58	254.60500192642212	pulse	0	t		56.0	2.5	blank	1.0	305.3268852233887	
58	254.61291217803955	movie	1		301	56.0	2.5	blank	1.0	305.3347954750061	2.5087172985076904
58	256.2050485610962	pulse	1	t		56.0	2.5	blank	1.0	306.92693185806274	
58	257.12162947654724	fix_post	2		12	56.0	2.5	blank	1.0	307.8435127735138	0.10015010833740234
59	257.22177958488464	fix_pre	0		120	57.0	2.5	/experiments/Knapen_AOT/AOT_stimuli/rescaled_final/1357_fw.mp4	0.0	307.9436628818512	1.0083858966827393
59	257.8053538799286	pulse	0	t		57.0	2.5	/experiments/Knapen_AOT/AOT_stimuli/rescaled_final/1357_fw.mp4	0.0	308.52723717689514	
59	258.2301654815674	movie	1		275	57.0	2.5	/experiments/Knapen_AOT/AOT_stimuli/rescaled_final/1357_fw.mp4	0.0	308.95204877853394	2.4920144081115723
59	259.40599036216736	pulse	1	t		57.0	2.5	/experiments/Knapen_AOT/AOT_stimuli/rescaled_final/1357_fw.mp4	0.0	310.1278736591339	
59	260.72217988967896	fix_post	2		12	57.0	2.5	/experiments/Knapen_AOT/AOT_stimuli/rescaled_final/1357_fw.mp4	0.0	311.4440631866455	0.10000801086425781
60	260.8221879005432	fix_pre	0		120	58.0	2.5	/experiments/Knapen_AOT/AOT_stimuli/rescaled_final/1213_fw.mp4	0.0	311.54407119750977	1.0085599422454834
60	261.005779504776	pulse	0	t		58.0	2.5	/experiments/Knapen_AOT/AOT_stimuli/rescaled_final/1213_fw.mp4	0.0	311.72766280174255	
60	261.8307478427887	movie	1		272	58.0	2.5	/experiments/Knapen_AOT/AOT_stimuli/rescaled_final/1213_fw.mp4	0.0	312.55263113975525	2.4919650554656982
60	262.6046805381775	pulse	1	t		58.0	2.5	/experiments/Knapen_AOT/AOT_stimuli/rescaled_final/1213_fw.mp4	0.0	313.32656383514404	
60	264.2048439979553	pulse	1	t		58.0	2.5	/experiments/Knapen_AOT/AOT_stimuli/rescaled_final/1213_fw.mp4	0.0	314.9267272949219	
60	264.3227128982544	fix_post	2		12	58.0	2.5	/experiments/Knapen_AOT/AOT_stimuli/rescaled_final/1213_fw.mp4	0.0	315.04459619522095	0.10003876686096191
61	264.42275166511536	fix_pre	0		120	59.0	2.5	/experiments/Knapen_AOT/AOT_stimuli/rescaled_final/1431_fw.mp4	0.0	315.1446349620819	1.0084874629974365
61	265.4312391281128	movie	1		275	59.0	2.5	/experiments/Knapen_AOT/AOT_stimuli/rescaled_final/1431_fw.mp4	0.0	316.15312242507935	2.492074728012085
61	265.80484914779663	pulse	1	t		59.0	2.5	/experiments/Knapen_AOT/AOT_stimuli/rescaled_final/1431_fw.mp4	0.0	316.5267324447632	
61	267.40466237068176	pulse	1	t		59.0	2.5	/experiments/Knapen_AOT/AOT_stimuli/rescaled_final/1431_fw.mp4	0.0	318.1265456676483	
61	267.9233138561249	fix_post	2		12	59.0	2.5	/experiments/Knapen_AOT/AOT_stimuli/rescaled_final/1431_fw.mp4	0.0	318.64519715309143	0.09997725486755371
62	268.02329111099243	fix_pre	0		119	60.0	2.5	/experiments/Knapen_AOT/AOT_stimuli/rescaled_final/1797_rv.mp4	0.0	318.745174407959	1.0085763931274414
62	269.0071725845337	pulse	0	t		60.0	2.5	/experiments/Knapen_AOT/AOT_stimuli/rescaled_final/1797_rv.mp4	0.0	319.72905588150024	
62	269.0318675041199	movie	1		275	60.0	2.5	/experiments/Knapen_AOT/AOT_stimuli/rescaled_final/1797_rv.mp4	0.0	319.7537508010864	2.4919369220733643
62	270.60735630989075	pulse	1	t		60.0	2.5	/experiments/Knapen_AOT/AOT_stimuli/rescaled_final/1797_rv.mp4	0.0	321.3292396068573	
62	271.52380442619324	fix_post	2		12	60.0	2.5	/experiments/Knapen_AOT/AOT_stimuli/rescaled_final/1797_rv.mp4	0.0	322.2456877231598	0.10002708435058594
63	271.6238315105438	fix_pre	0		120	61.0	2.5	/experiments/Knapen_AOT/AOT_stimuli/rescaled_final/0257_rv.mp4	0.0	322.3457148075104	1.008507490158081
63	272.20748353004456	pulse	0	t		61.0	2.5	/experiments/Knapen_AOT/AOT_stimuli/rescaled_final/0257_rv.mp4	0.0	322.9293668270111	
63	272.6323390007019	movie	1		284	61.0	2.5	/experiments/Knapen_AOT/AOT_stimuli/rescaled_final/0257_rv.mp4	0.0	323.35422229766846	2.492013692855835
63	273.8062391281128	pulse	1	t		61.0	2.5	/experiments/Knapen_AOT/AOT_stimuli/rescaled_final/0257_rv.mp4	0.0	324.52812242507935	
63	275.12435269355774	fix_post	2		12	61.0	2.5	/experiments/Knapen_AOT/AOT_stimuli/rescaled_final/0257_rv.mp4	0.0	325.8462359905243	0.10000920295715332
64	275.2243618965149	fix_pre	0		120	62.0	2.5	blank	1.0	325.94624519348145	1.0001366138458252
64	275.4080846309662	pulse	0	t		62.0	2.5	blank	1.0	326.12996792793274	
64	276.2244985103607	movie	1		300	62.0	2.5	blank	1.0	326.94638180732727	2.500396966934204
64	277.00839352607727	pulse	1	t		62.0	2.5	blank	1.0	327.7302768230438	
64	278.6085560321808	pulse	1	t		62.0	2.5	blank	1.0	329.33043932914734	
64	278.7248954772949	fix_post	2		12	62.0	2.5	blank	1.0	329.4467787742615	0.10001516342163086
65	278.82491064071655	fix_pre	0		120	63.0	2.5	/experiments/Knapen_AOT/AOT_stimuli/rescaled_final/1686_rv.mp4	0.0	329.5467939376831	1.008467435836792
65	279.83337807655334	movie	1		274	63.0	2.5	/experiments/Knapen_AOT/AOT_stimuli/rescaled_final/1686_rv.mp4	0.0	330.5552613735199	2.4920339584350586
65	280.2075254917145	pulse	1	t		63.0	2.5	/experiments/Knapen_AOT/AOT_stimuli/rescaled_final/1686_rv.mp4	0.0	330.92940878868103	
65	281.8070876598358	pulse	1	t		63.0	2.5	/experiments/Knapen_AOT/AOT_stimuli/rescaled_final/1686_rv.mp4	0.0	332.52897095680237	
65	282.3254120349884	fix_post	2		12	63.0	2.5	/experiments/Knapen_AOT/AOT_stimuli/rescaled_final/1686_rv.mp4	0.0	333.04729533195496	0.10002660751342773
66	282.42543864250183	fix_pre	0		119	64.0	2.5	/experiments/Knapen_AOT/AOT_stimuli/rescaled_final/0396_fw.mp4	0.0	333.1473219394684	1.0001564025878906
66	283.40913105010986	pulse	0	t		64.0	2.5	/experiments/Knapen_AOT/AOT_stimuli/rescaled_final/0396_fw.mp4	0.0	334.1310143470764	
66	283.4255950450897	movie	1		282	64.0	2.5	/experiments/Knapen_AOT/AOT_stimuli/rescaled_final/0396_fw.mp4	0.0	334.1474783420563	2.5003650188446045
66	285.0079975128174	pulse	1	t		64.0	2.5	/experiments/Knapen_AOT/AOT_stimuli/rescaled_final/0396_fw.mp4	0.0	335.72988080978394	
66	285.9259600639343	fix_post	2		12	64.0	2.5	/experiments/Knapen_AOT/AOT_stimuli/rescaled_final/0396_fw.mp4	0.0	336.6478433609009	0.1001131534576416
67	286.02607321739197	fix_pre	0		120	65.0	2.5	/experiments/Knapen_AOT/AOT_stimuli/rescaled_final/0533_rv.mp4	0.0	336.7479565143585	1.0084266662597656
67	286.6097078323364	pulse	0	t		65.0	2.5	/experiments/Knapen_AOT/AOT_stimuli/rescaled_final/0533_rv.mp4	0.0	337.331591129303	
67	287.03449988365173	movie	1		273	65.0	2.5	/experiments/Knapen_AOT/AOT_stimuli/rescaled_final/0533_rv.mp4	0.0	337.7563831806183	2.492002487182617
67	288.2086193561554	pulse	1	t		65.0	2.5	/experiments/Knapen_AOT/AOT_stimuli/rescaled_final/0533_rv.mp4	0.0	338.93050265312195	
67	289.52650237083435	fix_post	2		12	65.0	2.5	/experiments/Knapen_AOT/AOT_stimuli/rescaled_final/0533_rv.mp4	0.0	340.2483856678009	0.10002493858337402
68	289.6265273094177	fix_pre	0		120	66.0	2.5	/experiments/Knapen_AOT/AOT_stimuli/rescaled_final/2162_fw.mp4	0.0	340.3484106063843	1.0084805488586426
68	289.81006693840027	pulse	0	t		66.0	2.5	/experiments/Knapen_AOT/AOT_stimuli/rescaled_final/2162_fw.mp4	0.0	340.5319502353668	
68	290.63500785827637	movie	1		282	66.0	2.5	/experiments/Knapen_AOT/AOT_stimuli/rescaled_final/2162_fw.mp4	0.0	341.3568911552429	2.4920427799224854
68	291.408420085907	pulse	1	t		66.0	2.5	/experiments/Knapen_AOT/AOT_stimuli/rescaled_final/2162_fw.mp4	0.0	342.13030338287354	
68	293.00866627693176	pulse	1	t		66.0	2.5	/experiments/Knapen_AOT/AOT_stimuli/rescaled_final/2162_fw.mp4	0.0	343.7305495738983	
68	293.12705063819885	fix_post	2		12	66.0	2.5	/experiments/Knapen_AOT/AOT_stimuli/rescaled_final/2162_fw.mp4	0.0	343.8489339351654	0.10000920295715332
69	293.227059841156	fix_pre	0		120	67.0	2.5	/experiments/Knapen_AOT/AOT_stimuli/rescaled_final/1571_rv.mp4	0.0	343.94894313812256	1.0084812641143799
69	294.2355411052704	movie	1		285	67.0	2.5	/experiments/Knapen_AOT/AOT_stimuli/rescaled_final/1571_rv.mp4	0.0	344.95742440223694	2.4920654296875
69	294.6089403629303	pulse	1	t		67.0	2.5	/experiments/Knapen_AOT/AOT_stimuli/rescaled_final/1571_rv.mp4	0.0	345.33082365989685	
69	296.209153175354	pulse	1	t		67.0	2.5	/experiments/Knapen_AOT/AOT_stimuli/rescaled_final/1571_rv.mp4	0.0	346.93103647232056	
69	296.7276065349579	fix_post	2		12	67.0	2.5	/experiments/Knapen_AOT/AOT_stimuli/rescaled_final/1571_rv.mp4	0.0	347.44948983192444	0.10001778602600098
70	296.8276243209839	fix_pre	0		119	68.0	2.5	/experiments/Knapen_AOT/AOT_stimuli/rescaled_final/1069_fw.mp4	0.0	347.54950761795044	1.0001444816589355
70	297.81144285202026	pulse	0	t		68.0	2.5	/experiments/Knapen_AOT/AOT_stimuli/rescaled_final/1069_fw.mp4	0.0	348.5333261489868	
70	297.8277688026428	movie	1		279	68.0	2.5	/experiments/Knapen_AOT/AOT_stimuli/rescaled_final/1069_fw.mp4	0.0	348.5496520996094	2.500349283218384
70	299.4103116989136	pulse	1	t		68.0	2.5	/experiments/Knapen_AOT/AOT_stimuli/rescaled_final/1069_fw.mp4	0.0	350.1321949958801	
70	300.3281180858612	fix_post	2		12	68.0	2.5	/experiments/Knapen_AOT/AOT_stimuli/rescaled_final/1069_fw.mp4	0.0	351.05000138282776	0.10001850128173828
71	300.42813658714294	fix_pre	0		120	69.0	2.5	/experiments/Knapen_AOT/AOT_stimuli/rescaled_final/2088_fw.mp4	0.0	351.1500198841095	1.008606195449829
71	301.003947019577	pulse	0	t		69.0	2.5	/experiments/Knapen_AOT/AOT_stimuli/rescaled_final/2088_fw.mp4	0.0	351.7258303165436	
71	301.4367427825928	movie	1		284	69.0	2.5	/experiments/Knapen_AOT/AOT_stimuli/rescaled_final/2088_fw.mp4	0.0	352.1586260795593	2.491994619369507
71	302.6104414463043	pulse	1	t		69.0	2.5	/experiments/Knapen_AOT/AOT_stimuli/rescaled_final/2088_fw.mp4	0.0	353.3323247432709	
71	303.9287374019623	fix_post	2		12	69.0	2.5	/experiments/Knapen_AOT/AOT_stimuli/rescaled_final/2088_fw.mp4	0.0	354.65062069892883	0.09998154640197754
72	304.02871894836426	fix_pre	0		120	70.0	2.5	blank	1.0	354.7506022453308	1.0001771450042725
72	304.2044804096222	pulse	0	t		70.0	2.5	blank	1.0	354.92636370658875	
72	305.02889609336853	movie	1		300	70.0	2.5	blank	1.0	355.7507793903351	2.500339984893799
72	305.80490708351135	pulse	1	t		70.0	2.5	blank	1.0	356.5267903804779	
72	307.40488862991333	pulse	1	t		70.0	2.5	blank	1.0	358.1267719268799	
72	307.52923607826233	fix_post	2		12	70.0	2.5	blank	1.0	358.2511193752289	0.09999203681945801
73	307.6292281150818	fix_pre	0		120	71.0	2.5	/experiments/Knapen_AOT/AOT_stimuli/rescaled_final/0988_fw.mp4	0.0	358.35111141204834	1.0085561275482178
73	308.63778424263	movie	1		270	71.0	2.5	/experiments/Knapen_AOT/AOT_stimuli/rescaled_final/0988_fw.mp4	0.0	359.35966753959656	2.4919610023498535
73	309.0048141479492	pulse	1	t		71.0	2.5	/experiments/Knapen_AOT/AOT_stimuli/rescaled_final/0988_fw.mp4	0.0	359.72669744491577	
73	310.60489535331726	pulse	1	t		71.0	2.5	/experiments/Knapen_AOT/AOT_stimuli/rescaled_final/0988_fw.mp4	0.0	361.3267786502838	
73	311.12974524497986	fix_post	2		12	71.0	2.5	/experiments/Knapen_AOT/AOT_stimuli/rescaled_final/0988_fw.mp4	0.0	361.8516285419464	0.1000511646270752
74	311.22979640960693	fix_pre	0		118	72.0	2.5	/experiments/Knapen_AOT/AOT_stimuli/rescaled_final/1465_rv.mp4	0.0	361.9516797065735	0.9918055534362793
74	312.20539116859436	pulse	0	t		72.0	2.5	/experiments/Knapen_AOT/AOT_stimuli/rescaled_final/1465_rv.mp4	0.0	362.9272744655609	
74	312.2216019630432	movie	1		279	72.0	2.5	/experiments/Knapen_AOT/AOT_stimuli/rescaled_final/1465_rv.mp4	0.0	362.94348526000977	2.5003654956817627
74	313.804016828537	pulse	1	t		72.0	2.5	/experiments/Knapen_AOT/AOT_stimuli/rescaled_final/1465_rv.mp4	0.0	364.52590012550354	
74	314.721967458725	fix_post	2		12	72.0	2.5	/experiments/Knapen_AOT/AOT_stimuli/rescaled_final/1465_rv.mp4	0.0	365.4438507556915	0.10001802444458008
75	314.82198548316956	fix_pre	0		120	73.0	2.5	/experiments/Knapen_AOT/AOT_stimuli/rescaled_final/0371_rv.mp4	0.0	365.5438687801361	1.0084834098815918
75	315.4057855606079	pulse	0	t		73.0	2.5	/experiments/Knapen_AOT/AOT_stimuli/rescaled_final/0371_rv.mp4	0.0	366.12766885757446	
75	315.83046889305115	movie	1		284	73.0	2.5	/experiments/Knapen_AOT/AOT_stimuli/rescaled_final/0371_rv.mp4	0.0	366.5523521900177	2.492046594619751
75	317.0058124065399	pulse	1	t		73.0	2.5	/experiments/Knapen_AOT/AOT_stimuli/rescaled_final/0371_rv.mp4	0.0	367.72769570350647	
75	318.3225154876709	fix_post	2		12	73.0	2.5	/experiments/Knapen_AOT/AOT_stimuli/rescaled_final/0371_rv.mp4	0.0	369.04439878463745	0.10006928443908691
76	318.42258477211	fix_pre	0		120	74.0	2.5	/experiments/Knapen_AOT/AOT_stimuli/rescaled_final/0197_fw.mp4	0.0	369.14446806907654	1.0085885524749756
76	318.6062042713165	pulse	0	t		74.0	2.5	/experiments/Knapen_AOT/AOT_stimuli/rescaled_final/0197_fw.mp4	0.0	369.3280875682831	
76	319.43117332458496	movie	1		262	74.0	2.5	/experiments/Knapen_AOT/AOT_stimuli/rescaled_final/0197_fw.mp4	0.0	370.1530566215515	2.4918482303619385
76	320.20474123954773	pulse	1	t		74.0	2.5	/experiments/Knapen_AOT/AOT_stimuli/rescaled_final/0197_fw.mp4	0.0	370.9266245365143	
76	321.8046064376831	pulse	1	t		74.0	2.5	/experiments/Knapen_AOT/AOT_stimuli/rescaled_final/0197_fw.mp4	0.0	372.52648973464966	
76	321.9230215549469	fix_post	2		12	74.0	2.5	/experiments/Knapen_AOT/AOT_stimuli/rescaled_final/0197_fw.mp4	0.0	372.64490485191345	0.10004496574401855
77	322.0230665206909	fix_pre	0		120	75.0	2.5	blank	1.0	372.74494981765747	1.0001318454742432
77	323.02319836616516	movie	1		300	75.0	2.5	blank	1.0	373.7450816631317	2.5004515647888184
77	323.40694522857666	pulse	1	t		75.0	2.5	blank	1.0	374.1288285255432	
77	325.00703477859497	pulse	1	t		75.0	2.5	blank	1.0	375.7289180755615	
77	325.523649930954	fix_post	2		12	75.0	2.5	blank	1.0	376.24553322792053	0.09996795654296875
78	325.62361788749695	fix_pre	0		119	76.0	2.5	/experiments/Knapen_AOT/AOT_stimuli/rescaled_final/1030_fw.mp4	0.0	376.3455011844635	1.0001485347747803
78	326.6073970794678	pulse	0	t		76.0	2.5	/experiments/Knapen_AOT/AOT_stimuli/rescaled_final/1030_fw.mp4	0.0	377.3292803764343	
78	326.62376642227173	movie	1		281	76.0	2.5	/experiments/Knapen_AOT/AOT_stimuli/rescaled_final/1030_fw.mp4	0.0	377.3456497192383	2.5003774166107178
78	328.20660185813904	pulse	1	t		76.0	2.5	/experiments/Knapen_AOT/AOT_stimuli/rescaled_final/1030_fw.mp4	0.0	378.9284851551056	
78	329.12414383888245	fix_post	2		12	76.0	2.5	/experiments/Knapen_AOT/AOT_stimuli/rescaled_final/1030_fw.mp4	0.0	379.846027135849	0.10000157356262207
79	329.22414541244507	fix_pre	0		120	77.0	2.5	/experiments/Knapen_AOT/AOT_stimuli/rescaled_final/0655_fw.mp4	0.0	379.9460287094116	1.0084850788116455
79	329.8078570365906	pulse	0	t		77.0	2.5	/experiments/Knapen_AOT/AOT_stimuli/rescaled_final/0655_fw.mp4	0.0	380.52974033355713	
79	330.2326304912567	movie	1		276	77.0	2.5	/experiments/Knapen_AOT/AOT_stimuli/rescaled_final/0655_fw.mp4	0.0	380.95451378822327	2.4920480251312256
79	331.4061188697815	pulse	1	t		77.0	2.5	/experiments/Knapen_AOT/AOT_stimuli/rescaled_final/0655_fw.mp4	0.0	382.12800216674805	
79	332.72467851638794	fix_post	2		12	77.0	2.5	/experiments/Knapen_AOT/AOT_stimuli/rescaled_final/0655_fw.mp4	0.0	383.4465618133545	0.10013270378112793
80	332.82481122016907	fix_pre	0		120	78.0	2.5	/experiments/Knapen_AOT/AOT_stimuli/rescaled_final/1715_rv.mp4	0.0	383.5466945171356	1.008363962173462
80	333.0082459449768	pulse	0	t		78.0	2.5	/experiments/Knapen_AOT/AOT_stimuli/rescaled_final/1715_rv.mp4	0.0	383.73012924194336	
80	333.83317518234253	movie	1		270	78.0	2.5	/experiments/Knapen_AOT/AOT_stimuli/rescaled_final/1715_rv.mp4	0.0	384.5550584793091	2.4920647144317627
80	334.6077735424042	pulse	1	t		78.0	2.5	/experiments/Knapen_AOT/AOT_stimuli/rescaled_final/1715_rv.mp4	0.0	385.3296568393707	
80	336.2090928554535	pulse	1	t		78.0	2.5	/experiments/Knapen_AOT/AOT_stimuli/rescaled_final/1715_rv.mp4	0.0	386.93097615242004	
80	336.3252398967743	fix_post	2		12	78.0	2.5	/experiments/Knapen_AOT/AOT_stimuli/rescaled_final/1715_rv.mp4	0.0	387.04712319374084	0.09998893737792969
81	336.4252288341522	fix_pre	0		120	79.0	2.5	/experiments/Knapen_AOT/AOT_stimuli/rescaled_final/1165_fw.mp4	0.0	387.1471121311188	1.0085084438323975
81	337.4337372779846	movie	1		272	79.0	2.5	/experiments/Knapen_AOT/AOT_stimuli/rescaled_final/1165_fw.mp4	0.0	388.1556205749512	2.492003917694092
81	337.80803656578064	pulse	1	t		79.0	2.5	/experiments/Knapen_AOT/AOT_stimuli/rescaled_final/1165_fw.mp4	0.0	388.5299198627472	
81	339.4077365398407	pulse	1	t		79.0	2.5	/experiments/Knapen_AOT/AOT_stimuli/rescaled_final/1165_fw.mp4	0.0	390.12961983680725	
81	339.9257411956787	fix_post	2		12	79.0	2.5	/experiments/Knapen_AOT/AOT_stimuli/rescaled_final/1165_fw.mp4	0.0	390.64762449264526	0.10000491142272949
82	340.02574610710144	fix_pre	0		119	80.0	2.5	/experiments/Knapen_AOT/AOT_stimuli/rescaled_final/0214_rv.mp4	0.0	390.747629404068	1.0002806186676025
82	341.0095052719116	pulse	0	t		80.0	2.5	/experiments/Knapen_AOT/AOT_stimuli/rescaled_final/0214_rv.mp4	0.0	391.7313885688782	
82	341.02602672576904	movie	1		271	80.0	2.5	/experiments/Knapen_AOT/AOT_stimuli/rescaled_final/0214_rv.mp4	0.0	391.7479100227356	2.500270366668701
82	342.6084351539612	pulse	1	t		80.0	2.5	/experiments/Knapen_AOT/AOT_stimuli/rescaled_final/0214_rv.mp4	0.0	393.33031845092773	
82	343.52629709243774	fix_post	2		12	80.0	2.5	/experiments/Knapen_AOT/AOT_stimuli/rescaled_final/0214_rv.mp4	0.0	394.2481803894043	0.1000056266784668
83	343.6263027191162	fix_pre	0		120	81.0	2.5	/experiments/Knapen_AOT/AOT_stimuli/rescaled_final/1849_rv.mp4	0.0	394.34818601608276	1.0085010528564453
83	344.20999336242676	pulse	0	t		81.0	2.5	/experiments/Knapen_AOT/AOT_stimuli/rescaled_final/1849_rv.mp4	0.0	394.9318766593933	
83	344.63480377197266	movie	1		288	81.0	2.5	/experiments/Knapen_AOT/AOT_stimuli/rescaled_final/1849_rv.mp4	0.0	395.3566870689392	2.492048978805542
83	345.8083350658417	pulse	1	t		81.0	2.5	/experiments/Knapen_AOT/AOT_stimuli/rescaled_final/1849_rv.mp4	0.0	396.5302183628082	
83	347.1268527507782	fix_post	2		12	81.0	2.5	/experiments/Knapen_AOT/AOT_stimuli/rescaled_final/1849_rv.mp4	0.0	397.84873604774475	0.10002255439758301
84	347.2268753051758	fix_pre	0		120	82.0	2.5	/experiments/Knapen_AOT/AOT_stimuli/rescaled_final/1156_fw.mp4	0.0	397.94875860214233	1.0085070133209229
84	347.40379452705383	pulse	0	t		82.0	2.5	/experiments/Knapen_AOT/AOT_stimuli/rescaled_final/1156_fw.mp4	0.0	398.1256778240204	
84	348.2353823184967	movie	1		285	82.0	2.5	/experiments/Knapen_AOT/AOT_stimuli/rescaled_final/1156_fw.mp4	0.0	398.95726561546326	2.4920105934143066
84	349.00892305374146	pulse	1	t		82.0	2.5	/experiments/Knapen_AOT/AOT_stimuli/rescaled_final/1156_fw.mp4	0.0	399.730806350708	
84	350.60891342163086	pulse	1	t		82.0	2.5	/experiments/Knapen_AOT/AOT_stimuli/rescaled_final/1156_fw.mp4	0.0	401.3307967185974	
84	350.727392911911	fix_post	2		12	82.0	2.5	/experiments/Knapen_AOT/AOT_stimuli/rescaled_final/1156_fw.mp4	0.0	401.44927620887756	0.10002398490905762
85	350.82741689682007	fix_pre	0		120	83.0	2.5	blank	1.0	401.5493001937866	1.0001256465911865
85	351.82754254341125	movie	1		300	83.0	2.5	blank	1.0	402.5494258403778	2.500358819961548
85	352.20444440841675	pulse	1	t		83.0	2.5	blank	1.0	402.9263277053833	
85	353.80361914634705	pulse	1	t		83.0	2.5	blank	1.0	404.5255024433136	
85	354.3279013633728	fix_post	2		12	83.0	2.5	blank	1.0	405.04978466033936	0.09999465942382812
87	354.42789602279663	stim	0		1715					405.1497793197632	14.293844223022461
87	355.40348410606384	pulse	0	t						406.1253674030304	
87	357.00393414497375	pulse	0	t						407.7258174419403	
87	358.60415625572205	pulse	0	t						409.3260395526886	
87	360.20429491996765	pulse	0	t						410.9261782169342	
87	361.8045103549957	pulse	0	t						412.5263936519623	
87	363.40490651130676	pulse	0	t						414.1267898082733	
87	365.0047724246979	pulse	0	t						415.72665572166443	
87	366.6051859855652	pulse	0	t						417.32706928253174	
87	368.2052175998688	pulse	0	t						418.9271008968353	
