trial_nr	onset	event_type	phase	response	nr_frames	movie_index	movie_duration	movie_file	blank	onset_abs	duration
0	0.2083451747894287	stim	0		149					23.770580053329468	1.2417168617248535
0	1.4420959949493408	response	0	space						25.00433087348938	
1	1.4500620365142822	stim	0		4434					25.01229691505432	36.966034173965454
1	38.406170129776	pulse	0	t						61.96840500831604	
1	38.416096210479736	stim	1		1715					61.978331089019775	14.299948930740356
1	39.99778199195862	pulse	1	t						63.56001687049866	
1	41.59801912307739	pulse	1	t						65.16025400161743	
1	43.190739154815674	pulse	1	t						66.75297403335571	
1	44.790945053100586	pulse	1	t						68.35317993164062	
1	46.39105200767517	pulse	1	t						69.95328688621521	
1	47.99059200286865	pulse	1	t						71.55282688140869	
1	49.59066605567932	pulse	1	t						73.15290093421936	
1	51.1909441947937	pulse	1	t						74.75317907333374	
2	52.71604514122009	fix_pre	0		10	0.0	2.5	/experiments/knapen_AOT/AOT_stimuli/rescaled_final/1833_fw.mp4	0.0	76.27828001976013	0.08336305618286133
2	52.79120898246765	pulse	0	t		0.0	2.5	/experiments/knapen_AOT/AOT_stimuli/rescaled_final/1833_fw.mp4	0.0	76.35344386100769	
2	52.799408197402954	movie	1		243	0.0	2.5	/experiments/knapen_AOT/AOT_stimuli/rescaled_final/1833_fw.mp4	0.0	76.361643075943	2.5086669921875
2	54.39220714569092	pulse	1	t		0.0	2.5	/experiments/knapen_AOT/AOT_stimuli/rescaled_final/1833_fw.mp4	0.0	77.95444202423096	
2	55.308075189590454	fix_post	2		12	0.0	2.5	/experiments/knapen_AOT/AOT_stimuli/rescaled_final/1833_fw.mp4	0.0	78.8703100681305	0.10003185272216797
3	55.40810704231262	fix_pre	0		120	1.0	2.5	/experiments/knapen_AOT/AOT_stimuli/rescaled_final/1918_fw.mp4	0.0	78.97034192085266	1.0001699924468994
3	55.991836071014404	pulse	0	t		1.0	2.5	/experiments/knapen_AOT/AOT_stimuli/rescaled_final/1918_fw.mp4	0.0	79.55407094955444	
3	56.40827703475952	movie	1		243	1.0	2.5	/experiments/knapen_AOT/AOT_stimuli/rescaled_final/1918_fw.mp4	0.0	79.97051191329956	2.5003509521484375
3	57.59213709831238	pulse	1	t		1.0	2.5	/experiments/knapen_AOT/AOT_stimuli/rescaled_final/1918_fw.mp4	0.0	81.15437197685242	
3	58.90862798690796	fix_post	2		12	1.0	2.5	/experiments/knapen_AOT/AOT_stimuli/rescaled_final/1918_fw.mp4	0.0	82.470862865448	0.10003399848937988
4	59.00866198539734	fix_pre	0		120	2.0	2.5	/experiments/knapen_AOT/AOT_stimuli/rescaled_final/0059_rv.mp4	0.0	82.57089686393738	1.0001270771026611
4	59.19223117828369	pulse	0	t		2.0	2.5	/experiments/knapen_AOT/AOT_stimuli/rescaled_final/0059_rv.mp4	0.0	82.75446605682373	
4	60.0087890625	movie	1		243	2.0	2.5	/experiments/knapen_AOT/AOT_stimuli/rescaled_final/0059_rv.mp4	0.0	83.57102394104004	2.500370979309082
4	60.79240417480469	pulse	1	t		2.0	2.5	/experiments/knapen_AOT/AOT_stimuli/rescaled_final/0059_rv.mp4	0.0	84.35463905334473	
4	62.392497062683105	pulse	1	t		2.0	2.5	/experiments/knapen_AOT/AOT_stimuli/rescaled_final/0059_rv.mp4	0.0	85.95473194122314	
4	62.50916004180908	fix_post	2		12	2.0	2.5	/experiments/knapen_AOT/AOT_stimuli/rescaled_final/0059_rv.mp4	0.0	86.07139492034912	0.10003900527954102
5	62.60919904708862	fix_pre	0		119	3.0	2.5	/experiments/knapen_AOT/AOT_stimuli/rescaled_final/1424_fw.mp4	0.0	86.17143392562866	0.9918169975280762
5	63.6010160446167	movie	1		244	3.0	2.5	/experiments/knapen_AOT/AOT_stimuli/rescaled_final/1424_fw.mp4	0.0	87.16325092315674	2.500359058380127
5	63.99313712120056	pulse	1	t		3.0	2.5	/experiments/knapen_AOT/AOT_stimuli/rescaled_final/1424_fw.mp4	0.0	87.5553719997406	
5	65.59324216842651	pulse	1	t		3.0	2.5	/experiments/knapen_AOT/AOT_stimuli/rescaled_final/1424_fw.mp4	0.0	89.15547704696655	
5	66.10137510299683	fix_post	2		12	3.0	2.5	/experiments/knapen_AOT/AOT_stimuli/rescaled_final/1424_fw.mp4	0.0	89.66360998153687	0.10005402565002441
6	66.20142912864685	fix_pre	0		120	4.0	2.5	/experiments/knapen_AOT/AOT_stimuli/rescaled_final/0775_rv.mp4	0.0	89.76366400718689	1.000180959701538
6	67.1933810710907	pulse	0	t		4.0	2.5	/experiments/knapen_AOT/AOT_stimuli/rescaled_final/0775_rv.mp4	0.0	90.75561594963074	
6	67.20161008834839	movie	1		245	4.0	2.5	/experiments/knapen_AOT/AOT_stimuli/rescaled_final/0775_rv.mp4	0.0	90.76384496688843	2.5086240768432617
6	68.79398202896118	pulse	1	t		4.0	2.5	/experiments/knapen_AOT/AOT_stimuli/rescaled_final/0775_rv.mp4	0.0	92.35621690750122	
6	69.71023416519165	fix_post	2		12	4.0	2.5	/experiments/knapen_AOT/AOT_stimuli/rescaled_final/0775_rv.mp4	0.0	93.27246904373169	0.1000528335571289
7	69.81028699874878	fix_pre	0		120	5.0	2.5	/experiments/knapen_AOT/AOT_stimuli/rescaled_final/0031_fw.mp4	0.0	93.37252187728882	1.0001680850982666
7	70.39399099349976	pulse	0	t		5.0	2.5	/experiments/knapen_AOT/AOT_stimuli/rescaled_final/0031_fw.mp4	0.0	93.9562258720398	
7	70.81045508384705	movie	1		245	5.0	2.5	/experiments/knapen_AOT/AOT_stimuli/rescaled_final/0031_fw.mp4	0.0	94.37268996238708	2.5003809928894043
7	71.99420499801636	pulse	1	t		5.0	2.5	/experiments/knapen_AOT/AOT_stimuli/rescaled_final/0031_fw.mp4	0.0	95.5564398765564	
7	73.31083607673645	fix_post	2		12	5.0	2.5	/experiments/knapen_AOT/AOT_stimuli/rescaled_final/0031_fw.mp4	0.0	96.87307095527649	0.10000896453857422
8	73.41084504127502	fix_pre	0		120	6.0	2.5	blank	1.0	96.97307991981506	1.0001730918884277
8	73.59434700012207	pulse	0	t		6.0	2.5	blank	1.0	97.15658187866211	
8	74.41101813316345	movie	1		300	6.0	2.5	blank	1.0	97.97325301170349	2.5004119873046875
8	75.19461107254028	pulse	1	t		6.0	2.5	blank	1.0	98.75684595108032	
8	76.79487609863281	pulse	1	t		6.0	2.5	blank	1.0	100.35711097717285	
8	76.91143012046814	fix_post	2		12	6.0	2.5	blank	1.0	100.47366499900818	0.09994196891784668
9	77.01137208938599	fix_pre	0		119	7.0	2.5	/experiments/knapen_AOT/AOT_stimuli/rescaled_final/0912_rv.mp4	0.0	100.57360696792603	0.9917929172515869
9	78.00316500663757	movie	1		244	7.0	2.5	/experiments/knapen_AOT/AOT_stimuli/rescaled_final/0912_rv.mp4	0.0	101.56539988517761	2.5004332065582275
9	78.39526605606079	pulse	1	t		7.0	2.5	/experiments/knapen_AOT/AOT_stimuli/rescaled_final/0912_rv.mp4	0.0	101.95750093460083	
9	79.99530720710754	pulse	1	t		7.0	2.5	/experiments/knapen_AOT/AOT_stimuli/rescaled_final/0912_rv.mp4	0.0	103.55754208564758	
9	80.5035982131958	fix_post	2		12	7.0	2.5	/experiments/knapen_AOT/AOT_stimuli/rescaled_final/0912_rv.mp4	0.0	104.06583309173584	0.09994792938232422
10	80.60354614257812	fix_pre	0		120	8.0	2.5	/experiments/knapen_AOT/AOT_stimuli/rescaled_final/2141_fw.mp4	0.0	104.16578102111816	1.0001919269561768
10	81.5956540107727	pulse	0	t		8.0	2.5	/experiments/knapen_AOT/AOT_stimuli/rescaled_final/2141_fw.mp4	0.0	105.15788888931274	
10	81.6037380695343	movie	1		244	8.0	2.5	/experiments/knapen_AOT/AOT_stimuli/rescaled_final/2141_fw.mp4	0.0	105.16597294807434	2.5086669921875
10	83.19640111923218	pulse	1	t		8.0	2.5	/experiments/knapen_AOT/AOT_stimuli/rescaled_final/2141_fw.mp4	0.0	106.75863599777222	
10	84.1124050617218	fix_post	2		12	8.0	2.5	/experiments/knapen_AOT/AOT_stimuli/rescaled_final/2141_fw.mp4	0.0	107.67463994026184	0.10002708435058594
11	84.21243214607239	fix_pre	0		120	9.0	2.5	/experiments/knapen_AOT/AOT_stimuli/rescaled_final/0439_fw.mp4	0.0	107.77466702461243	1.0002260208129883
11	84.79609608650208	pulse	0	t		9.0	2.5	/experiments/knapen_AOT/AOT_stimuli/rescaled_final/0439_fw.mp4	0.0	108.35833096504211	
11	85.21265816688538	movie	1		244	9.0	2.5	/experiments/knapen_AOT/AOT_stimuli/rescaled_final/0439_fw.mp4	0.0	108.77489304542542	2.500316858291626
11	86.39649105072021	pulse	1	t		9.0	2.5	/experiments/knapen_AOT/AOT_stimuli/rescaled_final/0439_fw.mp4	0.0	109.95872592926025	
11	87.712975025177	fix_post	2		12	9.0	2.5	/experiments/knapen_AOT/AOT_stimuli/rescaled_final/0439_fw.mp4	0.0	111.27520990371704	0.0999901294708252
12	87.81296515464783	fix_pre	0		120	10.0	2.5	/experiments/knapen_AOT/AOT_stimuli/rescaled_final/2020_fw.mp4	0.0	111.37520003318787	1.0001959800720215
12	87.99652409553528	pulse	0	t		10.0	2.5	/experiments/knapen_AOT/AOT_stimuli/rescaled_final/2020_fw.mp4	0.0	111.55875897407532	
12	88.81316113471985	movie	1		243	10.0	2.5	/experiments/knapen_AOT/AOT_stimuli/rescaled_final/2020_fw.mp4	0.0	112.37539601325989	2.5003068447113037
12	89.59679818153381	pulse	1	t		10.0	2.5	/experiments/knapen_AOT/AOT_stimuli/rescaled_final/2020_fw.mp4	0.0	113.15903306007385	
12	91.19706416130066	pulse	1	t		10.0	2.5	/experiments/knapen_AOT/AOT_stimuli/rescaled_final/2020_fw.mp4	0.0	114.7592990398407	
12	91.31346797943115	fix_post	2		12	10.0	2.5	/experiments/knapen_AOT/AOT_stimuli/rescaled_final/2020_fw.mp4	0.0	114.87570285797119	0.10004305839538574
13	91.41351103782654	fix_pre	0		120	11.0	2.5	/experiments/knapen_AOT/AOT_stimuli/rescaled_final/0681_fw.mp4	0.0	114.97574591636658	1.0001330375671387
13	92.41364407539368	movie	1		242	11.0	2.5	/experiments/knapen_AOT/AOT_stimuli/rescaled_final/0681_fw.mp4	0.0	115.97587895393372	2.4920380115509033
13	92.80234909057617	pulse	1	t		11.0	2.5	/experiments/knapen_AOT/AOT_stimuli/rescaled_final/0681_fw.mp4	0.0	116.36458396911621	
13	94.39025020599365	pulse	1	t		11.0	2.5	/experiments/knapen_AOT/AOT_stimuli/rescaled_final/0681_fw.mp4	0.0	117.95248508453369	
13	94.90568208694458	fix_post	2		12	11.0	2.5	/experiments/knapen_AOT/AOT_stimuli/rescaled_final/0681_fw.mp4	0.0	118.46791696548462	0.1000211238861084
14	95.00570321083069	fix_pre	0		120	12.0	2.5	/experiments/knapen_AOT/AOT_stimuli/rescaled_final/0428_fw.mp4	0.0	118.56793808937073	1.0002069473266602
14	95.99023818969727	pulse	0	t		12.0	2.5	/experiments/knapen_AOT/AOT_stimuli/rescaled_final/0428_fw.mp4	0.0	119.5524730682373	
14	96.00591015815735	movie	1		246	12.0	2.5	/experiments/knapen_AOT/AOT_stimuli/rescaled_final/0428_fw.mp4	0.0	119.56814503669739	2.5086259841918945
14	97.59881114959717	pulse	1	t		12.0	2.5	/experiments/knapen_AOT/AOT_stimuli/rescaled_final/0428_fw.mp4	0.0	121.1610460281372	
14	98.51453614234924	fix_post	2		12	12.0	2.5	/experiments/knapen_AOT/AOT_stimuli/rescaled_final/0428_fw.mp4	0.0	122.07677102088928	0.10003995895385742
15	98.6145761013031	fix_pre	0		120	13.0	2.5	blank	1.0	122.17681097984314	1.0001459121704102
15	99.19074702262878	pulse	0	t		13.0	2.5	blank	1.0	122.75298190116882	
15	99.61472201347351	movie	1		297	13.0	2.5	blank	1.0	123.17695689201355	2.5003931522369385
15	100.79093909263611	pulse	1	t		13.0	2.5	blank	1.0	124.35317397117615	
15	102.11511516571045	fix_post	2		12	13.0	2.5	blank	1.0	125.67735004425049	0.09996294975280762
16	102.21507811546326	fix_pre	0		120	14.0	2.5	/experiments/knapen_AOT/AOT_stimuli/rescaled_final/0552_rv.mp4	0.0	125.7773129940033	1.0001730918884277
16	102.39040398597717	pulse	0	t		14.0	2.5	/experiments/knapen_AOT/AOT_stimuli/rescaled_final/0552_rv.mp4	0.0	125.95263886451721	
16	103.21525120735168	movie	1		244	14.0	2.5	/experiments/knapen_AOT/AOT_stimuli/rescaled_final/0552_rv.mp4	0.0	126.77748608589172	2.500365972518921
16	103.99050307273865	pulse	1	t		14.0	2.5	/experiments/knapen_AOT/AOT_stimuli/rescaled_final/0552_rv.mp4	0.0	127.55273795127869	
16	105.59075903892517	pulse	1	t		14.0	2.5	/experiments/knapen_AOT/AOT_stimuli/rescaled_final/0552_rv.mp4	0.0	129.1529939174652	
16	105.7156171798706	fix_post	2		12	14.0	2.5	/experiments/knapen_AOT/AOT_stimuli/rescaled_final/0552_rv.mp4	0.0	129.27785205841064	0.1000218391418457
17	105.81563901901245	fix_pre	0		119	15.0	2.5	/experiments/knapen_AOT/AOT_stimuli/rescaled_final/0374_rv.mp4	0.0	129.3778738975525	0.9918251037597656
17	106.80746412277222	movie	1		244	15.0	2.5	/experiments/knapen_AOT/AOT_stimuli/rescaled_final/0374_rv.mp4	0.0	130.36969900131226	2.5003468990325928
17	107.19182920455933	pulse	1	t		15.0	2.5	/experiments/knapen_AOT/AOT_stimuli/rescaled_final/0374_rv.mp4	0.0	130.75406408309937	
17	108.79121708869934	pulse	1	t		15.0	2.5	/experiments/knapen_AOT/AOT_stimuli/rescaled_final/0374_rv.mp4	0.0	132.35345196723938	
17	109.30781102180481	fix_post	2		12	15.0	2.5	/experiments/knapen_AOT/AOT_stimuli/rescaled_final/0374_rv.mp4	0.0	132.87004590034485	0.10009407997131348
18	109.40790510177612	fix_pre	0		119	16.0	2.5	/experiments/knapen_AOT/AOT_stimuli/rescaled_final/0519_rv.mp4	0.0	132.97013998031616	0.9917399883270264
18	110.39156818389893	pulse	0	t		16.0	2.5	/experiments/knapen_AOT/AOT_stimuli/rescaled_final/0519_rv.mp4	0.0	133.95380306243896	
18	110.39964509010315	movie	1		245	16.0	2.5	/experiments/knapen_AOT/AOT_stimuli/rescaled_final/0519_rv.mp4	0.0	133.9618799686432	2.5087311267852783
18	111.99210500717163	pulse	1	t		16.0	2.5	/experiments/knapen_AOT/AOT_stimuli/rescaled_final/0519_rv.mp4	0.0	135.55433988571167	
18	112.90837621688843	fix_post	2		12	16.0	2.5	/experiments/knapen_AOT/AOT_stimuli/rescaled_final/0519_rv.mp4	0.0	136.47061109542847	0.10001897811889648
19	113.00839519500732	fix_pre	0		120	17.0	2.5	/experiments/knapen_AOT/AOT_stimuli/rescaled_final/0131_rv.mp4	0.0	136.57063007354736	1.0001709461212158
19	113.59197616577148	pulse	0	t		17.0	2.5	/experiments/knapen_AOT/AOT_stimuli/rescaled_final/0131_rv.mp4	0.0	137.15421104431152	
19	114.00856614112854	movie	1		243	17.0	2.5	/experiments/knapen_AOT/AOT_stimuli/rescaled_final/0131_rv.mp4	0.0	137.57080101966858	2.500324010848999
19	115.19229698181152	pulse	1	t		17.0	2.5	/experiments/knapen_AOT/AOT_stimuli/rescaled_final/0131_rv.mp4	0.0	138.75453186035156	
19	116.50889015197754	fix_post	2		12	17.0	2.5	/experiments/knapen_AOT/AOT_stimuli/rescaled_final/0131_rv.mp4	0.0	140.07112503051758	0.10007500648498535
20	116.60896515846252	fix_pre	0		120	18.0	2.5	/experiments/knapen_AOT/AOT_stimuli/rescaled_final/0321_fw.mp4	0.0	140.17120003700256	1.000143051147461
20	116.79256916046143	pulse	0	t		18.0	2.5	/experiments/knapen_AOT/AOT_stimuli/rescaled_final/0321_fw.mp4	0.0	140.35480403900146	
20	117.60910820960999	movie	1		243	18.0	2.5	/experiments/knapen_AOT/AOT_stimuli/rescaled_final/0321_fw.mp4	0.0	141.17134308815002	2.500316858291626
20	118.39277505874634	pulse	1	t		18.0	2.5	/experiments/knapen_AOT/AOT_stimuli/rescaled_final/0321_fw.mp4	0.0	141.95500993728638	
20	119.99273920059204	pulse	1	t		18.0	2.5	/experiments/knapen_AOT/AOT_stimuli/rescaled_final/0321_fw.mp4	0.0	143.55497407913208	
20	120.10942506790161	fix_post	2		12	18.0	2.5	/experiments/knapen_AOT/AOT_stimuli/rescaled_final/0321_fw.mp4	0.0	143.67165994644165	0.10012507438659668
21	120.20955014228821	fix_pre	0		120	19.0	2.5	/experiments/knapen_AOT/AOT_stimuli/rescaled_final/2097_rv.mp4	0.0	143.77178502082825	1.0000829696655273
21	121.20963311195374	movie	1		242	19.0	2.5	/experiments/knapen_AOT/AOT_stimuli/rescaled_final/2097_rv.mp4	0.0	144.77186799049377	2.4920458793640137
21	121.59374618530273	pulse	1	t		19.0	2.5	/experiments/knapen_AOT/AOT_stimuli/rescaled_final/2097_rv.mp4	0.0	145.15598106384277	
21	123.19343709945679	pulse	1	t		19.0	2.5	/experiments/knapen_AOT/AOT_stimuli/rescaled_final/2097_rv.mp4	0.0	146.75567197799683	
21	123.70167899131775	fix_post	2		12	19.0	2.5	/experiments/knapen_AOT/AOT_stimuli/rescaled_final/2097_rv.mp4	0.0	147.2639138698578	0.10003209114074707
22	123.8017110824585	fix_pre	0		120	20.0	2.5	/experiments/knapen_AOT/AOT_stimuli/rescaled_final/0282_rv.mp4	0.0	147.36394596099854	1.0001029968261719
22	124.79379320144653	pulse	0	t		20.0	2.5	/experiments/knapen_AOT/AOT_stimuli/rescaled_final/0282_rv.mp4	0.0	148.35602807998657	
22	124.80181407928467	movie	1		244	20.0	2.5	/experiments/knapen_AOT/AOT_stimuli/rescaled_final/0282_rv.mp4	0.0	148.3640489578247	2.5087029933929443
22	126.39444899559021	pulse	1	t		20.0	2.5	/experiments/knapen_AOT/AOT_stimuli/rescaled_final/0282_rv.mp4	0.0	149.95668387413025	
22	127.31051707267761	fix_post	2		12	20.0	2.5	/experiments/knapen_AOT/AOT_stimuli/rescaled_final/0282_rv.mp4	0.0	150.87275195121765	0.10009908676147461
23	127.41061615943909	fix_pre	0		120	21.0	2.5	blank	1.0	150.97285103797913	1.0000519752502441
23	127.9941520690918	pulse	0	t		21.0	2.5	blank	1.0	151.55638694763184	
23	128.41066813468933	movie	1		300	21.0	2.5	blank	1.0	151.97290301322937	2.500391960144043
23	129.5943741798401	pulse	1	t		21.0	2.5	blank	1.0	153.15660905838013	
23	130.91106009483337	fix_post	2		12	21.0	2.5	blank	1.0	154.4732949733734	0.10000491142272949
24	131.0110650062561	fix_pre	0		120	22.0	2.5	/experiments/knapen_AOT/AOT_stimuli/rescaled_final/0059_fw.mp4	0.0	154.57329988479614	1.0001301765441895
24	131.194669008255	pulse	0	t		22.0	2.5	/experiments/knapen_AOT/AOT_stimuli/rescaled_final/0059_fw.mp4	0.0	154.75690388679504	
24	132.0111951828003	movie	1		244	22.0	2.5	/experiments/knapen_AOT/AOT_stimuli/rescaled_final/0059_fw.mp4	0.0	155.57343006134033	2.5003788471221924
24	132.79498720169067	pulse	1	t		22.0	2.5	/experiments/knapen_AOT/AOT_stimuli/rescaled_final/0059_fw.mp4	0.0	156.3572220802307	
24	134.3951849937439	pulse	1	t		22.0	2.5	/experiments/knapen_AOT/AOT_stimuli/rescaled_final/0059_fw.mp4	0.0	157.95741987228394	
24	134.51157402992249	fix_post	2		12	22.0	2.5	/experiments/knapen_AOT/AOT_stimuli/rescaled_final/0059_fw.mp4	0.0	158.07380890846252	0.10006999969482422
25	134.6116440296173	fix_pre	0		120	23.0	2.5	/experiments/knapen_AOT/AOT_stimuli/rescaled_final/1567_rv.mp4	0.0	158.17387890815735	1.000157117843628
25	135.61180114746094	movie	1		243	23.0	2.5	/experiments/knapen_AOT/AOT_stimuli/rescaled_final/1567_rv.mp4	0.0	159.17403602600098	2.4920289516448975
25	135.9959681034088	pulse	1	t		23.0	2.5	/experiments/knapen_AOT/AOT_stimuli/rescaled_final/1567_rv.mp4	0.0	159.55820298194885	
25	137.59567999839783	pulse	1	t		23.0	2.5	/experiments/knapen_AOT/AOT_stimuli/rescaled_final/1567_rv.mp4	0.0	161.15791487693787	
25	138.10383009910583	fix_post	2		12	23.0	2.5	/experiments/knapen_AOT/AOT_stimuli/rescaled_final/1567_rv.mp4	0.0	161.66606497764587	0.10001206398010254
26	138.20384216308594	fix_pre	0		120	24.0	2.5	/experiments/knapen_AOT/AOT_stimuli/rescaled_final/1369_rv.mp4	0.0	161.76607704162598	1.0001749992370605
26	139.1959981918335	pulse	0	t		24.0	2.5	/experiments/knapen_AOT/AOT_stimuli/rescaled_final/1369_rv.mp4	0.0	162.75823307037354	
26	139.204017162323	movie	1		244	24.0	2.5	/experiments/knapen_AOT/AOT_stimuli/rescaled_final/1369_rv.mp4	0.0	162.76625204086304	2.508631944656372
26	140.7965681552887	pulse	1	t		24.0	2.5	/experiments/knapen_AOT/AOT_stimuli/rescaled_final/1369_rv.mp4	0.0	164.35880303382874	
26	141.71264910697937	fix_post	2		12	24.0	2.5	/experiments/knapen_AOT/AOT_stimuli/rescaled_final/1369_rv.mp4	0.0	165.2748839855194	0.10014200210571289
27	141.81279110908508	fix_pre	0		120	25.0	2.5	/experiments/knapen_AOT/AOT_stimuli/rescaled_final/0057_fw.mp4	0.0	165.37502598762512	1.0000250339508057
27	142.39628100395203	pulse	0	t		25.0	2.5	/experiments/knapen_AOT/AOT_stimuli/rescaled_final/0057_fw.mp4	0.0	165.95851588249207	
27	142.8128161430359	movie	1		245	25.0	2.5	/experiments/knapen_AOT/AOT_stimuli/rescaled_final/0057_fw.mp4	0.0	166.37505102157593	2.50039005279541
27	143.99663305282593	pulse	1	t		25.0	2.5	/experiments/knapen_AOT/AOT_stimuli/rescaled_final/0057_fw.mp4	0.0	167.55886793136597	
27	145.3132061958313	fix_post	2		12	25.0	2.5	/experiments/knapen_AOT/AOT_stimuli/rescaled_final/0057_fw.mp4	0.0	168.87544107437134	0.10000491142272949
28	145.41321110725403	fix_pre	0		120	26.0	2.5	/experiments/knapen_AOT/AOT_stimuli/rescaled_final/0450_fw.mp4	0.0	168.97544598579407	1.0001769065856934
28	145.5969090461731	pulse	0	t		26.0	2.5	/experiments/knapen_AOT/AOT_stimuli/rescaled_final/0450_fw.mp4	0.0	169.15914392471313	
28	146.41338801383972	movie	1		244	26.0	2.5	/experiments/knapen_AOT/AOT_stimuli/rescaled_final/0450_fw.mp4	0.0	169.97562289237976	2.500336170196533
28	147.19714498519897	pulse	1	t		26.0	2.5	/experiments/knapen_AOT/AOT_stimuli/rescaled_final/0450_fw.mp4	0.0	170.759379863739	
28	148.79572105407715	pulse	1	t		26.0	2.5	/experiments/knapen_AOT/AOT_stimuli/rescaled_final/0450_fw.mp4	0.0	172.3579559326172	
28	148.91372418403625	fix_post	2		12	26.0	2.5	/experiments/knapen_AOT/AOT_stimuli/rescaled_final/0450_fw.mp4	0.0	172.4759590625763	0.10015082359313965
29	149.0138750076294	fix_pre	0		120	27.0	2.5	/experiments/knapen_AOT/AOT_stimuli/rescaled_final/0356_rv.mp4	0.0	172.57610988616943	1.0000290870666504
29	150.01390409469604	movie	1		242	27.0	2.5	/experiments/knapen_AOT/AOT_stimuli/rescaled_final/0356_rv.mp4	0.0	173.57613897323608	2.4920530319213867
29	150.39790606498718	pulse	1	t		27.0	2.5	/experiments/knapen_AOT/AOT_stimuli/rescaled_final/0356_rv.mp4	0.0	173.96014094352722	
29	151.990394115448	pulse	1	t		27.0	2.5	/experiments/knapen_AOT/AOT_stimuli/rescaled_final/0356_rv.mp4	0.0	175.55262899398804	
29	152.50595712661743	fix_post	2		12	27.0	2.5	/experiments/knapen_AOT/AOT_stimuli/rescaled_final/0356_rv.mp4	0.0	176.06819200515747	0.10007405281066895
30	152.6060311794281	fix_pre	0		120	28.0	2.5	blank	1.0	176.16826605796814	1.0000638961791992
30	153.5904631614685	pulse	0	t		28.0	2.5	blank	1.0	177.15269804000854	
30	153.6060950756073	movie	1		301	28.0	2.5	blank	1.0	177.16832995414734	2.508711099624634
30	155.1907081604004	pulse	1	t		28.0	2.5	blank	1.0	178.75294303894043	
30	156.11480617523193	fix_post	2		12	28.0	2.5	blank	1.0	179.67704105377197	0.1001749038696289
31	156.21498107910156	fix_pre	0		120	29.0	2.5	/experiments/knapen_AOT/AOT_stimuli/rescaled_final/0270_fw.mp4	0.0	179.7772159576416	1.0000181198120117
31	156.7901690006256	pulse	0	t		29.0	2.5	/experiments/knapen_AOT/AOT_stimuli/rescaled_final/0270_fw.mp4	0.0	180.35240387916565	
31	157.21499919891357	movie	1		243	29.0	2.5	/experiments/knapen_AOT/AOT_stimuli/rescaled_final/0270_fw.mp4	0.0	180.7772340774536	2.500358819961548
31	158.3915581703186	pulse	1	t		29.0	2.5	/experiments/knapen_AOT/AOT_stimuli/rescaled_final/0270_fw.mp4	0.0	181.95379304885864	
31	159.71535801887512	fix_post	2		12	29.0	2.5	/experiments/knapen_AOT/AOT_stimuli/rescaled_final/0270_fw.mp4	0.0	183.27759289741516	0.10004210472106934
32	159.8154001235962	fix_pre	0		120	30.0	2.5	/experiments/knapen_AOT/AOT_stimuli/rescaled_final/2116_rv.mp4	0.0	183.37763500213623	1.0002799034118652
32	159.99053311347961	pulse	0	t		30.0	2.5	/experiments/knapen_AOT/AOT_stimuli/rescaled_final/2116_rv.mp4	0.0	183.55276799201965	
32	160.81568002700806	movie	1		240	30.0	2.5	/experiments/knapen_AOT/AOT_stimuli/rescaled_final/2116_rv.mp4	0.0	184.3779149055481	2.500235080718994
32	161.59094405174255	pulse	1	t		30.0	2.5	/experiments/knapen_AOT/AOT_stimuli/rescaled_final/2116_rv.mp4	0.0	185.1531789302826	
32	163.19117712974548	pulse	1	t		30.0	2.5	/experiments/knapen_AOT/AOT_stimuli/rescaled_final/2116_rv.mp4	0.0	186.75341200828552	
32	163.31591510772705	fix_post	2		12	30.0	2.5	/experiments/knapen_AOT/AOT_stimuli/rescaled_final/2116_rv.mp4	0.0	186.8781499862671	0.10006403923034668
33	163.4159791469574	fix_pre	0		119	31.0	2.5	/experiments/knapen_AOT/AOT_stimuli/rescaled_final/0906_fw.mp4	0.0	186.97821402549744	0.9917290210723877
33	164.40770816802979	movie	1		246	31.0	2.5	/experiments/knapen_AOT/AOT_stimuli/rescaled_final/0906_fw.mp4	0.0	187.96994304656982	2.5003769397735596
33	164.7919921875	pulse	1	t		31.0	2.5	/experiments/knapen_AOT/AOT_stimuli/rescaled_final/0906_fw.mp4	0.0	188.35422706604004	
33	166.3914921283722	pulse	1	t		31.0	2.5	/experiments/knapen_AOT/AOT_stimuli/rescaled_final/0906_fw.mp4	0.0	189.95372700691223	
33	166.90808510780334	fix_post	2		12	31.0	2.5	/experiments/knapen_AOT/AOT_stimuli/rescaled_final/0906_fw.mp4	0.0	190.47031998634338	0.10003209114074707
34	167.0081171989441	fix_pre	0		119	32.0	2.5	/experiments/knapen_AOT/AOT_stimuli/rescaled_final/0531_fw.mp4	0.0	190.57035207748413	0.9918580055236816
34	167.9917709827423	pulse	0	t		32.0	2.5	/experiments/knapen_AOT/AOT_stimuli/rescaled_final/0531_fw.mp4	0.0	191.55400586128235	
34	167.99997520446777	movie	1		245	32.0	2.5	/experiments/knapen_AOT/AOT_stimuli/rescaled_final/0531_fw.mp4	0.0	191.5622100830078	2.508641004562378
34	169.59328699111938	pulse	1	t		32.0	2.5	/experiments/knapen_AOT/AOT_stimuli/rescaled_final/0531_fw.mp4	0.0	193.15552186965942	
34	170.50861620903015	fix_post	2		12	32.0	2.5	/experiments/knapen_AOT/AOT_stimuli/rescaled_final/0531_fw.mp4	0.0	194.0708510875702	0.10004186630249023
35	170.60865807533264	fix_pre	0		120	33.0	2.5	/experiments/knapen_AOT/AOT_stimuli/rescaled_final/1468_rv.mp4	0.0	194.17089295387268	1.0001270771026611
35	171.1922550201416	pulse	0	t		33.0	2.5	/experiments/knapen_AOT/AOT_stimuli/rescaled_final/1468_rv.mp4	0.0	194.75448989868164	
35	171.6087851524353	movie	1		243	33.0	2.5	/experiments/knapen_AOT/AOT_stimuli/rescaled_final/1468_rv.mp4	0.0	195.17102003097534	2.5003628730773926
35	172.79272508621216	pulse	1	t		33.0	2.5	/experiments/knapen_AOT/AOT_stimuli/rescaled_final/1468_rv.mp4	0.0	196.3549599647522	
35	174.1091480255127	fix_post	2		12	33.0	2.5	/experiments/knapen_AOT/AOT_stimuli/rescaled_final/1468_rv.mp4	0.0	197.67138290405273	0.10006904602050781
36	174.2092170715332	fix_pre	0		120	34.0	2.5	blank	1.0	197.77145195007324	1.0000901222229004
36	174.39268112182617	pulse	0	t		34.0	2.5	blank	1.0	197.9549160003662	
36	175.2093071937561	movie	1		300	34.0	2.5	blank	1.0	198.77154207229614	2.5004239082336426
36	175.9930260181427	pulse	1	t		34.0	2.5	blank	1.0	199.55526089668274	
36	177.59323120117188	pulse	1	t		34.0	2.5	blank	1.0	201.1554660797119	
36	177.70973110198975	fix_post	2		12	34.0	2.5	blank	1.0	201.27196598052979	0.09999608993530273
37	177.80972719192505	fix_pre	0		120	35.0	2.5	/experiments/knapen_AOT/AOT_stimuli/rescaled_final/2070_rv.mp4	0.0	201.3719620704651	1.0001859664916992
37	178.80991315841675	movie	1		244	35.0	2.5	/experiments/knapen_AOT/AOT_stimuli/rescaled_final/2070_rv.mp4	0.0	202.3721480369568	2.4920449256896973
37	179.19407606124878	pulse	1	t		35.0	2.5	/experiments/knapen_AOT/AOT_stimuli/rescaled_final/2070_rv.mp4	0.0	202.75631093978882	
37	180.79378199577332	pulse	1	t		35.0	2.5	/experiments/knapen_AOT/AOT_stimuli/rescaled_final/2070_rv.mp4	0.0	204.35601687431335	
37	181.30195808410645	fix_post	2		12	35.0	2.5	/experiments/knapen_AOT/AOT_stimuli/rescaled_final/2070_rv.mp4	0.0	204.86419296264648	0.09996294975280762
38	181.40192103385925	fix_pre	0		120	36.0	2.5	/experiments/knapen_AOT/AOT_stimuli/rescaled_final/0536_fw.mp4	0.0	204.9641559123993	1.0001449584960938
38	182.39392018318176	pulse	0	t		36.0	2.5	/experiments/knapen_AOT/AOT_stimuli/rescaled_final/0536_fw.mp4	0.0	205.9561550617218	
38	182.40206599235535	movie	1		245	36.0	2.5	/experiments/knapen_AOT/AOT_stimuli/rescaled_final/0536_fw.mp4	0.0	205.96430087089539	2.508711099624634
38	183.9948070049286	pulse	1	t		36.0	2.5	/experiments/knapen_AOT/AOT_stimuli/rescaled_final/0536_fw.mp4	0.0	207.55704188346863	
38	184.91077709197998	fix_post	2		12	36.0	2.5	/experiments/knapen_AOT/AOT_stimuli/rescaled_final/0536_fw.mp4	0.0	208.47301197052002	0.10005807876586914
39	185.01083517074585	fix_pre	0		120	37.0	2.5	/experiments/knapen_AOT/AOT_stimuli/rescaled_final/0300_rv.mp4	0.0	208.5730700492859	1.0001368522644043
39	185.5944321155548	pulse	0	t		37.0	2.5	/experiments/knapen_AOT/AOT_stimuli/rescaled_final/0300_rv.mp4	0.0	209.15666699409485	
39	186.01097202301025	movie	1		245	37.0	2.5	/experiments/knapen_AOT/AOT_stimuli/rescaled_final/0300_rv.mp4	0.0	209.5732069015503	2.5003271102905273
39	187.19479513168335	pulse	1	t		37.0	2.5	/experiments/knapen_AOT/AOT_stimuli/rescaled_final/0300_rv.mp4	0.0	210.7570300102234	
39	188.51129913330078	fix_post	2		12	37.0	2.5	/experiments/knapen_AOT/AOT_stimuli/rescaled_final/0300_rv.mp4	0.0	212.07353401184082	0.09999585151672363
40	188.6112949848175	fix_pre	0		120	38.0	2.5	/experiments/knapen_AOT/AOT_stimuli/rescaled_final/0733_fw.mp4	0.0	212.17352986335754	1.0002050399780273
40	188.79480910301208	pulse	0	t		38.0	2.5	/experiments/knapen_AOT/AOT_stimuli/rescaled_final/0733_fw.mp4	0.0	212.35704398155212	
40	189.61150002479553	movie	1		245	38.0	2.5	/experiments/knapen_AOT/AOT_stimuli/rescaled_final/0733_fw.mp4	0.0	213.17373490333557	2.500396966934204
40	190.39514899253845	pulse	1	t		38.0	2.5	/experiments/knapen_AOT/AOT_stimuli/rescaled_final/0733_fw.mp4	0.0	213.9573838710785	
40	191.99318718910217	pulse	1	t		38.0	2.5	/experiments/knapen_AOT/AOT_stimuli/rescaled_final/0733_fw.mp4	0.0	215.5554220676422	
40	192.11189699172974	fix_post	2		12	38.0	2.5	/experiments/knapen_AOT/AOT_stimuli/rescaled_final/0733_fw.mp4	0.0	215.67413187026978	0.10005521774291992
41	192.21195220947266	fix_pre	0		120	39.0	2.5	/experiments/knapen_AOT/AOT_stimuli/rescaled_final/0602_rv.mp4	0.0	215.7741870880127	1.000060796737671
41	193.21201300621033	movie	1		243	39.0	2.5	/experiments/knapen_AOT/AOT_stimuli/rescaled_final/0602_rv.mp4	0.0	216.77424788475037	2.492030143737793
41	193.59620213508606	pulse	1	t		39.0	2.5	/experiments/knapen_AOT/AOT_stimuli/rescaled_final/0602_rv.mp4	0.0	217.1584370136261	
41	195.19588017463684	pulse	1	t		39.0	2.5	/experiments/knapen_AOT/AOT_stimuli/rescaled_final/0602_rv.mp4	0.0	218.75811505317688	
41	195.70404314994812	fix_post	2		12	39.0	2.5	/experiments/knapen_AOT/AOT_stimuli/rescaled_final/0602_rv.mp4	0.0	219.26627802848816	0.10002589225769043
42	195.8040690422058	fix_pre	0		120	40.0	2.5	/experiments/knapen_AOT/AOT_stimuli/rescaled_final/2017_rv.mp4	0.0	219.36630392074585	1.0001440048217773
42	196.79608511924744	pulse	0	t		40.0	2.5	/experiments/knapen_AOT/AOT_stimuli/rescaled_final/2017_rv.mp4	0.0	220.35831999778748	
42	196.8042130470276	movie	1		246	40.0	2.5	/experiments/knapen_AOT/AOT_stimuli/rescaled_final/2017_rv.mp4	0.0	220.36644792556763	2.508695125579834
42	198.39675211906433	pulse	1	t		40.0	2.5	/experiments/knapen_AOT/AOT_stimuli/rescaled_final/2017_rv.mp4	0.0	221.95898699760437	
42	199.31290817260742	fix_post	2		12	40.0	2.5	/experiments/knapen_AOT/AOT_stimuli/rescaled_final/2017_rv.mp4	0.0	222.87514305114746	0.10004687309265137
43	199.41295504570007	fix_pre	0		120	41.0	2.5	blank	1.0	222.9751899242401	1.0001420974731445
43	199.99656105041504	pulse	0	t		41.0	2.5	blank	1.0	223.55879592895508	
43	200.41309714317322	movie	1		300	41.0	2.5	blank	1.0	223.97533202171326	2.5003650188446045
43	201.59693503379822	pulse	1	t		41.0	2.5	blank	1.0	225.15916991233826	
43	202.91346216201782	fix_post	2		12	41.0	2.5	blank	1.0	226.47569704055786	0.10003089904785156
44	203.01349306106567	fix_pre	0		120	42.0	2.5	/experiments/knapen_AOT/AOT_stimuli/rescaled_final/0646_fw.mp4	0.0	226.5757279396057	1.0001881122589111
44	203.197035074234	pulse	0	t		42.0	2.5	/experiments/knapen_AOT/AOT_stimuli/rescaled_final/0646_fw.mp4	0.0	226.75926995277405	
44	204.01368117332458	movie	1		245	42.0	2.5	/experiments/knapen_AOT/AOT_stimuli/rescaled_final/0646_fw.mp4	0.0	227.57591605186462	2.5003108978271484
44	204.79722714424133	pulse	1	t		42.0	2.5	/experiments/knapen_AOT/AOT_stimuli/rescaled_final/0646_fw.mp4	0.0	228.35946202278137	
44	206.39764308929443	pulse	1	t		42.0	2.5	/experiments/knapen_AOT/AOT_stimuli/rescaled_final/0646_fw.mp4	0.0	229.95987796783447	
44	206.51399207115173	fix_post	2		12	42.0	2.5	/experiments/knapen_AOT/AOT_stimuli/rescaled_final/0646_fw.mp4	0.0	230.07622694969177	0.10004210472106934
45	206.6140341758728	fix_pre	0		119	43.0	2.5	/experiments/knapen_AOT/AOT_stimuli/rescaled_final/2153_rv.mp4	0.0	230.17626905441284	0.9918148517608643
45	207.60584902763367	movie	1		243	43.0	2.5	/experiments/knapen_AOT/AOT_stimuli/rescaled_final/2153_rv.mp4	0.0	231.1680839061737	2.5003671646118164
45	207.99353218078613	pulse	1	t		43.0	2.5	/experiments/knapen_AOT/AOT_stimuli/rescaled_final/2153_rv.mp4	0.0	231.55576705932617	
45	209.59076714515686	pulse	1	t		43.0	2.5	/experiments/knapen_AOT/AOT_stimuli/rescaled_final/2153_rv.mp4	0.0	233.1530020236969	
45	210.10621619224548	fix_post	2		12	43.0	2.5	/experiments/knapen_AOT/AOT_stimuli/rescaled_final/2153_rv.mp4	0.0	233.66845107078552	0.10000085830688477
46	210.20621705055237	fix_pre	0		120	44.0	2.5	/experiments/knapen_AOT/AOT_stimuli/rescaled_final/0118_fw.mp4	0.0	233.7684519290924	1.000196933746338
46	211.19083619117737	pulse	0	t		44.0	2.5	/experiments/knapen_AOT/AOT_stimuli/rescaled_final/0118_fw.mp4	0.0	234.7530710697174	
46	211.2064139842987	movie	1		244	44.0	2.5	/experiments/knapen_AOT/AOT_stimuli/rescaled_final/0118_fw.mp4	0.0	234.76864886283875	2.508674144744873
46	212.79956912994385	pulse	1	t		44.0	2.5	/experiments/knapen_AOT/AOT_stimuli/rescaled_final/0118_fw.mp4	0.0	236.3618040084839	
46	213.71508812904358	fix_post	2		12	44.0	2.5	/experiments/knapen_AOT/AOT_stimuli/rescaled_final/0118_fw.mp4	0.0	237.27732300758362	0.09998893737792969
47	213.8150770664215	fix_pre	0		120	45.0	2.5	/experiments/knapen_AOT/AOT_stimuli/rescaled_final/0370_fw.mp4	0.0	237.37731194496155	1.0002119541168213
47	214.39107298851013	pulse	0	t		45.0	2.5	/experiments/knapen_AOT/AOT_stimuli/rescaled_final/0370_fw.mp4	0.0	237.95330786705017	
47	214.81528902053833	movie	1		245	45.0	2.5	/experiments/knapen_AOT/AOT_stimuli/rescaled_final/0370_fw.mp4	0.0	238.37752389907837	2.500347137451172
47	215.9910271167755	pulse	1	t		45.0	2.5	/experiments/knapen_AOT/AOT_stimuli/rescaled_final/0370_fw.mp4	0.0	239.55326199531555	
47	217.3156361579895	fix_post	2		12	45.0	2.5	/experiments/knapen_AOT/AOT_stimuli/rescaled_final/0370_fw.mp4	0.0	240.87787103652954	0.10000300407409668
48	217.4156391620636	fix_pre	0		120	46.0	2.5	/experiments/knapen_AOT/AOT_stimuli/rescaled_final/1379_rv.mp4	0.0	240.97787404060364	1.0001850128173828
48	217.59084105491638	pulse	0	t		46.0	2.5	/experiments/knapen_AOT/AOT_stimuli/rescaled_final/1379_rv.mp4	0.0	241.15307593345642	
48	218.41582417488098	movie	1		244	46.0	2.5	/experiments/knapen_AOT/AOT_stimuli/rescaled_final/1379_rv.mp4	0.0	241.97805905342102	2.492027997970581
48	219.1910331249237	pulse	1	t		46.0	2.5	/experiments/knapen_AOT/AOT_stimuli/rescaled_final/1379_rv.mp4	0.0	242.75326800346375	
48	220.79128003120422	pulse	1	t		46.0	2.5	/experiments/knapen_AOT/AOT_stimuli/rescaled_final/1379_rv.mp4	0.0	244.35351490974426	
48	220.90785217285156	fix_post	2		9	46.0	2.5	/experiments/knapen_AOT/AOT_stimuli/rescaled_final/1379_rv.mp4	0.0	244.4700870513916	0.09999585151672363
49	221.0078480243683	fix_pre	0		120	47.0	2.5	/experiments/knapen_AOT/AOT_stimuli/rescaled_final/1340_fw.mp4	0.0	244.57008290290833	1.0001180171966553
49	222.00796604156494	movie	1		243	47.0	2.5	/experiments/knapen_AOT/AOT_stimuli/rescaled_final/1340_fw.mp4	0.0	245.57020092010498	2.500399112701416
49	222.3920440673828	pulse	1	t		47.0	2.5	/experiments/knapen_AOT/AOT_stimuli/rescaled_final/1340_fw.mp4	0.0	245.95427894592285	
49	223.99194407463074	pulse	1	t		47.0	2.5	/experiments/knapen_AOT/AOT_stimuli/rescaled_final/1340_fw.mp4	0.0	247.55417895317078	
49	224.50836515426636	fix_post	2		12	47.0	2.5	/experiments/knapen_AOT/AOT_stimuli/rescaled_final/1340_fw.mp4	0.0	248.0706000328064	0.09999203681945801
50	224.60835719108582	fix_pre	0		119	48.0	2.5	blank	1.0	248.17059206962585	0.9918138980865479
50	225.5921151638031	pulse	0	t		48.0	2.5	blank	1.0	249.15435004234314	
50	225.60017108917236	movie	1		301	48.0	2.5	blank	1.0	249.1624059677124	2.5087389945983887
50	227.19218921661377	pulse	1	t		48.0	2.5	blank	1.0	250.7544240951538	
50	228.10891008377075	fix_post	2		12	48.0	2.5	blank	1.0	251.6711449623108	0.10001397132873535
51	228.2089240550995	fix_pre	0		120	49.0	2.5	/experiments/knapen_AOT/AOT_stimuli/rescaled_final/1818_rv.mp4	0.0	251.77115893363953	1.000133991241455
51	228.79245400428772	pulse	0	t		49.0	2.5	/experiments/knapen_AOT/AOT_stimuli/rescaled_final/1818_rv.mp4	0.0	252.35468888282776	
51	229.20905804634094	movie	1		244	49.0	2.5	/experiments/knapen_AOT/AOT_stimuli/rescaled_final/1818_rv.mp4	0.0	252.77129292488098	2.5003769397735596
51	230.39295721054077	pulse	1	t		49.0	2.5	/experiments/knapen_AOT/AOT_stimuli/rescaled_final/1818_rv.mp4	0.0	253.9551920890808	
51	231.7094349861145	fix_post	2		12	49.0	2.5	/experiments/knapen_AOT/AOT_stimuli/rescaled_final/1818_rv.mp4	0.0	255.27166986465454	0.10000109672546387
52	231.80943608283997	fix_pre	0		120	50.0	2.5	/experiments/knapen_AOT/AOT_stimuli/rescaled_final/0874_rv.mp4	0.0	255.37167096138	1.0001649856567383
52	231.99305820465088	pulse	0	t		50.0	2.5	/experiments/knapen_AOT/AOT_stimuli/rescaled_final/0874_rv.mp4	0.0	255.55529308319092	
52	232.8096010684967	movie	1		243	50.0	2.5	/experiments/knapen_AOT/AOT_stimuli/rescaled_final/0874_rv.mp4	0.0	256.37183594703674	2.500349998474121
52	233.59323906898499	pulse	1	t		50.0	2.5	/experiments/knapen_AOT/AOT_stimuli/rescaled_final/0874_rv.mp4	0.0	257.155473947525	
52	235.19336199760437	pulse	1	t		50.0	2.5	/experiments/knapen_AOT/AOT_stimuli/rescaled_final/0874_rv.mp4	0.0	258.7555968761444	
52	235.30995106697083	fix_post	2		12	50.0	2.5	/experiments/knapen_AOT/AOT_stimuli/rescaled_final/0874_rv.mp4	0.0	258.87218594551086	0.10004401206970215
53	235.40999507904053	fix_pre	0		120	51.0	2.5	/experiments/knapen_AOT/AOT_stimuli/rescaled_final/0838_rv.mp4	0.0	258.97222995758057	1.0001380443572998
53	236.41013312339783	movie	1		243	51.0	2.5	/experiments/knapen_AOT/AOT_stimuli/rescaled_final/0838_rv.mp4	0.0	259.97236800193787	2.492032051086426
53	236.79804801940918	pulse	1	t		51.0	2.5	/experiments/knapen_AOT/AOT_stimuli/rescaled_final/0838_rv.mp4	0.0	260.3602828979492	
53	238.39401507377625	pulse	1	t		51.0	2.5	/experiments/knapen_AOT/AOT_stimuli/rescaled_final/0838_rv.mp4	0.0	261.9562499523163	
53	238.90216517448425	fix_post	2		12	51.0	2.5	/experiments/knapen_AOT/AOT_stimuli/rescaled_final/0838_rv.mp4	0.0	262.4644000530243	0.10002994537353516
54	239.0021951198578	fix_pre	0		120	52.0	2.5	/experiments/knapen_AOT/AOT_stimuli/rescaled_final/0084_rv.mp4	0.0	262.5644299983978	1.0001649856567383
54	239.99422597885132	pulse	0	t		52.0	2.5	/experiments/knapen_AOT/AOT_stimuli/rescaled_final/0084_rv.mp4	0.0	263.55646085739136	
54	240.00236010551453	movie	1		244	52.0	2.5	/experiments/knapen_AOT/AOT_stimuli/rescaled_final/0084_rv.mp4	0.0	263.56459498405457	2.5086779594421387
54	241.59839415550232	pulse	1	t		52.0	2.5	/experiments/knapen_AOT/AOT_stimuli/rescaled_final/0084_rv.mp4	0.0	265.16062903404236	
54	242.51103806495667	fix_post	2		12	52.0	2.5	/experiments/knapen_AOT/AOT_stimuli/rescaled_final/0084_rv.mp4	0.0	266.0732729434967	0.10006499290466309
55	242.61110305786133	fix_pre	0		120	53.0	2.5	/experiments/knapen_AOT/AOT_stimuli/rescaled_final/0927_fw.mp4	0.0	266.17333793640137	1.0000910758972168
55	243.19470405578613	pulse	0	t		53.0	2.5	/experiments/knapen_AOT/AOT_stimuli/rescaled_final/0927_fw.mp4	0.0	266.7569389343262	
55	243.61119413375854	movie	1		243	53.0	2.5	/experiments/knapen_AOT/AOT_stimuli/rescaled_final/0927_fw.mp4	0.0	267.1734290122986	2.5003678798675537
55	244.79511618614197	pulse	1	t		53.0	2.5	/experiments/knapen_AOT/AOT_stimuli/rescaled_final/0927_fw.mp4	0.0	268.357351064682	
55	246.1115620136261	fix_post	2		12	53.0	2.5	/experiments/knapen_AOT/AOT_stimuli/rescaled_final/0927_fw.mp4	0.0	269.67379689216614	0.10012412071228027
56	246.21168613433838	fix_pre	0		120	54.0	2.5	/experiments/knapen_AOT/AOT_stimuli/rescaled_final/0847_rv.mp4	0.0	269.7739210128784	1.0000929832458496
56	246.39525198936462	pulse	0	t		54.0	2.5	/experiments/knapen_AOT/AOT_stimuli/rescaled_final/0847_rv.mp4	0.0	269.95748686790466	
56	247.21177911758423	movie	1		244	54.0	2.5	/experiments/knapen_AOT/AOT_stimuli/rescaled_final/0847_rv.mp4	0.0	270.77401399612427	2.500330924987793
56	247.99538898468018	pulse	1	t		54.0	2.5	/experiments/knapen_AOT/AOT_stimuli/rescaled_final/0847_rv.mp4	0.0	271.5576238632202	
56	249.59560704231262	pulse	1	t		54.0	2.5	/experiments/knapen_AOT/AOT_stimuli/rescaled_final/0847_rv.mp4	0.0	273.15784192085266	
56	249.71211004257202	fix_post	2		12	54.0	2.5	/experiments/knapen_AOT/AOT_stimuli/rescaled_final/0847_rv.mp4	0.0	273.27434492111206	0.10007596015930176
57	249.81218600273132	fix_pre	0		120	55.0	2.5	blank	1.0	273.37442088127136	1.0001041889190674
57	250.8122901916504	movie	1		299	55.0	2.5	blank	1.0	274.37452507019043	2.4920239448547363
57	251.195974111557	pulse	1	t		55.0	2.5	blank	1.0	274.75820899009705	
57	252.79615902900696	pulse	1	t		55.0	2.5	blank	1.0	276.358393907547	
57	253.30431413650513	fix_post	2		12	55.0	2.5	blank	1.0	276.86654901504517	0.10001587867736816
58	253.4043300151825	fix_pre	0		120	56.0	2.5	/experiments/knapen_AOT/AOT_stimuli/rescaled_final/0598_rv.mp4	0.0	276.96656489372253	1.0001921653747559
58	254.39629411697388	pulse	0	t		56.0	2.5	/experiments/knapen_AOT/AOT_stimuli/rescaled_final/0598_rv.mp4	0.0	277.9585289955139	
58	254.40452218055725	movie	1		248	56.0	2.5	/experiments/knapen_AOT/AOT_stimuli/rescaled_final/0598_rv.mp4	0.0	277.9667570590973	2.508661985397339
58	255.99730610847473	pulse	1	t		56.0	2.5	/experiments/knapen_AOT/AOT_stimuli/rescaled_final/0598_rv.mp4	0.0	279.55954098701477	
58	256.9131841659546	fix_post	2		12	56.0	2.5	/experiments/knapen_AOT/AOT_stimuli/rescaled_final/0598_rv.mp4	0.0	280.47541904449463	0.10006904602050781
59	257.0132532119751	fix_pre	0		120	57.0	2.5	/experiments/knapen_AOT/AOT_stimuli/rescaled_final/2113_rv.mp4	0.0	280.57548809051514	1.0000929832458496
59	257.5968291759491	pulse	0	t		57.0	2.5	/experiments/knapen_AOT/AOT_stimuli/rescaled_final/2113_rv.mp4	0.0	281.15906405448914	
59	258.01334619522095	movie	1		245	57.0	2.5	/experiments/knapen_AOT/AOT_stimuli/rescaled_final/2113_rv.mp4	0.0	281.575581073761	2.5003738403320312
59	259.19727516174316	pulse	1	t		57.0	2.5	/experiments/knapen_AOT/AOT_stimuli/rescaled_final/2113_rv.mp4	0.0	282.7595100402832	
59	260.513720035553	fix_post	2		12	57.0	2.5	/experiments/knapen_AOT/AOT_stimuli/rescaled_final/2113_rv.mp4	0.0	284.075954914093	0.1000051498413086
60	260.6137251853943	fix_pre	0		120	58.0	2.5	/experiments/knapen_AOT/AOT_stimuli/rescaled_final/0621_rv.mp4	0.0	284.1759600639343	1.000234842300415
60	260.7972810268402	pulse	0	t		58.0	2.5	/experiments/knapen_AOT/AOT_stimuli/rescaled_final/0621_rv.mp4	0.0	284.35951590538025	
60	261.6139600276947	movie	1		243	58.0	2.5	/experiments/knapen_AOT/AOT_stimuli/rescaled_final/0621_rv.mp4	0.0	285.17619490623474	2.5003161430358887
60	262.39758801460266	pulse	1	t		58.0	2.5	/experiments/knapen_AOT/AOT_stimuli/rescaled_final/0621_rv.mp4	0.0	285.9598228931427	
60	263.99777007102966	pulse	1	t		58.0	2.5	/experiments/knapen_AOT/AOT_stimuli/rescaled_final/0621_rv.mp4	0.0	287.5600049495697	
60	264.1142761707306	fix_post	2		12	58.0	2.5	/experiments/knapen_AOT/AOT_stimuli/rescaled_final/0621_rv.mp4	0.0	287.67651104927063	0.10010790824890137
61	264.2143840789795	fix_pre	0		119	59.0	2.5	/experiments/knapen_AOT/AOT_stimuli/rescaled_final/1196_rv.mp4	0.0	287.77661895751953	0.9916970729827881
61	265.2060811519623	movie	1		245	59.0	2.5	/experiments/knapen_AOT/AOT_stimuli/rescaled_final/1196_rv.mp4	0.0	288.7683160305023	2.5004098415374756
61	265.59030508995056	pulse	1	t		59.0	2.5	/experiments/knapen_AOT/AOT_stimuli/rescaled_final/1196_rv.mp4	0.0	289.1525399684906	
61	267.1907961368561	pulse	1	t		59.0	2.5	/experiments/knapen_AOT/AOT_stimuli/rescaled_final/1196_rv.mp4	0.0	290.7530310153961	
61	267.70649099349976	fix_post	2		12	59.0	2.5	/experiments/knapen_AOT/AOT_stimuli/rescaled_final/1196_rv.mp4	0.0	291.2687258720398	0.09999918937683105
62	267.8064901828766	fix_pre	0		120	60.0	2.5	/experiments/knapen_AOT/AOT_stimuli/rescaled_final/0875_rv.mp4	0.0	291.3687250614166	1.0001699924468994
62	268.79092502593994	pulse	0	t		60.0	2.5	/experiments/knapen_AOT/AOT_stimuli/rescaled_final/0875_rv.mp4	0.0	292.35315990448	
62	268.8066601753235	movie	1		244	60.0	2.5	/experiments/knapen_AOT/AOT_stimuli/rescaled_final/0875_rv.mp4	0.0	292.3688950538635	2.5086779594421387
62	270.3904139995575	pulse	1	t		60.0	2.5	/experiments/knapen_AOT/AOT_stimuli/rescaled_final/0875_rv.mp4	0.0	293.95264887809753	
62	271.3153381347656	fix_post	2		12	60.0	2.5	/experiments/knapen_AOT/AOT_stimuli/rescaled_final/0875_rv.mp4	0.0	294.87757301330566	0.10005688667297363
63	271.4153950214386	fix_pre	0		120	61.0	2.5	blank	1.0	294.97762989997864	1.0001201629638672
63	271.99057507514954	pulse	0	t		61.0	2.5	blank	1.0	295.5528099536896	
63	272.41551518440247	movie	1		300	61.0	2.5	blank	1.0	295.9777500629425	2.5003998279571533
63	273.5908250808716	pulse	1	t		61.0	2.5	blank	1.0	297.1530599594116	
63	274.9159150123596	fix_post	2		12	61.0	2.5	blank	1.0	298.47814989089966	0.10001897811889648
64	275.0159339904785	fix_pre	0		120	62.0	2.5	/experiments/knapen_AOT/AOT_stimuli/rescaled_final/0074_rv.mp4	0.0	298.57816886901855	1.0000970363616943
64	275.19114208221436	pulse	0	t		62.0	2.5	/experiments/knapen_AOT/AOT_stimuli/rescaled_final/0074_rv.mp4	0.0	298.7533769607544	
64	276.0160310268402	movie	1		245	62.0	2.5	/experiments/knapen_AOT/AOT_stimuli/rescaled_final/0074_rv.mp4	0.0	299.57826590538025	2.5003740787506104
64	276.79134607315063	pulse	1	t		62.0	2.5	/experiments/knapen_AOT/AOT_stimuli/rescaled_final/0074_rv.mp4	0.0	300.3535809516907	
64	278.39169907569885	pulse	1	t		62.0	2.5	/experiments/knapen_AOT/AOT_stimuli/rescaled_final/0074_rv.mp4	0.0	301.9539339542389	
64	278.5164051055908	fix_post	2		11	62.0	2.5	/experiments/knapen_AOT/AOT_stimuli/rescaled_final/0074_rv.mp4	0.0	302.07863998413086	0.10011887550354004
65	278.61652398109436	fix_pre	0		119	63.0	2.5	/experiments/knapen_AOT/AOT_stimuli/rescaled_final/1214_fw.mp4	0.0	302.1787588596344	0.9917311668395996
65	279.60825514793396	movie	1		244	63.0	2.5	/experiments/knapen_AOT/AOT_stimuli/rescaled_final/1214_fw.mp4	0.0	303.170490026474	2.5003819465637207
65	279.9926130771637	pulse	1	t		63.0	2.5	/experiments/knapen_AOT/AOT_stimuli/rescaled_final/1214_fw.mp4	0.0	303.55484795570374	
65	281.5920670032501	pulse	1	t		63.0	2.5	/experiments/knapen_AOT/AOT_stimuli/rescaled_final/1214_fw.mp4	0.0	305.15430188179016	
65	282.1086370944977	fix_post	2		12	63.0	2.5	/experiments/knapen_AOT/AOT_stimuli/rescaled_final/1214_fw.mp4	0.0	305.6708719730377	0.09999299049377441
66	282.20863008499146	fix_pre	0		119	64.0	2.5	/experiments/knapen_AOT/AOT_stimuli/rescaled_final/0084_fw.mp4	0.0	305.7708649635315	0.9919140338897705
66	283.1922810077667	pulse	0	t		64.0	2.5	/experiments/knapen_AOT/AOT_stimuli/rescaled_final/0084_fw.mp4	0.0	306.75451588630676	
66	283.2005441188812	movie	1		245	64.0	2.5	/experiments/knapen_AOT/AOT_stimuli/rescaled_final/0084_fw.mp4	0.0	306.76277899742126	2.5086159706115723
66	284.79309010505676	pulse	1	t		64.0	2.5	/experiments/knapen_AOT/AOT_stimuli/rescaled_final/0084_fw.mp4	0.0	308.3553249835968	
66	285.7091600894928	fix_post	2		12	64.0	2.5	/experiments/knapen_AOT/AOT_stimuli/rescaled_final/0084_fw.mp4	0.0	309.27139496803284	0.10000109672546387
67	285.80916118621826	fix_pre	0		120	65.0	2.5	/experiments/knapen_AOT/AOT_stimuli/rescaled_final/1402_fw.mp4	0.0	309.3713960647583	1.0001699924468994
67	286.39280915260315	pulse	0	t		65.0	2.5	/experiments/knapen_AOT/AOT_stimuli/rescaled_final/1402_fw.mp4	0.0	309.9550440311432	
67	286.80933117866516	movie	1		244	65.0	2.5	/experiments/knapen_AOT/AOT_stimuli/rescaled_final/1402_fw.mp4	0.0	310.3715660572052	2.5003528594970703
67	287.9931662082672	pulse	1	t		65.0	2.5	/experiments/knapen_AOT/AOT_stimuli/rescaled_final/1402_fw.mp4	0.0	311.55540108680725	
67	289.30968403816223	fix_post	2		12	65.0	2.5	/experiments/knapen_AOT/AOT_stimuli/rescaled_final/1402_fw.mp4	0.0	312.87191891670227	0.10005402565002441
68	289.40973806381226	fix_pre	0		120	66.0	2.5	/experiments/knapen_AOT/AOT_stimuli/rescaled_final/0277_rv.mp4	0.0	312.9719729423523	1.0001709461212158
68	289.5932261943817	pulse	0	t		66.0	2.5	/experiments/knapen_AOT/AOT_stimuli/rescaled_final/0277_rv.mp4	0.0	313.15546107292175	
68	290.4099090099335	movie	1		244	66.0	2.5	/experiments/knapen_AOT/AOT_stimuli/rescaled_final/0277_rv.mp4	0.0	313.9721438884735	2.50032114982605
68	291.1935820579529	pulse	1	t		66.0	2.5	/experiments/knapen_AOT/AOT_stimuli/rescaled_final/0277_rv.mp4	0.0	314.7558169364929	
68	292.79363918304443	pulse	1	t		66.0	2.5	/experiments/knapen_AOT/AOT_stimuli/rescaled_final/0277_rv.mp4	0.0	316.3558740615845	
68	292.9102301597595	fix_post	2		12	66.0	2.5	/experiments/knapen_AOT/AOT_stimuli/rescaled_final/0277_rv.mp4	0.0	316.47246503829956	0.10004687309265137
69	293.0102770328522	fix_pre	0		120	67.0	2.5	/experiments/knapen_AOT/AOT_stimuli/rescaled_final/1763_rv.mp4	0.0	316.5725119113922	1.0001420974731445
69	294.0104191303253	movie	1		243	67.0	2.5	/experiments/knapen_AOT/AOT_stimuli/rescaled_final/1763_rv.mp4	0.0	317.57265400886536	2.492018938064575
69	294.3947060108185	pulse	1	t		67.0	2.5	/experiments/knapen_AOT/AOT_stimuli/rescaled_final/1763_rv.mp4	0.0	317.9569408893585	
69	295.99416613578796	pulse	1	t		67.0	2.5	/experiments/knapen_AOT/AOT_stimuli/rescaled_final/1763_rv.mp4	0.0	319.556401014328	
69	296.5024380683899	fix_post	2		12	67.0	2.5	/experiments/knapen_AOT/AOT_stimuli/rescaled_final/1763_rv.mp4	0.0	320.06467294692993	0.10004901885986328
70	296.60248708724976	fix_pre	0		120	68.0	2.5	/experiments/knapen_AOT/AOT_stimuli/rescaled_final/1217_rv.mp4	0.0	320.1647219657898	1.0001499652862549
70	297.59443712234497	pulse	0	t		68.0	2.5	/experiments/knapen_AOT/AOT_stimuli/rescaled_final/1217_rv.mp4	0.0	321.156672000885	
70	297.602637052536	movie	1		245	68.0	2.5	/experiments/knapen_AOT/AOT_stimuli/rescaled_final/1217_rv.mp4	0.0	321.16487193107605	2.50864315032959
70	299.1958529949188	pulse	1	t		68.0	2.5	/experiments/knapen_AOT/AOT_stimuli/rescaled_final/1217_rv.mp4	0.0	322.75808787345886	
70	300.1112802028656	fix_post	2		12	68.0	2.5	/experiments/knapen_AOT/AOT_stimuli/rescaled_final/1217_rv.mp4	0.0	323.67351508140564	0.10002899169921875
71	300.2113091945648	fix_pre	0		120	69.0	2.5	blank	1.0	323.77354407310486	1.0001637935638428
71	300.7949721813202	pulse	0	t		69.0	2.5	blank	1.0	324.35720705986023	
71	301.21147298812866	movie	1		300	69.0	2.5	blank	1.0	324.7737078666687	2.5003960132598877
71	302.39512300491333	pulse	1	t		69.0	2.5	blank	1.0	325.95735788345337	
71	303.71186900138855	fix_post	2		12	69.0	2.5	blank	1.0	327.2741038799286	0.10001516342163086
72	303.8118841648102	fix_pre	0		120	70.0	2.5	/experiments/knapen_AOT/AOT_stimuli/rescaled_final/1833_rv.mp4	0.0	327.3741190433502	1.0001518726348877
72	303.995402097702	pulse	0	t		70.0	2.5	/experiments/knapen_AOT/AOT_stimuli/rescaled_final/1833_rv.mp4	0.0	327.55763697624207	
72	304.81203603744507	movie	1		243	70.0	2.5	/experiments/knapen_AOT/AOT_stimuli/rescaled_final/1833_rv.mp4	0.0	328.3742709159851	2.5003349781036377
72	305.59576511383057	pulse	1	t		70.0	2.5	/experiments/knapen_AOT/AOT_stimuli/rescaled_final/1833_rv.mp4	0.0	329.1579999923706	
72	307.1957151889801	pulse	1	t		70.0	2.5	/experiments/knapen_AOT/AOT_stimuli/rescaled_final/1833_rv.mp4	0.0	330.75795006752014	
72	307.3123710155487	fix_post	2		12	70.0	2.5	/experiments/knapen_AOT/AOT_stimuli/rescaled_final/1833_rv.mp4	0.0	330.87460589408875	0.10001111030578613
73	307.4123821258545	fix_pre	0		119	71.0	2.5	/experiments/knapen_AOT/AOT_stimuli/rescaled_final/0136_rv.mp4	0.0	330.97461700439453	0.9918069839477539
73	308.40418910980225	movie	1		243	71.0	2.5	/experiments/knapen_AOT/AOT_stimuli/rescaled_final/0136_rv.mp4	0.0	331.9664239883423	2.500382900238037
73	308.79617500305176	pulse	1	t		71.0	2.5	/experiments/knapen_AOT/AOT_stimuli/rescaled_final/0136_rv.mp4	0.0	332.3584098815918	
73	310.39631509780884	pulse	1	t		71.0	2.5	/experiments/knapen_AOT/AOT_stimuli/rescaled_final/0136_rv.mp4	0.0	333.9585499763489	
73	310.9045720100403	fix_post	2		12	71.0	2.5	/experiments/knapen_AOT/AOT_stimuli/rescaled_final/0136_rv.mp4	0.0	334.4668068885803	0.10003113746643066
74	311.0046031475067	fix_pre	0		120	72.0	2.5	/experiments/knapen_AOT/AOT_stimuli/rescaled_final/2068_fw.mp4	0.0	334.56683802604675	1.000196933746338
74	311.99664998054504	pulse	0	t		72.0	2.5	/experiments/knapen_AOT/AOT_stimuli/rescaled_final/2068_fw.mp4	0.0	335.5588848590851	
74	312.00480008125305	movie	1		245	72.0	2.5	/experiments/knapen_AOT/AOT_stimuli/rescaled_final/2068_fw.mp4	0.0	335.5670349597931	2.508723020553589
74	313.59728813171387	pulse	1	t		72.0	2.5	/experiments/knapen_AOT/AOT_stimuli/rescaled_final/2068_fw.mp4	0.0	337.1595230102539	
74	314.51352310180664	fix_post	2		12	72.0	2.5	/experiments/knapen_AOT/AOT_stimuli/rescaled_final/2068_fw.mp4	0.0	338.0757579803467	0.09999990463256836
75	314.6135230064392	fix_pre	0		120	73.0	2.5	/experiments/knapen_AOT/AOT_stimuli/rescaled_final/0439_fw.mp4	0.0	338.17575788497925	1.0001060962677002
75	315.1971662044525	pulse	0	t		73.0	2.5	/experiments/knapen_AOT/AOT_stimuli/rescaled_final/0439_fw.mp4	0.0	338.75940108299255	
75	315.6136291027069	movie	1		244	73.0	2.5	/experiments/knapen_AOT/AOT_stimuli/rescaled_final/0439_fw.mp4	0.0	339.17586398124695	2.5003669261932373
75	316.79737305641174	pulse	1	t		73.0	2.5	/experiments/knapen_AOT/AOT_stimuli/rescaled_final/0439_fw.mp4	0.0	340.3596079349518	
75	318.11399602890015	fix_post	2		12	73.0	2.5	/experiments/knapen_AOT/AOT_stimuli/rescaled_final/0439_fw.mp4	0.0	341.6762309074402	0.09999513626098633
76	318.21399116516113	fix_pre	0		120	74.0	2.5	/experiments/knapen_AOT/AOT_stimuli/rescaled_final/2033_rv.mp4	0.0	341.7762260437012	1.0001769065856934
76	318.3975741863251	pulse	0	t		74.0	2.5	/experiments/knapen_AOT/AOT_stimuli/rescaled_final/2033_rv.mp4	0.0	341.9598090648651	
76	319.2141680717468	movie	1		244	74.0	2.5	/experiments/knapen_AOT/AOT_stimuli/rescaled_final/2033_rv.mp4	0.0	342.77640295028687	2.5003490447998047
76	319.99796414375305	pulse	1	t		74.0	2.5	/experiments/knapen_AOT/AOT_stimuli/rescaled_final/2033_rv.mp4	0.0	343.5601990222931	
76	321.59822607040405	pulse	1	t		74.0	2.5	/experiments/knapen_AOT/AOT_stimuli/rescaled_final/2033_rv.mp4	0.0	345.1604609489441	
76	321.71451711654663	fix_post	2		12	74.0	2.5	/experiments/knapen_AOT/AOT_stimuli/rescaled_final/2033_rv.mp4	0.0	345.27675199508667	0.10004687309265137
77	321.8145639896393	fix_pre	0		120	75.0	2.5	/experiments/knapen_AOT/AOT_stimuli/rescaled_final/1763_fw.mp4	0.0	345.3767988681793	1.000157117843628
77	322.8147211074829	movie	1		243	75.0	2.5	/experiments/knapen_AOT/AOT_stimuli/rescaled_final/1763_fw.mp4	0.0	346.37695598602295	2.4920289516448975
77	323.19889402389526	pulse	1	t		75.0	2.5	/experiments/knapen_AOT/AOT_stimuli/rescaled_final/1763_fw.mp4	0.0	346.7611289024353	
77	324.7911720275879	pulse	1	t		75.0	2.5	/experiments/knapen_AOT/AOT_stimuli/rescaled_final/1763_fw.mp4	0.0	348.35340690612793	
77	325.3067500591278	fix_post	2		12	75.0	2.5	/experiments/knapen_AOT/AOT_stimuli/rescaled_final/1763_fw.mp4	0.0	348.86898493766785	0.1000211238861084
78	325.4067711830139	fix_pre	0		120	76.0	2.5	blank	1.0	348.96900606155396	1.0002198219299316
78	326.3910632133484	pulse	0	t		76.0	2.5	blank	1.0	349.9532980918884	
78	326.40699100494385	movie	1		301	76.0	2.5	blank	1.0	349.9692258834839	2.5086541175842285
78	327.9915452003479	pulse	1	t		76.0	2.5	blank	1.0	351.55378007888794	
78	328.9156451225281	fix_post	2		12	76.0	2.5	blank	1.0	352.4778800010681	0.1000359058380127
79	329.0156810283661	fix_pre	0		120	77.0	2.5	/experiments/knapen_AOT/AOT_stimuli/rescaled_final/0828_fw.mp4	0.0	352.5779159069061	1.0000851154327393
79	329.5918071269989	pulse	0	t		77.0	2.5	/experiments/knapen_AOT/AOT_stimuli/rescaled_final/0828_fw.mp4	0.0	353.15404200553894	
79	330.0157661437988	movie	1		244	77.0	2.5	/experiments/knapen_AOT/AOT_stimuli/rescaled_final/0828_fw.mp4	0.0	353.57800102233887	2.500382900238037
79	331.1953811645508	pulse	1	t		77.0	2.5	/experiments/knapen_AOT/AOT_stimuli/rescaled_final/0828_fw.mp4	0.0	354.7576160430908	
79	332.51614904403687	fix_post	2		12	77.0	2.5	/experiments/knapen_AOT/AOT_stimuli/rescaled_final/0828_fw.mp4	0.0	356.0783839225769	0.09999513626098633
80	332.61614418029785	fix_pre	0		120	78.0	2.5	/experiments/knapen_AOT/AOT_stimuli/rescaled_final/2113_fw.mp4	0.0	356.1783790588379	1.0001678466796875
80	332.79130005836487	pulse	0	t		78.0	2.5	/experiments/knapen_AOT/AOT_stimuli/rescaled_final/2113_fw.mp4	0.0	356.3535349369049	
80	333.61631202697754	movie	1		245	78.0	2.5	/experiments/knapen_AOT/AOT_stimuli/rescaled_final/2113_fw.mp4	0.0	357.1785469055176	2.5003790855407715
80	334.3915832042694	pulse	1	t		78.0	2.5	/experiments/knapen_AOT/AOT_stimuli/rescaled_final/2113_fw.mp4	0.0	357.95381808280945	
80	335.9919011592865	pulse	1	t		78.0	2.5	/experiments/knapen_AOT/AOT_stimuli/rescaled_final/2113_fw.mp4	0.0	359.55413603782654	
80	336.1166911125183	fix_post	2		12	78.0	2.5	/experiments/knapen_AOT/AOT_stimuli/rescaled_final/2113_fw.mp4	0.0	359.67892599105835	0.10000801086425781
81	336.21669912338257	fix_pre	0		119	79.0	2.5	/experiments/knapen_AOT/AOT_stimuli/rescaled_final/0119_rv.mp4	0.0	359.7789340019226	0.9918179512023926
81	337.20851707458496	movie	1		243	79.0	2.5	/experiments/knapen_AOT/AOT_stimuli/rescaled_final/0119_rv.mp4	0.0	360.770751953125	2.500373125076294
81	337.59261107444763	pulse	1	t		79.0	2.5	/experiments/knapen_AOT/AOT_stimuli/rescaled_final/0119_rv.mp4	0.0	361.15484595298767	
81	339.19230914115906	pulse	1	t		79.0	2.5	/experiments/knapen_AOT/AOT_stimuli/rescaled_final/0119_rv.mp4	0.0	362.7545440196991	
81	339.70889019966125	fix_post	2		12	79.0	2.5	/experiments/knapen_AOT/AOT_stimuli/rescaled_final/0119_rv.mp4	0.0	363.2711250782013	0.10006999969482422
82	339.8089601993561	fix_pre	0		116	80.0	2.5	/experiments/knapen_AOT/AOT_stimuli/rescaled_final/1833_fw.mp4	0.0	363.3711950778961	0.9917938709259033
82	340.7925510406494	pulse	0	t		80.0	2.5	/experiments/knapen_AOT/AOT_stimuli/rescaled_final/1833_fw.mp4	0.0	364.35478591918945	
82	340.800754070282	movie	1		244	80.0	2.5	/experiments/knapen_AOT/AOT_stimuli/rescaled_final/1833_fw.mp4	0.0	364.362988948822	2.5086541175842285
82	342.3931610584259	pulse	1	t		80.0	2.5	/experiments/knapen_AOT/AOT_stimuli/rescaled_final/1833_fw.mp4	0.0	365.95539593696594	
82	343.3094081878662	fix_post	2		12	80.0	2.5	/experiments/knapen_AOT/AOT_stimuli/rescaled_final/1833_fw.mp4	0.0	366.87164306640625	0.10006880760192871
83	343.40947699546814	fix_pre	0		120	81.0	2.5	/experiments/knapen_AOT/AOT_stimuli/rescaled_final/0491_fw.mp4	0.0	366.9717118740082	1.0001411437988281
83	343.99320006370544	pulse	0	t		81.0	2.5	/experiments/knapen_AOT/AOT_stimuli/rescaled_final/0491_fw.mp4	0.0	367.5554349422455	
83	344.40961813926697	movie	1		244	81.0	2.5	/experiments/knapen_AOT/AOT_stimuli/rescaled_final/0491_fw.mp4	0.0	367.971853017807	2.500316858291626
83	345.5933690071106	pulse	1	t		81.0	2.5	/experiments/knapen_AOT/AOT_stimuli/rescaled_final/0491_fw.mp4	0.0	369.15560388565063	
83	346.9099349975586	fix_post	2		12	81.0	2.5	/experiments/knapen_AOT/AOT_stimuli/rescaled_final/0491_fw.mp4	0.0	370.47216987609863	0.100067138671875
84	347.01000213623047	fix_pre	0		120	82.0	2.5	blank	1.0	370.5722370147705	1.0001208782196045
84	347.19353008270264	pulse	0	t		82.0	2.5	blank	1.0	370.7557649612427	
84	348.0101230144501	movie	1		300	82.0	2.5	blank	1.0	371.5723578929901	2.500375986099243
84	348.7937150001526	pulse	1	t		82.0	2.5	blank	1.0	372.3559498786926	
84	350.39401412010193	pulse	1	t		82.0	2.5	blank	1.0	373.95624899864197	
84	350.5104990005493	fix_post	2		12	82.0	2.5	blank	1.0	374.07273387908936	0.09999918937683105
85	350.61049818992615	fix_pre	0		119	83.0	2.5	/experiments/knapen_AOT/AOT_stimuli/rescaled_final/2068_fw.mp4	0.0	374.1727330684662	0.9918239116668701
85	351.602322101593	movie	1		244	83.0	2.5	/experiments/knapen_AOT/AOT_stimuli/rescaled_final/2068_fw.mp4	0.0	375.16455698013306	2.5003740787506104
85	351.99431705474854	pulse	1	t		83.0	2.5	/experiments/knapen_AOT/AOT_stimuli/rescaled_final/2068_fw.mp4	0.0	375.5565519332886	
85	353.5945100784302	pulse	1	t		83.0	2.5	/experiments/knapen_AOT/AOT_stimuli/rescaled_final/2068_fw.mp4	0.0	377.1567449569702	
85	354.1026961803436	fix_post	2		12	83.0	2.5	/experiments/knapen_AOT/AOT_stimuli/rescaled_final/2068_fw.mp4	0.0	377.66493105888367	0.10001897811889648
87	354.2027151584625	stim	0		1716					377.76495003700256	14.302168846130371
87	355.19473004341125	pulse	0	t						378.7569649219513	
87	356.794949054718	pulse	0	t						380.35718393325806	
87	358.3951771259308	pulse	0	t						381.9574120044708	
87	359.99541902542114	pulse	0	t						383.5576539039612	
87	361.59572410583496	pulse	0	t						385.157958984375	
87	363.1958181858063	pulse	0	t						386.7580530643463	
87	364.79611706733704	pulse	0	t						388.3583519458771	
87	366.3963100910187	pulse	0	t						389.9585449695587	
87	367.996609210968	pulse	0	t						391.55884408950806	
