trial_nr	onset	event_type	phase	response	nr_frames	movie_index	movie_duration	movie_file	blank	onset_abs	duration
0	0.15039896965026855	stim	0		252					177.13021206855774	2.099987030029297
0	2.2422850131988525	response	0	space						179.22209811210632	
1	2.2503859996795654	stim	0		5043					179.23019909858704	42.02421998977661
1	44.27082705497742	pulse	0	t						221.2506401538849	
1	44.27460598945618	stim	1		1717					221.25441908836365	14.308824062347412
1	45.86702585220337	pulse	1	t						222.84683895111084	
1	47.466644048690796	pulse	1	t						224.44645714759827	
1	49.067442893981934	pulse	1	t						226.0472559928894	
1	50.666950941085815	pulse	1	t						227.6467640399933	
1	52.266934871673584	pulse	1	t						229.24674797058105	
1	53.86690807342529	pulse	1	t						230.84672117233276	
1	55.46686387062073	pulse	1	t						232.4466769695282	
1	57.06691908836365	pulse	1	t						234.04673218727112	
2	58.58343005180359	fix_pre	0		11	0.0	2.5	/experiments/AOT/AOT_stimuli/rescaled_final/0595_fw.mp4	0.0	235.56324315071106	0.09182882308959961
2	58.667032957077026	pulse	0	t		0.0	2.5	/experiments/AOT/AOT_stimuli/rescaled_final/0595_fw.mp4	0.0	235.6468460559845	
2	58.67525887489319	movie	1		244	0.0	2.5	/experiments/AOT/AOT_stimuli/rescaled_final/0595_fw.mp4	0.0	235.65507197380066	2.5077521800994873
2	60.2665069103241	pulse	1	t		0.0	2.5	/experiments/AOT/AOT_stimuli/rescaled_final/0595_fw.mp4	0.0	237.24632000923157	
2	61.183011054992676	fix_post	2		12	0.0	2.5	/experiments/AOT/AOT_stimuli/rescaled_final/0595_fw.mp4	0.0	238.16282415390015	0.10033392906188965
3	61.283344984054565	fix_pre	0		120	1.0	2.5	/experiments/AOT/AOT_stimuli/rescaled_final/1250_rv.mp4	0.0	238.26315808296204	1.0000319480895996
3	61.86691188812256	pulse	0	t		1.0	2.5	/experiments/AOT/AOT_stimuli/rescaled_final/1250_rv.mp4	0.0	238.84672498703003	
3	62.283376932144165	movie	1		246	1.0	2.5	/experiments/AOT/AOT_stimuli/rescaled_final/1250_rv.mp4	0.0	239.26319003105164	2.49993896484375
3	63.466832876205444	pulse	1	t		1.0	2.5	/experiments/AOT/AOT_stimuli/rescaled_final/1250_rv.mp4	0.0	240.44664597511292	
3	64.78331589698792	fix_post	2		12	1.0	2.5	/experiments/AOT/AOT_stimuli/rescaled_final/1250_rv.mp4	0.0	241.76312899589539	0.09966707229614258
4	64.88298296928406	fix_pre	0		120	2.0	2.5	/experiments/AOT/AOT_stimuli/rescaled_final/1347_rv.mp4	0.0	241.86279606819153	1.00034499168396
4	65.06678485870361	pulse	0	t		2.0	2.5	/experiments/AOT/AOT_stimuli/rescaled_final/1347_rv.mp4	0.0	242.04659795761108	
4	65.88332796096802	movie	1		244	2.0	2.5	/experiments/AOT/AOT_stimuli/rescaled_final/1347_rv.mp4	0.0	242.8631410598755	2.4996819496154785
4	66.66685104370117	pulse	1	t		2.0	2.5	/experiments/AOT/AOT_stimuli/rescaled_final/1347_rv.mp4	0.0	243.64666414260864	
4	68.26555895805359	pulse	1	t		2.0	2.5	/experiments/AOT/AOT_stimuli/rescaled_final/1347_rv.mp4	0.0	245.24537205696106	
4	68.3830099105835	fix_post	2		12	2.0	2.5	/experiments/AOT/AOT_stimuli/rescaled_final/1347_rv.mp4	0.0	245.36282300949097	0.10040497779846191
5	68.48341488838196	fix_pre	0		120	3.0	2.5	/experiments/AOT/AOT_stimuli/rescaled_final/0911_rv.mp4	0.0	245.46322798728943	1.0000150203704834
5	69.48342990875244	movie	1		245	3.0	2.5	/experiments/AOT/AOT_stimuli/rescaled_final/0911_rv.mp4	0.0	246.4632430076599	2.4999210834503174
5	69.86632895469666	pulse	1	t		3.0	2.5	/experiments/AOT/AOT_stimuli/rescaled_final/0911_rv.mp4	0.0	246.84614205360413	
5	71.46679306030273	pulse	1	t		3.0	2.5	/experiments/AOT/AOT_stimuli/rescaled_final/0911_rv.mp4	0.0	248.4466061592102	
5	71.98335099220276	fix_post	2		12	3.0	2.5	/experiments/AOT/AOT_stimuli/rescaled_final/0911_rv.mp4	0.0	248.96316409111023	0.09996199607849121
6	72.08331298828125	fix_pre	0		119	4.0	2.5	/experiments/AOT/AOT_stimuli/rescaled_final/1412_fw.mp4	0.0	249.06312608718872	0.991718053817749
6	73.06678891181946	pulse	0	t		4.0	2.5	/experiments/AOT/AOT_stimuli/rescaled_final/1412_fw.mp4	0.0	250.04660201072693	
6	73.075031042099	movie	1		244	4.0	2.5	/experiments/AOT/AOT_stimuli/rescaled_final/1412_fw.mp4	0.0	250.05484414100647	2.5082919597625732
6	74.66684198379517	pulse	1	t		4.0	2.5	/experiments/AOT/AOT_stimuli/rescaled_final/1412_fw.mp4	0.0	251.64665508270264	
6	75.58332300186157	fix_post	2		12	4.0	2.5	/experiments/AOT/AOT_stimuli/rescaled_final/1412_fw.mp4	0.0	252.56313610076904	0.09972286224365234
7	75.68304586410522	fix_pre	0		120	5.0	2.5	/experiments/AOT/AOT_stimuli/rescaled_final/1531_rv.mp4	0.0	252.6628589630127	1.000204086303711
7	76.26682305335999	pulse	0	t		5.0	2.5	/experiments/AOT/AOT_stimuli/rescaled_final/1531_rv.mp4	0.0	253.24663615226746	
7	76.68324995040894	movie	1		244	5.0	2.5	/experiments/AOT/AOT_stimuli/rescaled_final/1531_rv.mp4	0.0	253.6630630493164	2.500096082687378
7	77.86685585975647	pulse	1	t		5.0	2.5	/experiments/AOT/AOT_stimuli/rescaled_final/1531_rv.mp4	0.0	254.84666895866394	
7	79.18334603309631	fix_post	2		12	5.0	2.5	/experiments/AOT/AOT_stimuli/rescaled_final/1531_rv.mp4	0.0	256.1631591320038	0.10001182556152344
8	79.28335785865784	fix_pre	0		120	6.0	2.5	/experiments/AOT/AOT_stimuli/rescaled_final/0434_rv.mp4	0.0	256.2631709575653	0.9999091625213623
8	79.46678686141968	pulse	0	t		6.0	2.5	/experiments/AOT/AOT_stimuli/rescaled_final/0434_rv.mp4	0.0	256.44659996032715	
8	80.2832670211792	movie	1		244	6.0	2.5	/experiments/AOT/AOT_stimuli/rescaled_final/0434_rv.mp4	0.0	257.26308012008667	2.500018835067749
8	81.06694793701172	pulse	1	t		6.0	2.5	/experiments/AOT/AOT_stimuli/rescaled_final/0434_rv.mp4	0.0	258.0467610359192	
8	82.6667640209198	pulse	1	t		6.0	2.5	/experiments/AOT/AOT_stimuli/rescaled_final/0434_rv.mp4	0.0	259.64657711982727	
8	82.78328585624695	fix_post	2		12	6.0	2.5	/experiments/AOT/AOT_stimuli/rescaled_final/0434_rv.mp4	0.0	259.7630989551544	0.10018420219421387
9	82.88347005844116	fix_pre	0		120	7.0	2.5	blank	1.0	259.86328315734863	0.9998598098754883
9	83.88332986831665	movie	1		300	7.0	2.5	blank	1.0	260.8631429672241	2.5000669956207275
9	84.26676487922668	pulse	1	t		7.0	2.5	blank	1.0	261.24657797813416	
9	85.86676287651062	pulse	1	t		7.0	2.5	blank	1.0	262.8465759754181	
9	86.38339686393738	fix_post	2		12	7.0	2.5	blank	1.0	263.36320996284485	0.09958910942077637
10	86.48298597335815	fix_pre	0		119	8.0	2.5	/experiments/AOT/AOT_stimuli/rescaled_final/1444_rv.mp4	0.0	263.4627990722656	0.9919490814208984
10	87.46676898002625	pulse	0	t		8.0	2.5	/experiments/AOT/AOT_stimuli/rescaled_final/1444_rv.mp4	0.0	264.4465820789337	
10	87.47493505477905	movie	1		243	8.0	2.5	/experiments/AOT/AOT_stimuli/rescaled_final/1444_rv.mp4	0.0	264.4547481536865	2.508328914642334
10	89.06752705574036	pulse	1	t		8.0	2.5	/experiments/AOT/AOT_stimuli/rescaled_final/1444_rv.mp4	0.0	266.0473401546478	
10	89.98326396942139	fix_post	2		12	8.0	2.5	/experiments/AOT/AOT_stimuli/rescaled_final/1444_rv.mp4	0.0	266.96307706832886	0.0999898910522461
11	90.08325386047363	fix_pre	0		120	9.0	2.5	/experiments/AOT/AOT_stimuli/rescaled_final/1870_fw.mp4	0.0	267.0630669593811	0.9999580383300781
11	90.66682887077332	pulse	0	t		9.0	2.5	/experiments/AOT/AOT_stimuli/rescaled_final/1870_fw.mp4	0.0	267.6466419696808	
11	91.08321189880371	movie	1		243	9.0	2.5	/experiments/AOT/AOT_stimuli/rescaled_final/1870_fw.mp4	0.0	268.0630249977112	2.4999961853027344
11	92.26686596870422	pulse	1	t		9.0	2.5	/experiments/AOT/AOT_stimuli/rescaled_final/1870_fw.mp4	0.0	269.2466790676117	
11	93.58320808410645	fix_post	2		12	9.0	2.5	/experiments/AOT/AOT_stimuli/rescaled_final/1870_fw.mp4	0.0	270.5630211830139	0.09998297691345215
12	93.6831910610199	fix_pre	0		120	10.0	2.5	/experiments/AOT/AOT_stimuli/rescaled_final/2010_fw.mp4	0.0	270.66300415992737	1.000079870223999
12	93.86671805381775	pulse	0	t		10.0	2.5	/experiments/AOT/AOT_stimuli/rescaled_final/2010_fw.mp4	0.0	270.8465311527252	
12	94.6832709312439	movie	1		243	10.0	2.5	/experiments/AOT/AOT_stimuli/rescaled_final/2010_fw.mp4	0.0	271.66308403015137	2.4996860027313232
12	95.46668195724487	pulse	1	t		10.0	2.5	/experiments/AOT/AOT_stimuli/rescaled_final/2010_fw.mp4	0.0	272.44649505615234	
12	97.07519698143005	pulse	1	t		10.0	2.5	/experiments/AOT/AOT_stimuli/rescaled_final/2010_fw.mp4	0.0	274.0550100803375	
12	97.18295693397522	fix_post	2		12	10.0	2.5	/experiments/AOT/AOT_stimuli/rescaled_final/2010_fw.mp4	0.0	274.1627700328827	0.10029101371765137
13	97.28324794769287	fix_pre	0		120	11.0	2.5	/experiments/AOT/AOT_stimuli/rescaled_final/0074_fw.mp4	0.0	274.26306104660034	0.9999299049377441
13	98.28317785263062	movie	1		246	11.0	2.5	/experiments/AOT/AOT_stimuli/rescaled_final/0074_fw.mp4	0.0	275.2629909515381	2.5000720024108887
13	98.66730189323425	pulse	1	t		11.0	2.5	/experiments/AOT/AOT_stimuli/rescaled_final/0074_fw.mp4	0.0	275.6471149921417	
13	100.26660895347595	pulse	1	t		11.0	2.5	/experiments/AOT/AOT_stimuli/rescaled_final/0074_fw.mp4	0.0	277.2464220523834	
13	100.7832498550415	fix_post	2		12	11.0	2.5	/experiments/AOT/AOT_stimuli/rescaled_final/0074_fw.mp4	0.0	277.763062953949	0.10005521774291992
14	100.88330507278442	fix_pre	0		119	12.0	2.5	/experiments/AOT/AOT_stimuli/rescaled_final/0037_fw.mp4	0.0	277.8631181716919	0.9915709495544434
14	101.86631608009338	pulse	0	t		12.0	2.5	/experiments/AOT/AOT_stimuli/rescaled_final/0037_fw.mp4	0.0	278.84612917900085	
14	101.87487602233887	movie	1		249	12.0	2.5	/experiments/AOT/AOT_stimuli/rescaled_final/0037_fw.mp4	0.0	278.85468912124634	2.508596897125244
14	103.46580386161804	pulse	1	t		12.0	2.5	/experiments/AOT/AOT_stimuli/rescaled_final/0037_fw.mp4	0.0	280.4456169605255	
14	104.38347291946411	fix_post	2		12	12.0	2.5	/experiments/AOT/AOT_stimuli/rescaled_final/0037_fw.mp4	0.0	281.3632860183716	0.10000109672546387
15	104.48347401618958	fix_pre	0		120	13.0	2.5	blank	1.0	281.46328711509705	0.9997479915618896
15	105.06808590888977	pulse	0	t		13.0	2.5	blank	1.0	282.04789900779724	
15	105.48322200775146	movie	1		300	13.0	2.5	blank	1.0	282.46303510665894	2.5000040531158447
15	106.66664099693298	pulse	1	t		13.0	2.5	blank	1.0	283.64645409584045	
15	107.98322606086731	fix_post	2		12	13.0	2.5	blank	1.0	284.9630391597748	0.09995293617248535
16	108.0831789970398	fix_pre	0		120	14.0	2.5	/experiments/AOT/AOT_stimuli/rescaled_final/0823_rv.mp4	0.0	285.06299209594727	1.0000219345092773
16	108.26668691635132	pulse	0	t		14.0	2.5	/experiments/AOT/AOT_stimuli/rescaled_final/0823_rv.mp4	0.0	285.2465000152588	
16	109.08320093154907	movie	1		245	14.0	2.5	/experiments/AOT/AOT_stimuli/rescaled_final/0823_rv.mp4	0.0	286.06301403045654	2.4999499320983887
16	109.8666000366211	pulse	1	t		14.0	2.5	/experiments/AOT/AOT_stimuli/rescaled_final/0823_rv.mp4	0.0	286.84641313552856	
16	111.47504091262817	pulse	1	t		14.0	2.5	/experiments/AOT/AOT_stimuli/rescaled_final/0823_rv.mp4	0.0	288.45485401153564	
16	111.58315086364746	fix_post	2		12	14.0	2.5	/experiments/AOT/AOT_stimuli/rescaled_final/0823_rv.mp4	0.0	288.56296396255493	0.10008621215820312
17	111.68323707580566	fix_pre	0		120	15.0	2.5	/experiments/AOT/AOT_stimuli/rescaled_final/1719_rv.mp4	0.0	288.66305017471313	0.9999020099639893
17	112.68313908576965	movie	1		244	15.0	2.5	/experiments/AOT/AOT_stimuli/rescaled_final/1719_rv.mp4	0.0	289.6629521846771	2.4999969005584717
17	113.06681895256042	pulse	1	t		15.0	2.5	/experiments/AOT/AOT_stimuli/rescaled_final/1719_rv.mp4	0.0	290.0466320514679	
17	114.66653299331665	pulse	1	t		15.0	2.5	/experiments/AOT/AOT_stimuli/rescaled_final/1719_rv.mp4	0.0	291.6463460922241	
17	115.18313598632812	fix_post	2		12	15.0	2.5	/experiments/AOT/AOT_stimuli/rescaled_final/1719_rv.mp4	0.0	292.1629490852356	0.09995794296264648
18	115.28309392929077	fix_pre	0		119	16.0	2.5	/experiments/AOT/AOT_stimuli/rescaled_final/1242_fw.mp4	0.0	292.26290702819824	0.9917149543762207
18	116.26655101776123	pulse	0	t		16.0	2.5	/experiments/AOT/AOT_stimuli/rescaled_final/1242_fw.mp4	0.0	293.2463641166687	
18	116.27480888366699	movie	1		244	16.0	2.5	/experiments/AOT/AOT_stimuli/rescaled_final/1242_fw.mp4	0.0	293.25462198257446	2.5083181858062744
18	117.86608791351318	pulse	1	t		16.0	2.5	/experiments/AOT/AOT_stimuli/rescaled_final/1242_fw.mp4	0.0	294.84590101242065	
18	118.78312706947327	fix_post	2		12	16.0	2.5	/experiments/AOT/AOT_stimuli/rescaled_final/1242_fw.mp4	0.0	295.76294016838074	0.10004997253417969
19	118.88317704200745	fix_pre	0		120	17.0	2.5	/experiments/AOT/AOT_stimuli/rescaled_final/2011_fw.mp4	0.0	295.8629901409149	0.999553918838501
19	119.46659302711487	pulse	0	t		17.0	2.5	/experiments/AOT/AOT_stimuli/rescaled_final/2011_fw.mp4	0.0	296.44640612602234	
19	119.88273096084595	movie	1		244	17.0	2.5	/experiments/AOT/AOT_stimuli/rescaled_final/2011_fw.mp4	0.0	296.8625440597534	2.5003631114959717
19	121.06656408309937	pulse	1	t		17.0	2.5	/experiments/AOT/AOT_stimuli/rescaled_final/2011_fw.mp4	0.0	298.04637718200684	
19	122.38309407234192	fix_post	2		12	17.0	2.5	/experiments/AOT/AOT_stimuli/rescaled_final/2011_fw.mp4	0.0	299.3629071712494	0.09998488426208496
20	122.483078956604	fix_pre	0		120	18.0	2.5	/experiments/AOT/AOT_stimuli/rescaled_final/0706_fw.mp4	0.0	299.4628920555115	1.0000159740447998
20	122.66656494140625	pulse	0	t		18.0	2.5	/experiments/AOT/AOT_stimuli/rescaled_final/0706_fw.mp4	0.0	299.6463780403137	
20	123.4830949306488	movie	1		247	18.0	2.5	/experiments/AOT/AOT_stimuli/rescaled_final/0706_fw.mp4	0.0	300.4629080295563	2.5000569820404053
20	124.26655602455139	pulse	1	t		18.0	2.5	/experiments/AOT/AOT_stimuli/rescaled_final/0706_fw.mp4	0.0	301.24636912345886	
20	125.86621403694153	pulse	1	t		18.0	2.5	/experiments/AOT/AOT_stimuli/rescaled_final/0706_fw.mp4	0.0	302.846027135849	
20	125.98315191268921	fix_post	2		12	18.0	2.5	/experiments/AOT/AOT_stimuli/rescaled_final/0706_fw.mp4	0.0	302.9629650115967	0.09999799728393555
21	126.08314990997314	fix_pre	0		120	19.0	2.5	/experiments/AOT/AOT_stimuli/rescaled_final/0488_fw.mp4	0.0	303.0629630088806	1.0000009536743164
21	127.08315086364746	movie	1		246	19.0	2.5	/experiments/AOT/AOT_stimuli/rescaled_final/0488_fw.mp4	0.0	304.06296396255493	2.4999630451202393
21	127.46607995033264	pulse	1	t		19.0	2.5	/experiments/AOT/AOT_stimuli/rescaled_final/0488_fw.mp4	0.0	304.4458930492401	
21	129.06660294532776	pulse	1	t		19.0	2.5	/experiments/AOT/AOT_stimuli/rescaled_final/0488_fw.mp4	0.0	306.04641604423523	
21	129.5831139087677	fix_post	2		12	19.0	2.5	/experiments/AOT/AOT_stimuli/rescaled_final/0488_fw.mp4	0.0	306.56292700767517	0.09991812705993652
22	129.68303203582764	fix_pre	0		119	20.0	2.5	/experiments/AOT/AOT_stimuli/rescaled_final/0488_rv.mp4	0.0	306.6628451347351	0.9916698932647705
22	130.6666078567505	pulse	0	t		20.0	2.5	/experiments/AOT/AOT_stimuli/rescaled_final/0488_rv.mp4	0.0	307.64642095565796	
22	130.6747019290924	movie	1		246	20.0	2.5	/experiments/AOT/AOT_stimuli/rescaled_final/0488_rv.mp4	0.0	307.6545150279999	2.5079660415649414
22	132.2661828994751	pulse	1	t		20.0	2.5	/experiments/AOT/AOT_stimuli/rescaled_final/0488_rv.mp4	0.0	309.24599599838257	
22	133.18266797065735	fix_post	2		12	20.0	2.5	/experiments/AOT/AOT_stimuli/rescaled_final/0488_rv.mp4	0.0	310.1624810695648	0.1003880500793457
23	133.2830560207367	fix_pre	0		120	21.0	2.5	blank	1.0	310.26286911964417	0.9999849796295166
23	133.86648392677307	pulse	0	t		21.0	2.5	blank	1.0	310.84629702568054	
23	134.2830410003662	movie	1		300	21.0	2.5	blank	1.0	311.2628540992737	2.5000619888305664
23	135.46650505065918	pulse	1	t		21.0	2.5	blank	1.0	312.44631814956665	
23	136.78310298919678	fix_post	2		12	21.0	2.5	blank	1.0	313.76291608810425	0.09996604919433594
24	136.8830690383911	fix_pre	0		120	22.0	2.5	/experiments/AOT/AOT_stimuli/rescaled_final/1006_rv.mp4	0.0	313.8628821372986	1.0000269412994385
24	137.06654000282288	pulse	0	t		22.0	2.5	/experiments/AOT/AOT_stimuli/rescaled_final/1006_rv.mp4	0.0	314.04635310173035	
24	137.88309597969055	movie	1		244	22.0	2.5	/experiments/AOT/AOT_stimuli/rescaled_final/1006_rv.mp4	0.0	314.862909078598	2.4999430179595947
24	138.66649293899536	pulse	1	t		22.0	2.5	/experiments/AOT/AOT_stimuli/rescaled_final/1006_rv.mp4	0.0	315.64630603790283	
24	140.275043964386	pulse	1	t		22.0	2.5	/experiments/AOT/AOT_stimuli/rescaled_final/1006_rv.mp4	0.0	317.25485706329346	
24	140.38303899765015	fix_post	2		12	22.0	2.5	/experiments/AOT/AOT_stimuli/rescaled_final/1006_rv.mp4	0.0	317.3628520965576	0.10008692741394043
25	140.4831259250641	fix_pre	0		120	23.0	2.5	/experiments/AOT/AOT_stimuli/rescaled_final/0911_rv.mp4	0.0	317.46293902397156	0.9998869895935059
25	141.4830129146576	movie	1		244	23.0	2.5	/experiments/AOT/AOT_stimuli/rescaled_final/0911_rv.mp4	0.0	318.46282601356506	2.500041961669922
25	141.87484288215637	pulse	1	t		23.0	2.5	/experiments/AOT/AOT_stimuli/rescaled_final/0911_rv.mp4	0.0	318.85465598106384	
25	143.46647000312805	pulse	1	t		23.0	2.5	/experiments/AOT/AOT_stimuli/rescaled_final/0911_rv.mp4	0.0	320.4462831020355	
25	143.98305487632751	fix_post	2		12	23.0	2.5	/experiments/AOT/AOT_stimuli/rescaled_final/0911_rv.mp4	0.0	320.962867975235	0.09990310668945312
26	144.08295798301697	fix_pre	0		119	24.0	2.5	/experiments/AOT/AOT_stimuli/rescaled_final/1185_rv.mp4	0.0	321.06277108192444	0.9917290210723877
26	145.0665099620819	pulse	0	t		24.0	2.5	/experiments/AOT/AOT_stimuli/rescaled_final/1185_rv.mp4	0.0	322.0463230609894	
26	145.07468700408936	movie	1		247	24.0	2.5	/experiments/AOT/AOT_stimuli/rescaled_final/1185_rv.mp4	0.0	322.0545001029968	2.5082950592041016
26	146.66607904434204	pulse	1	t		24.0	2.5	/experiments/AOT/AOT_stimuli/rescaled_final/1185_rv.mp4	0.0	323.6458921432495	
26	147.58298206329346	fix_post	2		12	24.0	2.5	/experiments/AOT/AOT_stimuli/rescaled_final/1185_rv.mp4	0.0	324.5627951622009	0.1001138687133789
27	147.68309593200684	fix_pre	0		120	25.0	2.5	/experiments/AOT/AOT_stimuli/rescaled_final/0302_rv.mp4	0.0	324.6629090309143	0.9999310970306396
27	148.26649403572083	pulse	0	t		25.0	2.5	/experiments/AOT/AOT_stimuli/rescaled_final/0302_rv.mp4	0.0	325.2463071346283	
27	148.68302702903748	movie	1		243	25.0	2.5	/experiments/AOT/AOT_stimuli/rescaled_final/0302_rv.mp4	0.0	325.66284012794495	2.499495029449463
27	149.8665840625763	pulse	1	t		25.0	2.5	/experiments/AOT/AOT_stimuli/rescaled_final/0302_rv.mp4	0.0	326.84639716148376	
27	151.18252205848694	fix_post	2		12	25.0	2.5	/experiments/AOT/AOT_stimuli/rescaled_final/0302_rv.mp4	0.0	328.1623351573944	0.10051488876342773
28	151.28303694725037	fix_pre	0		120	26.0	2.5	/experiments/AOT/AOT_stimuli/rescaled_final/1449_rv.mp4	0.0	328.26285004615784	1.0000019073486328
28	151.4665069580078	pulse	0	t		26.0	2.5	/experiments/AOT/AOT_stimuli/rescaled_final/1449_rv.mp4	0.0	328.4463200569153	
28	152.283038854599	movie	1		246	26.0	2.5	/experiments/AOT/AOT_stimuli/rescaled_final/1449_rv.mp4	0.0	329.26285195350647	2.4999241828918457
28	153.06649708747864	pulse	1	t		26.0	2.5	/experiments/AOT/AOT_stimuli/rescaled_final/1449_rv.mp4	0.0	330.0463101863861	
28	154.6664628982544	pulse	1	t		26.0	2.5	/experiments/AOT/AOT_stimuli/rescaled_final/1449_rv.mp4	0.0	331.64627599716187	
28	154.78296303749084	fix_post	2		12	26.0	2.5	/experiments/AOT/AOT_stimuli/rescaled_final/1449_rv.mp4	0.0	331.7627761363983	0.10002994537353516
29	154.88299298286438	fix_pre	0		120	27.0	2.5	/experiments/AOT/AOT_stimuli/rescaled_final/0706_rv.mp4	0.0	331.86280608177185	0.9999370574951172
29	155.8829300403595	movie	1		247	27.0	2.5	/experiments/AOT/AOT_stimuli/rescaled_final/0706_rv.mp4	0.0	332.86274313926697	2.500077962875366
29	156.26607990264893	pulse	1	t		27.0	2.5	/experiments/AOT/AOT_stimuli/rescaled_final/0706_rv.mp4	0.0	333.2458930015564	
29	157.866868019104	pulse	1	t		27.0	2.5	/experiments/AOT/AOT_stimuli/rescaled_final/0706_rv.mp4	0.0	334.8466811180115	
29	158.38300800323486	fix_post	2		12	27.0	2.5	/experiments/AOT/AOT_stimuli/rescaled_final/0706_rv.mp4	0.0	335.36282110214233	0.09994292259216309
30	158.48295092582703	fix_pre	0		119	28.0	2.5	blank	1.0	335.4627640247345	0.9913749694824219
30	159.46611285209656	pulse	0	t		28.0	2.5	blank	1.0	336.445925951004	
30	159.47432589530945	movie	1		301	28.0	2.5	blank	1.0	336.4541389942169	2.50858211517334
30	161.0663959980011	pulse	1	t		28.0	2.5	blank	1.0	338.04620909690857	
30	161.9829080104828	fix_post	2		12	28.0	2.5	blank	1.0	338.96272110939026	0.09999990463256836
31	162.08290791511536	fix_pre	0		120	29.0	2.5	/experiments/AOT/AOT_stimuli/rescaled_final/1749_rv.mp4	0.0	339.0627210140228	0.9999940395355225
31	162.6664650440216	pulse	0	t		29.0	2.5	/experiments/AOT/AOT_stimuli/rescaled_final/1749_rv.mp4	0.0	339.6462781429291	
31	163.08290195465088	movie	1		243	29.0	2.5	/experiments/AOT/AOT_stimuli/rescaled_final/1749_rv.mp4	0.0	340.06271505355835	2.5000669956207275
31	164.26638388633728	pulse	1	t		29.0	2.5	/experiments/AOT/AOT_stimuli/rescaled_final/1749_rv.mp4	0.0	341.24619698524475	
31	165.5829689502716	fix_post	2		12	29.0	2.5	/experiments/AOT/AOT_stimuli/rescaled_final/1749_rv.mp4	0.0	342.5627820491791	0.09997701644897461
32	165.68294596672058	fix_pre	0		120	30.0	2.5	/experiments/AOT/AOT_stimuli/rescaled_final/1192_fw.mp4	0.0	342.66275906562805	0.9999508857727051
32	165.8664050102234	pulse	0	t		30.0	2.5	/experiments/AOT/AOT_stimuli/rescaled_final/1192_fw.mp4	0.0	342.84621810913086	
32	166.6828968524933	movie	1		245	30.0	2.5	/experiments/AOT/AOT_stimuli/rescaled_final/1192_fw.mp4	0.0	343.66270995140076	2.5000240802764893
32	167.46642398834229	pulse	1	t		30.0	2.5	/experiments/AOT/AOT_stimuli/rescaled_final/1192_fw.mp4	0.0	344.44623708724976	
32	169.06644487380981	pulse	1	t		30.0	2.5	/experiments/AOT/AOT_stimuli/rescaled_final/1192_fw.mp4	0.0	346.0462579727173	
32	169.18292093276978	fix_post	2		12	30.0	2.5	/experiments/AOT/AOT_stimuli/rescaled_final/1192_fw.mp4	0.0	346.16273403167725	0.09993195533752441
33	169.2828528881073	fix_pre	0		120	31.0	2.5	/experiments/AOT/AOT_stimuli/rescaled_final/1368_rv.mp4	0.0	346.26266598701477	1.0000619888305664
33	170.28291487693787	movie	1		245	31.0	2.5	/experiments/AOT/AOT_stimuli/rescaled_final/1368_rv.mp4	0.0	347.26272797584534	2.4999020099639893
33	170.6658308506012	pulse	1	t		31.0	2.5	/experiments/AOT/AOT_stimuli/rescaled_final/1368_rv.mp4	0.0	347.64564394950867	
33	172.2663130760193	pulse	1	t		31.0	2.5	/experiments/AOT/AOT_stimuli/rescaled_final/1368_rv.mp4	0.0	349.24612617492676	
33	172.78281688690186	fix_post	2		12	31.0	2.5	/experiments/AOT/AOT_stimuli/rescaled_final/1368_rv.mp4	0.0	349.7626299858093	0.10003018379211426
34	172.88284707069397	fix_pre	0		119	32.0	2.5	/experiments/AOT/AOT_stimuli/rescaled_final/1990_fw.mp4	0.0	349.86266016960144	0.9917128086090088
34	173.86633205413818	pulse	0	t		32.0	2.5	/experiments/AOT/AOT_stimuli/rescaled_final/1990_fw.mp4	0.0	350.84614515304565	
34	173.87455987930298	movie	1		246	32.0	2.5	/experiments/AOT/AOT_stimuli/rescaled_final/1990_fw.mp4	0.0	350.85437297821045	2.508371114730835
34	175.46616387367249	pulse	1	t		32.0	2.5	/experiments/AOT/AOT_stimuli/rescaled_final/1990_fw.mp4	0.0	352.44597697257996	
34	176.3829309940338	fix_post	2		12	32.0	2.5	/experiments/AOT/AOT_stimuli/rescaled_final/1990_fw.mp4	0.0	353.3627440929413	0.09989786148071289
35	176.48282885551453	fix_pre	0		120	33.0	2.5	/experiments/AOT/AOT_stimuli/rescaled_final/0870_rv.mp4	0.0	353.462641954422	1.0000832080841064
35	177.0663058757782	pulse	0	t		33.0	2.5	/experiments/AOT/AOT_stimuli/rescaled_final/0870_rv.mp4	0.0	354.04611897468567	
35	177.48291206359863	movie	1		243	33.0	2.5	/experiments/AOT/AOT_stimuli/rescaled_final/0870_rv.mp4	0.0	354.4627251625061	2.499987840652466
35	178.6664080619812	pulse	1	t		33.0	2.5	/experiments/AOT/AOT_stimuli/rescaled_final/0870_rv.mp4	0.0	355.6462211608887	
35	179.9828999042511	fix_post	2		12	33.0	2.5	/experiments/AOT/AOT_stimuli/rescaled_final/0870_rv.mp4	0.0	356.96271300315857	0.09999799728393555
36	180.08289790153503	fix_pre	0		120	34.0	2.5	/experiments/AOT/AOT_stimuli/rescaled_final/1212_fw.mp4	0.0	357.0627110004425	0.9999561309814453
36	180.26640486717224	pulse	0	t		34.0	2.5	/experiments/AOT/AOT_stimuli/rescaled_final/1212_fw.mp4	0.0	357.2462179660797	
36	181.08285403251648	movie	1		243	34.0	2.5	/experiments/AOT/AOT_stimuli/rescaled_final/1212_fw.mp4	0.0	358.06266713142395	2.5000150203704834
36	181.86635303497314	pulse	1	t		34.0	2.5	/experiments/AOT/AOT_stimuli/rescaled_final/1212_fw.mp4	0.0	358.8461661338806	
36	183.4747359752655	pulse	1	t		34.0	2.5	/experiments/AOT/AOT_stimuli/rescaled_final/1212_fw.mp4	0.0	360.454549074173	
36	183.58286905288696	fix_post	2		12	34.0	2.5	/experiments/AOT/AOT_stimuli/rescaled_final/1212_fw.mp4	0.0	360.56268215179443	0.09994292259216309
37	183.68281197547913	fix_pre	0		120	35.0	2.5	blank	1.0	360.6626250743866	1.000053882598877
37	184.682865858078	movie	1		300	35.0	2.5	blank	1.0	361.6626789569855	2.499920129776001
37	185.06640005111694	pulse	1	t		35.0	2.5	blank	1.0	362.0462131500244	
37	186.66625690460205	pulse	1	t		35.0	2.5	blank	1.0	363.6460700035095	
37	187.182785987854	fix_post	2		12	35.0	2.5	blank	1.0	364.1625990867615	0.10002803802490234
38	187.2828140258789	fix_pre	0		119	36.0	2.5	/experiments/AOT/AOT_stimuli/rescaled_final/1929_fw.mp4	0.0	364.2626271247864	0.9916510581970215
38	188.26621985435486	pulse	0	t		36.0	2.5	/experiments/AOT/AOT_stimuli/rescaled_final/1929_fw.mp4	0.0	365.24603295326233	
38	188.27446508407593	movie	1		245	36.0	2.5	/experiments/AOT/AOT_stimuli/rescaled_final/1929_fw.mp4	0.0	365.2542781829834	2.5079238414764404
38	189.87464904785156	pulse	1	t		36.0	2.5	/experiments/AOT/AOT_stimuli/rescaled_final/1929_fw.mp4	0.0	366.85446214675903	
38	190.78238892555237	fix_post	2		12	36.0	2.5	/experiments/AOT/AOT_stimuli/rescaled_final/1929_fw.mp4	0.0	367.76220202445984	0.10047411918640137
39	190.88286304473877	fix_pre	0		120	37.0	2.5	/experiments/AOT/AOT_stimuli/rescaled_final/1412_rv.mp4	0.0	367.86267614364624	0.9999599456787109
39	191.46629285812378	pulse	0	t		37.0	2.5	/experiments/AOT/AOT_stimuli/rescaled_final/1412_rv.mp4	0.0	368.44610595703125	
39	191.88282299041748	movie	1		243	37.0	2.5	/experiments/AOT/AOT_stimuli/rescaled_final/1412_rv.mp4	0.0	368.86263608932495	2.499577045440674
39	193.06644797325134	pulse	1	t		37.0	2.5	/experiments/AOT/AOT_stimuli/rescaled_final/1412_rv.mp4	0.0	370.0462610721588	
39	194.38240003585815	fix_post	2		12	37.0	2.5	/experiments/AOT/AOT_stimuli/rescaled_final/1412_rv.mp4	0.0	371.3622131347656	0.10038399696350098
40	194.48278403282166	fix_pre	0		120	38.0	2.5	/experiments/AOT/AOT_stimuli/rescaled_final/1373_rv.mp4	0.0	371.4625971317291	0.9999580383300781
40	194.6661880016327	pulse	0	t		38.0	2.5	/experiments/AOT/AOT_stimuli/rescaled_final/1373_rv.mp4	0.0	371.64600110054016	
40	195.48274207115173	movie	1		245	38.0	2.5	/experiments/AOT/AOT_stimuli/rescaled_final/1373_rv.mp4	0.0	372.4625551700592	2.500046968460083
40	196.26625299453735	pulse	1	t		38.0	2.5	/experiments/AOT/AOT_stimuli/rescaled_final/1373_rv.mp4	0.0	373.2460660934448	
40	197.86634492874146	pulse	1	t		38.0	2.5	/experiments/AOT/AOT_stimuli/rescaled_final/1373_rv.mp4	0.0	374.8461580276489	
40	197.98278903961182	fix_post	2		12	38.0	2.5	/experiments/AOT/AOT_stimuli/rescaled_final/1373_rv.mp4	0.0	374.9626021385193	0.09995484352111816
41	198.08274388313293	fix_pre	0		120	39.0	2.5	/experiments/AOT/AOT_stimuli/rescaled_final/1816_fw.mp4	0.0	375.0625569820404	1.0000481605529785
41	199.0827920436859	movie	1		246	39.0	2.5	/experiments/AOT/AOT_stimuli/rescaled_final/1816_fw.mp4	0.0	376.0626051425934	2.499971866607666
41	199.46607208251953	pulse	1	t		39.0	2.5	/experiments/AOT/AOT_stimuli/rescaled_final/1816_fw.mp4	0.0	376.445885181427	
41	201.06624698638916	pulse	1	t		39.0	2.5	/experiments/AOT/AOT_stimuli/rescaled_final/1816_fw.mp4	0.0	378.04606008529663	
41	201.58276391029358	fix_post	2		12	39.0	2.5	/experiments/AOT/AOT_stimuli/rescaled_final/1816_fw.mp4	0.0	378.56257700920105	0.0999751091003418
42	201.68273901939392	fix_pre	0		119	40.0	2.5	blank	1.0	378.6625521183014	0.9916620254516602
42	202.66625690460205	pulse	0	t		40.0	2.5	blank	1.0	379.6460700035095	
42	202.67440104484558	movie	1		301	40.0	2.5	blank	1.0	379.65421414375305	2.5083248615264893
42	204.26616501808167	pulse	1	t		40.0	2.5	blank	1.0	381.24597811698914	
42	205.18272590637207	fix_post	2		12	40.0	2.5	blank	1.0	382.16253900527954	0.09999895095825195
43	205.28272485733032	fix_pre	0		120	41.0	2.5	/experiments/AOT/AOT_stimuli/rescaled_final/2011_rv.mp4	0.0	382.2625379562378	1.0000410079956055
43	205.8663170337677	pulse	0	t		41.0	2.5	/experiments/AOT/AOT_stimuli/rescaled_final/2011_rv.mp4	0.0	382.84613013267517	
43	206.28276586532593	movie	1		245	41.0	2.5	/experiments/AOT/AOT_stimuli/rescaled_final/2011_rv.mp4	0.0	383.2625789642334	2.4999191761016846
43	207.46629405021667	pulse	1	t		41.0	2.5	/experiments/AOT/AOT_stimuli/rescaled_final/2011_rv.mp4	0.0	384.44610714912415	
43	208.7826850414276	fix_post	2		12	41.0	2.5	/experiments/AOT/AOT_stimuli/rescaled_final/2011_rv.mp4	0.0	385.7624981403351	0.10001182556152344
44	208.88269686698914	fix_pre	0		120	42.0	2.5	/experiments/AOT/AOT_stimuli/rescaled_final/0973_fw.mp4	0.0	385.8625099658966	1.0000200271606445
44	209.06616497039795	pulse	0	t		42.0	2.5	/experiments/AOT/AOT_stimuli/rescaled_final/0973_fw.mp4	0.0	386.0459780693054	
44	209.88271689414978	movie	1		244	42.0	2.5	/experiments/AOT/AOT_stimuli/rescaled_final/0973_fw.mp4	0.0	386.86252999305725	2.500040054321289
44	210.66616797447205	pulse	1	t		42.0	2.5	/experiments/AOT/AOT_stimuli/rescaled_final/0973_fw.mp4	0.0	387.6459810733795	
44	212.27456092834473	pulse	1	t		42.0	2.5	/experiments/AOT/AOT_stimuli/rescaled_final/0973_fw.mp4	0.0	389.2543740272522	
44	212.38275694847107	fix_post	2		12	42.0	2.5	/experiments/AOT/AOT_stimuli/rescaled_final/0973_fw.mp4	0.0	389.36257004737854	0.09952402114868164
45	212.48228096961975	fix_pre	0		120	43.0	2.5	/experiments/AOT/AOT_stimuli/rescaled_final/0218_fw.mp4	0.0	389.4620940685272	1.0000240802764893
45	213.48230504989624	movie	1		246	43.0	2.5	/experiments/AOT/AOT_stimuli/rescaled_final/0218_fw.mp4	0.0	390.4621181488037	2.5006208419799805
45	213.8740599155426	pulse	1	t		43.0	2.5	/experiments/AOT/AOT_stimuli/rescaled_final/0218_fw.mp4	0.0	390.8538730144501	
45	215.46631598472595	pulse	1	t		43.0	2.5	/experiments/AOT/AOT_stimuli/rescaled_final/0218_fw.mp4	0.0	392.4461290836334	
45	215.98292589187622	fix_post	2		12	43.0	2.5	/experiments/AOT/AOT_stimuli/rescaled_final/0218_fw.mp4	0.0	392.9627389907837	0.0995790958404541
46	216.08250498771667	fix_pre	0		119	44.0	2.5	/experiments/AOT/AOT_stimuli/rescaled_final/2123_fw.mp4	0.0	393.06231808662415	0.9918110370635986
46	217.06622099876404	pulse	0	t		44.0	2.5	/experiments/AOT/AOT_stimuli/rescaled_final/2123_fw.mp4	0.0	394.0460340976715	
46	217.07431602478027	movie	1		246	44.0	2.5	/experiments/AOT/AOT_stimuli/rescaled_final/2123_fw.mp4	0.0	394.05412912368774	2.5083398818969727
46	218.66552686691284	pulse	1	t		44.0	2.5	/experiments/AOT/AOT_stimuli/rescaled_final/2123_fw.mp4	0.0	395.6453399658203	
46	219.58265590667725	fix_post	2		12	44.0	2.5	/experiments/AOT/AOT_stimuli/rescaled_final/2123_fw.mp4	0.0	396.5624690055847	0.10009002685546875
47	219.68274593353271	fix_pre	0		120	45.0	2.5	/experiments/AOT/AOT_stimuli/rescaled_final/1769_fw.mp4	0.0	396.6625590324402	0.9999561309814453
47	220.2661108970642	pulse	0	t		45.0	2.5	/experiments/AOT/AOT_stimuli/rescaled_final/1769_fw.mp4	0.0	397.2459239959717	
47	220.68270206451416	movie	1		246	45.0	2.5	/experiments/AOT/AOT_stimuli/rescaled_final/1769_fw.mp4	0.0	397.66251516342163	2.4999618530273438
47	221.8661880493164	pulse	1	t		45.0	2.5	/experiments/AOT/AOT_stimuli/rescaled_final/1769_fw.mp4	0.0	398.8460011482239	
47	223.1826639175415	fix_post	2		12	45.0	2.5	/experiments/AOT/AOT_stimuli/rescaled_final/1769_fw.mp4	0.0	400.162477016449	0.0999300479888916
48	223.2825939655304	fix_pre	0		120	46.0	2.5	/experiments/AOT/AOT_stimuli/rescaled_final/0007_rv.mp4	0.0	400.26240706443787	0.9999759197235107
48	223.4660940170288	pulse	0	t		46.0	2.5	/experiments/AOT/AOT_stimuli/rescaled_final/0007_rv.mp4	0.0	400.4459071159363	
48	224.2825698852539	movie	1		245	46.0	2.5	/experiments/AOT/AOT_stimuli/rescaled_final/0007_rv.mp4	0.0	401.2623829841614	2.5000150203704834
48	225.06602692604065	pulse	1	t		46.0	2.5	/experiments/AOT/AOT_stimuli/rescaled_final/0007_rv.mp4	0.0	402.0458400249481	
48	226.66604685783386	pulse	1	t		46.0	2.5	/experiments/AOT/AOT_stimuli/rescaled_final/0007_rv.mp4	0.0	403.64585995674133	
48	226.7825849056244	fix_post	2		12	46.0	2.5	/experiments/AOT/AOT_stimuli/rescaled_final/0007_rv.mp4	0.0	403.76239800453186	0.09996914863586426
49	226.88255405426025	fix_pre	0		120	47.0	2.5	/experiments/AOT/AOT_stimuli/rescaled_final/0959_rv.mp4	0.0	403.8623671531677	1.0000228881835938
49	227.88257694244385	movie	1		244	47.0	2.5	/experiments/AOT/AOT_stimuli/rescaled_final/0959_rv.mp4	0.0	404.8623900413513	2.500051975250244
49	228.2745680809021	pulse	1	t		47.0	2.5	/experiments/AOT/AOT_stimuli/rescaled_final/0959_rv.mp4	0.0	405.25438117980957	
49	229.86602401733398	pulse	1	t		47.0	2.5	/experiments/AOT/AOT_stimuli/rescaled_final/0959_rv.mp4	0.0	406.84583711624146	
49	230.3826289176941	fix_post	2		12	47.0	2.5	/experiments/AOT/AOT_stimuli/rescaled_final/0959_rv.mp4	0.0	407.36244201660156	0.09993600845336914
50	230.48256492614746	fix_pre	0		119	48.0	2.5	blank	1.0	407.46237802505493	0.9916689395904541
50	231.46605801582336	pulse	0	t		48.0	2.5	blank	1.0	408.44587111473083	
50	231.47423386573792	movie	1		301	48.0	2.5	blank	1.0	408.4540469646454	2.5083401203155518
50	233.0661199092865	pulse	1	t		48.0	2.5	blank	1.0	410.04593300819397	
50	233.98257398605347	fix_post	2		12	48.0	2.5	blank	1.0	410.96238708496094	0.10016894340515137
51	234.08274292945862	fix_pre	0		120	49.0	2.5	/experiments/AOT/AOT_stimuli/rescaled_final/1929_rv.mp4	0.0	411.0625560283661	0.9998509883880615
51	234.66606307029724	pulse	0	t		49.0	2.5	/experiments/AOT/AOT_stimuli/rescaled_final/1929_rv.mp4	0.0	411.6458761692047	
51	235.08259391784668	movie	1		248	49.0	2.5	/experiments/AOT/AOT_stimuli/rescaled_final/1929_rv.mp4	0.0	412.06240701675415	2.4999001026153564
51	236.26612091064453	pulse	1	t		49.0	2.5	/experiments/AOT/AOT_stimuli/rescaled_final/1929_rv.mp4	0.0	413.245934009552	
51	237.58249402046204	fix_post	2		12	49.0	2.5	/experiments/AOT/AOT_stimuli/rescaled_final/1929_rv.mp4	0.0	414.5623071193695	0.10007405281066895
52	237.6825680732727	fix_pre	0		120	50.0	2.5	/experiments/AOT/AOT_stimuli/rescaled_final/0434_rv.mp4	0.0	414.6623811721802	1.0000059604644775
52	237.8668348789215	pulse	0	t		50.0	2.5	/experiments/AOT/AOT_stimuli/rescaled_final/0434_rv.mp4	0.0	414.846647977829	
52	238.68257403373718	movie	1		245	50.0	2.5	/experiments/AOT/AOT_stimuli/rescaled_final/0434_rv.mp4	0.0	415.66238713264465	2.5000529289245605
52	239.46605491638184	pulse	1	t		50.0	2.5	/experiments/AOT/AOT_stimuli/rescaled_final/0434_rv.mp4	0.0	416.4458680152893	
52	241.06609392166138	pulse	1	t		50.0	2.5	/experiments/AOT/AOT_stimuli/rescaled_final/0434_rv.mp4	0.0	418.04590702056885	
52	241.18262696266174	fix_post	2		12	50.0	2.5	/experiments/AOT/AOT_stimuli/rescaled_final/0434_rv.mp4	0.0	418.1624400615692	0.09992504119873047
53	241.28255200386047	fix_pre	0		120	51.0	2.5	/experiments/AOT/AOT_stimuli/rescaled_final/1396_fw.mp4	0.0	418.26236510276794	1.0000019073486328
53	242.2825539112091	movie	1		247	51.0	2.5	/experiments/AOT/AOT_stimuli/rescaled_final/1396_fw.mp4	0.0	419.2623670101166	2.49955415725708
53	242.6744019985199	pulse	1	t		51.0	2.5	/experiments/AOT/AOT_stimuli/rescaled_final/1396_fw.mp4	0.0	419.65421509742737	
53	244.26603507995605	pulse	1	t		51.0	2.5	/experiments/AOT/AOT_stimuli/rescaled_final/1396_fw.mp4	0.0	421.2458481788635	
53	244.7821080684662	fix_post	2		12	51.0	2.5	/experiments/AOT/AOT_stimuli/rescaled_final/1396_fw.mp4	0.0	421.76192116737366	0.10052180290222168
54	244.8826298713684	fix_pre	0		119	52.0	2.5	/experiments/AOT/AOT_stimuli/rescaled_final/1371_fw.mp4	0.0	421.8624429702759	0.9916591644287109
54	245.86604189872742	pulse	0	t		52.0	2.5	/experiments/AOT/AOT_stimuli/rescaled_final/1371_fw.mp4	0.0	422.8458549976349	
54	245.87428903579712	movie	1		245	52.0	2.5	/experiments/AOT/AOT_stimuli/rescaled_final/1371_fw.mp4	0.0	422.8541021347046	2.50838303565979
54	247.46558785438538	pulse	1	t		52.0	2.5	/experiments/AOT/AOT_stimuli/rescaled_final/1371_fw.mp4	0.0	424.44540095329285	
54	248.3826720714569	fix_post	2		12	52.0	2.5	/experiments/AOT/AOT_stimuli/rescaled_final/1371_fw.mp4	0.0	425.3624851703644	0.09988880157470703
55	248.48256087303162	fix_pre	0		120	53.0	2.5	/experiments/AOT/AOT_stimuli/rescaled_final/0584_rv.mp4	0.0	425.4623739719391	0.9999430179595947
55	249.06597805023193	pulse	0	t		53.0	2.5	/experiments/AOT/AOT_stimuli/rescaled_final/0584_rv.mp4	0.0	426.0457911491394	
55	249.4825038909912	movie	1		246	53.0	2.5	/experiments/AOT/AOT_stimuli/rescaled_final/0584_rv.mp4	0.0	426.4623169898987	2.4999840259552
55	250.66607904434204	pulse	1	t		53.0	2.5	/experiments/AOT/AOT_stimuli/rescaled_final/0584_rv.mp4	0.0	427.6458921432495	
55	251.9824879169464	fix_post	2		12	53.0	2.5	/experiments/AOT/AOT_stimuli/rescaled_final/0584_rv.mp4	0.0	428.9623010158539	0.10006093978881836
56	252.08254885673523	fix_pre	0		120	54.0	2.5	/experiments/AOT/AOT_stimuli/rescaled_final/1102_rv.mp4	0.0	429.0623619556427	0.9999051094055176
56	252.26595902442932	pulse	0	t		54.0	2.5	/experiments/AOT/AOT_stimuli/rescaled_final/1102_rv.mp4	0.0	429.2457721233368	
56	253.08245396614075	movie	1		243	54.0	2.5	/experiments/AOT/AOT_stimuli/rescaled_final/1102_rv.mp4	0.0	430.0622670650482	2.500058889389038
56	253.8659770488739	pulse	1	t		54.0	2.5	/experiments/AOT/AOT_stimuli/rescaled_final/1102_rv.mp4	0.0	430.8457901477814	
56	255.47436499595642	pulse	1	t		54.0	2.5	/experiments/AOT/AOT_stimuli/rescaled_final/1102_rv.mp4	0.0	432.4541780948639	
56	255.58251285552979	fix_post	2		12	54.0	2.5	/experiments/AOT/AOT_stimuli/rescaled_final/1102_rv.mp4	0.0	432.56232595443726	0.09994220733642578
57	255.6824550628662	fix_pre	0		120	55.0	2.5	/experiments/AOT/AOT_stimuli/rescaled_final/0085_fw.mp4	0.0	432.6622681617737	1.0000100135803223
57	256.68246507644653	movie	1		245	55.0	2.5	/experiments/AOT/AOT_stimuli/rescaled_final/0085_fw.mp4	0.0	433.662278175354	2.5000059604644775
57	257.0743610858917	pulse	1	t		55.0	2.5	/experiments/AOT/AOT_stimuli/rescaled_final/0085_fw.mp4	0.0	434.0541741847992	
57	258.66594886779785	pulse	1	t		55.0	2.5	/experiments/AOT/AOT_stimuli/rescaled_final/0085_fw.mp4	0.0	435.6457619667053	
57	259.182471036911	fix_post	2		12	55.0	2.5	/experiments/AOT/AOT_stimuli/rescaled_final/0085_fw.mp4	0.0	436.1622841358185	0.09998703002929688
58	259.2824580669403	fix_pre	0		119	56.0	2.5	blank	1.0	436.2622711658478	0.9916558265686035
58	260.26599502563477	pulse	0	t		56.0	2.5	blank	1.0	437.24580812454224	
58	260.2741138935089	movie	1		301	56.0	2.5	blank	1.0	437.2539269924164	2.5083141326904297
58	261.86598801612854	pulse	1	t		56.0	2.5	blank	1.0	438.845801115036	
58	262.78242802619934	fix_post	2		12	56.0	2.5	blank	1.0	439.7622411251068	0.09998798370361328
59	262.88241600990295	fix_pre	0		120	57.0	2.5	/experiments/AOT/AOT_stimuli/rescaled_final/2164_rv.mp4	0.0	439.8622291088104	1.0000989437103271
59	263.46596598625183	pulse	0	t		57.0	2.5	/experiments/AOT/AOT_stimuli/rescaled_final/2164_rv.mp4	0.0	440.4457790851593	
59	263.8825149536133	movie	1		244	57.0	2.5	/experiments/AOT/AOT_stimuli/rescaled_final/2164_rv.mp4	0.0	440.86232805252075	2.4999659061431885
59	265.0659990310669	pulse	1	t		57.0	2.5	/experiments/AOT/AOT_stimuli/rescaled_final/2164_rv.mp4	0.0	442.04581212997437	
59	266.38248085975647	fix_post	2		12	57.0	2.5	/experiments/AOT/AOT_stimuli/rescaled_final/2164_rv.mp4	0.0	443.36229395866394	0.10001420974731445
60	266.4824950695038	fix_pre	0		120	58.0	2.5	/experiments/AOT/AOT_stimuli/rescaled_final/0314_rv.mp4	0.0	443.46230816841125	1.0000519752502441
60	266.6659400463104	pulse	0	t		58.0	2.5	/experiments/AOT/AOT_stimuli/rescaled_final/0314_rv.mp4	0.0	443.6457531452179	
60	267.482547044754	movie	1		247	58.0	2.5	/experiments/AOT/AOT_stimuli/rescaled_final/0314_rv.mp4	0.0	444.4623601436615	2.499478816986084
60	268.26585698127747	pulse	1	t		58.0	2.5	/experiments/AOT/AOT_stimuli/rescaled_final/0314_rv.mp4	0.0	445.24567008018494	
60	269.86568093299866	pulse	1	t		58.0	2.5	/experiments/AOT/AOT_stimuli/rescaled_final/0314_rv.mp4	0.0	446.8454940319061	
60	269.9820258617401	fix_post	2		12	58.0	2.5	/experiments/AOT/AOT_stimuli/rescaled_final/0314_rv.mp4	0.0	446.9618389606476	0.09999608993530273
61	270.0820219516754	fix_pre	0		120	59.0	2.5	/experiments/AOT/AOT_stimuli/rescaled_final/1886_fw.mp4	0.0	447.0618350505829	1.0004730224609375
61	271.08249497413635	movie	1		246	59.0	2.5	/experiments/AOT/AOT_stimuli/rescaled_final/1886_fw.mp4	0.0	448.0623080730438	2.499885082244873
61	271.47444701194763	pulse	1	t		59.0	2.5	/experiments/AOT/AOT_stimuli/rescaled_final/1886_fw.mp4	0.0	448.4542601108551	
61	273.0668330192566	pulse	1	t		59.0	2.5	/experiments/AOT/AOT_stimuli/rescaled_final/1886_fw.mp4	0.0	450.04664611816406	
61	273.5823800563812	fix_post	2		12	59.0	2.5	/experiments/AOT/AOT_stimuli/rescaled_final/1886_fw.mp4	0.0	450.5621931552887	0.10002994537353516
62	273.68241000175476	fix_pre	0		119	60.0	2.5	/experiments/AOT/AOT_stimuli/rescaled_final/0764_rv.mp4	0.0	450.66222310066223	0.9916279315948486
62	274.66583490371704	pulse	0	t		60.0	2.5	/experiments/AOT/AOT_stimuli/rescaled_final/0764_rv.mp4	0.0	451.6456480026245	
62	274.6740379333496	movie	1		246	60.0	2.5	/experiments/AOT/AOT_stimuli/rescaled_final/0764_rv.mp4	0.0	451.6538510322571	2.508294105529785
62	276.2741730213165	pulse	1	t		60.0	2.5	/experiments/AOT/AOT_stimuli/rescaled_final/0764_rv.mp4	0.0	453.253986120224	
62	277.1823320388794	fix_post	2		12	60.0	2.5	/experiments/AOT/AOT_stimuli/rescaled_final/0764_rv.mp4	0.0	454.16214513778687	0.10000491142272949
63	277.2823369503021	fix_pre	0		120	61.0	2.5	/experiments/AOT/AOT_stimuli/rescaled_final/0271_fw.mp4	0.0	454.2621500492096	0.9999620914459229
63	277.8657250404358	pulse	0	t		61.0	2.5	/experiments/AOT/AOT_stimuli/rescaled_final/0271_fw.mp4	0.0	454.84553813934326	
63	278.28229904174805	movie	1		245	61.0	2.5	/experiments/AOT/AOT_stimuli/rescaled_final/0271_fw.mp4	0.0	455.2621121406555	2.500018835067749
63	279.46583008766174	pulse	1	t		61.0	2.5	/experiments/AOT/AOT_stimuli/rescaled_final/0271_fw.mp4	0.0	456.4456431865692	
63	280.7823178768158	fix_post	2		12	61.0	2.5	/experiments/AOT/AOT_stimuli/rescaled_final/0271_fw.mp4	0.0	457.76213097572327	0.09996700286865234
64	280.88228487968445	fix_pre	0		120	62.0	2.5	/experiments/AOT/AOT_stimuli/rescaled_final/1185_fw.mp4	0.0	457.8620979785919	1.0000200271606445
64	281.06572103500366	pulse	0	t		62.0	2.5	/experiments/AOT/AOT_stimuli/rescaled_final/1185_fw.mp4	0.0	458.04553413391113	
64	281.8823049068451	movie	1		243	62.0	2.5	/experiments/AOT/AOT_stimuli/rescaled_final/1185_fw.mp4	0.0	458.86211800575256	2.500002145767212
64	282.6657359600067	pulse	1	t		62.0	2.5	/experiments/AOT/AOT_stimuli/rescaled_final/1185_fw.mp4	0.0	459.6455490589142	
64	284.27424693107605	pulse	1	t		62.0	2.5	/experiments/AOT/AOT_stimuli/rescaled_final/1185_fw.mp4	0.0	461.2540600299835	
64	284.3823070526123	fix_post	2		12	62.0	2.5	/experiments/AOT/AOT_stimuli/rescaled_final/1185_fw.mp4	0.0	461.3621201515198	0.10000896453857422
65	284.4823160171509	fix_pre	0		120	63.0	2.5	blank	1.0	461.46212911605835	0.999953031539917
65	285.4822690486908	movie	1		300	63.0	2.5	blank	1.0	462.46208214759827	2.500005006790161
65	285.8658559322357	pulse	1	t		63.0	2.5	blank	1.0	462.8456690311432	
65	287.46653604507446	pulse	1	t		63.0	2.5	blank	1.0	464.44634914398193	
65	287.98227405548096	fix_post	2		12	63.0	2.5	blank	1.0	464.9620871543884	0.10000896453857422
66	288.08228302001953	fix_pre	0		120	64.0	2.5	/experiments/AOT/AOT_stimuli/rescaled_final/1523_fw.mp4	0.0	465.062096118927	1.0000970363616943
66	289.0667018890381	pulse	0	t		64.0	2.5	/experiments/AOT/AOT_stimuli/rescaled_final/1523_fw.mp4	0.0	466.04651498794556	
66	289.0823800563812	movie	1		247	64.0	2.5	/experiments/AOT/AOT_stimuli/rescaled_final/1523_fw.mp4	0.0	466.0621931552887	2.5078489780426025
66	290.67528891563416	pulse	1	t		64.0	2.5	/experiments/AOT/AOT_stimuli/rescaled_final/1523_fw.mp4	0.0	467.6551020145416	
66	291.5902290344238	fix_post	2		12	64.0	2.5	/experiments/AOT/AOT_stimuli/rescaled_final/1523_fw.mp4	0.0	468.5700421333313	0.10042500495910645
67	291.69065403938293	fix_pre	0		120	65.0	2.5	/experiments/AOT/AOT_stimuli/rescaled_final/1069_rv.mp4	0.0	468.6704671382904	1.000006914138794
67	292.26584696769714	pulse	0	t		65.0	2.5	/experiments/AOT/AOT_stimuli/rescaled_final/1069_rv.mp4	0.0	469.2456600666046	
67	292.69066095352173	movie	1		244	65.0	2.5	/experiments/AOT/AOT_stimuli/rescaled_final/1069_rv.mp4	0.0	469.6704740524292	2.4999959468841553
67	293.87420892715454	pulse	1	t		65.0	2.5	/experiments/AOT/AOT_stimuli/rescaled_final/1069_rv.mp4	0.0	470.854022026062	
67	295.1906569004059	fix_post	2		12	65.0	2.5	/experiments/AOT/AOT_stimuli/rescaled_final/1069_rv.mp4	0.0	472.17046999931335	0.09998512268066406
68	295.29064202308655	fix_pre	0		120	66.0	2.5	/experiments/AOT/AOT_stimuli/rescaled_final/2158_rv.mp4	0.0	472.270455121994	0.9999408721923828
68	295.4657070636749	pulse	0	t		66.0	2.5	/experiments/AOT/AOT_stimuli/rescaled_final/2158_rv.mp4	0.0	472.4455201625824	
68	296.29058289527893	movie	1		243	66.0	2.5	/experiments/AOT/AOT_stimuli/rescaled_final/2158_rv.mp4	0.0	473.2703959941864	2.5000221729278564
68	297.06577491760254	pulse	1	t		66.0	2.5	/experiments/AOT/AOT_stimuli/rescaled_final/2158_rv.mp4	0.0	474.04558801651	
68	298.6657660007477	pulse	1	t		66.0	2.5	/experiments/AOT/AOT_stimuli/rescaled_final/2158_rv.mp4	0.0	475.64557909965515	
68	298.7906050682068	fix_post	2		12	66.0	2.5	/experiments/AOT/AOT_stimuli/rescaled_final/2158_rv.mp4	0.0	475.77041816711426	0.10001301765441895
69	298.8906180858612	fix_pre	0		120	67.0	2.5	/experiments/AOT/AOT_stimuli/rescaled_final/1790_rv.mp4	0.0	475.8704311847687	1.0
69	299.8906180858612	movie	1		244	67.0	2.5	/experiments/AOT/AOT_stimuli/rescaled_final/1790_rv.mp4	0.0	476.8704311847687	2.5001118183135986
69	300.2657699584961	pulse	1	t		67.0	2.5	/experiments/AOT/AOT_stimuli/rescaled_final/1790_rv.mp4	0.0	477.24558305740356	
69	301.8657989501953	pulse	1	t		67.0	2.5	/experiments/AOT/AOT_stimuli/rescaled_final/1790_rv.mp4	0.0	478.8456120491028	
69	302.3907299041748	fix_post	2		12	67.0	2.5	/experiments/AOT/AOT_stimuli/rescaled_final/1790_rv.mp4	0.0	479.3705430030823	0.0998990535736084
70	302.4906289577484	fix_pre	0		119	68.0	2.5	/experiments/AOT/AOT_stimuli/rescaled_final/0227_rv.mp4	0.0	479.4704420566559	0.9915409088134766
70	303.4665880203247	pulse	0	t		68.0	2.5	/experiments/AOT/AOT_stimuli/rescaled_final/0227_rv.mp4	0.0	480.4464011192322	
70	303.4821698665619	movie	1		244	68.0	2.5	/experiments/AOT/AOT_stimuli/rescaled_final/0227_rv.mp4	0.0	480.46198296546936	2.5084500312805176
70	305.0737318992615	pulse	1	t		68.0	2.5	/experiments/AOT/AOT_stimuli/rescaled_final/0227_rv.mp4	0.0	482.05354499816895	
70	305.9906198978424	fix_post	2		12	68.0	2.5	/experiments/AOT/AOT_stimuli/rescaled_final/0227_rv.mp4	0.0	482.9704329967499	0.09987807273864746
71	306.09049797058105	fix_pre	0		120	69.0	2.5	blank	1.0	483.0703110694885	1.0000600814819336
71	306.6664719581604	pulse	0	t		69.0	2.5	blank	1.0	483.64628505706787	
71	307.090558052063	movie	1		300	69.0	2.5	blank	1.0	484.07037115097046	2.4999399185180664
71	308.26651191711426	pulse	1	t		69.0	2.5	blank	1.0	485.24632501602173	
71	309.59049797058105	fix_post	2		12	69.0	2.5	blank	1.0	486.5703110694885	0.09996604919433594
72	309.6904640197754	fix_pre	0		120	70.0	2.5	/experiments/AOT/AOT_stimuli/rescaled_final/2028_fw.mp4	0.0	486.67027711868286	1.0001180171966553
72	309.8657329082489	pulse	0	t		70.0	2.5	/experiments/AOT/AOT_stimuli/rescaled_final/2028_fw.mp4	0.0	486.8455460071564	
72	310.69058203697205	movie	1		243	70.0	2.5	/experiments/AOT/AOT_stimuli/rescaled_final/2028_fw.mp4	0.0	487.6703951358795	2.50003981590271
72	311.46569299697876	pulse	1	t		70.0	2.5	/experiments/AOT/AOT_stimuli/rescaled_final/2028_fw.mp4	0.0	488.44550609588623	
72	313.0656650066376	pulse	1	t		70.0	2.5	/experiments/AOT/AOT_stimuli/rescaled_final/2028_fw.mp4	0.0	490.04547810554504	
72	313.19062185287476	fix_post	2		12	70.0	2.5	/experiments/AOT/AOT_stimuli/rescaled_final/2028_fw.mp4	0.0	490.1704349517822	0.09987211227416992
73	313.2904939651489	fix_pre	0		120	71.0	2.5	/experiments/AOT/AOT_stimuli/rescaled_final/1708_rv.mp4	0.0	490.2703070640564	1.0000500679016113
73	314.29054403305054	movie	1		245	71.0	2.5	/experiments/AOT/AOT_stimuli/rescaled_final/1708_rv.mp4	0.0	491.270357131958	2.4999680519104004
73	314.674987077713	pulse	1	t		71.0	2.5	/experiments/AOT/AOT_stimuli/rescaled_final/1708_rv.mp4	0.0	491.6548001766205	
73	316.26569390296936	pulse	1	t		71.0	2.5	/experiments/AOT/AOT_stimuli/rescaled_final/1708_rv.mp4	0.0	493.24550700187683	
73	316.79051208496094	fix_post	2		12	71.0	2.5	/experiments/AOT/AOT_stimuli/rescaled_final/1708_rv.mp4	0.0	493.7703251838684	0.10001182556152344
74	316.89052391052246	fix_pre	0		119	72.0	2.5	/experiments/AOT/AOT_stimuli/rescaled_final/1929_rv.mp4	0.0	493.87033700942993	0.9915580749511719
74	317.86645007133484	pulse	0	t		72.0	2.5	/experiments/AOT/AOT_stimuli/rescaled_final/1929_rv.mp4	0.0	494.8462631702423	
74	317.88208198547363	movie	1		246	72.0	2.5	/experiments/AOT/AOT_stimuli/rescaled_final/1929_rv.mp4	0.0	494.8618950843811	2.5085880756378174
74	319.473650932312	pulse	1	t		72.0	2.5	/experiments/AOT/AOT_stimuli/rescaled_final/1929_rv.mp4	0.0	496.4534640312195	
74	320.39067006111145	fix_post	2		12	72.0	2.5	/experiments/AOT/AOT_stimuli/rescaled_final/1929_rv.mp4	0.0	497.3704831600189	0.09990382194519043
75	320.49057388305664	fix_pre	0		120	73.0	2.5	/experiments/AOT/AOT_stimuli/rescaled_final/0928_fw.mp4	0.0	497.4703869819641	0.9999821186065674
75	321.06645488739014	pulse	0	t		73.0	2.5	/experiments/AOT/AOT_stimuli/rescaled_final/0928_fw.mp4	0.0	498.0462679862976	
75	321.4905560016632	movie	1		244	73.0	2.5	/experiments/AOT/AOT_stimuli/rescaled_final/0928_fw.mp4	0.0	498.4703691005707	2.4995219707489014
75	322.6740789413452	pulse	1	t		73.0	2.5	/experiments/AOT/AOT_stimuli/rescaled_final/0928_fw.mp4	0.0	499.6538920402527	
75	323.9900779724121	fix_post	2		12	73.0	2.5	/experiments/AOT/AOT_stimuli/rescaled_final/0928_fw.mp4	0.0	500.9698910713196	0.10051894187927246
76	324.0905969142914	fix_pre	0		120	74.0	2.5	/experiments/AOT/AOT_stimuli/rescaled_final/0606_rv.mp4	0.0	501.07041001319885	0.9999780654907227
76	324.266480922699	pulse	0	t		74.0	2.5	/experiments/AOT/AOT_stimuli/rescaled_final/0606_rv.mp4	0.0	501.24629402160645	
76	325.0905749797821	movie	1		245	74.0	2.5	/experiments/AOT/AOT_stimuli/rescaled_final/0606_rv.mp4	0.0	502.0703880786896	2.4997849464416504
76	325.8662860393524	pulse	1	t		74.0	2.5	/experiments/AOT/AOT_stimuli/rescaled_final/0606_rv.mp4	0.0	502.8460991382599	
76	327.46629095077515	pulse	1	t		74.0	2.5	/experiments/AOT/AOT_stimuli/rescaled_final/0606_rv.mp4	0.0	504.4461040496826	
76	327.59035992622375	fix_post	2		12	74.0	2.5	/experiments/AOT/AOT_stimuli/rescaled_final/0606_rv.mp4	0.0	504.5701730251312	0.10038995742797852
77	327.69074988365173	fix_pre	0		120	75.0	2.5	blank	1.0	504.6705629825592	0.9996511936187744
77	328.6904010772705	movie	1		300	75.0	2.5	blank	1.0	505.670214176178	2.499687910079956
77	329.0656340122223	pulse	1	t		75.0	2.5	blank	1.0	506.04544711112976	
77	330.6655559539795	pulse	1	t		75.0	2.5	blank	1.0	507.64536905288696	
77	331.19008898735046	fix_post	2		12	75.0	2.5	blank	1.0	508.16990208625793	0.10039496421813965
78	331.2904839515686	fix_pre	0		118	76.0	2.5	/experiments/AOT/AOT_stimuli/rescaled_final/0358_fw.mp4	0.0	508.2702970504761	0.983241081237793
78	332.26554107666016	pulse	0	t		76.0	2.5	/experiments/AOT/AOT_stimuli/rescaled_final/0358_fw.mp4	0.0	509.2453541755676	
78	332.2737250328064	movie	1		246	76.0	2.5	/experiments/AOT/AOT_stimuli/rescaled_final/0358_fw.mp4	0.0	509.25353813171387	2.508236885070801
78	333.87395191192627	pulse	1	t		76.0	2.5	/experiments/AOT/AOT_stimuli/rescaled_final/0358_fw.mp4	0.0	510.85376501083374	
78	334.7819619178772	fix_post	2		12	76.0	2.5	/experiments/AOT/AOT_stimuli/rescaled_final/0358_fw.mp4	0.0	511.76177501678467	0.10009193420410156
79	334.8820538520813	fix_pre	0		120	77.0	2.5	/experiments/AOT/AOT_stimuli/rescaled_final/1006_rv.mp4	0.0	511.86186695098877	1.0000560283660889
79	335.46633100509644	pulse	0	t		77.0	2.5	/experiments/AOT/AOT_stimuli/rescaled_final/1006_rv.mp4	0.0	512.4461441040039	
79	335.8821098804474	movie	1		245	77.0	2.5	/experiments/AOT/AOT_stimuli/rescaled_final/1006_rv.mp4	0.0	512.8619229793549	2.499946117401123
79	337.0665190219879	pulse	1	t		77.0	2.5	/experiments/AOT/AOT_stimuli/rescaled_final/1006_rv.mp4	0.0	514.0463321208954	
79	338.3820559978485	fix_post	2		12	77.0	2.5	/experiments/AOT/AOT_stimuli/rescaled_final/1006_rv.mp4	0.0	515.361869096756	0.09999299049377441
80	338.4820489883423	fix_pre	0		120	78.0	2.5	/experiments/AOT/AOT_stimuli/rescaled_final/1611_fw.mp4	0.0	515.4618620872498	1.0000669956207275
80	338.66640400886536	pulse	0	t		78.0	2.5	/experiments/AOT/AOT_stimuli/rescaled_final/1611_fw.mp4	0.0	515.6462171077728	
80	339.482115983963	movie	1		244	78.0	2.5	/experiments/AOT/AOT_stimuli/rescaled_final/1611_fw.mp4	0.0	516.4619290828705	2.4999799728393555
80	340.2663149833679	pulse	1	t		78.0	2.5	/experiments/AOT/AOT_stimuli/rescaled_final/1611_fw.mp4	0.0	517.2461280822754	
80	341.8739540576935	pulse	1	t		78.0	2.5	/experiments/AOT/AOT_stimuli/rescaled_final/1611_fw.mp4	0.0	518.853767156601	
80	341.98209595680237	fix_post	2		12	78.0	2.5	/experiments/AOT/AOT_stimuli/rescaled_final/1611_fw.mp4	0.0	518.9619090557098	0.0999460220336914
81	342.08204197883606	fix_pre	0		120	79.0	2.5	/experiments/AOT/AOT_stimuli/rescaled_final/1999_fw.mp4	0.0	519.0618550777435	1.0000200271606445
81	343.0820620059967	movie	1		244	79.0	2.5	/experiments/AOT/AOT_stimuli/rescaled_final/1999_fw.mp4	0.0	520.0618751049042	2.499484062194824
81	343.47393107414246	pulse	1	t		79.0	2.5	/experiments/AOT/AOT_stimuli/rescaled_final/1999_fw.mp4	0.0	520.4537441730499	
81	345.06555700302124	pulse	1	t		79.0	2.5	/experiments/AOT/AOT_stimuli/rescaled_final/1999_fw.mp4	0.0	522.0453701019287	
81	345.5815460681915	fix_post	2		12	79.0	2.5	/experiments/AOT/AOT_stimuli/rescaled_final/1999_fw.mp4	0.0	522.561359167099	0.1004648208618164
82	345.68201088905334	fix_pre	0		119	80.0	2.5	/experiments/AOT/AOT_stimuli/rescaled_final/1999_rv.mp4	0.0	522.6618239879608	0.9916591644287109
82	346.66553688049316	pulse	0	t		80.0	2.5	/experiments/AOT/AOT_stimuli/rescaled_final/1999_rv.mp4	0.0	523.6453499794006	
82	346.67367005348206	movie	1		245	80.0	2.5	/experiments/AOT/AOT_stimuli/rescaled_final/1999_rv.mp4	0.0	523.6534831523895	2.5083279609680176
82	348.2739329338074	pulse	1	t		80.0	2.5	/experiments/AOT/AOT_stimuli/rescaled_final/1999_rv.mp4	0.0	525.2537460327148	
82	349.1819980144501	fix_post	2		12	80.0	2.5	/experiments/AOT/AOT_stimuli/rescaled_final/1999_rv.mp4	0.0	526.1618111133575	0.09999990463256836
83	349.28199791908264	fix_pre	0		120	81.0	2.5	/experiments/AOT/AOT_stimuli/rescaled_final/1185_fw.mp4	0.0	526.2618110179901	1.0001120567321777
83	349.8655250072479	pulse	0	t		81.0	2.5	/experiments/AOT/AOT_stimuli/rescaled_final/1185_fw.mp4	0.0	526.8453381061554	
83	350.2821099758148	movie	1		246	81.0	2.5	/experiments/AOT/AOT_stimuli/rescaled_final/1185_fw.mp4	0.0	527.2619230747223	2.499798059463501
83	351.46663093566895	pulse	1	t		81.0	2.5	/experiments/AOT/AOT_stimuli/rescaled_final/1185_fw.mp4	0.0	528.4464440345764	
83	352.7819080352783	fix_post	2		12	81.0	2.5	/experiments/AOT/AOT_stimuli/rescaled_final/1185_fw.mp4	0.0	529.7617211341858	0.10003805160522461
84	352.88194608688354	fix_pre	0		120	82.0	2.5	/experiments/AOT/AOT_stimuli/rescaled_final/1095_fw.mp4	0.0	529.861759185791	1.0000059604644775
84	353.06627798080444	pulse	0	t		82.0	2.5	/experiments/AOT/AOT_stimuli/rescaled_final/1095_fw.mp4	0.0	530.0460910797119	
84	353.881952047348	movie	1		247	82.0	2.5	/experiments/AOT/AOT_stimuli/rescaled_final/1095_fw.mp4	0.0	530.8617651462555	2.5000200271606445
84	354.6664309501648	pulse	1	t		82.0	2.5	/experiments/AOT/AOT_stimuli/rescaled_final/1095_fw.mp4	0.0	531.6462440490723	
84	356.270122051239	pulse	1	t		82.0	2.5	/experiments/AOT/AOT_stimuli/rescaled_final/1095_fw.mp4	0.0	533.2499351501465	
84	356.38197207450867	fix_post	2		12	82.0	2.5	/experiments/AOT/AOT_stimuli/rescaled_final/1095_fw.mp4	0.0	533.3617851734161	0.09997677803039551
85	356.48194885253906	fix_pre	0		120	83.0	2.5	blank	1.0	533.4617619514465	1.0000290870666504
85	357.4819779396057	movie	1		300	83.0	2.5	blank	1.0	534.4617910385132	2.5000360012054443
85	357.86636304855347	pulse	1	t		83.0	2.5	blank	1.0	534.8461761474609	
85	359.4662389755249	pulse	1	t		83.0	2.5	blank	1.0	536.4460520744324	
85	359.98201394081116	fix_post	2		12	83.0	2.5	blank	1.0	536.9618270397186	0.09991812705993652
87	360.0819320678711	stim	0		1716					537.0617451667786	14.300021886825562
87	361.06636691093445	pulse	0	t						538.0461800098419	
87	362.66541385650635	pulse	0	t						539.6452269554138	
87	364.2654330730438	pulse	0	t						541.2452461719513	
87	365.8663718700409	pulse	0	t						542.8461849689484	
87	367.4663829803467	pulse	0	t						544.4461960792542	
87	369.0662589073181	pulse	0	t						546.0460720062256	
87	370.666298866272	pulse	0	t						547.6461119651794	
87	372.2663459777832	pulse	0	t						549.2461590766907	
87	373.86628007888794	pulse	0	t						550.8460931777954	
