trial_nr	onset	event_type	phase	response	nr_frames	movie_index	movie_duration	movie_file	blank	onset_abs	duration
0	0.21657586097717285	stim	0		30					23.654380798339844	0.2500030994415283
0	0.45853495597839355	response	0	space						23.896339893341064	
1	0.46657896041870117	stim	0		4051					23.904383897781372	33.77416205406189
1	34.23090982437134	pulse	0	t						57.66871476173401	
1	34.24074101448059	stim	1		1715					57.67854595184326	14.299625873565674
1	35.82208490371704	pulse	1	t						59.25988984107971	
1	37.422255992889404	pulse	1	t						60.860060930252075	
1	39.02247881889343	pulse	1	t						62.4602837562561	
1	40.62275290489197	pulse	1	t						64.06055784225464	
1	42.2154278755188	pulse	1	t						65.65323281288147	
1	43.815717935562134	pulse	1	t						67.2535228729248	
1	45.41587591171265	pulse	1	t						68.85368084907532	
1	47.01617789268494	pulse	1	t						70.45398283004761	
2	48.540366888046265	fix_pre	0		10	0.0	2.5	/experiments/knapen_AOT/AOT_stimuli/rescaled_final/1629_fw.mp4	0.0	71.97817182540894	0.08336806297302246
2	48.615681886672974	pulse	0	t		0.0	2.5	/experiments/knapen_AOT/AOT_stimuli/rescaled_final/1629_fw.mp4	0.0	72.05348682403564	
2	48.62373495101929	movie	1		242	0.0	2.5	/experiments/knapen_AOT/AOT_stimuli/rescaled_final/1629_fw.mp4	0.0	72.06153988838196	2.50875186920166
2	50.216248989105225	pulse	1	t		0.0	2.5	/experiments/knapen_AOT/AOT_stimuli/rescaled_final/1629_fw.mp4	0.0	73.6540539264679	
2	51.13248682022095	fix_post	2		12	0.0	2.5	/experiments/knapen_AOT/AOT_stimuli/rescaled_final/1629_fw.mp4	0.0	74.57029175758362	0.10001707077026367
3	51.23250389099121	fix_pre	0		120	1.0	2.5	/experiments/knapen_AOT/AOT_stimuli/rescaled_final/2038_fw.mp4	0.0	74.67030882835388	1.000169038772583
3	51.81605386734009	pulse	0	t		1.0	2.5	/experiments/knapen_AOT/AOT_stimuli/rescaled_final/2038_fw.mp4	0.0	75.25385880470276	
3	52.232672929763794	movie	1		246	1.0	2.5	/experiments/knapen_AOT/AOT_stimuli/rescaled_final/2038_fw.mp4	0.0	75.67047786712646	2.5002939701080322
3	53.416348934173584	pulse	1	t		1.0	2.5	/experiments/knapen_AOT/AOT_stimuli/rescaled_final/2038_fw.mp4	0.0	76.85415387153625	
3	54.732966899871826	fix_post	2		12	1.0	2.5	/experiments/knapen_AOT/AOT_stimuli/rescaled_final/2038_fw.mp4	0.0	78.1707718372345	0.10007405281066895
4	54.833040952682495	fix_pre	0		120	2.0	2.5	/experiments/knapen_AOT/AOT_stimuli/rescaled_final/0096_rv.mp4	0.0	78.27084589004517	1.000128984451294
4	55.016480922698975	pulse	0	t		2.0	2.5	/experiments/knapen_AOT/AOT_stimuli/rescaled_final/0096_rv.mp4	0.0	78.45428586006165	
4	55.83316993713379	movie	1		242	2.0	2.5	/experiments/knapen_AOT/AOT_stimuli/rescaled_final/0096_rv.mp4	0.0	79.27097487449646	2.500535011291504
4	56.61688590049744	pulse	1	t		2.0	2.5	/experiments/knapen_AOT/AOT_stimuli/rescaled_final/0096_rv.mp4	0.0	80.05469083786011	
4	58.21696901321411	pulse	1	t		2.0	2.5	/experiments/knapen_AOT/AOT_stimuli/rescaled_final/0096_rv.mp4	0.0	81.65477395057678	
4	58.33370494842529	fix_post	2		12	2.0	2.5	/experiments/knapen_AOT/AOT_stimuli/rescaled_final/0096_rv.mp4	0.0	81.77150988578796	0.09984087944030762
5	58.4335458278656	fix_pre	0		120	3.0	2.5	/experiments/knapen_AOT/AOT_stimuli/rescaled_final/1203_rv.mp4	0.0	81.87135076522827	1.0001530647277832
5	59.433698892593384	movie	1		242	3.0	2.5	/experiments/knapen_AOT/AOT_stimuli/rescaled_final/1203_rv.mp4	0.0	82.87150382995605	2.4922211170196533
5	59.81770396232605	pulse	1	t		3.0	2.5	/experiments/knapen_AOT/AOT_stimuli/rescaled_final/1203_rv.mp4	0.0	83.25550889968872	
5	61.41753602027893	pulse	1	t		3.0	2.5	/experiments/knapen_AOT/AOT_stimuli/rescaled_final/1203_rv.mp4	0.0	84.8553409576416	
5	61.92592000961304	fix_post	2		12	3.0	2.5	/experiments/knapen_AOT/AOT_stimuli/rescaled_final/1203_rv.mp4	0.0	85.36372494697571	0.09984278678894043
6	62.02576279640198	fix_pre	0		120	4.0	2.5	/experiments/knapen_AOT/AOT_stimuli/rescaled_final/1320_rv.mp4	0.0	85.46356773376465	1.0001411437988281
6	63.01779294013977	pulse	0	t		4.0	2.5	/experiments/knapen_AOT/AOT_stimuli/rescaled_final/1320_rv.mp4	0.0	86.45559787750244	
6	63.025903940200806	movie	1		244	4.0	2.5	/experiments/knapen_AOT/AOT_stimuli/rescaled_final/1320_rv.mp4	0.0	86.46370887756348	2.508772850036621
6	64.62247800827026	pulse	1	t		4.0	2.5	/experiments/knapen_AOT/AOT_stimuli/rescaled_final/1320_rv.mp4	0.0	88.06028294563293	
6	65.53467679023743	fix_post	2		12	4.0	2.5	/experiments/knapen_AOT/AOT_stimuli/rescaled_final/1320_rv.mp4	0.0	88.9724817276001	0.100006103515625
7	65.63468289375305	fix_pre	0		120	5.0	2.5	/experiments/knapen_AOT/AOT_stimuli/rescaled_final/0020_fw.mp4	0.0	89.07248783111572	1.0001039505004883
7	66.2182137966156	pulse	0	t		5.0	2.5	/experiments/knapen_AOT/AOT_stimuli/rescaled_final/0020_fw.mp4	0.0	89.65601873397827	
7	66.63478684425354	movie	1		241	5.0	2.5	/experiments/knapen_AOT/AOT_stimuli/rescaled_final/0020_fw.mp4	0.0	90.07259178161621	2.5004100799560547
7	67.8185088634491	pulse	1	t		5.0	2.5	/experiments/knapen_AOT/AOT_stimuli/rescaled_final/0020_fw.mp4	0.0	91.25631380081177	
7	69.1351969242096	fix_post	2		12	5.0	2.5	/experiments/knapen_AOT/AOT_stimuli/rescaled_final/0020_fw.mp4	0.0	92.57300186157227	0.09996891021728516
8	69.23516583442688	fix_pre	0		120	6.0	2.5	/experiments/knapen_AOT/AOT_stimuli/rescaled_final/1590_fw.mp4	0.0	92.67297077178955	1.0000941753387451
8	69.41873288154602	pulse	0	t		6.0	2.5	/experiments/knapen_AOT/AOT_stimuli/rescaled_final/1590_fw.mp4	0.0	92.85653781890869	
8	70.23526000976562	movie	1		242	6.0	2.5	/experiments/knapen_AOT/AOT_stimuli/rescaled_final/1590_fw.mp4	0.0	93.6730649471283	2.5005807876586914
8	71.0190019607544	pulse	1	t		6.0	2.5	/experiments/knapen_AOT/AOT_stimuli/rescaled_final/1590_fw.mp4	0.0	94.45680689811707	
8	72.61987686157227	pulse	1	t		6.0	2.5	/experiments/knapen_AOT/AOT_stimuli/rescaled_final/1590_fw.mp4	0.0	96.05768179893494	
8	72.73584079742432	fix_post	2		12	6.0	2.5	/experiments/knapen_AOT/AOT_stimuli/rescaled_final/1590_fw.mp4	0.0	96.17364573478699	0.0998830795288086
9	72.83572387695312	fix_pre	0		120	7.0	2.5	blank	1.0	96.2735288143158	1.0001180171966553
9	73.83584189414978	movie	1		299	7.0	2.5	blank	1.0	97.27364683151245	2.49206805229187
9	74.21947884559631	pulse	1	t		7.0	2.5	blank	1.0	97.65728378295898	
9	75.8196029663086	pulse	1	t		7.0	2.5	blank	1.0	99.25740790367126	
9	76.32790994644165	fix_post	2		12	7.0	2.5	blank	1.0	99.76571488380432	0.10001492500305176
10	76.4279248714447	fix_pre	0		120	8.0	2.5	/experiments/knapen_AOT/AOT_stimuli/rescaled_final/0396_rv.mp4	0.0	99.86572980880737	1.0001060962677002
10	77.42003989219666	pulse	0	t		8.0	2.5	/experiments/knapen_AOT/AOT_stimuli/rescaled_final/0396_rv.mp4	0.0	100.85784482955933	
10	77.4280309677124	movie	1		244	8.0	2.5	/experiments/knapen_AOT/AOT_stimuli/rescaled_final/0396_rv.mp4	0.0	100.86583590507507	2.5087790489196777
10	79.02040982246399	pulse	1	t		8.0	2.5	/experiments/knapen_AOT/AOT_stimuli/rescaled_final/0396_rv.mp4	0.0	102.45821475982666	
10	79.93681001663208	fix_post	2		12	8.0	2.5	/experiments/knapen_AOT/AOT_stimuli/rescaled_final/0396_rv.mp4	0.0	103.37461495399475	0.1000528335571289
11	80.03686285018921	fix_pre	0		120	9.0	2.5	/experiments/knapen_AOT/AOT_stimuli/rescaled_final/1665_fw.mp4	0.0	103.47466778755188	1.0000801086425781
11	80.62040781974792	pulse	0	t		9.0	2.5	/experiments/knapen_AOT/AOT_stimuli/rescaled_final/1665_fw.mp4	0.0	104.0582127571106	
11	81.03694295883179	movie	1		242	9.0	2.5	/experiments/knapen_AOT/AOT_stimuli/rescaled_final/1665_fw.mp4	0.0	104.47474789619446	2.500459909439087
11	82.22065901756287	pulse	1	t		9.0	2.5	/experiments/knapen_AOT/AOT_stimuli/rescaled_final/1665_fw.mp4	0.0	105.65846395492554	
11	83.53740286827087	fix_post	2		12	9.0	2.5	/experiments/knapen_AOT/AOT_stimuli/rescaled_final/1665_fw.mp4	0.0	106.97520780563354	0.09988212585449219
12	83.63728499412537	fix_pre	0		120	10.0	2.5	/experiments/knapen_AOT/AOT_stimuli/rescaled_final/1224_fw.mp4	0.0	107.07508993148804	1.0001389980316162
12	83.82084798812866	pulse	0	t		10.0	2.5	/experiments/knapen_AOT/AOT_stimuli/rescaled_final/1224_fw.mp4	0.0	107.25865292549133	
12	84.63742399215698	movie	1		243	10.0	2.5	/experiments/knapen_AOT/AOT_stimuli/rescaled_final/1224_fw.mp4	0.0	108.07522892951965	2.500545024871826
12	85.42113900184631	pulse	1	t		10.0	2.5	/experiments/knapen_AOT/AOT_stimuli/rescaled_final/1224_fw.mp4	0.0	108.85894393920898	
12	87.02179789543152	pulse	1	t		10.0	2.5	/experiments/knapen_AOT/AOT_stimuli/rescaled_final/1224_fw.mp4	0.0	110.45960283279419	
12	87.13796901702881	fix_post	2		12	10.0	2.5	/experiments/knapen_AOT/AOT_stimuli/rescaled_final/1224_fw.mp4	0.0	110.57577395439148	0.09985494613647461
13	87.23782396316528	fix_pre	0		120	11.0	2.5	/experiments/knapen_AOT/AOT_stimuli/rescaled_final/0584_rv.mp4	0.0	110.67562890052795	1.0001659393310547
13	88.23798990249634	movie	1		242	11.0	2.5	/experiments/knapen_AOT/AOT_stimuli/rescaled_final/0584_rv.mp4	0.0	111.67579483985901	2.492197036743164
13	88.62224197387695	pulse	1	t		11.0	2.5	/experiments/knapen_AOT/AOT_stimuli/rescaled_final/0584_rv.mp4	0.0	112.06004691123962	
13	90.22178483009338	pulse	1	t		11.0	2.5	/experiments/knapen_AOT/AOT_stimuli/rescaled_final/0584_rv.mp4	0.0	113.65958976745605	
13	90.7301869392395	fix_post	2		12	11.0	2.5	/experiments/knapen_AOT/AOT_stimuli/rescaled_final/0584_rv.mp4	0.0	114.16799187660217	0.09992790222167969
14	90.83011484146118	fix_pre	0		120	12.0	2.5	/experiments/knapen_AOT/AOT_stimuli/rescaled_final/0346_rv.mp4	0.0	114.26791977882385	1.0000970363616943
14	91.82214689254761	pulse	0	t		12.0	2.5	/experiments/knapen_AOT/AOT_stimuli/rescaled_final/0346_rv.mp4	0.0	115.25995182991028	
14	91.83021187782288	movie	1		244	12.0	2.5	/experiments/knapen_AOT/AOT_stimuli/rescaled_final/0346_rv.mp4	0.0	115.26801681518555	2.5087571144104004
14	93.4227077960968	pulse	1	t		12.0	2.5	/experiments/knapen_AOT/AOT_stimuli/rescaled_final/0346_rv.mp4	0.0	116.86051273345947	
14	94.33896899223328	fix_post	2		12	12.0	2.5	/experiments/knapen_AOT/AOT_stimuli/rescaled_final/0346_rv.mp4	0.0	117.77677392959595	0.09996485710144043
15	94.43893384933472	fix_pre	0		120	13.0	2.5	blank	1.0	117.87673878669739	1.000196933746338
15	95.02248287200928	pulse	0	t		13.0	2.5	blank	1.0	118.46028780937195	
15	95.43913078308105	movie	1		300	13.0	2.5	blank	1.0	118.87693572044373	2.5002901554107666
15	96.61526989936829	pulse	1	t		13.0	2.5	blank	1.0	120.05307483673096	
15	97.93942093849182	fix_post	2		12	13.0	2.5	blank	1.0	121.37722587585449	0.10001707077026367
16	98.03943800926208	fix_pre	0		120	14.0	2.5	/experiments/knapen_AOT/AOT_stimuli/rescaled_final/0410_fw.mp4	0.0	121.47724294662476	1.0002429485321045
16	98.21545100212097	pulse	0	t		14.0	2.5	/experiments/knapen_AOT/AOT_stimuli/rescaled_final/0410_fw.mp4	0.0	121.65325593948364	
16	99.03968095779419	movie	1		243	14.0	2.5	/experiments/knapen_AOT/AOT_stimuli/rescaled_final/0410_fw.mp4	0.0	122.47748589515686	2.500501871109009
16	99.8158209323883	pulse	1	t		14.0	2.5	/experiments/knapen_AOT/AOT_stimuli/rescaled_final/0410_fw.mp4	0.0	123.25362586975098	
16	101.41529679298401	pulse	1	t		14.0	2.5	/experiments/knapen_AOT/AOT_stimuli/rescaled_final/0410_fw.mp4	0.0	124.85310173034668	
16	101.5401828289032	fix_post	2		12	14.0	2.5	/experiments/knapen_AOT/AOT_stimuli/rescaled_final/0410_fw.mp4	0.0	124.97798776626587	0.09987616539001465
17	101.64005899429321	fix_pre	0		120	15.0	2.5	/experiments/knapen_AOT/AOT_stimuli/rescaled_final/1181_fw.mp4	0.0	125.07786393165588	1.0001239776611328
17	102.64018297195435	movie	1		241	15.0	2.5	/experiments/knapen_AOT/AOT_stimuli/rescaled_final/1181_fw.mp4	0.0	126.07798790931702	2.4921319484710693
17	103.01536989212036	pulse	1	t		15.0	2.5	/experiments/knapen_AOT/AOT_stimuli/rescaled_final/1181_fw.mp4	0.0	126.45317482948303	
17	104.61571002006531	pulse	1	t		15.0	2.5	/experiments/knapen_AOT/AOT_stimuli/rescaled_final/1181_fw.mp4	0.0	128.05351495742798	
17	105.13231492042542	fix_post	2		12	15.0	2.5	/experiments/knapen_AOT/AOT_stimuli/rescaled_final/1181_fw.mp4	0.0	128.5701198577881	0.09991908073425293
18	105.23223400115967	fix_pre	0		119	16.0	2.5	/experiments/knapen_AOT/AOT_stimuli/rescaled_final/1999_rv.mp4	0.0	128.67003893852234	0.9917919635772705
18	106.2159378528595	pulse	0	t		16.0	2.5	/experiments/knapen_AOT/AOT_stimuli/rescaled_final/1999_rv.mp4	0.0	129.65374279022217	
18	106.22402596473694	movie	1		243	16.0	2.5	/experiments/knapen_AOT/AOT_stimuli/rescaled_final/1999_rv.mp4	0.0	129.6618309020996	2.508793830871582
18	107.81673192977905	pulse	1	t		16.0	2.5	/experiments/knapen_AOT/AOT_stimuli/rescaled_final/1999_rv.mp4	0.0	131.25453686714172	
18	108.73281979560852	fix_post	2		12	16.0	2.5	/experiments/knapen_AOT/AOT_stimuli/rescaled_final/1999_rv.mp4	0.0	132.1706247329712	0.09993314743041992
19	108.83275294303894	fix_pre	0		120	17.0	2.5	/experiments/knapen_AOT/AOT_stimuli/rescaled_final/1873_rv.mp4	0.0	132.2705578804016	1.0001468658447266
19	109.41635990142822	pulse	0	t		17.0	2.5	/experiments/knapen_AOT/AOT_stimuli/rescaled_final/1873_rv.mp4	0.0	132.8541648387909	
19	109.83289980888367	movie	1		243	17.0	2.5	/experiments/knapen_AOT/AOT_stimuli/rescaled_final/1873_rv.mp4	0.0	133.27070474624634	2.500430107116699
19	111.0166118144989	pulse	1	t		17.0	2.5	/experiments/knapen_AOT/AOT_stimuli/rescaled_final/1873_rv.mp4	0.0	134.45441675186157	
19	112.33332991600037	fix_post	2		12	17.0	2.5	/experiments/knapen_AOT/AOT_stimuli/rescaled_final/1873_rv.mp4	0.0	135.77113485336304	0.0999300479888916
20	112.43325996398926	fix_pre	0		120	18.0	2.5	/experiments/knapen_AOT/AOT_stimuli/rescaled_final/1929_fw.mp4	0.0	135.87106490135193	1.0001540184020996
20	112.61689400672913	pulse	0	t		18.0	2.5	/experiments/knapen_AOT/AOT_stimuli/rescaled_final/1929_fw.mp4	0.0	136.0546989440918	
20	113.43341398239136	movie	1		243	18.0	2.5	/experiments/knapen_AOT/AOT_stimuli/rescaled_final/1929_fw.mp4	0.0	136.87121891975403	2.500540018081665
20	114.21707701683044	pulse	1	t		18.0	2.5	/experiments/knapen_AOT/AOT_stimuli/rescaled_final/1929_fw.mp4	0.0	137.65488195419312	
20	115.8171398639679	pulse	1	t		18.0	2.5	/experiments/knapen_AOT/AOT_stimuli/rescaled_final/1929_fw.mp4	0.0	139.25494480133057	
20	115.93395400047302	fix_post	2		12	18.0	2.5	/experiments/knapen_AOT/AOT_stimuli/rescaled_final/1929_fw.mp4	0.0	139.3717589378357	0.09989380836486816
21	116.03384780883789	fix_pre	0		120	19.0	2.5	/experiments/knapen_AOT/AOT_stimuli/rescaled_final/1813_rv.mp4	0.0	139.47165274620056	1.000110149383545
21	117.03395795822144	movie	1		242	19.0	2.5	/experiments/knapen_AOT/AOT_stimuli/rescaled_final/1813_rv.mp4	0.0	140.4717628955841	2.492285966873169
21	117.41892886161804	pulse	1	t		19.0	2.5	/experiments/knapen_AOT/AOT_stimuli/rescaled_final/1813_rv.mp4	0.0	140.8567337989807	
21	119.01788187026978	pulse	1	t		19.0	2.5	/experiments/knapen_AOT/AOT_stimuli/rescaled_final/1813_rv.mp4	0.0	142.45568680763245	
21	119.5262439250946	fix_post	2		12	19.0	2.5	/experiments/knapen_AOT/AOT_stimuli/rescaled_final/1813_rv.mp4	0.0	142.96404886245728	0.09978985786437988
22	119.62603378295898	fix_pre	0		120	20.0	2.5	/experiments/knapen_AOT/AOT_stimuli/rescaled_final/1551_rv.mp4	0.0	143.06383872032166	1.0001041889190674
22	120.61810088157654	pulse	0	t		20.0	2.5	/experiments/knapen_AOT/AOT_stimuli/rescaled_final/1551_rv.mp4	0.0	144.0559058189392	
22	120.62613797187805	movie	1		244	20.0	2.5	/experiments/knapen_AOT/AOT_stimuli/rescaled_final/1551_rv.mp4	0.0	144.06394290924072	2.5088298320770264
22	122.21875882148743	pulse	1	t		20.0	2.5	/experiments/knapen_AOT/AOT_stimuli/rescaled_final/1551_rv.mp4	0.0	145.6565637588501	
22	123.13496780395508	fix_post	2		12	20.0	2.5	/experiments/knapen_AOT/AOT_stimuli/rescaled_final/1551_rv.mp4	0.0	146.57277274131775	0.0999460220336914
23	123.23491382598877	fix_pre	0		120	21.0	2.5	blank	1.0	146.67271876335144	1.0001029968261719
23	123.81845283508301	pulse	0	t		21.0	2.5	blank	1.0	147.25625777244568	
23	124.23501682281494	movie	1		300	21.0	2.5	blank	1.0	147.6728217601776	2.5003349781036377
23	125.41888380050659	pulse	1	t		21.0	2.5	blank	1.0	148.85668873786926	
23	126.73535180091858	fix_post	2		12	21.0	2.5	blank	1.0	150.17315673828125	0.1000211238861084
24	126.83537292480469	fix_pre	0		120	22.0	2.5	/experiments/knapen_AOT/AOT_stimuli/rescaled_final/0633_rv.mp4	0.0	150.27317786216736	1.0002188682556152
24	127.01903891563416	pulse	0	t		22.0	2.5	/experiments/knapen_AOT/AOT_stimuli/rescaled_final/0633_rv.mp4	0.0	150.45684385299683	
24	127.8355917930603	movie	1		242	22.0	2.5	/experiments/knapen_AOT/AOT_stimuli/rescaled_final/0633_rv.mp4	0.0	151.27339673042297	2.5125880241394043
24	128.6192708015442	pulse	1	t		22.0	2.5	/experiments/knapen_AOT/AOT_stimuli/rescaled_final/0633_rv.mp4	0.0	152.05707573890686	
24	130.21943593025208	pulse	1	t		22.0	2.5	/experiments/knapen_AOT/AOT_stimuli/rescaled_final/0633_rv.mp4	0.0	153.65724086761475	
24	130.3481798171997	fix_post	2		9	22.0	2.5	/experiments/knapen_AOT/AOT_stimuli/rescaled_final/0633_rv.mp4	0.0	153.78598475456238	0.0878150463104248
25	130.43599486351013	fix_pre	0		120	23.0	2.5	/experiments/knapen_AOT/AOT_stimuli/rescaled_final/0649_rv.mp4	0.0	153.8737998008728	1.0001370906829834
25	131.43613195419312	movie	1		242	23.0	2.5	/experiments/knapen_AOT/AOT_stimuli/rescaled_final/0649_rv.mp4	0.0	154.8739368915558	2.492187023162842
25	131.8199758529663	pulse	1	t		23.0	2.5	/experiments/knapen_AOT/AOT_stimuli/rescaled_final/0649_rv.mp4	0.0	155.25778079032898	
25	133.4200258255005	pulse	1	t		23.0	2.5	/experiments/knapen_AOT/AOT_stimuli/rescaled_final/0649_rv.mp4	0.0	156.85783076286316	
25	133.92831897735596	fix_post	2		12	23.0	2.5	/experiments/knapen_AOT/AOT_stimuli/rescaled_final/0649_rv.mp4	0.0	157.36612391471863	0.09987401962280273
26	134.02819299697876	fix_pre	0		120	24.0	2.5	/experiments/knapen_AOT/AOT_stimuli/rescaled_final/1060_fw.mp4	0.0	157.46599793434143	1.000133991241455
26	135.02024483680725	pulse	0	t		24.0	2.5	/experiments/knapen_AOT/AOT_stimuli/rescaled_final/1060_fw.mp4	0.0	158.45804977416992	
26	135.02832698822021	movie	1		244	24.0	2.5	/experiments/knapen_AOT/AOT_stimuli/rescaled_final/1060_fw.mp4	0.0	158.46613192558289	2.5087718963623047
26	136.6210539340973	pulse	1	t		24.0	2.5	/experiments/knapen_AOT/AOT_stimuli/rescaled_final/1060_fw.mp4	0.0	160.05885887145996	
26	137.53709888458252	fix_post	2		12	24.0	2.5	/experiments/knapen_AOT/AOT_stimuli/rescaled_final/1060_fw.mp4	0.0	160.9749038219452	0.09994006156921387
27	137.63703894615173	fix_pre	0		120	25.0	2.5	/experiments/knapen_AOT/AOT_stimuli/rescaled_final/1355_fw.mp4	0.0	161.0748438835144	1.0001399517059326
27	138.22062587738037	pulse	0	t		25.0	2.5	/experiments/knapen_AOT/AOT_stimuli/rescaled_final/1355_fw.mp4	0.0	161.65843081474304	
27	138.63717889785767	movie	1		243	25.0	2.5	/experiments/knapen_AOT/AOT_stimuli/rescaled_final/1355_fw.mp4	0.0	162.07498383522034	2.5004959106445312
27	139.8209319114685	pulse	1	t		25.0	2.5	/experiments/knapen_AOT/AOT_stimuli/rescaled_final/1355_fw.mp4	0.0	163.25873684883118	
27	141.1376748085022	fix_post	2		12	25.0	2.5	/experiments/knapen_AOT/AOT_stimuli/rescaled_final/1355_fw.mp4	0.0	164.57547974586487	0.09995102882385254
28	141.23762583732605	fix_pre	0		120	26.0	2.5	/experiments/knapen_AOT/AOT_stimuli/rescaled_final/1371_fw.mp4	0.0	164.67543077468872	1.0001890659332275
28	141.42123794555664	pulse	0	t		26.0	2.5	/experiments/knapen_AOT/AOT_stimuli/rescaled_final/1371_fw.mp4	0.0	164.8590428829193	
28	142.23781490325928	movie	1		242	26.0	2.5	/experiments/knapen_AOT/AOT_stimuli/rescaled_final/1371_fw.mp4	0.0	165.67561984062195	2.5005369186401367
28	143.0213918685913	pulse	1	t		26.0	2.5	/experiments/knapen_AOT/AOT_stimuli/rescaled_final/1371_fw.mp4	0.0	166.45919680595398	
28	144.62153887748718	pulse	1	t		26.0	2.5	/experiments/knapen_AOT/AOT_stimuli/rescaled_final/1371_fw.mp4	0.0	168.05934381484985	
28	144.7383518218994	fix_post	2		12	26.0	2.5	/experiments/knapen_AOT/AOT_stimuli/rescaled_final/1371_fw.mp4	0.0	168.17615675926208	0.09979009628295898
29	144.83814191818237	fix_pre	0		120	27.0	2.5	blank	1.0	168.27594685554504	1.0001208782196045
29	145.83826279640198	movie	1		299	27.0	2.5	blank	1.0	169.27606773376465	2.4920430183410645
29	146.22194695472717	pulse	1	t		27.0	2.5	blank	1.0	169.65975189208984	
29	147.82213401794434	pulse	1	t		27.0	2.5	blank	1.0	171.259938955307	
29	148.33030581474304	fix_post	2		12	27.0	2.5	blank	1.0	171.7681107521057	0.09998798370361328
30	148.43029379844666	fix_pre	0		120	28.0	2.5	/experiments/knapen_AOT/AOT_stimuli/rescaled_final/0055_rv.mp4	0.0	171.86809873580933	1.000148057937622
30	149.4223918914795	pulse	0	t		28.0	2.5	/experiments/knapen_AOT/AOT_stimuli/rescaled_final/0055_rv.mp4	0.0	172.86019682884216	
30	149.43044185638428	movie	1		243	28.0	2.5	/experiments/knapen_AOT/AOT_stimuli/rescaled_final/0055_rv.mp4	0.0	172.86824679374695	2.508803129196167
30	151.023108959198	pulse	1	t		28.0	2.5	/experiments/knapen_AOT/AOT_stimuli/rescaled_final/0055_rv.mp4	0.0	174.46091389656067	
30	151.93924498558044	fix_post	2		12	28.0	2.5	/experiments/knapen_AOT/AOT_stimuli/rescaled_final/0055_rv.mp4	0.0	175.37704992294312	0.09995794296264648
31	152.0392029285431	fix_pre	0		120	29.0	2.5	/experiments/knapen_AOT/AOT_stimuli/rescaled_final/2099_rv.mp4	0.0	175.47700786590576	1.0000989437103271
31	152.62287998199463	pulse	0	t		29.0	2.5	/experiments/knapen_AOT/AOT_stimuli/rescaled_final/2099_rv.mp4	0.0	176.0606849193573	
31	153.03930187225342	movie	1		243	29.0	2.5	/experiments/knapen_AOT/AOT_stimuli/rescaled_final/2099_rv.mp4	0.0	176.4771068096161	2.500441074371338
31	154.2158658504486	pulse	1	t		29.0	2.5	/experiments/knapen_AOT/AOT_stimuli/rescaled_final/2099_rv.mp4	0.0	177.65367078781128	
31	155.53974294662476	fix_post	2		12	29.0	2.5	/experiments/knapen_AOT/AOT_stimuli/rescaled_final/2099_rv.mp4	0.0	178.97754788398743	0.09997296333312988
32	155.63971590995789	fix_pre	0		120	30.0	2.5	/experiments/knapen_AOT/AOT_stimuli/rescaled_final/1371_fw.mp4	0.0	179.07752084732056	1.0001859664916992
32	155.81582498550415	pulse	0	t		30.0	2.5	/experiments/knapen_AOT/AOT_stimuli/rescaled_final/1371_fw.mp4	0.0	179.25362992286682	
32	156.63990187644958	movie	1		242	30.0	2.5	/experiments/knapen_AOT/AOT_stimuli/rescaled_final/1371_fw.mp4	0.0	180.07770681381226	2.5003371238708496
32	157.41618490219116	pulse	1	t		30.0	2.5	/experiments/knapen_AOT/AOT_stimuli/rescaled_final/1371_fw.mp4	0.0	180.85398983955383	
32	159.02365684509277	pulse	1	t		30.0	2.5	/experiments/knapen_AOT/AOT_stimuli/rescaled_final/1371_fw.mp4	0.0	182.46146178245544	
32	159.14023900032043	fix_post	2		12	30.0	2.5	/experiments/knapen_AOT/AOT_stimuli/rescaled_final/1371_fw.mp4	0.0	182.5780439376831	0.09999990463256836
33	159.240238904953	fix_pre	0		119	31.0	2.5	/experiments/knapen_AOT/AOT_stimuli/rescaled_final/0233_fw.mp4	0.0	182.67804384231567	0.9918699264526367
33	160.23210883140564	movie	1		242	31.0	2.5	/experiments/knapen_AOT/AOT_stimuli/rescaled_final/0233_fw.mp4	0.0	183.6699137687683	2.5004701614379883
33	160.6201629638672	pulse	1	t		31.0	2.5	/experiments/knapen_AOT/AOT_stimuli/rescaled_final/0233_fw.mp4	0.0	184.05796790122986	
33	162.21593499183655	pulse	1	t		31.0	2.5	/experiments/knapen_AOT/AOT_stimuli/rescaled_final/0233_fw.mp4	0.0	185.65373992919922	
33	162.73257899284363	fix_post	2		12	31.0	2.5	/experiments/knapen_AOT/AOT_stimuli/rescaled_final/0233_fw.mp4	0.0	186.1703839302063	0.09987688064575195
34	162.83245587348938	fix_pre	0		119	32.0	2.5	/experiments/knapen_AOT/AOT_stimuli/rescaled_final/2081_rv.mp4	0.0	186.27026081085205	0.9918501377105713
34	163.81605696678162	pulse	0	t		32.0	2.5	/experiments/knapen_AOT/AOT_stimuli/rescaled_final/2081_rv.mp4	0.0	187.2538619041443	
34	163.82430601119995	movie	1		244	32.0	2.5	/experiments/knapen_AOT/AOT_stimuli/rescaled_final/2081_rv.mp4	0.0	187.26211094856262	2.508774995803833
34	165.4167559146881	pulse	1	t		32.0	2.5	/experiments/knapen_AOT/AOT_stimuli/rescaled_final/2081_rv.mp4	0.0	188.85456085205078	
34	166.33308100700378	fix_post	2		12	32.0	2.5	/experiments/knapen_AOT/AOT_stimuli/rescaled_final/2081_rv.mp4	0.0	189.77088594436646	0.09996700286865234
35	166.43304800987244	fix_pre	0		120	33.0	2.5	blank	1.0	189.8708529472351	1.000121831893921
35	167.01656293869019	pulse	0	t		33.0	2.5	blank	1.0	190.45436787605286	
35	167.43316984176636	movie	1		300	33.0	2.5	blank	1.0	190.87097477912903	2.5003581047058105
35	168.61682796478271	pulse	1	t		33.0	2.5	blank	1.0	192.05463290214539	
35	169.93352794647217	fix_post	2		12	33.0	2.5	blank	1.0	193.37133288383484	0.10000300407409668
36	170.03353095054626	fix_pre	0		120	34.0	2.5	/experiments/knapen_AOT/AOT_stimuli/rescaled_final/0481_rv.mp4	0.0	193.47133588790894	1.0001518726348877
36	170.21715784072876	pulse	0	t		34.0	2.5	/experiments/knapen_AOT/AOT_stimuli/rescaled_final/0481_rv.mp4	0.0	193.65496277809143	
36	171.03368282318115	movie	1		243	34.0	2.5	/experiments/knapen_AOT/AOT_stimuli/rescaled_final/0481_rv.mp4	0.0	194.47148776054382	2.5005550384521484
36	171.8173508644104	pulse	1	t		34.0	2.5	/experiments/knapen_AOT/AOT_stimuli/rescaled_final/0481_rv.mp4	0.0	195.25515580177307	
36	173.4175889492035	pulse	1	t		34.0	2.5	/experiments/knapen_AOT/AOT_stimuli/rescaled_final/0481_rv.mp4	0.0	196.85539388656616	
36	173.5342378616333	fix_post	2		12	34.0	2.5	/experiments/knapen_AOT/AOT_stimuli/rescaled_final/0481_rv.mp4	0.0	196.97204279899597	0.09983611106872559
37	173.63407397270203	fix_pre	0		119	35.0	2.5	/experiments/knapen_AOT/AOT_stimuli/rescaled_final/1804_fw.mp4	0.0	197.0718789100647	0.9918618202209473
37	174.62593579292297	movie	1		245	35.0	2.5	/experiments/knapen_AOT/AOT_stimuli/rescaled_final/1804_fw.mp4	0.0	198.06374073028564	2.500354051589966
37	175.01790690422058	pulse	1	t		35.0	2.5	/experiments/knapen_AOT/AOT_stimuli/rescaled_final/1804_fw.mp4	0.0	198.45571184158325	
37	176.61804485321045	pulse	1	t		35.0	2.5	/experiments/knapen_AOT/AOT_stimuli/rescaled_final/1804_fw.mp4	0.0	200.05584979057312	
37	177.12628984451294	fix_post	2		12	35.0	2.5	/experiments/knapen_AOT/AOT_stimuli/rescaled_final/1804_fw.mp4	0.0	200.5640947818756	0.09999799728393555
38	177.22628784179688	fix_pre	0		120	36.0	2.5	/experiments/knapen_AOT/AOT_stimuli/rescaled_final/1651_fw.mp4	0.0	200.66409277915955	1.000216007232666
38	178.21839880943298	pulse	0	t		36.0	2.5	/experiments/knapen_AOT/AOT_stimuli/rescaled_final/1651_fw.mp4	0.0	201.65620374679565	
38	178.22650384902954	movie	1		243	36.0	2.5	/experiments/knapen_AOT/AOT_stimuli/rescaled_final/1651_fw.mp4	0.0	201.6643087863922	2.5087201595306396
38	179.81917190551758	pulse	1	t		36.0	2.5	/experiments/knapen_AOT/AOT_stimuli/rescaled_final/1651_fw.mp4	0.0	203.25697684288025	
38	180.73522400856018	fix_post	2		12	36.0	2.5	/experiments/knapen_AOT/AOT_stimuli/rescaled_final/1651_fw.mp4	0.0	204.17302894592285	0.09995889663696289
39	180.83518290519714	fix_pre	0		120	37.0	2.5	/experiments/knapen_AOT/AOT_stimuli/rescaled_final/2159_rv.mp4	0.0	204.27298784255981	1.0001049041748047
39	181.4187548160553	pulse	0	t		37.0	2.5	/experiments/knapen_AOT/AOT_stimuli/rescaled_final/2159_rv.mp4	0.0	204.85655975341797	
39	181.83528780937195	movie	1		242	37.0	2.5	/experiments/knapen_AOT/AOT_stimuli/rescaled_final/2159_rv.mp4	0.0	205.27309274673462	2.5005509853363037
39	183.01907086372375	pulse	1	t		37.0	2.5	/experiments/knapen_AOT/AOT_stimuli/rescaled_final/2159_rv.mp4	0.0	206.45687580108643	
39	184.33583879470825	fix_post	2		12	37.0	2.5	/experiments/knapen_AOT/AOT_stimuli/rescaled_final/2159_rv.mp4	0.0	207.77364373207092	0.09987401962280273
40	184.43571281433105	fix_pre	0		120	38.0	2.5	/experiments/knapen_AOT/AOT_stimuli/rescaled_final/1260_fw.mp4	0.0	207.87351775169373	1.0001461505889893
40	184.6191828250885	pulse	0	t		38.0	2.5	/experiments/knapen_AOT/AOT_stimuli/rescaled_final/1260_fw.mp4	0.0	208.05698776245117	
40	185.43585896492004	movie	1		244	38.0	2.5	/experiments/knapen_AOT/AOT_stimuli/rescaled_final/1260_fw.mp4	0.0	208.87366390228271	2.500408887863159
40	186.21943378448486	pulse	1	t		38.0	2.5	/experiments/knapen_AOT/AOT_stimuli/rescaled_final/1260_fw.mp4	0.0	209.65723872184753	
40	187.8235650062561	pulse	1	t		38.0	2.5	/experiments/knapen_AOT/AOT_stimuli/rescaled_final/1260_fw.mp4	0.0	211.26136994361877	
40	187.9362678527832	fix_post	2		12	38.0	2.5	/experiments/knapen_AOT/AOT_stimuli/rescaled_final/1260_fw.mp4	0.0	211.37407279014587	0.09996414184570312
41	188.0362319946289	fix_pre	0		120	39.0	2.5	/experiments/knapen_AOT/AOT_stimuli/rescaled_final/1293_rv.mp4	0.0	211.47403693199158	1.000133991241455
41	189.03636598587036	movie	1		241	39.0	2.5	/experiments/knapen_AOT/AOT_stimuli/rescaled_final/1293_rv.mp4	0.0	212.47417092323303	2.4921000003814697
41	189.42460298538208	pulse	1	t		39.0	2.5	/experiments/knapen_AOT/AOT_stimuli/rescaled_final/1293_rv.mp4	0.0	212.86240792274475	
41	191.02023601531982	pulse	1	t		39.0	2.5	/experiments/knapen_AOT/AOT_stimuli/rescaled_final/1293_rv.mp4	0.0	214.4580409526825	
41	191.52846598625183	fix_post	2		12	39.0	2.5	/experiments/knapen_AOT/AOT_stimuli/rescaled_final/1293_rv.mp4	0.0	214.9662709236145	0.09994792938232422
42	191.62841391563416	fix_pre	0		117	40.0	2.5	/experiments/knapen_AOT/AOT_stimuli/rescaled_final/1017_rv.mp4	0.0	215.06621885299683	1.0002350807189941
42	192.62050080299377	pulse	0	t		40.0	2.5	/experiments/knapen_AOT/AOT_stimuli/rescaled_final/1017_rv.mp4	0.0	216.05830574035645	
42	192.62864899635315	movie	1		245	40.0	2.5	/experiments/knapen_AOT/AOT_stimuli/rescaled_final/1017_rv.mp4	0.0	216.06645393371582	2.5086348056793213
42	194.22133493423462	pulse	1	t		40.0	2.5	/experiments/knapen_AOT/AOT_stimuli/rescaled_final/1017_rv.mp4	0.0	217.6591398715973	
42	195.13728380203247	fix_post	2		12	40.0	2.5	/experiments/knapen_AOT/AOT_stimuli/rescaled_final/1017_rv.mp4	0.0	218.57508873939514	0.10000920295715332
43	195.23729300498962	fix_pre	0		120	41.0	2.5	/experiments/knapen_AOT/AOT_stimuli/rescaled_final/1745_rv.mp4	0.0	218.6750979423523	1.0001318454742432
43	195.82095885276794	pulse	0	t		41.0	2.5	/experiments/knapen_AOT/AOT_stimuli/rescaled_final/1745_rv.mp4	0.0	219.25876379013062	
43	196.23742485046387	movie	1		242	41.0	2.5	/experiments/knapen_AOT/AOT_stimuli/rescaled_final/1745_rv.mp4	0.0	219.67522978782654	2.500623941421509
43	197.42121696472168	pulse	1	t		41.0	2.5	/experiments/knapen_AOT/AOT_stimuli/rescaled_final/1745_rv.mp4	0.0	220.85902190208435	
43	198.73804879188538	fix_post	2		12	41.0	2.5	/experiments/knapen_AOT/AOT_stimuli/rescaled_final/1745_rv.mp4	0.0	222.17585372924805	0.09980607032775879
44	198.83785486221313	fix_pre	0		120	42.0	2.5	blank	1.0	222.2756597995758	1.0001680850982666
44	199.02138900756836	pulse	0	t		42.0	2.5	blank	1.0	222.45919394493103	
44	199.8380229473114	movie	1		300	42.0	2.5	blank	1.0	223.27582788467407	2.500309944152832
44	200.6216058731079	pulse	1	t		42.0	2.5	blank	1.0	224.05941081047058	
44	202.22193694114685	pulse	1	t		42.0	2.5	blank	1.0	225.65974187850952	
44	202.33833289146423	fix_post	2		12	42.0	2.5	blank	1.0	225.7761378288269	0.10003304481506348
45	202.4383659362793	fix_pre	0		120	43.0	2.5	/experiments/knapen_AOT/AOT_stimuli/rescaled_final/1120_rv.mp4	0.0	225.87617087364197	1.0001559257507324
45	203.43852186203003	movie	1		242	43.0	2.5	/experiments/knapen_AOT/AOT_stimuli/rescaled_final/1120_rv.mp4	0.0	226.8763267993927	2.4921469688415527
45	203.82340788841248	pulse	1	t		43.0	2.5	/experiments/knapen_AOT/AOT_stimuli/rescaled_final/1120_rv.mp4	0.0	227.26121282577515	
45	205.4223129749298	pulse	1	t		43.0	2.5	/experiments/knapen_AOT/AOT_stimuli/rescaled_final/1120_rv.mp4	0.0	228.86011791229248	
45	205.93066883087158	fix_post	2		12	43.0	2.5	/experiments/knapen_AOT/AOT_stimuli/rescaled_final/1120_rv.mp4	0.0	229.36847376823425	0.09999418258666992
46	206.03066301345825	fix_pre	0		120	44.0	2.5	/experiments/knapen_AOT/AOT_stimuli/rescaled_final/0020_fw.mp4	0.0	229.46846795082092	1.0000989437103271
46	207.02260780334473	pulse	0	t		44.0	2.5	/experiments/knapen_AOT/AOT_stimuli/rescaled_final/0020_fw.mp4	0.0	230.4604127407074	
46	207.03076195716858	movie	1		245	44.0	2.5	/experiments/knapen_AOT/AOT_stimuli/rescaled_final/0020_fw.mp4	0.0	230.46856689453125	2.5086729526519775
46	208.62325382232666	pulse	1	t		44.0	2.5	/experiments/knapen_AOT/AOT_stimuli/rescaled_final/0020_fw.mp4	0.0	232.06105875968933	
46	209.53943490982056	fix_post	2		12	44.0	2.5	/experiments/knapen_AOT/AOT_stimuli/rescaled_final/0020_fw.mp4	0.0	232.97723984718323	0.10003900527954102
47	209.6394739151001	fix_pre	0		120	45.0	2.5	/experiments/knapen_AOT/AOT_stimuli/rescaled_final/1664_fw.mp4	0.0	233.07727885246277	1.0001320838928223
47	210.21561884880066	pulse	0	t		45.0	2.5	/experiments/knapen_AOT/AOT_stimuli/rescaled_final/1664_fw.mp4	0.0	233.65342378616333	
47	210.63960599899292	movie	1		243	45.0	2.5	/experiments/knapen_AOT/AOT_stimuli/rescaled_final/1664_fw.mp4	0.0	234.0774109363556	2.5004308223724365
47	211.81554079055786	pulse	1	t		45.0	2.5	/experiments/knapen_AOT/AOT_stimuli/rescaled_final/1664_fw.mp4	0.0	235.25334572792053	
47	213.14003682136536	fix_post	2		12	45.0	2.5	/experiments/knapen_AOT/AOT_stimuli/rescaled_final/1664_fw.mp4	0.0	236.57784175872803	0.10001516342163086
48	213.240051984787	fix_pre	0		120	46.0	2.5	/experiments/knapen_AOT/AOT_stimuli/rescaled_final/1065_fw.mp4	0.0	236.67785692214966	1.0000598430633545
48	213.41609692573547	pulse	0	t		46.0	2.5	/experiments/knapen_AOT/AOT_stimuli/rescaled_final/1065_fw.mp4	0.0	236.85390186309814	
48	214.24011182785034	movie	1		242	46.0	2.5	/experiments/knapen_AOT/AOT_stimuli/rescaled_final/1065_fw.mp4	0.0	237.677916765213	2.5005509853363037
48	215.01554679870605	pulse	1	t		46.0	2.5	/experiments/knapen_AOT/AOT_stimuli/rescaled_final/1065_fw.mp4	0.0	238.45335173606873	
48	216.6155970096588	pulse	1	t		46.0	2.5	/experiments/knapen_AOT/AOT_stimuli/rescaled_final/1065_fw.mp4	0.0	240.05340194702148	
48	216.74066281318665	fix_post	2		12	46.0	2.5	/experiments/knapen_AOT/AOT_stimuli/rescaled_final/1065_fw.mp4	0.0	240.17846775054932	0.09987401962280273
49	216.84053683280945	fix_pre	0		120	47.0	2.5	blank	1.0	240.27834177017212	1.000162124633789
49	217.84069895744324	movie	1		299	47.0	2.5	blank	1.0	241.2785038948059	2.492064952850342
49	218.2158658504486	pulse	1	t		47.0	2.5	blank	1.0	241.65367078781128	
49	219.81624293327332	pulse	1	t		47.0	2.5	blank	1.0	243.254047870636	
49	220.33276391029358	fix_post	2		12	47.0	2.5	blank	1.0	243.77056884765625	0.10001397132873535
50	220.43277788162231	fix_pre	0		119	48.0	2.5	/experiments/knapen_AOT/AOT_stimuli/rescaled_final/0299_fw.mp4	0.0	243.87058281898499	0.991797924041748
50	221.41639184951782	pulse	0	t		48.0	2.5	/experiments/knapen_AOT/AOT_stimuli/rescaled_final/0299_fw.mp4	0.0	244.8541967868805	
50	221.42457580566406	movie	1		244	48.0	2.5	/experiments/knapen_AOT/AOT_stimuli/rescaled_final/0299_fw.mp4	0.0	244.86238074302673	2.508707046508789
50	223.01715397834778	pulse	1	t		48.0	2.5	/experiments/knapen_AOT/AOT_stimuli/rescaled_final/0299_fw.mp4	0.0	246.45495891571045	
50	223.93328285217285	fix_post	2		12	48.0	2.5	/experiments/knapen_AOT/AOT_stimuli/rescaled_final/0299_fw.mp4	0.0	247.37108778953552	0.09996509552001953
51	224.03324794769287	fix_pre	0		120	49.0	2.5	/experiments/knapen_AOT/AOT_stimuli/rescaled_final/0750_fw.mp4	0.0	247.47105288505554	1.0001509189605713
51	224.61687183380127	pulse	0	t		49.0	2.5	/experiments/knapen_AOT/AOT_stimuli/rescaled_final/0750_fw.mp4	0.0	248.05467677116394	
51	225.03339886665344	movie	1		243	49.0	2.5	/experiments/knapen_AOT/AOT_stimuli/rescaled_final/0750_fw.mp4	0.0	248.4712038040161	2.50045108795166
51	226.21718192100525	pulse	1	t		49.0	2.5	/experiments/knapen_AOT/AOT_stimuli/rescaled_final/0750_fw.mp4	0.0	249.65498685836792	
51	227.5338499546051	fix_post	2		12	49.0	2.5	/experiments/knapen_AOT/AOT_stimuli/rescaled_final/0750_fw.mp4	0.0	250.97165489196777	0.10004401206970215
52	227.6338939666748	fix_pre	0		120	50.0	2.5	/experiments/knapen_AOT/AOT_stimuli/rescaled_final/1851_fw.mp4	0.0	251.07169890403748	1.000087022781372
52	227.8174238204956	pulse	0	t		50.0	2.5	/experiments/knapen_AOT/AOT_stimuli/rescaled_final/1851_fw.mp4	0.0	251.25522875785828	
52	228.63398098945618	movie	1		243	50.0	2.5	/experiments/knapen_AOT/AOT_stimuli/rescaled_final/1851_fw.mp4	0.0	252.07178592681885	2.5004448890686035
52	229.41753697395325	pulse	1	t		50.0	2.5	/experiments/knapen_AOT/AOT_stimuli/rescaled_final/1851_fw.mp4	0.0	252.85534191131592	
52	231.0177218914032	pulse	1	t		50.0	2.5	/experiments/knapen_AOT/AOT_stimuli/rescaled_final/1851_fw.mp4	0.0	254.45552682876587	
52	231.13442587852478	fix_post	2		12	50.0	2.5	/experiments/knapen_AOT/AOT_stimuli/rescaled_final/1851_fw.mp4	0.0	254.57223081588745	0.09991693496704102
53	231.23434281349182	fix_pre	0		120	51.0	2.5	/experiments/knapen_AOT/AOT_stimuli/rescaled_final/2060_fw.mp4	0.0	254.6721477508545	1.0001280307769775
53	232.2344708442688	movie	1		241	51.0	2.5	/experiments/knapen_AOT/AOT_stimuli/rescaled_final/2060_fw.mp4	0.0	255.67227578163147	2.4921059608459473
53	232.61928796768188	pulse	1	t		51.0	2.5	/experiments/knapen_AOT/AOT_stimuli/rescaled_final/2060_fw.mp4	0.0	256.05709290504456	
53	234.21832489967346	pulse	1	t		51.0	2.5	/experiments/knapen_AOT/AOT_stimuli/rescaled_final/2060_fw.mp4	0.0	257.65612983703613	
53	234.72657680511475	fix_post	2		12	51.0	2.5	/experiments/knapen_AOT/AOT_stimuli/rescaled_final/2060_fw.mp4	0.0	258.1643817424774	0.09999918937683105
54	234.82657599449158	fix_pre	0		120	52.0	2.5	/experiments/knapen_AOT/AOT_stimuli/rescaled_final/1874_rv.mp4	0.0	258.26438093185425	1.0000998973846436
54	235.81849598884583	pulse	0	t		52.0	2.5	/experiments/knapen_AOT/AOT_stimuli/rescaled_final/1874_rv.mp4	0.0	259.2563009262085	
54	235.82667589187622	movie	1		245	52.0	2.5	/experiments/knapen_AOT/AOT_stimuli/rescaled_final/1874_rv.mp4	0.0	259.2644808292389	2.508702039718628
54	237.4193639755249	pulse	1	t		52.0	2.5	/experiments/knapen_AOT/AOT_stimuli/rescaled_final/1874_rv.mp4	0.0	260.8571689128876	
54	238.33537793159485	fix_post	2		12	52.0	2.5	/experiments/knapen_AOT/AOT_stimuli/rescaled_final/1874_rv.mp4	0.0	261.7731828689575	0.1000220775604248
55	238.43540000915527	fix_pre	0		120	53.0	2.5	/experiments/knapen_AOT/AOT_stimuli/rescaled_final/0053_rv.mp4	0.0	261.87320494651794	1.0002717971801758
55	239.01914381980896	pulse	0	t		53.0	2.5	/experiments/knapen_AOT/AOT_stimuli/rescaled_final/0053_rv.mp4	0.0	262.45694875717163	
55	239.43567180633545	movie	1		242	53.0	2.5	/experiments/knapen_AOT/AOT_stimuli/rescaled_final/0053_rv.mp4	0.0	262.8734767436981	2.500472068786621
55	240.61930394172668	pulse	1	t		53.0	2.5	/experiments/knapen_AOT/AOT_stimuli/rescaled_final/0053_rv.mp4	0.0	264.05710887908936	
55	241.93614387512207	fix_post	2		12	53.0	2.5	/experiments/knapen_AOT/AOT_stimuli/rescaled_final/0053_rv.mp4	0.0	265.37394881248474	0.09981703758239746
56	242.03596091270447	fix_pre	0		120	54.0	2.5	/experiments/knapen_AOT/AOT_stimuli/rescaled_final/1065_rv.mp4	0.0	265.47376585006714	1.0002079010009766
56	242.219496011734	pulse	0	t		54.0	2.5	/experiments/knapen_AOT/AOT_stimuli/rescaled_final/1065_rv.mp4	0.0	265.6573009490967	
56	243.03616881370544	movie	1		243	54.0	2.5	/experiments/knapen_AOT/AOT_stimuli/rescaled_final/1065_rv.mp4	0.0	266.4739737510681	2.5004689693450928
56	243.819757938385	pulse	1	t		54.0	2.5	/experiments/knapen_AOT/AOT_stimuli/rescaled_final/1065_rv.mp4	0.0	267.2575628757477	
56	245.41999983787537	pulse	1	t		54.0	2.5	/experiments/knapen_AOT/AOT_stimuli/rescaled_final/1065_rv.mp4	0.0	268.85780477523804	
56	245.53663778305054	fix_post	2		12	54.0	2.5	/experiments/knapen_AOT/AOT_stimuli/rescaled_final/1065_rv.mp4	0.0	268.9744427204132	0.09986710548400879
57	245.63650488853455	fix_pre	0		120	55.0	2.5	blank	1.0	269.0743098258972	1.0001389980316162
57	246.63664388656616	movie	1		299	55.0	2.5	blank	1.0	270.07444882392883	2.492060899734497
57	247.0203399658203	pulse	1	t		55.0	2.5	blank	1.0	270.458144903183	
57	248.62041783332825	pulse	1	t		55.0	2.5	blank	1.0	272.0582227706909	
57	249.12870478630066	fix_post	2		12	55.0	2.5	blank	1.0	272.56650972366333	0.10001802444458008
58	249.22872281074524	fix_pre	0		120	56.0	2.5	/experiments/knapen_AOT/AOT_stimuli/rescaled_final/1336_rv.mp4	0.0	272.6665277481079	1.0000951290130615
58	250.2206838130951	pulse	0	t		56.0	2.5	/experiments/knapen_AOT/AOT_stimuli/rescaled_final/1336_rv.mp4	0.0	273.65848875045776	
58	250.2288179397583	movie	1		244	56.0	2.5	/experiments/knapen_AOT/AOT_stimuli/rescaled_final/1336_rv.mp4	0.0	273.666622877121	2.5087950229644775
58	251.82134580612183	pulse	1	t		56.0	2.5	/experiments/knapen_AOT/AOT_stimuli/rescaled_final/1336_rv.mp4	0.0	275.2591507434845	
58	252.73761296272278	fix_post	2		12	56.0	2.5	/experiments/knapen_AOT/AOT_stimuli/rescaled_final/1336_rv.mp4	0.0	276.17541790008545	0.0999898910522461
59	252.83760285377502	fix_pre	0		120	57.0	2.5	/experiments/knapen_AOT/AOT_stimuli/rescaled_final/1629_rv.mp4	0.0	276.2754077911377	1.0001060962677002
59	253.42123985290527	pulse	0	t		57.0	2.5	/experiments/knapen_AOT/AOT_stimuli/rescaled_final/1629_rv.mp4	0.0	276.85904479026794	
59	253.83770895004272	movie	1		242	57.0	2.5	/experiments/knapen_AOT/AOT_stimuli/rescaled_final/1629_rv.mp4	0.0	277.2755138874054	2.511791944503784
59	255.02157187461853	pulse	1	t		57.0	2.5	/experiments/knapen_AOT/AOT_stimuli/rescaled_final/1629_rv.mp4	0.0	278.4593768119812	
59	256.3495008945465	fix_post	2		11	57.0	2.5	/experiments/knapen_AOT/AOT_stimuli/rescaled_final/1629_rv.mp4	0.0	279.7873058319092	0.088623046875
60	256.4381239414215	fix_pre	0		120	58.0	2.5	/experiments/knapen_AOT/AOT_stimuli/rescaled_final/0464_rv.mp4	0.0	279.8759288787842	1.000133991241455
60	256.6216278076172	pulse	0	t		58.0	2.5	/experiments/knapen_AOT/AOT_stimuli/rescaled_final/0464_rv.mp4	0.0	280.05943274497986	
60	257.43825793266296	movie	1		243	58.0	2.5	/experiments/knapen_AOT/AOT_stimuli/rescaled_final/0464_rv.mp4	0.0	280.87606287002563	2.5003609657287598
60	258.2219250202179	pulse	1	t		58.0	2.5	/experiments/knapen_AOT/AOT_stimuli/rescaled_final/0464_rv.mp4	0.0	281.65972995758057	
60	259.8219759464264	pulse	1	t		58.0	2.5	/experiments/knapen_AOT/AOT_stimuli/rescaled_final/0464_rv.mp4	0.0	283.25978088378906	
60	259.9386188983917	fix_post	2		12	58.0	2.5	/experiments/knapen_AOT/AOT_stimuli/rescaled_final/0464_rv.mp4	0.0	283.3764238357544	0.09999608993530273
61	260.038614988327	fix_pre	0		120	59.0	2.5	/experiments/knapen_AOT/AOT_stimuli/rescaled_final/0028_fw.mp4	0.0	283.4764199256897	1.000274896621704
61	261.03888988494873	movie	1		241	59.0	2.5	/experiments/knapen_AOT/AOT_stimuli/rescaled_final/0028_fw.mp4	0.0	284.4766948223114	2.4920949935913086
61	261.4229578971863	pulse	1	t		59.0	2.5	/experiments/knapen_AOT/AOT_stimuli/rescaled_final/0028_fw.mp4	0.0	284.86076283454895	
61	263.0226058959961	pulse	1	t		59.0	2.5	/experiments/knapen_AOT/AOT_stimuli/rescaled_final/0028_fw.mp4	0.0	286.46041083335876	
61	263.53098487854004	fix_post	2		12	59.0	2.5	/experiments/knapen_AOT/AOT_stimuli/rescaled_final/0028_fw.mp4	0.0	286.9687898159027	0.09984803199768066
62	263.6308329105377	fix_pre	0		120	60.0	2.5	/experiments/knapen_AOT/AOT_stimuli/rescaled_final/1664_fw.mp4	0.0	287.0686378479004	1.0001590251922607
62	264.6228578090668	pulse	0	t		60.0	2.5	/experiments/knapen_AOT/AOT_stimuli/rescaled_final/1664_fw.mp4	0.0	288.06066274642944	
62	264.63099193573	movie	1		244	60.0	2.5	/experiments/knapen_AOT/AOT_stimuli/rescaled_final/1664_fw.mp4	0.0	288.06879687309265	2.5087289810180664
62	266.2236678600311	pulse	1	t		60.0	2.5	/experiments/knapen_AOT/AOT_stimuli/rescaled_final/1664_fw.mp4	0.0	289.6614727973938	
62	267.13972091674805	fix_post	2		12	60.0	2.5	/experiments/knapen_AOT/AOT_stimuli/rescaled_final/1664_fw.mp4	0.0	290.5775258541107	0.10000896453857422
63	267.2397298812866	fix_pre	0		120	61.0	2.5	/experiments/knapen_AOT/AOT_stimuli/rescaled_final/0836_rv.mp4	0.0	290.6775348186493	1.0001449584960938
63	267.82337188720703	pulse	0	t		61.0	2.5	/experiments/knapen_AOT/AOT_stimuli/rescaled_final/0836_rv.mp4	0.0	291.2611768245697	
63	268.2398748397827	movie	1		242	61.0	2.5	/experiments/knapen_AOT/AOT_stimuli/rescaled_final/0836_rv.mp4	0.0	291.6776797771454	2.5005359649658203
63	269.416601896286	pulse	1	t		61.0	2.5	/experiments/knapen_AOT/AOT_stimuli/rescaled_final/0836_rv.mp4	0.0	292.8544068336487	
63	270.74041080474854	fix_post	2		12	61.0	2.5	/experiments/knapen_AOT/AOT_stimuli/rescaled_final/0836_rv.mp4	0.0	294.1782157421112	0.09984898567199707
64	270.84025979042053	fix_pre	0		120	62.0	2.5	/experiments/knapen_AOT/AOT_stimuli/rescaled_final/0081_fw.mp4	0.0	294.2780647277832	1.0001270771026611
64	271.01625895500183	pulse	0	t		62.0	2.5	/experiments/knapen_AOT/AOT_stimuli/rescaled_final/0081_fw.mp4	0.0	294.4540638923645	
64	271.8403868675232	movie	1		242	62.0	2.5	/experiments/knapen_AOT/AOT_stimuli/rescaled_final/0081_fw.mp4	0.0	295.27819180488586	2.5005080699920654
64	272.61660981178284	pulse	1	t		62.0	2.5	/experiments/knapen_AOT/AOT_stimuli/rescaled_final/0081_fw.mp4	0.0	296.0544147491455	
64	274.2249228954315	pulse	1	t		62.0	2.5	/experiments/knapen_AOT/AOT_stimuli/rescaled_final/0081_fw.mp4	0.0	297.6627278327942	
64	274.34089493751526	fix_post	2		12	62.0	2.5	/experiments/knapen_AOT/AOT_stimuli/rescaled_final/0081_fw.mp4	0.0	297.77869987487793	0.09990286827087402
65	274.44079780578613	fix_pre	0		120	63.0	2.5	blank	1.0	297.8786027431488	1.000216007232666
65	275.4410138130188	movie	1		299	63.0	2.5	blank	1.0	298.87881875038147	2.4920120239257812
65	275.81628584861755	pulse	1	t		63.0	2.5	blank	1.0	299.2540907859802	
65	277.4163188934326	pulse	1	t		63.0	2.5	blank	1.0	300.8541238307953	
65	277.9330258369446	fix_post	2		12	63.0	2.5	blank	1.0	301.37083077430725	0.09998011589050293
66	278.0330059528351	fix_pre	0		119	64.0	2.5	/experiments/knapen_AOT/AOT_stimuli/rescaled_final/0818_rv.mp4	0.0	301.47081089019775	0.9918298721313477
66	279.0166289806366	pulse	0	t		64.0	2.5	/experiments/knapen_AOT/AOT_stimuli/rescaled_final/0818_rv.mp4	0.0	302.45443391799927	
66	279.02483582496643	movie	1		243	64.0	2.5	/experiments/knapen_AOT/AOT_stimuli/rescaled_final/0818_rv.mp4	0.0	302.4626407623291	2.508763074874878
66	280.62154388427734	pulse	1	t		64.0	2.5	/experiments/knapen_AOT/AOT_stimuli/rescaled_final/0818_rv.mp4	0.0	304.05934882164	
66	281.5335988998413	fix_post	2		12	64.0	2.5	/experiments/knapen_AOT/AOT_stimuli/rescaled_final/0818_rv.mp4	0.0	304.971403837204	0.09995102882385254
67	281.63354992866516	fix_pre	0		120	65.0	2.5	/experiments/knapen_AOT/AOT_stimuli/rescaled_final/1017_rv.mp4	0.0	305.07135486602783	1.000166893005371
67	282.2171838283539	pulse	0	t		65.0	2.5	/experiments/knapen_AOT/AOT_stimuli/rescaled_final/1017_rv.mp4	0.0	305.65498876571655	
67	282.63371682167053	movie	1		244	65.0	2.5	/experiments/knapen_AOT/AOT_stimuli/rescaled_final/1017_rv.mp4	0.0	306.0715217590332	2.5004119873046875
67	283.81750082969666	pulse	1	t		65.0	2.5	/experiments/knapen_AOT/AOT_stimuli/rescaled_final/1017_rv.mp4	0.0	307.2553057670593	
67	285.1341288089752	fix_post	2		12	65.0	2.5	/experiments/knapen_AOT/AOT_stimuli/rescaled_final/1017_rv.mp4	0.0	308.5719337463379	0.099945068359375
68	285.2340738773346	fix_pre	0		120	66.0	2.5	/experiments/knapen_AOT/AOT_stimuli/rescaled_final/0947_fw.mp4	0.0	308.67187881469727	1.000148057937622
68	285.4175708293915	pulse	0	t		66.0	2.5	/experiments/knapen_AOT/AOT_stimuli/rescaled_final/0947_fw.mp4	0.0	308.85537576675415	
68	286.2342219352722	movie	1		243	66.0	2.5	/experiments/knapen_AOT/AOT_stimuli/rescaled_final/0947_fw.mp4	0.0	309.6720268726349	2.500623941421509
68	287.01782488822937	pulse	1	t		66.0	2.5	/experiments/knapen_AOT/AOT_stimuli/rescaled_final/0947_fw.mp4	0.0	310.45562982559204	
68	288.6182279586792	pulse	1	t		66.0	2.5	/experiments/knapen_AOT/AOT_stimuli/rescaled_final/0947_fw.mp4	0.0	312.05603289604187	
68	288.7348458766937	fix_post	2		12	66.0	2.5	/experiments/knapen_AOT/AOT_stimuli/rescaled_final/0947_fw.mp4	0.0	312.1726508140564	0.099822998046875
69	288.8346688747406	fix_pre	0		120	67.0	2.5	/experiments/knapen_AOT/AOT_stimuli/rescaled_final/1320_fw.mp4	0.0	312.27247381210327	1.000143051147461
69	289.83481192588806	movie	1		242	67.0	2.5	/experiments/knapen_AOT/AOT_stimuli/rescaled_final/1320_fw.mp4	0.0	313.27261686325073	2.4921529293060303
69	290.218936920166	pulse	1	t		67.0	2.5	/experiments/knapen_AOT/AOT_stimuli/rescaled_final/1320_fw.mp4	0.0	313.6567418575287	
69	291.81854581832886	pulse	1	t		67.0	2.5	/experiments/knapen_AOT/AOT_stimuli/rescaled_final/1320_fw.mp4	0.0	315.2563507556915	
69	292.3269648551941	fix_post	2		12	67.0	2.5	/experiments/knapen_AOT/AOT_stimuli/rescaled_final/1320_fw.mp4	0.0	315.76476979255676	0.09989094734191895
70	292.426855802536	fix_pre	0		120	68.0	2.5	/experiments/knapen_AOT/AOT_stimuli/rescaled_final/1466_fw.mp4	0.0	315.8646607398987	1.0001111030578613
70	293.41892290115356	pulse	0	t		68.0	2.5	/experiments/knapen_AOT/AOT_stimuli/rescaled_final/1466_fw.mp4	0.0	316.85672783851624	
70	293.4269669055939	movie	1		243	68.0	2.5	/experiments/knapen_AOT/AOT_stimuli/rescaled_final/1466_fw.mp4	0.0	316.86477184295654	2.508836030960083
70	295.0204339027405	pulse	1	t		68.0	2.5	/experiments/knapen_AOT/AOT_stimuli/rescaled_final/1466_fw.mp4	0.0	318.45823884010315	
70	295.93580293655396	fix_post	2		12	68.0	2.5	/experiments/knapen_AOT/AOT_stimuli/rescaled_final/1466_fw.mp4	0.0	319.3736078739166	0.09992098808288574
71	296.03572392463684	fix_pre	0		120	69.0	2.5	/experiments/knapen_AOT/AOT_stimuli/rescaled_final/1319_rv.mp4	0.0	319.4735288619995	1.0001349449157715
71	296.6193540096283	pulse	0	t		69.0	2.5	/experiments/knapen_AOT/AOT_stimuli/rescaled_final/1319_rv.mp4	0.0	320.05715894699097	
71	297.0358588695526	movie	1		244	69.0	2.5	/experiments/knapen_AOT/AOT_stimuli/rescaled_final/1319_rv.mp4	0.0	320.4736638069153	2.5003769397735596
71	298.2197070121765	pulse	1	t		69.0	2.5	/experiments/knapen_AOT/AOT_stimuli/rescaled_final/1319_rv.mp4	0.0	321.6575119495392	
71	299.5362358093262	fix_post	2		12	69.0	2.5	/experiments/knapen_AOT/AOT_stimuli/rescaled_final/1319_rv.mp4	0.0	322.97404074668884	0.09998297691345215
72	299.6362187862396	fix_pre	0		120	70.0	2.5	blank	1.0	323.0740237236023	1.000148057937622
72	299.81981897354126	pulse	0	t		70.0	2.5	blank	1.0	323.25762391090393	
72	300.63636684417725	movie	1		300	70.0	2.5	blank	1.0	324.0741717815399	2.500368118286133
72	301.4201250076294	pulse	1	t		70.0	2.5	blank	1.0	324.85792994499207	
72	303.02026891708374	pulse	1	t		70.0	2.5	blank	1.0	326.4580738544464	
72	303.1367349624634	fix_post	2		12	70.0	2.5	blank	1.0	326.57453989982605	0.10005784034729004
73	303.23679280281067	fix_pre	0		120	71.0	2.5	/experiments/knapen_AOT/AOT_stimuli/rescaled_final/0346_fw.mp4	0.0	326.67459774017334	1.000157117843628
73	304.2369499206543	movie	1		242	71.0	2.5	/experiments/knapen_AOT/AOT_stimuli/rescaled_final/0346_fw.mp4	0.0	327.67475485801697	2.492213010787964
73	304.62250900268555	pulse	1	t		71.0	2.5	/experiments/knapen_AOT/AOT_stimuli/rescaled_final/0346_fw.mp4	0.0	328.0603139400482	
73	306.22081995010376	pulse	1	t		71.0	2.5	/experiments/knapen_AOT/AOT_stimuli/rescaled_final/0346_fw.mp4	0.0	329.65862488746643	
73	306.72916293144226	fix_post	2		12	71.0	2.5	/experiments/knapen_AOT/AOT_stimuli/rescaled_final/0346_fw.mp4	0.0	330.16696786880493	0.0998380184173584
74	306.8290009498596	fix_pre	0		120	72.0	2.5	/experiments/knapen_AOT/AOT_stimuli/rescaled_final/1773_fw.mp4	0.0	330.2668058872223	1.000135898590088
74	307.82103085517883	pulse	0	t		72.0	2.5	/experiments/knapen_AOT/AOT_stimuli/rescaled_final/1773_fw.mp4	0.0	331.2588357925415	
74	307.8291368484497	movie	1		244	72.0	2.5	/experiments/knapen_AOT/AOT_stimuli/rescaled_final/1773_fw.mp4	0.0	331.2669417858124	2.508692979812622
74	309.4257028102875	pulse	1	t		72.0	2.5	/experiments/knapen_AOT/AOT_stimuli/rescaled_final/1773_fw.mp4	0.0	332.86350774765015	
74	310.33782982826233	fix_post	2		12	72.0	2.5	/experiments/knapen_AOT/AOT_stimuli/rescaled_final/1773_fw.mp4	0.0	333.775634765625	0.10003399848937988
75	310.4378638267517	fix_pre	0		120	73.0	2.5	/experiments/knapen_AOT/AOT_stimuli/rescaled_final/0129_fw.mp4	0.0	333.8756687641144	1.0001201629638672
75	311.0214488506317	pulse	0	t		73.0	2.5	/experiments/knapen_AOT/AOT_stimuli/rescaled_final/0129_fw.mp4	0.0	334.4592537879944	
75	311.4379839897156	movie	1		242	73.0	2.5	/experiments/knapen_AOT/AOT_stimuli/rescaled_final/0129_fw.mp4	0.0	334.87578892707825	2.5004658699035645
75	312.61747694015503	pulse	1	t		73.0	2.5	/experiments/knapen_AOT/AOT_stimuli/rescaled_final/0129_fw.mp4	0.0	336.0552818775177	
75	313.93844985961914	fix_post	2		12	73.0	2.5	/experiments/knapen_AOT/AOT_stimuli/rescaled_final/0129_fw.mp4	0.0	337.3762547969818	0.09993195533752441
76	314.03838181495667	fix_pre	0		120	74.0	2.5	/experiments/knapen_AOT/AOT_stimuli/rescaled_final/0383_rv.mp4	0.0	337.47618675231934	1.0001420974731445
76	314.2220129966736	pulse	0	t		74.0	2.5	/experiments/knapen_AOT/AOT_stimuli/rescaled_final/0383_rv.mp4	0.0	337.65981793403625	
76	315.0385239124298	movie	1		240	74.0	2.5	/experiments/knapen_AOT/AOT_stimuli/rescaled_final/0383_rv.mp4	0.0	338.4763288497925	2.5006299018859863
76	315.82226395606995	pulse	1	t		74.0	2.5	/experiments/knapen_AOT/AOT_stimuli/rescaled_final/0383_rv.mp4	0.0	339.2600688934326	
76	317.42242789268494	pulse	1	t		74.0	2.5	/experiments/knapen_AOT/AOT_stimuli/rescaled_final/0383_rv.mp4	0.0	340.8602328300476	
76	317.5391538143158	fix_post	2		12	74.0	2.5	/experiments/knapen_AOT/AOT_stimuli/rescaled_final/0383_rv.mp4	0.0	340.97695875167847	0.09980106353759766
77	317.6389548778534	fix_pre	0		120	75.0	2.5	blank	1.0	341.07675981521606	1.0001420974731445
77	318.63909697532654	movie	1		299	75.0	2.5	blank	1.0	342.0769019126892	2.492048978805542
77	319.02259588241577	pulse	1	t		75.0	2.5	blank	1.0	342.46040081977844	
77	320.62296986579895	pulse	1	t		75.0	2.5	blank	1.0	344.0607748031616	
77	321.1311459541321	fix_post	2		12	75.0	2.5	blank	1.0	344.56895089149475	0.10001492500305176
78	321.23116087913513	fix_pre	0		120	76.0	2.5	/experiments/knapen_AOT/AOT_stimuli/rescaled_final/1341_fw.mp4	0.0	344.6689658164978	1.000093936920166
78	322.21566700935364	pulse	0	t		76.0	2.5	/experiments/knapen_AOT/AOT_stimuli/rescaled_final/1341_fw.mp4	0.0	345.6534719467163	
78	322.2312548160553	movie	1		244	76.0	2.5	/experiments/knapen_AOT/AOT_stimuli/rescaled_final/1341_fw.mp4	0.0	345.66905975341797	2.508852005004883
78	323.8238778114319	pulse	1	t		76.0	2.5	/experiments/knapen_AOT/AOT_stimuli/rescaled_final/1341_fw.mp4	0.0	347.26168274879456	
78	324.7401068210602	fix_post	2		12	76.0	2.5	/experiments/knapen_AOT/AOT_stimuli/rescaled_final/1341_fw.mp4	0.0	348.17791175842285	0.09987616539001465
79	324.8399829864502	fix_pre	0		120	77.0	2.5	/experiments/knapen_AOT/AOT_stimuli/rescaled_final/2172_fw.mp4	0.0	348.27778792381287	1.0001838207244873
79	325.41618394851685	pulse	0	t		77.0	2.5	/experiments/knapen_AOT/AOT_stimuli/rescaled_final/2172_fw.mp4	0.0	348.8539888858795	
79	325.8401668071747	movie	1		243	77.0	2.5	/experiments/knapen_AOT/AOT_stimuli/rescaled_final/2172_fw.mp4	0.0	349.27797174453735	2.5004570484161377
79	327.01602482795715	pulse	1	t		77.0	2.5	/experiments/knapen_AOT/AOT_stimuli/rescaled_final/2172_fw.mp4	0.0	350.4538297653198	
79	328.3406238555908	fix_post	2		12	77.0	2.5	/experiments/knapen_AOT/AOT_stimuli/rescaled_final/2172_fw.mp4	0.0	351.7784287929535	0.09992599487304688
80	328.44054985046387	fix_pre	0		120	78.0	2.5	/experiments/knapen_AOT/AOT_stimuli/rescaled_final/2081_rv.mp4	0.0	351.87835478782654	1.0001161098480225
80	328.61649084091187	pulse	0	t		78.0	2.5	/experiments/knapen_AOT/AOT_stimuli/rescaled_final/2081_rv.mp4	0.0	352.05429577827454	
80	329.4406659603119	movie	1		243	78.0	2.5	/experiments/knapen_AOT/AOT_stimuli/rescaled_final/2081_rv.mp4	0.0	352.87847089767456	2.5004379749298096
80	330.21601700782776	pulse	1	t		78.0	2.5	/experiments/knapen_AOT/AOT_stimuli/rescaled_final/2081_rv.mp4	0.0	353.65382194519043	
80	331.8161687850952	pulse	1	t		78.0	2.5	/experiments/knapen_AOT/AOT_stimuli/rescaled_final/2081_rv.mp4	0.0	355.2539737224579	
80	331.9411039352417	fix_post	2		12	78.0	2.5	/experiments/knapen_AOT/AOT_stimuli/rescaled_final/2081_rv.mp4	0.0	355.37890887260437	0.09996485710144043
81	332.04106879234314	fix_pre	0		119	79.0	2.5	/experiments/knapen_AOT/AOT_stimuli/rescaled_final/0002_rv.mp4	0.0	355.4788737297058	0.9918320178985596
81	333.0329008102417	movie	1		242	79.0	2.5	/experiments/knapen_AOT/AOT_stimuli/rescaled_final/0002_rv.mp4	0.0	356.47070574760437	2.5006051063537598
81	333.41692781448364	pulse	1	t		79.0	2.5	/experiments/knapen_AOT/AOT_stimuli/rescaled_final/0002_rv.mp4	0.0	356.8547327518463	
81	335.0167729854584	pulse	1	t		79.0	2.5	/experiments/knapen_AOT/AOT_stimuli/rescaled_final/0002_rv.mp4	0.0	358.45457792282104	
81	335.53350591659546	fix_post	2		12	79.0	2.5	/experiments/knapen_AOT/AOT_stimuli/rescaled_final/0002_rv.mp4	0.0	358.97131085395813	0.09975290298461914
82	335.6332588195801	fix_pre	0		119	80.0	2.5	/experiments/knapen_AOT/AOT_stimuli/rescaled_final/1531_fw.mp4	0.0	359.07106375694275	0.9918520450592041
82	336.61701679229736	pulse	0	t		80.0	2.5	/experiments/knapen_AOT/AOT_stimuli/rescaled_final/1531_fw.mp4	0.0	360.05482172966003	
82	336.6251108646393	movie	1		244	80.0	2.5	/experiments/knapen_AOT/AOT_stimuli/rescaled_final/1531_fw.mp4	0.0	360.06291580200195	2.5087239742279053
82	338.217768907547	pulse	1	t		80.0	2.5	/experiments/knapen_AOT/AOT_stimuli/rescaled_final/1531_fw.mp4	0.0	361.65557384490967	
82	339.1338348388672	fix_post	2		12	80.0	2.5	/experiments/knapen_AOT/AOT_stimuli/rescaled_final/1531_fw.mp4	0.0	362.57163977622986	0.10001397132873535
83	339.2338488101959	fix_pre	0		120	81.0	2.5	/experiments/knapen_AOT/AOT_stimuli/rescaled_final/0750_rv.mp4	0.0	362.6716537475586	1.0001220703125
83	339.8174469470978	pulse	0	t		81.0	2.5	/experiments/knapen_AOT/AOT_stimuli/rescaled_final/0750_rv.mp4	0.0	363.25525188446045	
83	340.2339708805084	movie	1		243	81.0	2.5	/experiments/knapen_AOT/AOT_stimuli/rescaled_final/0750_rv.mp4	0.0	363.6717758178711	2.5003669261932373
83	341.417671918869	pulse	1	t		81.0	2.5	/experiments/knapen_AOT/AOT_stimuli/rescaled_final/0750_rv.mp4	0.0	364.8554768562317	
83	342.73433780670166	fix_post	2		12	81.0	2.5	/experiments/knapen_AOT/AOT_stimuli/rescaled_final/0750_rv.mp4	0.0	366.17214274406433	0.0999910831451416
84	342.8343288898468	fix_pre	0		120	82.0	2.5	blank	1.0	366.2721338272095	1.0001740455627441
84	343.0178699493408	pulse	0	t		82.0	2.5	blank	1.0	366.4556748867035	
84	343.83450293540955	movie	1		300	82.0	2.5	blank	1.0	367.2723078727722	2.5004050731658936
84	344.6180717945099	pulse	1	t		82.0	2.5	blank	1.0	368.05587673187256	
84	346.2183949947357	pulse	1	t		82.0	2.5	blank	1.0	369.6561999320984	
84	346.33490800857544	fix_post	2		12	82.0	2.5	blank	1.0	369.7727129459381	0.1000068187713623
85	346.4349148273468	fix_pre	0		120	83.0	2.5	/experiments/knapen_AOT/AOT_stimuli/rescaled_final/2096_fw.mp4	0.0	369.8727197647095	1.0001420974731445
85	347.43505692481995	movie	1		243	83.0	2.5	/experiments/knapen_AOT/AOT_stimuli/rescaled_final/2096_fw.mp4	0.0	370.8728618621826	2.492064952850342
85	347.8192608356476	pulse	1	t		83.0	2.5	/experiments/knapen_AOT/AOT_stimuli/rescaled_final/2096_fw.mp4	0.0	371.25706577301025	
85	349.4188690185547	pulse	1	t		83.0	2.5	/experiments/knapen_AOT/AOT_stimuli/rescaled_final/2096_fw.mp4	0.0	372.85667395591736	
85	349.9271218776703	fix_post	2		12	83.0	2.5	/experiments/knapen_AOT/AOT_stimuli/rescaled_final/2096_fw.mp4	0.0	373.36492681503296	0.09999608993530273
87	350.0271179676056	stim	0		1716					373.46492290496826	14.302157878875732
87	351.01919078826904	pulse	0	t						374.4569957256317	
87	352.6194019317627	pulse	0	t						376.05720686912537	
87	354.21950793266296	pulse	0	t						377.65731287002563	
87	355.819864988327	pulse	0	t						379.2576699256897	
87	357.4200019836426	pulse	0	t						380.85780692100525	
87	359.0203080177307	pulse	0	t						382.4581129550934	
87	360.62046790122986	pulse	0	t						384.05827283859253	
87	362.2207658290863	pulse	0	t						385.658570766449	
87	363.82106590270996	pulse	0	t						387.25887084007263	
