trial_nr	onset	event_type	phase	response	nr_frames	movie_index	movie_duration	movie_file	blank	onset_abs	duration
0	0.20827698707580566	stim	0		30					23.885130167007446	0.24992990493774414
0	0.45006895065307617	response	0	space						24.126922130584717	
1	0.4582068920135498	stim	0		4563					24.13506007194519	38.039567947387695
1	38.487722873687744	pulse	0	t						62.164576053619385	
1	38.497774839401245	stim	1		1715					62.174628019332886	14.301499128341675
1	40.08097982406616	pulse	1	t						63.7578330039978	
1	41.68118596076965	pulse	1	t						65.3580391407013	
1	43.281359910964966	pulse	1	t						66.9582130908966	
1	44.881624937057495	pulse	1	t						68.55847811698914	
1	46.4819769859314	pulse	1	t						70.15883016586304	
1	48.08216190338135	pulse	1	t						71.75901508331299	
1	49.68232583999634	pulse	1	t						73.35917901992798	
1	51.282503843307495	pulse	1	t						74.95935702323914	
2	52.79927396774292	fix_pre	0		11	0.0	2.5	/experiments/knapen_AOT/AOT_stimuli/rescaled_final/0017_fw.mp4	0.0	76.47612714767456	0.09162092208862305
2	52.8829128742218	pulse	0	t		0.0	2.5	/experiments/knapen_AOT/AOT_stimuli/rescaled_final/0017_fw.mp4	0.0	76.55976605415344	
2	52.89089488983154	movie	1		245	0.0	2.5	/experiments/knapen_AOT/AOT_stimuli/rescaled_final/0017_fw.mp4	0.0	76.56774806976318	2.508798122406006
2	54.483829975128174	pulse	1	t		0.0	2.5	/experiments/knapen_AOT/AOT_stimuli/rescaled_final/0017_fw.mp4	0.0	78.16068315505981	
2	55.39969301223755	fix_post	2		12	0.0	2.5	/experiments/knapen_AOT/AOT_stimuli/rescaled_final/0017_fw.mp4	0.0	79.07654619216919	0.10010600090026855
3	55.49979901313782	fix_pre	0		120	1.0	2.5	/experiments/knapen_AOT/AOT_stimuli/rescaled_final/0986_fw.mp4	0.0	79.17665219306946	1.0000479221343994
3	56.08332705497742	pulse	0	t		1.0	2.5	/experiments/knapen_AOT/AOT_stimuli/rescaled_final/0986_fw.mp4	0.0	79.76018023490906	
3	56.49984693527222	movie	1		244	1.0	2.5	/experiments/knapen_AOT/AOT_stimuli/rescaled_final/0986_fw.mp4	0.0	80.17670011520386	2.5003581047058105
3	57.6835880279541	pulse	1	t		1.0	2.5	/experiments/knapen_AOT/AOT_stimuli/rescaled_final/0986_fw.mp4	0.0	81.36044120788574	
3	59.00020503997803	fix_post	2		12	1.0	2.5	/experiments/knapen_AOT/AOT_stimuli/rescaled_final/0986_fw.mp4	0.0	82.67705821990967	0.10002589225769043
4	59.10023093223572	fix_pre	0		120	2.0	2.5	/experiments/knapen_AOT/AOT_stimuli/rescaled_final/1820_rv.mp4	0.0	82.77708411216736	1.0001490116119385
4	59.28375005722046	pulse	0	t		2.0	2.5	/experiments/knapen_AOT/AOT_stimuli/rescaled_final/1820_rv.mp4	0.0	82.9606032371521	
4	60.100379943847656	movie	1		244	2.0	2.5	/experiments/knapen_AOT/AOT_stimuli/rescaled_final/1820_rv.mp4	0.0	83.7772331237793	2.500380039215088
4	60.87657690048218	pulse	1	t		2.0	2.5	/experiments/knapen_AOT/AOT_stimuli/rescaled_final/1820_rv.mp4	0.0	84.55343008041382	
4	62.48644304275513	pulse	1	t		2.0	2.5	/experiments/knapen_AOT/AOT_stimuli/rescaled_final/1820_rv.mp4	0.0	86.16329622268677	
4	62.600759983062744	fix_post	2		12	2.0	2.5	/experiments/knapen_AOT/AOT_stimuli/rescaled_final/1820_rv.mp4	0.0	86.27761316299438	0.09998893737792969
5	62.700748920440674	fix_pre	0		120	3.0	2.5	/experiments/knapen_AOT/AOT_stimuli/rescaled_final/0839_fw.mp4	0.0	86.37760210037231	1.0001590251922607
5	63.700907945632935	movie	1		243	3.0	2.5	/experiments/knapen_AOT/AOT_stimuli/rescaled_final/0839_fw.mp4	0.0	87.37776112556458	2.4920480251312256
5	64.08884596824646	pulse	1	t		3.0	2.5	/experiments/knapen_AOT/AOT_stimuli/rescaled_final/0839_fw.mp4	0.0	87.7656991481781	
5	65.67738890647888	pulse	1	t		3.0	2.5	/experiments/knapen_AOT/AOT_stimuli/rescaled_final/0839_fw.mp4	0.0	89.35424208641052	
5	66.19295597076416	fix_post	2		12	3.0	2.5	/experiments/knapen_AOT/AOT_stimuli/rescaled_final/0839_fw.mp4	0.0	89.8698091506958	0.1000678539276123
6	66.29302382469177	fix_pre	0		119	4.0	2.5	/experiments/knapen_AOT/AOT_stimuli/rescaled_final/1867_rv.mp4	0.0	89.96987700462341	0.9917540550231934
6	67.2766580581665	pulse	0	t		4.0	2.5	/experiments/knapen_AOT/AOT_stimuli/rescaled_final/1867_rv.mp4	0.0	90.95351123809814	
6	67.28477787971497	movie	1		246	4.0	2.5	/experiments/knapen_AOT/AOT_stimuli/rescaled_final/1867_rv.mp4	0.0	90.9616310596466	2.5086851119995117
6	68.8773410320282	pulse	1	t		4.0	2.5	/experiments/knapen_AOT/AOT_stimuli/rescaled_final/1867_rv.mp4	0.0	92.55419421195984	
6	69.79346299171448	fix_post	2		12	4.0	2.5	/experiments/knapen_AOT/AOT_stimuli/rescaled_final/1867_rv.mp4	0.0	93.47031617164612	0.10006284713745117
7	69.89352583885193	fix_pre	0		120	5.0	2.5	/experiments/knapen_AOT/AOT_stimuli/rescaled_final/1656_rv.mp4	0.0	93.57037901878357	1.0001201629638672
7	70.47705698013306	pulse	0	t		5.0	2.5	/experiments/knapen_AOT/AOT_stimuli/rescaled_final/1656_rv.mp4	0.0	94.1539101600647	
7	70.8936460018158	movie	1		243	5.0	2.5	/experiments/knapen_AOT/AOT_stimuli/rescaled_final/1656_rv.mp4	0.0	94.57049918174744	2.500438928604126
7	72.07749605178833	pulse	1	t		5.0	2.5	/experiments/knapen_AOT/AOT_stimuli/rescaled_final/1656_rv.mp4	0.0	95.75434923171997	
7	73.39408493041992	fix_post	2		12	5.0	2.5	/experiments/knapen_AOT/AOT_stimuli/rescaled_final/1656_rv.mp4	0.0	97.07093811035156	0.09999394416809082
8	73.49407887458801	fix_pre	0		120	6.0	2.5	/experiments/knapen_AOT/AOT_stimuli/rescaled_final/0770_rv.mp4	0.0	97.17093205451965	1.0001060962677002
8	73.67754197120667	pulse	0	t		6.0	2.5	/experiments/knapen_AOT/AOT_stimuli/rescaled_final/0770_rv.mp4	0.0	97.3543951511383	
8	74.49418497085571	movie	1		244	6.0	2.5	/experiments/knapen_AOT/AOT_stimuli/rescaled_final/0770_rv.mp4	0.0	98.17103815078735	2.500351905822754
8	75.27783799171448	pulse	1	t		6.0	2.5	/experiments/knapen_AOT/AOT_stimuli/rescaled_final/0770_rv.mp4	0.0	98.95469117164612	
8	76.87861800193787	pulse	1	t		6.0	2.5	/experiments/knapen_AOT/AOT_stimuli/rescaled_final/0770_rv.mp4	0.0	100.5554711818695	
8	76.99453687667847	fix_post	2		12	6.0	2.5	/experiments/knapen_AOT/AOT_stimuli/rescaled_final/0770_rv.mp4	0.0	100.67139005661011	0.10002303123474121
9	77.09455990791321	fix_pre	0		120	7.0	2.5	blank	1.0	100.77141308784485	1.0001580715179443
9	78.09471797943115	movie	1		299	7.0	2.5	blank	1.0	101.7715711593628	2.492074966430664
9	78.47842288017273	pulse	1	t		7.0	2.5	blank	1.0	102.15527606010437	
9	80.0784809589386	pulse	1	t		7.0	2.5	blank	1.0	103.75533413887024	
9	80.58679294586182	fix_post	2		12	7.0	2.5	blank	1.0	104.26364612579346	0.09997010231018066
10	80.686763048172	fix_pre	0		120	8.0	2.5	/experiments/knapen_AOT/AOT_stimuli/rescaled_final/0317_rv.mp4	0.0	104.36361622810364	1.0001659393310547
10	81.67876601219177	pulse	0	t		8.0	2.5	/experiments/knapen_AOT/AOT_stimuli/rescaled_final/0317_rv.mp4	0.0	105.35561919212341	
10	81.68692898750305	movie	1		245	8.0	2.5	/experiments/knapen_AOT/AOT_stimuli/rescaled_final/0317_rv.mp4	0.0	105.36378216743469	2.5087058544158936
10	83.27953886985779	pulse	1	t		8.0	2.5	/experiments/knapen_AOT/AOT_stimuli/rescaled_final/0317_rv.mp4	0.0	106.95639204978943	
10	84.19563484191895	fix_post	2		12	8.0	2.5	/experiments/knapen_AOT/AOT_stimuli/rescaled_final/0317_rv.mp4	0.0	107.87248802185059	0.09999918937683105
11	84.29563403129578	fix_pre	0		120	9.0	2.5	/experiments/knapen_AOT/AOT_stimuli/rescaled_final/1095_fw.mp4	0.0	107.97248721122742	1.0001938343048096
11	84.87925696372986	pulse	0	t		9.0	2.5	/experiments/knapen_AOT/AOT_stimuli/rescaled_final/1095_fw.mp4	0.0	108.5561101436615	
11	85.29582786560059	movie	1		245	9.0	2.5	/experiments/knapen_AOT/AOT_stimuli/rescaled_final/1095_fw.mp4	0.0	108.97268104553223	2.500370979309082
11	86.47964096069336	pulse	1	t		9.0	2.5	/experiments/knapen_AOT/AOT_stimuli/rescaled_final/1095_fw.mp4	0.0	110.156494140625	
11	87.79619884490967	fix_post	2		12	9.0	2.5	/experiments/knapen_AOT/AOT_stimuli/rescaled_final/1095_fw.mp4	0.0	111.47305202484131	0.09998202323913574
12	87.8961808681488	fix_pre	0		120	10.0	2.5	/experiments/knapen_AOT/AOT_stimuli/rescaled_final/0910_rv.mp4	0.0	111.57303404808044	1.0001449584960938
12	88.0797119140625	pulse	0	t		10.0	2.5	/experiments/knapen_AOT/AOT_stimuli/rescaled_final/0910_rv.mp4	0.0	111.75656509399414	
12	88.8963258266449	movie	1		243	10.0	2.5	/experiments/knapen_AOT/AOT_stimuli/rescaled_final/0910_rv.mp4	0.0	112.57317900657654	2.500371217727661
12	89.68001198768616	pulse	1	t		10.0	2.5	/experiments/knapen_AOT/AOT_stimuli/rescaled_final/0910_rv.mp4	0.0	113.3568651676178	
12	91.27998399734497	pulse	1	t		10.0	2.5	/experiments/knapen_AOT/AOT_stimuli/rescaled_final/0910_rv.mp4	0.0	114.95683717727661	
12	91.39669704437256	fix_post	2		12	10.0	2.5	/experiments/knapen_AOT/AOT_stimuli/rescaled_final/0910_rv.mp4	0.0	115.0735502243042	0.10003781318664551
13	91.4967348575592	fix_pre	0		119	11.0	2.5	/experiments/knapen_AOT/AOT_stimuli/rescaled_final/0139_rv.mp4	0.0	115.17358803749084	0.9918720722198486
13	92.48860692977905	movie	1		243	11.0	2.5	/experiments/knapen_AOT/AOT_stimuli/rescaled_final/0139_rv.mp4	0.0	116.1654601097107	2.5003509521484375
13	92.88053894042969	pulse	1	t		11.0	2.5	/experiments/knapen_AOT/AOT_stimuli/rescaled_final/0139_rv.mp4	0.0	116.55739212036133	
13	94.48067784309387	pulse	1	t		11.0	2.5	/experiments/knapen_AOT/AOT_stimuli/rescaled_final/0139_rv.mp4	0.0	118.15753102302551	
13	94.98895788192749	fix_post	2		12	11.0	2.5	/experiments/knapen_AOT/AOT_stimuli/rescaled_final/0139_rv.mp4	0.0	118.66581106185913	0.099945068359375
14	95.08890295028687	fix_pre	0		120	12.0	2.5	blank	1.0	118.7657561302185	1.0002191066741943
14	96.08091187477112	pulse	0	t		12.0	2.5	blank	1.0	119.75776505470276	
14	96.08912205696106	movie	1		298	12.0	2.5	blank	1.0	119.7659752368927	2.5086588859558105
14	97.68125987052917	pulse	1	t		12.0	2.5	blank	1.0	121.35811305046082	
14	98.59778094291687	fix_post	2		12	12.0	2.5	blank	1.0	122.27463412284851	0.10004901885986328
15	98.69782996177673	fix_pre	0		120	13.0	2.5	/experiments/knapen_AOT/AOT_stimuli/rescaled_final/0507_rv.mp4	0.0	122.37468314170837	1.000114917755127
15	99.28141403198242	pulse	0	t		13.0	2.5	/experiments/knapen_AOT/AOT_stimuli/rescaled_final/0507_rv.mp4	0.0	122.95826721191406	
15	99.69794487953186	movie	1		243	13.0	2.5	/experiments/knapen_AOT/AOT_stimuli/rescaled_final/0507_rv.mp4	0.0	123.3747980594635	2.5003631114959717
15	100.88170599937439	pulse	1	t		13.0	2.5	/experiments/knapen_AOT/AOT_stimuli/rescaled_final/0507_rv.mp4	0.0	124.55855917930603	
15	102.19830799102783	fix_post	2		12	13.0	2.5	/experiments/knapen_AOT/AOT_stimuli/rescaled_final/0507_rv.mp4	0.0	125.87516117095947	0.10001397132873535
16	102.29832196235657	fix_pre	0		120	14.0	2.5	/experiments/knapen_AOT/AOT_stimuli/rescaled_final/1885_fw.mp4	0.0	125.97517514228821	1.0001790523529053
16	102.48187804222107	pulse	0	t		14.0	2.5	/experiments/knapen_AOT/AOT_stimuli/rescaled_final/1885_fw.mp4	0.0	126.15873122215271	
16	103.29850101470947	movie	1		244	14.0	2.5	/experiments/knapen_AOT/AOT_stimuli/rescaled_final/1885_fw.mp4	0.0	126.97535419464111	2.5003440380096436
16	104.08215284347534	pulse	1	t		14.0	2.5	/experiments/knapen_AOT/AOT_stimuli/rescaled_final/1885_fw.mp4	0.0	127.75900602340698	
16	105.68240690231323	pulse	1	t		14.0	2.5	/experiments/knapen_AOT/AOT_stimuli/rescaled_final/1885_fw.mp4	0.0	129.35926008224487	
16	105.79884505271912	fix_post	2		12	14.0	2.5	/experiments/knapen_AOT/AOT_stimuli/rescaled_final/1885_fw.mp4	0.0	129.47569823265076	0.10002779960632324
17	105.89887285232544	fix_pre	0		120	15.0	2.5	/experiments/knapen_AOT/AOT_stimuli/rescaled_final/1686_rv.mp4	0.0	129.57572603225708	1.0001380443572998
17	106.89901089668274	movie	1		243	15.0	2.5	/experiments/knapen_AOT/AOT_stimuli/rescaled_final/1686_rv.mp4	0.0	130.57586407661438	2.4920599460601807
17	107.28335785865784	pulse	1	t		15.0	2.5	/experiments/knapen_AOT/AOT_stimuli/rescaled_final/1686_rv.mp4	0.0	130.96021103858948	
17	108.88287401199341	pulse	1	t		15.0	2.5	/experiments/knapen_AOT/AOT_stimuli/rescaled_final/1686_rv.mp4	0.0	132.55972719192505	
17	109.39107084274292	fix_post	2		12	15.0	2.5	/experiments/knapen_AOT/AOT_stimuli/rescaled_final/1686_rv.mp4	0.0	133.06792402267456	0.10000014305114746
18	109.49107098579407	fix_pre	0		120	16.0	2.5	/experiments/knapen_AOT/AOT_stimuli/rescaled_final/0373_fw.mp4	0.0	133.1679241657257	1.0001850128173828
18	110.48306393623352	pulse	0	t		16.0	2.5	/experiments/knapen_AOT/AOT_stimuli/rescaled_final/0373_fw.mp4	0.0	134.15991711616516	
18	110.49125599861145	movie	1		245	16.0	2.5	/experiments/knapen_AOT/AOT_stimuli/rescaled_final/0373_fw.mp4	0.0	134.1681091785431	2.5086560249328613
18	112.08405804634094	pulse	1	t		16.0	2.5	/experiments/knapen_AOT/AOT_stimuli/rescaled_final/0373_fw.mp4	0.0	135.76091122627258	
18	112.99991202354431	fix_post	2		12	16.0	2.5	/experiments/knapen_AOT/AOT_stimuli/rescaled_final/0373_fw.mp4	0.0	136.67676520347595	0.1000068187713623
19	113.09991884231567	fix_pre	0		120	17.0	2.5	/experiments/knapen_AOT/AOT_stimuli/rescaled_final/0433_rv.mp4	0.0	136.77677202224731	1.0001389980316162
19	113.68351197242737	pulse	0	t		17.0	2.5	/experiments/knapen_AOT/AOT_stimuli/rescaled_final/0433_rv.mp4	0.0	137.360365152359	
19	114.10005784034729	movie	1		245	17.0	2.5	/experiments/knapen_AOT/AOT_stimuli/rescaled_final/0433_rv.mp4	0.0	137.77691102027893	2.5003840923309326
19	115.28400087356567	pulse	1	t		17.0	2.5	/experiments/knapen_AOT/AOT_stimuli/rescaled_final/0433_rv.mp4	0.0	138.96085405349731	
19	116.60044193267822	fix_post	2		12	17.0	2.5	/experiments/knapen_AOT/AOT_stimuli/rescaled_final/0433_rv.mp4	0.0	140.27729511260986	0.10004210472106934
20	116.70048403739929	fix_pre	0		120	18.0	2.5	/experiments/knapen_AOT/AOT_stimuli/rescaled_final/0895_rv.mp4	0.0	140.37733721733093	1.0001389980316162
20	116.88403797149658	pulse	0	t		18.0	2.5	/experiments/knapen_AOT/AOT_stimuli/rescaled_final/0895_rv.mp4	0.0	140.56089115142822	
20	117.70062303543091	movie	1		243	18.0	2.5	/experiments/knapen_AOT/AOT_stimuli/rescaled_final/0895_rv.mp4	0.0	141.37747621536255	2.5004308223724365
20	118.4843180179596	pulse	1	t		18.0	2.5	/experiments/knapen_AOT/AOT_stimuli/rescaled_final/0895_rv.mp4	0.0	142.16117119789124	
20	120.08464789390564	pulse	1	t		18.0	2.5	/experiments/knapen_AOT/AOT_stimuli/rescaled_final/0895_rv.mp4	0.0	143.76150107383728	
20	120.20105385780334	fix_post	2		12	18.0	2.5	/experiments/knapen_AOT/AOT_stimuli/rescaled_final/0895_rv.mp4	0.0	143.87790703773499	0.09999418258666992
21	120.30104804039001	fix_pre	0		120	19.0	2.5	/experiments/knapen_AOT/AOT_stimuli/rescaled_final/0730_rv.mp4	0.0	143.97790122032166	1.0001559257507324
21	121.30120396614075	movie	1		243	19.0	2.5	/experiments/knapen_AOT/AOT_stimuli/rescaled_final/0730_rv.mp4	0.0	144.9780571460724	2.4919838905334473
21	121.68628191947937	pulse	1	t		19.0	2.5	/experiments/knapen_AOT/AOT_stimuli/rescaled_final/0730_rv.mp4	0.0	145.363135099411	
21	123.27757096290588	pulse	1	t		19.0	2.5	/experiments/knapen_AOT/AOT_stimuli/rescaled_final/0730_rv.mp4	0.0	146.95442414283752	
21	123.7931878566742	fix_post	2		12	19.0	2.5	/experiments/knapen_AOT/AOT_stimuli/rescaled_final/0730_rv.mp4	0.0	147.47004103660583	0.10002708435058594
22	123.89321494102478	fix_pre	0		120	20.0	2.5	blank	1.0	147.57006812095642	1.0001530647277832
22	124.87786483764648	pulse	0	t		20.0	2.5	blank	1.0	148.55471801757812	
22	124.89336800575256	movie	1		301	20.0	2.5	blank	1.0	148.5702211856842	2.508715867996216
22	126.47790694236755	pulse	1	t		20.0	2.5	blank	1.0	150.1547601222992	
22	127.40208387374878	fix_post	2		12	20.0	2.5	blank	1.0	151.07893705368042	0.10004711151123047
23	127.50213098526001	fix_pre	0		120	21.0	2.5	/experiments/knapen_AOT/AOT_stimuli/rescaled_final/0673_rv.mp4	0.0	151.17898416519165	1.0001070499420166
23	128.07746696472168	pulse	0	t		21.0	2.5	/experiments/knapen_AOT/AOT_stimuli/rescaled_final/0673_rv.mp4	0.0	151.75432014465332	
23	128.50223803520203	movie	1		244	21.0	2.5	/experiments/knapen_AOT/AOT_stimuli/rescaled_final/0673_rv.mp4	0.0	152.17909121513367	2.5003509521484375
23	129.67888593673706	pulse	1	t		21.0	2.5	/experiments/knapen_AOT/AOT_stimuli/rescaled_final/0673_rv.mp4	0.0	153.3557391166687	
23	131.00258898735046	fix_post	2		12	21.0	2.5	/experiments/knapen_AOT/AOT_stimuli/rescaled_final/0673_rv.mp4	0.0	154.6794421672821	0.10006999969482422
24	131.1026589870453	fix_pre	0		120	22.0	2.5	/experiments/knapen_AOT/AOT_stimuli/rescaled_final/1958_rv.mp4	0.0	154.77951216697693	1.0001039505004883
24	131.2780089378357	pulse	0	t		22.0	2.5	/experiments/knapen_AOT/AOT_stimuli/rescaled_final/1958_rv.mp4	0.0	154.95486211776733	
24	132.10276293754578	movie	1		243	22.0	2.5	/experiments/knapen_AOT/AOT_stimuli/rescaled_final/1958_rv.mp4	0.0	155.77961611747742	2.500377893447876
24	132.87809085845947	pulse	1	t		22.0	2.5	/experiments/knapen_AOT/AOT_stimuli/rescaled_final/1958_rv.mp4	0.0	156.5549440383911	
24	134.47829389572144	pulse	1	t		22.0	2.5	/experiments/knapen_AOT/AOT_stimuli/rescaled_final/1958_rv.mp4	0.0	158.15514707565308	
24	134.60314083099365	fix_post	2		12	22.0	2.5	/experiments/knapen_AOT/AOT_stimuli/rescaled_final/1958_rv.mp4	0.0	158.2799940109253	0.100006103515625
25	134.70314693450928	fix_pre	0		119	23.0	2.5	/experiments/knapen_AOT/AOT_stimuli/rescaled_final/0913_rv.mp4	0.0	158.38000011444092	0.9918301105499268
25	135.6949770450592	movie	1		244	23.0	2.5	/experiments/knapen_AOT/AOT_stimuli/rescaled_final/0913_rv.mp4	0.0	159.37183022499084	2.5003738403320312
25	136.07908582687378	pulse	1	t		23.0	2.5	/experiments/knapen_AOT/AOT_stimuli/rescaled_final/0913_rv.mp4	0.0	159.75593900680542	
25	137.6788249015808	pulse	1	t		23.0	2.5	/experiments/knapen_AOT/AOT_stimuli/rescaled_final/0913_rv.mp4	0.0	161.35567808151245	
25	138.19535088539124	fix_post	2		12	23.0	2.5	/experiments/knapen_AOT/AOT_stimuli/rescaled_final/0913_rv.mp4	0.0	161.87220406532288	0.09999608993530273
26	138.29534697532654	fix_pre	0		119	24.0	2.5	/experiments/knapen_AOT/AOT_stimuli/rescaled_final/1725_fw.mp4	0.0	161.97220015525818	0.9918310642242432
26	139.27904105186462	pulse	0	t		24.0	2.5	/experiments/knapen_AOT/AOT_stimuli/rescaled_final/1725_fw.mp4	0.0	162.95589423179626	
26	139.28717803955078	movie	1		245	24.0	2.5	/experiments/knapen_AOT/AOT_stimuli/rescaled_final/1725_fw.mp4	0.0	162.96403121948242	2.5087289810180664
26	140.8799889087677	pulse	1	t		24.0	2.5	/experiments/knapen_AOT/AOT_stimuli/rescaled_final/1725_fw.mp4	0.0	164.55684208869934	
26	141.79590702056885	fix_post	2		12	24.0	2.5	/experiments/knapen_AOT/AOT_stimuli/rescaled_final/1725_fw.mp4	0.0	165.4727602005005	0.10003495216369629
27	141.89594197273254	fix_pre	0		120	25.0	2.5	/experiments/knapen_AOT/AOT_stimuli/rescaled_final/0404_rv.mp4	0.0	165.57279515266418	1.0000920295715332
27	142.47948098182678	pulse	0	t		25.0	2.5	/experiments/knapen_AOT/AOT_stimuli/rescaled_final/0404_rv.mp4	0.0	166.15633416175842	
27	142.89603400230408	movie	1		243	25.0	2.5	/experiments/knapen_AOT/AOT_stimuli/rescaled_final/0404_rv.mp4	0.0	166.57288718223572	2.500372886657715
27	144.07983303070068	pulse	1	t		25.0	2.5	/experiments/knapen_AOT/AOT_stimuli/rescaled_final/0404_rv.mp4	0.0	167.75668621063232	
27	145.3964068889618	fix_post	2		12	25.0	2.5	/experiments/knapen_AOT/AOT_stimuli/rescaled_final/0404_rv.mp4	0.0	169.07326006889343	0.10005712509155273
28	145.49646401405334	fix_pre	0		120	26.0	2.5	blank	1.0	169.17331719398499	1.0001089572906494
28	145.68013095855713	pulse	0	t		26.0	2.5	blank	1.0	169.35698413848877	
28	146.496572971344	movie	1		300	26.0	2.5	blank	1.0	170.17342615127563	2.5004069805145264
28	147.28028082847595	pulse	1	t		26.0	2.5	blank	1.0	170.9571340084076	
28	148.88040494918823	pulse	1	t		26.0	2.5	blank	1.0	172.55725812911987	
28	148.99697995185852	fix_post	2		12	26.0	2.5	blank	1.0	172.67383313179016	0.09997797012329102
29	149.0969579219818	fix_pre	0		120	27.0	2.5	/experiments/knapen_AOT/AOT_stimuli/rescaled_final/0896_fw.mp4	0.0	172.77381110191345	1.0002110004425049
29	150.09716892242432	movie	1		242	27.0	2.5	/experiments/knapen_AOT/AOT_stimuli/rescaled_final/0896_fw.mp4	0.0	173.77402210235596	2.4919869899749756
29	150.48497104644775	pulse	1	t		27.0	2.5	/experiments/knapen_AOT/AOT_stimuli/rescaled_final/0896_fw.mp4	0.0	174.1618242263794	
29	152.08106398582458	pulse	1	t		27.0	2.5	/experiments/knapen_AOT/AOT_stimuli/rescaled_final/0896_fw.mp4	0.0	175.75791716575623	
29	152.5891559123993	fix_post	2		12	27.0	2.5	/experiments/knapen_AOT/AOT_stimuli/rescaled_final/0896_fw.mp4	0.0	176.26600909233093	0.10003209114074707
30	152.68918800354004	fix_pre	0		120	28.0	2.5	/experiments/knapen_AOT/AOT_stimuli/rescaled_final/1417_rv.mp4	0.0	176.36604118347168	1.0001318454742432
30	153.6812698841095	pulse	0	t		28.0	2.5	/experiments/knapen_AOT/AOT_stimuli/rescaled_final/1417_rv.mp4	0.0	177.35812306404114	
30	153.68931984901428	movie	1		246	28.0	2.5	/experiments/knapen_AOT/AOT_stimuli/rescaled_final/1417_rv.mp4	0.0	177.36617302894592	2.508758068084717
30	155.28277397155762	pulse	1	t		28.0	2.5	/experiments/knapen_AOT/AOT_stimuli/rescaled_final/1417_rv.mp4	0.0	178.95962715148926	
30	156.198077917099	fix_post	2		12	28.0	2.5	/experiments/knapen_AOT/AOT_stimuli/rescaled_final/1417_rv.mp4	0.0	179.87493109703064	0.10000801086425781
31	156.29808592796326	fix_pre	0		120	29.0	2.5	/experiments/knapen_AOT/AOT_stimuli/rescaled_final/0351_rv.mp4	0.0	179.9749391078949	1.0007290840148926
31	156.88161492347717	pulse	0	t		29.0	2.5	/experiments/knapen_AOT/AOT_stimuli/rescaled_final/0351_rv.mp4	0.0	180.5584681034088	
31	157.29881501197815	movie	1		241	29.0	2.5	/experiments/knapen_AOT/AOT_stimuli/rescaled_final/0351_rv.mp4	0.0	180.9756681919098	2.499788999557495
31	158.4779748916626	pulse	1	t		29.0	2.5	/experiments/knapen_AOT/AOT_stimuli/rescaled_final/0351_rv.mp4	0.0	182.15482807159424	
31	159.79860401153564	fix_post	2		12	29.0	2.5	/experiments/knapen_AOT/AOT_stimuli/rescaled_final/0351_rv.mp4	0.0	183.47545719146729	0.09999895095825195
32	159.8986029624939	fix_pre	0		120	30.0	2.5	/experiments/knapen_AOT/AOT_stimuli/rescaled_final/1081_fw.mp4	0.0	183.57545614242554	1.0001680850982666
32	160.0822398662567	pulse	0	t		30.0	2.5	/experiments/knapen_AOT/AOT_stimuli/rescaled_final/1081_fw.mp4	0.0	183.75909304618835	
32	160.89877104759216	movie	1		244	30.0	2.5	/experiments/knapen_AOT/AOT_stimuli/rescaled_final/1081_fw.mp4	0.0	184.5756242275238	2.5003228187561035
32	161.68246793746948	pulse	1	t		30.0	2.5	/experiments/knapen_AOT/AOT_stimuli/rescaled_final/1081_fw.mp4	0.0	185.35932111740112	
32	163.28034687042236	pulse	1	t		30.0	2.5	/experiments/knapen_AOT/AOT_stimuli/rescaled_final/1081_fw.mp4	0.0	186.957200050354	
32	163.39909386634827	fix_post	2		12	30.0	2.5	/experiments/knapen_AOT/AOT_stimuli/rescaled_final/1081_fw.mp4	0.0	187.0759470462799	0.1000361442565918
33	163.49913001060486	fix_pre	0		120	31.0	2.5	/experiments/knapen_AOT/AOT_stimuli/rescaled_final/0107_fw.mp4	0.0	187.1759831905365	1.0001459121704102
33	164.49927592277527	movie	1		244	31.0	2.5	/experiments/knapen_AOT/AOT_stimuli/rescaled_final/0107_fw.mp4	0.0	188.1761291027069	2.492034912109375
33	164.88342905044556	pulse	1	t		31.0	2.5	/experiments/knapen_AOT/AOT_stimuli/rescaled_final/0107_fw.mp4	0.0	188.5602822303772	
33	166.48316884040833	pulse	1	t		31.0	2.5	/experiments/knapen_AOT/AOT_stimuli/rescaled_final/0107_fw.mp4	0.0	190.16002202033997	
33	166.99131083488464	fix_post	2		12	31.0	2.5	/experiments/knapen_AOT/AOT_stimuli/rescaled_final/0107_fw.mp4	0.0	190.66816401481628	0.10000205039978027
34	167.09131288528442	fix_pre	0		120	32.0	2.5	/experiments/knapen_AOT/AOT_stimuli/rescaled_final/1790_rv.mp4	0.0	190.76816606521606	1.0001630783081055
34	168.083349943161	pulse	0	t		32.0	2.5	/experiments/knapen_AOT/AOT_stimuli/rescaled_final/1790_rv.mp4	0.0	191.76020312309265	
34	168.09147596359253	movie	1		245	32.0	2.5	/experiments/knapen_AOT/AOT_stimuli/rescaled_final/1790_rv.mp4	0.0	191.76832914352417	2.5087180137634277
34	169.6840889453888	pulse	1	t		32.0	2.5	/experiments/knapen_AOT/AOT_stimuli/rescaled_final/1790_rv.mp4	0.0	193.36094212532043	
34	170.60019397735596	fix_post	2		12	32.0	2.5	/experiments/knapen_AOT/AOT_stimuli/rescaled_final/1790_rv.mp4	0.0	194.2770471572876	0.10000991821289062
35	170.70020389556885	fix_pre	0		120	33.0	2.5	/experiments/knapen_AOT/AOT_stimuli/rescaled_final/1091_fw.mp4	0.0	194.3770570755005	1.0001380443572998
35	171.28385400772095	pulse	0	t		33.0	2.5	/experiments/knapen_AOT/AOT_stimuli/rescaled_final/1091_fw.mp4	0.0	194.9607071876526	
35	171.70034193992615	movie	1		245	33.0	2.5	/experiments/knapen_AOT/AOT_stimuli/rescaled_final/1091_fw.mp4	0.0	195.3771951198578	2.500354051589966
35	172.8841998577118	pulse	1	t		33.0	2.5	/experiments/knapen_AOT/AOT_stimuli/rescaled_final/1091_fw.mp4	0.0	196.56105303764343	
35	174.2006959915161	fix_post	2		12	33.0	2.5	/experiments/knapen_AOT/AOT_stimuli/rescaled_final/1091_fw.mp4	0.0	197.87754917144775	0.10001897811889648
36	174.300714969635	fix_pre	0		120	34.0	2.5	/experiments/knapen_AOT/AOT_stimuli/rescaled_final/0517_rv.mp4	0.0	197.97756814956665	1.0001540184020996
36	174.4768328666687	pulse	0	t		34.0	2.5	/experiments/knapen_AOT/AOT_stimuli/rescaled_final/0517_rv.mp4	0.0	198.15368604660034	
36	175.3008689880371	movie	1		245	34.0	2.5	/experiments/knapen_AOT/AOT_stimuli/rescaled_final/0517_rv.mp4	0.0	198.97772216796875	2.5004050731658936
36	176.07730102539062	pulse	1	t		34.0	2.5	/experiments/knapen_AOT/AOT_stimuli/rescaled_final/0517_rv.mp4	0.0	199.75415420532227	
36	177.68228602409363	pulse	1	t		34.0	2.5	/experiments/knapen_AOT/AOT_stimuli/rescaled_final/0517_rv.mp4	0.0	201.35913920402527	
36	177.801274061203	fix_post	2		12	34.0	2.5	/experiments/knapen_AOT/AOT_stimuli/rescaled_final/0517_rv.mp4	0.0	201.47812724113464	0.09998083114624023
37	177.90125489234924	fix_pre	0		120	35.0	2.5	blank	1.0	201.57810807228088	1.0001640319824219
37	178.90141892433167	movie	1		299	35.0	2.5	blank	1.0	202.5782721042633	2.4920380115509033
37	179.27745485305786	pulse	1	t		35.0	2.5	blank	1.0	202.9543080329895	
37	180.87697982788086	pulse	1	t		35.0	2.5	blank	1.0	204.5538330078125	
37	181.39345693588257	fix_post	2		12	35.0	2.5	blank	1.0	205.0703101158142	0.10000395774841309
38	181.49346089363098	fix_pre	0		119	36.0	2.5	/experiments/knapen_AOT/AOT_stimuli/rescaled_final/1094_rv.mp4	0.0	205.17031407356262	0.9918191432952881
38	182.47710585594177	pulse	0	t		36.0	2.5	/experiments/knapen_AOT/AOT_stimuli/rescaled_final/1094_rv.mp4	0.0	206.1539590358734	
38	182.48528003692627	movie	1		245	36.0	2.5	/experiments/knapen_AOT/AOT_stimuli/rescaled_final/1094_rv.mp4	0.0	206.1621332168579	2.5087168216705322
38	184.07796001434326	pulse	1	t		36.0	2.5	/experiments/knapen_AOT/AOT_stimuli/rescaled_final/1094_rv.mp4	0.0	207.7548131942749	
38	184.9939968585968	fix_post	2		12	36.0	2.5	/experiments/knapen_AOT/AOT_stimuli/rescaled_final/1094_rv.mp4	0.0	208.67085003852844	0.100006103515625
39	185.09400296211243	fix_pre	0		120	37.0	2.5	/experiments/knapen_AOT/AOT_stimuli/rescaled_final/0484_rv.mp4	0.0	208.77085614204407	1.0001590251922607
39	185.6775460243225	pulse	0	t		37.0	2.5	/experiments/knapen_AOT/AOT_stimuli/rescaled_final/0484_rv.mp4	0.0	209.35439920425415	
39	186.0941619873047	movie	1		245	37.0	2.5	/experiments/knapen_AOT/AOT_stimuli/rescaled_final/0484_rv.mp4	0.0	209.77101516723633	2.5003409385681152
39	187.27798986434937	pulse	1	t		37.0	2.5	/experiments/knapen_AOT/AOT_stimuli/rescaled_final/0484_rv.mp4	0.0	210.954843044281	
39	188.5945029258728	fix_post	2		12	37.0	2.5	/experiments/knapen_AOT/AOT_stimuli/rescaled_final/0484_rv.mp4	0.0	212.27135610580444	0.10001993179321289
40	188.69452285766602	fix_pre	0		120	38.0	2.5	/experiments/knapen_AOT/AOT_stimuli/rescaled_final/0830_fw.mp4	0.0	212.37137603759766	1.0001530647277832
40	188.87809300422668	pulse	0	t		38.0	2.5	/experiments/knapen_AOT/AOT_stimuli/rescaled_final/0830_fw.mp4	0.0	212.55494618415833	
40	189.6946759223938	movie	1		244	38.0	2.5	/experiments/knapen_AOT/AOT_stimuli/rescaled_final/0830_fw.mp4	0.0	213.37152910232544	2.5004000663757324
40	190.47838497161865	pulse	1	t		38.0	2.5	/experiments/knapen_AOT/AOT_stimuli/rescaled_final/0830_fw.mp4	0.0	214.1552381515503	
40	192.07855105400085	pulse	1	t		38.0	2.5	/experiments/knapen_AOT/AOT_stimuli/rescaled_final/0830_fw.mp4	0.0	215.7554042339325	
40	192.19507598876953	fix_post	2		12	38.0	2.5	/experiments/knapen_AOT/AOT_stimuli/rescaled_final/0830_fw.mp4	0.0	215.87192916870117	0.10000395774841309
41	192.29507994651794	fix_pre	0		119	39.0	2.5	/experiments/knapen_AOT/AOT_stimuli/rescaled_final/0895_fw.mp4	0.0	215.97193312644958	0.9918200969696045
41	193.28690004348755	movie	1		243	39.0	2.5	/experiments/knapen_AOT/AOT_stimuli/rescaled_final/0895_fw.mp4	0.0	216.9637532234192	2.5003528594970703
41	193.67900586128235	pulse	1	t		39.0	2.5	/experiments/knapen_AOT/AOT_stimuli/rescaled_final/0895_fw.mp4	0.0	217.355859041214	
41	195.2790310382843	pulse	1	t		39.0	2.5	/experiments/knapen_AOT/AOT_stimuli/rescaled_final/0895_fw.mp4	0.0	218.95588421821594	
41	195.78725290298462	fix_post	2		12	39.0	2.5	/experiments/knapen_AOT/AOT_stimuli/rescaled_final/0895_fw.mp4	0.0	219.46410608291626	0.10000300407409668
42	195.88725590705872	fix_pre	0		120	40.0	2.5	/experiments/knapen_AOT/AOT_stimuli/rescaled_final/1765_rv.mp4	0.0	219.56410908699036	1.0001890659332275
42	196.8793749809265	pulse	0	t		40.0	2.5	/experiments/knapen_AOT/AOT_stimuli/rescaled_final/1765_rv.mp4	0.0	220.55622816085815	
42	196.88744497299194	movie	1		244	40.0	2.5	/experiments/knapen_AOT/AOT_stimuli/rescaled_final/1765_rv.mp4	0.0	220.56429815292358	2.508683919906616
42	198.48064494132996	pulse	1	t		40.0	2.5	/experiments/knapen_AOT/AOT_stimuli/rescaled_final/1765_rv.mp4	0.0	222.1574981212616	
42	199.39612889289856	fix_post	2		12	40.0	2.5	/experiments/knapen_AOT/AOT_stimuli/rescaled_final/1765_rv.mp4	0.0	223.0729820728302	0.09999895095825195
43	199.4961278438568	fix_pre	0		120	41.0	2.5	/experiments/knapen_AOT/AOT_stimuli/rescaled_final/1794_rv.mp4	0.0	223.17298102378845	1.0001749992370605
43	200.07981491088867	pulse	0	t		41.0	2.5	/experiments/knapen_AOT/AOT_stimuli/rescaled_final/1794_rv.mp4	0.0	223.7566680908203	
43	200.49630284309387	movie	1		251	41.0	2.5	/experiments/knapen_AOT/AOT_stimuli/rescaled_final/1794_rv.mp4	0.0	224.1731560230255	2.500385046005249
43	201.68008303642273	pulse	1	t		41.0	2.5	/experiments/knapen_AOT/AOT_stimuli/rescaled_final/1794_rv.mp4	0.0	225.35693621635437	
43	202.99668788909912	fix_post	2		12	41.0	2.5	/experiments/knapen_AOT/AOT_stimuli/rescaled_final/1794_rv.mp4	0.0	226.67354106903076	0.10004901885986328
44	203.09673690795898	fix_pre	0		120	42.0	2.5	blank	1.0	226.77359008789062	1.0001051425933838
44	203.2802538871765	pulse	0	t		42.0	2.5	blank	1.0	226.95710706710815	
44	204.09684205055237	movie	1		300	42.0	2.5	blank	1.0	227.773695230484	2.5003879070281982
44	204.88045501708984	pulse	1	t		42.0	2.5	blank	1.0	228.55730819702148	
44	206.4807050228119	pulse	1	t		42.0	2.5	blank	1.0	230.15755820274353	
44	206.59722995758057	fix_post	2		12	42.0	2.5	blank	1.0	230.2740831375122	0.09999203681945801
45	206.69722199440002	fix_pre	0		120	43.0	2.5	/experiments/knapen_AOT/AOT_stimuli/rescaled_final/1885_fw.mp4	0.0	230.37407517433167	1.0001459121704102
45	207.69736790657043	movie	1		246	43.0	2.5	/experiments/knapen_AOT/AOT_stimuli/rescaled_final/1885_fw.mp4	0.0	231.37422108650208	2.492033004760742
45	208.08172488212585	pulse	1	t		43.0	2.5	/experiments/knapen_AOT/AOT_stimuli/rescaled_final/1885_fw.mp4	0.0	231.7585780620575	
45	209.68123698234558	pulse	1	t		43.0	2.5	/experiments/knapen_AOT/AOT_stimuli/rescaled_final/1885_fw.mp4	0.0	233.35809016227722	
45	210.18940091133118	fix_post	2		12	43.0	2.5	/experiments/knapen_AOT/AOT_stimuli/rescaled_final/1885_fw.mp4	0.0	233.86625409126282	0.10000896453857422
46	210.28940987586975	fix_pre	0		120	44.0	2.5	/experiments/knapen_AOT/AOT_stimuli/rescaled_final/1749_rv.mp4	0.0	233.9662630558014	1.0002081394195557
46	211.28152990341187	pulse	0	t		44.0	2.5	/experiments/knapen_AOT/AOT_stimuli/rescaled_final/1749_rv.mp4	0.0	234.9583830833435	
46	211.2896180152893	movie	1		250	44.0	2.5	/experiments/knapen_AOT/AOT_stimuli/rescaled_final/1749_rv.mp4	0.0	234.96647119522095	2.5086770057678223
46	212.88217401504517	pulse	1	t		44.0	2.5	/experiments/knapen_AOT/AOT_stimuli/rescaled_final/1749_rv.mp4	0.0	236.5590271949768	
46	213.79829502105713	fix_post	2		12	44.0	2.5	/experiments/knapen_AOT/AOT_stimuli/rescaled_final/1749_rv.mp4	0.0	237.47514820098877	0.09999585151672363
47	213.89829087257385	fix_pre	0		120	45.0	2.5	/experiments/knapen_AOT/AOT_stimuli/rescaled_final/1500_rv.mp4	0.0	237.5751440525055	1.0001790523529053
47	214.48195505142212	pulse	0	t		45.0	2.5	/experiments/knapen_AOT/AOT_stimuli/rescaled_final/1500_rv.mp4	0.0	238.15880823135376	
47	214.89846992492676	movie	1		249	45.0	2.5	/experiments/knapen_AOT/AOT_stimuli/rescaled_final/1500_rv.mp4	0.0	238.5753231048584	2.5003340244293213
47	216.08229088783264	pulse	1	t		45.0	2.5	/experiments/knapen_AOT/AOT_stimuli/rescaled_final/1500_rv.mp4	0.0	239.75914406776428	
47	217.39880394935608	fix_post	2		12	45.0	2.5	/experiments/knapen_AOT/AOT_stimuli/rescaled_final/1500_rv.mp4	0.0	241.07565712928772	0.10004711151123047
48	217.4988510608673	fix_pre	0		117	46.0	2.5	/experiments/knapen_AOT/AOT_stimuli/rescaled_final/0189_rv.mp4	0.0	241.17570424079895	1.0001168251037598
48	217.68245482444763	pulse	0	t		46.0	2.5	/experiments/knapen_AOT/AOT_stimuli/rescaled_final/0189_rv.mp4	0.0	241.35930800437927	
48	218.49896788597107	movie	1		246	46.0	2.5	/experiments/knapen_AOT/AOT_stimuli/rescaled_final/0189_rv.mp4	0.0	242.1758210659027	2.5003769397735596
48	219.28268003463745	pulse	1	t		46.0	2.5	/experiments/knapen_AOT/AOT_stimuli/rescaled_final/0189_rv.mp4	0.0	242.9595332145691	
48	220.8829870223999	pulse	1	t		46.0	2.5	/experiments/knapen_AOT/AOT_stimuli/rescaled_final/0189_rv.mp4	0.0	244.55984020233154	
48	220.99934482574463	fix_post	2		12	46.0	2.5	/experiments/knapen_AOT/AOT_stimuli/rescaled_final/0189_rv.mp4	0.0	244.67619800567627	0.10003519058227539
49	221.0993800163269	fix_pre	0		120	47.0	2.5	/experiments/knapen_AOT/AOT_stimuli/rescaled_final/1110_fw.mp4	0.0	244.77623319625854	1.0001308917999268
49	222.09951090812683	movie	1		243	47.0	2.5	/experiments/knapen_AOT/AOT_stimuli/rescaled_final/1110_fw.mp4	0.0	245.77636408805847	2.4920310974121094
49	222.48351883888245	pulse	1	t		47.0	2.5	/experiments/knapen_AOT/AOT_stimuli/rescaled_final/1110_fw.mp4	0.0	246.1603720188141	
49	224.08333897590637	pulse	1	t		47.0	2.5	/experiments/knapen_AOT/AOT_stimuli/rescaled_final/1110_fw.mp4	0.0	247.760192155838	
49	224.59154200553894	fix_post	2		12	47.0	2.5	/experiments/knapen_AOT/AOT_stimuli/rescaled_final/1110_fw.mp4	0.0	248.26839518547058	0.10004687309265137
50	224.6915888786316	fix_pre	0		120	48.0	2.5	blank	1.0	248.36844205856323	1.0001630783081055
50	225.68358993530273	pulse	0	t		48.0	2.5	blank	1.0	249.36044311523438	
50	225.6917519569397	movie	1		301	48.0	2.5	blank	1.0	249.36860513687134	2.5086700916290283
50	227.2838659286499	pulse	1	t		48.0	2.5	blank	1.0	250.96071910858154	
50	228.20042204856873	fix_post	2		12	48.0	2.5	blank	1.0	251.87727522850037	0.10001778602600098
51	228.30043983459473	fix_pre	0		120	49.0	2.5	/experiments/knapen_AOT/AOT_stimuli/rescaled_final/0625_fw.mp4	0.0	251.97729301452637	1.0001862049102783
51	228.88403701782227	pulse	0	t		49.0	2.5	/experiments/knapen_AOT/AOT_stimuli/rescaled_final/0625_fw.mp4	0.0	252.5608901977539	
51	229.300626039505	movie	1		243	49.0	2.5	/experiments/knapen_AOT/AOT_stimuli/rescaled_final/0625_fw.mp4	0.0	252.97747921943665	2.500321865081787
51	230.48438787460327	pulse	1	t		49.0	2.5	/experiments/knapen_AOT/AOT_stimuli/rescaled_final/0625_fw.mp4	0.0	254.1612410545349	
51	231.8009479045868	fix_post	2		12	49.0	2.5	/experiments/knapen_AOT/AOT_stimuli/rescaled_final/0625_fw.mp4	0.0	255.47780108451843	0.1000370979309082
52	231.9009850025177	fix_pre	0		120	50.0	2.5	/experiments/knapen_AOT/AOT_stimuli/rescaled_final/0513_rv.mp4	0.0	255.57783818244934	1.0001468658447266
52	232.08448386192322	pulse	0	t		50.0	2.5	/experiments/knapen_AOT/AOT_stimuli/rescaled_final/0513_rv.mp4	0.0	255.76133704185486	
52	232.90113186836243	movie	1		244	50.0	2.5	/experiments/knapen_AOT/AOT_stimuli/rescaled_final/0513_rv.mp4	0.0	256.57798504829407	2.5003559589385986
52	233.68482089042664	pulse	1	t		50.0	2.5	/experiments/knapen_AOT/AOT_stimuli/rescaled_final/0513_rv.mp4	0.0	257.3616740703583	
52	235.28262090682983	pulse	1	t		50.0	2.5	/experiments/knapen_AOT/AOT_stimuli/rescaled_final/0513_rv.mp4	0.0	258.9594740867615	
52	235.40148782730103	fix_post	2		12	50.0	2.5	/experiments/knapen_AOT/AOT_stimuli/rescaled_final/0513_rv.mp4	0.0	259.07834100723267	0.10001516342163086
53	235.50150299072266	fix_pre	0		120	51.0	2.5	/experiments/knapen_AOT/AOT_stimuli/rescaled_final/0683_rv.mp4	0.0	259.1783561706543	1.0001640319824219
53	236.50166702270508	movie	1		243	51.0	2.5	/experiments/knapen_AOT/AOT_stimuli/rescaled_final/0683_rv.mp4	0.0	260.1785202026367	2.492003917694092
53	236.87690496444702	pulse	1	t		51.0	2.5	/experiments/knapen_AOT/AOT_stimuli/rescaled_final/0683_rv.mp4	0.0	260.55375814437866	
53	238.4773449897766	pulse	1	t		51.0	2.5	/experiments/knapen_AOT/AOT_stimuli/rescaled_final/0683_rv.mp4	0.0	262.15419816970825	
53	238.99367094039917	fix_post	2		12	51.0	2.5	/experiments/knapen_AOT/AOT_stimuli/rescaled_final/0683_rv.mp4	0.0	262.6705241203308	0.10005497932434082
54	239.0937259197235	fix_pre	0		119	52.0	2.5	/experiments/knapen_AOT/AOT_stimuli/rescaled_final/2165_fw.mp4	0.0	262.77057909965515	0.9918639659881592
54	240.0773458480835	pulse	0	t		52.0	2.5	/experiments/knapen_AOT/AOT_stimuli/rescaled_final/2165_fw.mp4	0.0	263.75419902801514	
54	240.08558988571167	movie	1		246	52.0	2.5	/experiments/knapen_AOT/AOT_stimuli/rescaled_final/2165_fw.mp4	0.0	263.7624430656433	2.5086350440979004
54	241.67823696136475	pulse	1	t		52.0	2.5	/experiments/knapen_AOT/AOT_stimuli/rescaled_final/2165_fw.mp4	0.0	265.3550901412964	
54	242.59422492980957	fix_post	2		12	52.0	2.5	/experiments/knapen_AOT/AOT_stimuli/rescaled_final/2165_fw.mp4	0.0	266.2710781097412	0.10002994537353516
55	242.6942548751831	fix_pre	0		120	53.0	2.5	/experiments/knapen_AOT/AOT_stimuli/rescaled_final/0234_fw.mp4	0.0	266.37110805511475	1.000143051147461
55	243.27791690826416	pulse	0	t		53.0	2.5	/experiments/knapen_AOT/AOT_stimuli/rescaled_final/0234_fw.mp4	0.0	266.9547700881958	
55	243.69439792633057	movie	1		245	53.0	2.5	/experiments/knapen_AOT/AOT_stimuli/rescaled_final/0234_fw.mp4	0.0	267.3712511062622	2.500370979309082
55	244.87818384170532	pulse	1	t		53.0	2.5	/experiments/knapen_AOT/AOT_stimuli/rescaled_final/0234_fw.mp4	0.0	268.55503702163696	
55	246.19476890563965	fix_post	2		12	53.0	2.5	/experiments/knapen_AOT/AOT_stimuli/rescaled_final/0234_fw.mp4	0.0	269.8716220855713	0.10004997253417969
56	246.29481887817383	fix_pre	0		120	54.0	2.5	/experiments/knapen_AOT/AOT_stimuli/rescaled_final/1970_rv.mp4	0.0	269.97167205810547	1.0001051425933838
56	246.4783890247345	pulse	0	t		54.0	2.5	/experiments/knapen_AOT/AOT_stimuli/rescaled_final/1970_rv.mp4	0.0	270.15524220466614	
56	247.2949240207672	movie	1		245	54.0	2.5	/experiments/knapen_AOT/AOT_stimuli/rescaled_final/1970_rv.mp4	0.0	270.97177720069885	2.500389814376831
56	248.078537940979	pulse	1	t		54.0	2.5	/experiments/knapen_AOT/AOT_stimuli/rescaled_final/1970_rv.mp4	0.0	271.75539112091064	
56	249.67882800102234	pulse	1	t		54.0	2.5	/experiments/knapen_AOT/AOT_stimuli/rescaled_final/1970_rv.mp4	0.0	273.355681180954	
56	249.79531383514404	fix_post	2		12	54.0	2.5	/experiments/knapen_AOT/AOT_stimuli/rescaled_final/1970_rv.mp4	0.0	273.4721670150757	0.10004615783691406
57	249.89535999298096	fix_pre	0		119	55.0	2.5	/experiments/knapen_AOT/AOT_stimuli/rescaled_final/1269_rv.mp4	0.0	273.5722131729126	0.9918148517608643
57	250.88717484474182	movie	1		245	55.0	2.5	/experiments/knapen_AOT/AOT_stimuli/rescaled_final/1269_rv.mp4	0.0	274.56402802467346	2.500336170196533
57	251.27917385101318	pulse	1	t		55.0	2.5	/experiments/knapen_AOT/AOT_stimuli/rescaled_final/1269_rv.mp4	0.0	274.9560270309448	
57	252.87950205802917	pulse	1	t		55.0	2.5	/experiments/knapen_AOT/AOT_stimuli/rescaled_final/1269_rv.mp4	0.0	276.5563552379608	
57	253.38751101493835	fix_post	2		12	55.0	2.5	/experiments/knapen_AOT/AOT_stimuli/rescaled_final/1269_rv.mp4	0.0	277.06436419487	0.10001993179321289
58	253.48753094673157	fix_pre	0		120	56.0	2.5	blank	1.0	277.1643841266632	1.0002110004425049
58	254.47945094108582	pulse	0	t		56.0	2.5	blank	1.0	278.15630412101746	
58	254.48774194717407	movie	1		301	56.0	2.5	blank	1.0	278.1645951271057	2.508657932281494
58	256.08000588417053	pulse	1	t		56.0	2.5	blank	1.0	279.7568590641022	
58	256.99639987945557	fix_post	2		12	56.0	2.5	blank	1.0	280.6732530593872	0.10000205039978027
59	257.09640192985535	fix_pre	0		120	57.0	2.5	/experiments/knapen_AOT/AOT_stimuli/rescaled_final/1749_rv.mp4	0.0	280.773255109787	1.0001640319824219
59	257.6801710128784	pulse	0	t		57.0	2.5	/experiments/knapen_AOT/AOT_stimuli/rescaled_final/1749_rv.mp4	0.0	281.35702419281006	
59	258.09656596183777	movie	1		244	57.0	2.5	/experiments/knapen_AOT/AOT_stimuli/rescaled_final/1749_rv.mp4	0.0	281.7734191417694	2.500403881072998
59	259.2803568840027	pulse	1	t		57.0	2.5	/experiments/knapen_AOT/AOT_stimuli/rescaled_final/1749_rv.mp4	0.0	282.9572100639343	
59	260.59696984291077	fix_post	2		12	57.0	2.5	/experiments/knapen_AOT/AOT_stimuli/rescaled_final/1749_rv.mp4	0.0	284.2738230228424	0.10000014305114746
60	260.6969699859619	fix_pre	0		120	58.0	2.5	/experiments/knapen_AOT/AOT_stimuli/rescaled_final/0887_rv.mp4	0.0	284.37382316589355	1.000114917755127
60	260.88046383857727	pulse	0	t		58.0	2.5	/experiments/knapen_AOT/AOT_stimuli/rescaled_final/0887_rv.mp4	0.0	284.5573170185089	
60	261.69708490371704	movie	1		246	58.0	2.5	/experiments/knapen_AOT/AOT_stimuli/rescaled_final/0887_rv.mp4	0.0	285.3739380836487	2.5003609657287598
60	262.4807438850403	pulse	1	t		58.0	2.5	/experiments/knapen_AOT/AOT_stimuli/rescaled_final/0887_rv.mp4	0.0	286.1575970649719	
60	264.08112597465515	pulse	1	t		58.0	2.5	/experiments/knapen_AOT/AOT_stimuli/rescaled_final/0887_rv.mp4	0.0	287.7579791545868	
60	264.1974458694458	fix_post	2		12	58.0	2.5	/experiments/knapen_AOT/AOT_stimuli/rescaled_final/0887_rv.mp4	0.0	287.87429904937744	0.10002899169921875
61	264.297474861145	fix_pre	0		119	59.0	2.5	/experiments/knapen_AOT/AOT_stimuli/rescaled_final/1464_fw.mp4	0.0	287.97432804107666	0.9918069839477539
61	265.2892818450928	movie	1		247	59.0	2.5	/experiments/knapen_AOT/AOT_stimuli/rescaled_final/1464_fw.mp4	0.0	288.9661350250244	2.500399112701416
61	265.68137884140015	pulse	1	t		59.0	2.5	/experiments/knapen_AOT/AOT_stimuli/rescaled_final/1464_fw.mp4	0.0	289.3582320213318	
61	267.2815089225769	pulse	1	t		59.0	2.5	/experiments/knapen_AOT/AOT_stimuli/rescaled_final/1464_fw.mp4	0.0	290.95836210250854	
61	267.7896809577942	fix_post	2		12	59.0	2.5	/experiments/knapen_AOT/AOT_stimuli/rescaled_final/1464_fw.mp4	0.0	291.46653413772583	0.09998798370361328
62	267.8896689414978	fix_pre	0		120	60.0	2.5	/experiments/knapen_AOT/AOT_stimuli/rescaled_final/1245_fw.mp4	0.0	291.56652212142944	1.0002169609069824
62	268.88161993026733	pulse	0	t		60.0	2.5	/experiments/knapen_AOT/AOT_stimuli/rescaled_final/1245_fw.mp4	0.0	292.558473110199	
62	268.8898859024048	movie	1		245	60.0	2.5	/experiments/knapen_AOT/AOT_stimuli/rescaled_final/1245_fw.mp4	0.0	292.5667390823364	2.508661985397339
62	270.4825668334961	pulse	1	t		60.0	2.5	/experiments/knapen_AOT/AOT_stimuli/rescaled_final/1245_fw.mp4	0.0	294.15942001342773	
62	271.3985478878021	fix_post	2		12	60.0	2.5	/experiments/knapen_AOT/AOT_stimuli/rescaled_final/1245_fw.mp4	0.0	295.07540106773376	0.09997797012329102
63	271.4985258579254	fix_pre	0		120	61.0	2.5	/experiments/knapen_AOT/AOT_stimuli/rescaled_final/0261_rv.mp4	0.0	295.17537903785706	1.000190019607544
63	272.08230686187744	pulse	0	t		61.0	2.5	/experiments/knapen_AOT/AOT_stimuli/rescaled_final/0261_rv.mp4	0.0	295.7591600418091	
63	272.49871587753296	movie	1		252	61.0	2.5	/experiments/knapen_AOT/AOT_stimuli/rescaled_final/0261_rv.mp4	0.0	296.1755690574646	2.500354051589966
63	273.6824789047241	pulse	1	t		61.0	2.5	/experiments/knapen_AOT/AOT_stimuli/rescaled_final/0261_rv.mp4	0.0	297.35933208465576	
63	274.9990699291229	fix_post	2		12	61.0	2.5	/experiments/knapen_AOT/AOT_stimuli/rescaled_final/0261_rv.mp4	0.0	298.67592310905457	0.10003209114074707
64	275.0991020202637	fix_pre	0		120	62.0	2.5	blank	1.0	298.7759552001953	1.0001378059387207
64	275.2826199531555	pulse	0	t		62.0	2.5	blank	1.0	298.95947313308716	
64	276.0992398262024	movie	1		300	62.0	2.5	blank	1.0	299.77609300613403	2.500364065170288
64	276.882887840271	pulse	1	t		62.0	2.5	blank	1.0	300.55974102020264	
64	278.48322200775146	pulse	1	t		62.0	2.5	blank	1.0	302.1600751876831	
64	278.5996038913727	fix_post	2		12	62.0	2.5	blank	1.0	302.2764570713043	0.10002899169921875
65	278.6996328830719	fix_pre	0		119	63.0	2.5	/experiments/knapen_AOT/AOT_stimuli/rescaled_final/1185_rv.mp4	0.0	302.37648606300354	0.991786003112793
65	279.6914188861847	movie	1		243	63.0	2.5	/experiments/knapen_AOT/AOT_stimuli/rescaled_final/1185_rv.mp4	0.0	303.36827206611633	2.5003840923309326
65	280.0834300518036	pulse	1	t		63.0	2.5	/experiments/knapen_AOT/AOT_stimuli/rescaled_final/1185_rv.mp4	0.0	303.76028323173523	
65	281.68361592292786	pulse	1	t		63.0	2.5	/experiments/knapen_AOT/AOT_stimuli/rescaled_final/1185_rv.mp4	0.0	305.3604691028595	
65	282.1918029785156	fix_post	2		12	63.0	2.5	/experiments/knapen_AOT/AOT_stimuli/rescaled_final/1185_rv.mp4	0.0	305.86865615844727	0.10001301765441895
66	282.29181599617004	fix_pre	0		120	64.0	2.5	/experiments/knapen_AOT/AOT_stimuli/rescaled_final/0868_rv.mp4	0.0	305.9686691761017	1.0002260208129883
66	283.2838509082794	pulse	0	t		64.0	2.5	/experiments/knapen_AOT/AOT_stimuli/rescaled_final/0868_rv.mp4	0.0	306.96070408821106	
66	283.29204201698303	movie	1		245	64.0	2.5	/experiments/knapen_AOT/AOT_stimuli/rescaled_final/0868_rv.mp4	0.0	306.9688951969147	2.5086238384246826
66	284.88465690612793	pulse	1	t		64.0	2.5	/experiments/knapen_AOT/AOT_stimuli/rescaled_final/0868_rv.mp4	0.0	308.56151008605957	
66	285.8006658554077	fix_post	2		12	64.0	2.5	/experiments/knapen_AOT/AOT_stimuli/rescaled_final/0868_rv.mp4	0.0	309.47751903533936	0.1000361442565918
67	285.9007019996643	fix_pre	0		120	65.0	2.5	/experiments/knapen_AOT/AOT_stimuli/rescaled_final/1700_fw.mp4	0.0	309.57755517959595	1.0001418590545654
67	286.4843590259552	pulse	0	t		65.0	2.5	/experiments/knapen_AOT/AOT_stimuli/rescaled_final/1700_fw.mp4	0.0	310.16121220588684	
67	286.9008438587189	movie	1		243	65.0	2.5	/experiments/knapen_AOT/AOT_stimuli/rescaled_final/1700_fw.mp4	0.0	310.5776970386505	2.500383138656616
67	288.0779240131378	pulse	1	t		65.0	2.5	/experiments/knapen_AOT/AOT_stimuli/rescaled_final/1700_fw.mp4	0.0	311.75477719306946	
67	289.4012269973755	fix_post	2		12	65.0	2.5	/experiments/knapen_AOT/AOT_stimuli/rescaled_final/1700_fw.mp4	0.0	313.07808017730713	0.09999895095825195
68	289.50122594833374	fix_pre	0		120	66.0	2.5	/experiments/knapen_AOT/AOT_stimuli/rescaled_final/1154_fw.mp4	0.0	313.1780791282654	1.000175952911377
68	289.6774308681488	pulse	0	t		66.0	2.5	/experiments/knapen_AOT/AOT_stimuli/rescaled_final/1154_fw.mp4	0.0	313.35428404808044	
68	290.5014019012451	movie	1		244	66.0	2.5	/experiments/knapen_AOT/AOT_stimuli/rescaled_final/1154_fw.mp4	0.0	314.17825508117676	2.5003409385681152
68	291.27765703201294	pulse	1	t		66.0	2.5	/experiments/knapen_AOT/AOT_stimuli/rescaled_final/1154_fw.mp4	0.0	314.9545102119446	
68	292.88924288749695	pulse	1	t		66.0	2.5	/experiments/knapen_AOT/AOT_stimuli/rescaled_final/1154_fw.mp4	0.0	316.5660960674286	
68	293.00174283981323	fix_post	2		12	66.0	2.5	/experiments/knapen_AOT/AOT_stimuli/rescaled_final/1154_fw.mp4	0.0	316.6785960197449	0.10005903244018555
69	293.1018018722534	fix_pre	0		120	67.0	2.5	/experiments/knapen_AOT/AOT_stimuli/rescaled_final/0154_fw.mp4	0.0	316.77865505218506	1.0001189708709717
69	294.1019208431244	movie	1		245	67.0	2.5	/experiments/knapen_AOT/AOT_stimuli/rescaled_final/0154_fw.mp4	0.0	317.77877402305603	2.4920201301574707
69	294.4859800338745	pulse	1	t		67.0	2.5	/experiments/knapen_AOT/AOT_stimuli/rescaled_final/0154_fw.mp4	0.0	318.16283321380615	
69	296.0775339603424	pulse	1	t		67.0	2.5	/experiments/knapen_AOT/AOT_stimuli/rescaled_final/0154_fw.mp4	0.0	319.75438714027405	
69	296.59394097328186	fix_post	2		12	67.0	2.5	/experiments/knapen_AOT/AOT_stimuli/rescaled_final/0154_fw.mp4	0.0	320.2707941532135	0.10002708435058594
70	296.69396805763245	fix_pre	0		119	68.0	2.5	blank	1.0	320.3708212375641	0.9918479919433594
70	297.6776168346405	pulse	0	t		68.0	2.5	blank	1.0	321.35447001457214	
70	297.6858160495758	movie	1		301	68.0	2.5	blank	1.0	321.36266922950745	2.5086848735809326
70	299.27799582481384	pulse	1	t		68.0	2.5	blank	1.0	322.9548490047455	
70	300.19450092315674	fix_post	2		12	68.0	2.5	blank	1.0	323.8713541030884	0.10003399848937988
71	300.2945349216461	fix_pre	0		120	69.0	2.5	/experiments/knapen_AOT/AOT_stimuli/rescaled_final/0202_fw.mp4	0.0	323.97138810157776	1.0001399517059326
71	300.8781359195709	pulse	0	t		69.0	2.5	/experiments/knapen_AOT/AOT_stimuli/rescaled_final/0202_fw.mp4	0.0	324.55498909950256	
71	301.29467487335205	movie	1		245	69.0	2.5	/experiments/knapen_AOT/AOT_stimuli/rescaled_final/0202_fw.mp4	0.0	324.9715280532837	2.5003771781921387
71	302.47853899002075	pulse	1	t		69.0	2.5	/experiments/knapen_AOT/AOT_stimuli/rescaled_final/0202_fw.mp4	0.0	326.1553921699524	
71	303.7950520515442	fix_post	2		12	69.0	2.5	/experiments/knapen_AOT/AOT_stimuli/rescaled_final/0202_fw.mp4	0.0	327.47190523147583	0.1000518798828125
72	303.895103931427	fix_pre	0		120	70.0	2.5	/experiments/knapen_AOT/AOT_stimuli/rescaled_final/1464_rv.mp4	0.0	327.57195711135864	1.0002009868621826
72	304.0785629749298	pulse	0	t		70.0	2.5	/experiments/knapen_AOT/AOT_stimuli/rescaled_final/1464_rv.mp4	0.0	327.75541615486145	
72	304.8953049182892	movie	1		246	70.0	2.5	/experiments/knapen_AOT/AOT_stimuli/rescaled_final/1464_rv.mp4	0.0	328.5721580982208	2.500272035598755
72	305.67884588241577	pulse	1	t		70.0	2.5	/experiments/knapen_AOT/AOT_stimuli/rescaled_final/1464_rv.mp4	0.0	329.3556990623474	
72	307.2791199684143	pulse	1	t		70.0	2.5	/experiments/knapen_AOT/AOT_stimuli/rescaled_final/1464_rv.mp4	0.0	330.95597314834595	
72	307.39557695388794	fix_post	2		12	70.0	2.5	/experiments/knapen_AOT/AOT_stimuli/rescaled_final/1464_rv.mp4	0.0	331.0724301338196	0.10001397132873535
73	307.4955909252167	fix_pre	0		120	71.0	2.5	/experiments/knapen_AOT/AOT_stimuli/rescaled_final/1725_rv.mp4	0.0	331.1724441051483	1.0001299381256104
73	308.4957208633423	movie	1		243	71.0	2.5	/experiments/knapen_AOT/AOT_stimuli/rescaled_final/1725_rv.mp4	0.0	332.1725740432739	2.4920401573181152
73	308.87994503974915	pulse	1	t		71.0	2.5	/experiments/knapen_AOT/AOT_stimuli/rescaled_final/1725_rv.mp4	0.0	332.5567982196808	
73	310.47955083847046	pulse	1	t		71.0	2.5	/experiments/knapen_AOT/AOT_stimuli/rescaled_final/1725_rv.mp4	0.0	334.1564040184021	
73	310.9877610206604	fix_post	2		12	71.0	2.5	/experiments/knapen_AOT/AOT_stimuli/rescaled_final/1725_rv.mp4	0.0	334.66461420059204	0.10001087188720703
74	311.0877718925476	fix_pre	0		120	72.0	2.5	/experiments/knapen_AOT/AOT_stimuli/rescaled_final/0905_rv.mp4	0.0	334.76462507247925	1.0002260208129883
74	312.07983899116516	pulse	0	t		72.0	2.5	/experiments/knapen_AOT/AOT_stimuli/rescaled_final/0905_rv.mp4	0.0	335.7566921710968	
74	312.0879979133606	movie	1		248	72.0	2.5	/experiments/knapen_AOT/AOT_stimuli/rescaled_final/0905_rv.mp4	0.0	335.76485109329224	2.508641004562378
74	313.68065786361694	pulse	1	t		72.0	2.5	/experiments/knapen_AOT/AOT_stimuli/rescaled_final/0905_rv.mp4	0.0	337.3575110435486	
74	314.596638917923	fix_post	2		12	72.0	2.5	/experiments/knapen_AOT/AOT_stimuli/rescaled_final/0905_rv.mp4	0.0	338.2734920978546	0.10001206398010254
75	314.6966509819031	fix_pre	0		120	73.0	2.5	/experiments/knapen_AOT/AOT_stimuli/rescaled_final/1383_rv.mp4	0.0	338.3735041618347	1.0001509189605713
75	315.2802720069885	pulse	0	t		73.0	2.5	/experiments/knapen_AOT/AOT_stimuli/rescaled_final/1383_rv.mp4	0.0	338.95712518692017	
75	315.69680190086365	movie	1		244	73.0	2.5	/experiments/knapen_AOT/AOT_stimuli/rescaled_final/1383_rv.mp4	0.0	339.3736550807953	2.500359058380127
75	316.8806109428406	pulse	1	t		73.0	2.5	/experiments/knapen_AOT/AOT_stimuli/rescaled_final/1383_rv.mp4	0.0	340.5574641227722	
75	318.1971609592438	fix_post	2		12	73.0	2.5	/experiments/knapen_AOT/AOT_stimuli/rescaled_final/1383_rv.mp4	0.0	341.8740141391754	0.10004591941833496
76	318.2972068786621	fix_pre	0		120	74.0	2.5	/experiments/knapen_AOT/AOT_stimuli/rescaled_final/1642_rv.mp4	0.0	341.97406005859375	1.0001921653747559
76	318.4809019565582	pulse	0	t		74.0	2.5	/experiments/knapen_AOT/AOT_stimuli/rescaled_final/1642_rv.mp4	0.0	342.15775513648987	
76	319.29739904403687	movie	1		245	74.0	2.5	/experiments/knapen_AOT/AOT_stimuli/rescaled_final/1642_rv.mp4	0.0	342.9742522239685	2.500333786010742
76	320.081120967865	pulse	1	t		74.0	2.5	/experiments/knapen_AOT/AOT_stimuli/rescaled_final/1642_rv.mp4	0.0	343.75797414779663	
76	321.6813290119171	pulse	1	t		74.0	2.5	/experiments/knapen_AOT/AOT_stimuli/rescaled_final/1642_rv.mp4	0.0	345.35818219184875	
76	321.7977328300476	fix_post	2		12	74.0	2.5	/experiments/knapen_AOT/AOT_stimuli/rescaled_final/1642_rv.mp4	0.0	345.47458600997925	0.10000920295715332
77	321.89774203300476	fix_pre	0		120	75.0	2.5	/experiments/knapen_AOT/AOT_stimuli/rescaled_final/1779_rv.mp4	0.0	345.5745952129364	1.0001318454742432
77	322.897873878479	movie	1		243	75.0	2.5	/experiments/knapen_AOT/AOT_stimuli/rescaled_final/1779_rv.mp4	0.0	346.57472705841064	2.492063045501709
77	323.282103061676	pulse	1	t		75.0	2.5	/experiments/knapen_AOT/AOT_stimuli/rescaled_final/1779_rv.mp4	0.0	346.95895624160767	
77	324.88173484802246	pulse	1	t		75.0	2.5	/experiments/knapen_AOT/AOT_stimuli/rescaled_final/1779_rv.mp4	0.0	348.5585880279541	
77	325.3899369239807	fix_post	2		12	75.0	2.5	/experiments/knapen_AOT/AOT_stimuli/rescaled_final/1779_rv.mp4	0.0	349.06679010391235	0.09998106956481934
78	325.48991799354553	fix_pre	0		120	76.0	2.5	/experiments/knapen_AOT/AOT_stimuli/rescaled_final/1702_fw.mp4	0.0	349.1667711734772	1.0001718997955322
78	326.48207688331604	pulse	0	t		76.0	2.5	/experiments/knapen_AOT/AOT_stimuli/rescaled_final/1702_fw.mp4	0.0	350.1589300632477	
78	326.49008989334106	movie	1		245	76.0	2.5	/experiments/knapen_AOT/AOT_stimuli/rescaled_final/1702_fw.mp4	0.0	350.1669430732727	2.508655071258545
78	328.0828800201416	pulse	1	t		76.0	2.5	/experiments/knapen_AOT/AOT_stimuli/rescaled_final/1702_fw.mp4	0.0	351.75973320007324	
78	328.9987449645996	fix_post	2		12	76.0	2.5	/experiments/knapen_AOT/AOT_stimuli/rescaled_final/1702_fw.mp4	0.0	352.67559814453125	0.10004997253417969
79	329.0987949371338	fix_pre	0		120	77.0	2.5	blank	1.0	352.77564811706543	1.0001521110534668
79	329.6824269294739	pulse	0	t		77.0	2.5	blank	1.0	353.3592801094055	
79	330.09894704818726	movie	1		300	77.0	2.5	blank	1.0	353.7758002281189	2.5004019737243652
79	331.2826979160309	pulse	1	t		77.0	2.5	blank	1.0	354.9595510959625	
79	332.5993490219116	fix_post	2		12	77.0	2.5	blank	1.0	356.27620220184326	0.09998202323913574
80	332.69933104515076	fix_pre	0		120	78.0	2.5	/experiments/knapen_AOT/AOT_stimuli/rescaled_final/0940_rv.mp4	0.0	356.3761842250824	1.0001869201660156
80	332.88300585746765	pulse	0	t		78.0	2.5	/experiments/knapen_AOT/AOT_stimuli/rescaled_final/0940_rv.mp4	0.0	356.5598590373993	
80	333.6995179653168	movie	1		241	78.0	2.5	/experiments/knapen_AOT/AOT_stimuli/rescaled_final/0940_rv.mp4	0.0	357.3763711452484	2.5003418922424316
80	334.4832649230957	pulse	1	t		78.0	2.5	/experiments/knapen_AOT/AOT_stimuli/rescaled_final/0940_rv.mp4	0.0	358.16011810302734	
80	336.083212852478	pulse	1	t		78.0	2.5	/experiments/knapen_AOT/AOT_stimuli/rescaled_final/0940_rv.mp4	0.0	359.76006603240967	
80	336.1998598575592	fix_post	2		12	78.0	2.5	/experiments/knapen_AOT/AOT_stimuli/rescaled_final/0940_rv.mp4	0.0	359.87671303749084	0.10001206398010254
81	336.2998719215393	fix_pre	0		120	79.0	2.5	/experiments/knapen_AOT/AOT_stimuli/rescaled_final/0792_rv.mp4	0.0	359.97672510147095	1.0001780986785889
81	337.3000500202179	movie	1		242	79.0	2.5	/experiments/knapen_AOT/AOT_stimuli/rescaled_final/0792_rv.mp4	0.0	360.97690320014954	2.492015838623047
81	337.68425989151	pulse	1	t		79.0	2.5	/experiments/knapen_AOT/AOT_stimuli/rescaled_final/0792_rv.mp4	0.0	361.36111307144165	
81	339.2839159965515	pulse	1	t		79.0	2.5	/experiments/knapen_AOT/AOT_stimuli/rescaled_final/0792_rv.mp4	0.0	362.96076917648315	
81	339.79206585884094	fix_post	2		12	79.0	2.5	/experiments/knapen_AOT/AOT_stimuli/rescaled_final/0792_rv.mp4	0.0	363.4689190387726	0.10004901885986328
82	339.8921148777008	fix_pre	0		120	80.0	2.5	/experiments/knapen_AOT/AOT_stimuli/rescaled_final/0872_rv.mp4	0.0	363.56896805763245	1.0001380443572998
82	340.8841829299927	pulse	0	t		80.0	2.5	/experiments/knapen_AOT/AOT_stimuli/rescaled_final/0872_rv.mp4	0.0	364.5610361099243	
82	340.8922529220581	movie	1		246	80.0	2.5	/experiments/knapen_AOT/AOT_stimuli/rescaled_final/0872_rv.mp4	0.0	364.56910610198975	2.5087051391601562
82	342.4851939678192	pulse	1	t		80.0	2.5	/experiments/knapen_AOT/AOT_stimuli/rescaled_final/0872_rv.mp4	0.0	366.16204714775085	
82	343.40095806121826	fix_post	2		12	80.0	2.5	/experiments/knapen_AOT/AOT_stimuli/rescaled_final/0872_rv.mp4	0.0	367.0778112411499	0.10000777244567871
83	343.50096583366394	fix_pre	0		120	81.0	2.5	/experiments/knapen_AOT/AOT_stimuli/rescaled_final/1842_fw.mp4	0.0	367.1778190135956	1.000136137008667
83	344.07716703414917	pulse	0	t		81.0	2.5	/experiments/knapen_AOT/AOT_stimuli/rescaled_final/1842_fw.mp4	0.0	367.7540202140808	
83	344.5011019706726	movie	1		243	81.0	2.5	/experiments/knapen_AOT/AOT_stimuli/rescaled_final/1842_fw.mp4	0.0	368.17795515060425	2.500375986099243
83	345.67713689804077	pulse	1	t		81.0	2.5	/experiments/knapen_AOT/AOT_stimuli/rescaled_final/1842_fw.mp4	0.0	369.3539900779724	
83	347.00147795677185	fix_post	2		12	81.0	2.5	/experiments/knapen_AOT/AOT_stimuli/rescaled_final/1842_fw.mp4	0.0	370.6783311367035	0.10000395774841309
84	347.10148191452026	fix_pre	0		120	82.0	2.5	/experiments/knapen_AOT/AOT_stimuli/rescaled_final/0839_rv.mp4	0.0	370.7783350944519	1.0001599788665771
84	347.2774200439453	pulse	0	t		82.0	2.5	/experiments/knapen_AOT/AOT_stimuli/rescaled_final/0839_rv.mp4	0.0	370.95427322387695	
84	348.10164189338684	movie	1		245	82.0	2.5	/experiments/knapen_AOT/AOT_stimuli/rescaled_final/0839_rv.mp4	0.0	371.7784950733185	2.5004451274871826
84	348.8769750595093	pulse	1	t		82.0	2.5	/experiments/knapen_AOT/AOT_stimuli/rescaled_final/0839_rv.mp4	0.0	372.5538282394409	
84	350.4771480560303	pulse	1	t		82.0	2.5	/experiments/knapen_AOT/AOT_stimuli/rescaled_final/0839_rv.mp4	0.0	374.1540012359619	
84	350.602087020874	fix_post	2		12	82.0	2.5	/experiments/knapen_AOT/AOT_stimuli/rescaled_final/0839_rv.mp4	0.0	374.27894020080566	0.0999298095703125
85	350.70201683044434	fix_pre	0		120	83.0	2.5	blank	1.0	374.378870010376	1.0001721382141113
85	351.70218896865845	movie	1		299	83.0	2.5	blank	1.0	375.3790421485901	2.492029905319214
85	352.0774300098419	pulse	1	t		83.0	2.5	blank	1.0	375.75428318977356	
85	353.6775920391083	pulse	1	t		83.0	2.5	blank	1.0	377.3544452190399	
85	354.19421887397766	fix_post	2		12	83.0	2.5	blank	1.0	377.8710720539093	0.1000511646270752
87	354.29427003860474	stim	0		1716					377.9711232185364	14.302121877670288
87	355.2779939174652	pulse	0	t						378.95484709739685	
87	356.8781518936157	pulse	0	t						380.55500507354736	
87	358.47835302352905	pulse	0	t						382.1552062034607	
87	360.078547000885	pulse	0	t						383.75540018081665	
87	361.6788339614868	pulse	0	t						385.35568714141846	
87	363.27916288375854	pulse	0	t						386.9560160636902	
87	364.87935400009155	pulse	0	t						388.5562071800232	
87	366.4794828891754	pulse	0	t						390.15633606910706	
87	368.07978892326355	pulse	0	t						391.7566421031952	
