trial_nr	onset	event_type	phase	response	nr_frames	movie_index	movie_duration	movie_file	blank	onset_abs	duration
0	0.13376188278198242	stim	0		35					22.306022882461548	0.2916600704193115
0	0.4174468517303467	response	0	space						22.589707851409912	
1	0.42542195320129395	stim	0		4856					22.59768295288086	40.46593904495239
1	40.8883159160614	pulse	0	t						63.06057691574097	
1	40.89136099815369	stim	1		1717					63.06362199783325	14.308736801147461
1	42.48334097862244	pulse	1	t						64.655601978302	
1	44.083404779434204	pulse	1	t						66.25566577911377	
1	45.68371391296387	pulse	1	t						67.85597491264343	
1	47.283649921417236	pulse	1	t						69.4559109210968	
1	48.88365197181702	pulse	1	t						71.05591297149658	
1	50.483500957489014	pulse	1	t						72.65576195716858	
1	52.08362698554993	pulse	1	t						74.25588798522949	
1	53.683581829071045	pulse	1	t						75.85584282875061	
2	55.20009779930115	fix_pre	0		11	0.0	2.5	/experiments/AOT/AOT_stimuli/rescaled_final/1009_fw.mp4	0.0	77.37235879898071	0.0916450023651123
2	55.2835648059845	pulse	0	t		0.0	2.5	/experiments/AOT/AOT_stimuli/rescaled_final/1009_fw.mp4	0.0	77.45582580566406	
2	55.29174280166626	movie	1		243	0.0	2.5	/experiments/AOT/AOT_stimuli/rescaled_final/1009_fw.mp4	0.0	77.46400380134583	2.5079281330108643
2	56.884705781936646	pulse	1	t		0.0	2.5	/experiments/AOT/AOT_stimuli/rescaled_final/1009_fw.mp4	0.0	79.05696678161621	
2	57.799670934677124	fix_post	2		12	0.0	2.5	/experiments/AOT/AOT_stimuli/rescaled_final/1009_fw.mp4	0.0	79.97193193435669	0.10040497779846191
3	57.900075912475586	fix_pre	0		120	1.0	2.5	/experiments/AOT/AOT_stimuli/rescaled_final/0860_fw.mp4	0.0	80.07233691215515	0.9999830722808838
3	58.48353099822998	pulse	0	t		1.0	2.5	/experiments/AOT/AOT_stimuli/rescaled_final/0860_fw.mp4	0.0	80.65579199790955	
3	58.90005898475647	movie	1		246	1.0	2.5	/experiments/AOT/AOT_stimuli/rescaled_final/0860_fw.mp4	0.0	81.07231998443604	2.499976873397827
3	60.08364391326904	pulse	1	t		1.0	2.5	/experiments/AOT/AOT_stimuli/rescaled_final/0860_fw.mp4	0.0	82.25590491294861	
3	61.4000358581543	fix_post	2		12	1.0	2.5	/experiments/AOT/AOT_stimuli/rescaled_final/0860_fw.mp4	0.0	83.57229685783386	0.10004615783691406
4	61.50008201599121	fix_pre	0		120	2.0	2.5	/experiments/AOT/AOT_stimuli/rescaled_final/0522_rv.mp4	0.0	83.67234301567078	0.9999938011169434
4	61.683626890182495	pulse	0	t		2.0	2.5	/experiments/AOT/AOT_stimuli/rescaled_final/0522_rv.mp4	0.0	83.85588788986206	
4	62.500075817108154	movie	1		244	2.0	2.5	/experiments/AOT/AOT_stimuli/rescaled_final/0522_rv.mp4	0.0	84.67233681678772	2.500138998031616
4	63.283644914627075	pulse	1	t		2.0	2.5	/experiments/AOT/AOT_stimuli/rescaled_final/0522_rv.mp4	0.0	85.45590591430664	
4	64.88203191757202	pulse	1	t		2.0	2.5	/experiments/AOT/AOT_stimuli/rescaled_final/0522_rv.mp4	0.0	87.05429291725159	
4	65.00021481513977	fix_post	2		12	2.0	2.5	/experiments/AOT/AOT_stimuli/rescaled_final/0522_rv.mp4	0.0	87.17247581481934	0.09986519813537598
5	65.10008001327515	fix_pre	0		120	3.0	2.5	/experiments/AOT/AOT_stimuli/rescaled_final/0352_fw.mp4	0.0	87.27234101295471	1.0000298023223877
5	66.10010981559753	movie	1		246	3.0	2.5	/experiments/AOT/AOT_stimuli/rescaled_final/0352_fw.mp4	0.0	88.2723708152771	2.500025987625122
5	66.48448300361633	pulse	1	t		3.0	2.5	/experiments/AOT/AOT_stimuli/rescaled_final/0352_fw.mp4	0.0	88.6567440032959	
5	68.08363199234009	pulse	1	t		3.0	2.5	/experiments/AOT/AOT_stimuli/rescaled_final/0352_fw.mp4	0.0	90.25589299201965	
5	68.60013580322266	fix_post	2		12	3.0	2.5	/experiments/AOT/AOT_stimuli/rescaled_final/0352_fw.mp4	0.0	90.77239680290222	0.09989809989929199
6	68.70003390312195	fix_pre	0		119	4.0	2.5	/experiments/AOT/AOT_stimuli/rescaled_final/1799_rv.mp4	0.0	90.87229490280151	0.991689920425415
6	69.68351197242737	pulse	0	t		4.0	2.5	/experiments/AOT/AOT_stimuli/rescaled_final/1799_rv.mp4	0.0	91.85577297210693	
6	69.69172382354736	movie	1		246	4.0	2.5	/experiments/AOT/AOT_stimuli/rescaled_final/1799_rv.mp4	0.0	91.86398482322693	2.5082550048828125
6	71.28340983390808	pulse	1	t		4.0	2.5	/experiments/AOT/AOT_stimuli/rescaled_final/1799_rv.mp4	0.0	93.45567083358765	
6	72.19997882843018	fix_post	2		12	4.0	2.5	/experiments/AOT/AOT_stimuli/rescaled_final/1799_rv.mp4	0.0	94.37223982810974	0.10001802444458008
7	72.29999685287476	fix_pre	0		120	5.0	2.5	/experiments/AOT/AOT_stimuli/rescaled_final/1714_fw.mp4	0.0	94.47225785255432	1.0000591278076172
7	72.8835289478302	pulse	0	t		5.0	2.5	/experiments/AOT/AOT_stimuli/rescaled_final/1714_fw.mp4	0.0	95.05578994750977	
7	73.30005598068237	movie	1		243	5.0	2.5	/experiments/AOT/AOT_stimuli/rescaled_final/1714_fw.mp4	0.0	95.47231698036194	2.5000548362731934
7	74.48364281654358	pulse	1	t		5.0	2.5	/experiments/AOT/AOT_stimuli/rescaled_final/1714_fw.mp4	0.0	96.65590381622314	
7	75.80011081695557	fix_post	2		12	5.0	2.5	/experiments/AOT/AOT_stimuli/rescaled_final/1714_fw.mp4	0.0	97.97237181663513	0.0999901294708252
8	75.90010094642639	fix_pre	0		120	6.0	2.5	/experiments/AOT/AOT_stimuli/rescaled_final/0699_rv.mp4	0.0	98.07236194610596	0.9999508857727051
8	76.08351588249207	pulse	0	t		6.0	2.5	/experiments/AOT/AOT_stimuli/rescaled_final/0699_rv.mp4	0.0	98.25577688217163	
8	76.9000518321991	movie	1		247	6.0	2.5	/experiments/AOT/AOT_stimuli/rescaled_final/0699_rv.mp4	0.0	99.07231283187866	2.4998631477355957
8	77.68352484703064	pulse	1	t		6.0	2.5	/experiments/AOT/AOT_stimuli/rescaled_final/0699_rv.mp4	0.0	99.8557858467102	
8	79.28350782394409	pulse	1	t		6.0	2.5	/experiments/AOT/AOT_stimuli/rescaled_final/0699_rv.mp4	0.0	101.45576882362366	
8	79.39991497993469	fix_post	2		12	6.0	2.5	/experiments/AOT/AOT_stimuli/rescaled_final/0699_rv.mp4	0.0	101.57217597961426	0.10009002685546875
9	79.50000500679016	fix_pre	0		120	7.0	2.5	blank	1.0	101.67226600646973	0.9995517730712891
9	80.49955677986145	movie	1		300	7.0	2.5	blank	1.0	102.67181777954102	2.5004770755767822
9	80.88350200653076	pulse	1	t		7.0	2.5	blank	1.0	103.05576300621033	
9	82.48351097106934	pulse	1	t		7.0	2.5	blank	1.0	104.6557719707489	
9	83.00003385543823	fix_post	2		12	7.0	2.5	blank	1.0	105.1722948551178	0.10000109672546387
10	83.1000349521637	fix_pre	0		119	8.0	2.5	/experiments/AOT/AOT_stimuli/rescaled_final/0835_fw.mp4	0.0	105.27229595184326	0.9916520118713379
10	84.08347487449646	pulse	0	t		8.0	2.5	/experiments/AOT/AOT_stimuli/rescaled_final/0835_fw.mp4	0.0	106.25573587417603	
10	84.09168696403503	movie	1		248	8.0	2.5	/experiments/AOT/AOT_stimuli/rescaled_final/0835_fw.mp4	0.0	106.2639479637146	2.508291006088257
10	85.68302583694458	pulse	1	t		8.0	2.5	/experiments/AOT/AOT_stimuli/rescaled_final/0835_fw.mp4	0.0	107.85528683662415	
10	86.59997797012329	fix_post	2		12	8.0	2.5	/experiments/AOT/AOT_stimuli/rescaled_final/0835_fw.mp4	0.0	108.77223896980286	0.1000068187713623
11	86.69998478889465	fix_pre	0		120	9.0	2.5	/experiments/AOT/AOT_stimuli/rescaled_final/1239_rv.mp4	0.0	108.87224578857422	0.9999802112579346
11	87.28341698646545	pulse	0	t		9.0	2.5	/experiments/AOT/AOT_stimuli/rescaled_final/1239_rv.mp4	0.0	109.45567798614502	
11	87.69996500015259	movie	1		245	9.0	2.5	/experiments/AOT/AOT_stimuli/rescaled_final/1239_rv.mp4	0.0	109.87222599983215	2.4999380111694336
11	88.88351082801819	pulse	1	t		9.0	2.5	/experiments/AOT/AOT_stimuli/rescaled_final/1239_rv.mp4	0.0	111.05577182769775	
11	90.19990301132202	fix_post	2		12	9.0	2.5	/experiments/AOT/AOT_stimuli/rescaled_final/1239_rv.mp4	0.0	112.37216401100159	0.1000518798828125
12	90.29995489120483	fix_pre	0		120	10.0	2.5	/experiments/AOT/AOT_stimuli/rescaled_final/1139_fw.mp4	0.0	112.4722158908844	0.9999198913574219
12	90.4834418296814	pulse	0	t		10.0	2.5	/experiments/AOT/AOT_stimuli/rescaled_final/1139_fw.mp4	0.0	112.65570282936096	
12	91.29987478256226	movie	1		245	10.0	2.5	/experiments/AOT/AOT_stimuli/rescaled_final/1139_fw.mp4	0.0	113.47213578224182	2.4996070861816406
12	92.08342385292053	pulse	1	t		10.0	2.5	/experiments/AOT/AOT_stimuli/rescaled_final/1139_fw.mp4	0.0	114.2556848526001	
12	93.6795117855072	pulse	1	t		10.0	2.5	/experiments/AOT/AOT_stimuli/rescaled_final/1139_fw.mp4	0.0	115.85177278518677	
12	93.7994818687439	fix_post	2		12	10.0	2.5	/experiments/AOT/AOT_stimuli/rescaled_final/1139_fw.mp4	0.0	115.97174286842346	0.09996509552001953
13	93.89944696426392	fix_pre	0		120	11.0	2.5	/experiments/AOT/AOT_stimuli/rescaled_final/0581_fw.mp4	0.0	116.07170796394348	1.0005760192871094
13	94.90002298355103	movie	1		245	11.0	2.5	/experiments/AOT/AOT_stimuli/rescaled_final/0581_fw.mp4	0.0	117.07228398323059	2.4998888969421387
13	95.28298282623291	pulse	1	t		11.0	2.5	/experiments/AOT/AOT_stimuli/rescaled_final/0581_fw.mp4	0.0	117.45524382591248	
13	96.88332295417786	pulse	1	t		11.0	2.5	/experiments/AOT/AOT_stimuli/rescaled_final/0581_fw.mp4	0.0	119.05558395385742	
13	97.39991188049316	fix_post	2		12	11.0	2.5	/experiments/AOT/AOT_stimuli/rescaled_final/0581_fw.mp4	0.0	119.57217288017273	0.1000359058380127
14	97.49994778633118	fix_pre	0		119	12.0	2.5	/experiments/AOT/AOT_stimuli/rescaled_final/1172_fw.mp4	0.0	119.67220878601074	0.9911890029907227
14	98.48302292823792	pulse	0	t		12.0	2.5	/experiments/AOT/AOT_stimuli/rescaled_final/1172_fw.mp4	0.0	120.65528392791748	
14	98.4911367893219	movie	1		246	12.0	2.5	/experiments/AOT/AOT_stimuli/rescaled_final/1172_fw.mp4	0.0	120.66339778900146	2.5090701580047607
14	100.08236193656921	pulse	1	t		12.0	2.5	/experiments/AOT/AOT_stimuli/rescaled_final/1172_fw.mp4	0.0	122.25462293624878	
14	101.00020694732666	fix_post	2		12	12.0	2.5	/experiments/AOT/AOT_stimuli/rescaled_final/1172_fw.mp4	0.0	123.17246794700623	0.09958195686340332
15	101.09978890419006	fix_pre	0		120	13.0	2.5	blank	1.0	123.27204990386963	1.0000948905944824
15	101.68347096443176	pulse	0	t		13.0	2.5	blank	1.0	123.85573196411133	
15	102.09988379478455	movie	1		300	13.0	2.5	blank	1.0	124.27214479446411	2.499927043914795
15	103.28342294692993	pulse	1	t		13.0	2.5	blank	1.0	125.4556839466095	
15	104.59981083869934	fix_post	2		12	13.0	2.5	blank	1.0	126.7720718383789	0.10006308555603027
16	104.69987392425537	fix_pre	0		120	14.0	2.5	/experiments/AOT/AOT_stimuli/rescaled_final/1183_rv.mp4	0.0	126.87213492393494	0.9999508857727051
16	104.88336396217346	pulse	0	t		14.0	2.5	/experiments/AOT/AOT_stimuli/rescaled_final/1183_rv.mp4	0.0	127.05562496185303	
16	105.69982481002808	movie	1		246	14.0	2.5	/experiments/AOT/AOT_stimuli/rescaled_final/1183_rv.mp4	0.0	127.87208580970764	2.500138998031616
16	106.48324298858643	pulse	1	t		14.0	2.5	/experiments/AOT/AOT_stimuli/rescaled_final/1183_rv.mp4	0.0	128.655503988266	
16	108.08200287818909	pulse	1	t		14.0	2.5	/experiments/AOT/AOT_stimuli/rescaled_final/1183_rv.mp4	0.0	130.25426387786865	
16	108.19996380805969	fix_post	2		12	14.0	2.5	/experiments/AOT/AOT_stimuli/rescaled_final/1183_rv.mp4	0.0	130.37222480773926	0.09984898567199707
17	108.29981279373169	fix_pre	0		120	15.0	2.5	/experiments/AOT/AOT_stimuli/rescaled_final/1583_fw.mp4	0.0	130.47207379341125	1.000007152557373
17	109.29981994628906	movie	1		247	15.0	2.5	/experiments/AOT/AOT_stimuli/rescaled_final/1583_fw.mp4	0.0	131.47208094596863	2.5000228881835938
17	109.68297290802002	pulse	1	t		15.0	2.5	/experiments/AOT/AOT_stimuli/rescaled_final/1583_fw.mp4	0.0	131.85523390769958	
17	111.2831859588623	pulse	1	t		15.0	2.5	/experiments/AOT/AOT_stimuli/rescaled_final/1583_fw.mp4	0.0	133.45544695854187	
17	111.79984283447266	fix_post	2		12	15.0	2.5	/experiments/AOT/AOT_stimuli/rescaled_final/1583_fw.mp4	0.0	133.97210383415222	0.09996509552001953
18	111.89980792999268	fix_pre	0		119	16.0	2.5	/experiments/AOT/AOT_stimuli/rescaled_final/2155_fw.mp4	0.0	134.07206892967224	0.9916110038757324
18	112.88327383995056	pulse	0	t		16.0	2.5	/experiments/AOT/AOT_stimuli/rescaled_final/2155_fw.mp4	0.0	135.05553483963013	
18	112.89141893386841	movie	1		247	16.0	2.5	/experiments/AOT/AOT_stimuli/rescaled_final/2155_fw.mp4	0.0	135.06367993354797	2.5080008506774902
18	114.48287796974182	pulse	1	t		16.0	2.5	/experiments/AOT/AOT_stimuli/rescaled_final/2155_fw.mp4	0.0	136.6551389694214	
18	115.3994197845459	fix_post	2		12	16.0	2.5	/experiments/AOT/AOT_stimuli/rescaled_final/2155_fw.mp4	0.0	137.57168078422546	0.1003870964050293
19	115.49980688095093	fix_pre	0		120	17.0	2.5	/experiments/AOT/AOT_stimuli/rescaled_final/0792_rv.mp4	0.0	137.6720678806305	0.9999520778656006
19	116.08328795433044	pulse	0	t		17.0	2.5	/experiments/AOT/AOT_stimuli/rescaled_final/0792_rv.mp4	0.0	138.25554895401	
19	116.49975895881653	movie	1		243	17.0	2.5	/experiments/AOT/AOT_stimuli/rescaled_final/0792_rv.mp4	0.0	138.6720199584961	2.5000009536743164
19	117.68342399597168	pulse	1	t		17.0	2.5	/experiments/AOT/AOT_stimuli/rescaled_final/0792_rv.mp4	0.0	139.85568499565125	
19	118.99975991249084	fix_post	2		12	17.0	2.5	/experiments/AOT/AOT_stimuli/rescaled_final/0792_rv.mp4	0.0	141.1720209121704	0.10004091262817383
20	119.09980082511902	fix_pre	0		120	18.0	2.5	/experiments/AOT/AOT_stimuli/rescaled_final/2140_fw.mp4	0.0	141.27206182479858	0.999932050704956
20	119.28326487541199	pulse	0	t		18.0	2.5	/experiments/AOT/AOT_stimuli/rescaled_final/2140_fw.mp4	0.0	141.45552587509155	
20	120.09973287582397	movie	1		244	18.0	2.5	/experiments/AOT/AOT_stimuli/rescaled_final/2140_fw.mp4	0.0	142.27199387550354	2.499650001525879
20	120.88325881958008	pulse	1	t		18.0	2.5	/experiments/AOT/AOT_stimuli/rescaled_final/2140_fw.mp4	0.0	143.05551981925964	
20	122.48173379898071	pulse	1	t		18.0	2.5	/experiments/AOT/AOT_stimuli/rescaled_final/2140_fw.mp4	0.0	144.65399479866028	
20	122.59938287734985	fix_post	2		12	18.0	2.5	/experiments/AOT/AOT_stimuli/rescaled_final/2140_fw.mp4	0.0	144.77164387702942	0.10038113594055176
21	122.6997640132904	fix_pre	0		120	19.0	2.5	/experiments/AOT/AOT_stimuli/rescaled_final/2162_rv.mp4	0.0	144.87202501296997	1.0000088214874268
21	123.69977283477783	movie	1		244	19.0	2.5	/experiments/AOT/AOT_stimuli/rescaled_final/2162_rv.mp4	0.0	145.8720338344574	2.4999940395355225
21	124.08300685882568	pulse	1	t		19.0	2.5	/experiments/AOT/AOT_stimuli/rescaled_final/2162_rv.mp4	0.0	146.25526785850525	
21	125.68336486816406	pulse	1	t		19.0	2.5	/experiments/AOT/AOT_stimuli/rescaled_final/2162_rv.mp4	0.0	147.85562586784363	
21	126.19976687431335	fix_post	2		12	19.0	2.5	/experiments/AOT/AOT_stimuli/rescaled_final/2162_rv.mp4	0.0	148.37202787399292	0.0999910831451416
22	126.2997579574585	fix_pre	0		119	20.0	2.5	blank	1.0	148.47201895713806	0.9916069507598877
22	127.28328394889832	pulse	0	t		20.0	2.5	blank	1.0	149.45554494857788	
22	127.29136490821838	movie	1		301	20.0	2.5	blank	1.0	149.46362590789795	2.5084331035614014
22	128.88331079483032	pulse	1	t		20.0	2.5	blank	1.0	151.0555717945099	
22	129.79979801177979	fix_post	2		12	20.0	2.5	blank	1.0	151.97205901145935	0.0999457836151123
23	129.8997437953949	fix_pre	0		120	21.0	2.5	/experiments/AOT/AOT_stimuli/rescaled_final/1650_rv.mp4	0.0	152.07200479507446	1.000087022781372
23	130.4832248687744	pulse	0	t		21.0	2.5	/experiments/AOT/AOT_stimuli/rescaled_final/1650_rv.mp4	0.0	152.65548586845398	
23	130.89983081817627	movie	1		245	21.0	2.5	/experiments/AOT/AOT_stimuli/rescaled_final/1650_rv.mp4	0.0	153.07209181785583	2.499441146850586
23	132.08326983451843	pulse	1	t		21.0	2.5	/experiments/AOT/AOT_stimuli/rescaled_final/1650_rv.mp4	0.0	154.255530834198	
23	133.39927196502686	fix_post	2		12	21.0	2.5	/experiments/AOT/AOT_stimuli/rescaled_final/1650_rv.mp4	0.0	155.57153296470642	0.10042405128479004
24	133.49969601631165	fix_pre	0		120	22.0	2.5	/experiments/AOT/AOT_stimuli/rescaled_final/0642_fw.mp4	0.0	155.6719570159912	1.000067949295044
24	133.68324494361877	pulse	0	t		22.0	2.5	/experiments/AOT/AOT_stimuli/rescaled_final/0642_fw.mp4	0.0	155.85550594329834	
24	134.4997639656067	movie	1		244	22.0	2.5	/experiments/AOT/AOT_stimuli/rescaled_final/0642_fw.mp4	0.0	156.67202496528625	2.5000178813934326
24	135.28321480751038	pulse	1	t		22.0	2.5	/experiments/AOT/AOT_stimuli/rescaled_final/0642_fw.mp4	0.0	157.45547580718994	
24	136.8819317817688	pulse	1	t		22.0	2.5	/experiments/AOT/AOT_stimuli/rescaled_final/0642_fw.mp4	0.0	159.05419278144836	
24	136.99978184700012	fix_post	2		12	22.0	2.5	/experiments/AOT/AOT_stimuli/rescaled_final/0642_fw.mp4	0.0	159.1720428466797	0.09989404678344727
25	137.09967589378357	fix_pre	0		120	23.0	2.5	/experiments/AOT/AOT_stimuli/rescaled_final/1354_rv.mp4	0.0	159.27193689346313	0.9999649524688721
25	138.09964084625244	movie	1		243	23.0	2.5	/experiments/AOT/AOT_stimuli/rescaled_final/1354_rv.mp4	0.0	160.271901845932	2.4996211528778076
25	138.48310780525208	pulse	1	t		23.0	2.5	/experiments/AOT/AOT_stimuli/rescaled_final/1354_rv.mp4	0.0	160.65536880493164	
25	140.0832269191742	pulse	1	t		23.0	2.5	/experiments/AOT/AOT_stimuli/rescaled_final/1354_rv.mp4	0.0	162.25548791885376	
25	140.59926199913025	fix_post	2		12	23.0	2.5	/experiments/AOT/AOT_stimuli/rescaled_final/1354_rv.mp4	0.0	162.77152299880981	0.10037589073181152
26	140.69963788986206	fix_pre	0		119	24.0	2.5	/experiments/AOT/AOT_stimuli/rescaled_final/1175_fw.mp4	0.0	162.87189888954163	0.9917600154876709
26	141.6832308769226	pulse	0	t		24.0	2.5	/experiments/AOT/AOT_stimuli/rescaled_final/1175_fw.mp4	0.0	163.85549187660217	
26	141.69139790534973	movie	1		245	24.0	2.5	/experiments/AOT/AOT_stimuli/rescaled_final/1175_fw.mp4	0.0	163.8636589050293	2.5078299045562744
26	143.28303980827332	pulse	1	t		24.0	2.5	/experiments/AOT/AOT_stimuli/rescaled_final/1175_fw.mp4	0.0	165.45530080795288	
26	144.199227809906	fix_post	2		12	24.0	2.5	/experiments/AOT/AOT_stimuli/rescaled_final/1175_fw.mp4	0.0	166.37148880958557	0.10044312477111816
27	144.29967093467712	fix_pre	0		120	25.0	2.5	/experiments/AOT/AOT_stimuli/rescaled_final/0733_fw.mp4	0.0	166.4719319343567	0.9996039867401123
27	144.88317680358887	pulse	0	t		25.0	2.5	/experiments/AOT/AOT_stimuli/rescaled_final/0733_fw.mp4	0.0	167.05543780326843	
27	145.29927492141724	movie	1		244	25.0	2.5	/experiments/AOT/AOT_stimuli/rescaled_final/0733_fw.mp4	0.0	167.4715359210968	2.5004069805145264
27	146.48316979408264	pulse	1	t		25.0	2.5	/experiments/AOT/AOT_stimuli/rescaled_final/0733_fw.mp4	0.0	168.6554307937622	
27	147.79968190193176	fix_post	2		12	25.0	2.5	/experiments/AOT/AOT_stimuli/rescaled_final/0733_fw.mp4	0.0	169.97194290161133	0.0999600887298584
28	147.89964199066162	fix_pre	0		120	26.0	2.5	/experiments/AOT/AOT_stimuli/rescaled_final/0702_fw.mp4	0.0	170.0719029903412	0.9999740123748779
28	148.08318781852722	pulse	0	t		26.0	2.5	/experiments/AOT/AOT_stimuli/rescaled_final/0702_fw.mp4	0.0	170.2554488182068	
28	148.8996160030365	movie	1		243	26.0	2.5	/experiments/AOT/AOT_stimuli/rescaled_final/0702_fw.mp4	0.0	171.07187700271606	2.499624013900757
28	149.68315291404724	pulse	1	t		26.0	2.5	/experiments/AOT/AOT_stimuli/rescaled_final/0702_fw.mp4	0.0	171.8554139137268	
28	151.28152084350586	pulse	1	t		26.0	2.5	/experiments/AOT/AOT_stimuli/rescaled_final/0702_fw.mp4	0.0	173.45378184318542	
28	151.39924001693726	fix_post	2		12	26.0	2.5	/experiments/AOT/AOT_stimuli/rescaled_final/0702_fw.mp4	0.0	173.57150101661682	0.10008382797241211
29	151.49932384490967	fix_pre	0		120	27.0	2.5	blank	1.0	173.67158484458923	1.000331163406372
29	152.49965500831604	movie	1		300	27.0	2.5	blank	1.0	174.6719160079956	2.4996418952941895
29	152.88312697410583	pulse	1	t		27.0	2.5	blank	1.0	175.0553879737854	
29	154.48269486427307	pulse	1	t		27.0	2.5	blank	1.0	176.65495586395264	
29	154.99929690361023	fix_post	2		12	27.0	2.5	blank	1.0	177.1715579032898	0.10011696815490723
30	155.09941387176514	fix_pre	0		119	28.0	2.5	/experiments/AOT/AOT_stimuli/rescaled_final/0749_fw.mp4	0.0	177.2716748714447	0.9916701316833496
30	156.08291292190552	pulse	0	t		28.0	2.5	/experiments/AOT/AOT_stimuli/rescaled_final/0749_fw.mp4	0.0	178.25517392158508	
30	156.0910840034485	movie	1		246	28.0	2.5	/experiments/AOT/AOT_stimuli/rescaled_final/0749_fw.mp4	0.0	178.26334500312805	2.5080299377441406
30	157.6827039718628	pulse	1	t		28.0	2.5	/experiments/AOT/AOT_stimuli/rescaled_final/0749_fw.mp4	0.0	179.85496497154236	
30	158.59911394119263	fix_post	2		12	28.0	2.5	/experiments/AOT/AOT_stimuli/rescaled_final/0749_fw.mp4	0.0	180.7713749408722	0.10051703453063965
31	158.69963097572327	fix_pre	0		120	29.0	2.5	/experiments/AOT/AOT_stimuli/rescaled_final/2148_fw.mp4	0.0	180.87189197540283	0.999521017074585
31	159.28306889533997	pulse	0	t		29.0	2.5	/experiments/AOT/AOT_stimuli/rescaled_final/2148_fw.mp4	0.0	181.45532989501953	
31	159.69915199279785	movie	1		244	29.0	2.5	/experiments/AOT/AOT_stimuli/rescaled_final/2148_fw.mp4	0.0	181.87141299247742	2.5003809928894043
31	160.88315081596375	pulse	1	t		29.0	2.5	/experiments/AOT/AOT_stimuli/rescaled_final/2148_fw.mp4	0.0	183.0554118156433	
31	162.19953298568726	fix_post	2		12	29.0	2.5	/experiments/AOT/AOT_stimuli/rescaled_final/2148_fw.mp4	0.0	184.37179398536682	0.09998202323913574
32	162.2995150089264	fix_pre	0		120	30.0	2.5	/experiments/AOT/AOT_stimuli/rescaled_final/0673_rv.mp4	0.0	184.47177600860596	1.000020980834961
32	162.48301482200623	pulse	0	t		30.0	2.5	/experiments/AOT/AOT_stimuli/rescaled_final/0673_rv.mp4	0.0	184.6552758216858	
32	163.29953598976135	movie	1		244	30.0	2.5	/experiments/AOT/AOT_stimuli/rescaled_final/0673_rv.mp4	0.0	185.47179698944092	2.4999799728393555
32	164.08301877975464	pulse	1	t		30.0	2.5	/experiments/AOT/AOT_stimuli/rescaled_final/0673_rv.mp4	0.0	186.2552797794342	
32	165.68161582946777	pulse	1	t		30.0	2.5	/experiments/AOT/AOT_stimuli/rescaled_final/0673_rv.mp4	0.0	187.85387682914734	
32	165.7995159626007	fix_post	2		12	30.0	2.5	/experiments/AOT/AOT_stimuli/rescaled_final/0673_rv.mp4	0.0	187.97177696228027	0.10005497932434082
33	165.89957094192505	fix_pre	0		120	31.0	2.5	/experiments/AOT/AOT_stimuli/rescaled_final/1997_rv.mp4	0.0	188.07183194160461	0.9999690055847168
33	166.89953994750977	movie	1		243	31.0	2.5	/experiments/AOT/AOT_stimuli/rescaled_final/1997_rv.mp4	0.0	189.07180094718933	2.49983286857605
33	167.28277492523193	pulse	1	t		31.0	2.5	/experiments/AOT/AOT_stimuli/rescaled_final/1997_rv.mp4	0.0	189.4550359249115	
33	168.8829848766327	pulse	1	t		31.0	2.5	/experiments/AOT/AOT_stimuli/rescaled_final/1997_rv.mp4	0.0	191.05524587631226	
33	169.39937281608582	fix_post	2		12	31.0	2.5	/experiments/AOT/AOT_stimuli/rescaled_final/1997_rv.mp4	0.0	191.57163381576538	0.10017013549804688
34	169.49954295158386	fix_pre	0		119	32.0	2.5	/experiments/AOT/AOT_stimuli/rescaled_final/1786_fw.mp4	0.0	191.67180395126343	0.9916958808898926
34	170.4830927848816	pulse	0	t		32.0	2.5	/experiments/AOT/AOT_stimuli/rescaled_final/1786_fw.mp4	0.0	192.65535378456116	
34	170.49123883247375	movie	1		246	32.0	2.5	/experiments/AOT/AOT_stimuli/rescaled_final/1786_fw.mp4	0.0	192.66349983215332	2.5078771114349365
34	172.08273887634277	pulse	1	t		32.0	2.5	/experiments/AOT/AOT_stimuli/rescaled_final/1786_fw.mp4	0.0	194.25499987602234	
34	172.9991159439087	fix_post	2		12	32.0	2.5	/experiments/AOT/AOT_stimuli/rescaled_final/1786_fw.mp4	0.0	195.17137694358826	0.10041499137878418
35	173.09953093528748	fix_pre	0		120	33.0	2.5	/experiments/AOT/AOT_stimuli/rescaled_final/0947_rv.mp4	0.0	195.27179193496704	0.9999830722808838
35	173.68304181098938	pulse	0	t		33.0	2.5	/experiments/AOT/AOT_stimuli/rescaled_final/0947_rv.mp4	0.0	195.85530281066895	
35	174.09951400756836	movie	1		243	33.0	2.5	/experiments/AOT/AOT_stimuli/rescaled_final/0947_rv.mp4	0.0	196.27177500724792	2.499997854232788
35	175.28302192687988	pulse	1	t		33.0	2.5	/experiments/AOT/AOT_stimuli/rescaled_final/0947_rv.mp4	0.0	197.45528292655945	
35	176.59951186180115	fix_post	2		12	33.0	2.5	/experiments/AOT/AOT_stimuli/rescaled_final/0947_rv.mp4	0.0	198.7717728614807	0.09991598129272461
36	176.69942784309387	fix_pre	0		120	34.0	2.5	/experiments/AOT/AOT_stimuli/rescaled_final/1827_fw.mp4	0.0	198.87168884277344	1.0000989437103271
36	176.88298392295837	pulse	0	t		34.0	2.5	/experiments/AOT/AOT_stimuli/rescaled_final/1827_fw.mp4	0.0	199.05524492263794	
36	177.6995267868042	movie	1		246	34.0	2.5	/experiments/AOT/AOT_stimuli/rescaled_final/1827_fw.mp4	0.0	199.87178778648376	2.499535083770752
36	178.48304200172424	pulse	1	t		34.0	2.5	/experiments/AOT/AOT_stimuli/rescaled_final/1827_fw.mp4	0.0	200.6553030014038	
36	180.07902193069458	pulse	1	t		34.0	2.5	/experiments/AOT/AOT_stimuli/rescaled_final/1827_fw.mp4	0.0	202.25128293037415	
36	180.19906187057495	fix_post	2		12	34.0	2.5	/experiments/AOT/AOT_stimuli/rescaled_final/1827_fw.mp4	0.0	202.37132287025452	0.10039710998535156
37	180.2994589805603	fix_pre	0		120	35.0	2.5	blank	1.0	202.47171998023987	0.9999539852142334
37	181.29941296577454	movie	1		300	35.0	2.5	blank	1.0	203.4716739654541	2.5001468658447266
37	181.6829869747162	pulse	1	t		35.0	2.5	blank	1.0	203.85524797439575	
37	183.28296279907227	pulse	1	t		35.0	2.5	blank	1.0	205.45522379875183	
37	183.79955983161926	fix_post	2		12	35.0	2.5	blank	1.0	205.97182083129883	0.09988212585449219
38	183.89944195747375	fix_pre	0		119	36.0	2.5	/experiments/AOT/AOT_stimuli/rescaled_final/1747_fw.mp4	0.0	206.07170295715332	0.9915859699249268
38	184.8829607963562	pulse	0	t		36.0	2.5	/experiments/AOT/AOT_stimuli/rescaled_final/1747_fw.mp4	0.0	207.05522179603577	
38	184.89102792739868	movie	1		247	36.0	2.5	/experiments/AOT/AOT_stimuli/rescaled_final/1747_fw.mp4	0.0	207.06328892707825	2.5085289478302
38	186.482736825943	pulse	1	t		36.0	2.5	/experiments/AOT/AOT_stimuli/rescaled_final/1747_fw.mp4	0.0	208.65499782562256	
38	187.39955687522888	fix_post	2		12	36.0	2.5	/experiments/AOT/AOT_stimuli/rescaled_final/1747_fw.mp4	0.0	209.57181787490845	0.09996891021728516
39	187.49952578544617	fix_pre	0		120	37.0	2.5	/experiments/AOT/AOT_stimuli/rescaled_final/0850_fw.mp4	0.0	209.67178678512573	0.9994730949401855
39	188.0829679965973	pulse	0	t		37.0	2.5	/experiments/AOT/AOT_stimuli/rescaled_final/0850_fw.mp4	0.0	210.25522899627686	
39	188.49899888038635	movie	1		245	37.0	2.5	/experiments/AOT/AOT_stimuli/rescaled_final/0850_fw.mp4	0.0	210.67125988006592	2.5000059604644775
39	189.68303179740906	pulse	1	t		37.0	2.5	/experiments/AOT/AOT_stimuli/rescaled_final/0850_fw.mp4	0.0	211.85529279708862	
39	190.99900484085083	fix_post	2		12	37.0	2.5	/experiments/AOT/AOT_stimuli/rescaled_final/0850_fw.mp4	0.0	213.1712658405304	0.10043215751647949
40	191.0994369983673	fix_pre	0		120	38.0	2.5	/experiments/AOT/AOT_stimuli/rescaled_final/0702_fw.mp4	0.0	213.27169799804688	0.9999868869781494
40	191.28285598754883	pulse	0	t		38.0	2.5	/experiments/AOT/AOT_stimuli/rescaled_final/0702_fw.mp4	0.0	213.4551169872284	
40	192.09942388534546	movie	1		242	38.0	2.5	/experiments/AOT/AOT_stimuli/rescaled_final/0702_fw.mp4	0.0	214.27168488502502	2.5000619888305664
40	192.88294196128845	pulse	1	t		38.0	2.5	/experiments/AOT/AOT_stimuli/rescaled_final/0702_fw.mp4	0.0	215.05520296096802	
40	194.48121690750122	pulse	1	t		38.0	2.5	/experiments/AOT/AOT_stimuli/rescaled_final/0702_fw.mp4	0.0	216.6534779071808	
40	194.59948587417603	fix_post	2		12	38.0	2.5	/experiments/AOT/AOT_stimuli/rescaled_final/0702_fw.mp4	0.0	216.7717468738556	0.0999600887298584
41	194.69944596290588	fix_pre	0		120	39.0	2.5	/experiments/AOT/AOT_stimuli/rescaled_final/1373_fw.mp4	0.0	216.87170696258545	0.9996459484100342
41	195.69909191131592	movie	1		243	39.0	2.5	/experiments/AOT/AOT_stimuli/rescaled_final/1373_fw.mp4	0.0	217.87135291099548	2.5003209114074707
41	196.08286786079407	pulse	1	t		39.0	2.5	/experiments/AOT/AOT_stimuli/rescaled_final/1373_fw.mp4	0.0	218.25512886047363	
41	197.68311500549316	pulse	1	t		39.0	2.5	/experiments/AOT/AOT_stimuli/rescaled_final/1373_fw.mp4	0.0	219.85537600517273	
41	198.1994128227234	fix_post	2		12	39.0	2.5	/experiments/AOT/AOT_stimuli/rescaled_final/1373_fw.mp4	0.0	220.37167382240295	0.10000205039978027
42	198.29941487312317	fix_pre	0		119	40.0	2.5	blank	1.0	220.47167587280273	0.9916410446166992
42	199.28288197517395	pulse	0	t		40.0	2.5	blank	1.0	221.45514297485352	
42	199.29105591773987	movie	1		301	40.0	2.5	blank	1.0	221.46331691741943	2.508354902267456
42	200.882905960083	pulse	1	t		40.0	2.5	blank	1.0	223.05516695976257	
42	201.79941082000732	fix_post	2		12	40.0	2.5	blank	1.0	223.9716718196869	0.09998416900634766
43	201.89939498901367	fix_pre	0		120	41.0	2.5	/experiments/AOT/AOT_stimuli/rescaled_final/0983_rv.mp4	0.0	224.07165598869324	0.9996538162231445
43	202.48292589187622	pulse	0	t		41.0	2.5	/experiments/AOT/AOT_stimuli/rescaled_final/0983_rv.mp4	0.0	224.6551868915558	
43	202.89904880523682	movie	1		245	41.0	2.5	/experiments/AOT/AOT_stimuli/rescaled_final/0983_rv.mp4	0.0	225.07130980491638	2.5003349781036377
43	204.08295679092407	pulse	1	t		41.0	2.5	/experiments/AOT/AOT_stimuli/rescaled_final/0983_rv.mp4	0.0	226.25521779060364	
43	205.39938378334045	fix_post	2		12	41.0	2.5	/experiments/AOT/AOT_stimuli/rescaled_final/0983_rv.mp4	0.0	227.57164478302002	0.09996414184570312
44	205.49934792518616	fix_pre	0		120	42.0	2.5	/experiments/AOT/AOT_stimuli/rescaled_final/1199_rv.mp4	0.0	227.67160892486572	1.000025987625122
44	205.6828258037567	pulse	0	t		42.0	2.5	/experiments/AOT/AOT_stimuli/rescaled_final/1199_rv.mp4	0.0	227.85508680343628	
44	206.49937391281128	movie	1		246	42.0	2.5	/experiments/AOT/AOT_stimuli/rescaled_final/1199_rv.mp4	0.0	228.67163491249084	2.4996070861816406
44	207.28292393684387	pulse	1	t		42.0	2.5	/experiments/AOT/AOT_stimuli/rescaled_final/1199_rv.mp4	0.0	229.45518493652344	
44	208.88154697418213	pulse	1	t		42.0	2.5	/experiments/AOT/AOT_stimuli/rescaled_final/1199_rv.mp4	0.0	231.0538079738617	
44	208.99898099899292	fix_post	2		12	42.0	2.5	/experiments/AOT/AOT_stimuli/rescaled_final/1199_rv.mp4	0.0	231.17124199867249	0.10039496421813965
45	209.09937596321106	fix_pre	0		120	43.0	2.5	/experiments/AOT/AOT_stimuli/rescaled_final/0388_fw.mp4	0.0	231.27163696289062	0.9999690055847168
45	210.09934496879578	movie	1		246	43.0	2.5	/experiments/AOT/AOT_stimuli/rescaled_final/0388_fw.mp4	0.0	232.27160596847534	2.5001089572906494
45	210.48333883285522	pulse	1	t		43.0	2.5	/experiments/AOT/AOT_stimuli/rescaled_final/0388_fw.mp4	0.0	232.6555998325348	
45	212.08264899253845	pulse	1	t		43.0	2.5	/experiments/AOT/AOT_stimuli/rescaled_final/0388_fw.mp4	0.0	234.25490999221802	
45	212.59945392608643	fix_post	2		12	43.0	2.5	/experiments/AOT/AOT_stimuli/rescaled_final/0388_fw.mp4	0.0	234.771714925766	0.09981799125671387
46	212.69927191734314	fix_pre	0		119	44.0	2.5	/experiments/AOT/AOT_stimuli/rescaled_final/1223_rv.mp4	0.0	234.8715329170227	0.9917171001434326
46	213.68286299705505	pulse	0	t		44.0	2.5	/experiments/AOT/AOT_stimuli/rescaled_final/1223_rv.mp4	0.0	235.85512399673462	
46	213.69098901748657	movie	1		245	44.0	2.5	/experiments/AOT/AOT_stimuli/rescaled_final/1223_rv.mp4	0.0	235.86325001716614	2.5078988075256348
46	215.28243589401245	pulse	1	t		44.0	2.5	/experiments/AOT/AOT_stimuli/rescaled_final/1223_rv.mp4	0.0	237.45469689369202	
46	216.1988878250122	fix_post	2		12	44.0	2.5	/experiments/AOT/AOT_stimuli/rescaled_final/1223_rv.mp4	0.0	238.37114882469177	0.10050296783447266
47	216.29939079284668	fix_pre	0		120	45.0	2.5	/experiments/AOT/AOT_stimuli/rescaled_final/1150_rv.mp4	0.0	238.47165179252625	0.9999921321868896
47	216.88291478157043	pulse	0	t		45.0	2.5	/experiments/AOT/AOT_stimuli/rescaled_final/1150_rv.mp4	0.0	239.05517578125	
47	217.29938292503357	movie	1		244	45.0	2.5	/experiments/AOT/AOT_stimuli/rescaled_final/1150_rv.mp4	0.0	239.47164392471313	2.499882936477661
47	218.48285794258118	pulse	1	t		45.0	2.5	/experiments/AOT/AOT_stimuli/rescaled_final/1150_rv.mp4	0.0	240.65511894226074	
47	219.79926586151123	fix_post	2		12	45.0	2.5	/experiments/AOT/AOT_stimuli/rescaled_final/1150_rv.mp4	0.0	241.9715268611908	0.10001397132873535
48	219.89927983283997	fix_pre	0		120	46.0	2.5	/experiments/AOT/AOT_stimuli/rescaled_final/1982_fw.mp4	0.0	242.07154083251953	1.0000391006469727
48	220.08277297019958	pulse	0	t		46.0	2.5	/experiments/AOT/AOT_stimuli/rescaled_final/1982_fw.mp4	0.0	242.25503396987915	
48	220.89931893348694	movie	1		246	46.0	2.5	/experiments/AOT/AOT_stimuli/rescaled_final/1982_fw.mp4	0.0	243.0715799331665	2.4995288848876953
48	221.68279194831848	pulse	1	t		46.0	2.5	/experiments/AOT/AOT_stimuli/rescaled_final/1982_fw.mp4	0.0	243.85505294799805	
48	223.28169083595276	pulse	1	t		46.0	2.5	/experiments/AOT/AOT_stimuli/rescaled_final/1982_fw.mp4	0.0	245.45395183563232	
48	223.39884781837463	fix_post	2		12	46.0	2.5	/experiments/AOT/AOT_stimuli/rescaled_final/1982_fw.mp4	0.0	245.5711088180542	0.10037398338317871
49	223.4992218017578	fix_pre	0		120	47.0	2.5	/experiments/AOT/AOT_stimuli/rescaled_final/2051_rv.mp4	0.0	245.67148280143738	1.000063180923462
49	224.49928498268127	movie	1		246	47.0	2.5	/experiments/AOT/AOT_stimuli/rescaled_final/2051_rv.mp4	0.0	246.67154598236084	2.5000009536743164
49	224.88263082504272	pulse	1	t		47.0	2.5	/experiments/AOT/AOT_stimuli/rescaled_final/2051_rv.mp4	0.0	247.0548918247223	
49	226.4828178882599	pulse	1	t		47.0	2.5	/experiments/AOT/AOT_stimuli/rescaled_final/2051_rv.mp4	0.0	248.65507888793945	
49	226.9992859363556	fix_post	2		12	47.0	2.5	/experiments/AOT/AOT_stimuli/rescaled_final/2051_rv.mp4	0.0	249.17154693603516	0.09998703002929688
50	227.0992729663849	fix_pre	0		119	48.0	2.5	/experiments/AOT/AOT_stimuli/rescaled_final/1748_rv.mp4	0.0	249.27153396606445	0.9916849136352539
50	228.08281588554382	pulse	0	t		48.0	2.5	/experiments/AOT/AOT_stimuli/rescaled_final/1748_rv.mp4	0.0	250.2550768852234	
50	228.09095788002014	movie	1		244	48.0	2.5	/experiments/AOT/AOT_stimuli/rescaled_final/1748_rv.mp4	0.0	250.2632188796997	2.5082719326019287
50	229.6822259426117	pulse	1	t		48.0	2.5	/experiments/AOT/AOT_stimuli/rescaled_final/1748_rv.mp4	0.0	251.85448694229126	
50	230.59922981262207	fix_post	2		12	48.0	2.5	/experiments/AOT/AOT_stimuli/rescaled_final/1748_rv.mp4	0.0	252.77149081230164	0.10008811950683594
51	230.6993179321289	fix_pre	0		120	49.0	2.5	blank	1.0	252.87157893180847	0.9994828701019287
51	231.28278279304504	pulse	0	t		49.0	2.5	blank	1.0	253.4550437927246	
51	231.69880080223083	movie	1		300	49.0	2.5	blank	1.0	253.8710618019104	2.500413179397583
51	232.88272285461426	pulse	1	t		49.0	2.5	blank	1.0	255.05498385429382	
51	234.19921398162842	fix_post	2		12	49.0	2.5	blank	1.0	256.371474981308	0.0999598503112793
52	234.2991738319397	fix_pre	0		120	50.0	2.5	/experiments/AOT/AOT_stimuli/rescaled_final/0561_rv.mp4	0.0	256.47143483161926	1.000020980834961
52	234.48267793655396	pulse	0	t		50.0	2.5	/experiments/AOT/AOT_stimuli/rescaled_final/0561_rv.mp4	0.0	256.6549389362335	
52	235.29919481277466	movie	1		244	50.0	2.5	/experiments/AOT/AOT_stimuli/rescaled_final/0561_rv.mp4	0.0	257.4714558124542	2.5000340938568115
52	236.08276295661926	pulse	1	t		50.0	2.5	/experiments/AOT/AOT_stimuli/rescaled_final/0561_rv.mp4	0.0	258.2550239562988	
52	237.6813108921051	pulse	1	t		50.0	2.5	/experiments/AOT/AOT_stimuli/rescaled_final/0561_rv.mp4	0.0	259.85357189178467	
52	237.79922890663147	fix_post	2		12	50.0	2.5	/experiments/AOT/AOT_stimuli/rescaled_final/0561_rv.mp4	0.0	259.97148990631104	0.09996509552001953
53	237.8991940021515	fix_pre	0		120	51.0	2.5	/experiments/AOT/AOT_stimuli/rescaled_final/0621_fw.mp4	0.0	260.07145500183105	1.0000529289245605
53	238.89924693107605	movie	1		244	51.0	2.5	/experiments/AOT/AOT_stimuli/rescaled_final/0621_fw.mp4	0.0	261.0715079307556	2.4999749660491943
53	239.28385090827942	pulse	1	t		51.0	2.5	/experiments/AOT/AOT_stimuli/rescaled_final/0621_fw.mp4	0.0	261.456111907959	
53	240.88269591331482	pulse	1	t		51.0	2.5	/experiments/AOT/AOT_stimuli/rescaled_final/0621_fw.mp4	0.0	263.0549569129944	
53	241.39922189712524	fix_post	2		12	51.0	2.5	/experiments/AOT/AOT_stimuli/rescaled_final/0621_fw.mp4	0.0	263.5714828968048	0.09956789016723633
54	241.49878978729248	fix_pre	0		119	52.0	2.5	/experiments/AOT/AOT_stimuli/rescaled_final/1583_fw.mp4	0.0	263.67105078697205	0.9920651912689209
54	242.48270678520203	pulse	0	t		52.0	2.5	/experiments/AOT/AOT_stimuli/rescaled_final/1583_fw.mp4	0.0	264.6549677848816	
54	242.4908549785614	movie	1		247	52.0	2.5	/experiments/AOT/AOT_stimuli/rescaled_final/1583_fw.mp4	0.0	264.66311597824097	2.5083298683166504
54	244.082603931427	pulse	1	t		52.0	2.5	/experiments/AOT/AOT_stimuli/rescaled_final/1583_fw.mp4	0.0	266.25486493110657	
54	244.99918484687805	fix_post	2		12	52.0	2.5	/experiments/AOT/AOT_stimuli/rescaled_final/1583_fw.mp4	0.0	267.1714458465576	0.10001707077026367
55	245.09920191764832	fix_pre	0		120	53.0	2.5	/experiments/AOT/AOT_stimuli/rescaled_final/0850_rv.mp4	0.0	267.2714629173279	0.9999709129333496
55	245.68261694908142	pulse	0	t		53.0	2.5	/experiments/AOT/AOT_stimuli/rescaled_final/0850_rv.mp4	0.0	267.854877948761	
55	246.09917283058167	movie	1		248	53.0	2.5	/experiments/AOT/AOT_stimuli/rescaled_final/0850_rv.mp4	0.0	268.27143383026123	2.4999890327453613
55	247.2827649116516	pulse	1	t		53.0	2.5	/experiments/AOT/AOT_stimuli/rescaled_final/0850_rv.mp4	0.0	269.4550259113312	
55	248.59916186332703	fix_post	2		12	53.0	2.5	/experiments/AOT/AOT_stimuli/rescaled_final/0850_rv.mp4	0.0	270.7714228630066	0.10005307197570801
56	248.69921493530273	fix_pre	0		120	54.0	2.5	/experiments/AOT/AOT_stimuli/rescaled_final/2074_fw.mp4	0.0	270.8714759349823	0.9999709129333496
56	248.88271188735962	pulse	0	t		54.0	2.5	/experiments/AOT/AOT_stimuli/rescaled_final/2074_fw.mp4	0.0	271.0549728870392	
56	249.69918584823608	movie	1		245	54.0	2.5	/experiments/AOT/AOT_stimuli/rescaled_final/2074_fw.mp4	0.0	271.87144684791565	2.5000131130218506
56	250.48265600204468	pulse	1	t		54.0	2.5	/experiments/AOT/AOT_stimuli/rescaled_final/2074_fw.mp4	0.0	272.65491700172424	
56	252.08136200904846	pulse	1	t		54.0	2.5	/experiments/AOT/AOT_stimuli/rescaled_final/2074_fw.mp4	0.0	274.253623008728	
56	252.19919896125793	fix_post	2		12	54.0	2.5	/experiments/AOT/AOT_stimuli/rescaled_final/2074_fw.mp4	0.0	274.3714599609375	0.0999460220336914
57	252.29914498329163	fix_pre	0		120	55.0	2.5	/experiments/AOT/AOT_stimuli/rescaled_final/0756_rv.mp4	0.0	274.4714059829712	0.9999678134918213
57	253.29911279678345	movie	1		245	55.0	2.5	/experiments/AOT/AOT_stimuli/rescaled_final/0756_rv.mp4	0.0	275.471373796463	2.5000271797180176
57	253.6826949119568	pulse	1	t		55.0	2.5	/experiments/AOT/AOT_stimuli/rescaled_final/0756_rv.mp4	0.0	275.85495591163635	
57	255.2826669216156	pulse	1	t		55.0	2.5	/experiments/AOT/AOT_stimuli/rescaled_final/0756_rv.mp4	0.0	277.45492792129517	
57	255.79913997650146	fix_post	2		12	55.0	2.5	/experiments/AOT/AOT_stimuli/rescaled_final/0756_rv.mp4	0.0	277.97140097618103	0.09998202323913574
58	255.8991219997406	fix_pre	0		119	56.0	2.5	blank	1.0	278.07138299942017	0.9916520118713379
58	256.8825988769531	pulse	0	t		56.0	2.5	blank	1.0	279.0548598766327	
58	256.89077401161194	movie	1		301	56.0	2.5	blank	1.0	279.0630350112915	2.5084378719329834
58	258.4826228618622	pulse	1	t		56.0	2.5	blank	1.0	280.65488386154175	
58	259.3992118835449	fix_post	2		12	56.0	2.5	blank	1.0	281.5714728832245	0.09997010231018066
59	259.4991819858551	fix_pre	0		120	57.0	2.5	/experiments/AOT/AOT_stimuli/rescaled_final/0648_fw.mp4	0.0	281.67144298553467	0.9999558925628662
59	260.08265495300293	pulse	0	t		57.0	2.5	/experiments/AOT/AOT_stimuli/rescaled_final/0648_fw.mp4	0.0	282.2549159526825	
59	260.49913787841797	movie	1		244	57.0	2.5	/experiments/AOT/AOT_stimuli/rescaled_final/0648_fw.mp4	0.0	282.67139887809753	2.4999051094055176
59	261.6825749874115	pulse	1	t		57.0	2.5	/experiments/AOT/AOT_stimuli/rescaled_final/0648_fw.mp4	0.0	283.85483598709106	
59	262.9990429878235	fix_post	2		12	57.0	2.5	/experiments/AOT/AOT_stimuli/rescaled_final/0648_fw.mp4	0.0	285.17130398750305	0.10006380081176758
60	263.09910678863525	fix_pre	0		120	58.0	2.5	/experiments/AOT/AOT_stimuli/rescaled_final/1982_fw.mp4	0.0	285.2713677883148	0.9999661445617676
60	263.28255701065063	pulse	0	t		58.0	2.5	/experiments/AOT/AOT_stimuli/rescaled_final/1982_fw.mp4	0.0	285.4548180103302	
60	264.099072933197	movie	1		245	58.0	2.5	/experiments/AOT/AOT_stimuli/rescaled_final/1982_fw.mp4	0.0	286.2713339328766	2.4996869564056396
60	264.88263988494873	pulse	1	t		58.0	2.5	/experiments/AOT/AOT_stimuli/rescaled_final/1982_fw.mp4	0.0	287.0549008846283	
60	266.4805908203125	pulse	1	t		58.0	2.5	/experiments/AOT/AOT_stimuli/rescaled_final/1982_fw.mp4	0.0	288.65285181999207	
60	266.59875988960266	fix_post	2		12	58.0	2.5	/experiments/AOT/AOT_stimuli/rescaled_final/1982_fw.mp4	0.0	288.7710208892822	0.10040903091430664
61	266.69916892051697	fix_pre	0		120	59.0	2.5	/experiments/AOT/AOT_stimuli/rescaled_final/0746_rv.mp4	0.0	288.87142992019653	1.0001718997955322
61	267.6993408203125	movie	1		247	59.0	2.5	/experiments/AOT/AOT_stimuli/rescaled_final/0746_rv.mp4	0.0	289.87160181999207	2.499829053878784
61	268.0824029445648	pulse	1	t		59.0	2.5	/experiments/AOT/AOT_stimuli/rescaled_final/0746_rv.mp4	0.0	290.2546639442444	
61	269.68256187438965	pulse	1	t		59.0	2.5	/experiments/AOT/AOT_stimuli/rescaled_final/0746_rv.mp4	0.0	291.8548228740692	
61	270.1991698741913	fix_post	2		12	59.0	2.5	/experiments/AOT/AOT_stimuli/rescaled_final/0746_rv.mp4	0.0	292.37143087387085	0.09999608993530273
62	270.2991659641266	fix_pre	0		119	60.0	2.5	/experiments/AOT/AOT_stimuli/rescaled_final/0302_rv.mp4	0.0	292.47142696380615	0.9915950298309326
62	271.28259897232056	pulse	0	t		60.0	2.5	/experiments/AOT/AOT_stimuli/rescaled_final/0302_rv.mp4	0.0	293.4548599720001	
62	271.2907609939575	movie	1		247	60.0	2.5	/experiments/AOT/AOT_stimuli/rescaled_final/0302_rv.mp4	0.0	293.4630219936371	2.5083069801330566
62	272.88362979888916	pulse	1	t		60.0	2.5	/experiments/AOT/AOT_stimuli/rescaled_final/0302_rv.mp4	0.0	295.0558907985687	
62	273.7990679740906	fix_post	2		12	60.0	2.5	/experiments/AOT/AOT_stimuli/rescaled_final/0302_rv.mp4	0.0	295.97132897377014	0.09999799728393555
63	273.8990659713745	fix_pre	0		120	61.0	2.5	/experiments/AOT/AOT_stimuli/rescaled_final/1788_rv.mp4	0.0	296.0713269710541	0.9999668598175049
63	274.48263001441956	pulse	0	t		61.0	2.5	/experiments/AOT/AOT_stimuli/rescaled_final/1788_rv.mp4	0.0	296.6548910140991	
63	274.899032831192	movie	1		245	61.0	2.5	/experiments/AOT/AOT_stimuli/rescaled_final/1788_rv.mp4	0.0	297.0712938308716	2.5000181198120117
63	276.0825879573822	pulse	1	t		61.0	2.5	/experiments/AOT/AOT_stimuli/rescaled_final/1788_rv.mp4	0.0	298.25484895706177	
63	277.399050951004	fix_post	2		12	61.0	2.5	/experiments/AOT/AOT_stimuli/rescaled_final/1788_rv.mp4	0.0	299.5713119506836	0.09999990463256836
64	277.4990508556366	fix_pre	0		120	62.0	2.5	blank	1.0	299.67131185531616	0.9999489784240723
64	277.68250489234924	pulse	0	t		62.0	2.5	blank	1.0	299.8547658920288	
64	278.49899983406067	movie	1		300	62.0	2.5	blank	1.0	300.67126083374023	2.500075101852417
64	279.2826249599457	pulse	1	t		62.0	2.5	blank	1.0	301.45488595962524	
64	280.8824768066406	pulse	1	t		62.0	2.5	blank	1.0	303.0547378063202	
64	280.9990749359131	fix_post	2		12	62.0	2.5	blank	1.0	303.17133593559265	0.09954404830932617
65	281.0986189842224	fix_pre	0		120	63.0	2.5	/experiments/AOT/AOT_stimuli/rescaled_final/1885_rv.mp4	0.0	303.270879983902	1.000497817993164
65	282.0991168022156	movie	1		244	63.0	2.5	/experiments/AOT/AOT_stimuli/rescaled_final/1885_rv.mp4	0.0	304.27137780189514	2.4998559951782227
65	282.48215794563293	pulse	1	t		63.0	2.5	/experiments/AOT/AOT_stimuli/rescaled_final/1885_rv.mp4	0.0	304.6544189453125	
65	284.0824627876282	pulse	1	t		63.0	2.5	/experiments/AOT/AOT_stimuli/rescaled_final/1885_rv.mp4	0.0	306.25472378730774	
65	284.5989727973938	fix_post	2		12	63.0	2.5	/experiments/AOT/AOT_stimuli/rescaled_final/1885_rv.mp4	0.0	306.77123379707336	0.10002899169921875
66	284.699001789093	fix_pre	0		119	64.0	2.5	/experiments/AOT/AOT_stimuli/rescaled_final/0283_rv.mp4	0.0	306.8712627887726	0.9916810989379883
66	285.682461977005	pulse	0	t		64.0	2.5	/experiments/AOT/AOT_stimuli/rescaled_final/0283_rv.mp4	0.0	307.85472297668457	
66	285.690682888031	movie	1		246	64.0	2.5	/experiments/AOT/AOT_stimuli/rescaled_final/0283_rv.mp4	0.0	307.86294388771057	2.508409023284912
66	287.28365087509155	pulse	1	t		64.0	2.5	/experiments/AOT/AOT_stimuli/rescaled_final/0283_rv.mp4	0.0	309.4559118747711	
66	288.1990919113159	fix_post	2		12	64.0	2.5	/experiments/AOT/AOT_stimuli/rescaled_final/0283_rv.mp4	0.0	310.3713529109955	0.09987807273864746
67	288.29896998405457	fix_pre	0		120	65.0	2.5	/experiments/AOT/AOT_stimuli/rescaled_final/1791_rv.mp4	0.0	310.47123098373413	0.9995088577270508
67	288.88246393203735	pulse	0	t		65.0	2.5	/experiments/AOT/AOT_stimuli/rescaled_final/1791_rv.mp4	0.0	311.0547249317169	
67	289.2984788417816	movie	1		247	65.0	2.5	/experiments/AOT/AOT_stimuli/rescaled_final/1791_rv.mp4	0.0	311.4707398414612	2.5003931522369385
67	290.4825267791748	pulse	1	t		65.0	2.5	/experiments/AOT/AOT_stimuli/rescaled_final/1791_rv.mp4	0.0	312.65478777885437	
67	291.79887199401855	fix_post	2		12	65.0	2.5	/experiments/AOT/AOT_stimuli/rescaled_final/1791_rv.mp4	0.0	313.9711329936981	0.10003089904785156
68	291.8989028930664	fix_pre	0		120	66.0	2.5	/experiments/AOT/AOT_stimuli/rescaled_final/1463_fw.mp4	0.0	314.071163892746	0.999596118927002
68	292.08250880241394	pulse	0	t		66.0	2.5	/experiments/AOT/AOT_stimuli/rescaled_final/1463_fw.mp4	0.0	314.2547698020935	
68	292.8984990119934	movie	1		245	66.0	2.5	/experiments/AOT/AOT_stimuli/rescaled_final/1463_fw.mp4	0.0	315.070760011673	2.500365972518921
68	293.682532787323	pulse	1	t		66.0	2.5	/experiments/AOT/AOT_stimuli/rescaled_final/1463_fw.mp4	0.0	315.85479378700256	
68	295.2810728549957	pulse	1	t		66.0	2.5	/experiments/AOT/AOT_stimuli/rescaled_final/1463_fw.mp4	0.0	317.4533338546753	
68	295.39886498451233	fix_post	2		12	66.0	2.5	/experiments/AOT/AOT_stimuli/rescaled_final/1463_fw.mp4	0.0	317.5711259841919	0.10001182556152344
69	295.49887681007385	fix_pre	0		120	67.0	2.5	/experiments/AOT/AOT_stimuli/rescaled_final/0071_rv.mp4	0.0	317.6711378097534	1.0000131130218506
69	296.4988899230957	movie	1		247	67.0	2.5	/experiments/AOT/AOT_stimuli/rescaled_final/0071_rv.mp4	0.0	318.67115092277527	2.500019073486328
69	296.88242292404175	pulse	1	t		67.0	2.5	/experiments/AOT/AOT_stimuli/rescaled_final/0071_rv.mp4	0.0	319.0546839237213	
69	298.4826629161835	pulse	1	t		67.0	2.5	/experiments/AOT/AOT_stimuli/rescaled_final/0071_rv.mp4	0.0	320.65492391586304	
69	298.99890899658203	fix_post	2		12	67.0	2.5	/experiments/AOT/AOT_stimuli/rescaled_final/0071_rv.mp4	0.0	321.1711699962616	0.09999489784240723
70	299.09890389442444	fix_pre	0		119	68.0	2.5	blank	1.0	321.271164894104	0.9917221069335938
70	300.0824408531189	pulse	0	t		68.0	2.5	blank	1.0	322.25470185279846	
70	300.09062600135803	movie	1		301	68.0	2.5	blank	1.0	322.2628870010376	2.508298873901367
70	301.68239879608154	pulse	1	t		68.0	2.5	blank	1.0	323.8546597957611	
70	302.5989248752594	fix_post	2		12	68.0	2.5	blank	1.0	324.77118587493896	0.09997391700744629
71	302.69889879226685	fix_pre	0		120	69.0	2.5	/experiments/AOT/AOT_stimuli/rescaled_final/1119_rv.mp4	0.0	324.8711597919464	0.9999701976776123
71	303.282418012619	pulse	0	t		69.0	2.5	/experiments/AOT/AOT_stimuli/rescaled_final/1119_rv.mp4	0.0	325.4546790122986	
71	303.69886898994446	movie	1		245	69.0	2.5	/experiments/AOT/AOT_stimuli/rescaled_final/1119_rv.mp4	0.0	325.871129989624	2.500025987625122
71	304.88242387771606	pulse	1	t		69.0	2.5	/experiments/AOT/AOT_stimuli/rescaled_final/1119_rv.mp4	0.0	327.05468487739563	
71	306.1988949775696	fix_post	2		12	69.0	2.5	/experiments/AOT/AOT_stimuli/rescaled_final/1119_rv.mp4	0.0	328.37115597724915	0.09990692138671875
72	306.2988018989563	fix_pre	0		120	70.0	2.5	/experiments/AOT/AOT_stimuli/rescaled_final/0701_fw.mp4	0.0	328.47106289863586	1.000135898590088
72	306.48237895965576	pulse	0	t		70.0	2.5	/experiments/AOT/AOT_stimuli/rescaled_final/0701_fw.mp4	0.0	328.6546399593353	
72	307.2989377975464	movie	1		244	70.0	2.5	/experiments/AOT/AOT_stimuli/rescaled_final/0701_fw.mp4	0.0	329.47119879722595	2.499833106994629
72	308.08237981796265	pulse	1	t		70.0	2.5	/experiments/AOT/AOT_stimuli/rescaled_final/0701_fw.mp4	0.0	330.2546408176422	
72	309.6811509132385	pulse	1	t		70.0	2.5	/experiments/AOT/AOT_stimuli/rescaled_final/0701_fw.mp4	0.0	331.8534119129181	
72	309.798770904541	fix_post	2		12	70.0	2.5	/experiments/AOT/AOT_stimuli/rescaled_final/0701_fw.mp4	0.0	331.9710319042206	0.10011506080627441
73	309.8988859653473	fix_pre	0		120	71.0	2.5	/experiments/AOT/AOT_stimuli/rescaled_final/0877_fw.mp4	0.0	332.07114696502686	0.9995059967041016
73	310.8983919620514	movie	1		245	71.0	2.5	/experiments/AOT/AOT_stimuli/rescaled_final/0877_fw.mp4	0.0	333.07065296173096	2.5004079341888428
73	311.28274297714233	pulse	1	t		71.0	2.5	/experiments/AOT/AOT_stimuli/rescaled_final/0877_fw.mp4	0.0	333.4550039768219	
73	312.8823399543762	pulse	1	t		71.0	2.5	/experiments/AOT/AOT_stimuli/rescaled_final/0877_fw.mp4	0.0	335.0546009540558	
73	313.39879989624023	fix_post	2		12	71.0	2.5	/experiments/AOT/AOT_stimuli/rescaled_final/0877_fw.mp4	0.0	335.5710608959198	0.09998297691345215
74	313.4987828731537	fix_pre	0		119	72.0	2.5	/experiments/AOT/AOT_stimuli/rescaled_final/1799_fw.mp4	0.0	335.67104387283325	0.9918339252471924
74	314.4823567867279	pulse	0	t		72.0	2.5	/experiments/AOT/AOT_stimuli/rescaled_final/1799_fw.mp4	0.0	336.65461778640747	
74	314.4906167984009	movie	1		245	72.0	2.5	/experiments/AOT/AOT_stimuli/rescaled_final/1799_fw.mp4	0.0	336.66287779808044	2.5082340240478516
74	316.0824339389801	pulse	1	t		72.0	2.5	/experiments/AOT/AOT_stimuli/rescaled_final/1799_fw.mp4	0.0	338.25469493865967	
74	316.99885082244873	fix_post	2		12	72.0	2.5	/experiments/AOT/AOT_stimuli/rescaled_final/1799_fw.mp4	0.0	339.1711118221283	0.09994101524353027
75	317.09879183769226	fix_pre	0		120	73.0	2.5	/experiments/AOT/AOT_stimuli/rescaled_final/2064_fw.mp4	0.0	339.2710528373718	1.0001180171966553
75	317.6823718547821	pulse	0	t		73.0	2.5	/experiments/AOT/AOT_stimuli/rescaled_final/2064_fw.mp4	0.0	339.85463285446167	
75	318.0989098548889	movie	1		246	73.0	2.5	/experiments/AOT/AOT_stimuli/rescaled_final/2064_fw.mp4	0.0	340.2711708545685	2.49950909614563
75	319.28242778778076	pulse	1	t		73.0	2.5	/experiments/AOT/AOT_stimuli/rescaled_final/2064_fw.mp4	0.0	341.4546887874603	
75	320.59841895103455	fix_post	2		12	73.0	2.5	/experiments/AOT/AOT_stimuli/rescaled_final/2064_fw.mp4	0.0	342.7706799507141	0.10047292709350586
76	320.69889187812805	fix_pre	0		120	74.0	2.5	/experiments/AOT/AOT_stimuli/rescaled_final/2032_rv.mp4	0.0	342.8711528778076	0.999614953994751
76	320.88240098953247	pulse	0	t		74.0	2.5	/experiments/AOT/AOT_stimuli/rescaled_final/2032_rv.mp4	0.0	343.05466198921204	
76	321.6985068321228	movie	1		244	74.0	2.5	/experiments/AOT/AOT_stimuli/rescaled_final/2032_rv.mp4	0.0	343.87076783180237	2.5002331733703613
76	322.48185682296753	pulse	1	t		74.0	2.5	/experiments/AOT/AOT_stimuli/rescaled_final/2032_rv.mp4	0.0	344.6541178226471	
76	324.08090686798096	pulse	1	t		74.0	2.5	/experiments/AOT/AOT_stimuli/rescaled_final/2032_rv.mp4	0.0	346.2531678676605	
76	324.19874000549316	fix_post	2		12	74.0	2.5	/experiments/AOT/AOT_stimuli/rescaled_final/2032_rv.mp4	0.0	346.37100100517273	0.09990978240966797
77	324.29864978790283	fix_pre	0		120	75.0	2.5	/experiments/AOT/AOT_stimuli/rescaled_final/0760_fw.mp4	0.0	346.4709107875824	1.0001611709594727
77	325.2988109588623	movie	1		245	75.0	2.5	/experiments/AOT/AOT_stimuli/rescaled_final/0760_fw.mp4	0.0	347.47107195854187	2.4999608993530273
77	325.68185687065125	pulse	1	t		75.0	2.5	/experiments/AOT/AOT_stimuli/rescaled_final/0760_fw.mp4	0.0	347.8541178703308	
77	327.2822070121765	pulse	1	t		75.0	2.5	/experiments/AOT/AOT_stimuli/rescaled_final/0760_fw.mp4	0.0	349.4544680118561	
77	327.79877185821533	fix_post	2		12	75.0	2.5	/experiments/AOT/AOT_stimuli/rescaled_final/0760_fw.mp4	0.0	349.9710328578949	0.0995640754699707
78	327.8983359336853	fix_pre	0		119	76.0	2.5	/experiments/AOT/AOT_stimuli/rescaled_final/1838_rv.mp4	0.0	350.07059693336487	0.9920978546142578
78	328.8822829723358	pulse	0	t		76.0	2.5	/experiments/AOT/AOT_stimuli/rescaled_final/1838_rv.mp4	0.0	351.0545439720154	
78	328.89043378829956	movie	1		245	76.0	2.5	/experiments/AOT/AOT_stimuli/rescaled_final/1838_rv.mp4	0.0	351.0626947879791	2.508280038833618
78	330.48240089416504	pulse	1	t		76.0	2.5	/experiments/AOT/AOT_stimuli/rescaled_final/1838_rv.mp4	0.0	352.6546618938446	
78	331.3987138271332	fix_post	2		12	76.0	2.5	/experiments/AOT/AOT_stimuli/rescaled_final/1838_rv.mp4	0.0	353.57097482681274	0.10001301765441895
79	331.4987268447876	fix_pre	0		120	77.0	2.5	blank	1.0	353.67098784446716	0.9995529651641846
79	332.0822489261627	pulse	0	t		77.0	2.5	blank	1.0	354.2545099258423	
79	332.4982798099518	movie	1		300	77.0	2.5	blank	1.0	354.67054080963135	2.500452995300293
79	333.68232583999634	pulse	1	t		77.0	2.5	blank	1.0	355.8545868396759	
79	334.9987328052521	fix_post	2		12	77.0	2.5	blank	1.0	357.17099380493164	0.09992504119873047
80	335.0986578464508	fix_pre	0		120	78.0	2.5	/experiments/AOT/AOT_stimuli/rescaled_final/1333_rv.mp4	0.0	357.27091884613037	1.0000250339508057
80	335.28218388557434	pulse	0	t		78.0	2.5	/experiments/AOT/AOT_stimuli/rescaled_final/1333_rv.mp4	0.0	357.4544448852539	
80	336.0986828804016	movie	1		247	78.0	2.5	/experiments/AOT/AOT_stimuli/rescaled_final/1333_rv.mp4	0.0	358.2709438800812	2.5000250339508057
80	336.8821949958801	pulse	1	t		78.0	2.5	/experiments/AOT/AOT_stimuli/rescaled_final/1333_rv.mp4	0.0	359.0544559955597	
80	338.481773853302	pulse	1	t		78.0	2.5	/experiments/AOT/AOT_stimuli/rescaled_final/1333_rv.mp4	0.0	360.65403485298157	
80	338.5987079143524	fix_post	2		12	78.0	2.5	/experiments/AOT/AOT_stimuli/rescaled_final/1333_rv.mp4	0.0	360.770968914032	0.10001397132873535
81	338.69872188568115	fix_pre	0		120	79.0	2.5	/experiments/AOT/AOT_stimuli/rescaled_final/1788_rv.mp4	0.0	360.8709828853607	1.000011920928955
81	339.6987338066101	movie	1		246	79.0	2.5	/experiments/AOT/AOT_stimuli/rescaled_final/1788_rv.mp4	0.0	361.8709948062897	2.4999840259552
81	340.0833389759064	pulse	1	t		79.0	2.5	/experiments/AOT/AOT_stimuli/rescaled_final/1788_rv.mp4	0.0	362.25559997558594	
81	341.682168006897	pulse	1	t		79.0	2.5	/experiments/AOT/AOT_stimuli/rescaled_final/1788_rv.mp4	0.0	363.85442900657654	
81	342.1987178325653	fix_post	2		12	79.0	2.5	/experiments/AOT/AOT_stimuli/rescaled_final/1788_rv.mp4	0.0	364.3709788322449	0.09960317611694336
82	342.29832100868225	fix_pre	0		119	80.0	2.5	/experiments/AOT/AOT_stimuli/rescaled_final/1294_rv.mp4	0.0	364.4705820083618	0.9920198917388916
82	343.28223180770874	pulse	0	t		80.0	2.5	/experiments/AOT/AOT_stimuli/rescaled_final/1294_rv.mp4	0.0	365.4544928073883	
82	343.29034090042114	movie	1		244	80.0	2.5	/experiments/AOT/AOT_stimuli/rescaled_final/1294_rv.mp4	0.0	365.4626019001007	2.5083060264587402
82	344.8819990158081	pulse	1	t		80.0	2.5	/experiments/AOT/AOT_stimuli/rescaled_final/1294_rv.mp4	0.0	367.05426001548767	
82	345.7986469268799	fix_post	2		12	80.0	2.5	/experiments/AOT/AOT_stimuli/rescaled_final/1294_rv.mp4	0.0	367.97090792655945	0.09961795806884766
83	345.89826488494873	fix_pre	0		120	81.0	2.5	/experiments/AOT/AOT_stimuli/rescaled_final/1204_fw.mp4	0.0	368.0705258846283	1.0003859996795654
83	346.4821858406067	pulse	0	t		81.0	2.5	/experiments/AOT/AOT_stimuli/rescaled_final/1204_fw.mp4	0.0	368.65444684028625	
83	346.8986508846283	movie	1		245	81.0	2.5	/experiments/AOT/AOT_stimuli/rescaled_final/1204_fw.mp4	0.0	369.07091188430786	2.499699115753174
83	348.0822420120239	pulse	1	t		81.0	2.5	/experiments/AOT/AOT_stimuli/rescaled_final/1204_fw.mp4	0.0	370.2545030117035	
83	349.39835000038147	fix_post	2		12	81.0	2.5	/experiments/AOT/AOT_stimuli/rescaled_final/1204_fw.mp4	0.0	371.57061100006104	0.10035586357116699
84	349.49870586395264	fix_pre	0		120	82.0	2.5	/experiments/AOT/AOT_stimuli/rescaled_final/1760_fw.mp4	0.0	371.6709668636322	0.9999520778656006
84	349.68213391304016	pulse	0	t		82.0	2.5	/experiments/AOT/AOT_stimuli/rescaled_final/1760_fw.mp4	0.0	371.8543949127197	
84	350.49865794181824	movie	1		243	82.0	2.5	/experiments/AOT/AOT_stimuli/rescaled_final/1760_fw.mp4	0.0	372.6709189414978	2.500001907348633
84	351.28211092948914	pulse	1	t		82.0	2.5	/experiments/AOT/AOT_stimuli/rescaled_final/1760_fw.mp4	0.0	373.4543719291687	
84	352.8808648586273	pulse	1	t		82.0	2.5	/experiments/AOT/AOT_stimuli/rescaled_final/1760_fw.mp4	0.0	375.0531258583069	
84	352.99865984916687	fix_post	2		12	82.0	2.5	/experiments/AOT/AOT_stimuli/rescaled_final/1760_fw.mp4	0.0	375.17092084884644	0.10003495216369629
85	353.09869480133057	fix_pre	0		120	83.0	2.5	blank	1.0	375.27095580101013	1.0000150203704834
85	354.09870982170105	movie	1		300	83.0	2.5	blank	1.0	376.2709708213806	2.499979019165039
85	354.482136964798	pulse	1	t		83.0	2.5	blank	1.0	376.65439796447754	
85	356.08214378356934	pulse	1	t		83.0	2.5	blank	1.0	378.2544047832489	
85	356.5986888408661	fix_post	2		12	83.0	2.5	blank	1.0	378.77094984054565	0.09993410110473633
87	356.6986229419708	stim	0		1716					378.8708839416504	14.299980878829956
87	357.68214082717896	pulse	0	t						379.8544018268585	
87	359.28209590911865	pulse	0	t						381.4543569087982	
87	360.8820049762726	pulse	0	t						383.05426597595215	
87	362.48219084739685	pulse	0	t						384.6544518470764	
87	364.08214592933655	pulse	0	t						386.2544069290161	
87	365.6820819377899	pulse	0	t						387.8543429374695	
87	367.28203797340393	pulse	0	t						389.4542989730835	
87	368.88203597068787	pulse	0	t						391.05429697036743	
87	370.48206186294556	pulse	0	t						392.6543228626251	
