trial_nr	onset	event_type	phase	response	nr_frames	movie_index	movie_duration	movie_file	blank	onset_abs	duration
0	0.20834708213806152	stim	0		39					15.916115999221802	0.32506299018859863
0	0.518078088760376	response	0	space						16.225847005844116	
1	0.5334100723266602	stim	0		5121					16.2411789894104	42.69250297546387
1	43.21601319313049	pulse	0	t						58.92378211021423	
1	43.22591304779053	stim	1		1715					58.93368196487427	14.299270153045654
1	44.806796073913574	pulse	1	t						60.514564990997314	
1	46.40701699256897	pulse	1	t						62.11478590965271	
1	48.00728416442871	pulse	1	t						63.71505308151245	
1	49.60748100280762	pulse	1	t						65.31524991989136	
1	51.20778799057007	pulse	1	t						66.91555690765381	
1	52.80051898956299	pulse	1	t						68.50828790664673	
1	54.400633096694946	pulse	1	t						70.10840201377869	
1	56.000892162323	pulse	1	t						71.70866107940674	
2	57.52518320083618	fix_pre	0		11	0.0	2.5	/experiments/knapen_AOT/AOT_stimuli/rescaled_final/0299_rv.mp4	0.0	73.23295211791992	0.09168887138366699
2	57.60114502906799	pulse	0	t		0.0	2.5	/experiments/knapen_AOT/AOT_stimuli/rescaled_final/0299_rv.mp4	0.0	73.30891394615173	
2	57.61687207221985	movie	1		243	0.0	2.5	/experiments/knapen_AOT/AOT_stimuli/rescaled_final/0299_rv.mp4	0.0	73.32464098930359	2.508810043334961
2	59.200653076171875	pulse	1	t		0.0	2.5	/experiments/knapen_AOT/AOT_stimuli/rescaled_final/0299_rv.mp4	0.0	74.90842199325562	
2	60.12568211555481	fix_post	2		12	0.0	2.5	/experiments/knapen_AOT/AOT_stimuli/rescaled_final/0299_rv.mp4	0.0	75.83345103263855	0.09991788864135742
3	60.22560000419617	fix_pre	0		120	1.0	2.5	/experiments/knapen_AOT/AOT_stimuli/rescaled_final/0086_rv.mp4	0.0	75.93336892127991	1.0001311302185059
3	60.800841093063354	pulse	0	t		1.0	2.5	/experiments/knapen_AOT/AOT_stimuli/rescaled_final/0086_rv.mp4	0.0	76.5086100101471	
3	61.22573113441467	movie	1		242	1.0	2.5	/experiments/knapen_AOT/AOT_stimuli/rescaled_final/0086_rv.mp4	0.0	76.93350005149841	2.500438928604126
3	62.4018280506134	pulse	1	t		1.0	2.5	/experiments/knapen_AOT/AOT_stimuli/rescaled_final/0086_rv.mp4	0.0	78.10959696769714	
3	63.7261700630188	fix_post	2		12	1.0	2.5	/experiments/knapen_AOT/AOT_stimuli/rescaled_final/0086_rv.mp4	0.0	79.43393898010254	0.09998893737792969
4	63.82615900039673	fix_pre	0		120	2.0	2.5	/experiments/knapen_AOT/AOT_stimuli/rescaled_final/0713_rv.mp4	0.0	79.53392791748047	1.0001862049102783
4	64.00150513648987	pulse	0	t		2.0	2.5	/experiments/knapen_AOT/AOT_stimuli/rescaled_final/0713_rv.mp4	0.0	79.70927405357361	
4	64.826345205307	movie	1		244	2.0	2.5	/experiments/knapen_AOT/AOT_stimuli/rescaled_final/0713_rv.mp4	0.0	80.53411412239075	2.5003578662872314
4	65.60156106948853	pulse	1	t		2.0	2.5	/experiments/knapen_AOT/AOT_stimuli/rescaled_final/0713_rv.mp4	0.0	81.30932998657227	
4	67.2018370628357	pulse	1	t		2.0	2.5	/experiments/knapen_AOT/AOT_stimuli/rescaled_final/0713_rv.mp4	0.0	82.90960597991943	
4	67.32670307159424	fix_post	2		12	2.0	2.5	/experiments/knapen_AOT/AOT_stimuli/rescaled_final/0713_rv.mp4	0.0	83.03447198867798	0.0999441146850586
5	67.4266471862793	fix_pre	0		120	3.0	2.5	/experiments/knapen_AOT/AOT_stimuli/rescaled_final/0438_rv.mp4	0.0	83.13441610336304	1.0001869201660156
5	68.42683410644531	movie	1		242	3.0	2.5	/experiments/knapen_AOT/AOT_stimuli/rescaled_final/0438_rv.mp4	0.0	84.13460302352905	2.4921488761901855
5	68.80204200744629	pulse	1	t		3.0	2.5	/experiments/knapen_AOT/AOT_stimuli/rescaled_final/0438_rv.mp4	0.0	84.50981092453003	
5	70.40236210823059	pulse	1	t		3.0	2.5	/experiments/knapen_AOT/AOT_stimuli/rescaled_final/0438_rv.mp4	0.0	86.11013102531433	
5	70.9189829826355	fix_post	2		12	3.0	2.5	/experiments/knapen_AOT/AOT_stimuli/rescaled_final/0438_rv.mp4	0.0	86.62675189971924	0.09988212585449219
6	71.01886510848999	fix_pre	0		119	4.0	2.5	/experiments/knapen_AOT/AOT_stimuli/rescaled_final/1269_rv.mp4	0.0	86.72663402557373	0.9918620586395264
6	72.00248003005981	pulse	0	t		4.0	2.5	/experiments/knapen_AOT/AOT_stimuli/rescaled_final/1269_rv.mp4	0.0	87.71024894714355	
6	72.01072716712952	movie	1		244	4.0	2.5	/experiments/knapen_AOT/AOT_stimuli/rescaled_final/1269_rv.mp4	0.0	87.71849608421326	2.508697986602783
6	73.60366415977478	pulse	1	t		4.0	2.5	/experiments/knapen_AOT/AOT_stimuli/rescaled_final/1269_rv.mp4	0.0	89.31143307685852	
6	74.5194251537323	fix_post	2		12	4.0	2.5	/experiments/knapen_AOT/AOT_stimuli/rescaled_final/1269_rv.mp4	0.0	90.22719407081604	0.10001587867736816
7	74.61944103240967	fix_pre	0		120	5.0	2.5	/experiments/knapen_AOT/AOT_stimuli/rescaled_final/1373_rv.mp4	0.0	90.32720994949341	1.0001180171966553
7	75.20305919647217	pulse	0	t		5.0	2.5	/experiments/knapen_AOT/AOT_stimuli/rescaled_final/1373_rv.mp4	0.0	90.91082811355591	
7	75.61955904960632	movie	1		242	5.0	2.5	/experiments/knapen_AOT/AOT_stimuli/rescaled_final/1373_rv.mp4	0.0	91.32732796669006	2.500530958175659
7	76.80328011512756	pulse	1	t		5.0	2.5	/experiments/knapen_AOT/AOT_stimuli/rescaled_final/1373_rv.mp4	0.0	92.5110490322113	
7	78.12009000778198	fix_post	2		12	5.0	2.5	/experiments/knapen_AOT/AOT_stimuli/rescaled_final/1373_rv.mp4	0.0	93.82785892486572	0.09987807273864746
8	78.21996808052063	fix_pre	0		120	6.0	2.5	blank	1.0	93.92773699760437	1.0001320838928223
8	78.40346908569336	pulse	0	t		6.0	2.5	blank	1.0	94.1112380027771	
8	79.22010016441345	movie	1		300	6.0	2.5	blank	1.0	94.92786908149719	2.50049090385437
8	80.003897190094	pulse	1	t		6.0	2.5	blank	1.0	95.71166610717773	
8	81.60399603843689	pulse	1	t		6.0	2.5	blank	1.0	97.31176495552063	
8	81.72059106826782	fix_post	2		12	6.0	2.5	blank	1.0	97.42835998535156	0.09997701644897461
9	81.8205680847168	fix_pre	0		119	7.0	2.5	/experiments/knapen_AOT/AOT_stimuli/rescaled_final/0695_fw.mp4	0.0	97.52833700180054	0.9917290210723877
9	82.81229710578918	movie	1		243	7.0	2.5	/experiments/knapen_AOT/AOT_stimuli/rescaled_final/0695_fw.mp4	0.0	98.52006602287292	2.50056791305542
9	83.20431303977966	pulse	1	t		7.0	2.5	/experiments/knapen_AOT/AOT_stimuli/rescaled_final/0695_fw.mp4	0.0	98.9120819568634	
9	84.8043851852417	pulse	1	t		7.0	2.5	/experiments/knapen_AOT/AOT_stimuli/rescaled_final/0695_fw.mp4	0.0	100.51215410232544	
9	85.3128650188446	fix_post	2		12	7.0	2.5	/experiments/knapen_AOT/AOT_stimuli/rescaled_final/0695_fw.mp4	0.0	101.02063393592834	0.09984707832336426
10	85.41271209716797	fix_pre	0		120	8.0	2.5	/experiments/knapen_AOT/AOT_stimuli/rescaled_final/1990_fw.mp4	0.0	101.12048101425171	1.0002191066741943
10	86.404794216156	pulse	0	t		8.0	2.5	/experiments/knapen_AOT/AOT_stimuli/rescaled_final/1990_fw.mp4	0.0	102.11256313323975	
10	86.41293120384216	movie	1		244	8.0	2.5	/experiments/knapen_AOT/AOT_stimuli/rescaled_final/1990_fw.mp4	0.0	102.1207001209259	2.50875186920166
10	88.00950312614441	pulse	1	t		8.0	2.5	/experiments/knapen_AOT/AOT_stimuli/rescaled_final/1990_fw.mp4	0.0	103.71727204322815	
10	88.92168307304382	fix_post	2		12	8.0	2.5	/experiments/knapen_AOT/AOT_stimuli/rescaled_final/1990_fw.mp4	0.0	104.62945199012756	0.09993100166320801
11	89.02161407470703	fix_pre	0		120	9.0	2.5	/experiments/knapen_AOT/AOT_stimuli/rescaled_final/1886_fw.mp4	0.0	104.72938299179077	1.0001509189605713
11	89.60519599914551	pulse	0	t		9.0	2.5	/experiments/knapen_AOT/AOT_stimuli/rescaled_final/1886_fw.mp4	0.0	105.31296491622925	
11	90.0217649936676	movie	1		242	9.0	2.5	/experiments/knapen_AOT/AOT_stimuli/rescaled_final/1886_fw.mp4	0.0	105.72953391075134	2.500441074371338
11	91.20544099807739	pulse	1	t		9.0	2.5	/experiments/knapen_AOT/AOT_stimuli/rescaled_final/1886_fw.mp4	0.0	106.91320991516113	
11	92.52220606803894	fix_post	2		12	9.0	2.5	/experiments/knapen_AOT/AOT_stimuli/rescaled_final/1886_fw.mp4	0.0	108.22997498512268	0.09992408752441406
12	92.62213015556335	fix_pre	0		120	10.0	2.5	/experiments/knapen_AOT/AOT_stimuli/rescaled_final/0832_fw.mp4	0.0	108.3298990726471	1.0000889301300049
12	92.80567121505737	pulse	0	t		10.0	2.5	/experiments/knapen_AOT/AOT_stimuli/rescaled_final/0832_fw.mp4	0.0	108.51344013214111	
12	93.62221908569336	movie	1		242	10.0	2.5	/experiments/knapen_AOT/AOT_stimuli/rescaled_final/0832_fw.mp4	0.0	109.3299880027771	2.5004498958587646
12	94.40609312057495	pulse	1	t		10.0	2.5	/experiments/knapen_AOT/AOT_stimuli/rescaled_final/0832_fw.mp4	0.0	110.11386203765869	
12	96.00587320327759	pulse	1	t		10.0	2.5	/experiments/knapen_AOT/AOT_stimuli/rescaled_final/0832_fw.mp4	0.0	111.71364212036133	
12	96.12266898155212	fix_post	2		12	10.0	2.5	/experiments/knapen_AOT/AOT_stimuli/rescaled_final/0832_fw.mp4	0.0	111.83043789863586	0.10005617141723633
13	96.22272515296936	fix_pre	0		120	11.0	2.5	/experiments/knapen_AOT/AOT_stimuli/rescaled_final/0618_fw.mp4	0.0	111.9304940700531	1.0000770092010498
13	97.22280216217041	movie	1		244	11.0	2.5	/experiments/knapen_AOT/AOT_stimuli/rescaled_final/0618_fw.mp4	0.0	112.93057107925415	2.4920408725738525
13	97.60764002799988	pulse	1	t		11.0	2.5	/experiments/knapen_AOT/AOT_stimuli/rescaled_final/0618_fw.mp4	0.0	113.31540894508362	
13	99.2065601348877	pulse	1	t		11.0	2.5	/experiments/knapen_AOT/AOT_stimuli/rescaled_final/0618_fw.mp4	0.0	114.91432905197144	
13	99.71484303474426	fix_post	2		12	11.0	2.5	/experiments/knapen_AOT/AOT_stimuli/rescaled_final/0618_fw.mp4	0.0	115.422611951828	0.09997797012329102
14	99.81482100486755	fix_pre	0		120	12.0	2.5	blank	1.0	115.5225899219513	1.000236988067627
14	100.80694508552551	pulse	0	t		12.0	2.5	blank	1.0	116.51471400260925	
14	100.81505799293518	movie	1		301	12.0	2.5	blank	1.0	116.52282691001892	2.5086781978607178
14	102.40716314315796	pulse	1	t		12.0	2.5	blank	1.0	118.1149320602417	
14	103.3237361907959	fix_post	2		12	12.0	2.5	blank	1.0	119.03150510787964	0.10001993179321289
15	103.42375612258911	fix_pre	0		120	13.0	2.5	/experiments/knapen_AOT/AOT_stimuli/rescaled_final/0688_fw.mp4	0.0	119.13152503967285	1.0001499652862549
15	104.00733017921448	pulse	0	t		13.0	2.5	/experiments/knapen_AOT/AOT_stimuli/rescaled_final/0688_fw.mp4	0.0	119.71509909629822	
15	104.42390608787537	movie	1		242	13.0	2.5	/experiments/knapen_AOT/AOT_stimuli/rescaled_final/0688_fw.mp4	0.0	120.1316750049591	2.521475076675415
15	105.60759019851685	pulse	1	t		13.0	2.5	/experiments/knapen_AOT/AOT_stimuli/rescaled_final/0688_fw.mp4	0.0	121.31535911560059	
15	106.94538116455078	fix_post	2		10	13.0	2.5	/experiments/knapen_AOT/AOT_stimuli/rescaled_final/0688_fw.mp4	0.0	122.65315008163452	0.0788419246673584
16	107.02422308921814	fix_pre	0		120	14.0	2.5	/experiments/knapen_AOT/AOT_stimuli/rescaled_final/0187_rv.mp4	0.0	122.73199200630188	1.000148057937622
16	107.20026302337646	pulse	0	t		14.0	2.5	/experiments/knapen_AOT/AOT_stimuli/rescaled_final/0187_rv.mp4	0.0	122.9080319404602	
16	108.02437114715576	movie	1		243	14.0	2.5	/experiments/knapen_AOT/AOT_stimuli/rescaled_final/0187_rv.mp4	0.0	123.7321400642395	2.5005569458007812
16	108.8006021976471	pulse	1	t		14.0	2.5	/experiments/knapen_AOT/AOT_stimuli/rescaled_final/0187_rv.mp4	0.0	124.50837111473083	
16	110.40811920166016	pulse	1	t		14.0	2.5	/experiments/knapen_AOT/AOT_stimuli/rescaled_final/0187_rv.mp4	0.0	126.1158881187439	
16	110.52492809295654	fix_post	2		12	14.0	2.5	/experiments/knapen_AOT/AOT_stimuli/rescaled_final/0187_rv.mp4	0.0	126.23269701004028	0.09992408752441406
17	110.62485218048096	fix_pre	0		120	15.0	2.5	/experiments/knapen_AOT/AOT_stimuli/rescaled_final/0742_rv.mp4	0.0	126.3326210975647	1.0001239776611328
17	111.62497615814209	movie	1		241	15.0	2.5	/experiments/knapen_AOT/AOT_stimuli/rescaled_final/0742_rv.mp4	0.0	127.33274507522583	2.4921138286590576
17	112.00030708312988	pulse	1	t		15.0	2.5	/experiments/knapen_AOT/AOT_stimuli/rescaled_final/0742_rv.mp4	0.0	127.70807600021362	
17	113.60040998458862	pulse	1	t		15.0	2.5	/experiments/knapen_AOT/AOT_stimuli/rescaled_final/0742_rv.mp4	0.0	129.30817890167236	
17	114.11708998680115	fix_post	2		12	15.0	2.5	/experiments/knapen_AOT/AOT_stimuli/rescaled_final/0742_rv.mp4	0.0	129.8248589038849	0.09993910789489746
18	114.21702909469604	fix_pre	0		119	16.0	2.5	/experiments/knapen_AOT/AOT_stimuli/rescaled_final/1416_rv.mp4	0.0	129.92479801177979	0.9917950630187988
18	115.20056819915771	pulse	0	t		16.0	2.5	/experiments/knapen_AOT/AOT_stimuli/rescaled_final/1416_rv.mp4	0.0	130.90833711624146	
18	115.20882415771484	movie	1		244	16.0	2.5	/experiments/knapen_AOT/AOT_stimuli/rescaled_final/1416_rv.mp4	0.0	130.91659307479858	2.5088248252868652
18	116.80527114868164	pulse	1	t		16.0	2.5	/experiments/knapen_AOT/AOT_stimuli/rescaled_final/1416_rv.mp4	0.0	132.51304006576538	
18	117.71764898300171	fix_post	2		12	16.0	2.5	/experiments/knapen_AOT/AOT_stimuli/rescaled_final/1416_rv.mp4	0.0	133.42541790008545	0.0998990535736084
19	117.81754803657532	fix_pre	0		120	17.0	2.5	/experiments/knapen_AOT/AOT_stimuli/rescaled_final/0011_rv.mp4	0.0	133.52531695365906	1.0001599788665771
19	118.40124201774597	pulse	0	t		17.0	2.5	/experiments/knapen_AOT/AOT_stimuli/rescaled_final/0011_rv.mp4	0.0	134.1090109348297	
19	118.8177080154419	movie	1		242	17.0	2.5	/experiments/knapen_AOT/AOT_stimuli/rescaled_final/0011_rv.mp4	0.0	134.52547693252563	2.5005831718444824
19	120.00144410133362	pulse	1	t		17.0	2.5	/experiments/knapen_AOT/AOT_stimuli/rescaled_final/0011_rv.mp4	0.0	135.70921301841736	
19	121.31829118728638	fix_post	2		12	17.0	2.5	/experiments/knapen_AOT/AOT_stimuli/rescaled_final/0011_rv.mp4	0.0	137.02606010437012	0.09983491897583008
20	121.4181261062622	fix_pre	0		120	18.0	2.5	/experiments/knapen_AOT/AOT_stimuli/rescaled_final/2108_rv.mp4	0.0	137.12589502334595	1.0000619888305664
20	121.60154914855957	pulse	0	t		18.0	2.5	/experiments/knapen_AOT/AOT_stimuli/rescaled_final/2108_rv.mp4	0.0	137.3093180656433	
20	122.41818809509277	movie	1		243	18.0	2.5	/experiments/knapen_AOT/AOT_stimuli/rescaled_final/2108_rv.mp4	0.0	138.1259570121765	2.500554084777832
20	123.20188403129578	pulse	1	t		18.0	2.5	/experiments/knapen_AOT/AOT_stimuli/rescaled_final/2108_rv.mp4	0.0	138.90965294837952	
20	124.80193614959717	pulse	1	t		18.0	2.5	/experiments/knapen_AOT/AOT_stimuli/rescaled_final/2108_rv.mp4	0.0	140.5097050666809	
20	124.9187421798706	fix_post	2		12	18.0	2.5	/experiments/knapen_AOT/AOT_stimuli/rescaled_final/2108_rv.mp4	0.0	140.62651109695435	0.09987998008728027
21	125.01862215995789	fix_pre	0		119	19.0	2.5	blank	1.0	140.72639107704163	0.9917678833007812
21	126.01039004325867	movie	1		300	19.0	2.5	blank	1.0	141.7181589603424	2.500441074371338
21	126.40235304832458	pulse	1	t		19.0	2.5	blank	1.0	142.11012196540833	
21	128.00249814987183	pulse	1	t		19.0	2.5	blank	1.0	143.71026706695557	
21	128.51083111763	fix_post	2		12	19.0	2.5	blank	1.0	144.21860003471375	0.09998798370361328
22	128.61081910133362	fix_pre	0		120	20.0	2.5	/experiments/knapen_AOT/AOT_stimuli/rescaled_final/1289_rv.mp4	0.0	144.31858801841736	1.0001790523529053
22	129.6027591228485	pulse	0	t		20.0	2.5	/experiments/knapen_AOT/AOT_stimuli/rescaled_final/1289_rv.mp4	0.0	145.31052803993225	
22	129.61099815368652	movie	1		243	20.0	2.5	/experiments/knapen_AOT/AOT_stimuli/rescaled_final/1289_rv.mp4	0.0	145.31876707077026	2.5087358951568604
22	131.20362401008606	pulse	1	t		20.0	2.5	/experiments/knapen_AOT/AOT_stimuli/rescaled_final/1289_rv.mp4	0.0	146.9113929271698	
22	132.11973404884338	fix_post	2		12	20.0	2.5	/experiments/knapen_AOT/AOT_stimuli/rescaled_final/1289_rv.mp4	0.0	147.82750296592712	0.09997200965881348
23	132.2197060585022	fix_pre	0		120	21.0	2.5	/experiments/knapen_AOT/AOT_stimuli/rescaled_final/0164_rv.mp4	0.0	147.92747497558594	1.0001211166381836
23	132.80334210395813	pulse	0	t		21.0	2.5	/experiments/knapen_AOT/AOT_stimuli/rescaled_final/0164_rv.mp4	0.0	148.51111102104187	
23	133.21982717514038	movie	1		242	21.0	2.5	/experiments/knapen_AOT/AOT_stimuli/rescaled_final/0164_rv.mp4	0.0	148.92759609222412	2.500548839569092
23	134.40365409851074	pulse	1	t		21.0	2.5	/experiments/knapen_AOT/AOT_stimuli/rescaled_final/0164_rv.mp4	0.0	150.11142301559448	
23	135.72037601470947	fix_post	2		12	21.0	2.5	/experiments/knapen_AOT/AOT_stimuli/rescaled_final/0164_rv.mp4	0.0	151.4281449317932	0.09984207153320312
24	135.82021808624268	fix_pre	0		120	22.0	2.5	/experiments/knapen_AOT/AOT_stimuli/rescaled_final/0734_fw.mp4	0.0	151.52798700332642	1.0001189708709717
24	136.0037820339203	pulse	0	t		22.0	2.5	/experiments/knapen_AOT/AOT_stimuli/rescaled_final/0734_fw.mp4	0.0	151.71155095100403	
24	136.82033705711365	movie	1		243	22.0	2.5	/experiments/knapen_AOT/AOT_stimuli/rescaled_final/0734_fw.mp4	0.0	152.5281059741974	2.500560998916626
24	137.60404419898987	pulse	1	t		22.0	2.5	/experiments/knapen_AOT/AOT_stimuli/rescaled_final/0734_fw.mp4	0.0	153.3118131160736	
24	139.20415616035461	pulse	1	t		22.0	2.5	/experiments/knapen_AOT/AOT_stimuli/rescaled_final/0734_fw.mp4	0.0	154.91192507743835	
24	139.32089805603027	fix_post	2		12	22.0	2.5	/experiments/knapen_AOT/AOT_stimuli/rescaled_final/0734_fw.mp4	0.0	155.028666973114	0.09986114501953125
25	139.4207592010498	fix_pre	0		119	23.0	2.5	/experiments/knapen_AOT/AOT_stimuli/rescaled_final/0742_rv.mp4	0.0	155.12852811813354	0.991851806640625
25	140.41261100769043	movie	1		242	23.0	2.5	/experiments/knapen_AOT/AOT_stimuli/rescaled_final/0742_rv.mp4	0.0	156.12037992477417	2.5003201961517334
25	140.80459213256836	pulse	1	t		23.0	2.5	/experiments/knapen_AOT/AOT_stimuli/rescaled_final/0742_rv.mp4	0.0	156.5123610496521	
25	142.40475702285767	pulse	1	t		23.0	2.5	/experiments/knapen_AOT/AOT_stimuli/rescaled_final/0742_rv.mp4	0.0	158.1125259399414	
25	142.91293120384216	fix_post	2		12	23.0	2.5	/experiments/knapen_AOT/AOT_stimuli/rescaled_final/0742_rv.mp4	0.0	158.6207001209259	0.10002684593200684
26	143.01295804977417	fix_pre	0		120	24.0	2.5	/experiments/knapen_AOT/AOT_stimuli/rescaled_final/1279_rv.mp4	0.0	158.7207269668579	1.0001211166381836
26	144.0049090385437	pulse	0	t		24.0	2.5	/experiments/knapen_AOT/AOT_stimuli/rescaled_final/1279_rv.mp4	0.0	159.71267795562744	
26	144.01307916641235	movie	1		244	24.0	2.5	/experiments/knapen_AOT/AOT_stimuli/rescaled_final/1279_rv.mp4	0.0	159.7208480834961	2.508765935897827
26	145.60599303245544	pulse	1	t		24.0	2.5	/experiments/knapen_AOT/AOT_stimuli/rescaled_final/1279_rv.mp4	0.0	161.31376194953918	
26	146.52184510231018	fix_post	2		12	24.0	2.5	/experiments/knapen_AOT/AOT_stimuli/rescaled_final/1279_rv.mp4	0.0	162.22961401939392	0.10000491142272949
27	146.6218500137329	fix_pre	0		120	25.0	2.5	/experiments/knapen_AOT/AOT_stimuli/rescaled_final/1450_rv.mp4	0.0	162.32961893081665	1.0001111030578613
27	147.2054421901703	pulse	0	t		25.0	2.5	/experiments/knapen_AOT/AOT_stimuli/rescaled_final/1450_rv.mp4	0.0	162.91321110725403	
27	147.62196111679077	movie	1		242	25.0	2.5	/experiments/knapen_AOT/AOT_stimuli/rescaled_final/1450_rv.mp4	0.0	163.3297300338745	2.5004920959472656
27	148.80581998825073	pulse	1	t		25.0	2.5	/experiments/knapen_AOT/AOT_stimuli/rescaled_final/1450_rv.mp4	0.0	164.51358890533447	
27	150.12245321273804	fix_post	2		12	25.0	2.5	/experiments/knapen_AOT/AOT_stimuli/rescaled_final/1450_rv.mp4	0.0	165.83022212982178	0.09992694854736328
28	150.2223801612854	fix_pre	0		120	26.0	2.5	blank	1.0	165.93014907836914	1.0001468658447266
28	150.40593814849854	pulse	0	t		26.0	2.5	blank	1.0	166.11370706558228	
28	151.22252702713013	movie	1		300	26.0	2.5	blank	1.0	166.93029594421387	2.5003721714019775
28	152.0062232017517	pulse	1	t		26.0	2.5	blank	1.0	167.71399211883545	
28	153.60635709762573	pulse	1	t		26.0	2.5	blank	1.0	169.31412601470947	
28	153.7228991985321	fix_post	2		12	26.0	2.5	blank	1.0	169.43066811561584	0.10002398490905762
29	153.82292318344116	fix_pre	0		120	27.0	2.5	/experiments/knapen_AOT/AOT_stimuli/rescaled_final/1976_fw.mp4	0.0	169.5306921005249	1.0002098083496094
29	154.82313299179077	movie	1		241	27.0	2.5	/experiments/knapen_AOT/AOT_stimuli/rescaled_final/1976_fw.mp4	0.0	170.5309019088745	2.4920361042022705
29	155.2079300880432	pulse	1	t		27.0	2.5	/experiments/knapen_AOT/AOT_stimuli/rescaled_final/1976_fw.mp4	0.0	170.91569900512695	
29	156.80694699287415	pulse	1	t		27.0	2.5	/experiments/knapen_AOT/AOT_stimuli/rescaled_final/1976_fw.mp4	0.0	172.51471590995789	
29	157.31516909599304	fix_post	2		12	27.0	2.5	/experiments/knapen_AOT/AOT_stimuli/rescaled_final/1976_fw.mp4	0.0	173.02293801307678	0.09995603561401367
30	157.41512513160706	fix_pre	0		120	28.0	2.5	/experiments/knapen_AOT/AOT_stimuli/rescaled_final/0826_fw.mp4	0.0	173.1228940486908	1.0001249313354492
30	158.39962100982666	pulse	0	t		28.0	2.5	/experiments/knapen_AOT/AOT_stimuli/rescaled_final/0826_fw.mp4	0.0	174.1073899269104	
30	158.4152500629425	movie	1		244	28.0	2.5	/experiments/knapen_AOT/AOT_stimuli/rescaled_final/0826_fw.mp4	0.0	174.12301898002625	2.5088040828704834
30	160.0080840587616	pulse	1	t		28.0	2.5	/experiments/knapen_AOT/AOT_stimuli/rescaled_final/0826_fw.mp4	0.0	175.71585297584534	
30	160.924054145813	fix_post	2		12	28.0	2.5	/experiments/knapen_AOT/AOT_stimuli/rescaled_final/0826_fw.mp4	0.0	176.63182306289673	0.09995603561401367
31	161.024010181427	fix_pre	0		120	29.0	2.5	/experiments/knapen_AOT/AOT_stimuli/rescaled_final/1011_rv.mp4	0.0	176.73177909851074	1.0001468658447266
31	161.60007119178772	pulse	0	t		29.0	2.5	/experiments/knapen_AOT/AOT_stimuli/rescaled_final/1011_rv.mp4	0.0	177.30784010887146	
31	162.02415704727173	movie	1		243	29.0	2.5	/experiments/knapen_AOT/AOT_stimuli/rescaled_final/1011_rv.mp4	0.0	177.73192596435547	2.500533103942871
31	163.20015406608582	pulse	1	t		29.0	2.5	/experiments/knapen_AOT/AOT_stimuli/rescaled_final/1011_rv.mp4	0.0	178.90792298316956	
31	164.5246901512146	fix_post	2		12	29.0	2.5	/experiments/knapen_AOT/AOT_stimuli/rescaled_final/1011_rv.mp4	0.0	180.23245906829834	0.09980893135070801
32	164.6244990825653	fix_pre	0		118	30.0	2.5	/experiments/knapen_AOT/AOT_stimuli/rescaled_final/1810_rv.mp4	0.0	180.33226799964905	1.0002241134643555
32	164.80054116249084	pulse	0	t		30.0	2.5	/experiments/knapen_AOT/AOT_stimuli/rescaled_final/1810_rv.mp4	0.0	180.50831007957458	
32	165.62472319602966	movie	1		242	30.0	2.5	/experiments/knapen_AOT/AOT_stimuli/rescaled_final/1810_rv.mp4	0.0	181.3324921131134	2.5004568099975586
32	166.39990901947021	pulse	1	t		30.0	2.5	/experiments/knapen_AOT/AOT_stimuli/rescaled_final/1810_rv.mp4	0.0	182.10767793655396	
32	168.00016403198242	pulse	1	t		30.0	2.5	/experiments/knapen_AOT/AOT_stimuli/rescaled_final/1810_rv.mp4	0.0	183.70793294906616	
32	168.12518000602722	fix_post	2		12	30.0	2.5	/experiments/knapen_AOT/AOT_stimuli/rescaled_final/1810_rv.mp4	0.0	183.83294892311096	0.09987401962280273
33	168.22505402565002	fix_pre	0		119	31.0	2.5	/experiments/knapen_AOT/AOT_stimuli/rescaled_final/1646_fw.mp4	0.0	183.93282294273376	0.9918820858001709
33	169.2169361114502	movie	1		242	31.0	2.5	/experiments/knapen_AOT/AOT_stimuli/rescaled_final/1646_fw.mp4	0.0	184.92470502853394	2.500382900238037
33	169.60176515579224	pulse	1	t		31.0	2.5	/experiments/knapen_AOT/AOT_stimuli/rescaled_final/1646_fw.mp4	0.0	185.30953407287598	
33	171.20077204704285	pulse	1	t		31.0	2.5	/experiments/knapen_AOT/AOT_stimuli/rescaled_final/1646_fw.mp4	0.0	186.9085409641266	
33	171.71731901168823	fix_post	2		12	31.0	2.5	/experiments/knapen_AOT/AOT_stimuli/rescaled_final/1646_fw.mp4	0.0	187.42508792877197	0.09992814064025879
34	171.8172471523285	fix_pre	0		119	32.0	2.5	/experiments/knapen_AOT/AOT_stimuli/rescaled_final/0377_fw.mp4	0.0	187.52501606941223	0.991826057434082
34	172.80104899406433	pulse	0	t		32.0	2.5	/experiments/knapen_AOT/AOT_stimuli/rescaled_final/0377_fw.mp4	0.0	188.50881791114807	
34	172.80907320976257	movie	1		244	32.0	2.5	/experiments/knapen_AOT/AOT_stimuli/rescaled_final/0377_fw.mp4	0.0	188.5168421268463	2.5088038444519043
34	174.4017632007599	pulse	1	t		32.0	2.5	/experiments/knapen_AOT/AOT_stimuli/rescaled_final/0377_fw.mp4	0.0	190.10953211784363	
34	175.31787705421448	fix_post	2		12	32.0	2.5	/experiments/knapen_AOT/AOT_stimuli/rescaled_final/0377_fw.mp4	0.0	191.02564597129822	0.09992194175720215
35	175.41779899597168	fix_pre	0		120	33.0	2.5	/experiments/knapen_AOT/AOT_stimuli/rescaled_final/1378_fw.mp4	0.0	191.12556791305542	1.000190019607544
35	176.00132703781128	pulse	0	t		33.0	2.5	/experiments/knapen_AOT/AOT_stimuli/rescaled_final/1378_fw.mp4	0.0	191.70909595489502	
35	176.41798901557922	movie	1		244	33.0	2.5	/experiments/knapen_AOT/AOT_stimuli/rescaled_final/1378_fw.mp4	0.0	192.12575793266296	2.500336170196533
35	177.60166215896606	pulse	1	t		33.0	2.5	/experiments/knapen_AOT/AOT_stimuli/rescaled_final/1378_fw.mp4	0.0	193.3094310760498	
35	178.91832518577576	fix_post	2		12	33.0	2.5	/experiments/knapen_AOT/AOT_stimuli/rescaled_final/1378_fw.mp4	0.0	194.6260941028595	0.09998583793640137
36	179.01831102371216	fix_pre	0		120	34.0	2.5	/experiments/knapen_AOT/AOT_stimuli/rescaled_final/1056_fw.mp4	0.0	194.7260799407959	1.0002331733703613
36	179.20198917388916	pulse	0	t		34.0	2.5	/experiments/knapen_AOT/AOT_stimuli/rescaled_final/1056_fw.mp4	0.0	194.9097580909729	
36	180.01854419708252	movie	1		242	34.0	2.5	/experiments/knapen_AOT/AOT_stimuli/rescaled_final/1056_fw.mp4	0.0	195.72631311416626	2.5004489421844482
36	180.80215620994568	pulse	1	t		34.0	2.5	/experiments/knapen_AOT/AOT_stimuli/rescaled_final/1056_fw.mp4	0.0	196.50992512702942	
36	182.4021611213684	pulse	1	t		34.0	2.5	/experiments/knapen_AOT/AOT_stimuli/rescaled_final/1056_fw.mp4	0.0	198.10993003845215	
36	182.51899313926697	fix_post	2		12	34.0	2.5	/experiments/knapen_AOT/AOT_stimuli/rescaled_final/1056_fw.mp4	0.0	198.2267620563507	0.09987497329711914
37	182.6188681125641	fix_pre	0		120	35.0	2.5	blank	1.0	198.32663702964783	1.0001530647277832
37	183.61902117729187	movie	1		299	35.0	2.5	blank	1.0	199.3267900943756	2.492079019546509
37	184.00263810157776	pulse	1	t		35.0	2.5	blank	1.0	199.7104070186615	
37	185.60294818878174	pulse	1	t		35.0	2.5	blank	1.0	201.31071710586548	
37	186.11110019683838	fix_post	2		12	35.0	2.5	blank	1.0	201.81886911392212	0.0999598503112793
38	186.21106004714966	fix_pre	0		120	36.0	2.5	/experiments/knapen_AOT/AOT_stimuli/rescaled_final/0364_fw.mp4	0.0	201.9188289642334	1.000133991241455
38	187.20319509506226	pulse	0	t		36.0	2.5	/experiments/knapen_AOT/AOT_stimuli/rescaled_final/0364_fw.mp4	0.0	202.910964012146	
38	187.2111940383911	movie	1		245	36.0	2.5	/experiments/knapen_AOT/AOT_stimuli/rescaled_final/0364_fw.mp4	0.0	202.91896295547485	2.5087921619415283
38	188.80769419670105	pulse	1	t		36.0	2.5	/experiments/knapen_AOT/AOT_stimuli/rescaled_final/0364_fw.mp4	0.0	204.5154631137848	
38	189.71998620033264	fix_post	2		12	36.0	2.5	/experiments/knapen_AOT/AOT_stimuli/rescaled_final/0364_fw.mp4	0.0	205.42775511741638	0.10002398490905762
39	189.8200101852417	fix_pre	0		120	37.0	2.5	/experiments/knapen_AOT/AOT_stimuli/rescaled_final/0021_fw.mp4	0.0	205.52777910232544	1.0001299381256104
39	190.4035120010376	pulse	0	t		37.0	2.5	/experiments/knapen_AOT/AOT_stimuli/rescaled_final/0021_fw.mp4	0.0	206.11128091812134	
39	190.8201401233673	movie	1		244	37.0	2.5	/experiments/knapen_AOT/AOT_stimuli/rescaled_final/0021_fw.mp4	0.0	206.52790904045105	2.5003159046173096
39	192.00386714935303	pulse	1	t		37.0	2.5	/experiments/knapen_AOT/AOT_stimuli/rescaled_final/0021_fw.mp4	0.0	207.71163606643677	
39	193.32045602798462	fix_post	2		12	37.0	2.5	/experiments/knapen_AOT/AOT_stimuli/rescaled_final/0021_fw.mp4	0.0	209.02822494506836	0.10007905960083008
40	193.42053508758545	fix_pre	0		120	38.0	2.5	/experiments/knapen_AOT/AOT_stimuli/rescaled_final/1902_fw.mp4	0.0	209.1283040046692	1.0001680850982666
40	193.60400700569153	pulse	0	t		38.0	2.5	/experiments/knapen_AOT/AOT_stimuli/rescaled_final/1902_fw.mp4	0.0	209.31177592277527	
40	194.42070317268372	movie	1		243	38.0	2.5	/experiments/knapen_AOT/AOT_stimuli/rescaled_final/1902_fw.mp4	0.0	210.12847208976746	2.5005228519439697
40	195.2043011188507	pulse	1	t		38.0	2.5	/experiments/knapen_AOT/AOT_stimuli/rescaled_final/1902_fw.mp4	0.0	210.91207003593445	
40	196.8044571876526	pulse	1	t		38.0	2.5	/experiments/knapen_AOT/AOT_stimuli/rescaled_final/1902_fw.mp4	0.0	212.51222610473633	
40	196.92122602462769	fix_post	2		12	38.0	2.5	/experiments/knapen_AOT/AOT_stimuli/rescaled_final/1902_fw.mp4	0.0	212.62899494171143	0.09983110427856445
41	197.02105712890625	fix_pre	0		120	39.0	2.5	/experiments/knapen_AOT/AOT_stimuli/rescaled_final/1385_fw.mp4	0.0	212.72882604599	1.0001070499420166
41	198.02116417884827	movie	1		242	39.0	2.5	/experiments/knapen_AOT/AOT_stimuli/rescaled_final/1385_fw.mp4	0.0	213.728933095932	2.4921658039093018
41	198.40580701828003	pulse	1	t		39.0	2.5	/experiments/knapen_AOT/AOT_stimuli/rescaled_final/1385_fw.mp4	0.0	214.11357593536377	
41	200.00508618354797	pulse	1	t		39.0	2.5	/experiments/knapen_AOT/AOT_stimuli/rescaled_final/1385_fw.mp4	0.0	215.7128551006317	
41	200.51332998275757	fix_post	2		12	39.0	2.5	/experiments/knapen_AOT/AOT_stimuli/rescaled_final/1385_fw.mp4	0.0	216.2210988998413	0.09990715980529785
42	200.61323714256287	fix_pre	0		120	40.0	2.5	/experiments/knapen_AOT/AOT_stimuli/rescaled_final/0606_rv.mp4	0.0	216.3210060596466	1.000114917755127
42	201.60531902313232	pulse	0	t		40.0	2.5	/experiments/knapen_AOT/AOT_stimuli/rescaled_final/0606_rv.mp4	0.0	217.31308794021606	
42	201.613352060318	movie	1		244	40.0	2.5	/experiments/knapen_AOT/AOT_stimuli/rescaled_final/0606_rv.mp4	0.0	217.32112097740173	2.5088069438934326
42	203.20609617233276	pulse	1	t		40.0	2.5	/experiments/knapen_AOT/AOT_stimuli/rescaled_final/0606_rv.mp4	0.0	218.9138650894165	
42	204.12215900421143	fix_post	2		12	40.0	2.5	/experiments/knapen_AOT/AOT_stimuli/rescaled_final/0606_rv.mp4	0.0	219.82992792129517	0.09997320175170898
43	204.22213220596313	fix_pre	0		120	41.0	2.5	/experiments/knapen_AOT/AOT_stimuli/rescaled_final/2154_rv.mp4	0.0	219.92990112304688	1.0001089572906494
43	204.80571603775024	pulse	0	t		41.0	2.5	/experiments/knapen_AOT/AOT_stimuli/rescaled_final/2154_rv.mp4	0.0	220.51348495483398	
43	205.22224116325378	movie	1		243	41.0	2.5	/experiments/knapen_AOT/AOT_stimuli/rescaled_final/2154_rv.mp4	0.0	220.93001008033752	2.500535011291504
43	206.40612316131592	pulse	1	t		41.0	2.5	/experiments/knapen_AOT/AOT_stimuli/rescaled_final/2154_rv.mp4	0.0	222.11389207839966	
43	207.7227761745453	fix_post	2		12	41.0	2.5	/experiments/knapen_AOT/AOT_stimuli/rescaled_final/2154_rv.mp4	0.0	223.43054509162903	0.09991788864135742
44	207.82269406318665	fix_pre	0		120	42.0	2.5	blank	1.0	223.53046298027039	1.000169038772583
44	208.00621104240417	pulse	0	t		42.0	2.5	blank	1.0	223.71397995948792	
44	208.82286310195923	movie	1		300	42.0	2.5	blank	1.0	224.53063201904297	2.500369071960449
44	209.6063950061798	pulse	1	t		42.0	2.5	blank	1.0	225.31416392326355	
44	211.20658206939697	pulse	1	t		42.0	2.5	blank	1.0	226.9143509864807	
44	211.32323217391968	fix_post	2		12	42.0	2.5	blank	1.0	227.03100109100342	0.09995102882385254
45	211.42318320274353	fix_pre	0		120	43.0	2.5	/experiments/knapen_AOT/AOT_stimuli/rescaled_final/0805_fw.mp4	0.0	227.13095211982727	1.0001189708709717
45	212.4233021736145	movie	1		242	43.0	2.5	/experiments/knapen_AOT/AOT_stimuli/rescaled_final/0805_fw.mp4	0.0	228.13107109069824	2.4921820163726807
45	212.80804920196533	pulse	1	t		43.0	2.5	/experiments/knapen_AOT/AOT_stimuli/rescaled_final/0805_fw.mp4	0.0	228.51581811904907	
45	214.4072470664978	pulse	1	t		43.0	2.5	/experiments/knapen_AOT/AOT_stimuli/rescaled_final/0805_fw.mp4	0.0	230.11501598358154	
45	214.91548418998718	fix_post	2		12	43.0	2.5	/experiments/knapen_AOT/AOT_stimuli/rescaled_final/0805_fw.mp4	0.0	230.62325310707092	0.0998539924621582
46	215.01533818244934	fix_pre	0		120	44.0	2.5	/experiments/knapen_AOT/AOT_stimuli/rescaled_final/1009_fw.mp4	0.0	230.72310709953308	1.0001728534698486
46	216.00743508338928	pulse	0	t		44.0	2.5	/experiments/knapen_AOT/AOT_stimuli/rescaled_final/1009_fw.mp4	0.0	231.71520400047302	
46	216.0155110359192	movie	1		244	44.0	2.5	/experiments/knapen_AOT/AOT_stimuli/rescaled_final/1009_fw.mp4	0.0	231.72327995300293	2.5088391304016113
46	217.60898804664612	pulse	1	t		44.0	2.5	/experiments/knapen_AOT/AOT_stimuli/rescaled_final/1009_fw.mp4	0.0	233.31675696372986	
46	218.5243501663208	fix_post	2		12	44.0	2.5	/experiments/knapen_AOT/AOT_stimuli/rescaled_final/1009_fw.mp4	0.0	234.23211908340454	0.09987902641296387
47	218.62422919273376	fix_pre	0		120	45.0	2.5	/experiments/knapen_AOT/AOT_stimuli/rescaled_final/2091_fw.mp4	0.0	234.3319981098175	1.0001590251922607
47	219.20042419433594	pulse	0	t		45.0	2.5	/experiments/knapen_AOT/AOT_stimuli/rescaled_final/2091_fw.mp4	0.0	234.90819311141968	
47	219.62438821792603	movie	1		242	45.0	2.5	/experiments/knapen_AOT/AOT_stimuli/rescaled_final/2091_fw.mp4	0.0	235.33215713500977	2.500549793243408
47	220.80416321754456	pulse	1	t		45.0	2.5	/experiments/knapen_AOT/AOT_stimuli/rescaled_final/2091_fw.mp4	0.0	236.5119321346283	
47	222.12493801116943	fix_post	2		12	45.0	2.5	/experiments/knapen_AOT/AOT_stimuli/rescaled_final/2091_fw.mp4	0.0	237.83270692825317	0.09989213943481445
48	222.22483015060425	fix_pre	0		120	46.0	2.5	/experiments/knapen_AOT/AOT_stimuli/rescaled_final/1662_rv.mp4	0.0	237.932599067688	1.0001070499420166
48	222.40084409713745	pulse	0	t		46.0	2.5	/experiments/knapen_AOT/AOT_stimuli/rescaled_final/1662_rv.mp4	0.0	238.1086130142212	
48	223.22493720054626	movie	1		238	46.0	2.5	/experiments/knapen_AOT/AOT_stimuli/rescaled_final/1662_rv.mp4	0.0	238.93270611763	2.500450849533081
48	224.00125908851624	pulse	1	t		46.0	2.5	/experiments/knapen_AOT/AOT_stimuli/rescaled_final/1662_rv.mp4	0.0	239.70902800559998	
48	225.60860204696655	pulse	1	t		46.0	2.5	/experiments/knapen_AOT/AOT_stimuli/rescaled_final/1662_rv.mp4	0.0	241.3163709640503	
48	225.72538805007935	fix_post	2		12	46.0	2.5	/experiments/knapen_AOT/AOT_stimuli/rescaled_final/1662_rv.mp4	0.0	241.4331569671631	0.09990501403808594
49	225.82529306411743	fix_pre	0		120	47.0	2.5	/experiments/knapen_AOT/AOT_stimuli/rescaled_final/1729_fw.mp4	0.0	241.53306198120117	1.0002350807189941
49	226.82552814483643	movie	1		241	47.0	2.5	/experiments/knapen_AOT/AOT_stimuli/rescaled_final/1729_fw.mp4	0.0	242.53329706192017	2.492089033126831
49	227.20071816444397	pulse	1	t		47.0	2.5	/experiments/knapen_AOT/AOT_stimuli/rescaled_final/1729_fw.mp4	0.0	242.9084870815277	
49	228.80098700523376	pulse	1	t		47.0	2.5	/experiments/knapen_AOT/AOT_stimuli/rescaled_final/1729_fw.mp4	0.0	244.5087559223175	
49	229.31761717796326	fix_post	2		12	47.0	2.5	/experiments/knapen_AOT/AOT_stimuli/rescaled_final/1729_fw.mp4	0.0	245.025386095047	0.0999000072479248
50	229.41751718521118	fix_pre	0		119	48.0	2.5	/experiments/knapen_AOT/AOT_stimuli/rescaled_final/0784_fw.mp4	0.0	245.12528610229492	0.9917948246002197
50	230.4013020992279	pulse	0	t		48.0	2.5	/experiments/knapen_AOT/AOT_stimuli/rescaled_final/0784_fw.mp4	0.0	246.10907101631165	
50	230.4093120098114	movie	1		244	48.0	2.5	/experiments/knapen_AOT/AOT_stimuli/rescaled_final/0784_fw.mp4	0.0	246.11708092689514	2.5087971687316895
50	232.00264501571655	pulse	1	t		48.0	2.5	/experiments/knapen_AOT/AOT_stimuli/rescaled_final/0784_fw.mp4	0.0	247.7104139328003	
50	232.9181091785431	fix_post	2		12	48.0	2.5	/experiments/knapen_AOT/AOT_stimuli/rescaled_final/0784_fw.mp4	0.0	248.62587809562683	0.1000068187713623
51	233.01811599731445	fix_pre	0		120	49.0	2.5	blank	1.0	248.7258849143982	1.000128984451294
51	233.60164403915405	pulse	0	t		49.0	2.5	blank	1.0	249.3094129562378	
51	234.01824498176575	movie	1		300	49.0	2.5	blank	1.0	249.7260138988495	2.5003762245178223
51	235.20189714431763	pulse	1	t		49.0	2.5	blank	1.0	250.90966606140137	
51	236.51862120628357	fix_post	2		12	49.0	2.5	blank	1.0	252.2263901233673	0.10001087188720703
52	236.61863207817078	fix_pre	0		120	50.0	2.5	/experiments/knapen_AOT/AOT_stimuli/rescaled_final/1847_rv.mp4	0.0	252.32640099525452	1.0000951290130615
52	236.8021171092987	pulse	0	t		50.0	2.5	/experiments/knapen_AOT/AOT_stimuli/rescaled_final/1847_rv.mp4	0.0	252.50988602638245	
52	237.61872720718384	movie	1		242	50.0	2.5	/experiments/knapen_AOT/AOT_stimuli/rescaled_final/1847_rv.mp4	0.0	253.32649612426758	2.500527858734131
52	238.40237307548523	pulse	1	t		50.0	2.5	/experiments/knapen_AOT/AOT_stimuli/rescaled_final/1847_rv.mp4	0.0	254.11014199256897	
52	240.00246620178223	pulse	1	t		50.0	2.5	/experiments/knapen_AOT/AOT_stimuli/rescaled_final/1847_rv.mp4	0.0	255.71023511886597	
52	240.11925506591797	fix_post	2		12	50.0	2.5	/experiments/knapen_AOT/AOT_stimuli/rescaled_final/1847_rv.mp4	0.0	255.8270239830017	0.09992814064025879
53	240.21918320655823	fix_pre	0		120	51.0	2.5	/experiments/knapen_AOT/AOT_stimuli/rescaled_final/0477_rv.mp4	0.0	255.92695212364197	1.0001440048217773
53	241.21932721138	movie	1		242	51.0	2.5	/experiments/knapen_AOT/AOT_stimuli/rescaled_final/0477_rv.mp4	0.0	256.92709612846375	2.4921228885650635
53	241.603502035141	pulse	1	t		51.0	2.5	/experiments/knapen_AOT/AOT_stimuli/rescaled_final/0477_rv.mp4	0.0	257.31127095222473	
53	243.20309615135193	pulse	1	t		51.0	2.5	/experiments/knapen_AOT/AOT_stimuli/rescaled_final/0477_rv.mp4	0.0	258.91086506843567	
53	243.71145009994507	fix_post	2		12	51.0	2.5	/experiments/knapen_AOT/AOT_stimuli/rescaled_final/0477_rv.mp4	0.0	259.4192190170288	0.09997200965881348
54	243.81142210960388	fix_pre	0		120	52.0	2.5	/experiments/knapen_AOT/AOT_stimuli/rescaled_final/1279_fw.mp4	0.0	259.5191910266876	1.0000460147857666
54	244.80333805084229	pulse	0	t		52.0	2.5	/experiments/knapen_AOT/AOT_stimuli/rescaled_final/1279_fw.mp4	0.0	260.511106967926	
54	244.81146812438965	movie	1		244	52.0	2.5	/experiments/knapen_AOT/AOT_stimuli/rescaled_final/1279_fw.mp4	0.0	260.5192370414734	2.508765935897827
54	246.40429615974426	pulse	1	t		52.0	2.5	/experiments/knapen_AOT/AOT_stimuli/rescaled_final/1279_fw.mp4	0.0	262.112065076828	
54	247.32023406028748	fix_post	2		12	52.0	2.5	/experiments/knapen_AOT/AOT_stimuli/rescaled_final/1279_fw.mp4	0.0	263.0280029773712	0.09998393058776855
55	247.42021799087524	fix_pre	0		120	53.0	2.5	/experiments/knapen_AOT/AOT_stimuli/rescaled_final/0280_rv.mp4	0.0	263.127986907959	1.0001602172851562
55	248.00389504432678	pulse	0	t		53.0	2.5	/experiments/knapen_AOT/AOT_stimuli/rescaled_final/0280_rv.mp4	0.0	263.7116639614105	
55	248.4203782081604	movie	1		242	53.0	2.5	/experiments/knapen_AOT/AOT_stimuli/rescaled_final/0280_rv.mp4	0.0	264.12814712524414	2.500544786453247
55	249.60419702529907	pulse	1	t		53.0	2.5	/experiments/knapen_AOT/AOT_stimuli/rescaled_final/0280_rv.mp4	0.0	265.3119659423828	
55	250.92092299461365	fix_post	2		12	53.0	2.5	/experiments/knapen_AOT/AOT_stimuli/rescaled_final/0280_rv.mp4	0.0	266.6286919116974	0.09983706474304199
56	251.0207600593567	fix_pre	0		120	54.0	2.5	blank	1.0	266.72852897644043	1.000133991241455
56	251.2043001651764	pulse	0	t		54.0	2.5	blank	1.0	266.91206908226013	
56	252.02089405059814	movie	1		300	54.0	2.5	blank	1.0	267.7286629676819	2.5003650188446045
56	252.80448007583618	pulse	1	t		54.0	2.5	blank	1.0	268.5122489929199	
56	254.40487718582153	pulse	1	t		54.0	2.5	blank	1.0	270.1126461029053	
56	254.52125906944275	fix_post	2		12	54.0	2.5	blank	1.0	270.2290279865265	0.10002398490905762
57	254.6212830543518	fix_pre	0		120	55.0	2.5	/experiments/knapen_AOT/AOT_stimuli/rescaled_final/0714_fw.mp4	0.0	270.32905197143555	1.0001859664916992
57	255.6214690208435	movie	1		242	55.0	2.5	/experiments/knapen_AOT/AOT_stimuli/rescaled_final/0714_fw.mp4	0.0	271.32923793792725	2.492124080657959
57	256.0065121650696	pulse	1	t		55.0	2.5	/experiments/knapen_AOT/AOT_stimuli/rescaled_final/0714_fw.mp4	0.0	271.7142810821533	
57	257.60531306266785	pulse	1	t		55.0	2.5	/experiments/knapen_AOT/AOT_stimuli/rescaled_final/0714_fw.mp4	0.0	273.3130819797516	
57	258.11359310150146	fix_post	2		12	55.0	2.5	/experiments/knapen_AOT/AOT_stimuli/rescaled_final/0714_fw.mp4	0.0	273.8213620185852	0.09998393058776855
58	258.21357703208923	fix_pre	0		120	56.0	2.5	/experiments/knapen_AOT/AOT_stimuli/rescaled_final/0666_fw.mp4	0.0	273.921345949173	1.0001389980316162
58	259.2054491043091	pulse	0	t		56.0	2.5	/experiments/knapen_AOT/AOT_stimuli/rescaled_final/0666_fw.mp4	0.0	274.9132180213928	
58	259.21371603012085	movie	1		243	56.0	2.5	/experiments/knapen_AOT/AOT_stimuli/rescaled_final/0666_fw.mp4	0.0	274.9214849472046	2.5086851119995117
58	260.8062310218811	pulse	1	t		56.0	2.5	/experiments/knapen_AOT/AOT_stimuli/rescaled_final/0666_fw.mp4	0.0	276.51399993896484	
58	261.72240114212036	fix_post	2		12	56.0	2.5	/experiments/knapen_AOT/AOT_stimuli/rescaled_final/0666_fw.mp4	0.0	277.4301700592041	0.09995102882385254
59	261.8223521709442	fix_pre	0		120	57.0	2.5	/experiments/knapen_AOT/AOT_stimuli/rescaled_final/0299_fw.mp4	0.0	277.53012108802795	1.0002269744873047
59	262.40605902671814	pulse	0	t		57.0	2.5	/experiments/knapen_AOT/AOT_stimuli/rescaled_final/0299_fw.mp4	0.0	278.1138279438019	
59	262.8225791454315	movie	1		243	57.0	2.5	/experiments/knapen_AOT/AOT_stimuli/rescaled_final/0299_fw.mp4	0.0	278.53034806251526	2.5005390644073486
59	264.00625801086426	pulse	1	t		57.0	2.5	/experiments/knapen_AOT/AOT_stimuli/rescaled_final/0299_fw.mp4	0.0	279.714026927948	
59	265.32311820983887	fix_post	2		12	57.0	2.5	/experiments/knapen_AOT/AOT_stimuli/rescaled_final/0299_fw.mp4	0.0	281.0308871269226	0.09979581832885742
60	265.4229140281677	fix_pre	0		120	58.0	2.5	/experiments/knapen_AOT/AOT_stimuli/rescaled_final/1295_rv.mp4	0.0	281.13068294525146	1.000133991241455
60	265.6064431667328	pulse	0	t		58.0	2.5	/experiments/knapen_AOT/AOT_stimuli/rescaled_final/1295_rv.mp4	0.0	281.3142120838165	
60	266.4230480194092	movie	1		242	58.0	2.5	/experiments/knapen_AOT/AOT_stimuli/rescaled_final/1295_rv.mp4	0.0	282.1308169364929	2.4921321868896484
60	267.206787109375	pulse	1	t		58.0	2.5	/experiments/knapen_AOT/AOT_stimuli/rescaled_final/1295_rv.mp4	0.0	282.91455602645874	
60	268.80666303634644	pulse	1	t		58.0	2.5	/experiments/knapen_AOT/AOT_stimuli/rescaled_final/1295_rv.mp4	0.0	284.5144319534302	
60	268.9151802062988	fix_post	2		13	58.0	2.5	/experiments/knapen_AOT/AOT_stimuli/rescaled_final/1295_rv.mp4	0.0	284.62294912338257	0.10834884643554688
61	269.0235290527344	fix_pre	0		120	59.0	2.5	/experiments/knapen_AOT/AOT_stimuli/rescaled_final/1229_rv.mp4	0.0	284.7312979698181	1.0000920295715332
61	270.0236210823059	movie	1		242	59.0	2.5	/experiments/knapen_AOT/AOT_stimuli/rescaled_final/1229_rv.mp4	0.0	285.73138999938965	2.492281913757324
61	270.4076671600342	pulse	1	t		59.0	2.5	/experiments/knapen_AOT/AOT_stimuli/rescaled_final/1229_rv.mp4	0.0	286.1154360771179	
61	272.0001931190491	pulse	1	t		59.0	2.5	/experiments/knapen_AOT/AOT_stimuli/rescaled_final/1229_rv.mp4	0.0	287.7079620361328	
61	272.51590299606323	fix_post	2		12	59.0	2.5	/experiments/knapen_AOT/AOT_stimuli/rescaled_final/1229_rv.mp4	0.0	288.223671913147	0.0997610092163086
62	272.61566400527954	fix_pre	0		120	60.0	2.5	/experiments/knapen_AOT/AOT_stimuli/rescaled_final/1726_fw.mp4	0.0	288.3234329223633	1.0001142024993896
62	273.600093126297	pulse	0	t		60.0	2.5	/experiments/knapen_AOT/AOT_stimuli/rescaled_final/1726_fw.mp4	0.0	289.30786204338074	
62	273.61577820777893	movie	1		243	60.0	2.5	/experiments/knapen_AOT/AOT_stimuli/rescaled_final/1726_fw.mp4	0.0	289.32354712486267	2.5088257789611816
62	275.2082030773163	pulse	1	t		60.0	2.5	/experiments/knapen_AOT/AOT_stimuli/rescaled_final/1726_fw.mp4	0.0	290.9159719944	
62	276.1246039867401	fix_post	2		12	60.0	2.5	/experiments/knapen_AOT/AOT_stimuli/rescaled_final/1726_fw.mp4	0.0	291.83237290382385	0.09998512268066406
63	276.2245891094208	fix_pre	0		120	61.0	2.5	/experiments/knapen_AOT/AOT_stimuli/rescaled_final/1363_fw.mp4	0.0	291.9323580265045	1.0000879764556885
63	276.8006410598755	pulse	0	t		61.0	2.5	/experiments/knapen_AOT/AOT_stimuli/rescaled_final/1363_fw.mp4	0.0	292.50840997695923	
63	277.22467708587646	movie	1		242	61.0	2.5	/experiments/knapen_AOT/AOT_stimuli/rescaled_final/1363_fw.mp4	0.0	292.9324460029602	2.500577926635742
63	278.40125918388367	pulse	1	t		61.0	2.5	/experiments/knapen_AOT/AOT_stimuli/rescaled_final/1363_fw.mp4	0.0	294.1090281009674	
63	279.7252550125122	fix_post	2		12	61.0	2.5	/experiments/knapen_AOT/AOT_stimuli/rescaled_final/1363_fw.mp4	0.0	295.43302392959595	0.09982609748840332
64	279.8250811100006	fix_pre	0		120	62.0	2.5	blank	1.0	295.53285002708435	1.0001060962677002
64	280.00040102005005	pulse	0	t		62.0	2.5	blank	1.0	295.7081699371338	
64	280.8251872062683	movie	1		300	62.0	2.5	blank	1.0	296.53295612335205	2.500417947769165
64	281.60041403770447	pulse	1	t		62.0	2.5	blank	1.0	297.3081829547882	
64	283.2007281780243	pulse	1	t		62.0	2.5	blank	1.0	298.90849709510803	
64	283.3256051540375	fix_post	2		12	62.0	2.5	blank	1.0	299.0333740711212	0.10005784034729004
65	283.42566299438477	fix_pre	0		120	63.0	2.5	/experiments/knapen_AOT/AOT_stimuli/rescaled_final/2032_fw.mp4	0.0	299.1334319114685	1.0001041889190674
65	284.42576718330383	movie	1		241	63.0	2.5	/experiments/knapen_AOT/AOT_stimuli/rescaled_final/2032_fw.mp4	0.0	300.1335361003876	2.492050886154175
65	284.8011291027069	pulse	1	t		63.0	2.5	/experiments/knapen_AOT/AOT_stimuli/rescaled_final/2032_fw.mp4	0.0	300.50889801979065	
65	286.40138006210327	pulse	1	t		63.0	2.5	/experiments/knapen_AOT/AOT_stimuli/rescaled_final/2032_fw.mp4	0.0	302.109148979187	
65	286.917818069458	fix_post	2		12	63.0	2.5	/experiments/knapen_AOT/AOT_stimuli/rescaled_final/2032_fw.mp4	0.0	302.62558698654175	0.10002493858337402
66	287.0178430080414	fix_pre	0		116	64.0	2.5	/experiments/knapen_AOT/AOT_stimuli/rescaled_final/1519_fw.mp4	0.0	302.7256119251251	0.991786003112793
66	288.0013802051544	pulse	0	t		64.0	2.5	/experiments/knapen_AOT/AOT_stimuli/rescaled_final/1519_fw.mp4	0.0	303.70914912223816	
66	288.0096290111542	movie	1		243	64.0	2.5	/experiments/knapen_AOT/AOT_stimuli/rescaled_final/1519_fw.mp4	0.0	303.7173979282379	2.508780002593994
66	289.6022720336914	pulse	1	t		64.0	2.5	/experiments/knapen_AOT/AOT_stimuli/rescaled_final/1519_fw.mp4	0.0	305.31004095077515	
66	290.51840901374817	fix_post	2		12	64.0	2.5	/experiments/knapen_AOT/AOT_stimuli/rescaled_final/1519_fw.mp4	0.0	306.2261779308319	0.09990215301513672
67	290.6183111667633	fix_pre	0		120	65.0	2.5	/experiments/knapen_AOT/AOT_stimuli/rescaled_final/1336_rv.mp4	0.0	306.32608008384705	1.0002470016479492
67	291.20193099975586	pulse	0	t		65.0	2.5	/experiments/knapen_AOT/AOT_stimuli/rescaled_final/1336_rv.mp4	0.0	306.9096999168396	
67	291.61855816841125	movie	1		243	65.0	2.5	/experiments/knapen_AOT/AOT_stimuli/rescaled_final/1336_rv.mp4	0.0	307.326327085495	2.500337839126587
67	292.80238103866577	pulse	1	t		65.0	2.5	/experiments/knapen_AOT/AOT_stimuli/rescaled_final/1336_rv.mp4	0.0	308.5101499557495	
67	294.11889600753784	fix_post	2		12	65.0	2.5	/experiments/knapen_AOT/AOT_stimuli/rescaled_final/1336_rv.mp4	0.0	309.8266649246216	0.09995198249816895
68	294.218847990036	fix_pre	0		120	66.0	2.5	/experiments/knapen_AOT/AOT_stimuli/rescaled_final/0614_fw.mp4	0.0	309.92661690711975	1.0001840591430664
68	294.40235900878906	pulse	0	t		66.0	2.5	/experiments/knapen_AOT/AOT_stimuli/rescaled_final/0614_fw.mp4	0.0	310.1101279258728	
68	295.2190320491791	movie	1		242	66.0	2.5	/experiments/knapen_AOT/AOT_stimuli/rescaled_final/0614_fw.mp4	0.0	310.9268009662628	2.492232084274292
68	296.0027391910553	pulse	1	t		66.0	2.5	/experiments/knapen_AOT/AOT_stimuli/rescaled_final/0614_fw.mp4	0.0	311.71050810813904	
68	297.6026999950409	pulse	1	t		66.0	2.5	/experiments/knapen_AOT/AOT_stimuli/rescaled_final/0614_fw.mp4	0.0	313.31046891212463	
68	297.71126413345337	fix_post	2		13	66.0	2.5	/experiments/knapen_AOT/AOT_stimuli/rescaled_final/0614_fw.mp4	0.0	313.4190330505371	0.10813403129577637
69	297.81939816474915	fix_pre	0		119	67.0	2.5	/experiments/knapen_AOT/AOT_stimuli/rescaled_final/0435_rv.mp4	0.0	313.5271670818329	0.9917988777160645
69	298.8111970424652	movie	1		243	67.0	2.5	/experiments/knapen_AOT/AOT_stimuli/rescaled_final/0435_rv.mp4	0.0	314.51896595954895	2.5005180835723877
69	299.20340299606323	pulse	1	t		67.0	2.5	/experiments/knapen_AOT/AOT_stimuli/rescaled_final/0435_rv.mp4	0.0	314.911171913147	
69	300.8034121990204	pulse	1	t		67.0	2.5	/experiments/knapen_AOT/AOT_stimuli/rescaled_final/0435_rv.mp4	0.0	316.5111811161041	
69	301.3117151260376	fix_post	2		12	67.0	2.5	/experiments/knapen_AOT/AOT_stimuli/rescaled_final/0435_rv.mp4	0.0	317.01948404312134	0.09998607635498047
70	301.4117012023926	fix_pre	0		120	68.0	2.5	/experiments/knapen_AOT/AOT_stimuli/rescaled_final/1944_rv.mp4	0.0	317.1194701194763	1.000086784362793
70	302.4035642147064	pulse	0	t		68.0	2.5	/experiments/knapen_AOT/AOT_stimuli/rescaled_final/1944_rv.mp4	0.0	318.11133313179016	
70	302.41178798675537	movie	1		244	68.0	2.5	/experiments/knapen_AOT/AOT_stimuli/rescaled_final/1944_rv.mp4	0.0	318.1195569038391	2.508639097213745
70	304.00496912002563	pulse	1	t		68.0	2.5	/experiments/knapen_AOT/AOT_stimuli/rescaled_final/1944_rv.mp4	0.0	319.7127380371094	
70	304.9204270839691	fix_post	2		12	68.0	2.5	/experiments/knapen_AOT/AOT_stimuli/rescaled_final/1944_rv.mp4	0.0	320.62819600105286	0.10006904602050781
71	305.0204961299896	fix_pre	0		120	69.0	2.5	blank	1.0	320.72826504707336	1.000154972076416
71	305.6041920185089	pulse	0	t		69.0	2.5	blank	1.0	321.31196093559265	
71	306.02065110206604	movie	1		300	69.0	2.5	blank	1.0	321.7284200191498	2.5003440380096436
71	307.2043640613556	pulse	1	t		69.0	2.5	blank	1.0	322.91213297843933	
71	308.5209951400757	fix_post	2		12	69.0	2.5	blank	1.0	324.2287640571594	0.10005402565002441
72	308.6210491657257	fix_pre	0		120	70.0	2.5	/experiments/knapen_AOT/AOT_stimuli/rescaled_final/0039_fw.mp4	0.0	324.32881808280945	1.000128984451294
72	308.80453300476074	pulse	0	t		70.0	2.5	/experiments/knapen_AOT/AOT_stimuli/rescaled_final/0039_fw.mp4	0.0	324.5123019218445	
72	309.621178150177	movie	1		245	70.0	2.5	/experiments/knapen_AOT/AOT_stimuli/rescaled_final/0039_fw.mp4	0.0	325.32894706726074	2.5003719329833984
72	310.40490102767944	pulse	1	t		70.0	2.5	/experiments/knapen_AOT/AOT_stimuli/rescaled_final/0039_fw.mp4	0.0	326.1126699447632	
72	312.0051031112671	pulse	1	t		70.0	2.5	/experiments/knapen_AOT/AOT_stimuli/rescaled_final/0039_fw.mp4	0.0	327.71287202835083	
72	312.1215500831604	fix_post	2		12	70.0	2.5	/experiments/knapen_AOT/AOT_stimuli/rescaled_final/0039_fw.mp4	0.0	327.82931900024414	0.100006103515625
73	312.221556186676	fix_pre	0		119	71.0	2.5	/experiments/knapen_AOT/AOT_stimuli/rescaled_final/1565_rv.mp4	0.0	327.92932510375977	0.991832971572876
73	313.2133891582489	movie	1		243	71.0	2.5	/experiments/knapen_AOT/AOT_stimuli/rescaled_final/1565_rv.mp4	0.0	328.92115807533264	2.5004589557647705
73	313.6054251194	pulse	1	t		71.0	2.5	/experiments/knapen_AOT/AOT_stimuli/rescaled_final/1565_rv.mp4	0.0	329.31319403648376	
73	315.2054691314697	pulse	1	t		71.0	2.5	/experiments/knapen_AOT/AOT_stimuli/rescaled_final/1565_rv.mp4	0.0	330.91323804855347	
73	315.7138481140137	fix_post	2		12	71.0	2.5	/experiments/knapen_AOT/AOT_stimuli/rescaled_final/1565_rv.mp4	0.0	331.4216170310974	0.09998798370361328
74	315.8138360977173	fix_pre	0		120	72.0	2.5	/experiments/knapen_AOT/AOT_stimuli/rescaled_final/1024_fw.mp4	0.0	331.521605014801	1.0001609325408936
74	316.8057870864868	pulse	0	t		72.0	2.5	/experiments/knapen_AOT/AOT_stimuli/rescaled_final/1024_fw.mp4	0.0	332.51355600357056	
74	316.8139970302582	movie	1		243	72.0	2.5	/experiments/knapen_AOT/AOT_stimuli/rescaled_final/1024_fw.mp4	0.0	332.5217659473419	2.5086820125579834
74	318.40665102005005	pulse	1	t		72.0	2.5	/experiments/knapen_AOT/AOT_stimuli/rescaled_final/1024_fw.mp4	0.0	334.1144199371338	
74	319.32267904281616	fix_post	2		12	72.0	2.5	/experiments/knapen_AOT/AOT_stimuli/rescaled_final/1024_fw.mp4	0.0	335.0304479598999	0.09998011589050293
75	319.42265915870667	fix_pre	0		120	73.0	2.5	/experiments/knapen_AOT/AOT_stimuli/rescaled_final/1916_fw.mp4	0.0	335.1304280757904	1.0001330375671387
75	320.0063509941101	pulse	0	t		73.0	2.5	/experiments/knapen_AOT/AOT_stimuli/rescaled_final/1916_fw.mp4	0.0	335.71411991119385	
75	320.4227921962738	movie	1		242	73.0	2.5	/experiments/knapen_AOT/AOT_stimuli/rescaled_final/1916_fw.mp4	0.0	336.13056111335754	2.500537872314453
75	321.6065020561218	pulse	1	t		73.0	2.5	/experiments/knapen_AOT/AOT_stimuli/rescaled_final/1916_fw.mp4	0.0	337.31427097320557	
75	322.92333006858826	fix_post	2		12	73.0	2.5	/experiments/knapen_AOT/AOT_stimuli/rescaled_final/1916_fw.mp4	0.0	338.631098985672	0.09984612464904785
76	323.0231761932373	fix_pre	0		120	74.0	2.5	/experiments/knapen_AOT/AOT_stimuli/rescaled_final/1130_fw.mp4	0.0	338.73094511032104	1.0001368522644043
76	323.2067930698395	pulse	0	t		74.0	2.5	/experiments/knapen_AOT/AOT_stimuli/rescaled_final/1130_fw.mp4	0.0	338.9145619869232	
76	324.0233130455017	movie	1		243	74.0	2.5	/experiments/knapen_AOT/AOT_stimuli/rescaled_final/1130_fw.mp4	0.0	339.73108196258545	2.5005500316619873
76	324.80691409111023	pulse	1	t		74.0	2.5	/experiments/knapen_AOT/AOT_stimuli/rescaled_final/1130_fw.mp4	0.0	340.51468300819397	
76	326.4071171283722	pulse	1	t		74.0	2.5	/experiments/knapen_AOT/AOT_stimuli/rescaled_final/1130_fw.mp4	0.0	342.11488604545593	
76	326.5238630771637	fix_post	2		12	74.0	2.5	/experiments/knapen_AOT/AOT_stimuli/rescaled_final/1130_fw.mp4	0.0	342.23163199424744	0.09982609748840332
77	326.6236891746521	fix_pre	0		120	75.0	2.5	/experiments/knapen_AOT/AOT_stimuli/rescaled_final/1924_fw.mp4	0.0	342.33145809173584	1.0001778602600098
77	327.6238670349121	movie	1		242	75.0	2.5	/experiments/knapen_AOT/AOT_stimuli/rescaled_final/1924_fw.mp4	0.0	343.33163595199585	2.4921650886535645
77	328.0079720020294	pulse	1	t		75.0	2.5	/experiments/knapen_AOT/AOT_stimuli/rescaled_final/1924_fw.mp4	0.0	343.71574091911316	
77	329.60770416259766	pulse	1	t		75.0	2.5	/experiments/knapen_AOT/AOT_stimuli/rescaled_final/1924_fw.mp4	0.0	345.3154730796814	
77	330.1160321235657	fix_post	2		12	75.0	2.5	/experiments/knapen_AOT/AOT_stimuli/rescaled_final/1924_fw.mp4	0.0	345.8238010406494	0.09985709190368652
78	330.21588921546936	fix_pre	0		120	76.0	2.5	/experiments/knapen_AOT/AOT_stimuli/rescaled_final/1519_rv.mp4	0.0	345.9236581325531	1.000182867050171
78	331.20797514915466	pulse	0	t		76.0	2.5	/experiments/knapen_AOT/AOT_stimuli/rescaled_final/1519_rv.mp4	0.0	346.9157440662384	
78	331.21607208251953	movie	1		243	76.0	2.5	/experiments/knapen_AOT/AOT_stimuli/rescaled_final/1519_rv.mp4	0.0	346.92384099960327	2.508726119995117
78	332.80879402160645	pulse	1	t		76.0	2.5	/experiments/knapen_AOT/AOT_stimuli/rescaled_final/1519_rv.mp4	0.0	348.5165629386902	
78	333.72479820251465	fix_post	2		12	76.0	2.5	/experiments/knapen_AOT/AOT_stimuli/rescaled_final/1519_rv.mp4	0.0	349.4325671195984	0.09998178482055664
79	333.8247799873352	fix_pre	0		120	77.0	2.5	blank	1.0	349.53254890441895	1.0001721382141113
79	334.40083718299866	pulse	0	t		77.0	2.5	blank	1.0	350.1086061000824	
79	334.8249521255493	movie	1		300	77.0	2.5	blank	1.0	350.53272104263306	2.5003459453582764
79	336.0011360645294	pulse	1	t		77.0	2.5	blank	1.0	351.70890498161316	
79	337.3252980709076	fix_post	2		12	77.0	2.5	blank	1.0	353.03306698799133	0.100006103515625
80	337.4253041744232	fix_pre	0		120	78.0	2.5	/experiments/knapen_AOT/AOT_stimuli/rescaled_final/0251_fw.mp4	0.0	353.13307309150696	1.0001659393310547
80	337.6014440059662	pulse	0	t		78.0	2.5	/experiments/knapen_AOT/AOT_stimuli/rescaled_final/0251_fw.mp4	0.0	353.3092129230499	
80	338.4254701137543	movie	1		243	78.0	2.5	/experiments/knapen_AOT/AOT_stimuli/rescaled_final/0251_fw.mp4	0.0	354.133239030838	2.5005340576171875
80	339.2018280029297	pulse	1	t		78.0	2.5	/experiments/knapen_AOT/AOT_stimuli/rescaled_final/0251_fw.mp4	0.0	354.9095969200134	
80	340.8011271953583	pulse	1	t		78.0	2.5	/experiments/knapen_AOT/AOT_stimuli/rescaled_final/0251_fw.mp4	0.0	356.508896112442	
80	340.92600417137146	fix_post	2		12	78.0	2.5	/experiments/knapen_AOT/AOT_stimuli/rescaled_final/0251_fw.mp4	0.0	356.6337730884552	0.09982681274414062
81	341.0258309841156	fix_pre	0		120	79.0	2.5	/experiments/knapen_AOT/AOT_stimuli/rescaled_final/1011_fw.mp4	0.0	356.73359990119934	1.0001530647277832
81	342.0259840488434	movie	1		242	79.0	2.5	/experiments/knapen_AOT/AOT_stimuli/rescaled_final/1011_fw.mp4	0.0	357.7337529659271	2.4921669960021973
81	342.4011740684509	pulse	1	t		79.0	2.5	/experiments/knapen_AOT/AOT_stimuli/rescaled_final/1011_fw.mp4	0.0	358.10894298553467	
81	344.0014901161194	pulse	1	t		79.0	2.5	/experiments/knapen_AOT/AOT_stimuli/rescaled_final/1011_fw.mp4	0.0	359.7092590332031	
81	344.5181510448456	fix_post	2		12	79.0	2.5	/experiments/knapen_AOT/AOT_stimuli/rescaled_final/1011_fw.mp4	0.0	360.2259199619293	0.09988903999328613
82	344.61804008483887	fix_pre	0		119	80.0	2.5	/experiments/knapen_AOT/AOT_stimuli/rescaled_final/1288_fw.mp4	0.0	360.3258090019226	0.9918129444122314
82	345.6017920970917	pulse	0	t		80.0	2.5	/experiments/knapen_AOT/AOT_stimuli/rescaled_final/1288_fw.mp4	0.0	361.3095610141754	
82	345.6098530292511	movie	1		245	80.0	2.5	/experiments/knapen_AOT/AOT_stimuli/rescaled_final/1288_fw.mp4	0.0	361.31762194633484	2.508695125579834
82	347.2064230442047	pulse	1	t		80.0	2.5	/experiments/knapen_AOT/AOT_stimuli/rescaled_final/1288_fw.mp4	0.0	362.91419196128845	
82	348.11854815483093	fix_post	2		12	80.0	2.5	/experiments/knapen_AOT/AOT_stimuli/rescaled_final/1288_fw.mp4	0.0	363.8263170719147	0.10007500648498535
83	348.2186231613159	fix_pre	0		120	81.0	2.5	/experiments/knapen_AOT/AOT_stimuli/rescaled_final/0164_rv.mp4	0.0	363.92639207839966	1.0001819133758545
83	348.8022041320801	pulse	0	t		81.0	2.5	/experiments/knapen_AOT/AOT_stimuli/rescaled_final/0164_rv.mp4	0.0	364.5099730491638	
83	349.2188050746918	movie	1		239	81.0	2.5	/experiments/knapen_AOT/AOT_stimuli/rescaled_final/0164_rv.mp4	0.0	364.9265739917755	2.5003130435943604
83	350.40254402160645	pulse	1	t		81.0	2.5	/experiments/knapen_AOT/AOT_stimuli/rescaled_final/0164_rv.mp4	0.0	366.1103129386902	
83	351.71911811828613	fix_post	2		12	81.0	2.5	/experiments/knapen_AOT/AOT_stimuli/rescaled_final/0164_rv.mp4	0.0	367.4268870353699	0.10002303123474121
84	351.8191411495209	fix_pre	0		120	82.0	2.5	/experiments/knapen_AOT/AOT_stimuli/rescaled_final/1726_fw.mp4	0.0	367.5269100666046	1.0001170635223389
84	352.0028121471405	pulse	0	t		82.0	2.5	/experiments/knapen_AOT/AOT_stimuli/rescaled_final/1726_fw.mp4	0.0	367.71058106422424	
84	352.8192582130432	movie	1		243	82.0	2.5	/experiments/knapen_AOT/AOT_stimuli/rescaled_final/1726_fw.mp4	0.0	368.52702713012695	2.5004208087921143
84	353.6029691696167	pulse	1	t		82.0	2.5	/experiments/knapen_AOT/AOT_stimuli/rescaled_final/1726_fw.mp4	0.0	369.31073808670044	
84	355.20327520370483	pulse	1	t		82.0	2.5	/experiments/knapen_AOT/AOT_stimuli/rescaled_final/1726_fw.mp4	0.0	370.9110441207886	
84	355.3196790218353	fix_post	2		12	82.0	2.5	/experiments/knapen_AOT/AOT_stimuli/rescaled_final/1726_fw.mp4	0.0	371.02744793891907	0.09995412826538086
85	355.4196331501007	fix_pre	0		120	83.0	2.5	blank	1.0	371.12740206718445	1.0002028942108154
85	356.4198360443115	movie	1		299	83.0	2.5	blank	1.0	372.12760496139526	2.49206805229187
85	356.8033401966095	pulse	1	t		83.0	2.5	blank	1.0	372.51110911369324	
85	358.40368914604187	pulse	1	t		83.0	2.5	blank	1.0	374.1114580631256	
85	358.9119040966034	fix_post	2		12	83.0	2.5	blank	1.0	374.61967301368713	0.10003089904785156
87	359.01193499565125	stim	0		1716					374.719703912735	14.302168130874634
87	360.00389313697815	pulse	0	t						375.7116620540619	
87	361.60421419143677	pulse	0	t						377.3119831085205	
87	363.2042820453644	pulse	0	t						378.9120509624481	
87	364.8045802116394	pulse	0	t						380.51234912872314	
87	366.4049050807953	pulse	0	t						382.112673997879	
87	368.00510716438293	pulse	0	t						383.7128760814667	
87	369.60528016090393	pulse	0	t						385.31304907798767	
87	371.20547699928284	pulse	0	t						386.9132459163666	
87	372.80581307411194	pulse	0	t						388.5135819911957	
