trial_nr	onset	event_type	phase	response	nr_frames	movie_index	movie_duration	movie_file	blank	onset_abs	duration
0	0.17491698265075684	stim	0		7					17.199843883514404	0.058205604553222656
0	0.22521162033081055	response	0	space						17.250138521194458	
1	0.2331225872039795	stim	0		4613					17.258049488067627	38.45026707649231
1	38.67341089248657	pulse	0	t						55.69833779335022	
1	38.68338966369629	stim	1		1715					55.70831656455994	14.30769395828247
1	40.27272367477417	pulse	1	t						57.29765057563782	
1	41.87300896644592	pulse	1	t						58.89793586730957	
1	43.47317433357239	pulse	1	t						60.498101234436035	
1	45.07363438606262	pulse	1	t						62.09856128692627	
1	46.67364573478699	pulse	1	t						63.698572635650635	
1	48.27393698692322	pulse	1	t						65.29886388778687	
1	49.874155044555664	pulse	1	t						66.89908194541931	
1	51.47437286376953	pulse	1	t						68.49929976463318	
2	52.99108362197876	fix_pre	0		11	0.0	2.5	/experiments/Knapen_AOT/AOT_stimuli/rescaled_final/0020_fw.mp4	0.0	70.01601052284241	0.12513518333435059
2	53.07464098930359	pulse	0	t		0.0	2.5	/experiments/Knapen_AOT/AOT_stimuli/rescaled_final/0020_fw.mp4	0.0	70.09956789016724	
2	53.11621880531311	movie	1		290	0.0	2.5	/experiments/Knapen_AOT/AOT_stimuli/rescaled_final/0020_fw.mp4	0.0	70.14114570617676	2.4752211570739746
2	54.673282861709595	pulse	1	t		0.0	2.5	/experiments/Knapen_AOT/AOT_stimuli/rescaled_final/0020_fw.mp4	0.0	71.69820976257324	
2	55.591439962387085	fix_post	2		12	0.0	2.5	/experiments/Knapen_AOT/AOT_stimuli/rescaled_final/0020_fw.mp4	0.0	72.61636686325073	0.10003519058227539
3	55.69147515296936	fix_pre	0		120	1.0	2.5	/experiments/Knapen_AOT/AOT_stimuli/rescaled_final/0434_fw.mp4	0.0	72.71640205383301	1.0084969997406006
3	56.27514410018921	pulse	0	t		1.0	2.5	/experiments/Knapen_AOT/AOT_stimuli/rescaled_final/0434_fw.mp4	0.0	73.30007100105286	
3	56.69997215270996	movie	1		287	1.0	2.5	/experiments/Knapen_AOT/AOT_stimuli/rescaled_final/0434_fw.mp4	0.0	73.72489905357361	2.492032289505005
3	57.87335658073425	pulse	1	t		1.0	2.5	/experiments/Knapen_AOT/AOT_stimuli/rescaled_final/0434_fw.mp4	0.0	74.8982834815979	
3	59.192004442214966	fix_post	2		12	1.0	2.5	/experiments/Knapen_AOT/AOT_stimuli/rescaled_final/0434_fw.mp4	0.0	76.21693134307861	0.10002589225769043
4	59.292030334472656	fix_pre	0		120	2.0	2.5	/experiments/Knapen_AOT/AOT_stimuli/rescaled_final/1857_fw.mp4	0.0	76.3169572353363	1.0086019039154053
4	59.47555327415466	pulse	0	t		2.0	2.5	/experiments/Knapen_AOT/AOT_stimuli/rescaled_final/1857_fw.mp4	0.0	76.50048017501831	
4	60.30063223838806	movie	1		289	2.0	2.5	/experiments/Knapen_AOT/AOT_stimuli/rescaled_final/1857_fw.mp4	0.0	77.32555913925171	2.491914987564087
4	61.07378435134888	pulse	1	t		2.0	2.5	/experiments/Knapen_AOT/AOT_stimuli/rescaled_final/1857_fw.mp4	0.0	78.09871125221252	
4	62.674072265625	pulse	1	t		2.0	2.5	/experiments/Knapen_AOT/AOT_stimuli/rescaled_final/1857_fw.mp4	0.0	79.69899916648865	
4	62.79254722595215	fix_post	2		12	2.0	2.5	/experiments/Knapen_AOT/AOT_stimuli/rescaled_final/1857_fw.mp4	0.0	79.8174741268158	0.10000896453857422
5	62.89255619049072	fix_pre	0		120	3.0	2.5	/experiments/Knapen_AOT/AOT_stimuli/rescaled_final/1662_fw.mp4	0.0	79.91748309135437	1.0085177421569824
5	63.901073932647705	movie	1		284	3.0	2.5	/experiments/Knapen_AOT/AOT_stimuli/rescaled_final/1662_fw.mp4	0.0	80.92600083351135	2.4920287132263184
5	64.27548694610596	pulse	1	t		3.0	2.5	/experiments/Knapen_AOT/AOT_stimuli/rescaled_final/1662_fw.mp4	0.0	81.3004138469696	
5	65.87440013885498	pulse	1	t		3.0	2.5	/experiments/Knapen_AOT/AOT_stimuli/rescaled_final/1662_fw.mp4	0.0	82.89932703971863	
5	66.39310264587402	fix_post	2		12	3.0	2.5	/experiments/Knapen_AOT/AOT_stimuli/rescaled_final/1662_fw.mp4	0.0	83.41802954673767	0.10001063346862793
6	66.49311327934265	fix_pre	0		119	4.0	2.5	/experiments/Knapen_AOT/AOT_stimuli/rescaled_final/0120_fw.mp4	0.0	83.5180401802063	1.0001671314239502
6	67.47680306434631	pulse	0	t		4.0	2.5	/experiments/Knapen_AOT/AOT_stimuli/rescaled_final/0120_fw.mp4	0.0	84.50172996520996	
6	67.4932804107666	movie	1		293	4.0	2.5	/experiments/Knapen_AOT/AOT_stimuli/rescaled_final/0120_fw.mp4	0.0	84.51820731163025	2.5003409385681152
6	69.0765163898468	pulse	1	t		4.0	2.5	/experiments/Knapen_AOT/AOT_stimuli/rescaled_final/0120_fw.mp4	0.0	86.10144329071045	
6	69.99362134933472	fix_post	2		12	4.0	2.5	/experiments/Knapen_AOT/AOT_stimuli/rescaled_final/0120_fw.mp4	0.0	87.01854825019836	0.10001945495605469
7	70.09364080429077	fix_pre	0		120	5.0	2.5	/experiments/Knapen_AOT/AOT_stimuli/rescaled_final/0713_rv.mp4	0.0	87.11856770515442	1.0085229873657227
7	70.67725610733032	pulse	0	t		5.0	2.5	/experiments/Knapen_AOT/AOT_stimuli/rescaled_final/0713_rv.mp4	0.0	87.70218300819397	
7	71.1021637916565	movie	1		293	5.0	2.5	/experiments/Knapen_AOT/AOT_stimuli/rescaled_final/0713_rv.mp4	0.0	88.12709069252014	2.492335796356201
7	72.27578711509705	pulse	1	t		5.0	2.5	/experiments/Knapen_AOT/AOT_stimuli/rescaled_final/0713_rv.mp4	0.0	89.3007140159607	
7	73.5944995880127	fix_post	2		12	5.0	2.5	/experiments/Knapen_AOT/AOT_stimuli/rescaled_final/0713_rv.mp4	0.0	90.61942648887634	0.09969687461853027
8	73.69419646263123	fix_pre	0		120	6.0	2.5	/experiments/Knapen_AOT/AOT_stimuli/rescaled_final/0242_fw.mp4	0.0	90.71912336349487	1.00848388671875
8	73.87785339355469	pulse	0	t		6.0	2.5	/experiments/Knapen_AOT/AOT_stimuli/rescaled_final/0242_fw.mp4	0.0	90.90278029441833	
8	74.70268034934998	movie	1		289	6.0	2.5	/experiments/Knapen_AOT/AOT_stimuli/rescaled_final/0242_fw.mp4	0.0	91.72760725021362	2.4920225143432617
8	75.47614622116089	pulse	1	t		6.0	2.5	/experiments/Knapen_AOT/AOT_stimuli/rescaled_final/0242_fw.mp4	0.0	92.50107312202454	
8	77.07749462127686	pulse	1	t		6.0	2.5	/experiments/Knapen_AOT/AOT_stimuli/rescaled_final/0242_fw.mp4	0.0	94.1024215221405	
8	77.19470286369324	fix_post	2		12	6.0	2.5	/experiments/Knapen_AOT/AOT_stimuli/rescaled_final/0242_fw.mp4	0.0	94.21962976455688	0.1000204086303711
9	77.29472327232361	fix_pre	0		120	7.0	2.5	blank	1.0	94.31965017318726	1.0001320838928223
9	78.29485535621643	movie	1		300	7.0	2.5	blank	1.0	95.31978225708008	2.500445604324341
9	78.67846059799194	pulse	1	t		7.0	2.5	blank	1.0	95.70338749885559	
9	80.27869462966919	pulse	1	t		7.0	2.5	blank	1.0	97.30362153053284	
9	80.79530096054077	fix_post	2		12	7.0	2.5	blank	1.0	97.82022786140442	0.09996771812438965
10	80.89526867866516	fix_pre	0		119	8.0	2.5	/experiments/Knapen_AOT/AOT_stimuli/rescaled_final/1486_rv.mp4	0.0	97.92019557952881	1.000115156173706
10	81.87895894050598	pulse	0	t		8.0	2.5	/experiments/Knapen_AOT/AOT_stimuli/rescaled_final/1486_rv.mp4	0.0	98.90388584136963	
10	81.89538383483887	movie	1		280	8.0	2.5	/experiments/Knapen_AOT/AOT_stimuli/rescaled_final/1486_rv.mp4	0.0	98.92031073570251	2.5004160404205322
10	83.47789072990417	pulse	1	t		8.0	2.5	/experiments/Knapen_AOT/AOT_stimuli/rescaled_final/1486_rv.mp4	0.0	100.50281763076782	
10	84.3957998752594	fix_post	2		12	8.0	2.5	/experiments/Knapen_AOT/AOT_stimuli/rescaled_final/1486_rv.mp4	0.0	101.42072677612305	0.10003447532653809
11	84.49583435058594	fix_pre	0		120	9.0	2.5	/experiments/Knapen_AOT/AOT_stimuli/rescaled_final/0737_rv.mp4	0.0	101.52076125144958	1.0084795951843262
11	85.07946681976318	pulse	0	t		9.0	2.5	/experiments/Knapen_AOT/AOT_stimuli/rescaled_final/0737_rv.mp4	0.0	102.10439372062683	
11	85.50431394577026	movie	1		283	9.0	2.5	/experiments/Knapen_AOT/AOT_stimuli/rescaled_final/0737_rv.mp4	0.0	102.52924084663391	2.4920663833618164
11	86.67884111404419	pulse	1	t		9.0	2.5	/experiments/Knapen_AOT/AOT_stimuli/rescaled_final/0737_rv.mp4	0.0	103.70376801490784	
11	87.99638032913208	fix_post	2		12	9.0	2.5	/experiments/Knapen_AOT/AOT_stimuli/rescaled_final/0737_rv.mp4	0.0	105.02130722999573	0.10002923011779785
12	88.09640955924988	fix_pre	0		120	10.0	2.5	/experiments/Knapen_AOT/AOT_stimuli/rescaled_final/1268_rv.mp4	0.0	105.12133646011353	1.00844407081604
12	88.2800726890564	pulse	0	t		10.0	2.5	/experiments/Knapen_AOT/AOT_stimuli/rescaled_final/1268_rv.mp4	0.0	105.30499958992004	
12	89.10485363006592	movie	1		282	10.0	2.5	/experiments/Knapen_AOT/AOT_stimuli/rescaled_final/1268_rv.mp4	0.0	106.12978053092957	2.492018938064575
12	89.87816762924194	pulse	1	t		10.0	2.5	/experiments/Knapen_AOT/AOT_stimuli/rescaled_final/1268_rv.mp4	0.0	106.90309453010559	
12	91.47834849357605	pulse	1	t		10.0	2.5	/experiments/Knapen_AOT/AOT_stimuli/rescaled_final/1268_rv.mp4	0.0	108.5032753944397	
12	91.5968725681305	fix_post	2		12	10.0	2.5	/experiments/Knapen_AOT/AOT_stimuli/rescaled_final/1268_rv.mp4	0.0	108.62179946899414	0.10001301765441895
13	91.69688558578491	fix_pre	0		120	11.0	2.5	/experiments/Knapen_AOT/AOT_stimuli/rescaled_final/0405_rv.mp4	0.0	108.72181248664856	1.0085022449493408
13	92.70538783073425	movie	1		286	11.0	2.5	/experiments/Knapen_AOT/AOT_stimuli/rescaled_final/0405_rv.mp4	0.0	109.7303147315979	2.4922516345977783
13	93.07910656929016	pulse	1	t		11.0	2.5	/experiments/Knapen_AOT/AOT_stimuli/rescaled_final/0405_rv.mp4	0.0	110.10403347015381	
13	94.6787543296814	pulse	1	t		11.0	2.5	/experiments/Knapen_AOT/AOT_stimuli/rescaled_final/0405_rv.mp4	0.0	111.70368123054504	
13	95.19763946533203	fix_post	2		12	11.0	2.5	/experiments/Knapen_AOT/AOT_stimuli/rescaled_final/0405_rv.mp4	0.0	112.22256636619568	0.09979963302612305
14	95.29743909835815	fix_pre	0		118	12.0	2.5	blank	1.0	112.3223659992218	0.9835004806518555
14	96.2731716632843	pulse	0	t		12.0	2.5	blank	1.0	113.29809856414795	
14	96.28093957901001	movie	1		301	12.0	2.5	blank	1.0	113.30586647987366	2.508669376373291
14	97.87317609786987	pulse	1	t		12.0	2.5	blank	1.0	114.89810299873352	
14	98.7896089553833	fix_post	2		12	12.0	2.5	blank	1.0	115.81453585624695	0.10003232955932617
15	98.88964128494263	fix_pre	0		120	13.0	2.5	/experiments/Knapen_AOT/AOT_stimuli/rescaled_final/0379_rv.mp4	0.0	115.91456818580627	1.0085225105285645
15	99.47327971458435	pulse	0	t		13.0	2.5	/experiments/Knapen_AOT/AOT_stimuli/rescaled_final/0379_rv.mp4	0.0	116.498206615448	
15	99.89816379547119	movie	1		289	13.0	2.5	/experiments/Knapen_AOT/AOT_stimuli/rescaled_final/0379_rv.mp4	0.0	116.92309069633484	2.49200177192688
15	101.07356929779053	pulse	1	t		13.0	2.5	/experiments/Knapen_AOT/AOT_stimuli/rescaled_final/0379_rv.mp4	0.0	118.09849619865417	
15	102.39016556739807	fix_post	2		12	13.0	2.5	/experiments/Knapen_AOT/AOT_stimuli/rescaled_final/0379_rv.mp4	0.0	119.41509246826172	0.10012507438659668
16	102.49029064178467	fix_pre	0		120	14.0	2.5	/experiments/Knapen_AOT/AOT_stimuli/rescaled_final/0207_fw.mp4	0.0	119.51521754264832	1.0083980560302734
16	102.67378854751587	pulse	0	t		14.0	2.5	/experiments/Knapen_AOT/AOT_stimuli/rescaled_final/0207_fw.mp4	0.0	119.69871544837952	
16	103.49868869781494	movie	1		293	14.0	2.5	/experiments/Knapen_AOT/AOT_stimuli/rescaled_final/0207_fw.mp4	0.0	120.52361559867859	2.492021322250366
16	104.27396130561829	pulse	1	t		14.0	2.5	/experiments/Knapen_AOT/AOT_stimuli/rescaled_final/0207_fw.mp4	0.0	121.29888820648193	
16	105.87448143959045	pulse	1	t		14.0	2.5	/experiments/Knapen_AOT/AOT_stimuli/rescaled_final/0207_fw.mp4	0.0	122.8994083404541	
16	105.99071002006531	fix_post	2		12	14.0	2.5	/experiments/Knapen_AOT/AOT_stimuli/rescaled_final/0207_fw.mp4	0.0	123.01563692092896	0.1000206470489502
17	106.09073066711426	fix_pre	0		120	15.0	2.5	/experiments/Knapen_AOT/AOT_stimuli/rescaled_final/0704_fw.mp4	0.0	123.1156575679779	1.0084905624389648
17	107.09922122955322	movie	1		278	15.0	2.5	/experiments/Knapen_AOT/AOT_stimuli/rescaled_final/0704_fw.mp4	0.0	124.12414813041687	2.4920241832733154
17	107.47300028800964	pulse	1	t		15.0	2.5	/experiments/Knapen_AOT/AOT_stimuli/rescaled_final/0704_fw.mp4	0.0	124.49792718887329	
17	109.07400274276733	pulse	1	t		15.0	2.5	/experiments/Knapen_AOT/AOT_stimuli/rescaled_final/0704_fw.mp4	0.0	126.09892964363098	
17	109.59124541282654	fix_post	2		12	15.0	2.5	/experiments/Knapen_AOT/AOT_stimuli/rescaled_final/0704_fw.mp4	0.0	126.61617231369019	0.10000967979431152
18	109.69125509262085	fix_pre	0		119	16.0	2.5	/experiments/Knapen_AOT/AOT_stimuli/rescaled_final/0704_rv.mp4	0.0	126.7161819934845	1.0001814365386963
18	110.67495703697205	pulse	0	t		16.0	2.5	/experiments/Knapen_AOT/AOT_stimuli/rescaled_final/0704_rv.mp4	0.0	127.6998839378357	
18	110.69143652915955	movie	1		291	16.0	2.5	/experiments/Knapen_AOT/AOT_stimuli/rescaled_final/0704_rv.mp4	0.0	127.7163634300232	2.50034761428833
18	112.27365970611572	pulse	1	t		16.0	2.5	/experiments/Knapen_AOT/AOT_stimuli/rescaled_final/0704_rv.mp4	0.0	129.29858660697937	
18	113.19178414344788	fix_post	2		12	16.0	2.5	/experiments/Knapen_AOT/AOT_stimuli/rescaled_final/0704_rv.mp4	0.0	130.21671104431152	0.10008740425109863
19	113.29187154769897	fix_pre	0		120	17.0	2.5	/experiments/Knapen_AOT/AOT_stimuli/rescaled_final/0888_fw.mp4	0.0	130.31679844856262	1.0084822177886963
19	113.87547206878662	pulse	0	t		17.0	2.5	/experiments/Knapen_AOT/AOT_stimuli/rescaled_final/0888_fw.mp4	0.0	130.90039896965027	
19	114.30035376548767	movie	1		294	17.0	2.5	/experiments/Knapen_AOT/AOT_stimuli/rescaled_final/0888_fw.mp4	0.0	131.32528066635132	2.491994857788086
19	115.47369408607483	pulse	1	t		17.0	2.5	/experiments/Knapen_AOT/AOT_stimuli/rescaled_final/0888_fw.mp4	0.0	132.49862098693848	
19	116.79234862327576	fix_post	2		12	17.0	2.5	/experiments/Knapen_AOT/AOT_stimuli/rescaled_final/0888_fw.mp4	0.0	133.8172755241394	0.09999847412109375
20	116.89234709739685	fix_pre	0		120	18.0	2.5	/experiments/Knapen_AOT/AOT_stimuli/rescaled_final/1658_rv.mp4	0.0	133.9172739982605	1.0084967613220215
20	117.07595229148865	pulse	0	t		18.0	2.5	/experiments/Knapen_AOT/AOT_stimuli/rescaled_final/1658_rv.mp4	0.0	134.1008791923523	
20	117.90084385871887	movie	1		286	18.0	2.5	/experiments/Knapen_AOT/AOT_stimuli/rescaled_final/1658_rv.mp4	0.0	134.92577075958252	2.4920296669006348
20	118.67409253120422	pulse	1	t		18.0	2.5	/experiments/Knapen_AOT/AOT_stimuli/rescaled_final/1658_rv.mp4	0.0	135.69901943206787	
20	120.2744152545929	pulse	1	t		18.0	2.5	/experiments/Knapen_AOT/AOT_stimuli/rescaled_final/1658_rv.mp4	0.0	137.29934215545654	
20	120.3928735256195	fix_post	2		12	18.0	2.5	/experiments/Knapen_AOT/AOT_stimuli/rescaled_final/1658_rv.mp4	0.0	137.41780042648315	0.10002017021179199
21	120.4928936958313	fix_pre	0		120	19.0	2.5	blank	1.0	137.51782059669495	1.0001304149627686
21	121.49302411079407	movie	1		300	19.0	2.5	blank	1.0	138.51795101165771	2.500377655029297
21	121.87666535377502	pulse	1	t		19.0	2.5	blank	1.0	138.90159225463867	
21	123.4769115447998	pulse	1	t		19.0	2.5	blank	1.0	140.50183844566345	
21	123.99340176582336	fix_post	2		12	19.0	2.5	blank	1.0	141.018328666687	0.10004806518554688
22	124.09344983100891	fix_pre	0		119	20.0	2.5	/experiments/Knapen_AOT/AOT_stimuli/rescaled_final/1778_rv.mp4	0.0	141.11837673187256	1.0085170269012451
22	125.07713270187378	pulse	0	t		20.0	2.5	/experiments/Knapen_AOT/AOT_stimuli/rescaled_final/1778_rv.mp4	0.0	142.10205960273743	
22	125.10196685791016	movie	1		287	20.0	2.5	/experiments/Knapen_AOT/AOT_stimuli/rescaled_final/1778_rv.mp4	0.0	142.1268937587738	2.4919989109039307
22	126.6760778427124	pulse	1	t		20.0	2.5	/experiments/Knapen_AOT/AOT_stimuli/rescaled_final/1778_rv.mp4	0.0	143.70100474357605	
22	127.59396576881409	fix_post	2		12	20.0	2.5	/experiments/Knapen_AOT/AOT_stimuli/rescaled_final/1778_rv.mp4	0.0	144.61889266967773	0.09999322891235352
23	127.69395899772644	fix_pre	0		120	21.0	2.5	/experiments/Knapen_AOT/AOT_stimuli/rescaled_final/1297_fw.mp4	0.0	144.7188858985901	1.008516788482666
23	128.27758264541626	pulse	0	t		21.0	2.5	/experiments/Knapen_AOT/AOT_stimuli/rescaled_final/1297_fw.mp4	0.0	145.3025095462799	
23	128.7024757862091	movie	1		283	21.0	2.5	/experiments/Knapen_AOT/AOT_stimuli/rescaled_final/1297_fw.mp4	0.0	145.72740268707275	2.492011070251465
23	129.87615537643433	pulse	1	t		21.0	2.5	/experiments/Knapen_AOT/AOT_stimuli/rescaled_final/1297_fw.mp4	0.0	146.90108227729797	
23	131.19448685646057	fix_post	2		12	21.0	2.5	/experiments/Knapen_AOT/AOT_stimuli/rescaled_final/1297_fw.mp4	0.0	148.21941375732422	0.10005736351013184
24	131.2945442199707	fix_pre	0		120	22.0	2.5	/experiments/Knapen_AOT/AOT_stimuli/rescaled_final/0307_fw.mp4	0.0	148.31947112083435	1.0084319114685059
24	131.4781048297882	pulse	0	t		22.0	2.5	/experiments/Knapen_AOT/AOT_stimuli/rescaled_final/0307_fw.mp4	0.0	148.50303173065186	
24	132.3029761314392	movie	1		288	22.0	2.5	/experiments/Knapen_AOT/AOT_stimuli/rescaled_final/0307_fw.mp4	0.0	149.32790303230286	2.492096185684204
24	133.0762836933136	pulse	1	t		22.0	2.5	/experiments/Knapen_AOT/AOT_stimuli/rescaled_final/0307_fw.mp4	0.0	150.10121059417725	
24	134.67656874656677	pulse	1	t		22.0	2.5	/experiments/Knapen_AOT/AOT_stimuli/rescaled_final/0307_fw.mp4	0.0	151.70149564743042	
24	134.7950723171234	fix_post	2		12	22.0	2.5	/experiments/Knapen_AOT/AOT_stimuli/rescaled_final/0307_fw.mp4	0.0	151.81999921798706	0.09999775886535645
25	134.89507007598877	fix_pre	0		120	23.0	2.5	/experiments/Knapen_AOT/AOT_stimuli/rescaled_final/0266_rv.mp4	0.0	151.91999697685242	1.008493185043335
25	135.9035632610321	movie	1		290	23.0	2.5	/experiments/Knapen_AOT/AOT_stimuli/rescaled_final/0266_rv.mp4	0.0	152.92849016189575	2.492009162902832
25	136.27733421325684	pulse	1	t		23.0	2.5	/experiments/Knapen_AOT/AOT_stimuli/rescaled_final/0266_rv.mp4	0.0	153.30226111412048	
25	137.8769609928131	pulse	1	t		23.0	2.5	/experiments/Knapen_AOT/AOT_stimuli/rescaled_final/0266_rv.mp4	0.0	154.90188789367676	
25	138.39557242393494	fix_post	2		12	23.0	2.5	/experiments/Knapen_AOT/AOT_stimuli/rescaled_final/0266_rv.mp4	0.0	155.42049932479858	0.10001587867736816
26	138.4955883026123	fix_pre	0		119	24.0	2.5	/experiments/Knapen_AOT/AOT_stimuli/rescaled_final/1982_rv.mp4	0.0	155.52051520347595	1.0004234313964844
26	139.47931170463562	pulse	0	t		24.0	2.5	/experiments/Knapen_AOT/AOT_stimuli/rescaled_final/1982_rv.mp4	0.0	156.50423860549927	
26	139.4960117340088	movie	1		291	24.0	2.5	/experiments/Knapen_AOT/AOT_stimuli/rescaled_final/1982_rv.mp4	0.0	156.52093863487244	2.500152349472046
26	141.07799887657166	pulse	1	t		24.0	2.5	/experiments/Knapen_AOT/AOT_stimuli/rescaled_final/1982_rv.mp4	0.0	158.1029257774353	
26	141.99616408348083	fix_post	2		12	24.0	2.5	/experiments/Knapen_AOT/AOT_stimuli/rescaled_final/1982_rv.mp4	0.0	159.02109098434448	0.1000359058380127
27	142.09619998931885	fix_pre	0		120	25.0	2.5	/experiments/Knapen_AOT/AOT_stimuli/rescaled_final/0629_rv.mp4	0.0	159.1211268901825	1.0084178447723389
27	142.67974090576172	pulse	0	t		25.0	2.5	/experiments/Knapen_AOT/AOT_stimuli/rescaled_final/0629_rv.mp4	0.0	159.70466780662537	
27	143.1046178340912	movie	1		277	25.0	2.5	/experiments/Knapen_AOT/AOT_stimuli/rescaled_final/0629_rv.mp4	0.0	160.12954473495483	2.4920201301574707
27	144.27850532531738	pulse	1	t		25.0	2.5	/experiments/Knapen_AOT/AOT_stimuli/rescaled_final/0629_rv.mp4	0.0	161.30343222618103	
27	145.59663796424866	fix_post	2		12	25.0	2.5	/experiments/Knapen_AOT/AOT_stimuli/rescaled_final/0629_rv.mp4	0.0	162.6215648651123	0.10005331039428711
28	145.69669127464294	fix_pre	0		120	26.0	2.5	/experiments/Knapen_AOT/AOT_stimuli/rescaled_final/0307_rv.mp4	0.0	162.7216181755066	1.0085828304290771
28	145.87243223190308	pulse	0	t		26.0	2.5	/experiments/Knapen_AOT/AOT_stimuli/rescaled_final/0307_rv.mp4	0.0	162.89735913276672	
28	146.70527410507202	movie	1		280	26.0	2.5	/experiments/Knapen_AOT/AOT_stimuli/rescaled_final/0307_rv.mp4	0.0	163.73020100593567	2.4919681549072266
28	147.47234582901	pulse	1	t		26.0	2.5	/experiments/Knapen_AOT/AOT_stimuli/rescaled_final/0307_rv.mp4	0.0	164.49727272987366	
28	149.07270789146423	pulse	1	t		26.0	2.5	/experiments/Knapen_AOT/AOT_stimuli/rescaled_final/0307_rv.mp4	0.0	166.09763479232788	
28	149.19724225997925	fix_post	2		12	26.0	2.5	/experiments/Knapen_AOT/AOT_stimuli/rescaled_final/0307_rv.mp4	0.0	166.2221691608429	0.09998631477355957
29	149.2972285747528	fix_pre	0		120	27.0	2.5	/experiments/Knapen_AOT/AOT_stimuli/rescaled_final/0023_rv.mp4	0.0	166.32215547561646	1.008497714996338
29	150.30572628974915	movie	1		283	27.0	2.5	/experiments/Knapen_AOT/AOT_stimuli/rescaled_final/0023_rv.mp4	0.0	167.3306531906128	2.492018938064575
29	150.67271041870117	pulse	1	t		27.0	2.5	/experiments/Knapen_AOT/AOT_stimuli/rescaled_final/0023_rv.mp4	0.0	167.69763731956482	
29	152.27287650108337	pulse	1	t		27.0	2.5	/experiments/Knapen_AOT/AOT_stimuli/rescaled_final/0023_rv.mp4	0.0	169.29780340194702	
29	152.79774522781372	fix_post	2		12	27.0	2.5	/experiments/Knapen_AOT/AOT_stimuli/rescaled_final/0023_rv.mp4	0.0	169.82267212867737	0.10001707077026367
30	152.89776229858398	fix_pre	0		118	28.0	2.5	blank	1.0	169.92268919944763	0.9835364818572998
30	153.87330770492554	pulse	0	t		28.0	2.5	blank	1.0	170.89823460578918	
30	153.88129878044128	movie	1		301	28.0	2.5	blank	1.0	170.90622568130493	2.508667230606079
30	155.4736065864563	pulse	1	t		28.0	2.5	blank	1.0	172.49853348731995	
30	156.38996601104736	fix_post	2		12	28.0	2.5	blank	1.0	173.414892911911	0.10001373291015625
31	156.48997974395752	fix_pre	0		120	29.0	2.5	/experiments/Knapen_AOT/AOT_stimuli/rescaled_final/0546_rv.mp4	0.0	173.51490664482117	1.0084781646728516
31	157.0737476348877	pulse	0	t		29.0	2.5	/experiments/Knapen_AOT/AOT_stimuli/rescaled_final/0546_rv.mp4	0.0	174.09867453575134	
31	157.49845790863037	movie	1		288	29.0	2.5	/experiments/Knapen_AOT/AOT_stimuli/rescaled_final/0546_rv.mp4	0.0	174.52338480949402	2.4920547008514404
31	158.67422556877136	pulse	1	t		29.0	2.5	/experiments/Knapen_AOT/AOT_stimuli/rescaled_final/0546_rv.mp4	0.0	175.699152469635	
31	159.9905126094818	fix_post	2		12	29.0	2.5	/experiments/Knapen_AOT/AOT_stimuli/rescaled_final/0546_rv.mp4	0.0	177.01543951034546	0.10000252723693848
32	160.09051513671875	fix_pre	0		120	30.0	2.5	/experiments/Knapen_AOT/AOT_stimuli/rescaled_final/1910_fw.mp4	0.0	177.1154420375824	1.0085206031799316
32	160.27408289909363	pulse	0	t		30.0	2.5	/experiments/Knapen_AOT/AOT_stimuli/rescaled_final/1910_fw.mp4	0.0	177.29900979995728	
32	161.09903573989868	movie	1		286	30.0	2.5	/experiments/Knapen_AOT/AOT_stimuli/rescaled_final/1910_fw.mp4	0.0	178.12396264076233	2.4920034408569336
32	161.8743965625763	pulse	1	t		30.0	2.5	/experiments/Knapen_AOT/AOT_stimuli/rescaled_final/1910_fw.mp4	0.0	178.89932346343994	
32	163.47274041175842	pulse	1	t		30.0	2.5	/experiments/Knapen_AOT/AOT_stimuli/rescaled_final/1910_fw.mp4	0.0	180.49766731262207	
32	163.59103918075562	fix_post	2		12	30.0	2.5	/experiments/Knapen_AOT/AOT_stimuli/rescaled_final/1910_fw.mp4	0.0	180.61596608161926	0.10002923011779785
33	163.6910684108734	fix_pre	0		120	31.0	2.5	/experiments/Knapen_AOT/AOT_stimuli/rescaled_final/1627_fw.mp4	0.0	180.71599531173706	1.0084764957427979
33	164.6995449066162	movie	1		281	31.0	2.5	/experiments/Knapen_AOT/AOT_stimuli/rescaled_final/1627_fw.mp4	0.0	181.72447180747986	2.4920222759246826
33	165.07343816757202	pulse	1	t		31.0	2.5	/experiments/Knapen_AOT/AOT_stimuli/rescaled_final/1627_fw.mp4	0.0	182.09836506843567	
33	166.6731252670288	pulse	1	t		31.0	2.5	/experiments/Knapen_AOT/AOT_stimuli/rescaled_final/1627_fw.mp4	0.0	183.69805216789246	
33	167.1915671825409	fix_post	2		12	31.0	2.5	/experiments/Knapen_AOT/AOT_stimuli/rescaled_final/1627_fw.mp4	0.0	184.21649408340454	0.1000509262084961
34	167.2916181087494	fix_pre	0		119	32.0	2.5	/experiments/Knapen_AOT/AOT_stimuli/rescaled_final/2047_fw.mp4	0.0	184.31654500961304	1.0001380443572998
34	168.27524614334106	pulse	0	t		32.0	2.5	/experiments/Knapen_AOT/AOT_stimuli/rescaled_final/2047_fw.mp4	0.0	185.3001730442047	
34	168.2917561531067	movie	1		284	32.0	2.5	/experiments/Knapen_AOT/AOT_stimuli/rescaled_final/2047_fw.mp4	0.0	185.31668305397034	2.5003867149353027
34	169.87484765052795	pulse	1	t		32.0	2.5	/experiments/Knapen_AOT/AOT_stimuli/rescaled_final/2047_fw.mp4	0.0	186.8997745513916	
34	170.792142868042	fix_post	2		12	32.0	2.5	/experiments/Knapen_AOT/AOT_stimuli/rescaled_final/2047_fw.mp4	0.0	187.81706976890564	0.1000068187713623
35	170.89214968681335	fix_pre	0		120	33.0	2.5	blank	1.0	187.917076587677	1.000119924545288
35	171.47580695152283	pulse	0	t		33.0	2.5	blank	1.0	188.50073385238647	
35	171.89226961135864	movie	1		300	33.0	2.5	blank	1.0	188.9171965122223	2.5003714561462402
35	173.07622361183167	pulse	1	t		33.0	2.5	blank	1.0	190.1011505126953	
35	174.39264106750488	fix_post	2		12	33.0	2.5	blank	1.0	191.41756796836853	0.10004806518554688
36	174.49268913269043	fix_pre	0		120	34.0	2.5	/experiments/Knapen_AOT/AOT_stimuli/rescaled_final/1327_rv.mp4	0.0	191.51761603355408	1.0085480213165283
36	174.67640829086304	pulse	0	t		34.0	2.5	/experiments/Knapen_AOT/AOT_stimuli/rescaled_final/1327_rv.mp4	0.0	191.70133519172668	
36	175.50123715400696	movie	1		288	34.0	2.5	/experiments/Knapen_AOT/AOT_stimuli/rescaled_final/1327_rv.mp4	0.0	192.5261640548706	2.4919590950012207
36	176.27467155456543	pulse	1	t		34.0	2.5	/experiments/Knapen_AOT/AOT_stimuli/rescaled_final/1327_rv.mp4	0.0	193.29959845542908	
36	177.8749611377716	pulse	1	t		34.0	2.5	/experiments/Knapen_AOT/AOT_stimuli/rescaled_final/1327_rv.mp4	0.0	194.89988803863525	
36	177.99319624900818	fix_post	2		12	34.0	2.5	/experiments/Knapen_AOT/AOT_stimuli/rescaled_final/1327_rv.mp4	0.0	195.01812314987183	0.10003399848937988
37	178.09323024749756	fix_pre	0		120	35.0	2.5	/experiments/Knapen_AOT/AOT_stimuli/rescaled_final/1910_rv.mp4	0.0	195.1181571483612	1.0084619522094727
37	179.10169219970703	movie	1		292	35.0	2.5	/experiments/Knapen_AOT/AOT_stimuli/rescaled_final/1910_rv.mp4	0.0	196.12661910057068	2.492039203643799
37	179.4754192829132	pulse	1	t		35.0	2.5	/experiments/Knapen_AOT/AOT_stimuli/rescaled_final/1910_rv.mp4	0.0	196.50034618377686	
37	181.07509589195251	pulse	1	t		35.0	2.5	/experiments/Knapen_AOT/AOT_stimuli/rescaled_final/1910_rv.mp4	0.0	198.10002279281616	
37	181.59373140335083	fix_post	2		12	35.0	2.5	/experiments/Knapen_AOT/AOT_stimuli/rescaled_final/1910_rv.mp4	0.0	198.61865830421448	0.10002946853637695
38	181.6937608718872	fix_pre	0		119	36.0	2.5	/experiments/Knapen_AOT/AOT_stimuli/rescaled_final/1718_fw.mp4	0.0	198.71868777275085	1.000244379043579
38	182.67743849754333	pulse	0	t		36.0	2.5	/experiments/Knapen_AOT/AOT_stimuli/rescaled_final/1718_fw.mp4	0.0	199.70236539840698	
38	182.6940052509308	movie	1		289	36.0	2.5	/experiments/Knapen_AOT/AOT_stimuli/rescaled_final/1718_fw.mp4	0.0	199.71893215179443	2.5002975463867188
38	184.27610445022583	pulse	1	t		36.0	2.5	/experiments/Knapen_AOT/AOT_stimuli/rescaled_final/1718_fw.mp4	0.0	201.30103135108948	
38	185.1943027973175	fix_post	2		12	36.0	2.5	/experiments/Knapen_AOT/AOT_stimuli/rescaled_final/1718_fw.mp4	0.0	202.21922969818115	0.10001826286315918
39	185.29432106018066	fix_pre	0		120	37.0	2.5	/experiments/Knapen_AOT/AOT_stimuli/rescaled_final/1264_rv.mp4	0.0	202.3192479610443	1.0085537433624268
39	185.87794637680054	pulse	0	t		37.0	2.5	/experiments/Knapen_AOT/AOT_stimuli/rescaled_final/1264_rv.mp4	0.0	202.90287327766418	
39	186.3028748035431	movie	1		283	37.0	2.5	/experiments/Knapen_AOT/AOT_stimuli/rescaled_final/1264_rv.mp4	0.0	203.32780170440674	2.492082118988037
39	187.47609043121338	pulse	1	t		37.0	2.5	/experiments/Knapen_AOT/AOT_stimuli/rescaled_final/1264_rv.mp4	0.0	204.50101733207703	
39	188.79495692253113	fix_post	2		12	37.0	2.5	/experiments/Knapen_AOT/AOT_stimuli/rescaled_final/1264_rv.mp4	0.0	205.81988382339478	0.09987807273864746
40	188.89483499526978	fix_pre	0		120	38.0	2.5	/experiments/Knapen_AOT/AOT_stimuli/rescaled_final/1565_rv.mp4	0.0	205.91976189613342	1.0085318088531494
40	189.07841300964355	pulse	0	t		38.0	2.5	/experiments/Knapen_AOT/AOT_stimuli/rescaled_final/1565_rv.mp4	0.0	206.1033399105072	
40	189.90336680412292	movie	1		289	38.0	2.5	/experiments/Knapen_AOT/AOT_stimuli/rescaled_final/1565_rv.mp4	0.0	206.92829370498657	2.4919803142547607
40	190.6769301891327	pulse	1	t		38.0	2.5	/experiments/Knapen_AOT/AOT_stimuli/rescaled_final/1565_rv.mp4	0.0	207.70185708999634	
40	192.2773072719574	pulse	1	t		38.0	2.5	/experiments/Knapen_AOT/AOT_stimuli/rescaled_final/1565_rv.mp4	0.0	209.30223417282104	
40	192.39534711837769	fix_post	2		12	38.0	2.5	/experiments/Knapen_AOT/AOT_stimuli/rescaled_final/1565_rv.mp4	0.0	209.42027401924133	0.10000944137573242
41	192.49535655975342	fix_pre	0		120	39.0	2.5	/experiments/Knapen_AOT/AOT_stimuli/rescaled_final/2112_fw.mp4	0.0	209.52028346061707	1.0085835456848145
41	193.50394010543823	movie	1		283	39.0	2.5	/experiments/Knapen_AOT/AOT_stimuli/rescaled_final/2112_fw.mp4	0.0	210.52886700630188	2.491960287094116
41	193.87897992134094	pulse	1	t		39.0	2.5	/experiments/Knapen_AOT/AOT_stimuli/rescaled_final/2112_fw.mp4	0.0	210.9039068222046	
41	195.4775950908661	pulse	1	t		39.0	2.5	/experiments/Knapen_AOT/AOT_stimuli/rescaled_final/2112_fw.mp4	0.0	212.50252199172974	
41	195.99590039253235	fix_post	2		12	39.0	2.5	/experiments/Knapen_AOT/AOT_stimuli/rescaled_final/2112_fw.mp4	0.0	213.020827293396	0.10001587867736816
42	196.09591627120972	fix_pre	0		119	40.0	2.5	blank	1.0	213.12084317207336	0.9918069839477539
42	197.0796012878418	pulse	0	t		40.0	2.5	blank	1.0	214.10452818870544	
42	197.08772325515747	movie	1		301	40.0	2.5	blank	1.0	214.11265015602112	2.5087783336639404
42	198.67987895011902	pulse	1	t		40.0	2.5	blank	1.0	215.70480585098267	
42	199.5965015888214	fix_post	2		12	40.0	2.5	blank	1.0	216.62142848968506	0.10000777244567871
43	199.6965093612671	fix_pre	0		120	41.0	2.5	/experiments/Knapen_AOT/AOT_stimuli/rescaled_final/0167_fw.mp4	0.0	216.72143626213074	1.0084409713745117
43	200.28045868873596	pulse	0	t		41.0	2.5	/experiments/Knapen_AOT/AOT_stimuli/rescaled_final/0167_fw.mp4	0.0	217.3053855895996	
43	200.7049503326416	movie	1		284	41.0	2.5	/experiments/Knapen_AOT/AOT_stimuli/rescaled_final/0167_fw.mp4	0.0	217.72987723350525	2.492051124572754
43	201.87860417366028	pulse	1	t		41.0	2.5	/experiments/Knapen_AOT/AOT_stimuli/rescaled_final/0167_fw.mp4	0.0	218.90353107452393	
43	203.19700145721436	fix_post	2		12	41.0	2.5	/experiments/Knapen_AOT/AOT_stimuli/rescaled_final/0167_fw.mp4	0.0	220.221928358078	0.10000991821289062
44	203.29701137542725	fix_pre	0		120	42.0	2.5	/experiments/Knapen_AOT/AOT_stimuli/rescaled_final/0157_rv.mp4	0.0	220.3219382762909	1.008495569229126
44	203.48089122772217	pulse	0	t		42.0	2.5	/experiments/Knapen_AOT/AOT_stimuli/rescaled_final/0157_rv.mp4	0.0	220.50581812858582	
44	204.30550694465637	movie	1		289	42.0	2.5	/experiments/Knapen_AOT/AOT_stimuli/rescaled_final/0157_rv.mp4	0.0	221.33043384552002	2.492023468017578
44	205.07276844978333	pulse	1	t		42.0	2.5	/experiments/Knapen_AOT/AOT_stimuli/rescaled_final/0157_rv.mp4	0.0	222.09769535064697	
44	206.67326498031616	pulse	1	t		42.0	2.5	/experiments/Knapen_AOT/AOT_stimuli/rescaled_final/0157_rv.mp4	0.0	223.6981918811798	
44	206.79753041267395	fix_post	2		12	42.0	2.5	/experiments/Knapen_AOT/AOT_stimuli/rescaled_final/0157_rv.mp4	0.0	223.8224573135376	0.10001373291015625
45	206.8975441455841	fix_pre	0		120	43.0	2.5	/experiments/Knapen_AOT/AOT_stimuli/rescaled_final/1287_rv.mp4	0.0	223.92247104644775	1.008490800857544
45	207.90603494644165	movie	1		283	43.0	2.5	/experiments/Knapen_AOT/AOT_stimuli/rescaled_final/1287_rv.mp4	0.0	224.9309618473053	2.492041826248169
45	208.27292561531067	pulse	1	t		43.0	2.5	/experiments/Knapen_AOT/AOT_stimuli/rescaled_final/1287_rv.mp4	0.0	225.29785251617432	
45	209.87319350242615	pulse	1	t		43.0	2.5	/experiments/Knapen_AOT/AOT_stimuli/rescaled_final/1287_rv.mp4	0.0	226.8981204032898	
45	210.39807677268982	fix_post	2		12	43.0	2.5	/experiments/Knapen_AOT/AOT_stimuli/rescaled_final/1287_rv.mp4	0.0	227.42300367355347	0.10002636909484863
46	210.49810314178467	fix_pre	0		118	44.0	2.5	/experiments/Knapen_AOT/AOT_stimuli/rescaled_final/0731_fw.mp4	0.0	227.52303004264832	0.9917778968811035
46	211.4734857082367	pulse	0	t		44.0	2.5	/experiments/Knapen_AOT/AOT_stimuli/rescaled_final/0731_fw.mp4	0.0	228.49841260910034	
46	211.48988103866577	movie	1		294	44.0	2.5	/experiments/Knapen_AOT/AOT_stimuli/rescaled_final/0731_fw.mp4	0.0	228.51480793952942	2.5003645420074463
46	213.07368350028992	pulse	1	t		44.0	2.5	/experiments/Knapen_AOT/AOT_stimuli/rescaled_final/0731_fw.mp4	0.0	230.09861040115356	
46	213.99024558067322	fix_post	2		12	44.0	2.5	/experiments/Knapen_AOT/AOT_stimuli/rescaled_final/0731_fw.mp4	0.0	231.01517248153687	0.10002589225769043
47	214.0902714729309	fix_pre	0		120	45.0	2.5	/experiments/Knapen_AOT/AOT_stimuli/rescaled_final/0379_fw.mp4	0.0	231.11519837379456	1.0085029602050781
47	214.67406606674194	pulse	0	t		45.0	2.5	/experiments/Knapen_AOT/AOT_stimuli/rescaled_final/0379_fw.mp4	0.0	231.6989929676056	
47	215.098774433136	movie	1		285	45.0	2.5	/experiments/Knapen_AOT/AOT_stimuli/rescaled_final/0379_fw.mp4	0.0	232.12370133399963	2.4920578002929688
47	216.27423906326294	pulse	1	t		45.0	2.5	/experiments/Knapen_AOT/AOT_stimuli/rescaled_final/0379_fw.mp4	0.0	233.2991659641266	
47	217.59083223342896	fix_post	2		12	45.0	2.5	/experiments/Knapen_AOT/AOT_stimuli/rescaled_final/0379_fw.mp4	0.0	234.6157591342926	0.09997320175170898
48	217.69080543518066	fix_pre	0		120	46.0	2.5	/experiments/Knapen_AOT/AOT_stimuli/rescaled_final/1970_rv.mp4	0.0	234.7157323360443	1.0085194110870361
48	217.87442350387573	pulse	0	t		46.0	2.5	/experiments/Knapen_AOT/AOT_stimuli/rescaled_final/1970_rv.mp4	0.0	234.89935040473938	
48	218.6993248462677	movie	1		296	46.0	2.5	/experiments/Knapen_AOT/AOT_stimuli/rescaled_final/1970_rv.mp4	0.0	235.72425174713135	2.491997718811035
48	219.47455596923828	pulse	1	t		46.0	2.5	/experiments/Knapen_AOT/AOT_stimuli/rescaled_final/1970_rv.mp4	0.0	236.49948287010193	
48	221.07475781440735	pulse	1	t		46.0	2.5	/experiments/Knapen_AOT/AOT_stimuli/rescaled_final/1970_rv.mp4	0.0	238.099684715271	
48	221.19132256507874	fix_post	2		12	46.0	2.5	/experiments/Knapen_AOT/AOT_stimuli/rescaled_final/1970_rv.mp4	0.0	238.21624946594238	0.10002565383911133
49	221.29134821891785	fix_pre	0		120	47.0	2.5	/experiments/Knapen_AOT/AOT_stimuli/rescaled_final/1434_fw.mp4	0.0	238.3162751197815	1.0001299381256104
49	222.29147815704346	movie	1		293	47.0	2.5	/experiments/Knapen_AOT/AOT_stimuli/rescaled_final/1434_fw.mp4	0.0	239.3164050579071	2.5004119873046875
49	222.6726999282837	pulse	1	t		47.0	2.5	/experiments/Knapen_AOT/AOT_stimuli/rescaled_final/1434_fw.mp4	0.0	239.69762682914734	
49	224.27265000343323	pulse	1	t		47.0	2.5	/experiments/Knapen_AOT/AOT_stimuli/rescaled_final/1434_fw.mp4	0.0	241.29757690429688	
49	224.79189014434814	fix_post	2		12	47.0	2.5	/experiments/Knapen_AOT/AOT_stimuli/rescaled_final/1434_fw.mp4	0.0	241.8168170452118	0.09999251365661621
50	224.89188265800476	fix_pre	0		119	48.0	2.5	/experiments/Knapen_AOT/AOT_stimuli/rescaled_final/1221_rv.mp4	0.0	241.9168095588684	1.0002014636993408
50	225.87576580047607	pulse	0	t		48.0	2.5	/experiments/Knapen_AOT/AOT_stimuli/rescaled_final/1221_rv.mp4	0.0	242.90069270133972	
50	225.8920841217041	movie	1		293	48.0	2.5	/experiments/Knapen_AOT/AOT_stimuli/rescaled_final/1221_rv.mp4	0.0	242.91701102256775	2.50032377243042
50	227.47580337524414	pulse	1	t		48.0	2.5	/experiments/Knapen_AOT/AOT_stimuli/rescaled_final/1221_rv.mp4	0.0	244.5007302761078	
50	228.39240789413452	fix_post	2		12	48.0	2.5	/experiments/Knapen_AOT/AOT_stimuli/rescaled_final/1221_rv.mp4	0.0	245.41733479499817	0.10003376007080078
51	228.49244165420532	fix_pre	0		120	49.0	2.5	blank	1.0	245.51736855506897	1.0001299381256104
51	229.07606387138367	pulse	0	t		49.0	2.5	blank	1.0	246.10099077224731	
51	229.49257159233093	movie	1		300	49.0	2.5	blank	1.0	246.51749849319458	2.5004005432128906
51	230.6762571334839	pulse	1	t		49.0	2.5	blank	1.0	247.70118403434753	
51	231.99297213554382	fix_post	2		12	49.0	2.5	blank	1.0	249.01789903640747	0.1000051498413086
52	232.09297728538513	fix_pre	0		120	50.0	2.5	/experiments/Knapen_AOT/AOT_stimuli/rescaled_final/0120_rv.mp4	0.0	249.11790418624878	1.0085642337799072
52	232.2764377593994	pulse	0	t		50.0	2.5	/experiments/Knapen_AOT/AOT_stimuli/rescaled_final/0120_rv.mp4	0.0	249.30136466026306	
52	233.10154151916504	movie	1		287	50.0	2.5	/experiments/Knapen_AOT/AOT_stimuli/rescaled_final/0120_rv.mp4	0.0	250.1264684200287	2.492074489593506
52	233.87515139579773	pulse	1	t		50.0	2.5	/experiments/Knapen_AOT/AOT_stimuli/rescaled_final/0120_rv.mp4	0.0	250.90007829666138	
52	235.47526907920837	pulse	1	t		50.0	2.5	/experiments/Knapen_AOT/AOT_stimuli/rescaled_final/0120_rv.mp4	0.0	252.50019598007202	
52	235.59361600875854	fix_post	2		12	50.0	2.5	/experiments/Knapen_AOT/AOT_stimuli/rescaled_final/0120_rv.mp4	0.0	252.6185429096222	0.09992647171020508
53	235.69354248046875	fix_pre	0		120	51.0	2.5	/experiments/Knapen_AOT/AOT_stimuli/rescaled_final/0079_fw.mp4	0.0	252.7184693813324	1.0085468292236328
53	236.70208930969238	movie	1		283	51.0	2.5	/experiments/Knapen_AOT/AOT_stimuli/rescaled_final/0079_fw.mp4	0.0	253.72701621055603	2.4919815063476562
53	237.07595896720886	pulse	1	t		51.0	2.5	/experiments/Knapen_AOT/AOT_stimuli/rescaled_final/0079_fw.mp4	0.0	254.1008858680725	
53	238.67562222480774	pulse	1	t		51.0	2.5	/experiments/Knapen_AOT/AOT_stimuli/rescaled_final/0079_fw.mp4	0.0	255.7005491256714	
53	239.19407081604004	fix_post	2		12	51.0	2.5	/experiments/Knapen_AOT/AOT_stimuli/rescaled_final/0079_fw.mp4	0.0	256.2189977169037	0.10001945495605469
54	239.2940902709961	fix_pre	0		119	52.0	2.5	/experiments/Knapen_AOT/AOT_stimuli/rescaled_final/1098_rv.mp4	0.0	256.31901717185974	1.0001521110534668
54	240.27774024009705	pulse	0	t		52.0	2.5	/experiments/Knapen_AOT/AOT_stimuli/rescaled_final/1098_rv.mp4	0.0	257.3026671409607	
54	240.29424238204956	movie	1		282	52.0	2.5	/experiments/Knapen_AOT/AOT_stimuli/rescaled_final/1098_rv.mp4	0.0	257.3191692829132	2.5003981590270996
54	241.8766384124756	pulse	1	t		52.0	2.5	/experiments/Knapen_AOT/AOT_stimuli/rescaled_final/1098_rv.mp4	0.0	258.90156531333923	
54	242.79464054107666	fix_post	2		12	52.0	2.5	/experiments/Knapen_AOT/AOT_stimuli/rescaled_final/1098_rv.mp4	0.0	259.8195674419403	0.09998559951782227
55	242.89462614059448	fix_pre	0		120	53.0	2.5	/experiments/Knapen_AOT/AOT_stimuli/rescaled_final/0035_rv.mp4	0.0	259.91955304145813	1.0085160732269287
55	243.47837209701538	pulse	0	t		53.0	2.5	/experiments/Knapen_AOT/AOT_stimuli/rescaled_final/0035_rv.mp4	0.0	260.503298997879	
55	243.9031422138214	movie	1		286	53.0	2.5	/experiments/Knapen_AOT/AOT_stimuli/rescaled_final/0035_rv.mp4	0.0	260.92806911468506	2.492060899734497
55	245.076758146286	pulse	1	t		53.0	2.5	/experiments/Knapen_AOT/AOT_stimuli/rescaled_final/0035_rv.mp4	0.0	262.10168504714966	
55	246.3952031135559	fix_post	2		12	53.0	2.5	/experiments/Knapen_AOT/AOT_stimuli/rescaled_final/0035_rv.mp4	0.0	263.42013001441956	0.0999765396118164
56	246.49517965316772	fix_pre	0		120	54.0	2.5	/experiments/Knapen_AOT/AOT_stimuli/rescaled_final/1072_fw.mp4	0.0	263.5201065540314	1.0084917545318604
56	246.6790189743042	pulse	0	t		54.0	2.5	/experiments/Knapen_AOT/AOT_stimuli/rescaled_final/1072_fw.mp4	0.0	263.70394587516785	
56	247.50367140769958	movie	1		279	54.0	2.5	/experiments/Knapen_AOT/AOT_stimuli/rescaled_final/1072_fw.mp4	0.0	264.52859830856323	2.49202036857605
56	248.27715802192688	pulse	1	t		54.0	2.5	/experiments/Knapen_AOT/AOT_stimuli/rescaled_final/1072_fw.mp4	0.0	265.3020849227905	
56	249.8774037361145	pulse	1	t		54.0	2.5	/experiments/Knapen_AOT/AOT_stimuli/rescaled_final/1072_fw.mp4	0.0	266.90233063697815	
56	249.99569177627563	fix_post	2		12	54.0	2.5	/experiments/Knapen_AOT/AOT_stimuli/rescaled_final/1072_fw.mp4	0.0	267.0206186771393	0.10002446174621582
57	250.09571623802185	fix_pre	0		120	55.0	2.5	/experiments/Knapen_AOT/AOT_stimuli/rescaled_final/0706_rv.mp4	0.0	267.1206431388855	1.0085170269012451
57	251.1042332649231	movie	1		279	55.0	2.5	/experiments/Knapen_AOT/AOT_stimuli/rescaled_final/0706_rv.mp4	0.0	268.12916016578674	2.49212646484375
57	251.4784641265869	pulse	1	t		55.0	2.5	/experiments/Knapen_AOT/AOT_stimuli/rescaled_final/0706_rv.mp4	0.0	268.50339102745056	
57	253.07802200317383	pulse	1	t		55.0	2.5	/experiments/Knapen_AOT/AOT_stimuli/rescaled_final/0706_rv.mp4	0.0	270.1029489040375	
57	253.59635972976685	fix_post	2		12	55.0	2.5	/experiments/Knapen_AOT/AOT_stimuli/rescaled_final/0706_rv.mp4	0.0	270.6212866306305	0.09996867179870605
58	253.69632840156555	fix_pre	0		119	56.0	2.5	blank	1.0	270.7212553024292	0.9917218685150146
58	254.68005180358887	pulse	0	t		56.0	2.5	blank	1.0	271.7049787044525	
58	254.68805027008057	movie	1		301	56.0	2.5	blank	1.0	271.7129771709442	2.5087809562683105
58	256.2736933231354	pulse	1	t		56.0	2.5	blank	1.0	273.298620223999	
58	257.1968312263489	fix_post	2		12	56.0	2.5	blank	1.0	274.2217581272125	0.09997797012329102
59	257.29680919647217	fix_pre	0		120	57.0	2.5	/experiments/Knapen_AOT/AOT_stimuli/rescaled_final/0020_rv.mp4	0.0	274.3217360973358	1.0085642337799072
59	257.880441904068	pulse	0	t		57.0	2.5	/experiments/Knapen_AOT/AOT_stimuli/rescaled_final/0020_rv.mp4	0.0	274.90536880493164	
59	258.3053734302521	movie	1		290	57.0	2.5	/experiments/Knapen_AOT/AOT_stimuli/rescaled_final/0020_rv.mp4	0.0	275.3303003311157	2.4919333457946777
59	259.47889375686646	pulse	1	t		57.0	2.5	/experiments/Knapen_AOT/AOT_stimuli/rescaled_final/0020_rv.mp4	0.0	276.5038206577301	
59	260.79730677604675	fix_post	2		12	57.0	2.5	/experiments/Knapen_AOT/AOT_stimuli/rescaled_final/0020_rv.mp4	0.0	277.8222336769104	0.1000070571899414
60	260.8973138332367	fix_pre	0		120	58.0	2.5	/experiments/Knapen_AOT/AOT_stimuli/rescaled_final/1082_rv.mp4	0.0	277.92224073410034	1.0085227489471436
60	261.07398414611816	pulse	0	t		58.0	2.5	/experiments/Knapen_AOT/AOT_stimuli/rescaled_final/1082_rv.mp4	0.0	278.0989110469818	
60	261.90583658218384	movie	1		280	58.0	2.5	/experiments/Knapen_AOT/AOT_stimuli/rescaled_final/1082_rv.mp4	0.0	278.9307634830475	2.4920620918273926
60	262.6731734275818	pulse	1	t		58.0	2.5	/experiments/Knapen_AOT/AOT_stimuli/rescaled_final/1082_rv.mp4	0.0	279.69810032844543	
60	264.2731854915619	pulse	1	t		58.0	2.5	/experiments/Knapen_AOT/AOT_stimuli/rescaled_final/1082_rv.mp4	0.0	281.29811239242554	
60	264.39789867401123	fix_post	2		12	58.0	2.5	/experiments/Knapen_AOT/AOT_stimuli/rescaled_final/1082_rv.mp4	0.0	281.4228255748749	0.09996223449707031
61	264.4978609085083	fix_pre	0		120	59.0	2.5	/experiments/Knapen_AOT/AOT_stimuli/rescaled_final/0831_fw.mp4	0.0	281.52278780937195	1.0085089206695557
61	265.50636982917786	movie	1		268	59.0	2.5	/experiments/Knapen_AOT/AOT_stimuli/rescaled_final/0831_fw.mp4	0.0	282.5312967300415	2.4920222759246826
61	265.87360429763794	pulse	1	t		59.0	2.5	/experiments/Knapen_AOT/AOT_stimuli/rescaled_final/0831_fw.mp4	0.0	282.8985311985016	
61	267.47376441955566	pulse	1	t		59.0	2.5	/experiments/Knapen_AOT/AOT_stimuli/rescaled_final/0831_fw.mp4	0.0	284.4986913204193	
61	267.99839210510254	fix_post	2		12	59.0	2.5	/experiments/Knapen_AOT/AOT_stimuli/rescaled_final/0831_fw.mp4	0.0	285.0233190059662	0.10002350807189941
62	268.09841561317444	fix_pre	0		118	60.0	2.5	/experiments/Knapen_AOT/AOT_stimuli/rescaled_final/1718_fw.mp4	0.0	285.1233425140381	0.9919247627258301
62	269.0738627910614	pulse	0	t		60.0	2.5	/experiments/Knapen_AOT/AOT_stimuli/rescaled_final/1718_fw.mp4	0.0	286.09878969192505	
62	269.09034037590027	movie	1		284	60.0	2.5	/experiments/Knapen_AOT/AOT_stimuli/rescaled_final/1718_fw.mp4	0.0	286.1152672767639	2.500257730484009
62	270.6740198135376	pulse	1	t		60.0	2.5	/experiments/Knapen_AOT/AOT_stimuli/rescaled_final/1718_fw.mp4	0.0	287.69894671440125	
62	271.5905981063843	fix_post	2		12	60.0	2.5	/experiments/Knapen_AOT/AOT_stimuli/rescaled_final/1718_fw.mp4	0.0	288.6155250072479	0.10003161430358887
63	271.69062972068787	fix_pre	0		120	61.0	2.5	blank	1.0	288.7155566215515	1.000152587890625
63	272.27430176734924	pulse	0	t		61.0	2.5	blank	1.0	289.2992286682129	
63	272.6907823085785	movie	1		300	61.0	2.5	blank	1.0	289.71570920944214	2.5003767013549805
63	273.8745427131653	pulse	1	t		61.0	2.5	blank	1.0	290.89946961402893	
63	275.1911590099335	fix_post	2		12	61.0	2.5	blank	1.0	292.2160859107971	0.10004520416259766
64	275.29120421409607	fix_pre	0		120	62.0	2.5	/experiments/Knapen_AOT/AOT_stimuli/rescaled_final/0678_fw.mp4	0.0	292.3161311149597	1.0085134506225586
64	275.4747223854065	pulse	0	t		62.0	2.5	/experiments/Knapen_AOT/AOT_stimuli/rescaled_final/0678_fw.mp4	0.0	292.49964928627014	
64	276.2997176647186	movie	1		288	62.0	2.5	/experiments/Knapen_AOT/AOT_stimuli/rescaled_final/0678_fw.mp4	0.0	293.3246445655823	2.4919703006744385
64	277.07516646385193	pulse	1	t		62.0	2.5	/experiments/Knapen_AOT/AOT_stimuli/rescaled_final/0678_fw.mp4	0.0	294.1000933647156	
64	278.6733956336975	pulse	1	t		62.0	2.5	/experiments/Knapen_AOT/AOT_stimuli/rescaled_final/0678_fw.mp4	0.0	295.69832253456116	
64	278.79168796539307	fix_post	2		12	62.0	2.5	/experiments/Knapen_AOT/AOT_stimuli/rescaled_final/0678_fw.mp4	0.0	295.8166148662567	0.10002756118774414
65	278.8917155265808	fix_pre	0		120	63.0	2.5	/experiments/Knapen_AOT/AOT_stimuli/rescaled_final/1720_rv.mp4	0.0	295.91664242744446	1.008528232574463
65	279.9002437591553	movie	1		275	63.0	2.5	/experiments/Knapen_AOT/AOT_stimuli/rescaled_final/1720_rv.mp4	0.0	296.9251706600189	2.4920167922973633
65	280.27466678619385	pulse	1	t		63.0	2.5	/experiments/Knapen_AOT/AOT_stimuli/rescaled_final/1720_rv.mp4	0.0	297.2995936870575	
65	281.8740065097809	pulse	1	t		63.0	2.5	/experiments/Knapen_AOT/AOT_stimuli/rescaled_final/1720_rv.mp4	0.0	298.89893341064453	
65	282.39226055145264	fix_post	2		12	63.0	2.5	/experiments/Knapen_AOT/AOT_stimuli/rescaled_final/1720_rv.mp4	0.0	299.4171874523163	0.0999908447265625
66	282.4922513961792	fix_pre	0		119	64.0	2.5	/experiments/Knapen_AOT/AOT_stimuli/rescaled_final/0233_fw.mp4	0.0	299.51717829704285	1.0001676082611084
66	283.47597646713257	pulse	0	t		64.0	2.5	/experiments/Knapen_AOT/AOT_stimuli/rescaled_final/0233_fw.mp4	0.0	300.5009033679962	
66	283.4924190044403	movie	1		280	64.0	2.5	/experiments/Knapen_AOT/AOT_stimuli/rescaled_final/0233_fw.mp4	0.0	300.51734590530396	2.500368595123291
66	285.075124502182	pulse	1	t		64.0	2.5	/experiments/Knapen_AOT/AOT_stimuli/rescaled_final/0233_fw.mp4	0.0	302.10005140304565	
66	285.9927875995636	fix_post	2		12	64.0	2.5	/experiments/Knapen_AOT/AOT_stimuli/rescaled_final/0233_fw.mp4	0.0	303.01771450042725	0.10002493858337402
67	286.092812538147	fix_pre	0		120	65.0	2.5	/experiments/Knapen_AOT/AOT_stimuli/rescaled_final/0630_fw.mp4	0.0	303.1177394390106	1.0084595680236816
67	286.67637515068054	pulse	0	t		65.0	2.5	/experiments/Knapen_AOT/AOT_stimuli/rescaled_final/0630_fw.mp4	0.0	303.7013020515442	
67	287.10127210617065	movie	1		275	65.0	2.5	/experiments/Knapen_AOT/AOT_stimuli/rescaled_final/0630_fw.mp4	0.0	304.1261990070343	2.492316484451294
67	288.27519392967224	pulse	1	t		65.0	2.5	/experiments/Knapen_AOT/AOT_stimuli/rescaled_final/0630_fw.mp4	0.0	305.3001208305359	
67	289.59358859062195	fix_post	2		12	65.0	2.5	/experiments/Knapen_AOT/AOT_stimuli/rescaled_final/0630_fw.mp4	0.0	306.6185154914856	0.0997629165649414
68	289.6933515071869	fix_pre	0		120	66.0	2.5	/experiments/Knapen_AOT/AOT_stimuli/rescaled_final/2169_rv.mp4	0.0	306.71827840805054	1.0084962844848633
68	289.87686824798584	pulse	0	t		66.0	2.5	/experiments/Knapen_AOT/AOT_stimuli/rescaled_final/2169_rv.mp4	0.0	306.9017951488495	
68	290.70184779167175	movie	1		291	66.0	2.5	/experiments/Knapen_AOT/AOT_stimuli/rescaled_final/2169_rv.mp4	0.0	307.7267746925354	2.4920105934143066
68	291.47527503967285	pulse	1	t		66.0	2.5	/experiments/Knapen_AOT/AOT_stimuli/rescaled_final/2169_rv.mp4	0.0	308.5002019405365	
68	293.0756366252899	pulse	1	t		66.0	2.5	/experiments/Knapen_AOT/AOT_stimuli/rescaled_final/2169_rv.mp4	0.0	310.10056352615356	
68	293.19385838508606	fix_post	2		12	66.0	2.5	/experiments/Knapen_AOT/AOT_stimuli/rescaled_final/2169_rv.mp4	0.0	310.2187852859497	0.10002827644348145
69	293.29388666152954	fix_pre	0		120	67.0	2.5	/experiments/Knapen_AOT/AOT_stimuli/rescaled_final/1071_rv.mp4	0.0	310.3188135623932	1.0085370540618896
69	294.30242371559143	movie	1		277	67.0	2.5	/experiments/Knapen_AOT/AOT_stimuli/rescaled_final/1071_rv.mp4	0.0	311.3273506164551	2.491968870162964
69	294.6765937805176	pulse	1	t		67.0	2.5	/experiments/Knapen_AOT/AOT_stimuli/rescaled_final/1071_rv.mp4	0.0	311.7015206813812	
69	296.27638125419617	pulse	1	t		67.0	2.5	/experiments/Knapen_AOT/AOT_stimuli/rescaled_final/1071_rv.mp4	0.0	313.3013081550598	
69	296.7943925857544	fix_post	2		12	67.0	2.5	/experiments/Knapen_AOT/AOT_stimuli/rescaled_final/1071_rv.mp4	0.0	313.81931948661804	0.10001993179321289
70	296.8944125175476	fix_pre	0		119	68.0	2.5	/experiments/Knapen_AOT/AOT_stimuli/rescaled_final/1327_fw.mp4	0.0	313.91933941841125	1.0001599788665771
70	297.87811255455017	pulse	0	t		68.0	2.5	/experiments/Knapen_AOT/AOT_stimuli/rescaled_final/1327_fw.mp4	0.0	314.9030394554138	
70	297.8945724964142	movie	1		281	68.0	2.5	/experiments/Knapen_AOT/AOT_stimuli/rescaled_final/1327_fw.mp4	0.0	314.91949939727783	2.5003650188446045
70	299.4770188331604	pulse	1	t		68.0	2.5	/experiments/Knapen_AOT/AOT_stimuli/rescaled_final/1327_fw.mp4	0.0	316.50194573402405	
70	300.3949375152588	fix_post	2		12	68.0	2.5	/experiments/Knapen_AOT/AOT_stimuli/rescaled_final/1327_fw.mp4	0.0	317.41986441612244	0.10002636909484863
71	300.49496388435364	fix_pre	0		120	69.0	2.5	/experiments/Knapen_AOT/AOT_stimuli/rescaled_final/0576_fw.mp4	0.0	317.5198907852173	1.008479356765747
71	301.07866525650024	pulse	0	t		69.0	2.5	/experiments/Knapen_AOT/AOT_stimuli/rescaled_final/0576_fw.mp4	0.0	318.1035921573639	
71	301.5034432411194	movie	1		282	69.0	2.5	/experiments/Knapen_AOT/AOT_stimuli/rescaled_final/0576_fw.mp4	0.0	318.52837014198303	2.4920260906219482
71	302.6767506599426	pulse	1	t		69.0	2.5	/experiments/Knapen_AOT/AOT_stimuli/rescaled_final/0576_fw.mp4	0.0	319.7016775608063	
71	303.99546933174133	fix_post	2		12	69.0	2.5	/experiments/Knapen_AOT/AOT_stimuli/rescaled_final/0576_fw.mp4	0.0	321.020396232605	0.10001230239868164
72	304.09548163414	fix_pre	0		120	70.0	2.5	blank	1.0	321.12040853500366	1.0001709461212158
72	304.27919125556946	pulse	0	t		70.0	2.5	blank	1.0	321.3041181564331	
72	305.09565258026123	movie	1		300	70.0	2.5	blank	1.0	322.1205794811249	2.5003621578216553
72	305.8793087005615	pulse	1	t		70.0	2.5	blank	1.0	322.90423560142517	
72	307.4797041416168	pulse	1	t		70.0	2.5	blank	1.0	324.50463104248047	
72	307.5960147380829	fix_post	2		12	70.0	2.5	blank	1.0	324.62094163894653	0.10004067420959473
73	307.6960554122925	fix_pre	0		120	71.0	2.5	/experiments/Knapen_AOT/AOT_stimuli/rescaled_final/0808_rv.mp4	0.0	324.7209823131561	1.0085008144378662
73	308.70455622673035	movie	1		272	71.0	2.5	/experiments/Knapen_AOT/AOT_stimuli/rescaled_final/0808_rv.mp4	0.0	325.729483127594	2.4920451641082764
73	309.07986211776733	pulse	1	t		71.0	2.5	/experiments/Knapen_AOT/AOT_stimuli/rescaled_final/0808_rv.mp4	0.0	326.104789018631	
73	310.67816972732544	pulse	1	t		71.0	2.5	/experiments/Knapen_AOT/AOT_stimuli/rescaled_final/0808_rv.mp4	0.0	327.7030966281891	
73	311.1966013908386	fix_post	2		12	71.0	2.5	/experiments/Knapen_AOT/AOT_stimuli/rescaled_final/0808_rv.mp4	0.0	328.22152829170227	0.0999593734741211
74	311.29656076431274	fix_pre	0		119	72.0	2.5	/experiments/Knapen_AOT/AOT_stimuli/rescaled_final/1896_fw.mp4	0.0	328.3214876651764	1.0086467266082764
74	312.2725214958191	pulse	0	t		72.0	2.5	/experiments/Knapen_AOT/AOT_stimuli/rescaled_final/1896_fw.mp4	0.0	329.29744839668274	
74	312.305207490921	movie	1		278	72.0	2.5	/experiments/Knapen_AOT/AOT_stimuli/rescaled_final/1896_fw.mp4	0.0	329.33013439178467	2.491931676864624
74	313.87260484695435	pulse	1	t		72.0	2.5	/experiments/Knapen_AOT/AOT_stimuli/rescaled_final/1896_fw.mp4	0.0	330.897531747818	
74	314.79713916778564	fix_post	2		12	72.0	2.5	/experiments/Knapen_AOT/AOT_stimuli/rescaled_final/1896_fw.mp4	0.0	331.8220660686493	0.10004520416259766
75	314.89718437194824	fix_pre	0		120	73.0	2.5	/experiments/Knapen_AOT/AOT_stimuli/rescaled_final/0714_fw.mp4	0.0	331.9221112728119	1.0084471702575684
75	315.4725739955902	pulse	0	t		73.0	2.5	/experiments/Knapen_AOT/AOT_stimuli/rescaled_final/0714_fw.mp4	0.0	332.49750089645386	
75	315.9056315422058	movie	1		279	73.0	2.5	/experiments/Knapen_AOT/AOT_stimuli/rescaled_final/0714_fw.mp4	0.0	332.93055844306946	2.4919989109039307
75	317.07280683517456	pulse	1	t		73.0	2.5	/experiments/Knapen_AOT/AOT_stimuli/rescaled_final/0714_fw.mp4	0.0	334.0977337360382	
75	318.39763045310974	fix_post	2		12	73.0	2.5	/experiments/Knapen_AOT/AOT_stimuli/rescaled_final/0714_fw.mp4	0.0	335.4225573539734	0.10002565383911133
76	318.49765610694885	fix_pre	0		120	74.0	2.5	/experiments/Knapen_AOT/AOT_stimuli/rescaled_final/2155_rv.mp4	0.0	335.5225830078125	1.0085790157318115
76	318.6728959083557	pulse	0	t		74.0	2.5	/experiments/Knapen_AOT/AOT_stimuli/rescaled_final/2155_rv.mp4	0.0	335.69782280921936	
76	319.50623512268066	movie	1		282	74.0	2.5	/experiments/Knapen_AOT/AOT_stimuli/rescaled_final/2155_rv.mp4	0.0	336.5311620235443	2.4920811653137207
76	320.27314710617065	pulse	1	t		74.0	2.5	/experiments/Knapen_AOT/AOT_stimuli/rescaled_final/2155_rv.mp4	0.0	337.2980740070343	
76	321.8735294342041	pulse	1	t		74.0	2.5	/experiments/Knapen_AOT/AOT_stimuli/rescaled_final/2155_rv.mp4	0.0	338.89845633506775	
76	321.9983162879944	fix_post	2		12	74.0	2.5	/experiments/Knapen_AOT/AOT_stimuli/rescaled_final/2155_rv.mp4	0.0	339.02324318885803	0.09990239143371582
77	322.0982186794281	fix_pre	0		120	75.0	2.5	blank	1.0	339.12314558029175	1.0001955032348633
77	323.09841418266296	movie	1		300	75.0	2.5	blank	1.0	340.1233410835266	2.5003907680511475
77	323.4737026691437	pulse	1	t		75.0	2.5	blank	1.0	340.4986295700073	
77	325.0739209651947	pulse	1	t		75.0	2.5	blank	1.0	342.09884786605835	
77	325.5988049507141	fix_post	2		12	75.0	2.5	blank	1.0	342.62373185157776	0.09992480278015137
78	325.69872975349426	fix_pre	0		118	76.0	2.5	/experiments/Knapen_AOT/AOT_stimuli/rescaled_final/0630_fw.mp4	0.0	342.7236566543579	0.9918081760406494
78	326.67411375045776	pulse	0	t		76.0	2.5	/experiments/Knapen_AOT/AOT_stimuli/rescaled_final/0630_fw.mp4	0.0	343.6990406513214	
78	326.6905379295349	movie	1		273	76.0	2.5	/experiments/Knapen_AOT/AOT_stimuli/rescaled_final/0630_fw.mp4	0.0	343.71546483039856	2.5003926753997803
78	328.27310514450073	pulse	1	t		76.0	2.5	/experiments/Knapen_AOT/AOT_stimuli/rescaled_final/0630_fw.mp4	0.0	345.2980320453644	
78	329.1909306049347	fix_post	2		12	76.0	2.5	/experiments/Knapen_AOT/AOT_stimuli/rescaled_final/0630_fw.mp4	0.0	346.21585750579834	0.10001707077026367
79	329.29094767570496	fix_pre	0		120	77.0	2.5	/experiments/Knapen_AOT/AOT_stimuli/rescaled_final/0667_fw.mp4	0.0	346.3158745765686	1.0085151195526123
79	329.87460494041443	pulse	0	t		77.0	2.5	/experiments/Knapen_AOT/AOT_stimuli/rescaled_final/0667_fw.mp4	0.0	346.8995318412781	
79	330.29946279525757	movie	1		276	77.0	2.5	/experiments/Knapen_AOT/AOT_stimuli/rescaled_final/0667_fw.mp4	0.0	347.3243896961212	2.4921069145202637
79	331.47521018981934	pulse	1	t		77.0	2.5	/experiments/Knapen_AOT/AOT_stimuli/rescaled_final/0667_fw.mp4	0.0	348.500137090683	
79	332.79156970977783	fix_post	2		12	77.0	2.5	/experiments/Knapen_AOT/AOT_stimuli/rescaled_final/0667_fw.mp4	0.0	349.8164966106415	0.09993290901184082
80	332.8915026187897	fix_pre	0		120	78.0	2.5	/experiments/Knapen_AOT/AOT_stimuli/rescaled_final/1888_fw.mp4	0.0	349.9164295196533	1.0084969997406006
80	333.07509112358093	pulse	0	t		78.0	2.5	/experiments/Knapen_AOT/AOT_stimuli/rescaled_final/1888_fw.mp4	0.0	350.1000180244446	
80	333.8999996185303	movie	1		285	78.0	2.5	/experiments/Knapen_AOT/AOT_stimuli/rescaled_final/1888_fw.mp4	0.0	350.9249265193939	2.492050886154175
80	334.6734199523926	pulse	1	t		78.0	2.5	/experiments/Knapen_AOT/AOT_stimuli/rescaled_final/1888_fw.mp4	0.0	351.6983468532562	
80	336.27585649490356	pulse	1	t		78.0	2.5	/experiments/Knapen_AOT/AOT_stimuli/rescaled_final/1888_fw.mp4	0.0	353.3007833957672	
80	336.39205050468445	fix_post	2		12	78.0	2.5	/experiments/Knapen_AOT/AOT_stimuli/rescaled_final/1888_fw.mp4	0.0	353.4169774055481	0.09997320175170898
81	336.49202370643616	fix_pre	0		120	79.0	2.5	/experiments/Knapen_AOT/AOT_stimuli/rescaled_final/1049_rv.mp4	0.0	353.5169506072998	1.0085046291351318
81	337.5005283355713	movie	1		286	79.0	2.5	/experiments/Knapen_AOT/AOT_stimuli/rescaled_final/1049_rv.mp4	0.0	354.52545523643494	2.4920718669891357
81	337.8745770454407	pulse	1	t		79.0	2.5	/experiments/Knapen_AOT/AOT_stimuli/rescaled_final/1049_rv.mp4	0.0	354.8995039463043	
81	339.47394490242004	pulse	1	t		79.0	2.5	/experiments/Knapen_AOT/AOT_stimuli/rescaled_final/1049_rv.mp4	0.0	356.4988718032837	
81	339.9926002025604	fix_post	2		12	79.0	2.5	/experiments/Knapen_AOT/AOT_stimuli/rescaled_final/1049_rv.mp4	0.0	357.0175271034241	0.09999918937683105
82	340.09259939193726	fix_pre	0		119	80.0	2.5	/experiments/Knapen_AOT/AOT_stimuli/rescaled_final/0745_rv.mp4	0.0	357.1175262928009	1.0001380443572998
82	341.07623291015625	pulse	0	t		80.0	2.5	/experiments/Knapen_AOT/AOT_stimuli/rescaled_final/0745_rv.mp4	0.0	358.1011598110199	
82	341.09273743629456	movie	1		280	80.0	2.5	/experiments/Knapen_AOT/AOT_stimuli/rescaled_final/0745_rv.mp4	0.0	358.1176643371582	2.5003581047058105
82	342.67497420310974	pulse	1	t		80.0	2.5	/experiments/Knapen_AOT/AOT_stimuli/rescaled_final/0745_rv.mp4	0.0	359.6999011039734	
82	343.59309554100037	fix_post	2		12	80.0	2.5	/experiments/Knapen_AOT/AOT_stimuli/rescaled_final/0745_rv.mp4	0.0	360.618022441864	0.10002446174621582
83	343.6931200027466	fix_pre	0		120	81.0	2.5	/experiments/Knapen_AOT/AOT_stimuli/rescaled_final/0568_fw.mp4	0.0	360.71804690361023	1.0085806846618652
83	344.2768392562866	pulse	0	t		81.0	2.5	/experiments/Knapen_AOT/AOT_stimuli/rescaled_final/0568_fw.mp4	0.0	361.30176615715027	
83	344.70170068740845	movie	1		272	81.0	2.5	/experiments/Knapen_AOT/AOT_stimuli/rescaled_final/0568_fw.mp4	0.0	361.7266275882721	2.4919872283935547
83	345.8773295879364	pulse	1	t		81.0	2.5	/experiments/Knapen_AOT/AOT_stimuli/rescaled_final/0568_fw.mp4	0.0	362.90225648880005	
83	347.193687915802	fix_post	2		12	81.0	2.5	/experiments/Knapen_AOT/AOT_stimuli/rescaled_final/0568_fw.mp4	0.0	364.21861481666565	0.10007143020629883
84	347.2937593460083	fix_pre	0		120	82.0	2.5	/experiments/Knapen_AOT/AOT_stimuli/rescaled_final/0576_rv.mp4	0.0	364.31868624687195	1.008409023284912
84	347.4772939682007	pulse	0	t		82.0	2.5	/experiments/Knapen_AOT/AOT_stimuli/rescaled_final/0576_rv.mp4	0.0	364.50222086906433	
84	348.3021683692932	movie	1		271	82.0	2.5	/experiments/Knapen_AOT/AOT_stimuli/rescaled_final/0576_rv.mp4	0.0	365.32709527015686	2.492088794708252
84	349.07764530181885	pulse	1	t		82.0	2.5	/experiments/Knapen_AOT/AOT_stimuli/rescaled_final/0576_rv.mp4	0.0	366.1025722026825	
84	350.6758108139038	pulse	1	t		82.0	2.5	/experiments/Knapen_AOT/AOT_stimuli/rescaled_final/0576_rv.mp4	0.0	367.70073771476746	
84	350.79425716400146	fix_post	2		12	82.0	2.5	/experiments/Knapen_AOT/AOT_stimuli/rescaled_final/0576_rv.mp4	0.0	367.8191840648651	0.09995007514953613
85	350.894207239151	fix_pre	0		120	83.0	2.5	blank	1.0	367.91913414001465	1.000131368637085
85	351.8943386077881	movie	1		300	83.0	2.5	blank	1.0	368.91926550865173	2.500581741333008
85	352.27791237831116	pulse	1	t		83.0	2.5	blank	1.0	369.3028392791748	
85	353.878249168396	pulse	1	t		83.0	2.5	blank	1.0	370.90317606925964	
85	354.3949203491211	fix_post	2		12	83.0	2.5	blank	1.0	371.41984724998474	0.09984731674194336
87	354.49476766586304	stim	0		1715					371.5196945667267	14.29375171661377
87	355.4784414768219	pulse	0	t						372.50336837768555	
87	357.0786430835724	pulse	0	t						374.10356998443604	
87	358.678959608078	pulse	0	t						375.70388650894165	
87	360.2792661190033	pulse	0	t						377.30419301986694	
87	361.87952709198	pulse	0	t						378.9044539928436	
87	363.4797418117523	pulse	0	t						380.50466871261597	
87	365.07992482185364	pulse	0	t						382.1048517227173	
87	366.6802840232849	pulse	0	t						383.70521092414856	
87	368.28034353256226	pulse	0	t						385.3052704334259	
