trial_nr	onset	event_type	phase	response	nr_frames	movie_index	movie_duration	movie_file	blank	onset_abs	duration
0	0.20832180976867676	stim	0		65					19.101939916610718	0.541680097579956
0	0.7420239448547363	response	0	space						19.635642051696777	
1	0.7500019073486328	stim	0		4705					19.643620014190674	39.22703695297241
1	39.962360858917236	pulse	0	t						58.85597896575928	
1	39.977038860321045	stim	1		1715					58.870656967163086	14.29761815071106
1	41.55632781982422	pulse	1	t						60.44994592666626	
1	43.15653085708618	pulse	1	t						62.05014896392822	
1	44.75668287277222	pulse	1	t						63.65030097961426	
1	46.3569769859314	pulse	1	t						65.25059509277344	
1	47.9572958946228	pulse	1	t						66.85091400146484	
1	49.5574688911438	pulse	1	t						68.45108699798584	
1	51.15763592720032	pulse	1	t						70.05125403404236	
1	52.75783586502075	pulse	1	t						71.6514539718628	
2	54.274657011032104	fix_pre	0		11	0.0	2.5	/experiments/knapen_AOT/AOT_stimuli/rescaled_final/2086_rv.mp4	0.0	73.16827511787415	0.09164690971374512
2	54.358258962631226	pulse	0	t		0.0	2.5	/experiments/knapen_AOT/AOT_stimuli/rescaled_final/2086_rv.mp4	0.0	73.25187706947327	
2	54.36630392074585	movie	1		243	0.0	2.5	/experiments/knapen_AOT/AOT_stimuli/rescaled_final/2086_rv.mp4	0.0	73.25992202758789	2.5087878704071045
2	55.959720849990845	pulse	1	t		0.0	2.5	/experiments/knapen_AOT/AOT_stimuli/rescaled_final/2086_rv.mp4	0.0	74.85333895683289	
2	56.875091791152954	fix_post	2		12	0.0	2.5	/experiments/knapen_AOT/AOT_stimuli/rescaled_final/2086_rv.mp4	0.0	75.768709897995	0.10001206398010254
3	56.97510385513306	fix_pre	0		120	1.0	2.5	/experiments/knapen_AOT/AOT_stimuli/rescaled_final/0079_rv.mp4	0.0	75.8687219619751	1.0000951290130615
3	57.558690786361694	pulse	0	t		1.0	2.5	/experiments/knapen_AOT/AOT_stimuli/rescaled_final/0079_rv.mp4	0.0	76.45230889320374	
3	57.97519898414612	movie	1		242	1.0	2.5	/experiments/knapen_AOT/AOT_stimuli/rescaled_final/0079_rv.mp4	0.0	76.86881709098816	2.500548839569092
3	59.15901494026184	pulse	1	t		1.0	2.5	/experiments/knapen_AOT/AOT_stimuli/rescaled_final/0079_rv.mp4	0.0	78.05263304710388	
3	60.47574782371521	fix_post	2		12	1.0	2.5	/experiments/knapen_AOT/AOT_stimuli/rescaled_final/0079_rv.mp4	0.0	79.36936593055725	0.09987211227416992
4	60.57561993598938	fix_pre	0		120	2.0	2.5	/experiments/knapen_AOT/AOT_stimuli/rescaled_final/1569_rv.mp4	0.0	79.46923804283142	1.0001120567321777
4	60.75921082496643	pulse	0	t		2.0	2.5	/experiments/knapen_AOT/AOT_stimuli/rescaled_final/1569_rv.mp4	0.0	79.65282893180847	
4	61.57573199272156	movie	1		243	2.0	2.5	/experiments/knapen_AOT/AOT_stimuli/rescaled_final/1569_rv.mp4	0.0	80.4693500995636	2.5005688667297363
4	62.35946583747864	pulse	1	t		2.0	2.5	/experiments/knapen_AOT/AOT_stimuli/rescaled_final/1569_rv.mp4	0.0	81.25308394432068	
4	63.96022987365723	pulse	1	t		2.0	2.5	/experiments/knapen_AOT/AOT_stimuli/rescaled_final/1569_rv.mp4	0.0	82.85384798049927	
4	64.0763008594513	fix_post	2		12	2.0	2.5	/experiments/knapen_AOT/AOT_stimuli/rescaled_final/1569_rv.mp4	0.0	82.96991896629333	0.09988999366760254
5	64.1761908531189	fix_pre	0		120	3.0	2.5	/experiments/knapen_AOT/AOT_stimuli/rescaled_final/1153_rv.mp4	0.0	83.06980895996094	1.0000839233398438
5	65.17627477645874	movie	1		242	3.0	2.5	/experiments/knapen_AOT/AOT_stimuli/rescaled_final/1153_rv.mp4	0.0	84.06989288330078	2.4922351837158203
5	65.56045794487	pulse	1	t		3.0	2.5	/experiments/knapen_AOT/AOT_stimuli/rescaled_final/1153_rv.mp4	0.0	84.45407605171204	
5	67.15280795097351	pulse	1	t		3.0	2.5	/experiments/knapen_AOT/AOT_stimuli/rescaled_final/1153_rv.mp4	0.0	86.04642605781555	
5	67.66850996017456	fix_post	2		12	3.0	2.5	/experiments/knapen_AOT/AOT_stimuli/rescaled_final/1153_rv.mp4	0.0	86.5621280670166	0.09979796409606934
6	67.76830792427063	fix_pre	0		120	4.0	2.5	/experiments/knapen_AOT/AOT_stimuli/rescaled_final/0717_fw.mp4	0.0	86.66192603111267	1.0002069473266602
6	68.75277996063232	pulse	0	t		4.0	2.5	/experiments/knapen_AOT/AOT_stimuli/rescaled_final/0717_fw.mp4	0.0	87.64639806747437	
6	68.76851487159729	movie	1		244	4.0	2.5	/experiments/knapen_AOT/AOT_stimuli/rescaled_final/0717_fw.mp4	0.0	87.66213297843933	2.508733034133911
6	70.35221099853516	pulse	1	t		4.0	2.5	/experiments/knapen_AOT/AOT_stimuli/rescaled_final/0717_fw.mp4	0.0	89.2458291053772	
6	71.2772479057312	fix_post	2		12	4.0	2.5	/experiments/knapen_AOT/AOT_stimuli/rescaled_final/0717_fw.mp4	0.0	90.17086601257324	0.10002398490905762
7	71.37727189064026	fix_pre	0		120	5.0	2.5	/experiments/knapen_AOT/AOT_stimuli/rescaled_final/0415_fw.mp4	0.0	90.2708899974823	1.000128984451294
7	71.95246601104736	pulse	0	t		5.0	2.5	/experiments/knapen_AOT/AOT_stimuli/rescaled_final/0415_fw.mp4	0.0	90.8460841178894	
7	72.37740087509155	movie	1		243	5.0	2.5	/experiments/knapen_AOT/AOT_stimuli/rescaled_final/0415_fw.mp4	0.0	91.2710189819336	2.5004611015319824
7	73.55762982368469	pulse	1	t		5.0	2.5	/experiments/knapen_AOT/AOT_stimuli/rescaled_final/0415_fw.mp4	0.0	92.45124793052673	
7	74.87786197662354	fix_post	2		12	5.0	2.5	/experiments/knapen_AOT/AOT_stimuli/rescaled_final/0415_fw.mp4	0.0	93.77148008346558	0.0998690128326416
8	74.97773098945618	fix_pre	0		120	6.0	2.5	/experiments/knapen_AOT/AOT_stimuli/rescaled_final/1857_fw.mp4	0.0	93.87134909629822	1.0001499652862549
8	75.15289998054504	pulse	0	t		6.0	2.5	/experiments/knapen_AOT/AOT_stimuli/rescaled_final/1857_fw.mp4	0.0	94.04651808738708	
8	75.97788095474243	movie	1		242	6.0	2.5	/experiments/knapen_AOT/AOT_stimuli/rescaled_final/1857_fw.mp4	0.0	94.87149906158447	2.50062894821167
8	76.75321984291077	pulse	1	t		6.0	2.5	/experiments/knapen_AOT/AOT_stimuli/rescaled_final/1857_fw.mp4	0.0	95.64683794975281	
8	78.35351085662842	pulse	1	t		6.0	2.5	/experiments/knapen_AOT/AOT_stimuli/rescaled_final/1857_fw.mp4	0.0	97.24712896347046	
8	78.4785099029541	fix_post	2		12	6.0	2.5	/experiments/knapen_AOT/AOT_stimuli/rescaled_final/1857_fw.mp4	0.0	97.37212800979614	0.09985709190368652
9	78.57836699485779	fix_pre	0		120	7.0	2.5	blank	1.0	97.47198510169983	1.000067949295044
9	79.57843494415283	movie	1		299	7.0	2.5	blank	1.0	98.47205305099487	2.4920458793640137
9	79.95369386672974	pulse	1	t		7.0	2.5	blank	1.0	98.84731197357178	
9	81.55391478538513	pulse	1	t		7.0	2.5	blank	1.0	100.44753289222717	
9	82.07048082351685	fix_post	2		12	7.0	2.5	blank	1.0	100.96409893035889	0.10001897811889648
10	82.17049980163574	fix_pre	0		119	8.0	2.5	/experiments/knapen_AOT/AOT_stimuli/rescaled_final/0745_fw.mp4	0.0	101.06411790847778	0.9918091297149658
10	83.15407800674438	pulse	0	t		8.0	2.5	/experiments/knapen_AOT/AOT_stimuli/rescaled_final/0745_fw.mp4	0.0	102.04769611358643	
10	83.16230893135071	movie	1		246	8.0	2.5	/experiments/knapen_AOT/AOT_stimuli/rescaled_final/0745_fw.mp4	0.0	102.05592703819275	2.508730888366699
10	84.75480389595032	pulse	1	t		8.0	2.5	/experiments/knapen_AOT/AOT_stimuli/rescaled_final/0745_fw.mp4	0.0	103.64842200279236	
10	85.67103981971741	fix_post	2		12	8.0	2.5	/experiments/knapen_AOT/AOT_stimuli/rescaled_final/0745_fw.mp4	0.0	104.56465792655945	0.10002517700195312
11	85.77106499671936	fix_pre	0		120	9.0	2.5	/experiments/knapen_AOT/AOT_stimuli/rescaled_final/1803_rv.mp4	0.0	104.6646831035614	1.000121831893921
11	86.35469889640808	pulse	0	t		9.0	2.5	/experiments/knapen_AOT/AOT_stimuli/rescaled_final/1803_rv.mp4	0.0	105.24831700325012	
11	86.77118682861328	movie	1		242	9.0	2.5	/experiments/knapen_AOT/AOT_stimuli/rescaled_final/1803_rv.mp4	0.0	105.66480493545532	2.5005509853363037
11	87.9549789428711	pulse	1	t		9.0	2.5	/experiments/knapen_AOT/AOT_stimuli/rescaled_final/1803_rv.mp4	0.0	106.84859704971313	
11	89.27173781394958	fix_post	2		12	9.0	2.5	/experiments/knapen_AOT/AOT_stimuli/rescaled_final/1803_rv.mp4	0.0	108.16535592079163	0.09982800483703613
12	89.37156581878662	fix_pre	0		120	10.0	2.5	/experiments/knapen_AOT/AOT_stimuli/rescaled_final/1974_fw.mp4	0.0	108.26518392562866	1.0001251697540283
12	89.55512189865112	pulse	0	t		10.0	2.5	/experiments/knapen_AOT/AOT_stimuli/rescaled_final/1974_fw.mp4	0.0	108.44874000549316	
12	90.37169098854065	movie	1		242	10.0	2.5	/experiments/knapen_AOT/AOT_stimuli/rescaled_final/1974_fw.mp4	0.0	109.26530909538269	2.5006120204925537
12	91.15541100502014	pulse	1	t		10.0	2.5	/experiments/knapen_AOT/AOT_stimuli/rescaled_final/1974_fw.mp4	0.0	110.04902911186218	
12	92.75550389289856	pulse	1	t		10.0	2.5	/experiments/knapen_AOT/AOT_stimuli/rescaled_final/1974_fw.mp4	0.0	111.6491219997406	
12	92.8723030090332	fix_post	2		12	10.0	2.5	/experiments/knapen_AOT/AOT_stimuli/rescaled_final/1974_fw.mp4	0.0	111.76592111587524	0.09982895851135254
13	92.97213196754456	fix_pre	0		119	11.0	2.5	/experiments/knapen_AOT/AOT_stimuli/rescaled_final/1326_rv.mp4	0.0	111.8657500743866	0.9917848110198975
13	93.96391677856445	movie	1		242	11.0	2.5	/experiments/knapen_AOT/AOT_stimuli/rescaled_final/1326_rv.mp4	0.0	112.8575348854065	2.527039051055908
13	94.35584783554077	pulse	1	t		11.0	2.5	/experiments/knapen_AOT/AOT_stimuli/rescaled_final/1326_rv.mp4	0.0	113.24946594238281	
13	95.95602488517761	pulse	1	t		11.0	2.5	/experiments/knapen_AOT/AOT_stimuli/rescaled_final/1326_rv.mp4	0.0	114.84964299201965	
13	96.49095582962036	fix_post	2		9	11.0	2.5	/experiments/knapen_AOT/AOT_stimuli/rescaled_final/1326_rv.mp4	0.0	115.3845739364624	0.07339310646057129
14	96.56434893608093	fix_pre	0		120	12.0	2.5	/experiments/knapen_AOT/AOT_stimuli/rescaled_final/0079_fw.mp4	0.0	115.45796704292297	1.000154972076416
14	97.55628991127014	pulse	0	t		12.0	2.5	/experiments/knapen_AOT/AOT_stimuli/rescaled_final/0079_fw.mp4	0.0	116.44990801811218	
14	97.56450390815735	movie	1		243	12.0	2.5	/experiments/knapen_AOT/AOT_stimuli/rescaled_final/0079_fw.mp4	0.0	116.45812201499939	2.508755922317505
14	99.1571159362793	pulse	1	t		12.0	2.5	/experiments/knapen_AOT/AOT_stimuli/rescaled_final/0079_fw.mp4	0.0	118.05073404312134	
14	100.07325983047485	fix_post	2		12	12.0	2.5	/experiments/knapen_AOT/AOT_stimuli/rescaled_final/0079_fw.mp4	0.0	118.9668779373169	0.09994316101074219
15	100.1732029914856	fix_pre	0		120	13.0	2.5	/experiments/knapen_AOT/AOT_stimuli/rescaled_final/0406_rv.mp4	0.0	119.06682109832764	1.0001029968261719
15	100.75680088996887	pulse	0	t		13.0	2.5	/experiments/knapen_AOT/AOT_stimuli/rescaled_final/0406_rv.mp4	0.0	119.65041899681091	
15	101.17330598831177	movie	1		243	13.0	2.5	/experiments/knapen_AOT/AOT_stimuli/rescaled_final/0406_rv.mp4	0.0	120.06692409515381	2.5005409717559814
15	102.3571708202362	pulse	1	t		13.0	2.5	/experiments/knapen_AOT/AOT_stimuli/rescaled_final/0406_rv.mp4	0.0	121.25078892707825	
15	103.67384696006775	fix_post	2		12	13.0	2.5	/experiments/knapen_AOT/AOT_stimuli/rescaled_final/0406_rv.mp4	0.0	122.56746506690979	0.09984803199768066
16	103.77369499206543	fix_pre	0		120	14.0	2.5	blank	1.0	122.66731309890747	1.0001928806304932
16	103.95727801322937	pulse	0	t		14.0	2.5	blank	1.0	122.85089612007141	
16	104.77388787269592	movie	1		300	14.0	2.5	blank	1.0	123.66750597953796	2.500335931777954
16	105.55744481086731	pulse	1	t		14.0	2.5	blank	1.0	124.45106291770935	
16	107.15777397155762	pulse	1	t		14.0	2.5	blank	1.0	126.05139207839966	
16	107.27422380447388	fix_post	2		12	14.0	2.5	blank	1.0	126.16784191131592	0.10001611709594727
17	107.37423992156982	fix_pre	0		120	15.0	2.5	/experiments/knapen_AOT/AOT_stimuli/rescaled_final/1030_fw.mp4	0.0	126.26785802841187	1.0001869201660156
17	108.37442684173584	movie	1		241	15.0	2.5	/experiments/knapen_AOT/AOT_stimuli/rescaled_final/1030_fw.mp4	0.0	127.26804494857788	2.4921460151672363
17	108.7585608959198	pulse	1	t		15.0	2.5	/experiments/knapen_AOT/AOT_stimuli/rescaled_final/1030_fw.mp4	0.0	127.65217900276184	
17	110.35818099975586	pulse	1	t		15.0	2.5	/experiments/knapen_AOT/AOT_stimuli/rescaled_final/1030_fw.mp4	0.0	129.2517991065979	
17	110.86657285690308	fix_post	2		12	15.0	2.5	/experiments/knapen_AOT/AOT_stimuli/rescaled_final/1030_fw.mp4	0.0	129.76019096374512	0.09990811347961426
18	110.96648097038269	fix_pre	0		120	16.0	2.5	/experiments/knapen_AOT/AOT_stimuli/rescaled_final/0291_rv.mp4	0.0	129.86009907722473	1.0001029968261719
18	111.95844197273254	pulse	0	t		16.0	2.5	/experiments/knapen_AOT/AOT_stimuli/rescaled_final/0291_rv.mp4	0.0	130.85206007957458	
18	111.96658396720886	movie	1		245	16.0	2.5	/experiments/knapen_AOT/AOT_stimuli/rescaled_final/0291_rv.mp4	0.0	130.8602020740509	2.5086898803710938
18	113.55918192863464	pulse	1	t		16.0	2.5	/experiments/knapen_AOT/AOT_stimuli/rescaled_final/0291_rv.mp4	0.0	132.45280003547668	
18	114.47527384757996	fix_post	2		12	16.0	2.5	/experiments/knapen_AOT/AOT_stimuli/rescaled_final/0291_rv.mp4	0.0	133.368891954422	0.10009503364562988
19	114.57536888122559	fix_pre	0		120	17.0	2.5	/experiments/knapen_AOT/AOT_stimuli/rescaled_final/0101_rv.mp4	0.0	133.46898698806763	1.0001609325408936
19	115.15890693664551	pulse	0	t		17.0	2.5	/experiments/knapen_AOT/AOT_stimuli/rescaled_final/0101_rv.mp4	0.0	134.05252504348755	
19	115.57552981376648	movie	1		242	17.0	2.5	/experiments/knapen_AOT/AOT_stimuli/rescaled_final/0101_rv.mp4	0.0	134.46914792060852	2.500472068786621
19	116.75920081138611	pulse	1	t		17.0	2.5	/experiments/knapen_AOT/AOT_stimuli/rescaled_final/0101_rv.mp4	0.0	135.65281891822815	
19	118.0760018825531	fix_post	2		12	17.0	2.5	/experiments/knapen_AOT/AOT_stimuli/rescaled_final/0101_rv.mp4	0.0	136.96961998939514	0.09983491897583008
20	118.17583680152893	fix_pre	0		120	18.0	2.5	/experiments/knapen_AOT/AOT_stimuli/rescaled_final/0238_fw.mp4	0.0	137.06945490837097	1.0001540184020996
20	118.35214400291443	pulse	0	t		18.0	2.5	/experiments/knapen_AOT/AOT_stimuli/rescaled_final/0238_fw.mp4	0.0	137.24576210975647	
20	119.17599081993103	movie	1		243	18.0	2.5	/experiments/knapen_AOT/AOT_stimuli/rescaled_final/0238_fw.mp4	0.0	138.06960892677307	2.500540018081665
20	119.95237278938293	pulse	1	t		18.0	2.5	/experiments/knapen_AOT/AOT_stimuli/rescaled_final/0238_fw.mp4	0.0	138.84599089622498	
20	121.55982899665833	pulse	1	t		18.0	2.5	/experiments/knapen_AOT/AOT_stimuli/rescaled_final/0238_fw.mp4	0.0	140.45344710350037	
20	121.6765308380127	fix_post	2		12	18.0	2.5	/experiments/knapen_AOT/AOT_stimuli/rescaled_final/0238_fw.mp4	0.0	140.57014894485474	0.09984016418457031
21	121.77637100219727	fix_pre	0		120	19.0	2.5	/experiments/knapen_AOT/AOT_stimuli/rescaled_final/2151_fw.mp4	0.0	140.6699891090393	1.000126838684082
21	122.77649784088135	movie	1		242	19.0	2.5	/experiments/knapen_AOT/AOT_stimuli/rescaled_final/2151_fw.mp4	0.0	141.6701159477234	2.492077112197876
21	123.15187096595764	pulse	1	t		19.0	2.5	/experiments/knapen_AOT/AOT_stimuli/rescaled_final/2151_fw.mp4	0.0	142.04548907279968	
21	124.7520740032196	pulse	1	t		19.0	2.5	/experiments/knapen_AOT/AOT_stimuli/rescaled_final/2151_fw.mp4	0.0	143.64569211006165	
21	125.26857495307922	fix_post	2		12	19.0	2.5	/experiments/knapen_AOT/AOT_stimuli/rescaled_final/2151_fw.mp4	0.0	144.16219305992126	0.10005497932434082
22	125.36862993240356	fix_pre	0		119	20.0	2.5	blank	1.0	144.2622480392456	0.9918038845062256
22	126.35223293304443	pulse	0	t		20.0	2.5	blank	1.0	145.24585103988647	
22	126.36043381690979	movie	1		301	20.0	2.5	blank	1.0	145.25405192375183	2.50871205329895
22	127.95252680778503	pulse	1	t		20.0	2.5	blank	1.0	146.84614491462708	
22	128.86914587020874	fix_post	2		12	20.0	2.5	blank	1.0	147.76276397705078	0.10001492500305176
23	128.9691607952118	fix_pre	0		120	21.0	2.5	/experiments/knapen_AOT/AOT_stimuli/rescaled_final/0231_rv.mp4	0.0	147.86277890205383	1.0001091957092285
23	129.55275797843933	pulse	0	t		21.0	2.5	/experiments/knapen_AOT/AOT_stimuli/rescaled_final/0231_rv.mp4	0.0	148.44637608528137	
23	129.96926999092102	movie	1		243	21.0	2.5	/experiments/knapen_AOT/AOT_stimuli/rescaled_final/0231_rv.mp4	0.0	148.86288809776306	2.500382900238037
23	131.15299201011658	pulse	1	t		21.0	2.5	/experiments/knapen_AOT/AOT_stimuli/rescaled_final/0231_rv.mp4	0.0	150.04661011695862	
23	132.46965289115906	fix_post	2		12	21.0	2.5	/experiments/knapen_AOT/AOT_stimuli/rescaled_final/0231_rv.mp4	0.0	151.3632709980011	0.1000220775604248
24	132.56967496871948	fix_pre	0		120	22.0	2.5	/experiments/knapen_AOT/AOT_stimuli/rescaled_final/1599_fw.mp4	0.0	151.46329307556152	1.0001168251037598
24	132.75320982933044	pulse	0	t		22.0	2.5	/experiments/knapen_AOT/AOT_stimuli/rescaled_final/1599_fw.mp4	0.0	151.64682793617249	
24	133.56979179382324	movie	1		242	22.0	2.5	/experiments/knapen_AOT/AOT_stimuli/rescaled_final/1599_fw.mp4	0.0	152.46340990066528	2.5006051063537598
24	134.35345888137817	pulse	1	t		22.0	2.5	/experiments/knapen_AOT/AOT_stimuli/rescaled_final/1599_fw.mp4	0.0	153.24707698822021	
24	135.95432591438293	pulse	1	t		22.0	2.5	/experiments/knapen_AOT/AOT_stimuli/rescaled_final/1599_fw.mp4	0.0	154.84794402122498	
24	136.070396900177	fix_post	2		12	22.0	2.5	/experiments/knapen_AOT/AOT_stimuli/rescaled_final/1599_fw.mp4	0.0	154.96401500701904	0.099822998046875
25	136.17021989822388	fix_pre	0		120	23.0	2.5	/experiments/knapen_AOT/AOT_stimuli/rescaled_final/0390_rv.mp4	0.0	155.06383800506592	1.0001599788665771
25	137.17037987709045	movie	1		242	23.0	2.5	/experiments/knapen_AOT/AOT_stimuli/rescaled_final/0390_rv.mp4	0.0	156.0639979839325	2.4921939373016357
25	137.55464577674866	pulse	1	t		23.0	2.5	/experiments/knapen_AOT/AOT_stimuli/rescaled_final/0390_rv.mp4	0.0	156.4482638835907	
25	139.154217004776	pulse	1	t		23.0	2.5	/experiments/knapen_AOT/AOT_stimuli/rescaled_final/0390_rv.mp4	0.0	158.04783511161804	
25	139.6625738143921	fix_post	2		12	23.0	2.5	/experiments/knapen_AOT/AOT_stimuli/rescaled_final/0390_rv.mp4	0.0	158.55619192123413	0.09986400604248047
26	139.76243782043457	fix_pre	0		120	24.0	2.5	/experiments/knapen_AOT/AOT_stimuli/rescaled_final/0609_rv.mp4	0.0	158.6560559272766	1.000101089477539
26	140.75443387031555	pulse	0	t		24.0	2.5	/experiments/knapen_AOT/AOT_stimuli/rescaled_final/0609_rv.mp4	0.0	159.6480519771576	
26	140.7625389099121	movie	1		244	24.0	2.5	/experiments/knapen_AOT/AOT_stimuli/rescaled_final/0609_rv.mp4	0.0	159.65615701675415	2.5087130069732666
26	142.35541081428528	pulse	1	t		24.0	2.5	/experiments/knapen_AOT/AOT_stimuli/rescaled_final/0609_rv.mp4	0.0	161.24902892112732	
26	143.27125191688538	fix_post	2		12	24.0	2.5	/experiments/knapen_AOT/AOT_stimuli/rescaled_final/0609_rv.mp4	0.0	162.16487002372742	0.1000828742980957
27	143.37133479118347	fix_pre	0		120	25.0	2.5	/experiments/knapen_AOT/AOT_stimuli/rescaled_final/0483_rv.mp4	0.0	162.2649528980255	1.000108003616333
27	143.95486497879028	pulse	0	t		25.0	2.5	/experiments/knapen_AOT/AOT_stimuli/rescaled_final/0483_rv.mp4	0.0	162.84848308563232	
27	144.3714427947998	movie	1		243	25.0	2.5	/experiments/knapen_AOT/AOT_stimuli/rescaled_final/0483_rv.mp4	0.0	163.26506090164185	2.500495195388794
27	145.5551838874817	pulse	1	t		25.0	2.5	/experiments/knapen_AOT/AOT_stimuli/rescaled_final/0483_rv.mp4	0.0	164.44880199432373	
27	146.8719379901886	fix_post	2		12	25.0	2.5	/experiments/knapen_AOT/AOT_stimuli/rescaled_final/0483_rv.mp4	0.0	165.76555609703064	0.0998539924621582
28	146.97179198265076	fix_pre	0		120	26.0	2.5	/experiments/knapen_AOT/AOT_stimuli/rescaled_final/0371_rv.mp4	0.0	165.8654100894928	1.0002129077911377
28	147.15545988082886	pulse	0	t		26.0	2.5	/experiments/knapen_AOT/AOT_stimuli/rescaled_final/0371_rv.mp4	0.0	166.0490779876709	
28	147.9720048904419	movie	1		243	26.0	2.5	/experiments/knapen_AOT/AOT_stimuli/rescaled_final/0371_rv.mp4	0.0	166.86562299728394	2.500330924987793
28	148.75567483901978	pulse	1	t		26.0	2.5	/experiments/knapen_AOT/AOT_stimuli/rescaled_final/0371_rv.mp4	0.0	167.64929294586182	
28	150.35586786270142	pulse	1	t		26.0	2.5	/experiments/knapen_AOT/AOT_stimuli/rescaled_final/0371_rv.mp4	0.0	169.24948596954346	
28	150.4723358154297	fix_post	2		12	26.0	2.5	/experiments/knapen_AOT/AOT_stimuli/rescaled_final/0371_rv.mp4	0.0	169.36595392227173	0.1000361442565918
29	150.57237195968628	fix_pre	0		120	27.0	2.5	blank	1.0	169.46599006652832	1.0001130104064941
29	151.57248497009277	movie	1		299	27.0	2.5	blank	1.0	170.46610307693481	2.4920530319213867
29	151.95612287521362	pulse	1	t		27.0	2.5	blank	1.0	170.84974098205566	
29	153.5563359260559	pulse	1	t		27.0	2.5	blank	1.0	172.44995403289795	
29	154.06453800201416	fix_post	2		12	27.0	2.5	blank	1.0	172.9581561088562	0.1000528335571289
30	154.1645908355713	fix_pre	0		120	28.0	2.5	/experiments/knapen_AOT/AOT_stimuli/rescaled_final/1915_fw.mp4	0.0	173.05820894241333	1.0001039505004883
30	155.15660881996155	pulse	0	t		28.0	2.5	/experiments/knapen_AOT/AOT_stimuli/rescaled_final/1915_fw.mp4	0.0	174.0502269268036	
30	155.16469478607178	movie	1		243	28.0	2.5	/experiments/knapen_AOT/AOT_stimuli/rescaled_final/1915_fw.mp4	0.0	174.05831289291382	2.5087602138519287
30	156.75732898712158	pulse	1	t		28.0	2.5	/experiments/knapen_AOT/AOT_stimuli/rescaled_final/1915_fw.mp4	0.0	175.65094709396362	
30	157.6734549999237	fix_post	2		12	28.0	2.5	/experiments/knapen_AOT/AOT_stimuli/rescaled_final/1915_fw.mp4	0.0	176.56707310676575	0.10000991821289062
31	157.7734649181366	fix_pre	0		120	29.0	2.5	/experiments/knapen_AOT/AOT_stimuli/rescaled_final/2011_fw.mp4	0.0	176.66708302497864	1.0001258850097656
31	158.35698699951172	pulse	0	t		29.0	2.5	/experiments/knapen_AOT/AOT_stimuli/rescaled_final/2011_fw.mp4	0.0	177.25060510635376	
31	158.77359080314636	movie	1		239	29.0	2.5	/experiments/knapen_AOT/AOT_stimuli/rescaled_final/2011_fw.mp4	0.0	177.6672089099884	2.5004971027374268
31	159.95741987228394	pulse	1	t		29.0	2.5	/experiments/knapen_AOT/AOT_stimuli/rescaled_final/2011_fw.mp4	0.0	178.85103797912598	
31	161.2740879058838	fix_post	2		12	29.0	2.5	/experiments/knapen_AOT/AOT_stimuli/rescaled_final/2011_fw.mp4	0.0	180.16770601272583	0.09993696212768555
32	161.37402486801147	fix_pre	0		120	30.0	2.5	/experiments/knapen_AOT/AOT_stimuli/rescaled_final/0594_rv.mp4	0.0	180.26764297485352	1.0000739097595215
32	161.5576047897339	pulse	0	t		30.0	2.5	/experiments/knapen_AOT/AOT_stimuli/rescaled_final/0594_rv.mp4	0.0	180.45122289657593	
32	162.374098777771	movie	1		242	30.0	2.5	/experiments/knapen_AOT/AOT_stimuli/rescaled_final/0594_rv.mp4	0.0	181.26771688461304	2.5006320476531982
32	163.15781378746033	pulse	1	t		30.0	2.5	/experiments/knapen_AOT/AOT_stimuli/rescaled_final/0594_rv.mp4	0.0	182.05143189430237	
32	164.7580738067627	pulse	1	t		30.0	2.5	/experiments/knapen_AOT/AOT_stimuli/rescaled_final/0594_rv.mp4	0.0	183.65169191360474	
32	164.8747308254242	fix_post	2		12	30.0	2.5	/experiments/knapen_AOT/AOT_stimuli/rescaled_final/0594_rv.mp4	0.0	183.76834893226624	0.09982514381408691
33	164.97455596923828	fix_pre	0		120	31.0	2.5	/experiments/knapen_AOT/AOT_stimuli/rescaled_final/1128_fw.mp4	0.0	183.86817407608032	1.0001020431518555
33	165.97465801239014	movie	1		242	31.0	2.5	/experiments/knapen_AOT/AOT_stimuli/rescaled_final/1128_fw.mp4	0.0	184.86827611923218	2.4922239780426025
33	166.35888981819153	pulse	1	t		31.0	2.5	/experiments/knapen_AOT/AOT_stimuli/rescaled_final/1128_fw.mp4	0.0	185.25250792503357	
33	167.95851683616638	pulse	1	t		31.0	2.5	/experiments/knapen_AOT/AOT_stimuli/rescaled_final/1128_fw.mp4	0.0	186.85213494300842	
33	168.46688199043274	fix_post	2		12	31.0	2.5	/experiments/knapen_AOT/AOT_stimuli/rescaled_final/1128_fw.mp4	0.0	187.36050009727478	0.09980988502502441
34	168.56669187545776	fix_pre	0		120	32.0	2.5	/experiments/knapen_AOT/AOT_stimuli/rescaled_final/2051_rv.mp4	0.0	187.4603099822998	1.0001540184020996
34	169.55875778198242	pulse	0	t		32.0	2.5	/experiments/knapen_AOT/AOT_stimuli/rescaled_final/2051_rv.mp4	0.0	188.45237588882446	
34	169.56684589385986	movie	1		243	32.0	2.5	/experiments/knapen_AOT/AOT_stimuli/rescaled_final/2051_rv.mp4	0.0	188.4604640007019	2.508768081665039
34	171.1595048904419	pulse	1	t		32.0	2.5	/experiments/knapen_AOT/AOT_stimuli/rescaled_final/2051_rv.mp4	0.0	190.05312299728394	
34	172.0756139755249	fix_post	2		12	32.0	2.5	/experiments/knapen_AOT/AOT_stimuli/rescaled_final/2051_rv.mp4	0.0	190.96923208236694	0.10001397132873535
35	172.17562794685364	fix_pre	0		120	33.0	2.5	/experiments/knapen_AOT/AOT_stimuli/rescaled_final/0627_rv.mp4	0.0	191.06924605369568	1.0001130104064941
35	172.75927996635437	pulse	0	t		33.0	2.5	/experiments/knapen_AOT/AOT_stimuli/rescaled_final/0627_rv.mp4	0.0	191.6528980731964	
35	173.17574095726013	movie	1		243	33.0	2.5	/experiments/knapen_AOT/AOT_stimuli/rescaled_final/0627_rv.mp4	0.0	192.06935906410217	2.5003929138183594
35	174.35956478118896	pulse	1	t		33.0	2.5	/experiments/knapen_AOT/AOT_stimuli/rescaled_final/0627_rv.mp4	0.0	193.253182888031	
35	175.6761338710785	fix_post	2		12	33.0	2.5	/experiments/knapen_AOT/AOT_stimuli/rescaled_final/0627_rv.mp4	0.0	194.56975197792053	0.09997010231018066
36	175.77610397338867	fix_pre	0		120	34.0	2.5	/experiments/knapen_AOT/AOT_stimuli/rescaled_final/0780_rv.mp4	0.0	194.6697220802307	1.0001728534698486
36	175.959734916687	pulse	0	t		34.0	2.5	/experiments/knapen_AOT/AOT_stimuli/rescaled_final/0780_rv.mp4	0.0	194.85335302352905	
36	176.77627682685852	movie	1		244	34.0	2.5	/experiments/knapen_AOT/AOT_stimuli/rescaled_final/0780_rv.mp4	0.0	195.66989493370056	2.5003600120544434
36	177.55251479148865	pulse	1	t		34.0	2.5	/experiments/knapen_AOT/AOT_stimuli/rescaled_final/0780_rv.mp4	0.0	196.4461328983307	
36	179.16033697128296	pulse	1	t		34.0	2.5	/experiments/knapen_AOT/AOT_stimuli/rescaled_final/0780_rv.mp4	0.0	198.053955078125	
36	179.27663683891296	fix_post	2		12	34.0	2.5	/experiments/knapen_AOT/AOT_stimuli/rescaled_final/0780_rv.mp4	0.0	198.170254945755	0.1000370979309082
37	179.37667393684387	fix_pre	0		120	35.0	2.5	blank	1.0	198.2702920436859	1.000114917755127
37	180.376788854599	movie	1		299	35.0	2.5	blank	1.0	199.27040696144104	2.492047071456909
37	180.75289392471313	pulse	1	t		35.0	2.5	blank	1.0	199.64651203155518	
37	182.35312700271606	pulse	1	t		35.0	2.5	blank	1.0	201.2467451095581	
37	182.8688359260559	fix_post	2		12	35.0	2.5	blank	1.0	201.76245403289795	0.10000205039978027
38	182.9688379764557	fix_pre	0		119	36.0	2.5	/experiments/knapen_AOT/AOT_stimuli/rescaled_final/0784_rv.mp4	0.0	201.86245608329773	0.9918169975280762
38	183.95266389846802	pulse	0	t		36.0	2.5	/experiments/knapen_AOT/AOT_stimuli/rescaled_final/0784_rv.mp4	0.0	202.84628200531006	
38	183.96065497398376	movie	1		244	36.0	2.5	/experiments/knapen_AOT/AOT_stimuli/rescaled_final/0784_rv.mp4	0.0	202.8542730808258	2.5088210105895996
38	185.55419778823853	pulse	1	t		36.0	2.5	/experiments/knapen_AOT/AOT_stimuli/rescaled_final/0784_rv.mp4	0.0	204.44781589508057	
38	186.46947598457336	fix_post	2		12	36.0	2.5	/experiments/knapen_AOT/AOT_stimuli/rescaled_final/0784_rv.mp4	0.0	205.3630940914154	0.09996390342712402
39	186.5694398880005	fix_pre	0		120	37.0	2.5	/experiments/knapen_AOT/AOT_stimuli/rescaled_final/1015_fw.mp4	0.0	205.46305799484253	1.0000889301300049
39	187.15300679206848	pulse	0	t		37.0	2.5	/experiments/knapen_AOT/AOT_stimuli/rescaled_final/1015_fw.mp4	0.0	206.04662489891052	
39	187.5695288181305	movie	1		243	37.0	2.5	/experiments/knapen_AOT/AOT_stimuli/rescaled_final/1015_fw.mp4	0.0	206.46314692497253	2.5004961490631104
39	188.753319978714	pulse	1	t		37.0	2.5	/experiments/knapen_AOT/AOT_stimuli/rescaled_final/1015_fw.mp4	0.0	207.64693808555603	
39	190.0700249671936	fix_post	2		12	37.0	2.5	/experiments/knapen_AOT/AOT_stimuli/rescaled_final/1015_fw.mp4	0.0	208.96364307403564	0.09987688064575195
40	190.16990184783936	fix_pre	0		120	38.0	2.5	/experiments/knapen_AOT/AOT_stimuli/rescaled_final/2168_rv.mp4	0.0	209.0635199546814	1.000218152999878
40	190.35350799560547	pulse	0	t		38.0	2.5	/experiments/knapen_AOT/AOT_stimuli/rescaled_final/2168_rv.mp4	0.0	209.2471261024475	
40	191.17012000083923	movie	1		243	38.0	2.5	/experiments/knapen_AOT/AOT_stimuli/rescaled_final/2168_rv.mp4	0.0	210.06373810768127	2.5005338191986084
40	191.9537708759308	pulse	1	t		38.0	2.5	/experiments/knapen_AOT/AOT_stimuli/rescaled_final/2168_rv.mp4	0.0	210.84738898277283	
40	193.55397391319275	pulse	1	t		38.0	2.5	/experiments/knapen_AOT/AOT_stimuli/rescaled_final/2168_rv.mp4	0.0	212.4475920200348	
40	193.67065382003784	fix_post	2		12	38.0	2.5	/experiments/knapen_AOT/AOT_stimuli/rescaled_final/2168_rv.mp4	0.0	212.56427192687988	0.09984207153320312
41	193.77049589157104	fix_pre	0		120	39.0	2.5	/experiments/knapen_AOT/AOT_stimuli/rescaled_final/1344_fw.mp4	0.0	212.6641139984131	1.0001420974731445
41	194.7706379890442	movie	1		242	39.0	2.5	/experiments/knapen_AOT/AOT_stimuli/rescaled_final/1344_fw.mp4	0.0	213.66425609588623	2.492198944091797
41	195.154953956604	pulse	1	t		39.0	2.5	/experiments/knapen_AOT/AOT_stimuli/rescaled_final/1344_fw.mp4	0.0	214.04857206344604	
41	196.75448894500732	pulse	1	t		39.0	2.5	/experiments/knapen_AOT/AOT_stimuli/rescaled_final/1344_fw.mp4	0.0	215.64810705184937	
41	197.262836933136	fix_post	2		12	39.0	2.5	/experiments/knapen_AOT/AOT_stimuli/rescaled_final/1344_fw.mp4	0.0	216.15645503997803	0.0998530387878418
42	197.36268997192383	fix_pre	0		120	40.0	2.5	/experiments/knapen_AOT/AOT_stimuli/rescaled_final/1501_fw.mp4	0.0	216.25630807876587	1.000114917755127
42	198.3547399044037	pulse	0	t		40.0	2.5	/experiments/knapen_AOT/AOT_stimuli/rescaled_final/1501_fw.mp4	0.0	217.24835801124573	
42	198.36280488967896	movie	1		245	40.0	2.5	/experiments/knapen_AOT/AOT_stimuli/rescaled_final/1501_fw.mp4	0.0	217.256422996521	2.5087718963623047
42	199.9554419517517	pulse	1	t		40.0	2.5	/experiments/knapen_AOT/AOT_stimuli/rescaled_final/1501_fw.mp4	0.0	218.84906005859375	
42	200.87157678604126	fix_post	2		12	40.0	2.5	/experiments/knapen_AOT/AOT_stimuli/rescaled_final/1501_fw.mp4	0.0	219.7651948928833	0.10003018379211426
43	200.97160696983337	fix_pre	0		120	41.0	2.5	blank	1.0	219.86522507667542	1.0000848770141602
43	201.5552158355713	pulse	0	t		41.0	2.5	blank	1.0	220.44883394241333	
43	201.97169184684753	movie	1		300	41.0	2.5	blank	1.0	220.86530995368958	2.500383138656616
43	203.1553738117218	pulse	1	t		41.0	2.5	blank	1.0	222.04899191856384	
43	204.47207498550415	fix_post	2		12	41.0	2.5	blank	1.0	223.3656930923462	0.1000978946685791
44	204.57217288017273	fix_pre	0		120	42.0	2.5	/experiments/knapen_AOT/AOT_stimuli/rescaled_final/0920_fw.mp4	0.0	223.46579098701477	1.0000638961791992
44	204.75563597679138	pulse	0	t		42.0	2.5	/experiments/knapen_AOT/AOT_stimuli/rescaled_final/0920_fw.mp4	0.0	223.64925408363342	
44	205.57223677635193	movie	1		242	42.0	2.5	/experiments/knapen_AOT/AOT_stimuli/rescaled_final/0920_fw.mp4	0.0	224.46585488319397	2.5005171298980713
44	206.35595679283142	pulse	1	t		42.0	2.5	/experiments/knapen_AOT/AOT_stimuli/rescaled_final/0920_fw.mp4	0.0	225.24957489967346	
44	207.95655584335327	pulse	1	t		42.0	2.5	/experiments/knapen_AOT/AOT_stimuli/rescaled_final/0920_fw.mp4	0.0	226.8501739501953	
44	208.07275390625	fix_post	2		12	42.0	2.5	/experiments/knapen_AOT/AOT_stimuli/rescaled_final/0920_fw.mp4	0.0	226.96637201309204	0.09988188743591309
45	208.1726357936859	fix_pre	0		120	43.0	2.5	/experiments/knapen_AOT/AOT_stimuli/rescaled_final/0037_fw.mp4	0.0	227.06625390052795	1.0001261234283447
45	209.17276191711426	movie	1		244	43.0	2.5	/experiments/knapen_AOT/AOT_stimuli/rescaled_final/0037_fw.mp4	0.0	228.0663800239563	2.4920170307159424
45	209.55698680877686	pulse	1	t		43.0	2.5	/experiments/knapen_AOT/AOT_stimuli/rescaled_final/0037_fw.mp4	0.0	228.4506049156189	
45	211.15659594535828	pulse	1	t		43.0	2.5	/experiments/knapen_AOT/AOT_stimuli/rescaled_final/0037_fw.mp4	0.0	230.05021405220032	
45	211.6647789478302	fix_post	2		12	43.0	2.5	/experiments/knapen_AOT/AOT_stimuli/rescaled_final/0037_fw.mp4	0.0	230.55839705467224	0.1000669002532959
46	211.7648458480835	fix_pre	0		120	44.0	2.5	/experiments/knapen_AOT/AOT_stimuli/rescaled_final/0500_fw.mp4	0.0	230.65846395492554	1.000115156173706
46	212.75688791275024	pulse	0	t		44.0	2.5	/experiments/knapen_AOT/AOT_stimuli/rescaled_final/0500_fw.mp4	0.0	231.65050601959229	
46	212.7649610042572	movie	1		244	44.0	2.5	/experiments/knapen_AOT/AOT_stimuli/rescaled_final/0500_fw.mp4	0.0	231.65857911109924	2.508739948272705
46	214.3585329055786	pulse	1	t		44.0	2.5	/experiments/knapen_AOT/AOT_stimuli/rescaled_final/0500_fw.mp4	0.0	233.25215101242065	
46	215.2737009525299	fix_post	2		12	44.0	2.5	/experiments/knapen_AOT/AOT_stimuli/rescaled_final/0500_fw.mp4	0.0	234.16731905937195	0.09998202323913574
47	215.37368297576904	fix_pre	0		120	45.0	2.5	/experiments/knapen_AOT/AOT_stimuli/rescaled_final/1392_rv.mp4	0.0	234.26730108261108	1.000208854675293
47	215.9573619365692	pulse	0	t		45.0	2.5	/experiments/knapen_AOT/AOT_stimuli/rescaled_final/1392_rv.mp4	0.0	234.85098004341125	
47	216.37389183044434	movie	1		243	45.0	2.5	/experiments/knapen_AOT/AOT_stimuli/rescaled_final/1392_rv.mp4	0.0	235.26750993728638	2.500533103942871
47	217.55763292312622	pulse	1	t		45.0	2.5	/experiments/knapen_AOT/AOT_stimuli/rescaled_final/1392_rv.mp4	0.0	236.45125102996826	
47	218.8744249343872	fix_post	2		12	45.0	2.5	/experiments/knapen_AOT/AOT_stimuli/rescaled_final/1392_rv.mp4	0.0	237.76804304122925	0.0998680591583252
48	218.97429299354553	fix_pre	0		117	46.0	2.5	/experiments/knapen_AOT/AOT_stimuli/rescaled_final/1728_rv.mp4	0.0	237.86791110038757	1.0001039505004883
48	219.15776085853577	pulse	0	t		46.0	2.5	/experiments/knapen_AOT/AOT_stimuli/rescaled_final/1728_rv.mp4	0.0	238.0513789653778	
48	219.97439694404602	movie	1		242	46.0	2.5	/experiments/knapen_AOT/AOT_stimuli/rescaled_final/1728_rv.mp4	0.0	238.86801505088806	2.50050687789917
48	220.75802779197693	pulse	1	t		46.0	2.5	/experiments/knapen_AOT/AOT_stimuli/rescaled_final/1728_rv.mp4	0.0	239.65164589881897	
48	222.3580048084259	pulse	1	t		46.0	2.5	/experiments/knapen_AOT/AOT_stimuli/rescaled_final/1728_rv.mp4	0.0	241.25162291526794	
48	222.4749038219452	fix_post	2		12	46.0	2.5	/experiments/knapen_AOT/AOT_stimuli/rescaled_final/1728_rv.mp4	0.0	241.36852192878723	0.09987306594848633
49	222.57477688789368	fix_pre	0		120	47.0	2.5	/experiments/knapen_AOT/AOT_stimuli/rescaled_final/1949_fw.mp4	0.0	241.46839499473572	1.000154972076416
49	223.5749318599701	movie	1		242	47.0	2.5	/experiments/knapen_AOT/AOT_stimuli/rescaled_final/1949_fw.mp4	0.0	242.46854996681213	2.4921860694885254
49	223.9592719078064	pulse	1	t		47.0	2.5	/experiments/knapen_AOT/AOT_stimuli/rescaled_final/1949_fw.mp4	0.0	242.85289001464844	
49	225.55879378318787	pulse	1	t		47.0	2.5	/experiments/knapen_AOT/AOT_stimuli/rescaled_final/1949_fw.mp4	0.0	244.4524118900299	
49	226.06711792945862	fix_post	2		12	47.0	2.5	/experiments/knapen_AOT/AOT_stimuli/rescaled_final/1949_fw.mp4	0.0	244.96073603630066	0.09988188743591309
50	226.16699981689453	fix_pre	0		120	48.0	2.5	/experiments/knapen_AOT/AOT_stimuli/rescaled_final/0532_fw.mp4	0.0	245.06061792373657	1.000148057937622
50	227.15896081924438	pulse	0	t		48.0	2.5	/experiments/knapen_AOT/AOT_stimuli/rescaled_final/0532_fw.mp4	0.0	246.05257892608643	
50	227.16714787483215	movie	1		245	48.0	2.5	/experiments/knapen_AOT/AOT_stimuli/rescaled_final/0532_fw.mp4	0.0	246.0607659816742	2.508671998977661
50	228.76042985916138	pulse	1	t		48.0	2.5	/experiments/knapen_AOT/AOT_stimuli/rescaled_final/0532_fw.mp4	0.0	247.65404796600342	
50	229.67581987380981	fix_post	2		12	48.0	2.5	/experiments/knapen_AOT/AOT_stimuli/rescaled_final/0532_fw.mp4	0.0	248.56943798065186	0.10001111030578613
51	229.7758309841156	fix_pre	0		120	49.0	2.5	blank	1.0	248.66944909095764	1.0001559257507324
51	230.35200381278992	pulse	0	t		49.0	2.5	blank	1.0	249.24562191963196	
51	230.77598690986633	movie	1		300	49.0	2.5	blank	1.0	249.66960501670837	2.5004489421844482
51	231.9522647857666	pulse	1	t		49.0	2.5	blank	1.0	250.84588289260864	
51	233.27643585205078	fix_post	2		12	49.0	2.5	blank	1.0	252.17005395889282	0.09998297691345215
52	233.37641882896423	fix_pre	0		120	50.0	2.5	/experiments/knapen_AOT/AOT_stimuli/rescaled_final/0576_fw.mp4	0.0	252.27003693580627	1.000110149383545
52	233.55249190330505	pulse	0	t		50.0	2.5	/experiments/knapen_AOT/AOT_stimuli/rescaled_final/0576_fw.mp4	0.0	252.4461100101471	
52	234.37652897834778	movie	1		244	50.0	2.5	/experiments/knapen_AOT/AOT_stimuli/rescaled_final/0576_fw.mp4	0.0	253.27014708518982	2.5003650188446045
52	235.15274596214294	pulse	1	t		50.0	2.5	/experiments/knapen_AOT/AOT_stimuli/rescaled_final/0576_fw.mp4	0.0	254.04636406898499	
52	236.75225186347961	pulse	1	t		50.0	2.5	/experiments/knapen_AOT/AOT_stimuli/rescaled_final/0576_fw.mp4	0.0	255.64586997032166	
52	236.87689399719238	fix_post	2		12	50.0	2.5	/experiments/knapen_AOT/AOT_stimuli/rescaled_final/0576_fw.mp4	0.0	255.77051210403442	0.1000068187713623
53	236.97690081596375	fix_pre	0		120	51.0	2.5	/experiments/knapen_AOT/AOT_stimuli/rescaled_final/0266_rv.mp4	0.0	255.8705189228058	1.0001561641693115
53	237.97705698013306	movie	1		244	51.0	2.5	/experiments/knapen_AOT/AOT_stimuli/rescaled_final/0266_rv.mp4	0.0	256.8706750869751	2.492065906524658
53	238.3522868156433	pulse	1	t		51.0	2.5	/experiments/knapen_AOT/AOT_stimuli/rescaled_final/0266_rv.mp4	0.0	257.24590492248535	
53	239.95266389846802	pulse	1	t		51.0	2.5	/experiments/knapen_AOT/AOT_stimuli/rescaled_final/0266_rv.mp4	0.0	258.84628200531006	
53	240.46912288665771	fix_post	2		12	51.0	2.5	/experiments/knapen_AOT/AOT_stimuli/rescaled_final/0266_rv.mp4	0.0	259.36274099349976	0.10000896453857422
54	240.5691318511963	fix_pre	0		119	52.0	2.5	/experiments/knapen_AOT/AOT_stimuli/rescaled_final/1637_fw.mp4	0.0	259.46274995803833	0.9917910099029541
54	241.55279994010925	pulse	0	t		52.0	2.5	/experiments/knapen_AOT/AOT_stimuli/rescaled_final/1637_fw.mp4	0.0	260.4464180469513	
54	241.56092286109924	movie	1		245	52.0	2.5	/experiments/knapen_AOT/AOT_stimuli/rescaled_final/1637_fw.mp4	0.0	260.4545409679413	2.5087380409240723
54	243.15358901023865	pulse	1	t		52.0	2.5	/experiments/knapen_AOT/AOT_stimuli/rescaled_final/1637_fw.mp4	0.0	262.0472071170807	
54	244.06966090202332	fix_post	2		12	52.0	2.5	/experiments/knapen_AOT/AOT_stimuli/rescaled_final/1637_fw.mp4	0.0	262.96327900886536	0.1000070571899414
55	244.16966795921326	fix_pre	0		120	53.0	2.5	/experiments/knapen_AOT/AOT_stimuli/rescaled_final/1622_fw.mp4	0.0	263.0632860660553	1.0001599788665771
55	244.75336480140686	pulse	0	t		53.0	2.5	/experiments/knapen_AOT/AOT_stimuli/rescaled_final/1622_fw.mp4	0.0	263.6469829082489	
55	245.16982793807983	movie	1		242	53.0	2.5	/experiments/knapen_AOT/AOT_stimuli/rescaled_final/1622_fw.mp4	0.0	264.0634460449219	2.5005509853363037
55	246.35365390777588	pulse	1	t		53.0	2.5	/experiments/knapen_AOT/AOT_stimuli/rescaled_final/1622_fw.mp4	0.0	265.2472720146179	
55	247.67037892341614	fix_post	2		12	53.0	2.5	/experiments/knapen_AOT/AOT_stimuli/rescaled_final/1622_fw.mp4	0.0	266.5639970302582	0.09986495971679688
56	247.77024388313293	fix_pre	0		120	54.0	2.5	/experiments/knapen_AOT/AOT_stimuli/rescaled_final/0140_fw.mp4	0.0	266.663861989975	1.0001261234283447
56	247.95372700691223	pulse	0	t		54.0	2.5	/experiments/knapen_AOT/AOT_stimuli/rescaled_final/0140_fw.mp4	0.0	266.8473451137543	
56	248.77037000656128	movie	1		243	54.0	2.5	/experiments/knapen_AOT/AOT_stimuli/rescaled_final/0140_fw.mp4	0.0	267.6639881134033	2.5003747940063477
56	249.55398678779602	pulse	1	t		54.0	2.5	/experiments/knapen_AOT/AOT_stimuli/rescaled_final/0140_fw.mp4	0.0	268.44760489463806	
56	251.1541018486023	pulse	1	t		54.0	2.5	/experiments/knapen_AOT/AOT_stimuli/rescaled_final/0140_fw.mp4	0.0	270.04771995544434	
56	251.27074480056763	fix_post	2		12	54.0	2.5	/experiments/knapen_AOT/AOT_stimuli/rescaled_final/0140_fw.mp4	0.0	270.16436290740967	0.09999513626098633
57	251.3707399368286	fix_pre	0		120	55.0	2.5	blank	1.0	270.26435804367065	1.0001399517059326
57	252.37087988853455	movie	1		299	55.0	2.5	blank	1.0	271.2644979953766	2.492033004760742
57	252.75455379486084	pulse	1	t		55.0	2.5	blank	1.0	271.6481719017029	
57	254.354731798172	pulse	1	t		55.0	2.5	blank	1.0	273.24834990501404	
57	254.8629128932953	fix_post	2		12	55.0	2.5	blank	1.0	273.75653100013733	0.10001397132873535
58	254.96292686462402	fix_pre	0		120	56.0	2.5	/experiments/knapen_AOT/AOT_stimuli/rescaled_final/1825_rv.mp4	0.0	273.85654497146606	1.000162124633789
58	255.95489597320557	pulse	0	t		56.0	2.5	/experiments/knapen_AOT/AOT_stimuli/rescaled_final/1825_rv.mp4	0.0	274.8485140800476	
58	255.9630889892578	movie	1		243	56.0	2.5	/experiments/knapen_AOT/AOT_stimuli/rescaled_final/1825_rv.mp4	0.0	274.85670709609985	2.5087709426879883
58	257.5558259487152	pulse	1	t		56.0	2.5	/experiments/knapen_AOT/AOT_stimuli/rescaled_final/1825_rv.mp4	0.0	276.44944405555725	
58	258.4718599319458	fix_post	2		12	56.0	2.5	/experiments/knapen_AOT/AOT_stimuli/rescaled_final/1825_rv.mp4	0.0	277.36547803878784	0.09993386268615723
59	258.57179379463196	fix_pre	0		120	57.0	2.5	/experiments/knapen_AOT/AOT_stimuli/rescaled_final/1241_fw.mp4	0.0	277.465411901474	1.0001602172851562
59	259.1555178165436	pulse	0	t		57.0	2.5	/experiments/knapen_AOT/AOT_stimuli/rescaled_final/1241_fw.mp4	0.0	278.0491359233856	
59	259.5719540119171	movie	1		243	57.0	2.5	/experiments/knapen_AOT/AOT_stimuli/rescaled_final/1241_fw.mp4	0.0	278.46557211875916	2.5005338191986084
59	260.7557728290558	pulse	1	t		57.0	2.5	/experiments/knapen_AOT/AOT_stimuli/rescaled_final/1241_fw.mp4	0.0	279.6493909358978	
59	262.0724878311157	fix_post	2		12	57.0	2.5	/experiments/knapen_AOT/AOT_stimuli/rescaled_final/1241_fw.mp4	0.0	280.96610593795776	0.09990906715393066
60	262.17239689826965	fix_pre	0		120	58.0	2.5	/experiments/knapen_AOT/AOT_stimuli/rescaled_final/1752_rv.mp4	0.0	281.0660150051117	1.0000650882720947
60	262.35589480400085	pulse	0	t		58.0	2.5	/experiments/knapen_AOT/AOT_stimuli/rescaled_final/1752_rv.mp4	0.0	281.2495129108429	
60	263.17246198654175	movie	1		243	58.0	2.5	/experiments/knapen_AOT/AOT_stimuli/rescaled_final/1752_rv.mp4	0.0	282.0660800933838	2.500401020050049
60	263.9560887813568	pulse	1	t		58.0	2.5	/experiments/knapen_AOT/AOT_stimuli/rescaled_final/1752_rv.mp4	0.0	282.84970688819885	
60	265.55620884895325	pulse	1	t		58.0	2.5	/experiments/knapen_AOT/AOT_stimuli/rescaled_final/1752_rv.mp4	0.0	284.4498269557953	
60	265.6728630065918	fix_post	2		12	58.0	2.5	/experiments/knapen_AOT/AOT_stimuli/rescaled_final/1752_rv.mp4	0.0	284.56648111343384	0.1000068187713623
61	265.77286982536316	fix_pre	0		120	59.0	2.5	/experiments/knapen_AOT/AOT_stimuli/rescaled_final/0855_fw.mp4	0.0	284.6664879322052	1.000133991241455
61	266.7730038166046	movie	1		242	59.0	2.5	/experiments/knapen_AOT/AOT_stimuli/rescaled_final/0855_fw.mp4	0.0	285.66662192344666	2.4922711849212646
61	267.15734696388245	pulse	1	t		59.0	2.5	/experiments/knapen_AOT/AOT_stimuli/rescaled_final/0855_fw.mp4	0.0	286.0509650707245	
61	268.75692796707153	pulse	1	t		59.0	2.5	/experiments/knapen_AOT/AOT_stimuli/rescaled_final/0855_fw.mp4	0.0	287.6505460739136	
61	269.2652750015259	fix_post	2		12	59.0	2.5	/experiments/knapen_AOT/AOT_stimuli/rescaled_final/0855_fw.mp4	0.0	288.1588931083679	0.09977889060974121
62	269.3650538921356	fix_pre	0		120	60.0	2.5	/experiments/knapen_AOT/AOT_stimuli/rescaled_final/2161_fw.mp4	0.0	288.25867199897766	1.0001649856567383
62	270.3570477962494	pulse	0	t		60.0	2.5	/experiments/knapen_AOT/AOT_stimuli/rescaled_final/2161_fw.mp4	0.0	289.25066590309143	
62	270.36521887779236	movie	1		244	60.0	2.5	/experiments/knapen_AOT/AOT_stimuli/rescaled_final/2161_fw.mp4	0.0	289.2588369846344	2.508716106414795
62	271.95768094062805	pulse	1	t		60.0	2.5	/experiments/knapen_AOT/AOT_stimuli/rescaled_final/2161_fw.mp4	0.0	290.8512990474701	
62	272.87393498420715	fix_post	2		12	60.0	2.5	/experiments/knapen_AOT/AOT_stimuli/rescaled_final/2161_fw.mp4	0.0	291.7675530910492	0.10001087188720703
63	272.97394585609436	fix_pre	0		120	61.0	2.5	/experiments/knapen_AOT/AOT_stimuli/rescaled_final/0406_fw.mp4	0.0	291.8675639629364	1.000169038772583
63	273.55769085884094	pulse	0	t		61.0	2.5	/experiments/knapen_AOT/AOT_stimuli/rescaled_final/0406_fw.mp4	0.0	292.451308965683	
63	273.97411489486694	movie	1		243	61.0	2.5	/experiments/knapen_AOT/AOT_stimuli/rescaled_final/0406_fw.mp4	0.0	292.867733001709	2.500586986541748
63	275.1579079627991	pulse	1	t		61.0	2.5	/experiments/knapen_AOT/AOT_stimuli/rescaled_final/0406_fw.mp4	0.0	294.0515260696411	
63	276.4747018814087	fix_post	2		12	61.0	2.5	/experiments/knapen_AOT/AOT_stimuli/rescaled_final/0406_fw.mp4	0.0	295.36831998825073	0.09979391098022461
64	276.5744957923889	fix_pre	0		120	62.0	2.5	/experiments/knapen_AOT/AOT_stimuli/rescaled_final/0463_rv.mp4	0.0	295.46811389923096	1.0001461505889893
64	276.7580568790436	pulse	0	t		62.0	2.5	/experiments/knapen_AOT/AOT_stimuli/rescaled_final/0463_rv.mp4	0.0	295.6516749858856	
64	277.5746419429779	movie	1		242	62.0	2.5	/experiments/knapen_AOT/AOT_stimuli/rescaled_final/0463_rv.mp4	0.0	296.46826004981995	2.500527858734131
64	278.35829997062683	pulse	1	t		62.0	2.5	/experiments/knapen_AOT/AOT_stimuli/rescaled_final/0463_rv.mp4	0.0	297.2519180774689	
64	279.9584848880768	pulse	1	t		62.0	2.5	/experiments/knapen_AOT/AOT_stimuli/rescaled_final/0463_rv.mp4	0.0	298.8521029949188	
64	280.07516980171204	fix_post	2		12	62.0	2.5	/experiments/knapen_AOT/AOT_stimuli/rescaled_final/0463_rv.mp4	0.0	298.9687879085541	0.09986400604248047
65	280.1750338077545	fix_pre	0		120	63.0	2.5	blank	1.0	299.06865191459656	1.000136137008667
65	281.1751699447632	movie	1		296	63.0	2.5	blank	1.0	300.0687880516052	2.492065906524658
65	281.5588150024414	pulse	1	t		63.0	2.5	blank	1.0	300.45243310928345	
65	283.15157198905945	pulse	1	t		63.0	2.5	blank	1.0	302.0451900959015	
65	283.66723585128784	fix_post	2		12	63.0	2.5	blank	1.0	302.5608539581299	0.10002613067626953
66	283.7672619819641	fix_pre	0		120	64.0	2.5	/experiments/knapen_AOT/AOT_stimuli/rescaled_final/0506_rv.mp4	0.0	302.66088008880615	1.000154972076416
66	284.75168800354004	pulse	0	t		64.0	2.5	/experiments/knapen_AOT/AOT_stimuli/rescaled_final/0506_rv.mp4	0.0	303.6453061103821	
66	284.7674169540405	movie	1		244	64.0	2.5	/experiments/knapen_AOT/AOT_stimuli/rescaled_final/0506_rv.mp4	0.0	303.66103506088257	2.5086770057678223
66	286.36094999313354	pulse	1	t		64.0	2.5	/experiments/knapen_AOT/AOT_stimuli/rescaled_final/0506_rv.mp4	0.0	305.2545680999756	
66	287.27609395980835	fix_post	2		12	64.0	2.5	/experiments/knapen_AOT/AOT_stimuli/rescaled_final/0506_rv.mp4	0.0	306.1697120666504	0.0999898910522461
67	287.3760838508606	fix_pre	0		120	65.0	2.5	/experiments/knapen_AOT/AOT_stimuli/rescaled_final/0345_rv.mp4	0.0	306.26970195770264	1.0001559257507324
67	287.95213198661804	pulse	0	t		65.0	2.5	/experiments/knapen_AOT/AOT_stimuli/rescaled_final/0345_rv.mp4	0.0	306.8457500934601	
67	288.3762397766113	movie	1		242	65.0	2.5	/experiments/knapen_AOT/AOT_stimuli/rescaled_final/0345_rv.mp4	0.0	307.26985788345337	2.5005991458892822
67	289.55219888687134	pulse	1	t		65.0	2.5	/experiments/knapen_AOT/AOT_stimuli/rescaled_final/0345_rv.mp4	0.0	308.4458169937134	
67	290.8768389225006	fix_post	2		12	65.0	2.5	/experiments/knapen_AOT/AOT_stimuli/rescaled_final/0345_rv.mp4	0.0	309.77045702934265	0.0998239517211914
68	290.9766628742218	fix_pre	0		120	66.0	2.5	/experiments/knapen_AOT/AOT_stimuli/rescaled_final/1998_rv.mp4	0.0	309.87028098106384	1.0001380443572998
68	291.1519048213959	pulse	0	t		66.0	2.5	/experiments/knapen_AOT/AOT_stimuli/rescaled_final/1998_rv.mp4	0.0	310.0455229282379	
68	291.9768009185791	movie	1		242	66.0	2.5	/experiments/knapen_AOT/AOT_stimuli/rescaled_final/1998_rv.mp4	0.0	310.87041902542114	2.500559091567993
68	292.7520728111267	pulse	1	t		66.0	2.5	/experiments/knapen_AOT/AOT_stimuli/rescaled_final/1998_rv.mp4	0.0	311.64569091796875	
68	294.35229086875916	pulse	1	t		66.0	2.5	/experiments/knapen_AOT/AOT_stimuli/rescaled_final/1998_rv.mp4	0.0	313.2459089756012	
68	294.4773600101471	fix_post	2		12	66.0	2.5	/experiments/knapen_AOT/AOT_stimuli/rescaled_final/1998_rv.mp4	0.0	313.37097811698914	0.09981679916381836
69	294.5771768093109	fix_pre	0		119	67.0	2.5	/experiments/knapen_AOT/AOT_stimuli/rescaled_final/0398_fw.mp4	0.0	313.47079491615295	0.991814136505127
69	295.56899094581604	movie	1		243	67.0	2.5	/experiments/knapen_AOT/AOT_stimuli/rescaled_final/0398_fw.mp4	0.0	314.4626090526581	2.500516891479492
69	295.95324993133545	pulse	1	t		67.0	2.5	/experiments/knapen_AOT/AOT_stimuli/rescaled_final/0398_fw.mp4	0.0	314.8468680381775	
69	297.5528848171234	pulse	1	t		67.0	2.5	/experiments/knapen_AOT/AOT_stimuli/rescaled_final/0398_fw.mp4	0.0	316.44650292396545	
69	298.06950783729553	fix_post	2		12	67.0	2.5	/experiments/knapen_AOT/AOT_stimuli/rescaled_final/0398_fw.mp4	0.0	316.9631259441376	0.09989595413208008
70	298.1694037914276	fix_pre	0		119	68.0	2.5	/experiments/knapen_AOT/AOT_stimuli/rescaled_final/1548_rv.mp4	0.0	317.06302189826965	0.9918210506439209
70	299.1529908180237	pulse	0	t		68.0	2.5	/experiments/knapen_AOT/AOT_stimuli/rescaled_final/1548_rv.mp4	0.0	318.0466089248657	
70	299.16122484207153	movie	1		244	68.0	2.5	/experiments/knapen_AOT/AOT_stimuli/rescaled_final/1548_rv.mp4	0.0	318.0548429489136	2.508733034133911
70	300.75374388694763	pulse	1	t		68.0	2.5	/experiments/knapen_AOT/AOT_stimuli/rescaled_final/1548_rv.mp4	0.0	319.6473619937897	
70	301.66995787620544	fix_post	2		12	68.0	2.5	/experiments/knapen_AOT/AOT_stimuli/rescaled_final/1548_rv.mp4	0.0	320.5635759830475	0.09999203681945801
71	301.7699499130249	fix_pre	0		120	69.0	2.5	blank	1.0	320.66356801986694	1.0001239776611328
71	302.35351490974426	pulse	0	t		69.0	2.5	blank	1.0	321.2471330165863	
71	302.77007389068604	movie	1		300	69.0	2.5	blank	1.0	321.6636919975281	2.5003819465637207
71	303.95384883880615	pulse	1	t		69.0	2.5	blank	1.0	322.8474669456482	
71	305.27045583724976	fix_post	2		12	69.0	2.5	blank	1.0	324.1640739440918	0.10004806518554688
72	305.3705039024353	fix_pre	0		120	70.0	2.5	/experiments/knapen_AOT/AOT_stimuli/rescaled_final/1501_rv.mp4	0.0	324.26412200927734	1.0001630783081055
72	305.55398988723755	pulse	0	t		70.0	2.5	/experiments/knapen_AOT/AOT_stimuli/rescaled_final/1501_rv.mp4	0.0	324.4476079940796	
72	306.3706669807434	movie	1		244	70.0	2.5	/experiments/knapen_AOT/AOT_stimuli/rescaled_final/1501_rv.mp4	0.0	325.26428508758545	2.500288963317871
72	307.1543447971344	pulse	1	t		70.0	2.5	/experiments/knapen_AOT/AOT_stimuli/rescaled_final/1501_rv.mp4	0.0	326.04796290397644	
72	308.75794792175293	pulse	1	t		70.0	2.5	/experiments/knapen_AOT/AOT_stimuli/rescaled_final/1501_rv.mp4	0.0	327.65156602859497	
72	308.8709559440613	fix_post	2		12	70.0	2.5	/experiments/knapen_AOT/AOT_stimuli/rescaled_final/1501_rv.mp4	0.0	327.7645740509033	0.10007596015930176
73	308.9710319042206	fix_pre	0		120	71.0	2.5	/experiments/knapen_AOT/AOT_stimuli/rescaled_final/0694_fw.mp4	0.0	327.8646500110626	1.0000979900360107
73	309.9711298942566	movie	1		241	71.0	2.5	/experiments/knapen_AOT/AOT_stimuli/rescaled_final/0694_fw.mp4	0.0	328.86474800109863	2.492150068283081
73	310.35624384880066	pulse	1	t		71.0	2.5	/experiments/knapen_AOT/AOT_stimuli/rescaled_final/0694_fw.mp4	0.0	329.2498619556427	
73	311.95498180389404	pulse	1	t		71.0	2.5	/experiments/knapen_AOT/AOT_stimuli/rescaled_final/0694_fw.mp4	0.0	330.8485999107361	
73	312.4632799625397	fix_post	2		12	71.0	2.5	/experiments/knapen_AOT/AOT_stimuli/rescaled_final/0694_fw.mp4	0.0	331.3568980693817	0.09996199607849121
74	312.56324195861816	fix_pre	0		120	72.0	2.5	/experiments/knapen_AOT/AOT_stimuli/rescaled_final/1012_rv.mp4	0.0	331.4568600654602	1.0001039505004883
74	313.5552439689636	pulse	0	t		72.0	2.5	/experiments/knapen_AOT/AOT_stimuli/rescaled_final/1012_rv.mp4	0.0	332.44886207580566	
74	313.56334590911865	movie	1		243	72.0	2.5	/experiments/knapen_AOT/AOT_stimuli/rescaled_final/1012_rv.mp4	0.0	332.4569640159607	2.508776903152466
74	315.1561119556427	pulse	1	t		72.0	2.5	/experiments/knapen_AOT/AOT_stimuli/rescaled_final/1012_rv.mp4	0.0	334.04973006248474	
74	316.0721228122711	fix_post	2		12	72.0	2.5	/experiments/knapen_AOT/AOT_stimuli/rescaled_final/1012_rv.mp4	0.0	334.96574091911316	0.09994196891784668
75	316.17206478118896	fix_pre	0		120	73.0	2.5	/experiments/knapen_AOT/AOT_stimuli/rescaled_final/1622_fw.mp4	0.0	335.065682888031	1.0001890659332275
75	316.75570797920227	pulse	0	t		73.0	2.5	/experiments/knapen_AOT/AOT_stimuli/rescaled_final/1622_fw.mp4	0.0	335.6493260860443	
75	317.1722538471222	movie	1		242	73.0	2.5	/experiments/knapen_AOT/AOT_stimuli/rescaled_final/1622_fw.mp4	0.0	336.06587195396423	2.5003671646118164
75	318.35607385635376	pulse	1	t		73.0	2.5	/experiments/knapen_AOT/AOT_stimuli/rescaled_final/1622_fw.mp4	0.0	337.2496919631958	
75	319.672621011734	fix_post	2		12	73.0	2.5	/experiments/knapen_AOT/AOT_stimuli/rescaled_final/1622_fw.mp4	0.0	338.56623911857605	0.10001993179321289
76	319.7726409435272	fix_pre	0		120	74.0	2.5	/experiments/knapen_AOT/AOT_stimuli/rescaled_final/1649_rv.mp4	0.0	338.66625905036926	1.0001318454742432
76	319.9562599658966	pulse	0	t		74.0	2.5	/experiments/knapen_AOT/AOT_stimuli/rescaled_final/1649_rv.mp4	0.0	338.84987807273865	
76	320.77277278900146	movie	1		243	74.0	2.5	/experiments/knapen_AOT/AOT_stimuli/rescaled_final/1649_rv.mp4	0.0	339.6663908958435	2.500586986541748
76	321.55648398399353	pulse	1	t		74.0	2.5	/experiments/knapen_AOT/AOT_stimuli/rescaled_final/1649_rv.mp4	0.0	340.45010209083557	
76	323.1563968658447	pulse	1	t		74.0	2.5	/experiments/knapen_AOT/AOT_stimuli/rescaled_final/1649_rv.mp4	0.0	342.05001497268677	
76	323.2733597755432	fix_post	2		12	74.0	2.5	/experiments/knapen_AOT/AOT_stimuli/rescaled_final/1649_rv.mp4	0.0	342.16697788238525	0.0997920036315918
77	323.3731517791748	fix_pre	0		120	75.0	2.5	/experiments/knapen_AOT/AOT_stimuli/rescaled_final/0312_rv.mp4	0.0	342.26676988601685	1.000157117843628
77	324.37330889701843	movie	1		241	75.0	2.5	/experiments/knapen_AOT/AOT_stimuli/rescaled_final/0312_rv.mp4	0.0	343.2669270038605	2.492111921310425
77	324.75748896598816	pulse	1	t		75.0	2.5	/experiments/knapen_AOT/AOT_stimuli/rescaled_final/0312_rv.mp4	0.0	343.6511070728302	
77	326.35723900794983	pulse	1	t		75.0	2.5	/experiments/knapen_AOT/AOT_stimuli/rescaled_final/0312_rv.mp4	0.0	345.25085711479187	
77	326.86542081832886	fix_post	2		12	75.0	2.5	/experiments/knapen_AOT/AOT_stimuli/rescaled_final/0312_rv.mp4	0.0	345.7590389251709	0.09993100166320801
78	326.96535181999207	fix_pre	0		120	76.0	2.5	/experiments/knapen_AOT/AOT_stimuli/rescaled_final/0169_fw.mp4	0.0	345.8589699268341	1.0001599788665771
78	327.95742082595825	pulse	0	t		76.0	2.5	/experiments/knapen_AOT/AOT_stimuli/rescaled_final/0169_fw.mp4	0.0	346.8510389328003	
78	327.96551179885864	movie	1		243	76.0	2.5	/experiments/knapen_AOT/AOT_stimuli/rescaled_final/0169_fw.mp4	0.0	346.8591299057007	2.5087881088256836
78	329.55828499794006	pulse	1	t		76.0	2.5	/experiments/knapen_AOT/AOT_stimuli/rescaled_final/0169_fw.mp4	0.0	348.4519031047821	
78	330.4742999076843	fix_post	2		12	76.0	2.5	/experiments/knapen_AOT/AOT_stimuli/rescaled_final/0169_fw.mp4	0.0	349.36791801452637	0.09992790222167969
79	330.574227809906	fix_pre	0		120	77.0	2.5	blank	1.0	349.46784591674805	1.0001490116119385
79	331.15782499313354	pulse	0	t		77.0	2.5	blank	1.0	350.0514430999756	
79	331.57437682151794	movie	1		300	77.0	2.5	blank	1.0	350.46799492836	2.500364065170288
79	332.7581470012665	pulse	1	t		77.0	2.5	blank	1.0	351.6517651081085	
79	334.07474088668823	fix_post	2		12	77.0	2.5	blank	1.0	352.9683589935303	0.1000070571899414
80	334.1747479438782	fix_pre	0		120	78.0	2.5	/experiments/knapen_AOT/AOT_stimuli/rescaled_final/1517_fw.mp4	0.0	353.0683660507202	1.0001449584960938
80	334.3583619594574	pulse	0	t		78.0	2.5	/experiments/knapen_AOT/AOT_stimuli/rescaled_final/1517_fw.mp4	0.0	353.25198006629944	
80	335.17489290237427	movie	1		243	78.0	2.5	/experiments/knapen_AOT/AOT_stimuli/rescaled_final/1517_fw.mp4	0.0	354.0685110092163	2.5006051063537598
80	335.9585928916931	pulse	1	t		78.0	2.5	/experiments/knapen_AOT/AOT_stimuli/rescaled_final/1517_fw.mp4	0.0	354.85221099853516	
80	337.55901288986206	pulse	1	t		78.0	2.5	/experiments/knapen_AOT/AOT_stimuli/rescaled_final/1517_fw.mp4	0.0	356.4526309967041	
80	337.675498008728	fix_post	2		12	78.0	2.5	/experiments/knapen_AOT/AOT_stimuli/rescaled_final/1517_fw.mp4	0.0	356.56911611557007	0.09982991218566895
81	337.7753279209137	fix_pre	0		120	79.0	2.5	/experiments/knapen_AOT/AOT_stimuli/rescaled_final/0232_rv.mp4	0.0	356.66894602775574	1.0001130104064941
81	338.7754409313202	movie	1		241	79.0	2.5	/experiments/knapen_AOT/AOT_stimuli/rescaled_final/0232_rv.mp4	0.0	357.66905903816223	2.492158889770508
81	339.163361787796	pulse	1	t		79.0	2.5	/experiments/knapen_AOT/AOT_stimuli/rescaled_final/0232_rv.mp4	0.0	358.05697989463806	
81	340.7593619823456	pulse	1	t		79.0	2.5	/experiments/knapen_AOT/AOT_stimuli/rescaled_final/0232_rv.mp4	0.0	359.6529800891876	
81	341.2675998210907	fix_post	2		12	79.0	2.5	/experiments/knapen_AOT/AOT_stimuli/rescaled_final/0232_rv.mp4	0.0	360.16121792793274	0.09992408752441406
82	341.3675239086151	fix_pre	0		120	80.0	2.5	/experiments/knapen_AOT/AOT_stimuli/rescaled_final/1776_fw.mp4	0.0	360.26114201545715	1.0001308917999268
82	342.3595860004425	pulse	0	t		80.0	2.5	/experiments/knapen_AOT/AOT_stimuli/rescaled_final/1776_fw.mp4	0.0	361.25320410728455	
82	342.36765480041504	movie	1		240	80.0	2.5	/experiments/knapen_AOT/AOT_stimuli/rescaled_final/1776_fw.mp4	0.0	361.2612729072571	2.5088050365448
82	343.9603638648987	pulse	1	t		80.0	2.5	/experiments/knapen_AOT/AOT_stimuli/rescaled_final/1776_fw.mp4	0.0	362.8539819717407	
82	344.87645983695984	fix_post	2		12	80.0	2.5	/experiments/knapen_AOT/AOT_stimuli/rescaled_final/1776_fw.mp4	0.0	363.7700779438019	0.0999610424041748
83	344.976420879364	fix_pre	0		120	81.0	2.5	/experiments/knapen_AOT/AOT_stimuli/rescaled_final/1406_rv.mp4	0.0	363.87003898620605	1.0000829696655273
83	345.55250096321106	pulse	0	t		81.0	2.5	/experiments/knapen_AOT/AOT_stimuli/rescaled_final/1406_rv.mp4	0.0	364.4461190700531	
83	345.97650384902954	movie	1		242	81.0	2.5	/experiments/knapen_AOT/AOT_stimuli/rescaled_final/1406_rv.mp4	0.0	364.8701219558716	2.5006110668182373
83	347.1526129245758	pulse	1	t		81.0	2.5	/experiments/knapen_AOT/AOT_stimuli/rescaled_final/1406_rv.mp4	0.0	366.04623103141785	
83	348.4771149158478	fix_post	2		12	81.0	2.5	/experiments/knapen_AOT/AOT_stimuli/rescaled_final/1406_rv.mp4	0.0	367.3707330226898	0.09976696968078613
84	348.57688188552856	fix_pre	0		120	82.0	2.5	/experiments/knapen_AOT/AOT_stimuli/rescaled_final/1526_rv.mp4	0.0	367.4704999923706	1.0001919269561768
84	348.75300097465515	pulse	0	t		82.0	2.5	/experiments/knapen_AOT/AOT_stimuli/rescaled_final/1526_rv.mp4	0.0	367.6466190814972	
84	349.57707381248474	movie	1		244	82.0	2.5	/experiments/knapen_AOT/AOT_stimuli/rescaled_final/1526_rv.mp4	0.0	368.4706919193268	2.500383138656616
84	350.3525688648224	pulse	1	t		82.0	2.5	/experiments/knapen_AOT/AOT_stimuli/rescaled_final/1526_rv.mp4	0.0	369.24618697166443	
84	351.952684879303	pulse	1	t		82.0	2.5	/experiments/knapen_AOT/AOT_stimuli/rescaled_final/1526_rv.mp4	0.0	370.846302986145	
84	352.07745695114136	fix_post	2		12	82.0	2.5	/experiments/knapen_AOT/AOT_stimuli/rescaled_final/1526_rv.mp4	0.0	370.9710750579834	0.10000085830688477
85	352.17745780944824	fix_pre	0		120	83.0	2.5	blank	1.0	371.0710759162903	1.0002009868621826
85	353.1776587963104	movie	1		299	83.0	2.5	blank	1.0	372.07127690315247	2.4919960498809814
85	353.5528018474579	pulse	1	t		83.0	2.5	blank	1.0	372.4464199542999	
85	355.15302181243896	pulse	1	t		83.0	2.5	blank	1.0	374.046639919281	
85	355.6696548461914	fix_post	2		12	83.0	2.5	blank	1.0	374.56327295303345	0.10003209114074707
87	355.76968693733215	stim	0		1716					374.6633050441742	14.302082061767578
87	356.75333189964294	pulse	0	t						375.646950006485	
87	358.353551864624	pulse	0	t						377.24716997146606	
87	359.9537878036499	pulse	0	t						378.84740591049194	
87	361.554044008255	pulse	0	t						380.44766211509705	
87	363.154296875	pulse	0	t						382.04791498184204	
87	364.75455498695374	pulse	0	t						383.6481730937958	
87	366.35476899147034	pulse	0	t						385.2483870983124	
87	367.9549298286438	pulse	0	t						386.84854793548584	
87	369.5551509857178	pulse	0	t						388.4487690925598	
