trial_nr	onset	event_type	phase	response	nr_frames	movie_index	movie_duration	movie_file	blank	onset_abs	duration
0	0.15822100639343262	stim	0		96					22.309628009796143	0.7995328903198242
0	0.9495270252227783	response	0	space						23.10093402862549	
1	0.9577538967132568	stim	0		13535					23.109160900115967	112.7985110282898
1	113.73824501037598	pulse	0	t						135.8896520137787	
1	113.75626492500305	stim	1		1717					135.90767192840576	14.30831789970398
1	115.33977389335632	pulse	1	t						137.49118089675903	
1	116.94022703170776	pulse	1	t						139.09163403511047	
1	118.53259992599487	pulse	1	t						140.68400692939758	
1	120.14009094238281	pulse	1	t						142.29149794578552	
1	121.7396879196167	pulse	1	t						143.8910949230194	
1	123.33968997001648	pulse	1	t						145.4910969734192	
1	124.93923592567444	pulse	1	t						147.09064292907715	
1	126.54006886482239	pulse	1	t						148.6914758682251	
2	128.06458282470703	fix_pre	0		10	0.0	2.5	/experiments/AOT/AOT_stimuli/rescaled_final/1264_rv.mp4	0.0	150.21598982810974	0.08323907852172852
2	128.13965892791748	pulse	0	t		0.0	2.5	/experiments/AOT/AOT_stimuli/rescaled_final/1264_rv.mp4	0.0	150.2910659313202	
2	128.14782190322876	movie	1		243	0.0	2.5	/experiments/AOT/AOT_stimuli/rescaled_final/1264_rv.mp4	0.0	150.29922890663147	2.507939100265503
2	129.73906993865967	pulse	1	t		0.0	2.5	/experiments/AOT/AOT_stimuli/rescaled_final/1264_rv.mp4	0.0	151.89047694206238	
2	130.65576100349426	fix_post	2		12	0.0	2.5	/experiments/AOT/AOT_stimuli/rescaled_final/1264_rv.mp4	0.0	152.80716800689697	0.10043692588806152
3	130.75619792938232	fix_pre	0		120	1.0	2.5	/experiments/AOT/AOT_stimuli/rescaled_final/0031_fw.mp4	0.0	152.90760493278503	1.0003840923309326
3	131.3402190208435	pulse	0	t		1.0	2.5	/experiments/AOT/AOT_stimuli/rescaled_final/0031_fw.mp4	0.0	153.49162602424622	
3	131.75658202171326	movie	1		245	1.0	2.5	/experiments/AOT/AOT_stimuli/rescaled_final/0031_fw.mp4	0.0	153.90798902511597	2.499147891998291
3	132.93915581703186	pulse	1	t		1.0	2.5	/experiments/AOT/AOT_stimuli/rescaled_final/0031_fw.mp4	0.0	155.09056282043457	
3	134.25572991371155	fix_post	2		12	1.0	2.5	/experiments/AOT/AOT_stimuli/rescaled_final/0031_fw.mp4	0.0	156.40713691711426	0.10088109970092773
4	134.35661101341248	fix_pre	0		120	2.0	2.5	/experiments/AOT/AOT_stimuli/rescaled_final/1226_fw.mp4	0.0	156.50801801681519	0.9991929531097412
4	134.5400459766388	pulse	0	t		2.0	2.5	/experiments/AOT/AOT_stimuli/rescaled_final/1226_fw.mp4	0.0	156.6914529800415	
4	135.35580396652222	movie	1		244	2.0	2.5	/experiments/AOT/AOT_stimuli/rescaled_final/1226_fw.mp4	0.0	157.50721096992493	2.5012478828430176
4	136.13268494606018	pulse	1	t		2.0	2.5	/experiments/AOT/AOT_stimuli/rescaled_final/1226_fw.mp4	0.0	158.2840919494629	
4	137.73885798454285	pulse	1	t		2.0	2.5	/experiments/AOT/AOT_stimuli/rescaled_final/1226_fw.mp4	0.0	159.89026498794556	
4	137.85705184936523	fix_post	2		12	2.0	2.5	/experiments/AOT/AOT_stimuli/rescaled_final/1226_fw.mp4	0.0	160.00845885276794	0.0998530387878418
5	137.95690488815308	fix_pre	0		120	3.0	2.5	/experiments/AOT/AOT_stimuli/rescaled_final/0412_rv.mp4	0.0	160.1083118915558	0.9987919330596924
5	138.95569682121277	movie	1		245	3.0	2.5	/experiments/AOT/AOT_stimuli/rescaled_final/0412_rv.mp4	0.0	161.10710382461548	2.500807046890259
5	139.33895087242126	pulse	1	t		3.0	2.5	/experiments/AOT/AOT_stimuli/rescaled_final/0412_rv.mp4	0.0	161.49035787582397	
5	140.94010400772095	pulse	1	t		3.0	2.5	/experiments/AOT/AOT_stimuli/rescaled_final/0412_rv.mp4	0.0	163.09151101112366	
5	141.45650386810303	fix_post	2		12	3.0	2.5	/experiments/AOT/AOT_stimuli/rescaled_final/0412_rv.mp4	0.0	163.60791087150574	0.10005998611450195
6	141.55656385421753	fix_pre	0		119	4.0	2.5	/experiments/AOT/AOT_stimuli/rescaled_final/1198_fw.mp4	0.0	163.70797085762024	0.9917151927947998
6	142.53914999961853	pulse	0	t		4.0	2.5	/experiments/AOT/AOT_stimuli/rescaled_final/1198_fw.mp4	0.0	164.69055700302124	
6	142.54827904701233	movie	1		245	4.0	2.5	/experiments/AOT/AOT_stimuli/rescaled_final/1198_fw.mp4	0.0	164.69968605041504	2.5073788166046143
6	144.14036583900452	pulse	1	t		4.0	2.5	/experiments/AOT/AOT_stimuli/rescaled_final/1198_fw.mp4	0.0	166.29177284240723	
6	145.05565786361694	fix_post	2		12	4.0	2.5	/experiments/AOT/AOT_stimuli/rescaled_final/1198_fw.mp4	0.0	167.20706486701965	0.10009407997131348
7	145.15575194358826	fix_pre	0		120	5.0	2.5	/experiments/AOT/AOT_stimuli/rescaled_final/1335_fw.mp4	0.0	167.30715894699097	1.0000810623168945
7	145.7391209602356	pulse	0	t		5.0	2.5	/experiments/AOT/AOT_stimuli/rescaled_final/1335_fw.mp4	0.0	167.8905279636383	
7	146.15583300590515	movie	1		244	5.0	2.5	/experiments/AOT/AOT_stimuli/rescaled_final/1335_fw.mp4	0.0	168.30724000930786	2.499845027923584
7	147.33910489082336	pulse	1	t		5.0	2.5	/experiments/AOT/AOT_stimuli/rescaled_final/1335_fw.mp4	0.0	169.49051189422607	
7	148.65567803382874	fix_post	2		12	5.0	2.5	/experiments/AOT/AOT_stimuli/rescaled_final/1335_fw.mp4	0.0	170.80708503723145	0.09997296333312988
8	148.75565099716187	fix_pre	0		120	6.0	2.5	/experiments/AOT/AOT_stimuli/rescaled_final/0225_rv.mp4	0.0	170.90705800056458	1.0007998943328857
8	148.93909692764282	pulse	0	t		6.0	2.5	/experiments/AOT/AOT_stimuli/rescaled_final/0225_rv.mp4	0.0	171.09050393104553	
8	149.75645089149475	movie	1		243	6.0	2.5	/experiments/AOT/AOT_stimuli/rescaled_final/0225_rv.mp4	0.0	171.90785789489746	2.4999959468841553
8	150.5390589237213	pulse	1	t		6.0	2.5	/experiments/AOT/AOT_stimuli/rescaled_final/0225_rv.mp4	0.0	172.69046592712402	
8	152.13878297805786	pulse	1	t		6.0	2.5	/experiments/AOT/AOT_stimuli/rescaled_final/0225_rv.mp4	0.0	174.29018998146057	
8	152.2564468383789	fix_post	2		12	6.0	2.5	/experiments/AOT/AOT_stimuli/rescaled_final/0225_rv.mp4	0.0	174.40785384178162	0.10009407997131348
9	152.35654091835022	fix_pre	0		120	7.0	2.5	blank	1.0	174.50794792175293	0.9990959167480469
9	153.35563683509827	movie	1		300	7.0	2.5	blank	1.0	175.50704383850098	2.4999921321868896
9	153.73905682563782	pulse	1	t		7.0	2.5	blank	1.0	175.89046382904053	
9	155.33909583091736	pulse	1	t		7.0	2.5	blank	1.0	177.49050283432007	
9	155.85562896728516	fix_post	2		12	7.0	2.5	blank	1.0	178.00703597068787	0.09998202323913574
10	155.9556109905243	fix_pre	0		119	8.0	2.5	/experiments/AOT/AOT_stimuli/rescaled_final/1599_rv.mp4	0.0	178.107017993927	0.9916398525238037
10	156.93904495239258	pulse	0	t		8.0	2.5	/experiments/AOT/AOT_stimuli/rescaled_final/1599_rv.mp4	0.0	179.0904519557953	
10	156.9472508430481	movie	1		245	8.0	2.5	/experiments/AOT/AOT_stimuli/rescaled_final/1599_rv.mp4	0.0	179.0986578464508	2.5084211826324463
10	158.54004788398743	pulse	1	t		8.0	2.5	/experiments/AOT/AOT_stimuli/rescaled_final/1599_rv.mp4	0.0	180.69145488739014	
10	159.45567202568054	fix_post	2		12	8.0	2.5	/experiments/AOT/AOT_stimuli/rescaled_final/1599_rv.mp4	0.0	181.60707902908325	0.10087084770202637
11	159.55654287338257	fix_pre	0		120	9.0	2.5	/experiments/AOT/AOT_stimuli/rescaled_final/0294_fw.mp4	0.0	181.70794987678528	0.9990639686584473
11	160.13907289505005	pulse	0	t		9.0	2.5	/experiments/AOT/AOT_stimuli/rescaled_final/0294_fw.mp4	0.0	182.29047989845276	
11	160.55560684204102	movie	1		244	9.0	2.5	/experiments/AOT/AOT_stimuli/rescaled_final/0294_fw.mp4	0.0	182.70701384544373	2.5014350414276123
11	161.7400438785553	pulse	1	t		9.0	2.5	/experiments/AOT/AOT_stimuli/rescaled_final/0294_fw.mp4	0.0	183.891450881958	
11	163.05704188346863	fix_post	2		12	9.0	2.5	/experiments/AOT/AOT_stimuli/rescaled_final/0294_fw.mp4	0.0	185.20844888687134	0.09994101524353027
12	163.15698289871216	fix_pre	0		120	10.0	2.5	/experiments/AOT/AOT_stimuli/rescaled_final/0973_fw.mp4	0.0	185.30838990211487	1.0004820823669434
12	163.33299493789673	pulse	0	t		10.0	2.5	/experiments/AOT/AOT_stimuli/rescaled_final/0973_fw.mp4	0.0	185.48440194129944	
12	164.1574649810791	movie	1		243	10.0	2.5	/experiments/AOT/AOT_stimuli/rescaled_final/0973_fw.mp4	0.0	186.3088719844818	2.499687910079956
12	164.9333939552307	pulse	1	t		10.0	2.5	/experiments/AOT/AOT_stimuli/rescaled_final/0973_fw.mp4	0.0	187.08480095863342	
12	166.53911590576172	pulse	1	t		10.0	2.5	/experiments/AOT/AOT_stimuli/rescaled_final/0973_fw.mp4	0.0	188.69052290916443	
12	166.65715289115906	fix_post	2		12	10.0	2.5	/experiments/AOT/AOT_stimuli/rescaled_final/0973_fw.mp4	0.0	188.80855989456177	0.09970593452453613
13	166.7568588256836	fix_pre	0		120	11.0	2.5	/experiments/AOT/AOT_stimuli/rescaled_final/1682_rv.mp4	0.0	188.9082658290863	1.0000300407409668
13	167.75688886642456	movie	1		243	11.0	2.5	/experiments/AOT/AOT_stimuli/rescaled_final/1682_rv.mp4	0.0	189.90829586982727	2.5000271797180176
13	168.14002394676208	pulse	1	t		11.0	2.5	/experiments/AOT/AOT_stimuli/rescaled_final/1682_rv.mp4	0.0	190.2914309501648	
13	169.74074983596802	pulse	1	t		11.0	2.5	/experiments/AOT/AOT_stimuli/rescaled_final/1682_rv.mp4	0.0	191.89215683937073	
13	170.25691604614258	fix_post	2		12	11.0	2.5	/experiments/AOT/AOT_stimuli/rescaled_final/1682_rv.mp4	0.0	192.4083230495453	0.1004798412322998
14	170.35739588737488	fix_pre	0		119	12.0	2.5	blank	1.0	192.5088028907776	0.9911749362945557
14	171.34030103683472	pulse	0	t		12.0	2.5	blank	1.0	193.49170804023743	
14	171.34857082366943	movie	1		301	12.0	2.5	blank	1.0	193.49997782707214	2.508308172225952
14	172.94088196754456	pulse	1	t		12.0	2.5	blank	1.0	195.09228897094727	
14	173.85687899589539	fix_post	2		12	12.0	2.5	blank	1.0	196.0082859992981	0.10015201568603516
15	173.95703101158142	fix_pre	0		120	13.0	2.5	/experiments/AOT/AOT_stimuli/rescaled_final/1460_rv.mp4	0.0	196.10843801498413	1.000335931777954
15	174.54045701026917	pulse	0	t		13.0	2.5	/experiments/AOT/AOT_stimuli/rescaled_final/1460_rv.mp4	0.0	196.69186401367188	
15	174.95736694335938	movie	1		244	13.0	2.5	/experiments/AOT/AOT_stimuli/rescaled_final/1460_rv.mp4	0.0	197.10877394676208	2.499880075454712
15	176.14097690582275	pulse	1	t		13.0	2.5	/experiments/AOT/AOT_stimuli/rescaled_final/1460_rv.mp4	0.0	198.29238390922546	
15	177.4572470188141	fix_post	2		12	13.0	2.5	/experiments/AOT/AOT_stimuli/rescaled_final/1460_rv.mp4	0.0	199.6086540222168	0.10002398490905762
16	177.55727100372314	fix_pre	0		120	14.0	2.5	/experiments/AOT/AOT_stimuli/rescaled_final/0328_fw.mp4	0.0	199.70867800712585	0.9999890327453613
16	177.74032998085022	pulse	0	t		14.0	2.5	/experiments/AOT/AOT_stimuli/rescaled_final/0328_fw.mp4	0.0	199.89173698425293	
16	178.5572600364685	movie	1		242	14.0	2.5	/experiments/AOT/AOT_stimuli/rescaled_final/0328_fw.mp4	0.0	200.70866703987122	2.499835968017578
16	179.33291482925415	pulse	1	t		14.0	2.5	/experiments/AOT/AOT_stimuli/rescaled_final/0328_fw.mp4	0.0	201.48432183265686	
16	180.94115781784058	pulse	1	t		14.0	2.5	/experiments/AOT/AOT_stimuli/rescaled_final/0328_fw.mp4	0.0	203.0925648212433	
16	181.05709600448608	fix_post	2		12	14.0	2.5	/experiments/AOT/AOT_stimuli/rescaled_final/0328_fw.mp4	0.0	203.2085030078888	0.09971880912780762
17	181.1568148136139	fix_pre	0		120	15.0	2.5	/experiments/AOT/AOT_stimuli/rescaled_final/0412_fw.mp4	0.0	203.3082218170166	1.0003950595855713
17	182.15720987319946	movie	1		243	15.0	2.5	/experiments/AOT/AOT_stimuli/rescaled_final/0412_fw.mp4	0.0	204.30861687660217	2.4999871253967285
17	182.53992891311646	pulse	1	t		15.0	2.5	/experiments/AOT/AOT_stimuli/rescaled_final/0412_fw.mp4	0.0	204.69133591651917	
17	184.13341903686523	pulse	1	t		15.0	2.5	/experiments/AOT/AOT_stimuli/rescaled_final/0412_fw.mp4	0.0	206.28482604026794	
17	184.6571969985962	fix_post	2		12	15.0	2.5	/experiments/AOT/AOT_stimuli/rescaled_final/0412_fw.mp4	0.0	206.8086040019989	0.09963703155517578
18	184.75683403015137	fix_pre	0		119	16.0	2.5	/experiments/AOT/AOT_stimuli/rescaled_final/2108_fw.mp4	0.0	206.90824103355408	0.9917058944702148
18	185.74031281471252	pulse	0	t		16.0	2.5	/experiments/AOT/AOT_stimuli/rescaled_final/2108_fw.mp4	0.0	207.89171981811523	
18	185.74853992462158	movie	1		244	16.0	2.5	/experiments/AOT/AOT_stimuli/rescaled_final/2108_fw.mp4	0.0	207.8999469280243	2.5083699226379395
18	187.34167194366455	pulse	1	t		16.0	2.5	/experiments/AOT/AOT_stimuli/rescaled_final/2108_fw.mp4	0.0	209.49307894706726	
18	188.25690984725952	fix_post	2		12	16.0	2.5	/experiments/AOT/AOT_stimuli/rescaled_final/2108_fw.mp4	0.0	210.40831685066223	0.09997701644897461
19	188.3568868637085	fix_pre	0		120	17.0	2.5	/experiments/AOT/AOT_stimuli/rescaled_final/0477_fw.mp4	0.0	210.5082938671112	1.0003271102905273
19	188.9402539730072	pulse	0	t		17.0	2.5	/experiments/AOT/AOT_stimuli/rescaled_final/0477_fw.mp4	0.0	211.0916609764099	
19	189.35721397399902	movie	1		245	17.0	2.5	/experiments/AOT/AOT_stimuli/rescaled_final/0477_fw.mp4	0.0	211.50862097740173	2.5000929832458496
19	190.54074692726135	pulse	1	t		17.0	2.5	/experiments/AOT/AOT_stimuli/rescaled_final/0477_fw.mp4	0.0	212.69215393066406	
19	191.85730695724487	fix_post	2		12	17.0	2.5	/experiments/AOT/AOT_stimuli/rescaled_final/0477_fw.mp4	0.0	214.00871396064758	0.09995508193969727
20	191.95726203918457	fix_pre	0		120	18.0	2.5	/experiments/AOT/AOT_stimuli/rescaled_final/0649_rv.mp4	0.0	214.10866904258728	0.9998438358306885
20	192.13340401649475	pulse	0	t		18.0	2.5	/experiments/AOT/AOT_stimuli/rescaled_final/0649_rv.mp4	0.0	214.28481101989746	
20	192.95710587501526	movie	1		244	18.0	2.5	/experiments/AOT/AOT_stimuli/rescaled_final/0649_rv.mp4	0.0	215.10851287841797	2.499664068222046
20	193.73346185684204	pulse	1	t		18.0	2.5	/experiments/AOT/AOT_stimuli/rescaled_final/0649_rv.mp4	0.0	215.88486886024475	
20	195.33905482292175	pulse	1	t		18.0	2.5	/experiments/AOT/AOT_stimuli/rescaled_final/0649_rv.mp4	0.0	217.49046182632446	
20	195.4567699432373	fix_post	2		12	18.0	2.5	/experiments/AOT/AOT_stimuli/rescaled_final/0649_rv.mp4	0.0	217.60817694664001	0.10043501853942871
21	195.55720496177673	fix_pre	0		120	19.0	2.5	blank	1.0	217.70861196517944	0.9999210834503174
21	196.55712604522705	movie	1		300	19.0	2.5	blank	1.0	218.70853304862976	2.5000929832458496
21	196.93316102027893	pulse	1	t		19.0	2.5	blank	1.0	219.08456802368164	
21	198.53299283981323	pulse	1	t		19.0	2.5	blank	1.0	220.68439984321594	
21	199.0572190284729	fix_post	2		12	19.0	2.5	blank	1.0	221.2086260318756	0.09992480278015137
22	199.15714383125305	fix_pre	0		119	20.0	2.5	/experiments/AOT/AOT_stimuli/rescaled_final/1273_fw.mp4	0.0	221.30855083465576	0.9917500019073486
22	200.13276386260986	pulse	0	t		20.0	2.5	/experiments/AOT/AOT_stimuli/rescaled_final/1273_fw.mp4	0.0	222.28417086601257	
22	200.1488938331604	movie	1		246	20.0	2.5	/experiments/AOT/AOT_stimuli/rescaled_final/1273_fw.mp4	0.0	222.3003008365631	2.506925106048584
22	201.74045085906982	pulse	1	t		20.0	2.5	/experiments/AOT/AOT_stimuli/rescaled_final/1273_fw.mp4	0.0	223.89185786247253	
22	202.65581893920898	fix_post	2		12	20.0	2.5	/experiments/AOT/AOT_stimuli/rescaled_final/1273_fw.mp4	0.0	224.8072259426117	0.10097599029541016
23	202.7567949295044	fix_pre	0		120	21.0	2.5	/experiments/AOT/AOT_stimuli/rescaled_final/1022_fw.mp4	0.0	224.9082019329071	0.9991519451141357
23	203.33925700187683	pulse	0	t		21.0	2.5	/experiments/AOT/AOT_stimuli/rescaled_final/1022_fw.mp4	0.0	225.49066400527954	
23	203.75594687461853	movie	1		243	21.0	2.5	/experiments/AOT/AOT_stimuli/rescaled_final/1022_fw.mp4	0.0	225.90735387802124	2.501255989074707
23	204.93968987464905	pulse	1	t		21.0	2.5	/experiments/AOT/AOT_stimuli/rescaled_final/1022_fw.mp4	0.0	227.09109687805176	
23	206.25720286369324	fix_post	2		12	21.0	2.5	/experiments/AOT/AOT_stimuli/rescaled_final/1022_fw.mp4	0.0	228.40860986709595	0.09864115715026855
24	206.3558440208435	fix_pre	0		120	22.0	2.5	/experiments/AOT/AOT_stimuli/rescaled_final/0454_rv.mp4	0.0	228.50725102424622	1.0013480186462402
24	206.54024982452393	pulse	0	t		22.0	2.5	/experiments/AOT/AOT_stimuli/rescaled_final/0454_rv.mp4	0.0	228.69165682792664	
24	207.35719203948975	movie	1		244	22.0	2.5	/experiments/AOT/AOT_stimuli/rescaled_final/0454_rv.mp4	0.0	229.50859904289246	2.4999899864196777
24	208.13922095298767	pulse	1	t		22.0	2.5	/experiments/AOT/AOT_stimuli/rescaled_final/0454_rv.mp4	0.0	230.29062795639038	
24	209.73593997955322	pulse	1	t		22.0	2.5	/experiments/AOT/AOT_stimuli/rescaled_final/0454_rv.mp4	0.0	231.88734698295593	
24	209.85718202590942	fix_post	2		12	22.0	2.5	/experiments/AOT/AOT_stimuli/rescaled_final/0454_rv.mp4	0.0	232.00858902931213	0.09999990463256836
25	209.957181930542	fix_pre	0		120	23.0	2.5	/experiments/AOT/AOT_stimuli/rescaled_final/0369_fw.mp4	0.0	232.1085889339447	0.9990220069885254
25	210.95620393753052	movie	1		244	23.0	2.5	/experiments/AOT/AOT_stimuli/rescaled_final/0369_fw.mp4	0.0	233.10761094093323	2.499993085861206
25	211.340185880661	pulse	1	t		23.0	2.5	/experiments/AOT/AOT_stimuli/rescaled_final/0369_fw.mp4	0.0	233.49159288406372	
25	212.93914985656738	pulse	1	t		23.0	2.5	/experiments/AOT/AOT_stimuli/rescaled_final/0369_fw.mp4	0.0	235.0905568599701	
25	213.45619702339172	fix_post	2		12	23.0	2.5	/experiments/AOT/AOT_stimuli/rescaled_final/0369_fw.mp4	0.0	235.60760402679443	0.09956192970275879
26	213.55575895309448	fix_pre	0		119	24.0	2.5	/experiments/AOT/AOT_stimuli/rescaled_final/1410_fw.mp4	0.0	235.7071659564972	0.9917709827423096
26	214.53933882713318	pulse	0	t		24.0	2.5	/experiments/AOT/AOT_stimuli/rescaled_final/1410_fw.mp4	0.0	236.6907458305359	
26	214.5475299358368	movie	1		244	24.0	2.5	/experiments/AOT/AOT_stimuli/rescaled_final/1410_fw.mp4	0.0	236.6989369392395	2.5081839561462402
26	216.1395878791809	pulse	1	t		24.0	2.5	/experiments/AOT/AOT_stimuli/rescaled_final/1410_fw.mp4	0.0	238.29099488258362	
26	217.05571389198303	fix_post	2		12	24.0	2.5	/experiments/AOT/AOT_stimuli/rescaled_final/1410_fw.mp4	0.0	239.20712089538574	0.10049295425415039
27	217.15620684623718	fix_pre	0		120	25.0	2.5	/experiments/AOT/AOT_stimuli/rescaled_final/0577_fw.mp4	0.0	239.3076138496399	0.9995441436767578
27	217.73917889595032	pulse	0	t		25.0	2.5	/experiments/AOT/AOT_stimuli/rescaled_final/0577_fw.mp4	0.0	239.89058589935303	
27	218.15575098991394	movie	1		242	25.0	2.5	/experiments/AOT/AOT_stimuli/rescaled_final/0577_fw.mp4	0.0	240.30715799331665	2.5001108646392822
27	219.33884596824646	pulse	1	t		25.0	2.5	/experiments/AOT/AOT_stimuli/rescaled_final/0577_fw.mp4	0.0	241.49025297164917	
27	220.65586185455322	fix_post	2		12	25.0	2.5	/experiments/AOT/AOT_stimuli/rescaled_final/0577_fw.mp4	0.0	242.80726885795593	0.10022807121276855
28	220.756089925766	fix_pre	0		120	26.0	2.5	/experiments/AOT/AOT_stimuli/rescaled_final/0438_rv.mp4	0.0	242.9074969291687	1.0000278949737549
28	220.9391748905182	pulse	0	t		26.0	2.5	/experiments/AOT/AOT_stimuli/rescaled_final/0438_rv.mp4	0.0	243.0905818939209	
28	221.75611782073975	movie	1		243	26.0	2.5	/experiments/AOT/AOT_stimuli/rescaled_final/0438_rv.mp4	0.0	243.90752482414246	2.4999852180480957
28	222.53910493850708	pulse	1	t		26.0	2.5	/experiments/AOT/AOT_stimuli/rescaled_final/0438_rv.mp4	0.0	244.6905119419098	
28	224.13832092285156	pulse	1	t		26.0	2.5	/experiments/AOT/AOT_stimuli/rescaled_final/0438_rv.mp4	0.0	246.28972792625427	
28	224.25610303878784	fix_post	2		12	26.0	2.5	/experiments/AOT/AOT_stimuli/rescaled_final/0438_rv.mp4	0.0	246.40751004219055	0.09966588020324707
29	224.3557689189911	fix_pre	0		120	27.0	2.5	blank	1.0	246.5071759223938	0.9999959468841553
29	225.35576486587524	movie	1		300	27.0	2.5	blank	1.0	247.50717186927795	2.499459981918335
29	225.73874187469482	pulse	1	t		27.0	2.5	blank	1.0	247.89014887809753	
29	227.33871793746948	pulse	1	t		27.0	2.5	blank	1.0	249.4901249408722	
29	227.85522484779358	fix_post	2		12	27.0	2.5	blank	1.0	250.0066318511963	0.1006021499633789
30	227.95582699775696	fix_pre	0		119	28.0	2.5	/experiments/AOT/AOT_stimuli/rescaled_final/0472_fw.mp4	0.0	250.10723400115967	0.991940975189209
30	228.93867301940918	pulse	0	t		28.0	2.5	/experiments/AOT/AOT_stimuli/rescaled_final/0472_fw.mp4	0.0	251.0900800228119	
30	228.94776797294617	movie	1		247	28.0	2.5	/experiments/AOT/AOT_stimuli/rescaled_final/0472_fw.mp4	0.0	251.09917497634888	2.507504940032959
30	230.53829097747803	pulse	1	t		28.0	2.5	/experiments/AOT/AOT_stimuli/rescaled_final/0472_fw.mp4	0.0	252.68969798088074	
30	231.45527291297913	fix_post	2		12	28.0	2.5	/experiments/AOT/AOT_stimuli/rescaled_final/0472_fw.mp4	0.0	253.60667991638184	0.09993195533752441
31	231.55520486831665	fix_pre	0		120	29.0	2.5	/experiments/AOT/AOT_stimuli/rescaled_final/1817_fw.mp4	0.0	253.70661187171936	1.0010149478912354
31	232.13963890075684	pulse	0	t		29.0	2.5	/experiments/AOT/AOT_stimuli/rescaled_final/1817_fw.mp4	0.0	254.29104590415955	
31	232.55621981620789	movie	1		246	29.0	2.5	/experiments/AOT/AOT_stimuli/rescaled_final/1817_fw.mp4	0.0	254.7076268196106	2.4989612102508545
31	233.73881888389587	pulse	1	t		29.0	2.5	/experiments/AOT/AOT_stimuli/rescaled_final/1817_fw.mp4	0.0	255.89022588729858	
31	235.05518102645874	fix_post	2		12	29.0	2.5	/experiments/AOT/AOT_stimuli/rescaled_final/1817_fw.mp4	0.0	257.20658802986145	0.10004186630249023
32	235.15522289276123	fix_pre	0		120	30.0	2.5	/experiments/AOT/AOT_stimuli/rescaled_final/1953_fw.mp4	0.0	257.30662989616394	1.0
32	235.33861899375916	pulse	0	t		30.0	2.5	/experiments/AOT/AOT_stimuli/rescaled_final/1953_fw.mp4	0.0	257.49002599716187	
32	236.15522289276123	movie	1		242	30.0	2.5	/experiments/AOT/AOT_stimuli/rescaled_final/1953_fw.mp4	0.0	258.30662989616394	2.499974012374878
32	236.9386339187622	pulse	1	t		30.0	2.5	/experiments/AOT/AOT_stimuli/rescaled_final/1953_fw.mp4	0.0	259.0900409221649	
32	238.53711104393005	pulse	1	t		30.0	2.5	/experiments/AOT/AOT_stimuli/rescaled_final/1953_fw.mp4	0.0	260.68851804733276	
32	238.6551969051361	fix_post	2		12	30.0	2.5	/experiments/AOT/AOT_stimuli/rescaled_final/1953_fw.mp4	0.0	260.8066039085388	0.10001897811889648
33	238.755215883255	fix_pre	0		120	31.0	2.5	/experiments/AOT/AOT_stimuli/rescaled_final/1894_rv.mp4	0.0	260.9066228866577	1.0014419555664062
33	239.7566578388214	movie	1		243	31.0	2.5	/experiments/AOT/AOT_stimuli/rescaled_final/1894_rv.mp4	0.0	261.9080648422241	2.499925136566162
33	240.1398320198059	pulse	1	t		31.0	2.5	/experiments/AOT/AOT_stimuli/rescaled_final/1894_rv.mp4	0.0	262.2912390232086	
33	241.74046683311462	pulse	1	t		31.0	2.5	/experiments/AOT/AOT_stimuli/rescaled_final/1894_rv.mp4	0.0	263.89187383651733	
33	242.25658297538757	fix_post	2		12	31.0	2.5	/experiments/AOT/AOT_stimuli/rescaled_final/1894_rv.mp4	0.0	264.4079899787903	0.09942388534545898
34	242.35600686073303	fix_pre	0		119	32.0	2.5	/experiments/AOT/AOT_stimuli/rescaled_final/0356_fw.mp4	0.0	264.50741386413574	0.9922361373901367
34	243.34052801132202	pulse	0	t		32.0	2.5	/experiments/AOT/AOT_stimuli/rescaled_final/0356_fw.mp4	0.0	265.49193501472473	
34	243.34824299812317	movie	1		243	32.0	2.5	/experiments/AOT/AOT_stimuli/rescaled_final/0356_fw.mp4	0.0	265.4996500015259	2.508815050125122
34	244.93970894813538	pulse	1	t		32.0	2.5	/experiments/AOT/AOT_stimuli/rescaled_final/0356_fw.mp4	0.0	267.0911159515381	
34	245.8570580482483	fix_post	2		12	32.0	2.5	/experiments/AOT/AOT_stimuli/rescaled_final/0356_fw.mp4	0.0	268.008465051651	0.09984588623046875
35	245.95690393447876	fix_pre	0		120	33.0	2.5	/experiments/AOT/AOT_stimuli/rescaled_final/0604_fw.mp4	0.0	268.10831093788147	1.0000910758972168
35	246.53317189216614	pulse	0	t		33.0	2.5	/experiments/AOT/AOT_stimuli/rescaled_final/0604_fw.mp4	0.0	268.68457889556885	
35	246.95699501037598	movie	1		244	33.0	2.5	/experiments/AOT/AOT_stimuli/rescaled_final/0604_fw.mp4	0.0	269.1084020137787	2.4998438358306885
35	248.14008784294128	pulse	1	t		33.0	2.5	/experiments/AOT/AOT_stimuli/rescaled_final/0604_fw.mp4	0.0	270.291494846344	
35	249.45683884620667	fix_post	2		12	33.0	2.5	/experiments/AOT/AOT_stimuli/rescaled_final/0604_fw.mp4	0.0	271.6082458496094	0.09999799728393555
36	249.5568368434906	fix_pre	0		120	34.0	2.5	blank	1.0	271.7082438468933	0.9997341632843018
36	249.74025988578796	pulse	0	t		34.0	2.5	blank	1.0	271.8916668891907	
36	250.5565710067749	movie	1		300	34.0	2.5	blank	1.0	272.7079780101776	2.500337839126587
36	251.33993697166443	pulse	1	t		34.0	2.5	blank	1.0	273.49134397506714	
36	252.9399688243866	pulse	1	t		34.0	2.5	blank	1.0	275.0913758277893	
36	253.0569088459015	fix_post	2		12	34.0	2.5	blank	1.0	275.2083158493042	0.09957003593444824
37	253.15647888183594	fix_pre	0		120	35.0	2.5	/experiments/AOT/AOT_stimuli/rescaled_final/2034_rv.mp4	0.0	275.30788588523865	1.0000410079956055
37	254.15651988983154	movie	1		246	35.0	2.5	/experiments/AOT/AOT_stimuli/rescaled_final/2034_rv.mp4	0.0	276.30792689323425	2.5
37	254.54014492034912	pulse	1	t		35.0	2.5	/experiments/AOT/AOT_stimuli/rescaled_final/2034_rv.mp4	0.0	276.69155192375183	
37	256.139888048172	pulse	1	t		35.0	2.5	/experiments/AOT/AOT_stimuli/rescaled_final/2034_rv.mp4	0.0	278.2912950515747	
37	256.65651988983154	fix_post	2		12	35.0	2.5	/experiments/AOT/AOT_stimuli/rescaled_final/2034_rv.mp4	0.0	278.80792689323425	0.09997105598449707
38	256.75649094581604	fix_pre	0		119	36.0	2.5	/experiments/AOT/AOT_stimuli/rescaled_final/1547_rv.mp4	0.0	278.90789794921875	0.9917159080505371
38	257.73992800712585	pulse	0	t		36.0	2.5	/experiments/AOT/AOT_stimuli/rescaled_final/1547_rv.mp4	0.0	279.89133501052856	
38	257.7482068538666	movie	1		244	36.0	2.5	/experiments/AOT/AOT_stimuli/rescaled_final/1547_rv.mp4	0.0	279.8996138572693	2.5086870193481445
38	259.34033703804016	pulse	1	t		36.0	2.5	/experiments/AOT/AOT_stimuli/rescaled_final/1547_rv.mp4	0.0	281.49174404144287	
38	260.2568938732147	fix_post	2		12	36.0	2.5	/experiments/AOT/AOT_stimuli/rescaled_final/1547_rv.mp4	0.0	282.40830087661743	0.0996241569519043
39	260.3565180301666	fix_pre	0		120	37.0	2.5	/experiments/AOT/AOT_stimuli/rescaled_final/0811_fw.mp4	0.0	282.50792503356934	1.000412940979004
39	260.93995094299316	pulse	0	t		37.0	2.5	/experiments/AOT/AOT_stimuli/rescaled_final/0811_fw.mp4	0.0	283.0913579463959	
39	261.35693097114563	movie	1		244	37.0	2.5	/experiments/AOT/AOT_stimuli/rescaled_final/0811_fw.mp4	0.0	283.50833797454834	2.4999308586120605
39	262.5404739379883	pulse	1	t		37.0	2.5	/experiments/AOT/AOT_stimuli/rescaled_final/0811_fw.mp4	0.0	284.691880941391	
39	263.8568618297577	fix_post	2		12	37.0	2.5	/experiments/AOT/AOT_stimuli/rescaled_final/0811_fw.mp4	0.0	286.0082688331604	0.09961509704589844
40	263.9564769268036	fix_pre	0		120	38.0	2.5	/experiments/AOT/AOT_stimuli/rescaled_final/1532_fw.mp4	0.0	286.1078839302063	1.0004339218139648
40	264.1399109363556	pulse	0	t		38.0	2.5	/experiments/AOT/AOT_stimuli/rescaled_final/1532_fw.mp4	0.0	286.2913179397583	
40	264.95691084861755	movie	1		242	38.0	2.5	/experiments/AOT/AOT_stimuli/rescaled_final/1532_fw.mp4	0.0	287.10831785202026	2.4996981620788574
40	265.7402968406677	pulse	1	t		38.0	2.5	/experiments/AOT/AOT_stimuli/rescaled_final/1532_fw.mp4	0.0	287.89170384407043	
40	267.33839893341064	pulse	1	t		38.0	2.5	/experiments/AOT/AOT_stimuli/rescaled_final/1532_fw.mp4	0.0	289.48980593681335	
40	267.4566090106964	fix_post	2		12	38.0	2.5	/experiments/AOT/AOT_stimuli/rescaled_final/1532_fw.mp4	0.0	289.6080160140991	0.09986281394958496
41	267.556471824646	fix_pre	0		120	39.0	2.5	/experiments/AOT/AOT_stimuli/rescaled_final/1867_rv.mp4	0.0	289.7078788280487	0.9999191761016846
41	268.5563910007477	movie	1		244	39.0	2.5	/experiments/AOT/AOT_stimuli/rescaled_final/1867_rv.mp4	0.0	290.7077980041504	2.500385046005249
41	268.9403438568115	pulse	1	t		39.0	2.5	/experiments/AOT/AOT_stimuli/rescaled_final/1867_rv.mp4	0.0	291.09175086021423	
41	270.53983187675476	pulse	1	t		39.0	2.5	/experiments/AOT/AOT_stimuli/rescaled_final/1867_rv.mp4	0.0	292.69123888015747	
41	271.05677604675293	fix_post	2		12	39.0	2.5	/experiments/AOT/AOT_stimuli/rescaled_final/1867_rv.mp4	0.0	293.20818305015564	0.09982895851135254
42	271.1566050052643	fix_pre	0		119	40.0	2.5	/experiments/AOT/AOT_stimuli/rescaled_final/0082_fw.mp4	0.0	293.308012008667	0.9914329051971436
42	272.1399359703064	pulse	0	t		40.0	2.5	/experiments/AOT/AOT_stimuli/rescaled_final/0082_fw.mp4	0.0	294.2913429737091	
42	272.1480379104614	movie	1		244	40.0	2.5	/experiments/AOT/AOT_stimuli/rescaled_final/0082_fw.mp4	0.0	294.29944491386414	2.5088250637054443
42	273.7403619289398	pulse	1	t		40.0	2.5	/experiments/AOT/AOT_stimuli/rescaled_final/0082_fw.mp4	0.0	295.89176893234253	
42	274.65686297416687	fix_post	2		12	40.0	2.5	/experiments/AOT/AOT_stimuli/rescaled_final/0082_fw.mp4	0.0	296.8082699775696	0.10002684593200684
43	274.7568898200989	fix_pre	0		120	41.0	2.5	/experiments/AOT/AOT_stimuli/rescaled_final/1327_rv.mp4	0.0	296.9082968235016	0.9995100498199463
43	275.33301186561584	pulse	0	t		41.0	2.5	/experiments/AOT/AOT_stimuli/rescaled_final/1327_rv.mp4	0.0	297.48441886901855	
43	275.7563998699188	movie	1		243	41.0	2.5	/experiments/AOT/AOT_stimuli/rescaled_final/1327_rv.mp4	0.0	297.90780687332153	2.5000340938568115
43	276.939954996109	pulse	1	t		41.0	2.5	/experiments/AOT/AOT_stimuli/rescaled_final/1327_rv.mp4	0.0	299.0913619995117	
43	278.25643396377563	fix_post	2		12	41.0	2.5	/experiments/AOT/AOT_stimuli/rescaled_final/1327_rv.mp4	0.0	300.40784096717834	0.10035896301269531
44	278.35679292678833	fix_pre	0		120	42.0	2.5	blank	1.0	300.50819993019104	1.0000090599060059
44	278.5329248905182	pulse	0	t		42.0	2.5	blank	1.0	300.6843318939209	
44	279.35680198669434	movie	1		300	42.0	2.5	blank	1.0	301.50820899009705	2.499976873397827
44	280.1398470401764	pulse	1	t		42.0	2.5	blank	1.0	302.2912540435791	
44	281.73992395401	pulse	1	t		42.0	2.5	blank	1.0	303.8913309574127	
44	281.85677886009216	fix_post	2		12	42.0	2.5	blank	1.0	304.0081858634949	0.0996251106262207
45	281.9564039707184	fix_pre	0		120	43.0	2.5	/experiments/AOT/AOT_stimuli/rescaled_final/0973_rv.mp4	0.0	304.1078109741211	1.0001819133758545
45	282.95658588409424	movie	1		243	43.0	2.5	/experiments/AOT/AOT_stimuli/rescaled_final/0973_rv.mp4	0.0	305.10799288749695	2.4996700286865234
45	283.33958196640015	pulse	1	t		43.0	2.5	/experiments/AOT/AOT_stimuli/rescaled_final/0973_rv.mp4	0.0	305.49098896980286	
45	284.939847946167	pulse	1	t		43.0	2.5	/experiments/AOT/AOT_stimuli/rescaled_final/0973_rv.mp4	0.0	307.0912549495697	
45	285.45625591278076	fix_post	2		12	43.0	2.5	/experiments/AOT/AOT_stimuli/rescaled_final/0973_rv.mp4	0.0	307.6076629161835	0.10052895545959473
46	285.55678486824036	fix_pre	0		119	44.0	2.5	/experiments/AOT/AOT_stimuli/rescaled_final/0802_rv.mp4	0.0	307.70819187164307	0.9912400245666504
46	286.5397129058838	pulse	0	t		44.0	2.5	/experiments/AOT/AOT_stimuli/rescaled_final/0802_rv.mp4	0.0	308.6911199092865	
46	286.548024892807	movie	1		244	44.0	2.5	/experiments/AOT/AOT_stimuli/rescaled_final/0802_rv.mp4	0.0	308.6994318962097	2.508316993713379
46	288.13986682891846	pulse	1	t		44.0	2.5	/experiments/AOT/AOT_stimuli/rescaled_final/0802_rv.mp4	0.0	310.29127383232117	
46	289.0563418865204	fix_post	2		12	44.0	2.5	/experiments/AOT/AOT_stimuli/rescaled_final/0802_rv.mp4	0.0	311.2077488899231	0.09991693496704102
47	289.1562588214874	fix_pre	0		120	45.0	2.5	/experiments/AOT/AOT_stimuli/rescaled_final/0731_rv.mp4	0.0	311.30766582489014	1.0004401206970215
47	289.7397449016571	pulse	0	t		45.0	2.5	/experiments/AOT/AOT_stimuli/rescaled_final/0731_rv.mp4	0.0	311.8911519050598	
47	290.15669894218445	movie	1		245	45.0	2.5	/experiments/AOT/AOT_stimuli/rescaled_final/0731_rv.mp4	0.0	312.30810594558716	2.4995920658111572
47	291.3402638435364	pulse	1	t		45.0	2.5	/experiments/AOT/AOT_stimuli/rescaled_final/0731_rv.mp4	0.0	313.4916708469391	
47	292.6562910079956	fix_post	2		12	45.0	2.5	/experiments/AOT/AOT_stimuli/rescaled_final/0731_rv.mp4	0.0	314.8076980113983	0.10034298896789551
48	292.7566339969635	fix_pre	0		120	46.0	2.5	/experiments/AOT/AOT_stimuli/rescaled_final/0495_fw.mp4	0.0	314.9080410003662	0.9995999336242676
48	292.9397678375244	pulse	0	t		46.0	2.5	/experiments/AOT/AOT_stimuli/rescaled_final/0495_fw.mp4	0.0	315.0911748409271	
48	293.75623393058777	movie	1		245	46.0	2.5	/experiments/AOT/AOT_stimuli/rescaled_final/0495_fw.mp4	0.0	315.9076409339905	2.5004611015319824
48	294.54013895988464	pulse	1	t		46.0	2.5	/experiments/AOT/AOT_stimuli/rescaled_final/0495_fw.mp4	0.0	316.69154596328735	
48	296.13824582099915	pulse	1	t		46.0	2.5	/experiments/AOT/AOT_stimuli/rescaled_final/0495_fw.mp4	0.0	318.28965282440186	
48	296.25669503211975	fix_post	2		12	46.0	2.5	/experiments/AOT/AOT_stimuli/rescaled_final/0495_fw.mp4	0.0	318.40810203552246	0.09992194175720215
49	296.35661697387695	fix_pre	0		120	47.0	2.5	/experiments/AOT/AOT_stimuli/rescaled_final/2025_fw.mp4	0.0	318.50802397727966	1.0000319480895996
49	297.35664892196655	movie	1		244	47.0	2.5	/experiments/AOT/AOT_stimuli/rescaled_final/2025_fw.mp4	0.0	319.50805592536926	2.4995670318603516
49	297.73991990089417	pulse	1	t		47.0	2.5	/experiments/AOT/AOT_stimuli/rescaled_final/2025_fw.mp4	0.0	319.8913269042969	
49	299.3397228717804	pulse	1	t		47.0	2.5	/experiments/AOT/AOT_stimuli/rescaled_final/2025_fw.mp4	0.0	321.4911298751831	
49	299.8562159538269	fix_post	2		12	47.0	2.5	/experiments/AOT/AOT_stimuli/rescaled_final/2025_fw.mp4	0.0	322.0076229572296	0.10044503211975098
50	299.95666098594666	fix_pre	0		119	48.0	2.5	/experiments/AOT/AOT_stimuli/rescaled_final/1282_rv.mp4	0.0	322.10806798934937	0.991710901260376
50	300.93877482414246	pulse	0	t		48.0	2.5	/experiments/AOT/AOT_stimuli/rescaled_final/1282_rv.mp4	0.0	323.09018182754517	
50	300.94837188720703	movie	1		245	48.0	2.5	/experiments/AOT/AOT_stimuli/rescaled_final/1282_rv.mp4	0.0	323.09977889060974	2.508305072784424
50	302.53895688056946	pulse	1	t		48.0	2.5	/experiments/AOT/AOT_stimuli/rescaled_final/1282_rv.mp4	0.0	324.69036388397217	
50	303.45667695999146	fix_post	2		12	48.0	2.5	/experiments/AOT/AOT_stimuli/rescaled_final/1282_rv.mp4	0.0	325.60808396339417	0.09868693351745605
51	303.5553638935089	fix_pre	0		120	49.0	2.5	blank	1.0	325.7067708969116	1.0015671253204346
51	304.13893604278564	pulse	0	t		49.0	2.5	blank	1.0	326.29034304618835	
51	304.55693101882935	movie	1		300	49.0	2.5	blank	1.0	326.70833802223206	2.4984169006347656
51	305.74049401283264	pulse	1	t		49.0	2.5	blank	1.0	327.89190101623535	
51	307.0553479194641	fix_post	2		12	49.0	2.5	blank	1.0	329.2067549228668	0.1001279354095459
52	307.15547585487366	fix_pre	0		120	50.0	2.5	/experiments/AOT/AOT_stimuli/rescaled_final/1973_rv.mp4	0.0	329.30688285827637	0.9999749660491943
52	307.3387589454651	pulse	0	t		50.0	2.5	/experiments/AOT/AOT_stimuli/rescaled_final/1973_rv.mp4	0.0	329.4901659488678	
52	308.15545082092285	movie	1		243	50.0	2.5	/experiments/AOT/AOT_stimuli/rescaled_final/1973_rv.mp4	0.0	330.30685782432556	2.499880075454712
52	308.9389069080353	pulse	1	t		50.0	2.5	/experiments/AOT/AOT_stimuli/rescaled_final/1973_rv.mp4	0.0	331.090313911438	
52	310.53757190704346	pulse	1	t		50.0	2.5	/experiments/AOT/AOT_stimuli/rescaled_final/1973_rv.mp4	0.0	332.68897891044617	
52	310.65533089637756	fix_post	2		12	50.0	2.5	/experiments/AOT/AOT_stimuli/rescaled_final/1973_rv.mp4	0.0	332.8067378997803	0.1000070571899414
53	310.7553379535675	fix_pre	0		120	51.0	2.5	/experiments/AOT/AOT_stimuli/rescaled_final/0908_fw.mp4	0.0	332.9067449569702	1.0003700256347656
53	311.75570797920227	movie	1		243	51.0	2.5	/experiments/AOT/AOT_stimuli/rescaled_final/0908_fw.mp4	0.0	333.907114982605	2.499656915664673
53	312.13940691947937	pulse	1	t		51.0	2.5	/experiments/AOT/AOT_stimuli/rescaled_final/0908_fw.mp4	0.0	334.2908139228821	
53	313.73865604400635	pulse	1	t		51.0	2.5	/experiments/AOT/AOT_stimuli/rescaled_final/0908_fw.mp4	0.0	335.89006304740906	
53	314.25536489486694	fix_post	2		12	51.0	2.5	/experiments/AOT/AOT_stimuli/rescaled_final/0908_fw.mp4	0.0	336.40677189826965	0.09988999366760254
54	314.35525488853455	fix_pre	0		119	52.0	2.5	/experiments/AOT/AOT_stimuli/rescaled_final/0834_fw.mp4	0.0	336.50666189193726	0.9916701316833496
54	315.3386478424072	pulse	0	t		52.0	2.5	/experiments/AOT/AOT_stimuli/rescaled_final/0834_fw.mp4	0.0	337.49005484580994	
54	315.3469250202179	movie	1		244	52.0	2.5	/experiments/AOT/AOT_stimuli/rescaled_final/0834_fw.mp4	0.0	337.4983320236206	2.508291006088257
54	316.93815088272095	pulse	1	t		52.0	2.5	/experiments/AOT/AOT_stimuli/rescaled_final/0834_fw.mp4	0.0	339.08955788612366	
54	317.85521602630615	fix_post	2		12	52.0	2.5	/experiments/AOT/AOT_stimuli/rescaled_final/0834_fw.mp4	0.0	340.00662302970886	0.10003280639648438
55	317.95524883270264	fix_pre	0		120	53.0	2.5	/experiments/AOT/AOT_stimuli/rescaled_final/1440_fw.mp4	0.0	340.10665583610535	1.0000112056732178
55	318.5388569831848	pulse	0	t		53.0	2.5	/experiments/AOT/AOT_stimuli/rescaled_final/1440_fw.mp4	0.0	340.6902639865875	
55	318.95526003837585	movie	1		243	53.0	2.5	/experiments/AOT/AOT_stimuli/rescaled_final/1440_fw.mp4	0.0	341.10666704177856	2.4995739459991455
55	320.13872599601746	pulse	1	t		53.0	2.5	/experiments/AOT/AOT_stimuli/rescaled_final/1440_fw.mp4	0.0	342.29013299942017	
55	321.454833984375	fix_post	2		12	53.0	2.5	/experiments/AOT/AOT_stimuli/rescaled_final/1440_fw.mp4	0.0	343.6062409877777	0.10038304328918457
56	321.5552170276642	fix_pre	0		120	54.0	2.5	/experiments/AOT/AOT_stimuli/rescaled_final/1816_fw.mp4	0.0	343.7066240310669	1.0000298023223877
56	321.7386109828949	pulse	0	t		54.0	2.5	/experiments/AOT/AOT_stimuli/rescaled_final/1816_fw.mp4	0.0	343.8900179862976	
56	322.5552468299866	movie	1		246	54.0	2.5	/experiments/AOT/AOT_stimuli/rescaled_final/1816_fw.mp4	0.0	344.7066538333893	2.5003039836883545
56	323.3393018245697	pulse	1	t		54.0	2.5	/experiments/AOT/AOT_stimuli/rescaled_final/1816_fw.mp4	0.0	345.4907088279724	
56	324.9350929260254	pulse	1	t		54.0	2.5	/experiments/AOT/AOT_stimuli/rescaled_final/1816_fw.mp4	0.0	347.0864999294281	
56	325.0555508136749	fix_post	2		12	54.0	2.5	/experiments/AOT/AOT_stimuli/rescaled_final/1816_fw.mp4	0.0	347.20695781707764	0.09999322891235352
57	325.1555440425873	fix_pre	0		120	55.0	2.5	blank	1.0	347.30695104599	1.000060796737671
57	326.15560483932495	movie	1		300	55.0	2.5	blank	1.0	348.30701184272766	2.4992291927337646
57	326.5381338596344	pulse	1	t		55.0	2.5	blank	1.0	348.6895408630371	
57	328.13809299468994	pulse	1	t		55.0	2.5	blank	1.0	350.28949999809265	
57	328.6548340320587	fix_post	2		12	55.0	2.5	blank	1.0	350.8062410354614	0.09997987747192383
58	328.75481390953064	fix_pre	0		119	56.0	2.5	/experiments/AOT/AOT_stimuli/rescaled_final/0930_fw.mp4	0.0	350.90622091293335	0.9920089244842529
58	329.73820304870605	pulse	0	t		56.0	2.5	/experiments/AOT/AOT_stimuli/rescaled_final/0930_fw.mp4	0.0	351.88961005210876	
58	329.7468228340149	movie	1		243	56.0	2.5	/experiments/AOT/AOT_stimuli/rescaled_final/0930_fw.mp4	0.0	351.8982298374176	2.5088491439819336
58	331.33810591697693	pulse	1	t		56.0	2.5	/experiments/AOT/AOT_stimuli/rescaled_final/0930_fw.mp4	0.0	353.48951292037964	
58	332.2556719779968	fix_post	2		12	56.0	2.5	/experiments/AOT/AOT_stimuli/rescaled_final/0930_fw.mp4	0.0	354.40707898139954	0.09985804557800293
59	332.35553002357483	fix_pre	0		120	57.0	2.5	/experiments/AOT/AOT_stimuli/rescaled_final/1460_fw.mp4	0.0	354.50693702697754	0.9991698265075684
59	332.93820786476135	pulse	0	t		57.0	2.5	/experiments/AOT/AOT_stimuli/rescaled_final/1460_fw.mp4	0.0	355.08961486816406	
59	333.3546998500824	movie	1		246	57.0	2.5	/experiments/AOT/AOT_stimuli/rescaled_final/1460_fw.mp4	0.0	355.5061068534851	2.5000321865081787
59	334.5381908416748	pulse	1	t		57.0	2.5	/experiments/AOT/AOT_stimuli/rescaled_final/1460_fw.mp4	0.0	356.6895978450775	
59	335.8547320365906	fix_post	2		12	57.0	2.5	/experiments/AOT/AOT_stimuli/rescaled_final/1460_fw.mp4	0.0	358.0061390399933	0.10075187683105469
60	335.95548391342163	fix_pre	0		120	58.0	2.5	/experiments/AOT/AOT_stimuli/rescaled_final/0309_fw.mp4	0.0	358.10689091682434	0.999161958694458
60	336.13815784454346	pulse	0	t		58.0	2.5	/experiments/AOT/AOT_stimuli/rescaled_final/0309_fw.mp4	0.0	358.28956484794617	
60	336.9546458721161	movie	1		247	58.0	2.5	/experiments/AOT/AOT_stimuli/rescaled_final/0309_fw.mp4	0.0	359.1060528755188	2.5000569820404053
60	337.7380578517914	pulse	1	t		58.0	2.5	/experiments/AOT/AOT_stimuli/rescaled_final/0309_fw.mp4	0.0	359.8894648551941	
60	339.3343720436096	pulse	1	t		58.0	2.5	/experiments/AOT/AOT_stimuli/rescaled_final/0309_fw.mp4	0.0	361.48577904701233	
60	339.4547028541565	fix_post	2		12	58.0	2.5	/experiments/AOT/AOT_stimuli/rescaled_final/0309_fw.mp4	0.0	361.6061098575592	0.10100412368774414
61	339.55570697784424	fix_pre	0		120	59.0	2.5	/experiments/AOT/AOT_stimuli/rescaled_final/0786_rv.mp4	0.0	361.70711398124695	0.9989650249481201
61	340.55467200279236	movie	1		246	59.0	2.5	/experiments/AOT/AOT_stimuli/rescaled_final/0786_rv.mp4	0.0	362.70607900619507	2.500825881958008
61	340.9382200241089	pulse	1	t		59.0	2.5	/experiments/AOT/AOT_stimuli/rescaled_final/0786_rv.mp4	0.0	363.0896270275116	
61	342.5382149219513	pulse	1	t		59.0	2.5	/experiments/AOT/AOT_stimuli/rescaled_final/0786_rv.mp4	0.0	364.689621925354	
61	343.05549788475037	fix_post	2		12	59.0	2.5	/experiments/AOT/AOT_stimuli/rescaled_final/0786_rv.mp4	0.0	365.2069048881531	0.09914302825927734
62	343.15464091300964	fix_pre	0		119	60.0	2.5	/experiments/AOT/AOT_stimuli/rescaled_final/1945_rv.mp4	0.0	365.30604791641235	0.9921839237213135
62	344.1389489173889	pulse	0	t		60.0	2.5	/experiments/AOT/AOT_stimuli/rescaled_final/1945_rv.mp4	0.0	366.2903559207916	
62	344.14682483673096	movie	1		246	60.0	2.5	/experiments/AOT/AOT_stimuli/rescaled_final/1945_rv.mp4	0.0	366.29823184013367	2.5086560249328613
62	345.73817896842957	pulse	1	t		60.0	2.5	/experiments/AOT/AOT_stimuli/rescaled_final/1945_rv.mp4	0.0	367.8895859718323	
62	346.6554808616638	fix_post	2		12	60.0	2.5	/experiments/AOT/AOT_stimuli/rescaled_final/1945_rv.mp4	0.0	368.8068878650665	0.0991060733795166
63	346.75458693504333	fix_pre	0		120	61.0	2.5	/experiments/AOT/AOT_stimuli/rescaled_final/0252_fw.mp4	0.0	368.90599393844604	1.0000340938568115
63	347.3380329608917	pulse	0	t		61.0	2.5	/experiments/AOT/AOT_stimuli/rescaled_final/0252_fw.mp4	0.0	369.48943996429443	
63	347.75462102890015	movie	1		246	61.0	2.5	/experiments/AOT/AOT_stimuli/rescaled_final/0252_fw.mp4	0.0	369.90602803230286	2.500919818878174
63	348.93896985054016	pulse	1	t		61.0	2.5	/experiments/AOT/AOT_stimuli/rescaled_final/0252_fw.mp4	0.0	371.09037685394287	
63	350.2555408477783	fix_post	2		12	61.0	2.5	/experiments/AOT/AOT_stimuli/rescaled_final/0252_fw.mp4	0.0	372.40694785118103	0.09914112091064453
64	350.35468196868896	fix_pre	0		120	62.0	2.5	blank	1.0	372.5060889720917	1.0008549690246582
64	350.5380890369415	pulse	0	t		62.0	2.5	blank	1.0	372.68949604034424	
64	351.3555369377136	movie	1		300	62.0	2.5	blank	1.0	373.50694394111633	2.499113082885742
64	352.13806891441345	pulse	1	t		62.0	2.5	blank	1.0	374.28947591781616	
64	353.7380750179291	pulse	1	t		62.0	2.5	blank	1.0	375.8894820213318	
64	353.85465002059937	fix_post	2		12	62.0	2.5	blank	1.0	376.0060570240021	0.10084080696105957
65	353.9554908275604	fix_pre	0		120	63.0	2.5	/experiments/AOT/AOT_stimuli/rescaled_final/0454_rv.mp4	0.0	376.10689783096313	0.999122142791748
65	354.9546129703522	movie	1		243	63.0	2.5	/experiments/AOT/AOT_stimuli/rescaled_final/0454_rv.mp4	0.0	377.1060199737549	2.4999568462371826
65	355.33831882476807	pulse	1	t		63.0	2.5	/experiments/AOT/AOT_stimuli/rescaled_final/0454_rv.mp4	0.0	377.4897258281708	
65	356.93800687789917	pulse	1	t		63.0	2.5	/experiments/AOT/AOT_stimuli/rescaled_final/0454_rv.mp4	0.0	379.0894138813019	
65	357.45456981658936	fix_post	2		12	63.0	2.5	/experiments/AOT/AOT_stimuli/rescaled_final/0454_rv.mp4	0.0	379.60597681999207	0.10006403923034668
66	357.5546338558197	fix_pre	0		119	64.0	2.5	/experiments/AOT/AOT_stimuli/rescaled_final/1410_fw.mp4	0.0	379.7060408592224	0.9915771484375
66	358.53804183006287	pulse	0	t		64.0	2.5	/experiments/AOT/AOT_stimuli/rescaled_final/1410_fw.mp4	0.0	380.6894488334656	
66	358.5462110042572	movie	1		245	64.0	2.5	/experiments/AOT/AOT_stimuli/rescaled_final/1410_fw.mp4	0.0	380.6976180076599	2.5095770359039307
66	360.1383709907532	pulse	1	t		64.0	2.5	/experiments/AOT/AOT_stimuli/rescaled_final/1410_fw.mp4	0.0	382.2897779941559	
66	361.05578804016113	fix_post	2		12	64.0	2.5	/experiments/AOT/AOT_stimuli/rescaled_final/1410_fw.mp4	0.0	383.20719504356384	0.09990191459655762
67	361.1556899547577	fix_pre	0		120	65.0	2.5	/experiments/AOT/AOT_stimuli/rescaled_final/0232_rv.mp4	0.0	383.3070969581604	0.9989349842071533
67	361.73793387413025	pulse	0	t		65.0	2.5	/experiments/AOT/AOT_stimuli/rescaled_final/0232_rv.mp4	0.0	383.88934087753296	
67	362.15462493896484	movie	1		243	65.0	2.5	/experiments/AOT/AOT_stimuli/rescaled_final/0232_rv.mp4	0.0	384.30603194236755	2.5007870197296143
67	363.3380489349365	pulse	1	t		65.0	2.5	/experiments/AOT/AOT_stimuli/rescaled_final/0232_rv.mp4	0.0	385.48945593833923	
67	364.65541195869446	fix_post	2		12	65.0	2.5	/experiments/AOT/AOT_stimuli/rescaled_final/0232_rv.mp4	0.0	386.80681896209717	0.09909701347351074
68	364.75450897216797	fix_pre	0		120	66.0	2.5	/experiments/AOT/AOT_stimuli/rescaled_final/0525_fw.mp4	0.0	386.9059159755707	1.0000200271606445
68	364.9380078315735	pulse	0	t		66.0	2.5	/experiments/AOT/AOT_stimuli/rescaled_final/0525_fw.mp4	0.0	387.0894148349762	
68	365.7545289993286	movie	1		244	66.0	2.5	/experiments/AOT/AOT_stimuli/rescaled_final/0525_fw.mp4	0.0	387.9059360027313	2.499958038330078
68	366.53791189193726	pulse	1	t		66.0	2.5	/experiments/AOT/AOT_stimuli/rescaled_final/0525_fw.mp4	0.0	388.68931889533997	
68	368.1379768848419	pulse	1	t		66.0	2.5	/experiments/AOT/AOT_stimuli/rescaled_final/0525_fw.mp4	0.0	390.28938388824463	
68	368.2544870376587	fix_post	2		12	66.0	2.5	/experiments/AOT/AOT_stimuli/rescaled_final/0525_fw.mp4	0.0	390.4058940410614	0.10004186630249023
69	368.3545289039612	fix_pre	0		120	67.0	2.5	/experiments/AOT/AOT_stimuli/rescaled_final/1560_fw.mp4	0.0	390.5059359073639	1.0000059604644775
69	369.35453486442566	movie	1		244	67.0	2.5	/experiments/AOT/AOT_stimuli/rescaled_final/1560_fw.mp4	0.0	391.50594186782837	2.501579999923706
69	369.7378749847412	pulse	1	t		67.0	2.5	/experiments/AOT/AOT_stimuli/rescaled_final/1560_fw.mp4	0.0	391.8892819881439	
69	371.3393108844757	pulse	1	t		67.0	2.5	/experiments/AOT/AOT_stimuli/rescaled_final/1560_fw.mp4	0.0	393.4907178878784	
69	371.85611486434937	fix_post	2		12	67.0	2.5	/experiments/AOT/AOT_stimuli/rescaled_final/1560_fw.mp4	0.0	394.0075218677521	0.10022807121276855
70	371.95634293556213	fix_pre	0		119	68.0	2.5	/experiments/AOT/AOT_stimuli/rescaled_final/0615_fw.mp4	0.0	394.10774993896484	0.9917020797729492
70	372.9398949146271	pulse	0	t		68.0	2.5	/experiments/AOT/AOT_stimuli/rescaled_final/0615_fw.mp4	0.0	395.0913019180298	
70	372.9480450153351	movie	1		243	68.0	2.5	/experiments/AOT/AOT_stimuli/rescaled_final/0615_fw.mp4	0.0	395.0994520187378	2.508220911026001
70	374.53956604003906	pulse	1	t		68.0	2.5	/experiments/AOT/AOT_stimuli/rescaled_final/0615_fw.mp4	0.0	396.6909730434418	
70	375.4562659263611	fix_post	2		12	68.0	2.5	/experiments/AOT/AOT_stimuli/rescaled_final/0615_fw.mp4	0.0	397.6076729297638	0.09964895248413086
71	375.5559148788452	fix_pre	0		120	69.0	2.5	/experiments/AOT/AOT_stimuli/rescaled_final/1344_rv.mp4	0.0	397.7073218822479	1.0000181198120117
71	376.13972091674805	pulse	0	t		69.0	2.5	/experiments/AOT/AOT_stimuli/rescaled_final/1344_rv.mp4	0.0	398.29112792015076	
71	376.5559329986572	movie	1		244	69.0	2.5	/experiments/AOT/AOT_stimuli/rescaled_final/1344_rv.mp4	0.0	398.70734000205994	2.4998068809509277
71	377.73979091644287	pulse	1	t		69.0	2.5	/experiments/AOT/AOT_stimuli/rescaled_final/1344_rv.mp4	0.0	399.8911979198456	
71	379.05573987960815	fix_post	2		12	69.0	2.5	/experiments/AOT/AOT_stimuli/rescaled_final/1344_rv.mp4	0.0	401.20714688301086	0.10013294219970703
72	379.15587282180786	fix_pre	0		120	70.0	2.5	blank	1.0	401.30727982521057	0.999993085861206
72	379.3392789363861	pulse	0	t		70.0	2.5	blank	1.0	401.4906859397888	
72	380.15586590766907	movie	1		300	70.0	2.5	blank	1.0	402.3072729110718	2.50051212310791
72	380.93928694725037	pulse	1	t		70.0	2.5	blank	1.0	403.0906939506531	
72	382.53925490379333	pulse	1	t		70.0	2.5	blank	1.0	404.69066190719604	
72	382.656378030777	fix_post	2		12	70.0	2.5	blank	1.0	404.8077850341797	0.09984493255615234
73	382.75622296333313	fix_pre	0		120	71.0	2.5	/experiments/AOT/AOT_stimuli/rescaled_final/1678_fw.mp4	0.0	404.90762996673584	0.999640941619873
73	383.755863904953	movie	1		243	71.0	2.5	/experiments/AOT/AOT_stimuli/rescaled_final/1678_fw.mp4	0.0	405.9072709083557	2.4999310970306396
73	384.14011001586914	pulse	1	t		71.0	2.5	/experiments/AOT/AOT_stimuli/rescaled_final/1678_fw.mp4	0.0	406.29151701927185	
73	385.73931097984314	pulse	1	t		71.0	2.5	/experiments/AOT/AOT_stimuli/rescaled_final/1678_fw.mp4	0.0	407.89071798324585	
73	386.25579500198364	fix_post	2		12	71.0	2.5	/experiments/AOT/AOT_stimuli/rescaled_final/1678_fw.mp4	0.0	408.40720200538635	0.09998798370361328
74	386.35578298568726	fix_pre	0		119	72.0	2.5	/experiments/AOT/AOT_stimuli/rescaled_final/0362_fw.mp4	0.0	408.50718998908997	0.9921588897705078
74	387.3391728401184	pulse	0	t		72.0	2.5	/experiments/AOT/AOT_stimuli/rescaled_final/0362_fw.mp4	0.0	409.4905798435211	
74	387.34794187545776	movie	1		245	72.0	2.5	/experiments/AOT/AOT_stimuli/rescaled_final/0362_fw.mp4	0.0	409.4993488788605	2.5077781677246094
74	388.9395728111267	pulse	1	t		72.0	2.5	/experiments/AOT/AOT_stimuli/rescaled_final/0362_fw.mp4	0.0	411.0909798145294	
74	389.8557200431824	fix_post	2		12	72.0	2.5	/experiments/AOT/AOT_stimuli/rescaled_final/0362_fw.mp4	0.0	412.0071270465851	0.10055398941040039
75	389.9562740325928	fix_pre	0		120	73.0	2.5	/experiments/AOT/AOT_stimuli/rescaled_final/1416_rv.mp4	0.0	412.1076810359955	0.9999279975891113
75	390.5392439365387	pulse	0	t		73.0	2.5	/experiments/AOT/AOT_stimuli/rescaled_final/1416_rv.mp4	0.0	412.6906509399414	
75	390.9562020301819	movie	1		245	73.0	2.5	/experiments/AOT/AOT_stimuli/rescaled_final/1416_rv.mp4	0.0	413.1076090335846	2.499971866607666
75	392.1395859718323	pulse	1	t		73.0	2.5	/experiments/AOT/AOT_stimuli/rescaled_final/1416_rv.mp4	0.0	414.290992975235	
75	393.45617389678955	fix_post	2		12	73.0	2.5	/experiments/AOT/AOT_stimuli/rescaled_final/1416_rv.mp4	0.0	415.60758090019226	0.10007596015930176
76	393.55624985694885	fix_pre	0		120	74.0	2.5	/experiments/AOT/AOT_stimuli/rescaled_final/0353_fw.mp4	0.0	415.70765686035156	0.9999301433563232
76	393.7392599582672	pulse	0	t		74.0	2.5	/experiments/AOT/AOT_stimuli/rescaled_final/0353_fw.mp4	0.0	415.8906669616699	
76	394.5561800003052	movie	1		245	74.0	2.5	/experiments/AOT/AOT_stimuli/rescaled_final/0353_fw.mp4	0.0	416.7075870037079	2.5000479221343994
76	395.33911895751953	pulse	1	t		74.0	2.5	/experiments/AOT/AOT_stimuli/rescaled_final/0353_fw.mp4	0.0	417.49052596092224	
76	396.93778586387634	pulse	1	t		74.0	2.5	/experiments/AOT/AOT_stimuli/rescaled_final/0353_fw.mp4	0.0	419.08919286727905	
76	397.0562279224396	fix_post	2		12	74.0	2.5	/experiments/AOT/AOT_stimuli/rescaled_final/0353_fw.mp4	0.0	419.2076349258423	0.09950804710388184
77	397.15573596954346	fix_pre	0		120	75.0	2.5	/experiments/AOT/AOT_stimuli/rescaled_final/1226_rv.mp4	0.0	419.30714297294617	1.0003750324249268
77	398.1561110019684	movie	1		244	75.0	2.5	/experiments/AOT/AOT_stimuli/rescaled_final/1226_rv.mp4	0.0	420.3075180053711	2.5000970363616943
77	398.5389049053192	pulse	1	t		75.0	2.5	/experiments/AOT/AOT_stimuli/rescaled_final/1226_rv.mp4	0.0	420.6903119087219	
77	400.13953399658203	pulse	1	t		75.0	2.5	/experiments/AOT/AOT_stimuli/rescaled_final/1226_rv.mp4	0.0	422.29094099998474	
77	400.6562080383301	fix_post	2		12	75.0	2.5	/experiments/AOT/AOT_stimuli/rescaled_final/1226_rv.mp4	0.0	422.8076150417328	0.09957599639892578
78	400.755784034729	fix_pre	0		119	76.0	2.5	/experiments/AOT/AOT_stimuli/rescaled_final/1202_rv.mp4	0.0	422.9071910381317	0.9922478199005127
78	401.73958587646484	pulse	0	t		76.0	2.5	/experiments/AOT/AOT_stimuli/rescaled_final/1202_rv.mp4	0.0	423.89099287986755	
78	401.7480318546295	movie	1		245	76.0	2.5	/experiments/AOT/AOT_stimuli/rescaled_final/1202_rv.mp4	0.0	423.8994388580322	2.5076589584350586
78	403.3403069972992	pulse	1	t		76.0	2.5	/experiments/AOT/AOT_stimuli/rescaled_final/1202_rv.mp4	0.0	425.4917140007019	
78	404.2556908130646	fix_post	2		12	76.0	2.5	/experiments/AOT/AOT_stimuli/rescaled_final/1202_rv.mp4	0.0	426.4070978164673	0.09999418258666992
79	404.35568499565125	fix_pre	0		120	77.0	2.5	blank	1.0	426.50709199905396	1.0000278949737549
79	404.9396438598633	pulse	0	t		77.0	2.5	blank	1.0	427.091050863266	
79	405.355712890625	movie	1		300	77.0	2.5	blank	1.0	427.5071198940277	2.4999170303344727
79	406.5392470359802	pulse	1	t		77.0	2.5	blank	1.0	428.69065403938293	
79	407.8556299209595	fix_post	2		12	77.0	2.5	blank	1.0	430.0070369243622	0.10022401809692383
80	407.9558539390564	fix_pre	0		120	78.0	2.5	/experiments/AOT/AOT_stimuli/rescaled_final/0139_rv.mp4	0.0	430.1072609424591	0.9998519420623779
80	408.13921999931335	pulse	0	t		78.0	2.5	/experiments/AOT/AOT_stimuli/rescaled_final/0139_rv.mp4	0.0	430.29062700271606	
80	408.9557058811188	movie	1		242	78.0	2.5	/experiments/AOT/AOT_stimuli/rescaled_final/0139_rv.mp4	0.0	431.1071128845215	2.5003390312194824
80	409.73963689804077	pulse	1	t		78.0	2.5	/experiments/AOT/AOT_stimuli/rescaled_final/0139_rv.mp4	0.0	431.8910439014435	
80	411.3387658596039	pulse	1	t		78.0	2.5	/experiments/AOT/AOT_stimuli/rescaled_final/0139_rv.mp4	0.0	433.4901728630066	
80	411.45604491233826	fix_post	2		12	78.0	2.5	/experiments/AOT/AOT_stimuli/rescaled_final/0139_rv.mp4	0.0	433.60745191574097	0.10010504722595215
81	411.5561499595642	fix_pre	0		120	79.0	2.5	/experiments/AOT/AOT_stimuli/rescaled_final/0425_fw.mp4	0.0	433.7075569629669	0.9995889663696289
81	412.55573892593384	movie	1		245	79.0	2.5	/experiments/AOT/AOT_stimuli/rescaled_final/0425_fw.mp4	0.0	434.70714592933655	2.5000510215759277
81	412.9388918876648	pulse	1	t		79.0	2.5	/experiments/AOT/AOT_stimuli/rescaled_final/0425_fw.mp4	0.0	435.0902988910675	
81	414.5395538806915	pulse	1	t		79.0	2.5	/experiments/AOT/AOT_stimuli/rescaled_final/0425_fw.mp4	0.0	436.69096088409424	
81	415.05578994750977	fix_post	2		12	79.0	2.5	/experiments/AOT/AOT_stimuli/rescaled_final/0425_fw.mp4	0.0	437.2071969509125	0.09985208511352539
82	415.1556420326233	fix_pre	0		119	80.0	2.5	/experiments/AOT/AOT_stimuli/rescaled_final/0044_fw.mp4	0.0	437.307049036026	0.9922759532928467
82	416.13971400260925	pulse	0	t		80.0	2.5	/experiments/AOT/AOT_stimuli/rescaled_final/0044_fw.mp4	0.0	438.29112100601196	
82	416.14791798591614	movie	1		245	80.0	2.5	/experiments/AOT/AOT_stimuli/rescaled_final/0044_fw.mp4	0.0	438.29932498931885	2.50780987739563
82	417.7388708591461	pulse	1	t		80.0	2.5	/experiments/AOT/AOT_stimuli/rescaled_final/0044_fw.mp4	0.0	439.8902778625488	
82	418.65572786331177	fix_post	2		12	80.0	2.5	/experiments/AOT/AOT_stimuli/rescaled_final/0044_fw.mp4	0.0	440.8071348667145	0.0998079776763916
83	418.75553584098816	fix_pre	0		120	81.0	2.5	/experiments/AOT/AOT_stimuli/rescaled_final/1744_rv.mp4	0.0	440.90694284439087	1.0000851154327393
83	419.33900785446167	pulse	0	t		81.0	2.5	/experiments/AOT/AOT_stimuli/rescaled_final/1744_rv.mp4	0.0	441.4904148578644	
83	419.7556209564209	movie	1		244	81.0	2.5	/experiments/AOT/AOT_stimuli/rescaled_final/1744_rv.mp4	0.0	441.9070279598236	2.5002999305725098
83	420.9395740032196	pulse	1	t		81.0	2.5	/experiments/AOT/AOT_stimuli/rescaled_final/1744_rv.mp4	0.0	443.0909810066223	
83	422.2559208869934	fix_post	2		12	81.0	2.5	/experiments/AOT/AOT_stimuli/rescaled_final/1744_rv.mp4	0.0	444.4073278903961	0.10019207000732422
84	422.35611295700073	fix_pre	0		120	82.0	2.5	/experiments/AOT/AOT_stimuli/rescaled_final/1198_rv.mp4	0.0	444.50751996040344	0.9998760223388672
84	422.5395748615265	pulse	0	t		82.0	2.5	/experiments/AOT/AOT_stimuli/rescaled_final/1198_rv.mp4	0.0	444.6909818649292	
84	423.3559889793396	movie	1		242	82.0	2.5	/experiments/AOT/AOT_stimuli/rescaled_final/1198_rv.mp4	0.0	445.5073959827423	2.499703884124756
84	424.1391370296478	pulse	1	t		82.0	2.5	/experiments/AOT/AOT_stimuli/rescaled_final/1198_rv.mp4	0.0	446.29054403305054	
84	425.73760986328125	pulse	1	t		82.0	2.5	/experiments/AOT/AOT_stimuli/rescaled_final/1198_rv.mp4	0.0	447.88901686668396	
84	425.85569286346436	fix_post	2		12	82.0	2.5	/experiments/AOT/AOT_stimuli/rescaled_final/1198_rv.mp4	0.0	448.00709986686707	0.0999441146850586
85	425.9556369781494	fix_pre	0		120	83.0	2.5	blank	1.0	448.1070439815521	1.0000319480895996
85	426.955668926239	movie	1		300	83.0	2.5	blank	1.0	449.1070759296417	2.5003418922424316
85	427.33950781822205	pulse	1	t		83.0	2.5	blank	1.0	449.49091482162476	
85	428.93894696235657	pulse	1	t		83.0	2.5	blank	1.0	451.0903539657593	
85	429.45601081848145	fix_post	2		12	83.0	2.5	blank	1.0	451.60741782188416	0.09998822212219238
87	429.55599904060364	stim	0		1716					451.70740604400635	14.299559831619263
87	430.5390429496765	pulse	0	t						452.6904499530792	
87	432.13940691947937	pulse	0	t						454.2908139228821	
87	433.73898100852966	pulse	0	t						455.8903880119324	
87	435.33904004096985	pulse	0	t						457.49044704437256	
87	436.9389178752899	pulse	0	t						459.0903248786926	
87	438.5389380455017	pulse	0	t						460.6903450489044	
87	440.13893699645996	pulse	0	t						462.29034399986267	
87	441.73940896987915	pulse	0	t						463.89081597328186	
87	443.3394310474396	pulse	0	t						465.4908380508423	
