trial_nr	onset	event_type	phase	response	nr_frames	movie_index	movie_duration	movie_file	blank	onset_abs	duration
0	0.2166612148284912	stim	0		141					50.65516209602356	1.1750779151916504
0	1.376427173614502	response	0	space						51.81492805480957	
1	1.3917391300201416	stim	0		5910					51.83024001121521	49.268681049346924
1	50.65074706077576	pulse	0	t						101.08924794197083	
1	50.660420179367065	stim	1		1717					101.09892106056213	14.307345867156982
1	52.241109132766724	pulse	1	t						102.67961001396179	
1	53.84125804901123	pulse	1	t						104.2797589302063	
1	55.441548109054565	pulse	1	t						105.88004899024963	
1	57.04180598258972	pulse	1	t						107.48030686378479	
1	58.642017126083374	pulse	1	t						109.08051800727844	
1	60.24230408668518	pulse	1	t						110.68080496788025	
1	61.842427015304565	pulse	1	t						112.28092789649963	
1	63.44276404380798	pulse	1	t						113.88126492500305	
2	64.96776604652405	fix_pre	0		10	0.0	2.5	/experiments/knapen_AOT/AOT_stimuli/rescaled_final/0849_fw.mp4	0.0	115.40626692771912	0.15015006065368652
2	65.04296708106995	pulse	0	t		0.0	2.5	/experiments/knapen_AOT/AOT_stimuli/rescaled_final/0849_fw.mp4	0.0	115.48146796226501	
2	65.11791610717773	movie	1		229	0.0	2.5	/experiments/knapen_AOT/AOT_stimuli/rescaled_final/0849_fw.mp4	0.0	115.5564169883728	2.4419329166412354
2	66.64332413673401	pulse	1	t		0.0	2.5	/experiments/knapen_AOT/AOT_stimuli/rescaled_final/0849_fw.mp4	0.0	117.08182501792908	
2	67.55984902381897	fix_post	2		12	0.0	2.5	/experiments/knapen_AOT/AOT_stimuli/rescaled_final/0849_fw.mp4	0.0	117.99834990501404	0.1000070571899414
3	67.65985608100891	fix_pre	0		120	1.0	2.5	/experiments/knapen_AOT/AOT_stimuli/rescaled_final/1035_fw.mp4	0.0	118.09835696220398	1.0835850238800049
3	68.24343299865723	pulse	0	t		1.0	2.5	/experiments/knapen_AOT/AOT_stimuli/rescaled_final/1035_fw.mp4	0.0	118.6819338798523	
3	68.74344110488892	movie	1		219	1.0	2.5	/experiments/knapen_AOT/AOT_stimuli/rescaled_final/1035_fw.mp4	0.0	119.18194198608398	2.4252638816833496
3	69.8438811302185	pulse	1	t		1.0	2.5	/experiments/knapen_AOT/AOT_stimuli/rescaled_final/1035_fw.mp4	0.0	120.28238201141357	
3	71.16870498657227	fix_post	2		11	1.0	2.5	/experiments/knapen_AOT/AOT_stimuli/rescaled_final/1035_fw.mp4	0.0	121.60720586776733	0.09166717529296875
4	71.26037216186523	fix_pre	0		120	2.0	2.5	/experiments/knapen_AOT/AOT_stimuli/rescaled_final/0940_rv.mp4	0.0	121.6988730430603	1.0753669738769531
4	71.44397711753845	pulse	0	t		2.0	2.5	/experiments/knapen_AOT/AOT_stimuli/rescaled_final/0940_rv.mp4	0.0	121.88247799873352	
4	72.33573913574219	movie	1		217	2.0	2.5	/experiments/knapen_AOT/AOT_stimuli/rescaled_final/0940_rv.mp4	0.0	122.77424001693726	2.425175905227661
4	73.04421710968018	pulse	1	t		2.0	2.5	/experiments/knapen_AOT/AOT_stimuli/rescaled_final/0940_rv.mp4	0.0	123.48271799087524	
4	74.64286708831787	pulse	1	t		2.0	2.5	/experiments/knapen_AOT/AOT_stimuli/rescaled_final/0940_rv.mp4	0.0	125.08136796951294	
4	74.76091504096985	fix_post	2		12	2.0	2.5	/experiments/knapen_AOT/AOT_stimuli/rescaled_final/0940_rv.mp4	0.0	125.19941592216492	0.10002994537353516
5	74.86094498634338	fix_pre	0		120	3.0	2.5	/experiments/knapen_AOT/AOT_stimuli/rescaled_final/1416_fw.mp4	0.0	125.29944586753845	1.0590300559997559
5	75.91997504234314	movie	1		227	3.0	2.5	/experiments/knapen_AOT/AOT_stimuli/rescaled_final/1416_fw.mp4	0.0	126.35847592353821	2.4331321716308594
5	76.24320101737976	pulse	1	t		3.0	2.5	/experiments/knapen_AOT/AOT_stimuli/rescaled_final/1416_fw.mp4	0.0	126.68170189857483	
5	77.84383010864258	pulse	1	t		3.0	2.5	/experiments/knapen_AOT/AOT_stimuli/rescaled_final/1416_fw.mp4	0.0	128.28233098983765	
5	78.353107213974	fix_post	2		12	3.0	2.5	/experiments/knapen_AOT/AOT_stimuli/rescaled_final/1416_fw.mp4	0.0	128.79160809516907	0.10001277923583984
6	78.45311999320984	fix_pre	0		120	4.0	2.5	/experiments/knapen_AOT/AOT_stimuli/rescaled_final/0163_fw.mp4	0.0	128.8916208744049	1.0669012069702148
6	79.4451789855957	pulse	0	t		4.0	2.5	/experiments/knapen_AOT/AOT_stimuli/rescaled_final/0163_fw.mp4	0.0	129.88367986679077	
6	79.52002120018005	movie	1		227	4.0	2.5	/experiments/knapen_AOT/AOT_stimuli/rescaled_final/0163_fw.mp4	0.0	129.95852208137512	2.4420008659362793
6	81.04381799697876	pulse	1	t		4.0	2.5	/experiments/knapen_AOT/AOT_stimuli/rescaled_final/0163_fw.mp4	0.0	131.48231887817383	
6	81.96202206611633	fix_post	2		12	4.0	2.5	/experiments/knapen_AOT/AOT_stimuli/rescaled_final/0163_fw.mp4	0.0	132.4005229473114	0.10000300407409668
7	82.06202507019043	fix_pre	0		120	5.0	2.5	blank	1.0	132.5005259513855	1.0001280307769775
7	82.64569020271301	pulse	0	t		5.0	2.5	blank	1.0	133.08419108390808	
7	83.06215310096741	movie	1		300	5.0	2.5	blank	1.0	133.50065398216248	2.5003719329833984
7	84.24595618247986	pulse	1	t		5.0	2.5	blank	1.0	134.68445706367493	
7	85.5625250339508	fix_post	2		12	5.0	2.5	blank	1.0	136.00102591514587	0.0999901294708252
8	85.66251516342163	fix_pre	0		120	6.0	2.5	/experiments/knapen_AOT/AOT_stimuli/rescaled_final/1894_rv.mp4	0.0	136.1010160446167	1.08359694480896
8	85.84612107276917	pulse	0	t		6.0	2.5	/experiments/knapen_AOT/AOT_stimuli/rescaled_final/1894_rv.mp4	0.0	136.28462195396423	
8	86.74611210823059	movie	1		225	6.0	2.5	/experiments/knapen_AOT/AOT_stimuli/rescaled_final/1894_rv.mp4	0.0	137.18461298942566	2.416959047317505
8	87.45062398910522	pulse	1	t		6.0	2.5	/experiments/knapen_AOT/AOT_stimuli/rescaled_final/1894_rv.mp4	0.0	137.8891248703003	
8	89.0450451374054	pulse	1	t		6.0	2.5	/experiments/knapen_AOT/AOT_stimuli/rescaled_final/1894_rv.mp4	0.0	139.48354601860046	
8	89.1630711555481	fix_post	2		12	6.0	2.5	/experiments/knapen_AOT/AOT_stimuli/rescaled_final/1894_rv.mp4	0.0	139.60157203674316	0.1000070571899414
9	89.26307821273804	fix_pre	0		120	7.0	2.5	/experiments/knapen_AOT/AOT_stimuli/rescaled_final/0337_rv.mp4	0.0	139.7015790939331	1.0753037929534912
9	90.33838200569153	movie	1		224	7.0	2.5	/experiments/knapen_AOT/AOT_stimuli/rescaled_final/0337_rv.mp4	0.0	140.7768828868866	2.4168860912323
9	90.64521598815918	pulse	1	t		7.0	2.5	/experiments/knapen_AOT/AOT_stimuli/rescaled_final/0337_rv.mp4	0.0	141.08371686935425	
9	92.2468490600586	pulse	1	t		7.0	2.5	/experiments/knapen_AOT/AOT_stimuli/rescaled_final/0337_rv.mp4	0.0	142.68534994125366	
9	92.75526809692383	fix_post	2		12	7.0	2.5	/experiments/knapen_AOT/AOT_stimuli/rescaled_final/0337_rv.mp4	0.0	143.1937689781189	0.10000801086425781
10	92.85527610778809	fix_pre	0		120	8.0	2.5	/experiments/knapen_AOT/AOT_stimuli/rescaled_final/0163_rv.mp4	0.0	143.29377698898315	1.0835599899291992
10	93.8398060798645	pulse	0	t		8.0	2.5	/experiments/knapen_AOT/AOT_stimuli/rescaled_final/0163_rv.mp4	0.0	144.27830696105957	
10	93.93883609771729	movie	1		238	8.0	2.5	/experiments/knapen_AOT/AOT_stimuli/rescaled_final/0163_rv.mp4	0.0	144.37733697891235	2.4253010749816895
10	95.44625115394592	pulse	1	t		8.0	2.5	/experiments/knapen_AOT/AOT_stimuli/rescaled_final/0163_rv.mp4	0.0	145.884752035141	
10	96.36413717269897	fix_post	2		12	8.0	2.5	/experiments/knapen_AOT/AOT_stimuli/rescaled_final/0163_rv.mp4	0.0	146.80263805389404	0.10003495216369629
11	96.46417212486267	fix_pre	0		120	9.0	2.5	/experiments/knapen_AOT/AOT_stimuli/rescaled_final/0448_fw.mp4	0.0	146.90267300605774	1.0502450466156006
11	97.0395770072937	pulse	0	t		9.0	2.5	/experiments/knapen_AOT/AOT_stimuli/rescaled_final/0448_fw.mp4	0.0	147.47807788848877	
11	97.51441717147827	movie	1		226	9.0	2.5	/experiments/knapen_AOT/AOT_stimuli/rescaled_final/0448_fw.mp4	0.0	147.95291805267334	2.450330972671509
11	98.64814114570618	pulse	1	t		9.0	2.5	/experiments/knapen_AOT/AOT_stimuli/rescaled_final/0448_fw.mp4	0.0	149.08664202690125	
11	99.96474814414978	fix_post	2		12	9.0	2.5	/experiments/knapen_AOT/AOT_stimuli/rescaled_final/0448_fw.mp4	0.0	150.40324902534485	0.09997200965881348
12	100.0647201538086	fix_pre	0		120	10.0	2.5	/experiments/knapen_AOT/AOT_stimuli/rescaled_final/0736_fw.mp4	0.0	150.50322103500366	1.0919950008392334
12	100.23984718322754	pulse	0	t		10.0	2.5	/experiments/knapen_AOT/AOT_stimuli/rescaled_final/0736_fw.mp4	0.0	150.6783480644226	
12	101.15671515464783	movie	1		225	10.0	2.5	/experiments/knapen_AOT/AOT_stimuli/rescaled_final/0736_fw.mp4	0.0	151.5952160358429	2.4084830284118652
12	101.84019207954407	pulse	1	t		10.0	2.5	/experiments/knapen_AOT/AOT_stimuli/rescaled_final/0736_fw.mp4	0.0	152.27869296073914	
12	103.43999004364014	pulse	1	t		10.0	2.5	/experiments/knapen_AOT/AOT_stimuli/rescaled_final/0736_fw.mp4	0.0	153.8784909248352	
12	103.56519818305969	fix_post	2		12	10.0	2.5	/experiments/knapen_AOT/AOT_stimuli/rescaled_final/0736_fw.mp4	0.0	154.00369906425476	0.10001587867736816
13	103.66521406173706	fix_pre	0		120	11.0	2.5	/experiments/knapen_AOT/AOT_stimuli/rescaled_final/1507_fw.mp4	0.0	154.10371494293213	1.0755739212036133
13	104.74078798294067	movie	1		225	11.0	2.5	/experiments/knapen_AOT/AOT_stimuli/rescaled_final/1507_fw.mp4	0.0	155.17928886413574	2.4166290760040283
13	105.04062414169312	pulse	1	t		11.0	2.5	/experiments/knapen_AOT/AOT_stimuli/rescaled_final/1507_fw.mp4	0.0	155.47912502288818	
13	106.64082908630371	pulse	1	t		11.0	2.5	/experiments/knapen_AOT/AOT_stimuli/rescaled_final/1507_fw.mp4	0.0	157.07932996749878	
13	107.1574170589447	fix_post	2		12	11.0	2.5	/experiments/knapen_AOT/AOT_stimuli/rescaled_final/1507_fw.mp4	0.0	157.59591794013977	0.09998393058776855
14	107.25740098953247	fix_pre	0		119	12.0	2.5	blank	1.0	157.69590187072754	0.9918351173400879
14	108.24106216430664	pulse	0	t		12.0	2.5	blank	1.0	158.6795630455017	
14	108.24923610687256	movie	1		301	12.0	2.5	blank	1.0	158.68773698806763	2.508720874786377
14	109.84131908416748	pulse	1	t		12.0	2.5	blank	1.0	160.27981996536255	
14	110.75795698165894	fix_post	2		12	12.0	2.5	blank	1.0	161.196457862854	0.10004210472106934
15	110.85799908638	fix_pre	0		120	13.0	2.5	/experiments/knapen_AOT/AOT_stimuli/rescaled_final/1416_rv.mp4	0.0	161.29649996757507	1.0667951107025146
15	111.44150805473328	pulse	0	t		13.0	2.5	/experiments/knapen_AOT/AOT_stimuli/rescaled_final/1416_rv.mp4	0.0	161.88000893592834	
15	111.92479419708252	movie	1		237	13.0	2.5	/experiments/knapen_AOT/AOT_stimuli/rescaled_final/1416_rv.mp4	0.0	162.3632950782776	2.4336938858032227
15	113.04023313522339	pulse	1	t		13.0	2.5	/experiments/knapen_AOT/AOT_stimuli/rescaled_final/1416_rv.mp4	0.0	163.47873401641846	
15	114.35848808288574	fix_post	2		12	13.0	2.5	/experiments/knapen_AOT/AOT_stimuli/rescaled_final/1416_rv.mp4	0.0	164.7969889640808	0.10002994537353516
16	114.45851802825928	fix_pre	0		120	14.0	2.5	/experiments/knapen_AOT/AOT_stimuli/rescaled_final/1124_fw.mp4	0.0	164.89701890945435	1.058793067932129
16	114.64211010932922	pulse	0	t		14.0	2.5	/experiments/knapen_AOT/AOT_stimuli/rescaled_final/1124_fw.mp4	0.0	165.0806109905243	
16	115.5173110961914	movie	1		232	14.0	2.5	/experiments/knapen_AOT/AOT_stimuli/rescaled_final/1124_fw.mp4	0.0	165.95581197738647	2.441720962524414
16	116.24098801612854	pulse	1	t		14.0	2.5	/experiments/knapen_AOT/AOT_stimuli/rescaled_final/1124_fw.mp4	0.0	166.6794888973236	
16	117.84076499938965	pulse	1	t		14.0	2.5	/experiments/knapen_AOT/AOT_stimuli/rescaled_final/1124_fw.mp4	0.0	168.27926588058472	
16	117.95903205871582	fix_post	2		12	14.0	2.5	/experiments/knapen_AOT/AOT_stimuli/rescaled_final/1124_fw.mp4	0.0	168.3975329399109	0.09999394416809082
17	118.05902600288391	fix_pre	0		119	15.0	2.5	/experiments/knapen_AOT/AOT_stimuli/rescaled_final/2016_fw.mp4	0.0	168.49752688407898	1.0585401058197021
17	119.11756610870361	movie	1		236	15.0	2.5	/experiments/knapen_AOT/AOT_stimuli/rescaled_final/2016_fw.mp4	0.0	169.55606698989868	2.433661937713623
17	119.44230198860168	pulse	1	t		15.0	2.5	/experiments/knapen_AOT/AOT_stimuli/rescaled_final/2016_fw.mp4	0.0	169.88080286979675	
17	121.04147601127625	pulse	1	t		15.0	2.5	/experiments/knapen_AOT/AOT_stimuli/rescaled_final/2016_fw.mp4	0.0	171.4799768924713	
17	121.55122804641724	fix_post	2		12	15.0	2.5	/experiments/knapen_AOT/AOT_stimuli/rescaled_final/2016_fw.mp4	0.0	171.9897289276123	0.1000051498413086
18	121.65123319625854	fix_pre	0		120	16.0	2.5	/experiments/knapen_AOT/AOT_stimuli/rescaled_final/0090_rv.mp4	0.0	172.0897340774536	1.0586869716644287
18	122.64318609237671	pulse	0	t		16.0	2.5	/experiments/knapen_AOT/AOT_stimuli/rescaled_final/0090_rv.mp4	0.0	173.08168697357178	
18	122.70992016792297	movie	1		242	16.0	2.5	/experiments/knapen_AOT/AOT_stimuli/rescaled_final/0090_rv.mp4	0.0	173.14842104911804	2.450223922729492
18	124.24331712722778	pulse	1	t		16.0	2.5	/experiments/knapen_AOT/AOT_stimuli/rescaled_final/0090_rv.mp4	0.0	174.68181800842285	
18	125.16014409065247	fix_post	2		12	16.0	2.5	/experiments/knapen_AOT/AOT_stimuli/rescaled_final/0090_rv.mp4	0.0	175.59864497184753	0.09997296333312988
19	125.2601170539856	fix_pre	0		120	17.0	2.5	/experiments/knapen_AOT/AOT_stimuli/rescaled_final/1965_rv.mp4	0.0	175.69861793518066	1.0752711296081543
19	125.8436951637268	pulse	0	t		17.0	2.5	/experiments/knapen_AOT/AOT_stimuli/rescaled_final/1965_rv.mp4	0.0	176.28219604492188	
19	126.33538818359375	movie	1		234	17.0	2.5	/experiments/knapen_AOT/AOT_stimuli/rescaled_final/1965_rv.mp4	0.0	176.77388906478882	2.425264835357666
19	127.44243121147156	pulse	1	t		17.0	2.5	/experiments/knapen_AOT/AOT_stimuli/rescaled_final/1965_rv.mp4	0.0	177.88093209266663	
19	128.76065301895142	fix_post	2		12	17.0	2.5	/experiments/knapen_AOT/AOT_stimuli/rescaled_final/1965_rv.mp4	0.0	179.19915390014648	0.09999513626098633
20	128.8606481552124	fix_pre	0		120	18.0	2.5	/experiments/knapen_AOT/AOT_stimuli/rescaled_final/1207_fw.mp4	0.0	179.29914903640747	1.0668978691101074
20	129.04414200782776	pulse	0	t		18.0	2.5	/experiments/knapen_AOT/AOT_stimuli/rescaled_final/1207_fw.mp4	0.0	179.48264288902283	
20	129.9275460243225	movie	1		221	18.0	2.5	/experiments/knapen_AOT/AOT_stimuli/rescaled_final/1207_fw.mp4	0.0	180.36604690551758	2.4254021644592285
20	130.6439859867096	pulse	1	t		18.0	2.5	/experiments/knapen_AOT/AOT_stimuli/rescaled_final/1207_fw.mp4	0.0	181.08248686790466	
20	132.24310302734375	pulse	1	t		18.0	2.5	/experiments/knapen_AOT/AOT_stimuli/rescaled_final/1207_fw.mp4	0.0	182.68160390853882	
20	132.35294818878174	fix_post	2		13	18.0	2.5	/experiments/knapen_AOT/AOT_stimuli/rescaled_final/1207_fw.mp4	0.0	182.7914490699768	0.10821390151977539
21	132.4611620903015	fix_pre	0		120	19.0	2.5	blank	1.0	182.89966297149658	1.0002069473266602
21	133.46136903762817	movie	1		299	19.0	2.5	blank	1.0	183.89986991882324	2.4920289516448975
21	133.84495902061462	pulse	1	t		19.0	2.5	blank	1.0	184.2834599018097	
21	135.44525504112244	pulse	1	t		19.0	2.5	blank	1.0	185.8837559223175	
21	135.95339798927307	fix_post	2		12	19.0	2.5	blank	1.0	186.39189887046814	0.10000205039978027
22	136.05340003967285	fix_pre	0		120	20.0	2.5	/experiments/knapen_AOT/AOT_stimuli/rescaled_final/2016_rv.mp4	0.0	186.49190092086792	1.0669851303100586
22	137.04543900489807	pulse	0	t		20.0	2.5	/experiments/knapen_AOT/AOT_stimuli/rescaled_final/2016_rv.mp4	0.0	187.48393988609314	
22	137.1203851699829	movie	1		211	20.0	2.5	/experiments/knapen_AOT/AOT_stimuli/rescaled_final/2016_rv.mp4	0.0	187.55888605117798	2.441870927810669
22	138.64730215072632	pulse	1	t		20.0	2.5	/experiments/knapen_AOT/AOT_stimuli/rescaled_final/2016_rv.mp4	0.0	189.0858030319214	
22	139.56225609779358	fix_post	2		12	20.0	2.5	/experiments/knapen_AOT/AOT_stimuli/rescaled_final/2016_rv.mp4	0.0	190.00075697898865	0.09999608993530273
23	139.66225218772888	fix_pre	0		120	21.0	2.5	/experiments/knapen_AOT/AOT_stimuli/rescaled_final/0622_fw.mp4	0.0	190.10075306892395	1.0835599899291992
23	140.24587512016296	pulse	0	t		21.0	2.5	/experiments/knapen_AOT/AOT_stimuli/rescaled_final/0622_fw.mp4	0.0	190.68437600135803	
23	140.74581217765808	movie	1		217	21.0	2.5	/experiments/knapen_AOT/AOT_stimuli/rescaled_final/0622_fw.mp4	0.0	191.18431305885315	2.4169938564300537
23	141.8448600769043	pulse	1	t		21.0	2.5	/experiments/knapen_AOT/AOT_stimuli/rescaled_final/0622_fw.mp4	0.0	192.28336095809937	
23	143.16280603408813	fix_post	2		12	21.0	2.5	/experiments/knapen_AOT/AOT_stimuli/rescaled_final/0622_fw.mp4	0.0	193.6013069152832	0.09998106956481934
24	143.26278710365295	fix_pre	0		120	22.0	2.5	/experiments/knapen_AOT/AOT_stimuli/rescaled_final/1853_rv.mp4	0.0	193.70128798484802	1.0752520561218262
24	143.44631004333496	pulse	0	t		22.0	2.5	/experiments/knapen_AOT/AOT_stimuli/rescaled_final/1853_rv.mp4	0.0	193.88481092453003	
24	144.33803915977478	movie	1		225	22.0	2.5	/experiments/knapen_AOT/AOT_stimuli/rescaled_final/1853_rv.mp4	0.0	194.77654004096985	2.4252748489379883
24	145.04656314849854	pulse	1	t		22.0	2.5	/experiments/knapen_AOT/AOT_stimuli/rescaled_final/1853_rv.mp4	0.0	195.4850640296936	
24	146.64538311958313	pulse	1	t		22.0	2.5	/experiments/knapen_AOT/AOT_stimuli/rescaled_final/1853_rv.mp4	0.0	197.0838840007782	
24	146.76331400871277	fix_post	2		12	22.0	2.5	/experiments/knapen_AOT/AOT_stimuli/rescaled_final/1853_rv.mp4	0.0	197.20181488990784	0.10001301765441895
25	146.8633270263672	fix_pre	0		120	23.0	2.5	/experiments/knapen_AOT/AOT_stimuli/rescaled_final/1853_fw.mp4	0.0	197.30182790756226	1.0668721199035645
25	147.93019914627075	movie	1		223	23.0	2.5	/experiments/knapen_AOT/AOT_stimuli/rescaled_final/1853_fw.mp4	0.0	198.36870002746582	2.4253079891204834
25	148.24575209617615	pulse	1	t		23.0	2.5	/experiments/knapen_AOT/AOT_stimuli/rescaled_final/1853_fw.mp4	0.0	198.68425297737122	
25	149.84717202186584	pulse	1	t		23.0	2.5	/experiments/knapen_AOT/AOT_stimuli/rescaled_final/1853_fw.mp4	0.0	200.2856729030609	
25	150.35550713539124	fix_post	2		12	23.0	2.5	/experiments/knapen_AOT/AOT_stimuli/rescaled_final/1853_fw.mp4	0.0	200.7940080165863	0.10001397132873535
26	150.45552110671997	fix_pre	0		120	24.0	2.5	/experiments/knapen_AOT/AOT_stimuli/rescaled_final/0256_rv.mp4	0.0	200.89402198791504	1.0669810771942139
26	151.44755220413208	pulse	0	t		24.0	2.5	/experiments/knapen_AOT/AOT_stimuli/rescaled_final/0256_rv.mp4	0.0	201.88605308532715	
26	151.52250218391418	movie	1		223	24.0	2.5	/experiments/knapen_AOT/AOT_stimuli/rescaled_final/0256_rv.mp4	0.0	201.96100306510925	2.441922903060913
26	153.04624915122986	pulse	1	t		24.0	2.5	/experiments/knapen_AOT/AOT_stimuli/rescaled_final/0256_rv.mp4	0.0	203.48475003242493	
26	153.9644250869751	fix_post	2		12	24.0	2.5	/experiments/knapen_AOT/AOT_stimuli/rescaled_final/0256_rv.mp4	0.0	204.40292596817017	0.09994006156921387
27	154.0643651485443	fix_pre	0		120	25.0	2.5	/experiments/knapen_AOT/AOT_stimuli/rescaled_final/0750_rv.mp4	0.0	204.50286602973938	1.0502870082855225
27	154.64061999320984	pulse	0	t		25.0	2.5	/experiments/knapen_AOT/AOT_stimuli/rescaled_final/0750_rv.mp4	0.0	205.0791208744049	
27	155.11465215682983	movie	1		223	25.0	2.5	/experiments/knapen_AOT/AOT_stimuli/rescaled_final/0750_rv.mp4	0.0	205.5531530380249	2.4502999782562256
27	156.24827408790588	pulse	1	t		25.0	2.5	/experiments/knapen_AOT/AOT_stimuli/rescaled_final/0750_rv.mp4	0.0	206.68677496910095	
27	157.56495213508606	fix_post	2		12	25.0	2.5	/experiments/knapen_AOT/AOT_stimuli/rescaled_final/0750_rv.mp4	0.0	208.00345301628113	0.09998106956481934
28	157.66493320465088	fix_pre	0		120	26.0	2.5	/experiments/knapen_AOT/AOT_stimuli/rescaled_final/1823_fw.mp4	0.0	208.10343408584595	1.0836529731750488
28	157.84090209007263	pulse	0	t		26.0	2.5	/experiments/knapen_AOT/AOT_stimuli/rescaled_final/1823_fw.mp4	0.0	208.2794029712677	
28	158.74858617782593	movie	1		228	26.0	2.5	/experiments/knapen_AOT/AOT_stimuli/rescaled_final/1823_fw.mp4	0.0	209.187087059021	2.416883945465088
28	159.44035816192627	pulse	1	t		26.0	2.5	/experiments/knapen_AOT/AOT_stimuli/rescaled_final/1823_fw.mp4	0.0	209.87885904312134	
28	161.04044008255005	pulse	1	t		26.0	2.5	/experiments/knapen_AOT/AOT_stimuli/rescaled_final/1823_fw.mp4	0.0	211.47894096374512	
28	161.16547012329102	fix_post	2		12	26.0	2.5	/experiments/knapen_AOT/AOT_stimuli/rescaled_final/1823_fw.mp4	0.0	211.60397100448608	0.09998106956481934
29	161.26545119285583	fix_pre	0		120	27.0	2.5	/experiments/knapen_AOT/AOT_stimuli/rescaled_final/1677_rv.mp4	0.0	211.7039520740509	1.0752949714660645
29	162.3407461643219	movie	1		225	27.0	2.5	/experiments/knapen_AOT/AOT_stimuli/rescaled_final/1677_rv.mp4	0.0	212.77924704551697	2.416934013366699
29	162.64099311828613	pulse	1	t		27.0	2.5	/experiments/knapen_AOT/AOT_stimuli/rescaled_final/1677_rv.mp4	0.0	213.0794939994812	
29	164.24117803573608	pulse	1	t		27.0	2.5	/experiments/knapen_AOT/AOT_stimuli/rescaled_final/1677_rv.mp4	0.0	214.67967891693115	
29	164.7576801776886	fix_post	2		12	27.0	2.5	/experiments/knapen_AOT/AOT_stimuli/rescaled_final/1677_rv.mp4	0.0	215.19618105888367	0.10000491142272949
30	164.85768508911133	fix_pre	0		119	28.0	2.5	blank	1.0	215.2961859703064	0.9918389320373535
30	165.84133505821228	pulse	0	t		28.0	2.5	blank	1.0	216.27983593940735	
30	165.84952402114868	movie	1		301	28.0	2.5	blank	1.0	216.28802490234375	2.5086941719055176
30	167.44162511825562	pulse	1	t		28.0	2.5	blank	1.0	217.88012599945068	
30	168.3582181930542	fix_post	2		12	28.0	2.5	blank	1.0	218.79671907424927	0.10000491142272949
31	168.45822310447693	fix_pre	0		120	29.0	2.5	/experiments/knapen_AOT/AOT_stimuli/rescaled_final/0223_rv.mp4	0.0	218.896723985672	1.0668859481811523
31	169.0418291091919	pulse	0	t		29.0	2.5	/experiments/knapen_AOT/AOT_stimuli/rescaled_final/0223_rv.mp4	0.0	219.48032999038696	
31	169.52510905265808	movie	1		244	29.0	2.5	/experiments/knapen_AOT/AOT_stimuli/rescaled_final/0223_rv.mp4	0.0	219.96360993385315	2.433683156967163
31	170.64093804359436	pulse	1	t		29.0	2.5	/experiments/knapen_AOT/AOT_stimuli/rescaled_final/0223_rv.mp4	0.0	221.07943892478943	
31	171.95879220962524	fix_post	2		8	29.0	2.5	/experiments/knapen_AOT/AOT_stimuli/rescaled_final/0223_rv.mp4	0.0	222.3972930908203	0.0999448299407959
32	172.05873703956604	fix_pre	0		120	30.0	2.5	/experiments/knapen_AOT/AOT_stimuli/rescaled_final/1433_rv.mp4	0.0	222.4972379207611	1.066960096359253
32	172.2422890663147	pulse	0	t		30.0	2.5	/experiments/knapen_AOT/AOT_stimuli/rescaled_final/1433_rv.mp4	0.0	222.68078994750977	
32	173.1256971359253	movie	1		244	30.0	2.5	/experiments/knapen_AOT/AOT_stimuli/rescaled_final/1433_rv.mp4	0.0	223.56419801712036	2.4253249168395996
32	173.8416440486908	pulse	1	t		30.0	2.5	/experiments/knapen_AOT/AOT_stimuli/rescaled_final/1433_rv.mp4	0.0	224.28014492988586	
32	175.44139909744263	pulse	1	t		30.0	2.5	/experiments/knapen_AOT/AOT_stimuli/rescaled_final/1433_rv.mp4	0.0	225.8798999786377	
32	175.5510220527649	fix_post	2		13	30.0	2.5	/experiments/knapen_AOT/AOT_stimuli/rescaled_final/1433_rv.mp4	0.0	225.98952293395996	0.10828304290771484
33	175.6593050956726	fix_pre	0		119	31.0	2.5	/experiments/knapen_AOT/AOT_stimuli/rescaled_final/0128_fw.mp4	0.0	226.09780597686768	1.0585269927978516
33	176.71783208847046	movie	1		234	31.0	2.5	/experiments/knapen_AOT/AOT_stimuli/rescaled_final/0128_fw.mp4	0.0	227.15633296966553	2.433635950088501
33	177.0422990322113	pulse	1	t		31.0	2.5	/experiments/knapen_AOT/AOT_stimuli/rescaled_final/0128_fw.mp4	0.0	227.48079991340637	
33	178.643306016922	pulse	1	t		31.0	2.5	/experiments/knapen_AOT/AOT_stimuli/rescaled_final/0128_fw.mp4	0.0	229.08180689811707	
33	179.15146803855896	fix_post	2		12	31.0	2.5	/experiments/knapen_AOT/AOT_stimuli/rescaled_final/0128_fw.mp4	0.0	229.58996891975403	0.1000821590423584
34	179.25155019760132	fix_pre	0		120	32.0	2.5	/experiments/knapen_AOT/AOT_stimuli/rescaled_final/1941_fw.mp4	0.0	229.6900510787964	1.0919089317321777
34	180.24351716041565	pulse	0	t		32.0	2.5	/experiments/knapen_AOT/AOT_stimuli/rescaled_final/1941_fw.mp4	0.0	230.68201804161072	
34	180.3434591293335	movie	1		250	32.0	2.5	/experiments/knapen_AOT/AOT_stimuli/rescaled_final/1941_fw.mp4	0.0	230.78196001052856	2.4252419471740723
34	181.84389305114746	pulse	1	t		32.0	2.5	/experiments/knapen_AOT/AOT_stimuli/rescaled_final/1941_fw.mp4	0.0	232.28239393234253	
34	182.76870107650757	fix_post	2		11	32.0	2.5	/experiments/knapen_AOT/AOT_stimuli/rescaled_final/1941_fw.mp4	0.0	233.20720195770264	0.09170198440551758
35	182.8604030609131	fix_pre	0		120	33.0	2.5	/experiments/knapen_AOT/AOT_stimuli/rescaled_final/0737_fw.mp4	0.0	233.29890394210815	1.0668210983276367
35	183.4440951347351	pulse	0	t		33.0	2.5	/experiments/knapen_AOT/AOT_stimuli/rescaled_final/0737_fw.mp4	0.0	233.88259601593018	
35	183.92722415924072	movie	1		250	33.0	2.5	/experiments/knapen_AOT/AOT_stimuli/rescaled_final/0737_fw.mp4	0.0	234.3657250404358	2.4336788654327393
35	185.04304909706116	pulse	1	t		33.0	2.5	/experiments/knapen_AOT/AOT_stimuli/rescaled_final/0737_fw.mp4	0.0	235.48154997825623	
35	186.36090302467346	fix_post	2		12	33.0	2.5	/experiments/knapen_AOT/AOT_stimuli/rescaled_final/0737_fw.mp4	0.0	236.79940390586853	0.10005617141723633
36	186.4609591960907	fix_pre	0		120	34.0	2.5	/experiments/knapen_AOT/AOT_stimuli/rescaled_final/0177_fw.mp4	0.0	236.89946007728577	1.0668067932128906
36	186.6444480419159	pulse	0	t		34.0	2.5	/experiments/knapen_AOT/AOT_stimuli/rescaled_final/0177_fw.mp4	0.0	237.08294892311096	
36	187.5277659893036	movie	1		249	34.0	2.5	/experiments/knapen_AOT/AOT_stimuli/rescaled_final/0177_fw.mp4	0.0	237.96626687049866	2.4336860179901123
36	188.24485421180725	pulse	1	t		34.0	2.5	/experiments/knapen_AOT/AOT_stimuli/rescaled_final/0177_fw.mp4	0.0	238.68335509300232	
36	189.84338116645813	pulse	1	t		34.0	2.5	/experiments/knapen_AOT/AOT_stimuli/rescaled_final/0177_fw.mp4	0.0	240.2818820476532	
36	189.9614520072937	fix_post	2		12	34.0	2.5	/experiments/knapen_AOT/AOT_stimuli/rescaled_final/0177_fw.mp4	0.0	240.39995288848877	0.1000211238861084
37	190.0614731311798	fix_pre	0		119	35.0	2.5	blank	1.0	240.49997401237488	0.99180006980896
37	191.05327320098877	movie	1		300	35.0	2.5	blank	1.0	241.49177408218384	2.5003769397735596
37	191.44528102874756	pulse	1	t		35.0	2.5	blank	1.0	241.88378190994263	
37	193.0453860759735	pulse	1	t		35.0	2.5	blank	1.0	243.48388695716858	
37	193.55365014076233	fix_post	2		12	35.0	2.5	blank	1.0	243.9921510219574	0.10000896453857422
38	193.6536591053009	fix_pre	0		120	36.0	2.5	/experiments/knapen_AOT/AOT_stimuli/rescaled_final/0632_rv.mp4	0.0	244.09215998649597	1.0585250854492188
38	194.64563298225403	pulse	0	t		36.0	2.5	/experiments/knapen_AOT/AOT_stimuli/rescaled_final/0632_rv.mp4	0.0	245.0841338634491	
38	194.71218419075012	movie	1		226	36.0	2.5	/experiments/knapen_AOT/AOT_stimuli/rescaled_final/0632_rv.mp4	0.0	245.1506850719452	2.4503209590911865
38	196.24565815925598	pulse	1	t		36.0	2.5	/experiments/knapen_AOT/AOT_stimuli/rescaled_final/0632_rv.mp4	0.0	246.68415904045105	
38	197.1625051498413	fix_post	2		12	36.0	2.5	/experiments/knapen_AOT/AOT_stimuli/rescaled_final/0632_rv.mp4	0.0	247.60100603103638	0.1000208854675293
39	197.26252603530884	fix_pre	0		120	37.0	2.5	/experiments/knapen_AOT/AOT_stimuli/rescaled_final/0432_fw.mp4	0.0	247.7010269165039	1.083517074584961
39	197.846262216568	pulse	0	t		37.0	2.5	/experiments/knapen_AOT/AOT_stimuli/rescaled_final/0432_fw.mp4	0.0	248.28476309776306	
39	198.3460431098938	movie	1		239	37.0	2.5	/experiments/knapen_AOT/AOT_stimuli/rescaled_final/0432_fw.mp4	0.0	248.78454399108887	2.4170119762420654
39	199.4449281692505	pulse	1	t		37.0	2.5	/experiments/knapen_AOT/AOT_stimuli/rescaled_final/0432_fw.mp4	0.0	249.88342905044556	
39	200.76305508613586	fix_post	2		12	37.0	2.5	/experiments/knapen_AOT/AOT_stimuli/rescaled_final/0432_fw.mp4	0.0	251.20155596733093	0.1000070571899414
40	200.8630621433258	fix_pre	0		120	38.0	2.5	/experiments/knapen_AOT/AOT_stimuli/rescaled_final/1048_fw.mp4	0.0	251.30156302452087	1.0751850605010986
40	201.04657101631165	pulse	0	t		38.0	2.5	/experiments/knapen_AOT/AOT_stimuli/rescaled_final/1048_fw.mp4	0.0	251.4850718975067	
40	201.9382472038269	movie	1		261	38.0	2.5	/experiments/knapen_AOT/AOT_stimuli/rescaled_final/1048_fw.mp4	0.0	252.37674808502197	2.425323963165283
40	202.64109921455383	pulse	1	t		38.0	2.5	/experiments/knapen_AOT/AOT_stimuli/rescaled_final/1048_fw.mp4	0.0	253.0796000957489	
40	204.24557900428772	pulse	1	t		38.0	2.5	/experiments/knapen_AOT/AOT_stimuli/rescaled_final/1048_fw.mp4	0.0	254.6840798854828	
40	204.3635711669922	fix_post	2		12	38.0	2.5	/experiments/knapen_AOT/AOT_stimuli/rescaled_final/1048_fw.mp4	0.0	254.80207204818726	0.09995889663696289
41	204.46353006362915	fix_pre	0		119	39.0	2.5	/experiments/knapen_AOT/AOT_stimuli/rescaled_final/0823_fw.mp4	0.0	254.90203094482422	1.0670499801635742
41	205.53058004379272	movie	1		232	39.0	2.5	/experiments/knapen_AOT/AOT_stimuli/rescaled_final/0823_fw.mp4	0.0	255.9690809249878	2.4252631664276123
41	205.84582114219666	pulse	1	t		39.0	2.5	/experiments/knapen_AOT/AOT_stimuli/rescaled_final/0823_fw.mp4	0.0	256.2843220233917	
41	207.43981099128723	pulse	1	t		39.0	2.5	/experiments/knapen_AOT/AOT_stimuli/rescaled_final/0823_fw.mp4	0.0	257.8783118724823	
41	207.95584321022034	fix_post	2		12	39.0	2.5	/experiments/knapen_AOT/AOT_stimuli/rescaled_final/0823_fw.mp4	0.0	258.3943440914154	0.09998583793640137
42	208.05582904815674	fix_pre	0		120	40.0	2.5	/experiments/knapen_AOT/AOT_stimuli/rescaled_final/0256_fw.mp4	0.0	258.4943299293518	1.0669419765472412
42	209.0402331352234	pulse	0	t		40.0	2.5	/experiments/knapen_AOT/AOT_stimuli/rescaled_final/0256_fw.mp4	0.0	259.47873401641846	
42	209.12277102470398	movie	1		237	40.0	2.5	/experiments/knapen_AOT/AOT_stimuli/rescaled_final/0256_fw.mp4	0.0	259.56127190589905	2.441960096359253
42	210.64637899398804	pulse	1	t		40.0	2.5	/experiments/knapen_AOT/AOT_stimuli/rescaled_final/0256_fw.mp4	0.0	261.0848798751831	
42	211.56473112106323	fix_post	2		12	40.0	2.5	/experiments/knapen_AOT/AOT_stimuli/rescaled_final/0256_fw.mp4	0.0	262.0032320022583	0.09992790222167969
43	211.6646590232849	fix_pre	0		120	41.0	2.5	/experiments/knapen_AOT/AOT_stimuli/rescaled_final/0759_fw.mp4	0.0	262.10315990448	1.050227165222168
43	212.24006700515747	pulse	0	t		41.0	2.5	/experiments/knapen_AOT/AOT_stimuli/rescaled_final/0759_fw.mp4	0.0	262.67856788635254	
43	212.71488618850708	movie	1		247	41.0	2.5	/experiments/knapen_AOT/AOT_stimuli/rescaled_final/0759_fw.mp4	0.0	263.15338706970215	2.4503369331359863
43	213.84863901138306	pulse	1	t		41.0	2.5	/experiments/knapen_AOT/AOT_stimuli/rescaled_final/0759_fw.mp4	0.0	264.2871398925781	
43	215.16522312164307	fix_post	2		12	41.0	2.5	/experiments/knapen_AOT/AOT_stimuli/rescaled_final/0759_fw.mp4	0.0	265.60372400283813	0.09998297691345215
44	215.26520609855652	fix_pre	0		120	42.0	2.5	blank	1.0	265.7037069797516	1.0001540184020996
44	215.44037413597107	pulse	0	t		42.0	2.5	blank	1.0	265.87887501716614	
44	216.26536011695862	movie	1		300	42.0	2.5	blank	1.0	266.7038609981537	2.5003790855407715
44	217.04074501991272	pulse	1	t		42.0	2.5	blank	1.0	267.4792459011078	
44	218.64087915420532	pulse	1	t		42.0	2.5	blank	1.0	269.0793800354004	
44	218.7657392024994	fix_post	2		12	42.0	2.5	blank	1.0	269.20424008369446	0.10004401206970215
45	218.8657832145691	fix_pre	0		119	43.0	2.5	/experiments/knapen_AOT/AOT_stimuli/rescaled_final/1191_rv.mp4	0.0	269.30428409576416	1.0753519535064697
45	219.94113516807556	movie	1		236	43.0	2.5	/experiments/knapen_AOT/AOT_stimuli/rescaled_final/1191_rv.mp4	0.0	270.37963604927063	2.4168038368225098
45	220.2411880493164	pulse	1	t		43.0	2.5	/experiments/knapen_AOT/AOT_stimuli/rescaled_final/1191_rv.mp4	0.0	270.6796889305115	
45	221.84133410453796	pulse	1	t		43.0	2.5	/experiments/knapen_AOT/AOT_stimuli/rescaled_final/1191_rv.mp4	0.0	272.27983498573303	
45	222.35793900489807	fix_post	2		12	43.0	2.5	/experiments/knapen_AOT/AOT_stimuli/rescaled_final/1191_rv.mp4	0.0	272.79643988609314	0.10002899169921875
46	222.4579679965973	fix_pre	0		119	44.0	2.5	/experiments/knapen_AOT/AOT_stimuli/rescaled_final/0448_fw.mp4	0.0	272.89646887779236	1.0752110481262207
46	223.441663980484	pulse	0	t		44.0	2.5	/experiments/knapen_AOT/AOT_stimuli/rescaled_final/0448_fw.mp4	0.0	273.8801648616791	
46	223.5331790447235	movie	1		227	44.0	2.5	/experiments/knapen_AOT/AOT_stimuli/rescaled_final/0448_fw.mp4	0.0	273.9716799259186	2.4252941608428955
46	225.04189801216125	pulse	1	t		44.0	2.5	/experiments/knapen_AOT/AOT_stimuli/rescaled_final/0448_fw.mp4	0.0	275.4803988933563	
46	225.9584732055664	fix_post	2		12	44.0	2.5	/experiments/knapen_AOT/AOT_stimuli/rescaled_final/0448_fw.mp4	0.0	276.3969740867615	0.10002899169921875
47	226.05850219726562	fix_pre	0		120	45.0	2.5	/experiments/knapen_AOT/AOT_stimuli/rescaled_final/0463_rv.mp4	0.0	276.4970030784607	1.0669708251953125
47	226.6421480178833	pulse	0	t		45.0	2.5	/experiments/knapen_AOT/AOT_stimuli/rescaled_final/0463_rv.mp4	0.0	277.08064889907837	
47	227.12547302246094	movie	1		212	45.0	2.5	/experiments/knapen_AOT/AOT_stimuli/rescaled_final/0463_rv.mp4	0.0	277.563973903656	2.433551073074341
47	228.244558095932	pulse	1	t		45.0	2.5	/experiments/knapen_AOT/AOT_stimuli/rescaled_final/0463_rv.mp4	0.0	278.6830589771271	
47	229.55902409553528	fix_post	2		12	45.0	2.5	/experiments/knapen_AOT/AOT_stimuli/rescaled_final/0463_rv.mp4	0.0	279.99752497673035	0.10000109672546387
48	229.65902519226074	fix_pre	0		120	46.0	2.5	/experiments/knapen_AOT/AOT_stimuli/rescaled_final/1398_rv.mp4	0.0	280.0975260734558	1.066896915435791
48	229.84257912635803	pulse	0	t		46.0	2.5	/experiments/knapen_AOT/AOT_stimuli/rescaled_final/1398_rv.mp4	0.0	280.2810800075531	
48	230.72592210769653	movie	1		216	46.0	2.5	/experiments/knapen_AOT/AOT_stimuli/rescaled_final/1398_rv.mp4	0.0	281.1644229888916	2.433629035949707
48	231.44258308410645	pulse	1	t		46.0	2.5	/experiments/knapen_AOT/AOT_stimuli/rescaled_final/1398_rv.mp4	0.0	281.8810839653015	
48	233.0419499874115	pulse	1	t		46.0	2.5	/experiments/knapen_AOT/AOT_stimuli/rescaled_final/1398_rv.mp4	0.0	283.48045086860657	
48	233.15955114364624	fix_post	2		12	46.0	2.5	/experiments/knapen_AOT/AOT_stimuli/rescaled_final/1398_rv.mp4	0.0	283.5980520248413	0.09998703002929688
49	233.25953817367554	fix_pre	0		115	47.0	2.5	blank	1.0	283.6980390548706	1.0001678466796875
49	234.25970602035522	movie	1		299	47.0	2.5	blank	1.0	284.6982069015503	2.4920661449432373
49	234.64335107803345	pulse	1	t		47.0	2.5	blank	1.0	285.0818519592285	
49	236.24347305297852	pulse	1	t		47.0	2.5	blank	1.0	286.6819739341736	
49	236.75177216529846	fix_post	2		12	47.0	2.5	blank	1.0	287.19027304649353	0.09999704360961914
50	236.85176920890808	fix_pre	0		120	48.0	2.5	/experiments/knapen_AOT/AOT_stimuli/rescaled_final/0035_fw.mp4	0.0	287.29027009010315	1.0585827827453613
50	237.84379315376282	pulse	0	t		48.0	2.5	/experiments/knapen_AOT/AOT_stimuli/rescaled_final/0035_fw.mp4	0.0	288.2822940349579	
50	237.91035199165344	movie	1		230	48.0	2.5	/experiments/knapen_AOT/AOT_stimuli/rescaled_final/0035_fw.mp4	0.0	288.3488528728485	2.4503002166748047
50	239.44369101524353	pulse	1	t		48.0	2.5	/experiments/knapen_AOT/AOT_stimuli/rescaled_final/0035_fw.mp4	0.0	289.8821918964386	
50	240.36065220832825	fix_post	2		12	48.0	2.5	/experiments/knapen_AOT/AOT_stimuli/rescaled_final/0035_fw.mp4	0.0	290.7991530895233	0.10000896453857422
51	240.46066117286682	fix_pre	0		120	49.0	2.5	/experiments/knapen_AOT/AOT_stimuli/rescaled_final/1817_fw.mp4	0.0	290.8991620540619	1.075225830078125
51	241.04424810409546	pulse	0	t		49.0	2.5	/experiments/knapen_AOT/AOT_stimuli/rescaled_final/1817_fw.mp4	0.0	291.4827489852905	
51	241.53588700294495	movie	1		229	49.0	2.5	/experiments/knapen_AOT/AOT_stimuli/rescaled_final/1817_fw.mp4	0.0	291.97438788414	2.4252610206604004
51	242.64309906959534	pulse	1	t		49.0	2.5	/experiments/knapen_AOT/AOT_stimuli/rescaled_final/1817_fw.mp4	0.0	293.0815999507904	
51	243.96114802360535	fix_post	2		12	49.0	2.5	/experiments/knapen_AOT/AOT_stimuli/rescaled_final/1817_fw.mp4	0.0	294.3996489048004	0.10003113746643066
52	244.06117916107178	fix_pre	0		120	50.0	2.5	/experiments/knapen_AOT/AOT_stimuli/rescaled_final/0641_fw.mp4	0.0	294.49968004226685	1.0669100284576416
52	244.2447690963745	pulse	0	t		50.0	2.5	/experiments/knapen_AOT/AOT_stimuli/rescaled_final/0641_fw.mp4	0.0	294.6832699775696	
52	245.12808918952942	movie	1		228	50.0	2.5	/experiments/knapen_AOT/AOT_stimuli/rescaled_final/0641_fw.mp4	0.0	295.5665900707245	2.425287961959839
52	245.84501600265503	pulse	1	t		50.0	2.5	/experiments/knapen_AOT/AOT_stimuli/rescaled_final/0641_fw.mp4	0.0	296.2835168838501	
52	247.4437611103058	pulse	1	t		50.0	2.5	/experiments/knapen_AOT/AOT_stimuli/rescaled_final/0641_fw.mp4	0.0	297.88226199150085	
52	247.55337715148926	fix_post	2		13	50.0	2.5	/experiments/knapen_AOT/AOT_stimuli/rescaled_final/0641_fw.mp4	0.0	297.9918780326843	0.10833406448364258
53	247.6617112159729	fix_pre	0		120	51.0	2.5	/experiments/knapen_AOT/AOT_stimuli/rescaled_final/0584_rv.mp4	0.0	298.10021209716797	1.0585498809814453
53	248.72026109695435	movie	1		233	51.0	2.5	/experiments/knapen_AOT/AOT_stimuli/rescaled_final/0584_rv.mp4	0.0	299.1587619781494	2.433659076690674
53	249.04843401908875	pulse	1	t		51.0	2.5	/experiments/knapen_AOT/AOT_stimuli/rescaled_final/0584_rv.mp4	0.0	299.4869349002838	
53	250.64587807655334	pulse	1	t		51.0	2.5	/experiments/knapen_AOT/AOT_stimuli/rescaled_final/0584_rv.mp4	0.0	301.0843789577484	
53	251.15392017364502	fix_post	2		12	51.0	2.5	/experiments/knapen_AOT/AOT_stimuli/rescaled_final/0584_rv.mp4	0.0	301.5924210548401	0.09998202323913574
54	251.25390219688416	fix_pre	0		120	52.0	2.5	/experiments/knapen_AOT/AOT_stimuli/rescaled_final/1196_fw.mp4	0.0	301.6924030780792	1.0586609840393066
54	252.24597120285034	pulse	0	t		52.0	2.5	/experiments/knapen_AOT/AOT_stimuli/rescaled_final/1196_fw.mp4	0.0	302.6844720840454	
54	252.31256318092346	movie	1		249	52.0	2.5	/experiments/knapen_AOT/AOT_stimuli/rescaled_final/1196_fw.mp4	0.0	302.75106406211853	2.4502248764038086
54	253.8450632095337	pulse	1	t		52.0	2.5	/experiments/knapen_AOT/AOT_stimuli/rescaled_final/1196_fw.mp4	0.0	304.28356409072876	
54	254.76278805732727	fix_post	2		12	52.0	2.5	/experiments/knapen_AOT/AOT_stimuli/rescaled_final/1196_fw.mp4	0.0	305.20128893852234	0.10001206398010254
55	254.86280012130737	fix_pre	0		120	53.0	2.5	/experiments/knapen_AOT/AOT_stimuli/rescaled_final/1355_rv.mp4	0.0	305.30130100250244	1.0757460594177246
55	255.44635319709778	pulse	0	t		53.0	2.5	/experiments/knapen_AOT/AOT_stimuli/rescaled_final/1355_rv.mp4	0.0	305.88485407829285	
55	255.9385461807251	movie	1		235	53.0	2.5	/experiments/knapen_AOT/AOT_stimuli/rescaled_final/1355_rv.mp4	0.0	306.37704706192017	2.4247539043426514
55	257.04683017730713	pulse	1	t		53.0	2.5	/experiments/knapen_AOT/AOT_stimuli/rescaled_final/1355_rv.mp4	0.0	307.4853310585022	
55	258.36330008506775	fix_post	2		12	53.0	2.5	/experiments/knapen_AOT/AOT_stimuli/rescaled_final/1355_rv.mp4	0.0	308.8018009662628	0.10001802444458008
56	258.46331810951233	fix_pre	0		120	54.0	2.5	/experiments/knapen_AOT/AOT_stimuli/rescaled_final/0853_fw.mp4	0.0	308.9018189907074	1.075268030166626
56	258.64690113067627	pulse	0	t		54.0	2.5	/experiments/knapen_AOT/AOT_stimuli/rescaled_final/0853_fw.mp4	0.0	309.08540201187134	
56	259.53858613967896	movie	1		236	54.0	2.5	/experiments/knapen_AOT/AOT_stimuli/rescaled_final/0853_fw.mp4	0.0	309.977087020874	2.4169440269470215
56	260.2466812133789	pulse	1	t		54.0	2.5	/experiments/knapen_AOT/AOT_stimuli/rescaled_final/0853_fw.mp4	0.0	310.685182094574	
56	261.84571504592896	pulse	1	t		54.0	2.5	/experiments/knapen_AOT/AOT_stimuli/rescaled_final/0853_fw.mp4	0.0	312.284215927124	
56	261.955530166626	fix_post	2		13	54.0	2.5	/experiments/knapen_AOT/AOT_stimuli/rescaled_final/0853_fw.mp4	0.0	312.39403104782104	0.1083838939666748
57	262.06391406059265	fix_pre	0		120	55.0	2.5	/experiments/knapen_AOT/AOT_stimuli/rescaled_final/0171_rv.mp4	0.0	312.5024149417877	1.0668201446533203
57	263.130734205246	movie	1		232	55.0	2.5	/experiments/knapen_AOT/AOT_stimuli/rescaled_final/0171_rv.mp4	0.0	313.56923508644104	2.425330877304077
57	263.4458270072937	pulse	1	t		55.0	2.5	/experiments/knapen_AOT/AOT_stimuli/rescaled_final/0171_rv.mp4	0.0	313.88432788848877	
57	265.0480420589447	pulse	1	t		55.0	2.5	/experiments/knapen_AOT/AOT_stimuli/rescaled_final/0171_rv.mp4	0.0	315.48654294013977	
57	265.55606508255005	fix_post	2		12	55.0	2.5	/experiments/knapen_AOT/AOT_stimuli/rescaled_final/0171_rv.mp4	0.0	315.9945659637451	0.10002803802490234
58	265.65609312057495	fix_pre	0		120	56.0	2.5	blank	1.0	316.09459400177	1.0001590251922607
58	266.64049911499023	pulse	0	t		56.0	2.5	blank	1.0	317.0789999961853	
58	266.6562521457672	movie	1		301	56.0	2.5	blank	1.0	317.0947530269623	2.508678913116455
58	268.24088621139526	pulse	1	t		56.0	2.5	blank	1.0	318.67938709259033	
58	269.16493105888367	fix_post	2		12	56.0	2.5	blank	1.0	319.60343194007874	0.10010910034179688
59	269.26504015922546	fix_pre	0		120	57.0	2.5	/experiments/knapen_AOT/AOT_stimuli/rescaled_final/1362_rv.mp4	0.0	319.70354104042053	1.0669538974761963
59	269.8410851955414	pulse	0	t		57.0	2.5	/experiments/knapen_AOT/AOT_stimuli/rescaled_final/1362_rv.mp4	0.0	320.27958607673645	
59	270.33199405670166	movie	1		248	57.0	2.5	/experiments/knapen_AOT/AOT_stimuli/rescaled_final/1362_rv.mp4	0.0	320.77049493789673	2.433459997177124
59	271.44825506210327	pulse	1	t		57.0	2.5	/experiments/knapen_AOT/AOT_stimuli/rescaled_final/1362_rv.mp4	0.0	321.88675594329834	
59	272.7654540538788	fix_post	2		12	57.0	2.5	/experiments/knapen_AOT/AOT_stimuli/rescaled_final/1362_rv.mp4	0.0	323.20395493507385	0.10001516342163086
60	272.8654692173004	fix_pre	0		120	58.0	2.5	/experiments/knapen_AOT/AOT_stimuli/rescaled_final/1353_fw.mp4	0.0	323.3039700984955	1.083643913269043
60	273.04082798957825	pulse	0	t		58.0	2.5	/experiments/knapen_AOT/AOT_stimuli/rescaled_final/1353_fw.mp4	0.0	323.4793288707733	
60	273.94911313056946	movie	1		242	58.0	2.5	/experiments/knapen_AOT/AOT_stimuli/rescaled_final/1353_fw.mp4	0.0	324.3876140117645	2.4169039726257324
60	274.6398220062256	pulse	1	t		58.0	2.5	/experiments/knapen_AOT/AOT_stimuli/rescaled_final/1353_fw.mp4	0.0	325.07832288742065	
60	276.2399501800537	pulse	1	t		58.0	2.5	/experiments/knapen_AOT/AOT_stimuli/rescaled_final/1353_fw.mp4	0.0	326.6784510612488	
60	276.3660171031952	fix_post	2		12	58.0	2.5	/experiments/knapen_AOT/AOT_stimuli/rescaled_final/1353_fw.mp4	0.0	326.80451798439026	0.09998106956481934
61	276.46599817276	fix_pre	0		120	59.0	2.5	/experiments/knapen_AOT/AOT_stimuli/rescaled_final/1376_fw.mp4	0.0	326.9044990539551	1.0752010345458984
61	277.5411992073059	movie	1		250	59.0	2.5	/experiments/knapen_AOT/AOT_stimuli/rescaled_final/1376_fw.mp4	0.0	327.979700088501	2.416982889175415
61	277.8405740261078	pulse	1	t		59.0	2.5	/experiments/knapen_AOT/AOT_stimuli/rescaled_final/1376_fw.mp4	0.0	328.27907490730286	
61	279.4400269985199	pulse	1	t		59.0	2.5	/experiments/knapen_AOT/AOT_stimuli/rescaled_final/1376_fw.mp4	0.0	329.87852787971497	
61	279.9581820964813	fix_post	2		12	59.0	2.5	/experiments/knapen_AOT/AOT_stimuli/rescaled_final/1376_fw.mp4	0.0	330.3966829776764	0.1000370979309082
62	280.05821919441223	fix_pre	0		119	60.0	2.5	/experiments/knapen_AOT/AOT_stimuli/rescaled_final/0314_rv.mp4	0.0	330.4967200756073	1.0752768516540527
62	281.04198598861694	pulse	0	t		60.0	2.5	/experiments/knapen_AOT/AOT_stimuli/rescaled_final/0314_rv.mp4	0.0	331.480486869812	
62	281.1334960460663	movie	1		258	60.0	2.5	/experiments/knapen_AOT/AOT_stimuli/rescaled_final/0314_rv.mp4	0.0	331.57199692726135	2.425230026245117
62	282.6409230232239	pulse	1	t		60.0	2.5	/experiments/knapen_AOT/AOT_stimuli/rescaled_final/0314_rv.mp4	0.0	333.07942390441895	
62	283.5587260723114	fix_post	2		12	60.0	2.5	/experiments/knapen_AOT/AOT_stimuli/rescaled_final/0314_rv.mp4	0.0	333.99722695350647	0.10003209114074707
63	283.65875816345215	fix_pre	0		120	61.0	2.5	blank	1.0	334.0972590446472	1.0001749992370605
63	284.24232816696167	pulse	0	t		61.0	2.5	blank	1.0	334.68082904815674	
63	284.6589331626892	movie	1		300	61.0	2.5	blank	1.0	335.0974340438843	2.5003600120544434
63	285.8426311016083	pulse	1	t		61.0	2.5	blank	1.0	336.28113198280334	
63	287.15929317474365	fix_post	2		12	61.0	2.5	blank	1.0	337.5977940559387	0.10000181198120117
64	287.25929498672485	fix_pre	0		120	62.0	2.5	/experiments/knapen_AOT/AOT_stimuli/rescaled_final/0083_rv.mp4	0.0	337.6977958679199	1.0585432052612305
64	287.4429280757904	pulse	0	t		62.0	2.5	/experiments/knapen_AOT/AOT_stimuli/rescaled_final/0083_rv.mp4	0.0	337.8814289569855	
64	288.3178381919861	movie	1		260	62.0	2.5	/experiments/knapen_AOT/AOT_stimuli/rescaled_final/0083_rv.mp4	0.0	338.75633907318115	2.441969871520996
64	289.0412640571594	pulse	1	t		62.0	2.5	/experiments/knapen_AOT/AOT_stimuli/rescaled_final/0083_rv.mp4	0.0	339.4797649383545	
64	290.64253401756287	pulse	1	t		62.0	2.5	/experiments/knapen_AOT/AOT_stimuli/rescaled_final/0083_rv.mp4	0.0	341.08103489875793	
64	290.7598080635071	fix_post	2		12	62.0	2.5	/experiments/knapen_AOT/AOT_stimuli/rescaled_final/0083_rv.mp4	0.0	341.19830894470215	0.10006093978881836
65	290.8598690032959	fix_pre	0		120	63.0	2.5	/experiments/knapen_AOT/AOT_stimuli/rescaled_final/2023_fw.mp4	0.0	341.29836988449097	1.0584890842437744
65	291.9183580875397	movie	1		237	63.0	2.5	/experiments/knapen_AOT/AOT_stimuli/rescaled_final/2023_fw.mp4	0.0	342.35685896873474	2.4336700439453125
65	292.2418940067291	pulse	1	t		63.0	2.5	/experiments/knapen_AOT/AOT_stimuli/rescaled_final/2023_fw.mp4	0.0	342.6803948879242	
65	293.84205317497253	pulse	1	t		63.0	2.5	/experiments/knapen_AOT/AOT_stimuli/rescaled_final/2023_fw.mp4	0.0	344.2805540561676	
65	294.352028131485	fix_post	2		12	63.0	2.5	/experiments/knapen_AOT/AOT_stimuli/rescaled_final/2023_fw.mp4	0.0	344.79052901268005	0.1000678539276123
66	294.4520959854126	fix_pre	0		120	64.0	2.5	/experiments/knapen_AOT/AOT_stimuli/rescaled_final/0787_rv.mp4	0.0	344.89059686660767	1.0918450355529785
66	295.44420313835144	pulse	0	t		64.0	2.5	/experiments/knapen_AOT/AOT_stimuli/rescaled_final/0787_rv.mp4	0.0	345.8827040195465	
66	295.5439410209656	movie	1		238	64.0	2.5	/experiments/knapen_AOT/AOT_stimuli/rescaled_final/0787_rv.mp4	0.0	345.98244190216064	2.4169399738311768
66	297.04435300827026	pulse	1	t		64.0	2.5	/experiments/knapen_AOT/AOT_stimuli/rescaled_final/0787_rv.mp4	0.0	347.48285388946533	
66	297.96088099479675	fix_post	2		12	64.0	2.5	/experiments/knapen_AOT/AOT_stimuli/rescaled_final/0787_rv.mp4	0.0	348.3993818759918	0.10001611709594727
67	298.0608971118927	fix_pre	0		120	65.0	2.5	/experiments/knapen_AOT/AOT_stimuli/rescaled_final/1048_fw.mp4	0.0	348.49939799308777	1.075314998626709
67	298.6445050239563	pulse	0	t		65.0	2.5	/experiments/knapen_AOT/AOT_stimuli/rescaled_final/1048_fw.mp4	0.0	349.08300590515137	
67	299.1362121105194	movie	1		249	65.0	2.5	/experiments/knapen_AOT/AOT_stimuli/rescaled_final/1048_fw.mp4	0.0	349.5747129917145	2.4252219200134277
67	300.243182182312	pulse	1	t		65.0	2.5	/experiments/knapen_AOT/AOT_stimuli/rescaled_final/1048_fw.mp4	0.0	350.6816830635071	
67	301.56143403053284	fix_post	2		12	65.0	2.5	/experiments/knapen_AOT/AOT_stimuli/rescaled_final/1048_fw.mp4	0.0	351.9999349117279	0.09999513626098633
68	301.6614291667938	fix_pre	0		120	66.0	2.5	/experiments/knapen_AOT/AOT_stimuli/rescaled_final/0285_rv.mp4	0.0	352.0999300479889	1.066884994506836
68	301.84499621391296	pulse	0	t		66.0	2.5	/experiments/knapen_AOT/AOT_stimuli/rescaled_final/0285_rv.mp4	0.0	352.28349709510803	
68	302.72831416130066	movie	1		239	66.0	2.5	/experiments/knapen_AOT/AOT_stimuli/rescaled_final/0285_rv.mp4	0.0	353.1668150424957	2.4254720211029053
68	303.44486117362976	pulse	1	t		66.0	2.5	/experiments/knapen_AOT/AOT_stimuli/rescaled_final/0285_rv.mp4	0.0	353.88336205482483	
68	305.0437521934509	pulse	1	t		66.0	2.5	/experiments/knapen_AOT/AOT_stimuli/rescaled_final/0285_rv.mp4	0.0	355.482253074646	
68	305.15378618240356	fix_post	2		13	66.0	2.5	/experiments/knapen_AOT/AOT_stimuli/rescaled_final/0285_rv.mp4	0.0	355.59228706359863	0.10817885398864746
69	305.2619650363922	fix_pre	0		120	67.0	2.5	/experiments/knapen_AOT/AOT_stimuli/rescaled_final/1363_rv.mp4	0.0	355.7004659175873	1.0585880279541016
69	306.3205530643463	movie	1		227	67.0	2.5	/experiments/knapen_AOT/AOT_stimuli/rescaled_final/1363_rv.mp4	0.0	356.7590539455414	2.44195294380188
69	306.6464819908142	pulse	1	t		67.0	2.5	/experiments/knapen_AOT/AOT_stimuli/rescaled_final/1363_rv.mp4	0.0	357.0849828720093	
69	308.24469804763794	pulse	1	t		67.0	2.5	/experiments/knapen_AOT/AOT_stimuli/rescaled_final/1363_rv.mp4	0.0	358.683198928833	
69	308.7625060081482	fix_post	2		11	67.0	2.5	/experiments/knapen_AOT/AOT_stimuli/rescaled_final/1363_rv.mp4	0.0	359.20100688934326	0.09166312217712402
70	308.8541691303253	fix_pre	0		120	68.0	2.5	/experiments/knapen_AOT/AOT_stimuli/rescaled_final/2106_fw.mp4	0.0	359.2926700115204	1.0669078826904297
70	309.84622406959534	pulse	0	t		68.0	2.5	/experiments/knapen_AOT/AOT_stimuli/rescaled_final/2106_fw.mp4	0.0	360.2847249507904	
70	309.92107701301575	movie	1		221	68.0	2.5	/experiments/knapen_AOT/AOT_stimuli/rescaled_final/2106_fw.mp4	0.0	360.3595778942108	2.4420061111450195
70	311.444943189621	pulse	1	t		68.0	2.5	/experiments/knapen_AOT/AOT_stimuli/rescaled_final/2106_fw.mp4	0.0	361.88344407081604	
70	312.36308312416077	fix_post	2		12	68.0	2.5	/experiments/knapen_AOT/AOT_stimuli/rescaled_final/2106_fw.mp4	0.0	362.80158400535583	0.09997701644897461
71	312.46306014060974	fix_pre	0		116	69.0	2.5	/experiments/knapen_AOT/AOT_stimuli/rescaled_final/1663_rv.mp4	0.0	362.9015610218048	1.0834949016571045
71	313.0467071533203	pulse	0	t		69.0	2.5	/experiments/knapen_AOT/AOT_stimuli/rescaled_final/1663_rv.mp4	0.0	363.4852080345154	
71	313.54655504226685	movie	1		233	69.0	2.5	/experiments/knapen_AOT/AOT_stimuli/rescaled_final/1663_rv.mp4	0.0	363.9850559234619	2.4170351028442383
71	314.64571714401245	pulse	1	t		69.0	2.5	/experiments/knapen_AOT/AOT_stimuli/rescaled_final/1663_rv.mp4	0.0	365.0842180252075	
71	315.9635901451111	fix_post	2		12	69.0	2.5	/experiments/knapen_AOT/AOT_stimuli/rescaled_final/1663_rv.mp4	0.0	366.40209102630615	0.09998106956481934
72	316.0635712146759	fix_pre	0		120	70.0	2.5	blank	1.0	366.502072095871	1.0001578330993652
72	316.24725008010864	pulse	0	t		70.0	2.5	blank	1.0	366.6857509613037	
72	317.06372904777527	movie	1		300	70.0	2.5	blank	1.0	367.50222992897034	2.500425100326538
72	317.8473529815674	pulse	1	t		70.0	2.5	blank	1.0	368.28585386276245	
72	319.44018721580505	pulse	1	t		70.0	2.5	blank	1.0	369.8786880970001	
72	319.5641541481018	fix_post	2		12	70.0	2.5	blank	1.0	370.0026550292969	0.09998106956481934
73	319.6641352176666	fix_pre	0		120	71.0	2.5	/experiments/knapen_AOT/AOT_stimuli/rescaled_final/1958_fw.mp4	0.0	370.1026360988617	1.0586118698120117
73	320.72274708747864	movie	1		229	71.0	2.5	/experiments/knapen_AOT/AOT_stimuli/rescaled_final/1958_fw.mp4	0.0	371.1612479686737	2.4335649013519287
73	321.0468339920044	pulse	1	t		71.0	2.5	/experiments/knapen_AOT/AOT_stimuli/rescaled_final/1958_fw.mp4	0.0	371.48533487319946	
73	322.64813017845154	pulse	1	t		71.0	2.5	/experiments/knapen_AOT/AOT_stimuli/rescaled_final/1958_fw.mp4	0.0	373.0866310596466	
73	323.15631198883057	fix_post	2		12	71.0	2.5	/experiments/knapen_AOT/AOT_stimuli/rescaled_final/1958_fw.mp4	0.0	373.59481287002563	0.10000419616699219
74	323.25631618499756	fix_pre	0		120	72.0	2.5	/experiments/knapen_AOT/AOT_stimuli/rescaled_final/1182_rv.mp4	0.0	373.6948170661926	1.0585110187530518
74	324.2407422065735	pulse	0	t		72.0	2.5	/experiments/knapen_AOT/AOT_stimuli/rescaled_final/1182_rv.mp4	0.0	374.67924308776855	
74	324.3148272037506	movie	1		234	72.0	2.5	/experiments/knapen_AOT/AOT_stimuli/rescaled_final/1182_rv.mp4	0.0	374.7533280849457	2.4503679275512695
74	325.8474500179291	pulse	1	t		72.0	2.5	/experiments/knapen_AOT/AOT_stimuli/rescaled_final/1182_rv.mp4	0.0	376.28595089912415	
74	326.7651951313019	fix_post	2		12	72.0	2.5	/experiments/knapen_AOT/AOT_stimuli/rescaled_final/1182_rv.mp4	0.0	377.20369601249695	0.0999898910522461
75	326.8651850223541	fix_pre	0		120	73.0	2.5	/experiments/knapen_AOT/AOT_stimuli/rescaled_final/1568_fw.mp4	0.0	377.3036859035492	1.0835371017456055
75	327.4403860569	pulse	0	t		73.0	2.5	/experiments/knapen_AOT/AOT_stimuli/rescaled_final/1568_fw.mp4	0.0	377.8788869380951	
75	327.94872212409973	movie	1		230	73.0	2.5	/experiments/knapen_AOT/AOT_stimuli/rescaled_final/1568_fw.mp4	0.0	378.3872230052948	2.417006015777588
75	329.0407681465149	pulse	1	t		73.0	2.5	/experiments/knapen_AOT/AOT_stimuli/rescaled_final/1568_fw.mp4	0.0	379.47926902770996	
75	330.3657281398773	fix_post	2		12	73.0	2.5	/experiments/knapen_AOT/AOT_stimuli/rescaled_final/1568_fw.mp4	0.0	380.8042290210724	0.10000300407409668
76	330.4657311439514	fix_pre	0		120	74.0	2.5	/experiments/knapen_AOT/AOT_stimuli/rescaled_final/1851_rv.mp4	0.0	380.9042320251465	1.0751838684082031
76	330.6409351825714	pulse	0	t		74.0	2.5	/experiments/knapen_AOT/AOT_stimuli/rescaled_final/1851_rv.mp4	0.0	381.0794360637665	
76	331.5409150123596	movie	1		228	74.0	2.5	/experiments/knapen_AOT/AOT_stimuli/rescaled_final/1851_rv.mp4	0.0	381.9794158935547	2.4337241649627686
76	332.24127411842346	pulse	1	t		74.0	2.5	/experiments/knapen_AOT/AOT_stimuli/rescaled_final/1851_rv.mp4	0.0	382.67977499961853	
76	333.8414959907532	pulse	1	t		74.0	2.5	/experiments/knapen_AOT/AOT_stimuli/rescaled_final/1851_rv.mp4	0.0	384.27999687194824	
76	333.9746391773224	fix_post	2		11	74.0	2.5	/experiments/knapen_AOT/AOT_stimuli/rescaled_final/1851_rv.mp4	0.0	384.41314005851746	0.09163093566894531
77	334.06627011299133	fix_pre	0		119	75.0	2.5	/experiments/knapen_AOT/AOT_stimuli/rescaled_final/1568_rv.mp4	0.0	384.5047709941864	1.0753350257873535
77	335.1416051387787	movie	1		218	75.0	2.5	/experiments/knapen_AOT/AOT_stimuli/rescaled_final/1568_rv.mp4	0.0	385.58010601997375	2.4169459342956543
77	335.4418032169342	pulse	1	t		75.0	2.5	/experiments/knapen_AOT/AOT_stimuli/rescaled_final/1568_rv.mp4	0.0	385.8803040981293	
77	337.0404100418091	pulse	1	t		75.0	2.5	/experiments/knapen_AOT/AOT_stimuli/rescaled_final/1568_rv.mp4	0.0	387.47891092300415	
77	337.55855107307434	fix_post	2		12	75.0	2.5	/experiments/knapen_AOT/AOT_stimuli/rescaled_final/1568_rv.mp4	0.0	387.9970519542694	0.09994792938232422
78	337.65849900245667	fix_pre	0		119	76.0	2.5	/experiments/knapen_AOT/AOT_stimuli/rescaled_final/0263_rv.mp4	0.0	388.09699988365173	1.0835411548614502
78	338.6421661376953	pulse	0	t		76.0	2.5	/experiments/knapen_AOT/AOT_stimuli/rescaled_final/0263_rv.mp4	0.0	389.0806670188904	
78	338.7420401573181	movie	1		223	76.0	2.5	/experiments/knapen_AOT/AOT_stimuli/rescaled_final/0263_rv.mp4	0.0	389.1805410385132	2.4169769287109375
78	340.2422959804535	pulse	1	t		76.0	2.5	/experiments/knapen_AOT/AOT_stimuli/rescaled_final/0263_rv.mp4	0.0	390.68079686164856	
78	341.15901708602905	fix_post	2		12	76.0	2.5	/experiments/knapen_AOT/AOT_stimuli/rescaled_final/0263_rv.mp4	0.0	391.5975179672241	0.09999489784240723
79	341.25901198387146	fix_pre	0		120	77.0	2.5	blank	1.0	391.6975128650665	1.0001661777496338
79	341.8427619934082	pulse	0	t		77.0	2.5	blank	1.0	392.28126287460327	
79	342.2591781616211	movie	1		300	77.0	2.5	blank	1.0	392.69767904281616	2.5003929138183594
79	343.4429271221161	pulse	1	t		77.0	2.5	blank	1.0	393.88142800331116	
79	344.75957107543945	fix_post	2		12	77.0	2.5	blank	1.0	395.1980719566345	0.10001611709594727
80	344.8595871925354	fix_pre	0		120	78.0	2.5	/experiments/knapen_AOT/AOT_stimuli/rescaled_final/1736_fw.mp4	0.0	395.29808807373047	1.0586378574371338
80	345.0430691242218	pulse	0	t		78.0	2.5	/experiments/knapen_AOT/AOT_stimuli/rescaled_final/1736_fw.mp4	0.0	395.48157000541687	
80	345.91822504997253	movie	1		222	78.0	2.5	/experiments/knapen_AOT/AOT_stimuli/rescaled_final/1736_fw.mp4	0.0	396.3567259311676	2.441864013671875
80	346.64165711402893	pulse	1	t		78.0	2.5	/experiments/knapen_AOT/AOT_stimuli/rescaled_final/1736_fw.mp4	0.0	397.080157995224	
80	348.2432041168213	pulse	1	t		78.0	2.5	/experiments/knapen_AOT/AOT_stimuli/rescaled_final/1736_fw.mp4	0.0	398.68170499801636	
80	348.3600890636444	fix_post	2		12	78.0	2.5	/experiments/knapen_AOT/AOT_stimuli/rescaled_final/1736_fw.mp4	0.0	398.7985899448395	0.09999704360961914
81	348.460086107254	fix_pre	0		120	79.0	2.5	/experiments/knapen_AOT/AOT_stimuli/rescaled_final/0172_rv.mp4	0.0	398.8985869884491	1.0501880645751953
81	349.5102741718292	movie	1		252	79.0	2.5	/experiments/knapen_AOT/AOT_stimuli/rescaled_final/0172_rv.mp4	0.0	399.9487750530243	2.4503679275512695
81	349.84213519096375	pulse	1	t		79.0	2.5	/experiments/knapen_AOT/AOT_stimuli/rescaled_final/0172_rv.mp4	0.0	400.2806360721588	
81	351.4425799846649	pulse	1	t		79.0	2.5	/experiments/knapen_AOT/AOT_stimuli/rescaled_final/0172_rv.mp4	0.0	401.88108086586	
81	351.9606420993805	fix_post	2		12	79.0	2.5	/experiments/knapen_AOT/AOT_stimuli/rescaled_final/0172_rv.mp4	0.0	402.39914298057556	0.09992289543151855
82	352.060564994812	fix_pre	0		119	80.0	2.5	/experiments/knapen_AOT/AOT_stimuli/rescaled_final/0750_fw.mp4	0.0	402.4990658760071	1.0919840335845947
82	353.0442850589752	pulse	0	t		80.0	2.5	/experiments/knapen_AOT/AOT_stimuli/rescaled_final/0750_fw.mp4	0.0	403.4827859401703	
82	353.1525490283966	movie	1		258	80.0	2.5	/experiments/knapen_AOT/AOT_stimuli/rescaled_final/0750_fw.mp4	0.0	403.5910499095917	2.408601999282837
82	354.64458417892456	pulse	1	t		80.0	2.5	/experiments/knapen_AOT/AOT_stimuli/rescaled_final/0750_fw.mp4	0.0	405.08308506011963	
82	355.56115102767944	fix_post	2		12	80.0	2.5	/experiments/knapen_AOT/AOT_stimuli/rescaled_final/0750_fw.mp4	0.0	405.9996519088745	0.10000014305114746
83	355.6611511707306	fix_pre	0		120	81.0	2.5	/experiments/knapen_AOT/AOT_stimuli/rescaled_final/0737_rv.mp4	0.0	406.09965205192566	1.075307846069336
83	356.2448401451111	pulse	0	t		81.0	2.5	/experiments/knapen_AOT/AOT_stimuli/rescaled_final/0737_rv.mp4	0.0	406.68334102630615	
83	356.7364590167999	movie	1		245	81.0	2.5	/experiments/knapen_AOT/AOT_stimuli/rescaled_final/0737_rv.mp4	0.0	407.174959897995	2.4252500534057617
83	357.8433270454407	pulse	1	t		81.0	2.5	/experiments/knapen_AOT/AOT_stimuli/rescaled_final/0737_rv.mp4	0.0	408.28182792663574	
83	359.1617090702057	fix_post	2		12	81.0	2.5	/experiments/knapen_AOT/AOT_stimuli/rescaled_final/0737_rv.mp4	0.0	409.60020995140076	0.10001802444458008
84	359.26172709465027	fix_pre	0		120	82.0	2.5	/experiments/knapen_AOT/AOT_stimuli/rescaled_final/1609_rv.mp4	0.0	409.70022797584534	1.0669000148773193
84	359.44523000717163	pulse	0	t		82.0	2.5	/experiments/knapen_AOT/AOT_stimuli/rescaled_final/1609_rv.mp4	0.0	409.8837308883667	
84	360.3286271095276	movie	1		233	82.0	2.5	/experiments/knapen_AOT/AOT_stimuli/rescaled_final/1609_rv.mp4	0.0	410.76712799072266	2.433595895767212
84	361.0456039905548	pulse	1	t		82.0	2.5	/experiments/knapen_AOT/AOT_stimuli/rescaled_final/1609_rv.mp4	0.0	411.4841048717499	
84	362.64399313926697	pulse	1	t		82.0	2.5	/experiments/knapen_AOT/AOT_stimuli/rescaled_final/1609_rv.mp4	0.0	413.08249402046204	
84	362.7622230052948	fix_post	2		12	82.0	2.5	/experiments/knapen_AOT/AOT_stimuli/rescaled_final/1609_rv.mp4	0.0	413.20072388648987	0.09999918937683105
85	362.86222219467163	fix_pre	0		120	83.0	2.5	blank	1.0	413.3007230758667	1.000175952911377
85	363.862398147583	movie	1		299	83.0	2.5	blank	1.0	414.3008990287781	2.492025852203369
85	364.2460792064667	pulse	1	t		83.0	2.5	blank	1.0	414.68458008766174	
85	365.8462941646576	pulse	1	t		83.0	2.5	blank	1.0	416.28479504585266	
85	366.3544239997864	fix_post	2		12	83.0	2.5	blank	1.0	416.79292488098145	0.10001015663146973
87	366.45443415641785	stim	0		1716					416.8929350376129	14.302263975143433
87	367.4463801383972	pulse	0	t						417.8848810195923	
87	369.04675221443176	pulse	0	t						419.48525309562683	
87	370.6470031738281	pulse	0	t						421.0855040550232	
87	372.2398371696472	pulse	0	t						422.6783380508423	
87	373.8401131629944	pulse	0	t						424.27861404418945	
87	375.44019412994385	pulse	0	t						425.8786950111389	
87	377.04045510292053	pulse	0	t						427.4789559841156	
87	378.6408271789551	pulse	0	t						429.07932806015015	
87	380.24012303352356	pulse	0	t						430.6786239147186	
