trial_nr	onset	event_type	phase	response	nr_frames	movie_index	movie_duration	movie_file	blank	onset_abs	duration
0	0.20828890800476074	stim	0		131					26.291393995285034	1.0916919708251953
0	1.2920079231262207	response	0	space						27.375113010406494	
1	1.299980878829956	stim	0		4735					27.38308596611023	39.47426700592041
1	40.76462507247925	pulse	0	t						66.84773015975952	
1	40.774247884750366	stim	1		1716					66.85735297203064	14.300494194030762
1	42.35633587837219	pulse	1	t						68.43944096565247	
1	43.956640005111694	pulse	1	t						70.03974509239197	
1	45.55682587623596	pulse	1	t						71.63993096351624	
1	47.15701484680176	pulse	1	t						73.24011993408203	
1	48.757354974746704	pulse	1	t						74.84046006202698	
1	50.357434034347534	pulse	1	t						76.44053912162781	
1	51.95779585838318	pulse	1	t						78.04090094566345	
1	53.55791902542114	pulse	1	t						79.64102411270142	
2	55.07474207878113	fix_pre	0		11	0.0	2.5	/experiments/knapen_AOT/AOT_stimuli/rescaled_final/1261_fw.mp4	0.0	81.1578471660614	0.10008978843688965
2	55.15822196006775	pulse	0	t		0.0	2.5	/experiments/knapen_AOT/AOT_stimuli/rescaled_final/1261_fw.mp4	0.0	81.24132704734802	
2	55.17483186721802	movie	1		243	0.0	2.5	/experiments/knapen_AOT/AOT_stimuli/rescaled_final/1261_fw.mp4	0.0	81.25793695449829	2.500247001647949
2	56.762749910354614	pulse	1	t		0.0	2.5	/experiments/knapen_AOT/AOT_stimuli/rescaled_final/1261_fw.mp4	0.0	82.84585499763489	
2	57.67507886886597	fix_post	2		12	0.0	2.5	/experiments/knapen_AOT/AOT_stimuli/rescaled_final/1261_fw.mp4	0.0	83.75818395614624	0.09996819496154785
3	57.775047063827515	fix_pre	0		120	1.0	2.5	/experiments/knapen_AOT/AOT_stimuli/rescaled_final/0973_fw.mp4	0.0	83.85815215110779	1.0001449584960938
3	58.358728885650635	pulse	0	t		1.0	2.5	/experiments/knapen_AOT/AOT_stimuli/rescaled_final/0973_fw.mp4	0.0	84.44183397293091	
3	58.77519202232361	movie	1		244	1.0	2.5	/experiments/knapen_AOT/AOT_stimuli/rescaled_final/0973_fw.mp4	0.0	84.85829710960388	2.5004520416259766
3	59.95896100997925	pulse	1	t		1.0	2.5	/experiments/knapen_AOT/AOT_stimuli/rescaled_final/0973_fw.mp4	0.0	86.04206609725952	
3	61.275644063949585	fix_post	2		12	1.0	2.5	/experiments/knapen_AOT/AOT_stimuli/rescaled_final/0973_fw.mp4	0.0	87.35874915122986	0.09998679161071777
4	61.3756308555603	fix_pre	0		120	2.0	2.5	/experiments/knapen_AOT/AOT_stimuli/rescaled_final/1305_rv.mp4	0.0	87.45873594284058	1.0001351833343506
4	61.559130907058716	pulse	0	t		2.0	2.5	/experiments/knapen_AOT/AOT_stimuli/rescaled_final/1305_rv.mp4	0.0	87.64223599433899	
4	62.37576603889465	movie	1		244	2.0	2.5	/experiments/knapen_AOT/AOT_stimuli/rescaled_final/1305_rv.mp4	0.0	88.45887112617493	2.5003809928894043
4	63.15941095352173	pulse	1	t		2.0	2.5	/experiments/knapen_AOT/AOT_stimuli/rescaled_final/1305_rv.mp4	0.0	89.242516040802	
4	64.7596218585968	pulse	1	t		2.0	2.5	/experiments/knapen_AOT/AOT_stimuli/rescaled_final/1305_rv.mp4	0.0	90.84272694587708	
4	64.87614703178406	fix_post	2		12	2.0	2.5	/experiments/knapen_AOT/AOT_stimuli/rescaled_final/1305_rv.mp4	0.0	90.95925211906433	0.09996294975280762
5	64.97610998153687	fix_pre	0		120	3.0	2.5	/experiments/knapen_AOT/AOT_stimuli/rescaled_final/2062_fw.mp4	0.0	91.05921506881714	1.000187873840332
5	65.9762978553772	movie	1		243	3.0	2.5	/experiments/knapen_AOT/AOT_stimuli/rescaled_final/2062_fw.mp4	0.0	92.05940294265747	2.4920852184295654
5	66.36038303375244	pulse	1	t		3.0	2.5	/experiments/knapen_AOT/AOT_stimuli/rescaled_final/2062_fw.mp4	0.0	92.44348812103271	
5	67.96009707450867	pulse	1	t		3.0	2.5	/experiments/knapen_AOT/AOT_stimuli/rescaled_final/2062_fw.mp4	0.0	94.04320216178894	
5	68.46838307380676	fix_post	2		12	3.0	2.5	/experiments/knapen_AOT/AOT_stimuli/rescaled_final/2062_fw.mp4	0.0	94.55148816108704	0.09997391700744629
6	68.56835699081421	fix_pre	0		120	4.0	2.5	/experiments/knapen_AOT/AOT_stimuli/rescaled_final/1125_fw.mp4	0.0	94.65146207809448	1.0001699924468994
6	69.56036686897278	pulse	0	t		4.0	2.5	/experiments/knapen_AOT/AOT_stimuli/rescaled_final/1125_fw.mp4	0.0	95.64347195625305	
6	69.56852698326111	movie	1		246	4.0	2.5	/experiments/knapen_AOT/AOT_stimuli/rescaled_final/1125_fw.mp4	0.0	95.65163207054138	2.5086920261383057
6	71.16113805770874	pulse	1	t		4.0	2.5	/experiments/knapen_AOT/AOT_stimuli/rescaled_final/1125_fw.mp4	0.0	97.24424314498901	
6	72.07721900939941	fix_post	2		12	4.0	2.5	/experiments/knapen_AOT/AOT_stimuli/rescaled_final/1125_fw.mp4	0.0	98.16032409667969	0.10002398490905762
7	72.17724299430847	fix_pre	0		120	5.0	2.5	/experiments/knapen_AOT/AOT_stimuli/rescaled_final/2087_rv.mp4	0.0	98.26034808158875	1.0002009868621826
7	72.76090598106384	pulse	0	t		5.0	2.5	/experiments/knapen_AOT/AOT_stimuli/rescaled_final/2087_rv.mp4	0.0	98.84401106834412	
7	73.17744398117065	movie	1		243	5.0	2.5	/experiments/knapen_AOT/AOT_stimuli/rescaled_final/2087_rv.mp4	0.0	99.26054906845093	2.5002689361572266
7	74.35686302185059	pulse	1	t		5.0	2.5	/experiments/knapen_AOT/AOT_stimuli/rescaled_final/2087_rv.mp4	0.0	100.43996810913086	
7	75.67771291732788	fix_post	2		12	5.0	2.5	/experiments/knapen_AOT/AOT_stimuli/rescaled_final/2087_rv.mp4	0.0	101.76081800460815	0.10003113746643066
8	75.77774405479431	fix_pre	0		120	6.0	2.5	/experiments/knapen_AOT/AOT_stimuli/rescaled_final/0014_fw.mp4	0.0	101.86084914207458	1.000190019607544
8	75.96138405799866	pulse	0	t		6.0	2.5	/experiments/knapen_AOT/AOT_stimuli/rescaled_final/0014_fw.mp4	0.0	102.04448914527893	
8	76.77793407440186	movie	1		244	6.0	2.5	/experiments/knapen_AOT/AOT_stimuli/rescaled_final/0014_fw.mp4	0.0	102.86103916168213	2.5003538131713867
8	77.55413103103638	pulse	1	t		6.0	2.5	/experiments/knapen_AOT/AOT_stimuli/rescaled_final/0014_fw.mp4	0.0	103.63723611831665	
8	79.16195893287659	pulse	1	t		6.0	2.5	/experiments/knapen_AOT/AOT_stimuli/rescaled_final/0014_fw.mp4	0.0	105.24506402015686	
8	79.27828788757324	fix_post	2		12	6.0	2.5	/experiments/knapen_AOT/AOT_stimuli/rescaled_final/0014_fw.mp4	0.0	105.36139297485352	0.10007214546203613
9	79.37836003303528	fix_pre	0		120	7.0	2.5	blank	1.0	105.46146512031555	1.0000660419464111
9	80.37842607498169	movie	1		299	7.0	2.5	blank	1.0	106.46153116226196	2.492065906524658
9	80.754469871521	pulse	1	t		7.0	2.5	blank	1.0	106.83757495880127	
9	82.35471487045288	pulse	1	t		7.0	2.5	blank	1.0	108.43781995773315	
9	82.87049198150635	fix_post	2		9	7.0	2.5	blank	1.0	108.95359706878662	0.09999299049377441
10	82.97048497200012	fix_pre	0		119	8.0	2.5	/experiments/knapen_AOT/AOT_stimuli/rescaled_final/0103_fw.mp4	0.0	109.0535900592804	0.9918239116668701
10	83.95420408248901	pulse	0	t		8.0	2.5	/experiments/knapen_AOT/AOT_stimuli/rescaled_final/0103_fw.mp4	0.0	110.03730916976929	
10	83.96230888366699	movie	1		245	8.0	2.5	/experiments/knapen_AOT/AOT_stimuli/rescaled_final/0103_fw.mp4	0.0	110.04541397094727	2.508726119995117
10	85.55513095855713	pulse	1	t		8.0	2.5	/experiments/knapen_AOT/AOT_stimuli/rescaled_final/0103_fw.mp4	0.0	111.6382360458374	
10	86.47103500366211	fix_post	2		12	8.0	2.5	/experiments/knapen_AOT/AOT_stimuli/rescaled_final/0103_fw.mp4	0.0	112.55414009094238	0.09996795654296875
11	86.57100296020508	fix_pre	0		120	9.0	2.5	/experiments/knapen_AOT/AOT_stimuli/rescaled_final/1555_rv.mp4	0.0	112.65410804748535	1.0001819133758545
11	87.15459895133972	pulse	0	t		9.0	2.5	/experiments/knapen_AOT/AOT_stimuli/rescaled_final/1555_rv.mp4	0.0	113.23770403862	
11	87.57118487358093	movie	1		245	9.0	2.5	/experiments/knapen_AOT/AOT_stimuli/rescaled_final/1555_rv.mp4	0.0	113.6542899608612	2.5005061626434326
11	88.75498390197754	pulse	1	t		9.0	2.5	/experiments/knapen_AOT/AOT_stimuli/rescaled_final/1555_rv.mp4	0.0	114.83808898925781	
11	90.07169103622437	fix_post	2		12	9.0	2.5	/experiments/knapen_AOT/AOT_stimuli/rescaled_final/1555_rv.mp4	0.0	116.15479612350464	0.09990096092224121
12	90.1715919971466	fix_pre	0		120	10.0	2.5	/experiments/knapen_AOT/AOT_stimuli/rescaled_final/1764_rv.mp4	0.0	116.25469708442688	1.0001349449157715
12	90.35508394241333	pulse	0	t		10.0	2.5	/experiments/knapen_AOT/AOT_stimuli/rescaled_final/1764_rv.mp4	0.0	116.4381890296936	
12	91.17172694206238	movie	1		244	10.0	2.5	/experiments/knapen_AOT/AOT_stimuli/rescaled_final/1764_rv.mp4	0.0	117.25483202934265	2.500369071960449
12	91.95542693138123	pulse	1	t		10.0	2.5	/experiments/knapen_AOT/AOT_stimuli/rescaled_final/1764_rv.mp4	0.0	118.0385320186615	
12	93.55575585365295	pulse	1	t		10.0	2.5	/experiments/knapen_AOT/AOT_stimuli/rescaled_final/1764_rv.mp4	0.0	119.63886094093323	
12	93.67209601402283	fix_post	2		12	10.0	2.5	/experiments/knapen_AOT/AOT_stimuli/rescaled_final/1764_rv.mp4	0.0	119.7552011013031	0.10000991821289062
13	93.77210593223572	fix_pre	0		120	11.0	2.5	/experiments/knapen_AOT/AOT_stimuli/rescaled_final/0100_rv.mp4	0.0	119.85521101951599	1.0001730918884277
13	94.77227902412415	movie	1		243	11.0	2.5	/experiments/knapen_AOT/AOT_stimuli/rescaled_final/0100_rv.mp4	0.0	120.85538411140442	2.491992950439453
13	95.15653204917908	pulse	1	t		11.0	2.5	/experiments/knapen_AOT/AOT_stimuli/rescaled_final/0100_rv.mp4	0.0	121.23963713645935	
13	96.75607705116272	pulse	1	t		11.0	2.5	/experiments/knapen_AOT/AOT_stimuli/rescaled_final/0100_rv.mp4	0.0	122.839182138443	
13	97.2642719745636	fix_post	2		12	11.0	2.5	/experiments/knapen_AOT/AOT_stimuli/rescaled_final/0100_rv.mp4	0.0	123.34737706184387	0.10001707077026367
14	97.36428904533386	fix_pre	0		120	12.0	2.5	/experiments/knapen_AOT/AOT_stimuli/rescaled_final/0275_rv.mp4	0.0	123.44739413261414	1.0001559257507324
14	98.35642385482788	pulse	0	t		12.0	2.5	/experiments/knapen_AOT/AOT_stimuli/rescaled_final/0275_rv.mp4	0.0	124.43952894210815	
14	98.3644449710846	movie	1		245	12.0	2.5	/experiments/knapen_AOT/AOT_stimuli/rescaled_final/0275_rv.mp4	0.0	124.44755005836487	2.5087220668792725
14	99.95800399780273	pulse	1	t		12.0	2.5	/experiments/knapen_AOT/AOT_stimuli/rescaled_final/0275_rv.mp4	0.0	126.04110908508301	
14	100.87316703796387	fix_post	2		12	12.0	2.5	/experiments/knapen_AOT/AOT_stimuli/rescaled_final/0275_rv.mp4	0.0	126.95627212524414	0.10000395774841309
15	100.97317099571228	fix_pre	0		120	13.0	2.5	/experiments/knapen_AOT/AOT_stimuli/rescaled_final/0700_rv.mp4	0.0	127.05627608299255	1.0001919269561768
15	101.55676794052124	pulse	0	t		13.0	2.5	/experiments/knapen_AOT/AOT_stimuli/rescaled_final/0700_rv.mp4	0.0	127.63987302780151	
15	101.97336292266846	movie	1		244	13.0	2.5	/experiments/knapen_AOT/AOT_stimuli/rescaled_final/0700_rv.mp4	0.0	128.05646800994873	2.500309944152832
15	103.15709400177002	pulse	1	t		13.0	2.5	/experiments/knapen_AOT/AOT_stimuli/rescaled_final/0700_rv.mp4	0.0	129.2401990890503	
15	104.47367286682129	fix_post	2		12	13.0	2.5	/experiments/knapen_AOT/AOT_stimuli/rescaled_final/0700_rv.mp4	0.0	130.55677795410156	0.10006308555603027
16	104.57373595237732	fix_pre	0		120	14.0	2.5	blank	1.0	130.6568410396576	1.0001070499420166
16	104.75740504264832	pulse	0	t		14.0	2.5	blank	1.0	130.8405101299286	
16	105.57384300231934	movie	1		300	14.0	2.5	blank	1.0	131.6569480895996	2.5004348754882812
16	106.35761785507202	pulse	1	t		14.0	2.5	blank	1.0	132.4407229423523	
16	107.9577898979187	pulse	1	t		14.0	2.5	blank	1.0	134.04089498519897	
16	108.07427787780762	fix_post	2		12	14.0	2.5	blank	1.0	134.1573829650879	0.0999441146850586
17	108.17422199249268	fix_pre	0		120	15.0	2.5	/experiments/knapen_AOT/AOT_stimuli/rescaled_final/0342_fw.mp4	0.0	134.25732707977295	1.0001850128173828
17	109.17440700531006	movie	1		243	15.0	2.5	/experiments/knapen_AOT/AOT_stimuli/rescaled_final/0342_fw.mp4	0.0	135.25751209259033	2.4920690059661865
17	109.55992889404297	pulse	1	t		15.0	2.5	/experiments/knapen_AOT/AOT_stimuli/rescaled_final/0342_fw.mp4	0.0	135.64303398132324	
17	111.1582350730896	pulse	1	t		15.0	2.5	/experiments/knapen_AOT/AOT_stimuli/rescaled_final/0342_fw.mp4	0.0	137.24134016036987	
17	111.66647601127625	fix_post	2		12	15.0	2.5	/experiments/knapen_AOT/AOT_stimuli/rescaled_final/0342_fw.mp4	0.0	137.74958109855652	0.10001301765441895
18	111.76648902893066	fix_pre	0		120	16.0	2.5	/experiments/knapen_AOT/AOT_stimuli/rescaled_final/0983_fw.mp4	0.0	137.84959411621094	1.0001180171966553
18	112.75860905647278	pulse	0	t		16.0	2.5	/experiments/knapen_AOT/AOT_stimuli/rescaled_final/0983_fw.mp4	0.0	138.84171414375305	
18	112.76660704612732	movie	1		245	16.0	2.5	/experiments/knapen_AOT/AOT_stimuli/rescaled_final/0983_fw.mp4	0.0	138.8497121334076	2.508711814880371
18	114.36001706123352	pulse	1	t		16.0	2.5	/experiments/knapen_AOT/AOT_stimuli/rescaled_final/0983_fw.mp4	0.0	140.4431221485138	
18	115.27531886100769	fix_post	2		12	16.0	2.5	/experiments/knapen_AOT/AOT_stimuli/rescaled_final/0983_fw.mp4	0.0	141.35842394828796	0.09999918937683105
19	115.37531805038452	fix_pre	0		120	17.0	2.5	/experiments/knapen_AOT/AOT_stimuli/rescaled_final/1555_rv.mp4	0.0	141.4584231376648	1.0001938343048096
19	115.95891499519348	pulse	0	t		17.0	2.5	/experiments/knapen_AOT/AOT_stimuli/rescaled_final/1555_rv.mp4	0.0	142.04202008247375	
19	116.37551188468933	movie	1		244	17.0	2.5	/experiments/knapen_AOT/AOT_stimuli/rescaled_final/1555_rv.mp4	0.0	142.4586169719696	2.500343084335327
19	117.55936694145203	pulse	1	t		17.0	2.5	/experiments/knapen_AOT/AOT_stimuli/rescaled_final/1555_rv.mp4	0.0	143.6424720287323	
19	118.87585496902466	fix_post	2		12	17.0	2.5	/experiments/knapen_AOT/AOT_stimuli/rescaled_final/1555_rv.mp4	0.0	144.95896005630493	0.100006103515625
20	118.97586107254028	fix_pre	0		120	18.0	2.5	/experiments/knapen_AOT/AOT_stimuli/rescaled_final/0421_fw.mp4	0.0	145.05896615982056	1.000152826309204
20	119.15946388244629	pulse	0	t		18.0	2.5	/experiments/knapen_AOT/AOT_stimuli/rescaled_final/0421_fw.mp4	0.0	145.24256896972656	
20	119.97601389884949	movie	1		244	18.0	2.5	/experiments/knapen_AOT/AOT_stimuli/rescaled_final/0421_fw.mp4	0.0	146.05911898612976	2.5003881454467773
20	120.75977087020874	pulse	1	t		18.0	2.5	/experiments/knapen_AOT/AOT_stimuli/rescaled_final/0421_fw.mp4	0.0	146.842875957489	
20	122.36000204086304	pulse	1	t		18.0	2.5	/experiments/knapen_AOT/AOT_stimuli/rescaled_final/0421_fw.mp4	0.0	148.4431071281433	
20	122.47640204429626	fix_post	2		12	18.0	2.5	/experiments/knapen_AOT/AOT_stimuli/rescaled_final/0421_fw.mp4	0.0	148.55950713157654	0.09997892379760742
21	122.57638096809387	fix_pre	0		120	19.0	2.5	/experiments/knapen_AOT/AOT_stimuli/rescaled_final/0115_rv.mp4	0.0	148.65948605537415	1.000148057937622
21	123.5765290260315	movie	1		245	19.0	2.5	/experiments/knapen_AOT/AOT_stimuli/rescaled_final/0115_rv.mp4	0.0	149.65963411331177	2.4921019077301025
21	123.96444702148438	pulse	1	t		19.0	2.5	/experiments/knapen_AOT/AOT_stimuli/rescaled_final/0115_rv.mp4	0.0	150.04755210876465	
21	125.56053805351257	pulse	1	t		19.0	2.5	/experiments/knapen_AOT/AOT_stimuli/rescaled_final/0115_rv.mp4	0.0	151.64364314079285	
21	126.0686309337616	fix_post	2		12	19.0	2.5	/experiments/knapen_AOT/AOT_stimuli/rescaled_final/0115_rv.mp4	0.0	152.15173602104187	0.1000220775604248
22	126.16865301132202	fix_pre	0		120	20.0	2.5	blank	1.0	152.2517580986023	1.000201940536499
22	127.16073298454285	pulse	0	t		20.0	2.5	blank	1.0	153.24383807182312	
22	127.16885495185852	movie	1		301	20.0	2.5	blank	1.0	153.2519600391388	2.5086169242858887
22	128.75342893600464	pulse	1	t		20.0	2.5	blank	1.0	154.8365340232849	
22	129.6774718761444	fix_post	2		12	20.0	2.5	blank	1.0	155.76057696342468	0.1000211238861084
23	129.77749300003052	fix_pre	0		120	21.0	2.5	/experiments/knapen_AOT/AOT_stimuli/rescaled_final/1475_fw.mp4	0.0	155.8605980873108	1.0001099109649658
23	130.35367894172668	pulse	0	t		21.0	2.5	/experiments/knapen_AOT/AOT_stimuli/rescaled_final/1475_fw.mp4	0.0	156.43678402900696	
23	130.77760291099548	movie	1		245	21.0	2.5	/experiments/knapen_AOT/AOT_stimuli/rescaled_final/1475_fw.mp4	0.0	156.86070799827576	2.5003740787506104
23	131.96148991584778	pulse	1	t		21.0	2.5	/experiments/knapen_AOT/AOT_stimuli/rescaled_final/1475_fw.mp4	0.0	158.04459500312805	
23	133.2779769897461	fix_post	2		12	21.0	2.5	/experiments/knapen_AOT/AOT_stimuli/rescaled_final/1475_fw.mp4	0.0	159.36108207702637	0.10001301765441895
24	133.3779900074005	fix_pre	0		120	22.0	2.5	/experiments/knapen_AOT/AOT_stimuli/rescaled_final/1610_fw.mp4	0.0	159.4610950946808	1.0002388954162598
24	133.55416798591614	pulse	0	t		22.0	2.5	/experiments/knapen_AOT/AOT_stimuli/rescaled_final/1610_fw.mp4	0.0	159.6372730731964	
24	134.37822890281677	movie	1		243	22.0	2.5	/experiments/knapen_AOT/AOT_stimuli/rescaled_final/1610_fw.mp4	0.0	160.46133399009705	2.500420093536377
24	135.15437602996826	pulse	1	t		22.0	2.5	/experiments/knapen_AOT/AOT_stimuli/rescaled_final/1610_fw.mp4	0.0	161.23748111724854	
24	136.75383806228638	pulse	1	t		22.0	2.5	/experiments/knapen_AOT/AOT_stimuli/rescaled_final/1610_fw.mp4	0.0	162.83694314956665	
24	136.87864899635315	fix_post	2		12	22.0	2.5	/experiments/knapen_AOT/AOT_stimuli/rescaled_final/1610_fw.mp4	0.0	162.96175408363342	0.09989094734191895
25	136.97853994369507	fix_pre	0		120	23.0	2.5	/experiments/knapen_AOT/AOT_stimuli/rescaled_final/0273_fw.mp4	0.0	163.06164503097534	1.0001699924468994
25	137.97870993614197	movie	1		243	23.0	2.5	/experiments/knapen_AOT/AOT_stimuli/rescaled_final/0273_fw.mp4	0.0	164.06181502342224	2.492039918899536
25	138.35389304161072	pulse	1	t		23.0	2.5	/experiments/knapen_AOT/AOT_stimuli/rescaled_final/0273_fw.mp4	0.0	164.436998128891	
25	139.95422792434692	pulse	1	t		23.0	2.5	/experiments/knapen_AOT/AOT_stimuli/rescaled_final/0273_fw.mp4	0.0	166.0373330116272	
25	140.4707498550415	fix_post	2		12	23.0	2.5	/experiments/knapen_AOT/AOT_stimuli/rescaled_final/0273_fw.mp4	0.0	166.55385494232178	0.10000109672546387
26	140.57075095176697	fix_pre	0		119	24.0	2.5	/experiments/knapen_AOT/AOT_stimuli/rescaled_final/2087_fw.mp4	0.0	166.65385603904724	0.9917991161346436
26	141.5545220375061	pulse	0	t		24.0	2.5	/experiments/knapen_AOT/AOT_stimuli/rescaled_final/2087_fw.mp4	0.0	167.63762712478638	
26	141.5625500679016	movie	1		242	24.0	2.5	/experiments/knapen_AOT/AOT_stimuli/rescaled_final/2087_fw.mp4	0.0	167.64565515518188	2.5087578296661377
26	143.15832591056824	pulse	1	t		24.0	2.5	/experiments/knapen_AOT/AOT_stimuli/rescaled_final/2087_fw.mp4	0.0	169.2414309978485	
26	144.07130789756775	fix_post	2		12	24.0	2.5	/experiments/knapen_AOT/AOT_stimuli/rescaled_final/2087_fw.mp4	0.0	170.15441298484802	0.09997105598449707
27	144.17127895355225	fix_pre	0		120	25.0	2.5	/experiments/knapen_AOT/AOT_stimuli/rescaled_final/2131_rv.mp4	0.0	170.25438404083252	1.0001890659332275
27	144.75494194030762	pulse	0	t		25.0	2.5	/experiments/knapen_AOT/AOT_stimuli/rescaled_final/2131_rv.mp4	0.0	170.8380470275879	
27	145.17146801948547	movie	1		245	25.0	2.5	/experiments/knapen_AOT/AOT_stimuli/rescaled_final/2131_rv.mp4	0.0	171.25457310676575	2.500308036804199
27	146.35532784461975	pulse	1	t		25.0	2.5	/experiments/knapen_AOT/AOT_stimuli/rescaled_final/2131_rv.mp4	0.0	172.43843293190002	
27	147.67177605628967	fix_post	2		12	25.0	2.5	/experiments/knapen_AOT/AOT_stimuli/rescaled_final/2131_rv.mp4	0.0	173.75488114356995	0.1000528335571289
28	147.7718288898468	fix_pre	0		120	26.0	2.5	blank	1.0	173.85493397712708	1.0001211166381836
28	147.95538687705994	pulse	0	t		26.0	2.5	blank	1.0	174.0384919643402	
28	148.77195000648499	movie	1		300	26.0	2.5	blank	1.0	174.85505509376526	2.500408887863159
28	149.5557188987732	pulse	1	t		26.0	2.5	blank	1.0	175.63882398605347	
28	151.15586185455322	pulse	1	t		26.0	2.5	blank	1.0	177.2389669418335	
28	151.27235889434814	fix_post	2		12	26.0	2.5	blank	1.0	177.35546398162842	0.10005712509155273
29	151.3724160194397	fix_pre	0		120	27.0	2.5	/experiments/knapen_AOT/AOT_stimuli/rescaled_final/1233_fw.mp4	0.0	177.45552110671997	1.0001718997955322
29	152.37258791923523	movie	1		243	27.0	2.5	/experiments/knapen_AOT/AOT_stimuli/rescaled_final/1233_fw.mp4	0.0	178.4556930065155	2.491964101791382
29	152.7567880153656	pulse	1	t		27.0	2.5	/experiments/knapen_AOT/AOT_stimuli/rescaled_final/1233_fw.mp4	0.0	178.83989310264587	
29	154.35635685920715	pulse	1	t		27.0	2.5	/experiments/knapen_AOT/AOT_stimuli/rescaled_final/1233_fw.mp4	0.0	180.43946194648743	
29	154.8645520210266	fix_post	2		12	27.0	2.5	/experiments/knapen_AOT/AOT_stimuli/rescaled_final/1233_fw.mp4	0.0	180.94765710830688	0.09998297691345215
30	154.96453499794006	fix_pre	0		120	28.0	2.5	/experiments/knapen_AOT/AOT_stimuli/rescaled_final/0800_fw.mp4	0.0	181.04764008522034	1.0002079010009766
30	155.9566900730133	pulse	0	t		28.0	2.5	/experiments/knapen_AOT/AOT_stimuli/rescaled_final/0800_fw.mp4	0.0	182.03979516029358	
30	155.96474289894104	movie	1		246	28.0	2.5	/experiments/knapen_AOT/AOT_stimuli/rescaled_final/0800_fw.mp4	0.0	182.0478479862213	2.5087080001831055
30	157.55748987197876	pulse	1	t		28.0	2.5	/experiments/knapen_AOT/AOT_stimuli/rescaled_final/0800_fw.mp4	0.0	183.64059495925903	
30	158.47345089912415	fix_post	2		12	28.0	2.5	/experiments/knapen_AOT/AOT_stimuli/rescaled_final/0800_fw.mp4	0.0	184.55655598640442	0.09999895095825195
31	158.5734498500824	fix_pre	0		120	29.0	2.5	/experiments/knapen_AOT/AOT_stimuli/rescaled_final/1618_rv.mp4	0.0	184.65655493736267	1.000190019607544
31	159.1570188999176	pulse	0	t		29.0	2.5	/experiments/knapen_AOT/AOT_stimuli/rescaled_final/1618_rv.mp4	0.0	185.24012398719788	
31	159.57363986968994	movie	1		247	29.0	2.5	/experiments/knapen_AOT/AOT_stimuli/rescaled_final/1618_rv.mp4	0.0	185.65674495697021	2.500338077545166
31	160.75739097595215	pulse	1	t		29.0	2.5	/experiments/knapen_AOT/AOT_stimuli/rescaled_final/1618_rv.mp4	0.0	186.84049606323242	
31	162.0739779472351	fix_post	2		12	29.0	2.5	/experiments/knapen_AOT/AOT_stimuli/rescaled_final/1618_rv.mp4	0.0	188.15708303451538	0.10005402565002441
32	162.17403197288513	fix_pre	0		120	30.0	2.5	/experiments/knapen_AOT/AOT_stimuli/rescaled_final/1846_rv.mp4	0.0	188.2571370601654	1.0000770092010498
32	162.35767889022827	pulse	0	t		30.0	2.5	/experiments/knapen_AOT/AOT_stimuli/rescaled_final/1846_rv.mp4	0.0	188.44078397750854	
32	163.17410898208618	movie	1		244	30.0	2.5	/experiments/knapen_AOT/AOT_stimuli/rescaled_final/1846_rv.mp4	0.0	189.25721406936646	2.500452995300293
32	163.95785188674927	pulse	1	t		30.0	2.5	/experiments/knapen_AOT/AOT_stimuli/rescaled_final/1846_rv.mp4	0.0	190.04095697402954	
32	165.55815291404724	pulse	1	t		30.0	2.5	/experiments/knapen_AOT/AOT_stimuli/rescaled_final/1846_rv.mp4	0.0	191.64125800132751	
32	165.67456197738647	fix_post	2		12	30.0	2.5	/experiments/knapen_AOT/AOT_stimuli/rescaled_final/1846_rv.mp4	0.0	191.75766706466675	0.09990191459655762
33	165.77446389198303	fix_pre	0		120	31.0	2.5	/experiments/knapen_AOT/AOT_stimuli/rescaled_final/1453_fw.mp4	0.0	191.8575689792633	1.0002269744873047
33	166.77469086647034	movie	1		243	31.0	2.5	/experiments/knapen_AOT/AOT_stimuli/rescaled_final/1453_fw.mp4	0.0	192.8577959537506	2.49204421043396
33	167.16054105758667	pulse	1	t		31.0	2.5	/experiments/knapen_AOT/AOT_stimuli/rescaled_final/1453_fw.mp4	0.0	193.24364614486694	
33	168.75849199295044	pulse	1	t		31.0	2.5	/experiments/knapen_AOT/AOT_stimuli/rescaled_final/1453_fw.mp4	0.0	194.8415970802307	
33	169.2667350769043	fix_post	2		12	31.0	2.5	/experiments/knapen_AOT/AOT_stimuli/rescaled_final/1453_fw.mp4	0.0	195.34984016418457	0.09997081756591797
34	169.36670589447021	fix_pre	0		120	32.0	2.5	/experiments/knapen_AOT/AOT_stimuli/rescaled_final/1834_fw.mp4	0.0	195.4498109817505	1.0001440048217773
34	170.3588149547577	pulse	0	t		32.0	2.5	/experiments/knapen_AOT/AOT_stimuli/rescaled_final/1834_fw.mp4	0.0	196.44192004203796	
34	170.366849899292	movie	1		245	32.0	2.5	/experiments/knapen_AOT/AOT_stimuli/rescaled_final/1834_fw.mp4	0.0	196.44995498657227	2.508761167526245
34	171.96029496192932	pulse	1	t		32.0	2.5	/experiments/knapen_AOT/AOT_stimuli/rescaled_final/1834_fw.mp4	0.0	198.0434000492096	
34	172.87561106681824	fix_post	2		12	32.0	2.5	/experiments/knapen_AOT/AOT_stimuli/rescaled_final/1834_fw.mp4	0.0	198.9587161540985	0.09997677803039551
35	172.97558784484863	fix_pre	0		120	33.0	2.5	/experiments/knapen_AOT/AOT_stimuli/rescaled_final/0453_rv.mp4	0.0	199.0586929321289	1.0001471042633057
35	173.5592269897461	pulse	0	t		33.0	2.5	/experiments/knapen_AOT/AOT_stimuli/rescaled_final/0453_rv.mp4	0.0	199.64233207702637	
35	173.97573494911194	movie	1		245	33.0	2.5	/experiments/knapen_AOT/AOT_stimuli/rescaled_final/0453_rv.mp4	0.0	200.0588400363922	2.5003840923309326
35	175.15962886810303	pulse	1	t		33.0	2.5	/experiments/knapen_AOT/AOT_stimuli/rescaled_final/0453_rv.mp4	0.0	201.2427339553833	
35	176.47611904144287	fix_post	2		12	33.0	2.5	/experiments/knapen_AOT/AOT_stimuli/rescaled_final/0453_rv.mp4	0.0	202.55922412872314	0.09998893737792969
36	176.5761079788208	fix_pre	0		120	34.0	2.5	blank	1.0	202.65921306610107	1.000140905380249
36	176.75976085662842	pulse	0	t		34.0	2.5	blank	1.0	202.8428659439087	
36	177.57624888420105	movie	1		300	34.0	2.5	blank	1.0	203.65935397148132	2.5004100799560547
36	178.35993790626526	pulse	1	t		34.0	2.5	blank	1.0	204.44304299354553	
36	179.96011185646057	pulse	1	t		34.0	2.5	blank	1.0	206.04321694374084	
36	180.0766589641571	fix_post	2		12	34.0	2.5	blank	1.0	206.15976405143738	0.10000205039978027
37	180.17666101455688	fix_pre	0		120	35.0	2.5	/experiments/knapen_AOT/AOT_stimuli/rescaled_final/1698_rv.mp4	0.0	206.25976610183716	1.0001308917999268
37	181.1767919063568	movie	1		244	35.0	2.5	/experiments/knapen_AOT/AOT_stimuli/rescaled_final/1698_rv.mp4	0.0	207.25989699363708	2.492072105407715
37	181.56113600730896	pulse	1	t		35.0	2.5	/experiments/knapen_AOT/AOT_stimuli/rescaled_final/1698_rv.mp4	0.0	207.64424109458923	
37	183.16063284873962	pulse	1	t		35.0	2.5	/experiments/knapen_AOT/AOT_stimuli/rescaled_final/1698_rv.mp4	0.0	209.2437379360199	
37	183.66886401176453	fix_post	2		12	35.0	2.5	/experiments/knapen_AOT/AOT_stimuli/rescaled_final/1698_rv.mp4	0.0	209.7519690990448	0.09996604919433594
38	183.76883006095886	fix_pre	0		120	36.0	2.5	/experiments/knapen_AOT/AOT_stimuli/rescaled_final/0612_fw.mp4	0.0	209.85193514823914	1.0002009868621826
38	184.76089096069336	pulse	0	t		36.0	2.5	/experiments/knapen_AOT/AOT_stimuli/rescaled_final/0612_fw.mp4	0.0	210.84399604797363	
38	184.76903104782104	movie	1		245	36.0	2.5	/experiments/knapen_AOT/AOT_stimuli/rescaled_final/0612_fw.mp4	0.0	210.85213613510132	2.5086798667907715
38	186.3617079257965	pulse	1	t		36.0	2.5	/experiments/knapen_AOT/AOT_stimuli/rescaled_final/0612_fw.mp4	0.0	212.44481301307678	
38	187.27771091461182	fix_post	2		12	36.0	2.5	/experiments/knapen_AOT/AOT_stimuli/rescaled_final/0612_fw.mp4	0.0	213.3608160018921	0.10003495216369629
39	187.3777458667755	fix_pre	0		120	37.0	2.5	/experiments/knapen_AOT/AOT_stimuli/rescaled_final/1436_rv.mp4	0.0	213.4608509540558	1.0000991821289062
39	187.96143198013306	pulse	0	t		37.0	2.5	/experiments/knapen_AOT/AOT_stimuli/rescaled_final/1436_rv.mp4	0.0	214.04453706741333	
39	188.37784504890442	movie	1		246	37.0	2.5	/experiments/knapen_AOT/AOT_stimuli/rescaled_final/1436_rv.mp4	0.0	214.4609501361847	2.5004169940948486
39	189.56175684928894	pulse	1	t		37.0	2.5	/experiments/knapen_AOT/AOT_stimuli/rescaled_final/1436_rv.mp4	0.0	215.6448619365692	
39	190.87826204299927	fix_post	2		12	37.0	2.5	/experiments/knapen_AOT/AOT_stimuli/rescaled_final/1436_rv.mp4	0.0	216.96136713027954	0.09998488426208496
40	190.97824692726135	fix_pre	0		120	38.0	2.5	/experiments/knapen_AOT/AOT_stimuli/rescaled_final/1150_fw.mp4	0.0	217.06135201454163	1.0001780986785889
40	191.15427207946777	pulse	0	t		38.0	2.5	/experiments/knapen_AOT/AOT_stimuli/rescaled_final/1150_fw.mp4	0.0	217.23737716674805	
40	191.97842502593994	movie	1		245	38.0	2.5	/experiments/knapen_AOT/AOT_stimuli/rescaled_final/1150_fw.mp4	0.0	218.06153011322021	2.500330924987793
40	192.75477004051208	pulse	1	t		38.0	2.5	/experiments/knapen_AOT/AOT_stimuli/rescaled_final/1150_fw.mp4	0.0	218.83787512779236	
40	194.3549108505249	pulse	1	t		38.0	2.5	/experiments/knapen_AOT/AOT_stimuli/rescaled_final/1150_fw.mp4	0.0	220.43801593780518	
40	194.47875595092773	fix_post	2		12	38.0	2.5	/experiments/knapen_AOT/AOT_stimuli/rescaled_final/1150_fw.mp4	0.0	220.561861038208	0.10004210472106934
41	194.5787980556488	fix_pre	0		120	39.0	2.5	/experiments/knapen_AOT/AOT_stimuli/rescaled_final/1584_fw.mp4	0.0	220.66190314292908	1.0001518726348877
41	195.5789499282837	movie	1		244	39.0	2.5	/experiments/knapen_AOT/AOT_stimuli/rescaled_final/1584_fw.mp4	0.0	221.66205501556396	2.492079019546509
41	195.963063955307	pulse	1	t		39.0	2.5	/experiments/knapen_AOT/AOT_stimuli/rescaled_final/1584_fw.mp4	0.0	222.04616904258728	
41	197.55455803871155	pulse	1	t		39.0	2.5	/experiments/knapen_AOT/AOT_stimuli/rescaled_final/1584_fw.mp4	0.0	223.63766312599182	
41	198.0710289478302	fix_post	2		12	39.0	2.5	/experiments/knapen_AOT/AOT_stimuli/rescaled_final/1584_fw.mp4	0.0	224.15413403511047	0.09996294975280762
42	198.170991897583	fix_pre	0		119	40.0	2.5	/experiments/knapen_AOT/AOT_stimuli/rescaled_final/1627_rv.mp4	0.0	224.25409698486328	0.991826057434082
42	199.1546139717102	pulse	0	t		40.0	2.5	/experiments/knapen_AOT/AOT_stimuli/rescaled_final/1627_rv.mp4	0.0	225.23771905899048	
42	199.1628179550171	movie	1		245	40.0	2.5	/experiments/knapen_AOT/AOT_stimuli/rescaled_final/1627_rv.mp4	0.0	225.24592304229736	2.5087199211120605
42	200.7592489719391	pulse	1	t		40.0	2.5	/experiments/knapen_AOT/AOT_stimuli/rescaled_final/1627_rv.mp4	0.0	226.84235405921936	
42	201.67153787612915	fix_post	2		10	40.0	2.5	/experiments/knapen_AOT/AOT_stimuli/rescaled_final/1627_rv.mp4	0.0	227.75464296340942	0.1000220775604248
43	201.77155995368958	fix_pre	0		120	41.0	2.5	blank	1.0	227.85466504096985	1.0001220703125
43	202.35521292686462	pulse	0	t		41.0	2.5	blank	1.0	228.4383180141449	
43	202.77168202400208	movie	1		300	41.0	2.5	blank	1.0	228.85478711128235	2.5003879070281982
43	203.95554494857788	pulse	1	t		41.0	2.5	blank	1.0	230.03865003585815	
43	205.27206993103027	fix_post	2		12	41.0	2.5	blank	1.0	231.35517501831055	0.10000991821289062
44	205.37207984924316	fix_pre	0		120	42.0	2.5	/experiments/knapen_AOT/AOT_stimuli/rescaled_final/1585_fw.mp4	0.0	231.45518493652344	1.0001652240753174
44	205.55568194389343	pulse	0	t		42.0	2.5	/experiments/knapen_AOT/AOT_stimuli/rescaled_final/1585_fw.mp4	0.0	231.6387870311737	
44	206.37224507331848	movie	1		245	42.0	2.5	/experiments/knapen_AOT/AOT_stimuli/rescaled_final/1585_fw.mp4	0.0	232.45535016059875	2.500375986099243
44	207.15585494041443	pulse	1	t		42.0	2.5	/experiments/knapen_AOT/AOT_stimuli/rescaled_final/1585_fw.mp4	0.0	233.2389600276947	
44	208.75377702713013	pulse	1	t		42.0	2.5	/experiments/knapen_AOT/AOT_stimuli/rescaled_final/1585_fw.mp4	0.0	234.8368821144104	
44	208.87262105941772	fix_post	2		12	42.0	2.5	/experiments/knapen_AOT/AOT_stimuli/rescaled_final/1585_fw.mp4	0.0	234.955726146698	0.09996390342712402
45	208.97258496284485	fix_pre	0		119	43.0	2.5	/experiments/knapen_AOT/AOT_stimuli/rescaled_final/1559_rv.mp4	0.0	235.05569005012512	0.991832971572876
45	209.96441793441772	movie	1		244	43.0	2.5	/experiments/knapen_AOT/AOT_stimuli/rescaled_final/1559_rv.mp4	0.0	236.047523021698	2.500386953353882
45	210.35645604133606	pulse	1	t		43.0	2.5	/experiments/knapen_AOT/AOT_stimuli/rescaled_final/1559_rv.mp4	0.0	236.43956112861633	
45	211.95669388771057	pulse	1	t		43.0	2.5	/experiments/knapen_AOT/AOT_stimuli/rescaled_final/1559_rv.mp4	0.0	238.03979897499084	
45	212.4648048877716	fix_post	2		12	43.0	2.5	/experiments/knapen_AOT/AOT_stimuli/rescaled_final/1559_rv.mp4	0.0	238.54790997505188	0.10001397132873535
46	212.56481885910034	fix_pre	0		120	44.0	2.5	/experiments/knapen_AOT/AOT_stimuli/rescaled_final/1609_rv.mp4	0.0	238.64792394638062	1.0001411437988281
46	213.55689597129822	pulse	0	t		44.0	2.5	/experiments/knapen_AOT/AOT_stimuli/rescaled_final/1609_rv.mp4	0.0	239.6400010585785	
46	213.56496000289917	movie	1		245	44.0	2.5	/experiments/knapen_AOT/AOT_stimuli/rescaled_final/1609_rv.mp4	0.0	239.64806509017944	2.5087389945983887
46	215.15749788284302	pulse	1	t		44.0	2.5	/experiments/knapen_AOT/AOT_stimuli/rescaled_final/1609_rv.mp4	0.0	241.2406029701233	
46	216.07369899749756	fix_post	2		12	44.0	2.5	/experiments/knapen_AOT/AOT_stimuli/rescaled_final/1609_rv.mp4	0.0	242.15680408477783	0.09999895095825195
47	216.1736979484558	fix_pre	0		120	45.0	2.5	/experiments/knapen_AOT/AOT_stimuli/rescaled_final/0348_fw.mp4	0.0	242.25680303573608	1.0001909732818604
47	216.75740385055542	pulse	0	t		45.0	2.5	/experiments/knapen_AOT/AOT_stimuli/rescaled_final/0348_fw.mp4	0.0	242.8405089378357	
47	217.17388892173767	movie	1		244	45.0	2.5	/experiments/knapen_AOT/AOT_stimuli/rescaled_final/0348_fw.mp4	0.0	243.25699400901794	2.500324010848999
47	218.35766887664795	pulse	1	t		45.0	2.5	/experiments/knapen_AOT/AOT_stimuli/rescaled_final/0348_fw.mp4	0.0	244.44077396392822	
47	219.67421293258667	fix_post	2		12	45.0	2.5	/experiments/knapen_AOT/AOT_stimuli/rescaled_final/0348_fw.mp4	0.0	245.75731801986694	0.10002708435058594
48	219.77424001693726	fix_pre	0		120	46.0	2.5	/experiments/knapen_AOT/AOT_stimuli/rescaled_final/1158_fw.mp4	0.0	245.85734510421753	1.0001659393310547
48	219.95775890350342	pulse	0	t		46.0	2.5	/experiments/knapen_AOT/AOT_stimuli/rescaled_final/1158_fw.mp4	0.0	246.0408639907837	
48	220.7744059562683	movie	1		245	46.0	2.5	/experiments/knapen_AOT/AOT_stimuli/rescaled_final/1158_fw.mp4	0.0	246.85751104354858	2.5003440380096436
48	221.55800485610962	pulse	1	t		46.0	2.5	/experiments/knapen_AOT/AOT_stimuli/rescaled_final/1158_fw.mp4	0.0	247.6411099433899	
48	223.15576100349426	pulse	1	t		46.0	2.5	/experiments/knapen_AOT/AOT_stimuli/rescaled_final/1158_fw.mp4	0.0	249.23886609077454	
48	223.27474999427795	fix_post	2		12	46.0	2.5	/experiments/knapen_AOT/AOT_stimuli/rescaled_final/1158_fw.mp4	0.0	249.35785508155823	0.09998703002929688
49	223.37473702430725	fix_pre	0		120	47.0	2.5	blank	1.0	249.45784211158752	1.0001578330993652
49	224.37489485740662	movie	1		299	47.0	2.5	blank	1.0	250.4579999446869	2.4920480251312256
49	224.7586019039154	pulse	1	t		47.0	2.5	blank	1.0	250.84170699119568	
49	226.35880303382874	pulse	1	t		47.0	2.5	blank	1.0	252.441908121109	
49	226.86694288253784	fix_post	2		12	47.0	2.5	blank	1.0	252.95004796981812	0.10001015663146973
50	226.9669530391693	fix_pre	0		120	48.0	2.5	/experiments/knapen_AOT/AOT_stimuli/rescaled_final/1349_fw.mp4	0.0	253.05005812644958	1.0001888275146484
50	227.9589819908142	pulse	0	t		48.0	2.5	/experiments/knapen_AOT/AOT_stimuli/rescaled_final/1349_fw.mp4	0.0	254.04208707809448	
50	227.96714186668396	movie	1		247	48.0	2.5	/experiments/knapen_AOT/AOT_stimuli/rescaled_final/1349_fw.mp4	0.0	254.05024695396423	2.5086491107940674
50	229.55980396270752	pulse	1	t		48.0	2.5	/experiments/knapen_AOT/AOT_stimuli/rescaled_final/1349_fw.mp4	0.0	255.6429090499878	
50	230.47579097747803	fix_post	2		12	48.0	2.5	/experiments/knapen_AOT/AOT_stimuli/rescaled_final/1349_fw.mp4	0.0	256.5588960647583	0.10009288787841797
51	230.57588386535645	fix_pre	0		120	49.0	2.5	/experiments/knapen_AOT/AOT_stimuli/rescaled_final/1278_rv.mp4	0.0	256.6589889526367	1.0001220703125
51	231.15944004058838	pulse	0	t		49.0	2.5	/experiments/knapen_AOT/AOT_stimuli/rescaled_final/1278_rv.mp4	0.0	257.24254512786865	
51	231.57600593566895	movie	1		245	49.0	2.5	/experiments/knapen_AOT/AOT_stimuli/rescaled_final/1278_rv.mp4	0.0	257.6591110229492	2.500411033630371
51	232.75976705551147	pulse	1	t		49.0	2.5	/experiments/knapen_AOT/AOT_stimuli/rescaled_final/1278_rv.mp4	0.0	258.84287214279175	
51	234.07641696929932	fix_post	2		12	49.0	2.5	/experiments/knapen_AOT/AOT_stimuli/rescaled_final/1278_rv.mp4	0.0	260.1595220565796	0.09991598129272461
52	234.17633295059204	fix_pre	0		120	50.0	2.5	/experiments/knapen_AOT/AOT_stimuli/rescaled_final/1584_rv.mp4	0.0	260.2594380378723	1.0002210140228271
52	234.3599169254303	pulse	0	t		50.0	2.5	/experiments/knapen_AOT/AOT_stimuli/rescaled_final/1584_rv.mp4	0.0	260.44302201271057	
52	235.17655396461487	movie	1		245	50.0	2.5	/experiments/knapen_AOT/AOT_stimuli/rescaled_final/1584_rv.mp4	0.0	261.25965905189514	2.500356912612915
52	235.96012806892395	pulse	1	t		50.0	2.5	/experiments/knapen_AOT/AOT_stimuli/rescaled_final/1584_rv.mp4	0.0	262.0432331562042	
52	237.55803203582764	pulse	1	t		50.0	2.5	/experiments/knapen_AOT/AOT_stimuli/rescaled_final/1584_rv.mp4	0.0	263.6411371231079	
52	237.67691087722778	fix_post	2		12	50.0	2.5	/experiments/knapen_AOT/AOT_stimuli/rescaled_final/1584_rv.mp4	0.0	263.76001596450806	0.09997916221618652
53	237.77689003944397	fix_pre	0		120	51.0	2.5	/experiments/knapen_AOT/AOT_stimuli/rescaled_final/1640_rv.mp4	0.0	263.85999512672424	1.0001769065856934
53	238.77706694602966	movie	1		242	51.0	2.5	/experiments/knapen_AOT/AOT_stimuli/rescaled_final/1640_rv.mp4	0.0	264.86017203330994	2.4920740127563477
53	239.16117095947266	pulse	1	t		51.0	2.5	/experiments/knapen_AOT/AOT_stimuli/rescaled_final/1640_rv.mp4	0.0	265.24427604675293	
53	240.76094603538513	pulse	1	t		51.0	2.5	/experiments/knapen_AOT/AOT_stimuli/rescaled_final/1640_rv.mp4	0.0	266.8440511226654	
53	241.269140958786	fix_post	2		12	51.0	2.5	/experiments/knapen_AOT/AOT_stimuli/rescaled_final/1640_rv.mp4	0.0	267.3522460460663	0.09993290901184082
54	241.36907386779785	fix_pre	0		120	52.0	2.5	/experiments/knapen_AOT/AOT_stimuli/rescaled_final/0854_fw.mp4	0.0	267.4521789550781	1.0002071857452393
54	242.3611080646515	pulse	0	t		52.0	2.5	/experiments/knapen_AOT/AOT_stimuli/rescaled_final/0854_fw.mp4	0.0	268.44421315193176	
54	242.3692810535431	movie	1		245	52.0	2.5	/experiments/knapen_AOT/AOT_stimuli/rescaled_final/0854_fw.mp4	0.0	268.45238614082336	2.508668899536133
54	243.9625039100647	pulse	1	t		52.0	2.5	/experiments/knapen_AOT/AOT_stimuli/rescaled_final/0854_fw.mp4	0.0	270.04560899734497	
54	244.87794995307922	fix_post	2		12	52.0	2.5	/experiments/knapen_AOT/AOT_stimuli/rescaled_final/0854_fw.mp4	0.0	270.9610550403595	0.1000370979309082
55	244.97798705101013	fix_pre	0		120	53.0	2.5	/experiments/knapen_AOT/AOT_stimuli/rescaled_final/0591_fw.mp4	0.0	271.0610921382904	1.0001428127288818
55	245.55402207374573	pulse	0	t		53.0	2.5	/experiments/knapen_AOT/AOT_stimuli/rescaled_final/0591_fw.mp4	0.0	271.637127161026	
55	245.978129863739	movie	1		244	53.0	2.5	/experiments/knapen_AOT/AOT_stimuli/rescaled_final/0591_fw.mp4	0.0	272.0612349510193	2.5003950595855713
55	247.1539659500122	pulse	1	t		53.0	2.5	/experiments/knapen_AOT/AOT_stimuli/rescaled_final/0591_fw.mp4	0.0	273.2370710372925	
55	248.47852492332458	fix_post	2		12	53.0	2.5	/experiments/knapen_AOT/AOT_stimuli/rescaled_final/0591_fw.mp4	0.0	274.56163001060486	0.09999203681945801
56	248.57851696014404	fix_pre	0		120	54.0	2.5	/experiments/knapen_AOT/AOT_stimuli/rescaled_final/0377_rv.mp4	0.0	274.6616220474243	1.0001649856567383
56	248.75473284721375	pulse	0	t		54.0	2.5	/experiments/knapen_AOT/AOT_stimuli/rescaled_final/0377_rv.mp4	0.0	274.837837934494	
56	249.57868194580078	movie	1		245	54.0	2.5	/experiments/knapen_AOT/AOT_stimuli/rescaled_final/0377_rv.mp4	0.0	275.66178703308105	2.50040602684021
56	250.35415601730347	pulse	1	t		54.0	2.5	/experiments/knapen_AOT/AOT_stimuli/rescaled_final/0377_rv.mp4	0.0	276.43726110458374	
56	251.95420289039612	pulse	1	t		54.0	2.5	/experiments/knapen_AOT/AOT_stimuli/rescaled_final/0377_rv.mp4	0.0	278.0373079776764	
56	252.079087972641	fix_post	2		12	54.0	2.5	/experiments/knapen_AOT/AOT_stimuli/rescaled_final/0377_rv.mp4	0.0	278.16219305992126	0.10001897811889648
57	252.1791069507599	fix_pre	0		119	55.0	2.5	blank	1.0	278.26221203804016	0.9917891025543213
57	253.1708960533142	movie	1		300	55.0	2.5	blank	1.0	279.2540011405945	2.500356912612915
57	253.55442190170288	pulse	1	t		55.0	2.5	blank	1.0	279.63752698898315	
57	255.15477991104126	pulse	1	t		55.0	2.5	blank	1.0	281.23788499832153	
57	255.67125296592712	fix_post	2		12	55.0	2.5	blank	1.0	281.7543580532074	0.09998011589050293
58	255.77123308181763	fix_pre	0		119	56.0	2.5	/experiments/knapen_AOT/AOT_stimuli/rescaled_final/1150_rv.mp4	0.0	281.8543381690979	0.9919109344482422
58	256.7549169063568	pulse	0	t		56.0	2.5	/experiments/knapen_AOT/AOT_stimuli/rescaled_final/1150_rv.mp4	0.0	282.8380219936371	
58	256.76314401626587	movie	1		245	56.0	2.5	/experiments/knapen_AOT/AOT_stimuli/rescaled_final/1150_rv.mp4	0.0	282.84624910354614	2.5086669921875
58	258.3559579849243	pulse	1	t		56.0	2.5	/experiments/knapen_AOT/AOT_stimuli/rescaled_final/1150_rv.mp4	0.0	284.4390630722046	
58	259.27181100845337	fix_post	2		12	56.0	2.5	/experiments/knapen_AOT/AOT_stimuli/rescaled_final/1150_rv.mp4	0.0	285.35491609573364	0.09998297691345215
59	259.3717939853668	fix_pre	0		120	57.0	2.5	/experiments/knapen_AOT/AOT_stimuli/rescaled_final/1781_fw.mp4	0.0	285.4548990726471	1.000140905380249
59	259.95541501045227	pulse	0	t		57.0	2.5	/experiments/knapen_AOT/AOT_stimuli/rescaled_final/1781_fw.mp4	0.0	286.03852009773254	
59	260.37193489074707	movie	1		242	57.0	2.5	/experiments/knapen_AOT/AOT_stimuli/rescaled_final/1781_fw.mp4	0.0	286.45503997802734	2.50039005279541
59	261.5558090209961	pulse	1	t		57.0	2.5	/experiments/knapen_AOT/AOT_stimuli/rescaled_final/1781_fw.mp4	0.0	287.63891410827637	
59	262.8723249435425	fix_post	2		12	57.0	2.5	/experiments/knapen_AOT/AOT_stimuli/rescaled_final/1781_fw.mp4	0.0	288.95543003082275	0.09999203681945801
60	262.97231698036194	fix_pre	0		120	58.0	2.5	/experiments/knapen_AOT/AOT_stimuli/rescaled_final/0503_rv.mp4	0.0	289.0554220676422	1.0001380443572998
60	263.15593099594116	pulse	0	t		58.0	2.5	/experiments/knapen_AOT/AOT_stimuli/rescaled_final/0503_rv.mp4	0.0	289.23903608322144	
60	263.97245502471924	movie	1		245	58.0	2.5	/experiments/knapen_AOT/AOT_stimuli/rescaled_final/0503_rv.mp4	0.0	290.0555601119995	2.5003669261932373
60	264.75618600845337	pulse	1	t		58.0	2.5	/experiments/knapen_AOT/AOT_stimuli/rescaled_final/0503_rv.mp4	0.0	290.83929109573364	
60	266.35420203208923	pulse	1	t		58.0	2.5	/experiments/knapen_AOT/AOT_stimuli/rescaled_final/0503_rv.mp4	0.0	292.4373071193695	
60	266.4728219509125	fix_post	2		12	58.0	2.5	/experiments/knapen_AOT/AOT_stimuli/rescaled_final/0503_rv.mp4	0.0	292.55592703819275	0.10004901885986328
61	266.57287096977234	fix_pre	0		120	59.0	2.5	/experiments/knapen_AOT/AOT_stimuli/rescaled_final/1802_rv.mp4	0.0	292.6559760570526	1.0001928806304932
61	267.57306385040283	movie	1		243	59.0	2.5	/experiments/knapen_AOT/AOT_stimuli/rescaled_final/1802_rv.mp4	0.0	293.6561689376831	2.492014169692993
61	267.96162486076355	pulse	1	t		59.0	2.5	/experiments/knapen_AOT/AOT_stimuli/rescaled_final/1802_rv.mp4	0.0	294.0447299480438	
61	269.5568449497223	pulse	1	t		59.0	2.5	/experiments/knapen_AOT/AOT_stimuli/rescaled_final/1802_rv.mp4	0.0	295.63995003700256	
61	270.0650780200958	fix_post	2		12	59.0	2.5	/experiments/knapen_AOT/AOT_stimuli/rescaled_final/1802_rv.mp4	0.0	296.1481831073761	0.10000395774841309
62	270.16508197784424	fix_pre	0		120	60.0	2.5	/experiments/knapen_AOT/AOT_stimuli/rescaled_final/2147_rv.mp4	0.0	296.2481870651245	1.0001440048217773
62	271.157026052475	pulse	0	t		60.0	2.5	/experiments/knapen_AOT/AOT_stimuli/rescaled_final/2147_rv.mp4	0.0	297.24013113975525	
62	271.165225982666	movie	1		246	60.0	2.5	/experiments/knapen_AOT/AOT_stimuli/rescaled_final/2147_rv.mp4	0.0	297.2483310699463	2.508725881576538
62	272.75816202163696	pulse	1	t		60.0	2.5	/experiments/knapen_AOT/AOT_stimuli/rescaled_final/2147_rv.mp4	0.0	298.84126710891724	
62	273.67395186424255	fix_post	2		12	60.0	2.5	/experiments/knapen_AOT/AOT_stimuli/rescaled_final/2147_rv.mp4	0.0	299.7570569515228	0.09999418258666992
63	273.7739460468292	fix_pre	0		120	61.0	2.5	/experiments/knapen_AOT/AOT_stimuli/rescaled_final/0083_fw.mp4	0.0	299.8570511341095	1.000121831893921
63	274.35759806632996	pulse	0	t		61.0	2.5	/experiments/knapen_AOT/AOT_stimuli/rescaled_final/0083_fw.mp4	0.0	300.44070315361023	
63	274.77406787872314	movie	1		244	61.0	2.5	/experiments/knapen_AOT/AOT_stimuli/rescaled_final/0083_fw.mp4	0.0	300.8571729660034	2.500455141067505
63	275.95796394348145	pulse	1	t		61.0	2.5	/experiments/knapen_AOT/AOT_stimuli/rescaled_final/0083_fw.mp4	0.0	302.0410690307617	
63	277.27452301979065	fix_post	2		12	61.0	2.5	/experiments/knapen_AOT/AOT_stimuli/rescaled_final/0083_fw.mp4	0.0	303.3576281070709	0.09995698928833008
64	277.374480009079	fix_pre	0		120	62.0	2.5	/experiments/knapen_AOT/AOT_stimuli/rescaled_final/1834_rv.mp4	0.0	303.45758509635925	1.0001318454742432
64	277.55799889564514	pulse	0	t		62.0	2.5	/experiments/knapen_AOT/AOT_stimuli/rescaled_final/1834_rv.mp4	0.0	303.6411039829254	
64	278.3746118545532	movie	1		244	62.0	2.5	/experiments/knapen_AOT/AOT_stimuli/rescaled_final/1834_rv.mp4	0.0	304.4577169418335	2.5004231929779053
64	279.1583490371704	pulse	1	t		62.0	2.5	/experiments/knapen_AOT/AOT_stimuli/rescaled_final/1834_rv.mp4	0.0	305.2414541244507	
64	280.7586660385132	pulse	1	t		62.0	2.5	/experiments/knapen_AOT/AOT_stimuli/rescaled_final/1834_rv.mp4	0.0	306.84177112579346	
64	280.8750350475311	fix_post	2		12	62.0	2.5	/experiments/knapen_AOT/AOT_stimuli/rescaled_final/1834_rv.mp4	0.0	306.9581401348114	0.09997200965881348
65	280.97500705718994	fix_pre	0		120	63.0	2.5	blank	1.0	307.0581121444702	1.0002288818359375
65	281.9752359390259	movie	1		299	63.0	2.5	blank	1.0	308.05834102630615	2.4920389652252197
65	282.3587429523468	pulse	1	t		63.0	2.5	blank	1.0	308.4418480396271	
65	283.9589538574219	pulse	1	t		63.0	2.5	blank	1.0	310.04205894470215	
65	284.4672749042511	fix_post	2		12	63.0	2.5	blank	1.0	310.5503799915314	0.09994316101074219
66	284.56721806526184	fix_pre	0		120	64.0	2.5	/experiments/knapen_AOT/AOT_stimuli/rescaled_final/2084_rv.mp4	0.0	310.6503231525421	1.0001819133758545
66	285.5593910217285	pulse	0	t		64.0	2.5	/experiments/knapen_AOT/AOT_stimuli/rescaled_final/2084_rv.mp4	0.0	311.6424961090088	
66	285.5673999786377	movie	1		245	64.0	2.5	/experiments/knapen_AOT/AOT_stimuli/rescaled_final/2084_rv.mp4	0.0	311.65050506591797	2.508711099624634
66	287.16082286834717	pulse	1	t		64.0	2.5	/experiments/knapen_AOT/AOT_stimuli/rescaled_final/2084_rv.mp4	0.0	313.24392795562744	
66	288.07611107826233	fix_post	2		12	64.0	2.5	/experiments/knapen_AOT/AOT_stimuli/rescaled_final/2084_rv.mp4	0.0	314.1592161655426	0.09996795654296875
67	288.1760790348053	fix_pre	0		120	65.0	2.5	/experiments/knapen_AOT/AOT_stimuli/rescaled_final/0786_rv.mp4	0.0	314.25918412208557	1.0002038478851318
67	288.75976395606995	pulse	0	t		65.0	2.5	/experiments/knapen_AOT/AOT_stimuli/rescaled_final/0786_rv.mp4	0.0	314.8428690433502	
67	289.17628288269043	movie	1		245	65.0	2.5	/experiments/knapen_AOT/AOT_stimuli/rescaled_final/0786_rv.mp4	0.0	315.2593879699707	2.5003671646118164
67	290.36007499694824	pulse	1	t		65.0	2.5	/experiments/knapen_AOT/AOT_stimuli/rescaled_final/0786_rv.mp4	0.0	316.4431800842285	
67	291.67665004730225	fix_post	2		12	65.0	2.5	/experiments/knapen_AOT/AOT_stimuli/rescaled_final/0786_rv.mp4	0.0	317.7597551345825	0.09996700286865234
68	291.7766170501709	fix_pre	0		120	66.0	2.5	/experiments/knapen_AOT/AOT_stimuli/rescaled_final/0089_fw.mp4	0.0	317.8597221374512	1.0001709461212158
68	291.96025586128235	pulse	0	t		66.0	2.5	/experiments/knapen_AOT/AOT_stimuli/rescaled_final/0089_fw.mp4	0.0	318.0433609485626	
68	292.7767879962921	movie	1		246	66.0	2.5	/experiments/knapen_AOT/AOT_stimuli/rescaled_final/0089_fw.mp4	0.0	318.8598930835724	2.5003600120544434
68	293.5605549812317	pulse	1	t		66.0	2.5	/experiments/knapen_AOT/AOT_stimuli/rescaled_final/0089_fw.mp4	0.0	319.64366006851196	
68	295.1607139110565	pulse	1	t		66.0	2.5	/experiments/knapen_AOT/AOT_stimuli/rescaled_final/0089_fw.mp4	0.0	321.2438189983368	
68	295.27714800834656	fix_post	2		12	66.0	2.5	/experiments/knapen_AOT/AOT_stimuli/rescaled_final/0089_fw.mp4	0.0	321.36025309562683	0.10002899169921875
69	295.3771770000458	fix_pre	0		120	67.0	2.5	/experiments/knapen_AOT/AOT_stimuli/rescaled_final/0089_rv.mp4	0.0	321.46028208732605	1.000175952911377
69	296.37735295295715	movie	1		243	67.0	2.5	/experiments/knapen_AOT/AOT_stimuli/rescaled_final/0089_rv.mp4	0.0	322.4604580402374	2.4920411109924316
69	296.7616410255432	pulse	1	t		67.0	2.5	/experiments/knapen_AOT/AOT_stimuli/rescaled_final/0089_rv.mp4	0.0	322.8447461128235	
69	298.36133790016174	pulse	1	t		67.0	2.5	/experiments/knapen_AOT/AOT_stimuli/rescaled_final/0089_rv.mp4	0.0	324.444442987442	
69	298.8693940639496	fix_post	2		12	67.0	2.5	/experiments/knapen_AOT/AOT_stimuli/rescaled_final/0089_rv.mp4	0.0	324.95249915122986	0.09997200965881348
70	298.9693660736084	fix_pre	0		120	68.0	2.5	blank	1.0	325.0524711608887	1.0001888275146484
70	299.95376801490784	pulse	0	t		68.0	2.5	blank	1.0	326.0368731021881	
70	299.96955490112305	movie	1		301	68.0	2.5	blank	1.0	326.0526599884033	2.508690118789673
70	301.55415201187134	pulse	1	t		68.0	2.5	blank	1.0	327.6372570991516	
70	302.4782450199127	fix_post	2		12	68.0	2.5	blank	1.0	328.561350107193	0.09997892379760742
71	302.5782239437103	fix_pre	0		120	69.0	2.5	/experiments/knapen_AOT/AOT_stimuli/rescaled_final/0489_fw.mp4	0.0	328.6613290309906	1.000175952911377
71	303.15425086021423	pulse	0	t		69.0	2.5	/experiments/knapen_AOT/AOT_stimuli/rescaled_final/0489_fw.mp4	0.0	329.2373559474945	
71	303.5783998966217	movie	1		245	69.0	2.5	/experiments/knapen_AOT/AOT_stimuli/rescaled_final/0489_fw.mp4	0.0	329.661504983902	2.50046706199646
71	304.7543020248413	pulse	1	t		69.0	2.5	/experiments/knapen_AOT/AOT_stimuli/rescaled_final/0489_fw.mp4	0.0	330.8374071121216	
71	306.07886695861816	fix_post	2		12	69.0	2.5	/experiments/knapen_AOT/AOT_stimuli/rescaled_final/0489_fw.mp4	0.0	332.16197204589844	0.09992003440856934
72	306.17878699302673	fix_pre	0		120	70.0	2.5	/experiments/knapen_AOT/AOT_stimuli/rescaled_final/0810_fw.mp4	0.0	332.261892080307	1.000148057937622
72	306.3538889884949	pulse	0	t		70.0	2.5	/experiments/knapen_AOT/AOT_stimuli/rescaled_final/0810_fw.mp4	0.0	332.43699407577515	
72	307.17893505096436	movie	1		245	70.0	2.5	/experiments/knapen_AOT/AOT_stimuli/rescaled_final/0810_fw.mp4	0.0	333.26204013824463	2.5003929138183594
72	307.9541940689087	pulse	1	t		70.0	2.5	/experiments/knapen_AOT/AOT_stimuli/rescaled_final/0810_fw.mp4	0.0	334.03729915618896	
72	309.554575920105	pulse	1	t		70.0	2.5	/experiments/knapen_AOT/AOT_stimuli/rescaled_final/0810_fw.mp4	0.0	335.63768100738525	
72	309.6793279647827	fix_post	2		12	70.0	2.5	/experiments/knapen_AOT/AOT_stimuli/rescaled_final/0810_fw.mp4	0.0	335.762433052063	0.09998703002929688
73	309.779314994812	fix_pre	0		120	71.0	2.5	/experiments/knapen_AOT/AOT_stimuli/rescaled_final/0248_fw.mp4	0.0	335.8624200820923	1.0001940727233887
73	310.7795090675354	movie	1		244	71.0	2.5	/experiments/knapen_AOT/AOT_stimuli/rescaled_final/0248_fw.mp4	0.0	336.8626141548157	2.492039918899536
73	311.15470004081726	pulse	1	t		71.0	2.5	/experiments/knapen_AOT/AOT_stimuli/rescaled_final/0248_fw.mp4	0.0	337.23780512809753	
73	312.7550640106201	pulse	1	t		71.0	2.5	/experiments/knapen_AOT/AOT_stimuli/rescaled_final/0248_fw.mp4	0.0	338.8381690979004	
73	313.27154898643494	fix_post	2		12	71.0	2.5	/experiments/knapen_AOT/AOT_stimuli/rescaled_final/0248_fw.mp4	0.0	339.3546540737152	0.09995603561401367
74	313.37150502204895	fix_pre	0		119	72.0	2.5	/experiments/knapen_AOT/AOT_stimuli/rescaled_final/1648_fw.mp4	0.0	339.4546101093292	0.9918830394744873
74	314.35522389411926	pulse	0	t		72.0	2.5	/experiments/knapen_AOT/AOT_stimuli/rescaled_final/1648_fw.mp4	0.0	340.43832898139954	
74	314.36338806152344	movie	1		245	72.0	2.5	/experiments/knapen_AOT/AOT_stimuli/rescaled_final/1648_fw.mp4	0.0	340.4464931488037	2.508668899536133
74	315.9559199810028	pulse	1	t		72.0	2.5	/experiments/knapen_AOT/AOT_stimuli/rescaled_final/1648_fw.mp4	0.0	342.0390250682831	
74	316.87205696105957	fix_post	2		12	72.0	2.5	/experiments/knapen_AOT/AOT_stimuli/rescaled_final/1648_fw.mp4	0.0	342.95516204833984	0.10000205039978027
75	316.97205901145935	fix_pre	0		120	73.0	2.5	/experiments/knapen_AOT/AOT_stimuli/rescaled_final/1304_rv.mp4	0.0	343.0551640987396	1.0001850128173828
75	317.55583000183105	pulse	0	t		73.0	2.5	/experiments/knapen_AOT/AOT_stimuli/rescaled_final/1304_rv.mp4	0.0	343.6389350891113	
75	317.97224402427673	movie	1		245	73.0	2.5	/experiments/knapen_AOT/AOT_stimuli/rescaled_final/1304_rv.mp4	0.0	344.055349111557	2.5003819465637207
75	319.1561288833618	pulse	1	t		73.0	2.5	/experiments/knapen_AOT/AOT_stimuli/rescaled_final/1304_rv.mp4	0.0	345.2392339706421	
75	320.47262597084045	fix_post	2		12	73.0	2.5	/experiments/knapen_AOT/AOT_stimuli/rescaled_final/1304_rv.mp4	0.0	346.5557310581207	0.10068488121032715
76	320.5733108520508	fix_pre	0		118	74.0	2.5	/experiments/knapen_AOT/AOT_stimuli/rescaled_final/0672_fw.mp4	0.0	346.65641593933105	0.9994521141052246
76	320.7561500072479	pulse	0	t		74.0	2.5	/experiments/knapen_AOT/AOT_stimuli/rescaled_final/0672_fw.mp4	0.0	346.8392550945282	
76	321.572762966156	movie	1		245	74.0	2.5	/experiments/knapen_AOT/AOT_stimuli/rescaled_final/0672_fw.mp4	0.0	347.6558680534363	2.500370979309082
76	322.3565218448639	pulse	1	t		74.0	2.5	/experiments/knapen_AOT/AOT_stimuli/rescaled_final/0672_fw.mp4	0.0	348.43962693214417	
76	323.95677495002747	pulse	1	t		74.0	2.5	/experiments/knapen_AOT/AOT_stimuli/rescaled_final/0672_fw.mp4	0.0	350.03988003730774	
76	324.0731339454651	fix_post	2		11	74.0	2.5	/experiments/knapen_AOT/AOT_stimuli/rescaled_final/0672_fw.mp4	0.0	350.15623903274536	0.09167003631591797
77	324.164803981781	fix_pre	0		121	75.0	2.5	blank	1.0	350.2479090690613	1.0084939002990723
77	325.1732978820801	movie	1		299	75.0	2.5	blank	1.0	351.25640296936035	2.492030143737793
77	325.5569009780884	pulse	1	t		75.0	2.5	blank	1.0	351.64000606536865	
77	327.15710401535034	pulse	1	t		75.0	2.5	blank	1.0	353.2402091026306	
77	327.66532802581787	fix_post	2		12	75.0	2.5	blank	1.0	353.74843311309814	0.09998703002929688
78	327.76531505584717	fix_pre	0		120	76.0	2.5	/experiments/knapen_AOT/AOT_stimuli/rescaled_final/1584_rv.mp4	0.0	353.84842014312744	1.0001988410949707
78	328.7574758529663	pulse	0	t		76.0	2.5	/experiments/knapen_AOT/AOT_stimuli/rescaled_final/1584_rv.mp4	0.0	354.8405809402466	
78	328.76551389694214	movie	1		246	76.0	2.5	/experiments/knapen_AOT/AOT_stimuli/rescaled_final/1584_rv.mp4	0.0	354.8486189842224	2.5086891651153564
78	330.35892486572266	pulse	1	t		76.0	2.5	/experiments/knapen_AOT/AOT_stimuli/rescaled_final/1584_rv.mp4	0.0	356.44202995300293	
78	331.2742030620575	fix_post	2		12	76.0	2.5	/experiments/knapen_AOT/AOT_stimuli/rescaled_final/1584_rv.mp4	0.0	357.35730814933777	0.1000068187713623
79	331.37420988082886	fix_pre	0		120	77.0	2.5	/experiments/knapen_AOT/AOT_stimuli/rescaled_final/1384_fw.mp4	0.0	357.45731496810913	1.0001401901245117
79	331.95797085762024	pulse	0	t		77.0	2.5	/experiments/knapen_AOT/AOT_stimuli/rescaled_final/1384_fw.mp4	0.0	358.0410759449005	
79	332.37435007095337	movie	1		244	77.0	2.5	/experiments/knapen_AOT/AOT_stimuli/rescaled_final/1384_fw.mp4	0.0	358.45745515823364	2.5003910064697266
79	333.5581510066986	pulse	1	t		77.0	2.5	/experiments/knapen_AOT/AOT_stimuli/rescaled_final/1384_fw.mp4	0.0	359.6412560939789	
79	334.8747410774231	fix_post	2		12	77.0	2.5	/experiments/knapen_AOT/AOT_stimuli/rescaled_final/1384_fw.mp4	0.0	360.95784616470337	0.09999489784240723
80	334.9747359752655	fix_pre	0		120	78.0	2.5	/experiments/knapen_AOT/AOT_stimuli/rescaled_final/0253_rv.mp4	0.0	361.0578410625458	1.0001840591430664
80	335.15833497047424	pulse	0	t		78.0	2.5	/experiments/knapen_AOT/AOT_stimuli/rescaled_final/0253_rv.mp4	0.0	361.2414400577545	
80	335.97492003440857	movie	1		245	78.0	2.5	/experiments/knapen_AOT/AOT_stimuli/rescaled_final/0253_rv.mp4	0.0	362.05802512168884	2.5004570484161377
80	336.75870990753174	pulse	1	t		78.0	2.5	/experiments/knapen_AOT/AOT_stimuli/rescaled_final/0253_rv.mp4	0.0	362.841814994812	
80	338.3564279079437	pulse	1	t		78.0	2.5	/experiments/knapen_AOT/AOT_stimuli/rescaled_final/0253_rv.mp4	0.0	364.439532995224	
80	338.4753770828247	fix_post	2		12	78.0	2.5	/experiments/knapen_AOT/AOT_stimuli/rescaled_final/0253_rv.mp4	0.0	364.558482170105	0.09999680519104004
81	338.57537388801575	fix_pre	0		120	79.0	2.5	/experiments/knapen_AOT/AOT_stimuli/rescaled_final/0389_fw.mp4	0.0	364.658478975296	1.0000851154327393
81	339.5754590034485	movie	1		244	79.0	2.5	/experiments/knapen_AOT/AOT_stimuli/rescaled_final/0389_fw.mp4	0.0	365.65856409072876	2.49208402633667
81	339.9635729789734	pulse	1	t		79.0	2.5	/experiments/knapen_AOT/AOT_stimuli/rescaled_final/0389_fw.mp4	0.0	366.04667806625366	
81	341.55933904647827	pulse	1	t		79.0	2.5	/experiments/knapen_AOT/AOT_stimuli/rescaled_final/0389_fw.mp4	0.0	367.64244413375854	
81	342.06754302978516	fix_post	2		12	79.0	2.5	/experiments/knapen_AOT/AOT_stimuli/rescaled_final/0389_fw.mp4	0.0	368.15064811706543	0.09997296333312988
82	342.1675159931183	fix_pre	0		120	80.0	2.5	/experiments/knapen_AOT/AOT_stimuli/rescaled_final/1180_fw.mp4	0.0	368.25062108039856	1.0001158714294434
82	343.1594920158386	pulse	0	t		80.0	2.5	/experiments/knapen_AOT/AOT_stimuli/rescaled_final/1180_fw.mp4	0.0	369.2425971031189	
82	343.16763186454773	movie	1		245	80.0	2.5	/experiments/knapen_AOT/AOT_stimuli/rescaled_final/1180_fw.mp4	0.0	369.250736951828	2.508740186691284
82	344.7600049972534	pulse	1	t		80.0	2.5	/experiments/knapen_AOT/AOT_stimuli/rescaled_final/1180_fw.mp4	0.0	370.8431100845337	
82	345.676372051239	fix_post	2		12	80.0	2.5	/experiments/knapen_AOT/AOT_stimuli/rescaled_final/1180_fw.mp4	0.0	371.7594771385193	0.09996891021728516
83	345.7763409614563	fix_pre	0		120	81.0	2.5	/experiments/knapen_AOT/AOT_stimuli/rescaled_final/0705_fw.mp4	0.0	371.8594460487366	1.00018310546875
83	346.36002492904663	pulse	0	t		81.0	2.5	/experiments/knapen_AOT/AOT_stimuli/rescaled_final/0705_fw.mp4	0.0	372.4431300163269	
83	346.77652406692505	movie	1		245	81.0	2.5	/experiments/knapen_AOT/AOT_stimuli/rescaled_final/0705_fw.mp4	0.0	372.8596291542053	2.5003769397735596
83	347.9603328704834	pulse	1	t		81.0	2.5	/experiments/knapen_AOT/AOT_stimuli/rescaled_final/0705_fw.mp4	0.0	374.0434379577637	
83	349.2769010066986	fix_post	2		12	81.0	2.5	/experiments/knapen_AOT/AOT_stimuli/rescaled_final/0705_fw.mp4	0.0	375.3600060939789	0.09998583793640137
84	349.376886844635	fix_pre	0		120	82.0	2.5	blank	1.0	375.4599919319153	1.0001540184020996
84	349.5604429244995	pulse	0	t		82.0	2.5	blank	1.0	375.6435480117798	
84	350.3770408630371	movie	1		300	82.0	2.5	blank	1.0	376.4601459503174	2.500413179397583
84	351.1607038974762	pulse	1	t		82.0	2.5	blank	1.0	377.24380898475647	
84	352.76093006134033	pulse	1	t		82.0	2.5	blank	1.0	378.8440351486206	
84	352.8774540424347	fix_post	2		12	82.0	2.5	blank	1.0	378.96055912971497	0.09996986389160156
85	352.9774239063263	fix_pre	0		120	83.0	2.5	/experiments/knapen_AOT/AOT_stimuli/rescaled_final/0501_fw.mp4	0.0	379.06052899360657	1.000223159790039
85	353.97764706611633	movie	1		243	83.0	2.5	/experiments/knapen_AOT/AOT_stimuli/rescaled_final/0501_fw.mp4	0.0	380.0607521533966	2.4920198917388916
85	354.361918926239	pulse	1	t		83.0	2.5	/experiments/knapen_AOT/AOT_stimuli/rescaled_final/0501_fw.mp4	0.0	380.4450240135193	
85	355.9615180492401	pulse	1	t		83.0	2.5	/experiments/knapen_AOT/AOT_stimuli/rescaled_final/0501_fw.mp4	0.0	382.0446231365204	
85	356.4696669578552	fix_post	2		12	83.0	2.5	/experiments/knapen_AOT/AOT_stimuli/rescaled_final/0501_fw.mp4	0.0	382.5527720451355	0.10002708435058594
87	356.5696940422058	stim	0		1716					382.6527991294861	14.30211091041565
87	357.5544080734253	pulse	0	t						383.63751316070557	
87	359.1544370651245	pulse	0	t						385.2375421524048	
87	360.75471091270447	pulse	0	t						386.83781599998474	
87	362.35496497154236	pulse	0	t						388.43807005882263	
87	363.9542770385742	pulse	0	t						390.0373821258545	
87	365.55442786216736	pulse	0	t						391.63753294944763	
87	367.1547050476074	pulse	0	t						393.2378101348877	
87	368.7549250125885	pulse	0	t						394.8380300998688	
87	370.3552620410919	pulse	0	t						396.4383671283722	
