trial_nr	onset	event_type	phase	response	nr_frames	movie_index	movie_duration	movie_file	blank	onset_abs	duration
0	0.14149212837219238	stim	0		35					47.86098599433899	0.2915840148925781
0	0.4252438545227051	response	0	space						48.1447377204895	
1	0.4330761432647705	stim	0		4803					48.15257000923157	40.05079627037048
1	40.4541232585907	pulse	0	t						88.1736171245575	
1	40.483872413635254	stim	1		1715					88.20336627960205	14.299049377441406
1	42.0482816696167	pulse	1	t						89.7677755355835	
1	43.648292779922485	pulse	1	t						91.36778664588928	
1	45.248392820358276	pulse	1	t						92.96788668632507	
1	46.848546504974365	pulse	1	t						94.56804037094116	
1	48.44878387451172	pulse	1	t						96.16827774047852	
1	50.04928493499756	pulse	1	t						97.76877880096436	
1	51.64928221702576	pulse	1	t						99.36877608299255	
1	53.24958777427673	pulse	1	t						100.96908164024353	
2	54.78292179107666	fix_pre	0		9	0.0	2.5	/experiments/Knapen_AOT/AOT_stimuli/rescaled_final/0973_fw.mp4	0.0	102.50241565704346	0.09170246124267578
2	54.84979701042175	pulse	0	t		0.0	2.5	/experiments/Knapen_AOT/AOT_stimuli/rescaled_final/0973_fw.mp4	0.0	102.56929087638855	
2	54.874624252319336	movie	1		277	0.0	2.5	/experiments/Knapen_AOT/AOT_stimuli/rescaled_final/0973_fw.mp4	0.0	102.59411811828613	2.491962194442749
2	56.44856834411621	pulse	1	t		0.0	2.5	/experiments/Knapen_AOT/AOT_stimuli/rescaled_final/0973_fw.mp4	0.0	104.16806221008301	
2	57.366586446762085	fix_post	2		12	0.0	2.5	/experiments/Knapen_AOT/AOT_stimuli/rescaled_final/0973_fw.mp4	0.0	105.08608031272888	0.10002899169921875
3	57.466615438461304	fix_pre	0		120	1.0	2.5	/experiments/Knapen_AOT/AOT_stimuli/rescaled_final/2052_fw.mp4	0.0	105.1861093044281	1.0085339546203613
3	58.05041241645813	pulse	0	t		1.0	2.5	/experiments/Knapen_AOT/AOT_stimuli/rescaled_final/2052_fw.mp4	0.0	105.76990628242493	
3	58.475149393081665	movie	1		284	1.0	2.5	/experiments/Knapen_AOT/AOT_stimuli/rescaled_final/2052_fw.mp4	0.0	106.19464325904846	2.491986036300659
3	59.64856171607971	pulse	1	t		1.0	2.5	/experiments/Knapen_AOT/AOT_stimuli/rescaled_final/2052_fw.mp4	0.0	107.36805558204651	
3	60.967135429382324	fix_post	2		12	1.0	2.5	/experiments/Knapen_AOT/AOT_stimuli/rescaled_final/2052_fw.mp4	0.0	108.68662929534912	0.1000068187713623
4	61.06714224815369	fix_pre	0		120	2.0	2.5	/experiments/Knapen_AOT/AOT_stimuli/rescaled_final/1504_fw.mp4	0.0	108.78663611412048	1.0085382461547852
4	61.250696420669556	pulse	0	t		2.0	2.5	/experiments/Knapen_AOT/AOT_stimuli/rescaled_final/1504_fw.mp4	0.0	108.97019028663635	
4	62.07568049430847	movie	1		280	2.0	2.5	/experiments/Knapen_AOT/AOT_stimuli/rescaled_final/1504_fw.mp4	0.0	109.79517436027527	2.4919707775115967
4	62.84900712966919	pulse	1	t		2.0	2.5	/experiments/Knapen_AOT/AOT_stimuli/rescaled_final/1504_fw.mp4	0.0	110.56850099563599	
4	64.4491720199585	pulse	1	t		2.0	2.5	/experiments/Knapen_AOT/AOT_stimuli/rescaled_final/1504_fw.mp4	0.0	112.1686658859253	
4	64.56765127182007	fix_post	2		12	2.0	2.5	/experiments/Knapen_AOT/AOT_stimuli/rescaled_final/1504_fw.mp4	0.0	112.28714513778687	0.10003089904785156
5	64.66768217086792	fix_pre	0		120	3.0	2.5	/experiments/Knapen_AOT/AOT_stimuli/rescaled_final/1889_fw.mp4	0.0	112.38717603683472	1.0086345672607422
5	65.67631673812866	movie	1		282	3.0	2.5	/experiments/Knapen_AOT/AOT_stimuli/rescaled_final/1889_fw.mp4	0.0	113.39581060409546	2.4919090270996094
5	66.04988884925842	pulse	1	t		3.0	2.5	/experiments/Knapen_AOT/AOT_stimuli/rescaled_final/1889_fw.mp4	0.0	113.76938271522522	
5	67.64959836006165	pulse	1	t		3.0	2.5	/experiments/Knapen_AOT/AOT_stimuli/rescaled_final/1889_fw.mp4	0.0	115.36909222602844	
5	68.16822576522827	fix_post	2		12	3.0	2.5	/experiments/Knapen_AOT/AOT_stimuli/rescaled_final/1889_fw.mp4	0.0	115.88771963119507	0.10015034675598145
6	68.26837611198425	fix_pre	0		119	4.0	2.5	/experiments/Knapen_AOT/AOT_stimuli/rescaled_final/0940_fw.mp4	0.0	115.98786997795105	1.0000157356262207
6	69.25192022323608	pulse	0	t		4.0	2.5	/experiments/Knapen_AOT/AOT_stimuli/rescaled_final/0940_fw.mp4	0.0	116.97141408920288	
6	69.26839184761047	movie	1		294	4.0	2.5	/experiments/Knapen_AOT/AOT_stimuli/rescaled_final/0940_fw.mp4	0.0	116.98788571357727	2.500356435775757
6	70.85052108764648	pulse	1	t		4.0	2.5	/experiments/Knapen_AOT/AOT_stimuli/rescaled_final/0940_fw.mp4	0.0	118.57001495361328	
6	71.76874828338623	fix_post	2		12	4.0	2.5	/experiments/Knapen_AOT/AOT_stimuli/rescaled_final/0940_fw.mp4	0.0	119.48824214935303	0.10001039505004883
7	71.86875867843628	fix_pre	0		120	5.0	2.5	/experiments/Knapen_AOT/AOT_stimuli/rescaled_final/1692_rv.mp4	0.0	119.58825254440308	1.008535623550415
7	72.45256161689758	pulse	0	t		5.0	2.5	/experiments/Knapen_AOT/AOT_stimuli/rescaled_final/1692_rv.mp4	0.0	120.17205548286438	
7	72.8772943019867	movie	1		288	5.0	2.5	/experiments/Knapen_AOT/AOT_stimuli/rescaled_final/1692_rv.mp4	0.0	120.59678816795349	2.4920389652252197
7	74.05069828033447	pulse	1	t		5.0	2.5	/experiments/Knapen_AOT/AOT_stimuli/rescaled_final/1692_rv.mp4	0.0	121.77019214630127	
7	75.36933326721191	fix_post	2		12	5.0	2.5	/experiments/Knapen_AOT/AOT_stimuli/rescaled_final/1692_rv.mp4	0.0	123.08882713317871	0.09997749328613281
8	75.46931076049805	fix_pre	0		120	6.0	2.5	/experiments/Knapen_AOT/AOT_stimuli/rescaled_final/1402_rv.mp4	0.0	123.18880462646484	1.0084881782531738
8	75.65296864509583	pulse	0	t		6.0	2.5	/experiments/Knapen_AOT/AOT_stimuli/rescaled_final/1402_rv.mp4	0.0	123.37246251106262	
8	76.47779893875122	movie	1		278	6.0	2.5	/experiments/Knapen_AOT/AOT_stimuli/rescaled_final/1402_rv.mp4	0.0	124.19729280471802	2.492016553878784
8	77.2510392665863	pulse	1	t		6.0	2.5	/experiments/Knapen_AOT/AOT_stimuli/rescaled_final/1402_rv.mp4	0.0	124.9705331325531	
8	78.85131001472473	pulse	1	t		6.0	2.5	/experiments/Knapen_AOT/AOT_stimuli/rescaled_final/1402_rv.mp4	0.0	126.57080388069153	
8	78.96981549263	fix_post	2		12	6.0	2.5	/experiments/Knapen_AOT/AOT_stimuli/rescaled_final/1402_rv.mp4	0.0	126.6893093585968	0.1000216007232666
9	79.06983709335327	fix_pre	0		120	7.0	2.5	blank	1.0	126.78933095932007	1.000213861465454
9	80.07005095481873	movie	1		300	7.0	2.5	blank	1.0	127.78954482078552	2.500345468521118
9	80.45363903045654	pulse	1	t		7.0	2.5	blank	1.0	128.17313289642334	
9	82.05401301383972	pulse	1	t		7.0	2.5	blank	1.0	129.77350687980652	
9	82.57039642333984	fix_post	2		12	7.0	2.5	blank	1.0	130.28989028930664	0.09998846054077148
10	82.67038488388062	fix_pre	0		119	8.0	2.5	/experiments/Knapen_AOT/AOT_stimuli/rescaled_final/0574_fw.mp4	0.0	130.3898787498474	1.0001606941223145
10	83.654128074646	pulse	0	t		8.0	2.5	/experiments/Knapen_AOT/AOT_stimuli/rescaled_final/0574_fw.mp4	0.0	131.3736219406128	
10	83.67054557800293	movie	1		280	8.0	2.5	/experiments/Knapen_AOT/AOT_stimuli/rescaled_final/0574_fw.mp4	0.0	131.39003944396973	2.5003488063812256
10	85.25274777412415	pulse	1	t		8.0	2.5	/experiments/Knapen_AOT/AOT_stimuli/rescaled_final/0574_fw.mp4	0.0	132.97224164009094	
10	86.17089438438416	fix_post	2		12	8.0	2.5	/experiments/Knapen_AOT/AOT_stimuli/rescaled_final/0574_fw.mp4	0.0	133.89038825035095	0.10018706321716309
11	86.27108144760132	fix_pre	0		120	9.0	2.5	/experiments/Knapen_AOT/AOT_stimuli/rescaled_final/1979_rv.mp4	0.0	133.99057531356812	1.0085532665252686
11	86.85461235046387	pulse	0	t		9.0	2.5	/experiments/Knapen_AOT/AOT_stimuli/rescaled_final/1979_rv.mp4	0.0	134.57410621643066	
11	87.27963471412659	movie	1		279	9.0	2.5	/experiments/Knapen_AOT/AOT_stimuli/rescaled_final/1979_rv.mp4	0.0	134.99912858009338	2.491834878921509
11	88.45337653160095	pulse	1	t		9.0	2.5	/experiments/Knapen_AOT/AOT_stimuli/rescaled_final/1979_rv.mp4	0.0	136.17287039756775	
11	89.7714695930481	fix_post	2		12	9.0	2.5	/experiments/Knapen_AOT/AOT_stimuli/rescaled_final/1979_rv.mp4	0.0	137.4909634590149	0.10002541542053223
12	89.87149500846863	fix_pre	0		120	10.0	2.5	/experiments/Knapen_AOT/AOT_stimuli/rescaled_final/1220_fw.mp4	0.0	137.59098887443542	1.0084826946258545
12	90.05520582199097	pulse	0	t		10.0	2.5	/experiments/Knapen_AOT/AOT_stimuli/rescaled_final/1220_fw.mp4	0.0	137.77469968795776	
12	90.87997770309448	movie	1		280	10.0	2.5	/experiments/Knapen_AOT/AOT_stimuli/rescaled_final/1220_fw.mp4	0.0	138.59947156906128	2.4920990467071533
12	91.65300369262695	pulse	1	t		10.0	2.5	/experiments/Knapen_AOT/AOT_stimuli/rescaled_final/1220_fw.mp4	0.0	139.37249755859375	
12	93.25333380699158	pulse	1	t		10.0	2.5	/experiments/Knapen_AOT/AOT_stimuli/rescaled_final/1220_fw.mp4	0.0	140.97282767295837	
12	93.37207674980164	fix_post	2		12	10.0	2.5	/experiments/Knapen_AOT/AOT_stimuli/rescaled_final/1220_fw.mp4	0.0	141.09157061576843	0.09994220733642578
13	93.47201895713806	fix_pre	0		120	11.0	2.5	/experiments/Knapen_AOT/AOT_stimuli/rescaled_final/1234_fw.mp4	0.0	141.19151282310486	1.0085482597351074
13	94.48056721687317	movie	1		287	11.0	2.5	/experiments/Knapen_AOT/AOT_stimuli/rescaled_final/1234_fw.mp4	0.0	142.20006108283997	2.4920341968536377
13	94.85419344902039	pulse	1	t		11.0	2.5	/experiments/Knapen_AOT/AOT_stimuli/rescaled_final/1234_fw.mp4	0.0	142.57368731498718	
13	96.45398998260498	pulse	1	t		11.0	2.5	/experiments/Knapen_AOT/AOT_stimuli/rescaled_final/1234_fw.mp4	0.0	144.17348384857178	
13	96.9726014137268	fix_post	2		12	11.0	2.5	/experiments/Knapen_AOT/AOT_stimuli/rescaled_final/1234_fw.mp4	0.0	144.6920952796936	0.09995007514953613
14	97.07255148887634	fix_pre	0		119	12.0	2.5	/experiments/Knapen_AOT/AOT_stimuli/rescaled_final/0878_rv.mp4	0.0	144.79204535484314	1.0002353191375732
14	98.05622434616089	pulse	0	t		12.0	2.5	/experiments/Knapen_AOT/AOT_stimuli/rescaled_final/0878_rv.mp4	0.0	145.77571821212769	
14	98.07278680801392	movie	1		280	12.0	2.5	/experiments/Knapen_AOT/AOT_stimuli/rescaled_final/0878_rv.mp4	0.0	145.7922806739807	2.5002963542938232
14	99.6548171043396	pulse	1	t		12.0	2.5	/experiments/Knapen_AOT/AOT_stimuli/rescaled_final/0878_rv.mp4	0.0	147.3743109703064	
14	100.57308316230774	fix_post	2		12	12.0	2.5	/experiments/Knapen_AOT/AOT_stimuli/rescaled_final/0878_rv.mp4	0.0	148.29257702827454	0.1000208854675293
15	100.67310404777527	fix_pre	0		120	13.0	2.5	blank	1.0	148.39259791374207	1.0001652240753174
15	101.24876427650452	pulse	0	t		13.0	2.5	blank	1.0	148.9682581424713	
15	101.67326927185059	movie	1		300	13.0	2.5	blank	1.0	149.39276313781738	2.500347852706909
15	102.8490514755249	pulse	1	t		13.0	2.5	blank	1.0	150.5685453414917	
15	104.1736171245575	fix_post	2		12	13.0	2.5	blank	1.0	151.8931109905243	0.10003185272216797
16	104.27364897727966	fix_pre	0		120	14.0	2.5	/experiments/Knapen_AOT/AOT_stimuli/rescaled_final/0574_rv.mp4	0.0	151.99314284324646	1.008493185043335
16	104.4489438533783	pulse	0	t		14.0	2.5	/experiments/Knapen_AOT/AOT_stimuli/rescaled_final/0574_rv.mp4	0.0	152.1684377193451	
16	105.282142162323	movie	1		284	14.0	2.5	/experiments/Knapen_AOT/AOT_stimuli/rescaled_final/0574_rv.mp4	0.0	153.0016360282898	2.4920177459716797
16	106.04925465583801	pulse	1	t		14.0	2.5	/experiments/Knapen_AOT/AOT_stimuli/rescaled_final/0574_rv.mp4	0.0	153.7687485218048	
16	107.64935755729675	pulse	1	t		14.0	2.5	/experiments/Knapen_AOT/AOT_stimuli/rescaled_final/0574_rv.mp4	0.0	155.36885142326355	
16	107.77415990829468	fix_post	2		12	14.0	2.5	/experiments/Knapen_AOT/AOT_stimuli/rescaled_final/0574_rv.mp4	0.0	155.49365377426147	0.1000218391418457
17	107.87418174743652	fix_pre	0		120	15.0	2.5	/experiments/Knapen_AOT/AOT_stimuli/rescaled_final/0336_fw.mp4	0.0	155.59367561340332	1.0084824562072754
17	108.8826642036438	movie	1		281	15.0	2.5	/experiments/Knapen_AOT/AOT_stimuli/rescaled_final/0336_fw.mp4	0.0	156.6021580696106	2.49204683303833
17	109.2498939037323	pulse	1	t		15.0	2.5	/experiments/Knapen_AOT/AOT_stimuli/rescaled_final/0336_fw.mp4	0.0	156.9693877696991	
17	110.84985947608948	pulse	1	t		15.0	2.5	/experiments/Knapen_AOT/AOT_stimuli/rescaled_final/0336_fw.mp4	0.0	158.56935334205627	
17	111.37471103668213	fix_post	2		12	15.0	2.5	/experiments/Knapen_AOT/AOT_stimuli/rescaled_final/0336_fw.mp4	0.0	159.09420490264893	0.10001754760742188
18	111.47472858428955	fix_pre	0		118	16.0	2.5	/experiments/Knapen_AOT/AOT_stimuli/rescaled_final/1396_fw.mp4	0.0	159.19422245025635	0.9918458461761475
18	112.45013809204102	pulse	0	t		16.0	2.5	/experiments/Knapen_AOT/AOT_stimuli/rescaled_final/1396_fw.mp4	0.0	160.1696319580078	
18	112.4665744304657	movie	1		290	16.0	2.5	/experiments/Knapen_AOT/AOT_stimuli/rescaled_final/1396_fw.mp4	0.0	160.1860682964325	2.5004472732543945
18	114.04894542694092	pulse	1	t		16.0	2.5	/experiments/Knapen_AOT/AOT_stimuli/rescaled_final/1396_fw.mp4	0.0	161.76843929290771	
18	114.96702170372009	fix_post	2		12	16.0	2.5	/experiments/Knapen_AOT/AOT_stimuli/rescaled_final/1396_fw.mp4	0.0	162.6865155696869	0.09998893737792969
19	115.06701064109802	fix_pre	0		120	17.0	2.5	/experiments/Knapen_AOT/AOT_stimuli/rescaled_final/2173_fw.mp4	0.0	162.78650450706482	1.0084128379821777
19	115.65050005912781	pulse	0	t		17.0	2.5	/experiments/Knapen_AOT/AOT_stimuli/rescaled_final/2173_fw.mp4	0.0	163.3699939250946	
19	116.0754234790802	movie	1		292	17.0	2.5	/experiments/Knapen_AOT/AOT_stimuli/rescaled_final/2173_fw.mp4	0.0	163.794917345047	2.492017984390259
19	117.24869060516357	pulse	1	t		17.0	2.5	/experiments/Knapen_AOT/AOT_stimuli/rescaled_final/2173_fw.mp4	0.0	164.96818447113037	
19	118.56744146347046	fix_post	2		12	17.0	2.5	/experiments/Knapen_AOT/AOT_stimuli/rescaled_final/2173_fw.mp4	0.0	166.28693532943726	0.10002899169921875
20	118.66747045516968	fix_pre	0		120	18.0	2.5	/experiments/Knapen_AOT/AOT_stimuli/rescaled_final/0255_fw.mp4	0.0	166.38696432113647	1.0085718631744385
20	118.85104465484619	pulse	0	t		18.0	2.5	/experiments/Knapen_AOT/AOT_stimuli/rescaled_final/0255_fw.mp4	0.0	166.570538520813	
20	119.67604231834412	movie	1		289	18.0	2.5	/experiments/Knapen_AOT/AOT_stimuli/rescaled_final/0255_fw.mp4	0.0	167.3955361843109	2.4919707775115967
20	120.44940066337585	pulse	1	t		18.0	2.5	/experiments/Knapen_AOT/AOT_stimuli/rescaled_final/0255_fw.mp4	0.0	168.16889452934265	
20	122.04957938194275	pulse	1	t		18.0	2.5	/experiments/Knapen_AOT/AOT_stimuli/rescaled_final/0255_fw.mp4	0.0	169.76907324790955	
20	122.16801309585571	fix_post	2		12	18.0	2.5	/experiments/Knapen_AOT/AOT_stimuli/rescaled_final/0255_fw.mp4	0.0	169.8875069618225	0.1000053882598877
21	122.2680184841156	fix_pre	0		120	19.0	2.5	blank	1.0	169.9875123500824	1.000138521194458
21	123.26815700531006	movie	1		300	19.0	2.5	blank	1.0	170.98765087127686	2.5003702640533447
21	123.65179181098938	pulse	1	t		19.0	2.5	blank	1.0	171.37128567695618	
21	125.2519702911377	pulse	1	t		19.0	2.5	blank	1.0	172.9714641571045	
21	125.7685272693634	fix_post	2		12	19.0	2.5	blank	1.0	173.4880211353302	0.10000991821289062
22	125.8685371875763	fix_pre	0		119	20.0	2.5	/experiments/Knapen_AOT/AOT_stimuli/rescaled_final/0175_rv.mp4	0.0	173.5880310535431	1.0001847743988037
22	126.85238647460938	pulse	0	t		20.0	2.5	/experiments/Knapen_AOT/AOT_stimuli/rescaled_final/0175_rv.mp4	0.0	174.57188034057617	
22	126.8687219619751	movie	1		291	20.0	2.5	/experiments/Knapen_AOT/AOT_stimuli/rescaled_final/0175_rv.mp4	0.0	174.5882158279419	2.500344753265381
22	128.45097947120667	pulse	1	t		20.0	2.5	/experiments/Knapen_AOT/AOT_stimuli/rescaled_final/0175_rv.mp4	0.0	176.17047333717346	
22	129.36906671524048	fix_post	2		12	20.0	2.5	/experiments/Knapen_AOT/AOT_stimuli/rescaled_final/0175_rv.mp4	0.0	177.08856058120728	0.10004281997680664
23	129.46910953521729	fix_pre	0		120	21.0	2.5	/experiments/Knapen_AOT/AOT_stimuli/rescaled_final/1743_fw.mp4	0.0	177.18860340118408	1.008474588394165
23	130.05269169807434	pulse	0	t		21.0	2.5	/experiments/Knapen_AOT/AOT_stimuli/rescaled_final/1743_fw.mp4	0.0	177.77218556404114	
23	130.47758412361145	movie	1		275	21.0	2.5	/experiments/Knapen_AOT/AOT_stimuli/rescaled_final/1743_fw.mp4	0.0	178.19707798957825	2.492056369781494
23	131.6512315273285	pulse	1	t		21.0	2.5	/experiments/Knapen_AOT/AOT_stimuli/rescaled_final/1743_fw.mp4	0.0	179.3707253932953	
23	132.96964049339294	fix_post	2		12	21.0	2.5	/experiments/Knapen_AOT/AOT_stimuli/rescaled_final/1743_fw.mp4	0.0	180.68913435935974	0.09999942779541016
24	133.06963992118835	fix_pre	0		120	22.0	2.5	/experiments/Knapen_AOT/AOT_stimuli/rescaled_final/2105_fw.mp4	0.0	180.78913378715515	1.0085787773132324
24	133.25348567962646	pulse	0	t		22.0	2.5	/experiments/Knapen_AOT/AOT_stimuli/rescaled_final/2105_fw.mp4	0.0	180.97297954559326	
24	134.0782186985016	movie	1		286	22.0	2.5	/experiments/Knapen_AOT/AOT_stimuli/rescaled_final/2105_fw.mp4	0.0	181.79771256446838	2.491929769515991
24	134.85137033462524	pulse	1	t		22.0	2.5	/experiments/Knapen_AOT/AOT_stimuli/rescaled_final/2105_fw.mp4	0.0	182.57086420059204	
24	136.45170259475708	pulse	1	t		22.0	2.5	/experiments/Knapen_AOT/AOT_stimuli/rescaled_final/2105_fw.mp4	0.0	184.17119646072388	
24	136.57014846801758	fix_post	2		12	22.0	2.5	/experiments/Knapen_AOT/AOT_stimuli/rescaled_final/2105_fw.mp4	0.0	184.28964233398438	0.1000213623046875
25	136.67016983032227	fix_pre	0		120	23.0	2.5	/experiments/Knapen_AOT/AOT_stimuli/rescaled_final/0487_rv.mp4	0.0	184.38966369628906	1.008528470993042
25	137.6786983013153	movie	1		277	23.0	2.5	/experiments/Knapen_AOT/AOT_stimuli/rescaled_final/0487_rv.mp4	0.0	185.3981921672821	2.4920220375061035
25	138.05227875709534	pulse	1	t		23.0	2.5	/experiments/Knapen_AOT/AOT_stimuli/rescaled_final/0487_rv.mp4	0.0	185.77177262306213	
25	139.6519694328308	pulse	1	t		23.0	2.5	/experiments/Knapen_AOT/AOT_stimuli/rescaled_final/0487_rv.mp4	0.0	187.3714632987976	
25	140.1707203388214	fix_post	2		12	23.0	2.5	/experiments/Knapen_AOT/AOT_stimuli/rescaled_final/0487_rv.mp4	0.0	187.8902142047882	0.10008525848388672
26	140.2708055973053	fix_pre	0		119	24.0	2.5	/experiments/Knapen_AOT/AOT_stimuli/rescaled_final/0940_rv.mp4	0.0	187.9902994632721	1.0002772808074951
26	141.25460195541382	pulse	0	t		24.0	2.5	/experiments/Knapen_AOT/AOT_stimuli/rescaled_final/0940_rv.mp4	0.0	188.97409582138062	
26	141.2710828781128	movie	1		280	24.0	2.5	/experiments/Knapen_AOT/AOT_stimuli/rescaled_final/0940_rv.mp4	0.0	188.9905767440796	2.5003201961517334
26	142.85296869277954	pulse	1	t		24.0	2.5	/experiments/Knapen_AOT/AOT_stimuli/rescaled_final/0940_rv.mp4	0.0	190.57246255874634	
26	143.77140307426453	fix_post	2		12	24.0	2.5	/experiments/Knapen_AOT/AOT_stimuli/rescaled_final/0940_rv.mp4	0.0	191.49089694023132	0.09985017776489258
27	143.87125325202942	fix_pre	0		120	25.0	2.5	/experiments/Knapen_AOT/AOT_stimuli/rescaled_final/1644_fw.mp4	0.0	191.59074711799622	1.0085091590881348
27	144.4548954963684	pulse	0	t		25.0	2.5	/experiments/Knapen_AOT/AOT_stimuli/rescaled_final/1644_fw.mp4	0.0	192.1743893623352	
27	144.87976241111755	movie	1		297	25.0	2.5	/experiments/Knapen_AOT/AOT_stimuli/rescaled_final/1644_fw.mp4	0.0	192.59925627708435	2.491981267929077
27	146.05297875404358	pulse	1	t		25.0	2.5	/experiments/Knapen_AOT/AOT_stimuli/rescaled_final/1644_fw.mp4	0.0	193.77247262001038	
27	147.37174367904663	fix_post	2		12	25.0	2.5	/experiments/Knapen_AOT/AOT_stimuli/rescaled_final/1644_fw.mp4	0.0	195.09123754501343	0.10003399848937988
28	147.471777677536	fix_pre	0		120	26.0	2.5	/experiments/Knapen_AOT/AOT_stimuli/rescaled_final/1429_rv.mp4	0.0	195.1912715435028	1.0085070133209229
28	147.65562462806702	pulse	0	t		26.0	2.5	/experiments/Knapen_AOT/AOT_stimuli/rescaled_final/1429_rv.mp4	0.0	195.3751184940338	
28	148.48028469085693	movie	1		293	26.0	2.5	/experiments/Knapen_AOT/AOT_stimuli/rescaled_final/1429_rv.mp4	0.0	196.19977855682373	2.492074728012085
28	149.25124597549438	pulse	1	t		26.0	2.5	/experiments/Knapen_AOT/AOT_stimuli/rescaled_final/1429_rv.mp4	0.0	196.97073984146118	
28	150.85362768173218	pulse	1	t		26.0	2.5	/experiments/Knapen_AOT/AOT_stimuli/rescaled_final/1429_rv.mp4	0.0	198.57312154769897	
28	150.97235941886902	fix_post	2		12	26.0	2.5	/experiments/Knapen_AOT/AOT_stimuli/rescaled_final/1429_rv.mp4	0.0	198.69185328483582	0.10004520416259766
29	151.07240462303162	fix_pre	0		120	27.0	2.5	/experiments/Knapen_AOT/AOT_stimuli/rescaled_final/0381_rv.mp4	0.0	198.7918984889984	1.0084338188171387
29	152.08083844184875	movie	1		291	27.0	2.5	/experiments/Knapen_AOT/AOT_stimuli/rescaled_final/0381_rv.mp4	0.0	199.80033230781555	2.4920156002044678
29	152.447895526886	pulse	1	t		27.0	2.5	/experiments/Knapen_AOT/AOT_stimuli/rescaled_final/0381_rv.mp4	0.0	200.16738939285278	
29	154.0480661392212	pulse	1	t		27.0	2.5	/experiments/Knapen_AOT/AOT_stimuli/rescaled_final/0381_rv.mp4	0.0	201.767560005188	
29	154.57285404205322	fix_post	2		12	27.0	2.5	/experiments/Knapen_AOT/AOT_stimuli/rescaled_final/0381_rv.mp4	0.0	202.29234790802002	0.10000419616699219
30	154.67285823822021	fix_pre	0		118	28.0	2.5	blank	1.0	202.392352104187	0.9834554195404053
30	155.6482470035553	pulse	0	t		28.0	2.5	blank	1.0	203.3677408695221	
30	155.65631365776062	movie	1		301	28.0	2.5	blank	1.0	203.37580752372742	2.5087594985961914
30	157.24854063987732	pulse	1	t		28.0	2.5	blank	1.0	204.96803450584412	
30	158.1650731563568	fix_post	2		12	28.0	2.5	blank	1.0	205.8845670223236	0.10002303123474121
31	158.26509618759155	fix_pre	0		120	29.0	2.5	/experiments/Knapen_AOT/AOT_stimuli/rescaled_final/0082_rv.mp4	0.0	205.98459005355835	1.0084888935089111
31	158.84877181053162	pulse	0	t		29.0	2.5	/experiments/Knapen_AOT/AOT_stimuli/rescaled_final/0082_rv.mp4	0.0	206.5682656764984	
31	159.27358508110046	movie	1		279	29.0	2.5	/experiments/Knapen_AOT/AOT_stimuli/rescaled_final/0082_rv.mp4	0.0	206.99307894706726	2.4920597076416016
31	160.44849395751953	pulse	1	t		29.0	2.5	/experiments/Knapen_AOT/AOT_stimuli/rescaled_final/0082_rv.mp4	0.0	208.16798782348633	
31	161.76564478874207	fix_post	2		12	29.0	2.5	/experiments/Knapen_AOT/AOT_stimuli/rescaled_final/0082_rv.mp4	0.0	209.48513865470886	0.09999489784240723
32	161.86563968658447	fix_pre	0		120	30.0	2.5	/experiments/Knapen_AOT/AOT_stimuli/rescaled_final/1142_fw.mp4	0.0	209.58513355255127	1.0086228847503662
32	162.04922771453857	pulse	0	t		30.0	2.5	/experiments/Knapen_AOT/AOT_stimuli/rescaled_final/1142_fw.mp4	0.0	209.76872158050537	
32	162.87426257133484	movie	1		284	30.0	2.5	/experiments/Knapen_AOT/AOT_stimuli/rescaled_final/1142_fw.mp4	0.0	210.59375643730164	2.491879463195801
32	163.64943981170654	pulse	1	t		30.0	2.5	/experiments/Knapen_AOT/AOT_stimuli/rescaled_final/1142_fw.mp4	0.0	211.36893367767334	
32	165.24991536140442	pulse	1	t		30.0	2.5	/experiments/Knapen_AOT/AOT_stimuli/rescaled_final/1142_fw.mp4	0.0	212.96940922737122	
32	165.36614203453064	fix_post	2		12	30.0	2.5	/experiments/Knapen_AOT/AOT_stimuli/rescaled_final/1142_fw.mp4	0.0	213.08563590049744	0.10009551048278809
33	165.46623754501343	fix_pre	0		120	31.0	2.5	/experiments/Knapen_AOT/AOT_stimuli/rescaled_final/0298_fw.mp4	0.0	213.18573141098022	1.0084960460662842
33	166.4747335910797	movie	1		282	31.0	2.5	/experiments/Knapen_AOT/AOT_stimuli/rescaled_final/0298_fw.mp4	0.0	214.1942274570465	2.4919731616973877
33	166.84815120697021	pulse	1	t		31.0	2.5	/experiments/Knapen_AOT/AOT_stimuli/rescaled_final/0298_fw.mp4	0.0	214.567645072937	
33	168.45032119750977	pulse	1	t		31.0	2.5	/experiments/Knapen_AOT/AOT_stimuli/rescaled_final/0298_fw.mp4	0.0	216.16981506347656	
33	168.9667067527771	fix_post	2		12	31.0	2.5	/experiments/Knapen_AOT/AOT_stimuli/rescaled_final/0298_fw.mp4	0.0	216.6862006187439	0.10001134872436523
34	169.06671810150146	fix_pre	0		119	32.0	2.5	/experiments/Knapen_AOT/AOT_stimuli/rescaled_final/0381_fw.mp4	0.0	216.78621196746826	1.0001425743103027
34	170.0503866672516	pulse	0	t		32.0	2.5	/experiments/Knapen_AOT/AOT_stimuli/rescaled_final/0381_fw.mp4	0.0	217.76988053321838	
34	170.06686067581177	movie	1		283	32.0	2.5	/experiments/Knapen_AOT/AOT_stimuli/rescaled_final/0381_fw.mp4	0.0	217.78635454177856	2.500377893447876
34	171.6492896080017	pulse	1	t		32.0	2.5	/experiments/Knapen_AOT/AOT_stimuli/rescaled_final/0381_fw.mp4	0.0	219.3687834739685	
34	172.56723856925964	fix_post	2		12	32.0	2.5	/experiments/Knapen_AOT/AOT_stimuli/rescaled_final/0381_fw.mp4	0.0	220.28673243522644	0.1000216007232666
35	172.6672601699829	fix_pre	0		120	33.0	2.5	blank	1.0	220.3867540359497	1.000145673751831
35	173.25116443634033	pulse	0	t		33.0	2.5	blank	1.0	220.97065830230713	
35	173.66740584373474	movie	1		300	33.0	2.5	blank	1.0	221.38689970970154	2.500336170196533
35	174.85113263130188	pulse	1	t		33.0	2.5	blank	1.0	222.57062649726868	
35	176.16774201393127	fix_post	2		12	33.0	2.5	blank	1.0	223.88723587989807	0.10002446174621582
36	176.2677664756775	fix_pre	0		120	34.0	2.5	/experiments/Knapen_AOT/AOT_stimuli/rescaled_final/0687_rv.mp4	0.0	223.9872603416443	1.0085277557373047
36	176.45139813423157	pulse	0	t		34.0	2.5	/experiments/Knapen_AOT/AOT_stimuli/rescaled_final/0687_rv.mp4	0.0	224.17089200019836	
36	177.2762942314148	movie	1		287	34.0	2.5	/experiments/Knapen_AOT/AOT_stimuli/rescaled_final/0687_rv.mp4	0.0	224.9957880973816	2.4920222759246826
36	178.04940819740295	pulse	1	t		34.0	2.5	/experiments/Knapen_AOT/AOT_stimuli/rescaled_final/0687_rv.mp4	0.0	225.76890206336975	
36	179.65009474754333	pulse	1	t		34.0	2.5	/experiments/Knapen_AOT/AOT_stimuli/rescaled_final/0687_rv.mp4	0.0	227.36958861351013	
36	179.76831650733948	fix_post	2		12	34.0	2.5	/experiments/Knapen_AOT/AOT_stimuli/rescaled_final/0687_rv.mp4	0.0	227.48781037330627	0.10006403923034668
37	179.86838054656982	fix_pre	0		120	35.0	2.5	/experiments/Knapen_AOT/AOT_stimuli/rescaled_final/1032_rv.mp4	0.0	227.58787441253662	1.0084619522094727
37	180.8768424987793	movie	1		291	35.0	2.5	/experiments/Knapen_AOT/AOT_stimuli/rescaled_final/1032_rv.mp4	0.0	228.5963363647461	2.492044448852539
37	181.25054144859314	pulse	1	t		35.0	2.5	/experiments/Knapen_AOT/AOT_stimuli/rescaled_final/1032_rv.mp4	0.0	228.97003531455994	
37	182.85079884529114	pulse	1	t		35.0	2.5	/experiments/Knapen_AOT/AOT_stimuli/rescaled_final/1032_rv.mp4	0.0	230.57029271125793	
37	183.36888694763184	fix_post	2		12	35.0	2.5	/experiments/Knapen_AOT/AOT_stimuli/rescaled_final/1032_rv.mp4	0.0	231.08838081359863	0.10002517700195312
38	183.4689121246338	fix_pre	0		119	36.0	2.5	/experiments/Knapen_AOT/AOT_stimuli/rescaled_final/1980_rv.mp4	0.0	231.1884059906006	1.0001335144042969
38	184.4528169631958	pulse	0	t		36.0	2.5	/experiments/Knapen_AOT/AOT_stimuli/rescaled_final/1980_rv.mp4	0.0	232.1723108291626	
38	184.4690456390381	movie	1		280	36.0	2.5	/experiments/Knapen_AOT/AOT_stimuli/rescaled_final/1980_rv.mp4	0.0	232.18853950500488	2.5003585815429688
38	186.05111837387085	pulse	1	t		36.0	2.5	/experiments/Knapen_AOT/AOT_stimuli/rescaled_final/1980_rv.mp4	0.0	233.77061223983765	
38	186.96940422058105	fix_post	2		12	36.0	2.5	/experiments/Knapen_AOT/AOT_stimuli/rescaled_final/1980_rv.mp4	0.0	234.68889808654785	0.1000070571899414
39	187.069411277771	fix_pre	0		120	37.0	2.5	/experiments/Knapen_AOT/AOT_stimuli/rescaled_final/0093_rv.mp4	0.0	234.7889051437378	1.0085177421569824
39	187.65337324142456	pulse	0	t		37.0	2.5	/experiments/Knapen_AOT/AOT_stimuli/rescaled_final/0093_rv.mp4	0.0	235.37286710739136	
39	188.07792901992798	movie	1		280	37.0	2.5	/experiments/Knapen_AOT/AOT_stimuli/rescaled_final/0093_rv.mp4	0.0	235.79742288589478	2.492029905319214
39	189.25156545639038	pulse	1	t		37.0	2.5	/experiments/Knapen_AOT/AOT_stimuli/rescaled_final/0093_rv.mp4	0.0	236.97105932235718	
39	190.5699589252472	fix_post	2		12	37.0	2.5	/experiments/Knapen_AOT/AOT_stimuli/rescaled_final/0093_rv.mp4	0.0	238.289452791214	0.10001492500305176
40	190.66997385025024	fix_pre	0		120	38.0	2.5	/experiments/Knapen_AOT/AOT_stimuli/rescaled_final/0946_fw.mp4	0.0	238.38946771621704	1.0086126327514648
40	190.85359120368958	pulse	0	t		38.0	2.5	/experiments/Knapen_AOT/AOT_stimuli/rescaled_final/0946_fw.mp4	0.0	238.57308506965637	
40	191.6785864830017	movie	1		287	38.0	2.5	/experiments/Knapen_AOT/AOT_stimuli/rescaled_final/0946_fw.mp4	0.0	239.3980803489685	2.49190092086792
40	192.45215344429016	pulse	1	t		38.0	2.5	/experiments/Knapen_AOT/AOT_stimuli/rescaled_final/0946_fw.mp4	0.0	240.17164731025696	
40	194.05206775665283	pulse	1	t		38.0	2.5	/experiments/Knapen_AOT/AOT_stimuli/rescaled_final/0946_fw.mp4	0.0	241.77156162261963	
40	194.17048740386963	fix_post	2		12	38.0	2.5	/experiments/Knapen_AOT/AOT_stimuli/rescaled_final/0946_fw.mp4	0.0	241.88998126983643	0.10000848770141602
41	194.27049589157104	fix_pre	0		120	39.0	2.5	/experiments/Knapen_AOT/AOT_stimuli/rescaled_final/1254_rv.mp4	0.0	241.98998975753784	1.0085325241088867
41	195.27902841567993	movie	1		279	39.0	2.5	/experiments/Knapen_AOT/AOT_stimuli/rescaled_final/1254_rv.mp4	0.0	242.99852228164673	2.4920105934143066
41	195.6530246734619	pulse	1	t		39.0	2.5	/experiments/Knapen_AOT/AOT_stimuli/rescaled_final/1254_rv.mp4	0.0	243.3725185394287	
41	197.2553355693817	pulse	1	t		39.0	2.5	/experiments/Knapen_AOT/AOT_stimuli/rescaled_final/1254_rv.mp4	0.0	244.9748294353485	
41	197.77103900909424	fix_post	2		12	39.0	2.5	/experiments/Knapen_AOT/AOT_stimuli/rescaled_final/1254_rv.mp4	0.0	245.49053287506104	0.100189208984375
42	197.8712282180786	fix_pre	0		119	40.0	2.5	/experiments/Knapen_AOT/AOT_stimuli/rescaled_final/1574_fw.mp4	0.0	245.5907220840454	1.0000009536743164
42	198.8548231124878	pulse	0	t		40.0	2.5	/experiments/Knapen_AOT/AOT_stimuli/rescaled_final/1574_fw.mp4	0.0	246.5743169784546	
42	198.87122917175293	movie	1		270	40.0	2.5	/experiments/Knapen_AOT/AOT_stimuli/rescaled_final/1574_fw.mp4	0.0	246.59072303771973	2.500335693359375
42	200.45474815368652	pulse	1	t		40.0	2.5	/experiments/Knapen_AOT/AOT_stimuli/rescaled_final/1574_fw.mp4	0.0	248.17424201965332	
42	201.3715648651123	fix_post	2		12	40.0	2.5	/experiments/Knapen_AOT/AOT_stimuli/rescaled_final/1574_fw.mp4	0.0	249.0910587310791	0.10011649131774902
43	201.47168135643005	fix_pre	0		120	41.0	2.5	blank	1.0	249.19117522239685	1.0000331401824951
43	202.05559587478638	pulse	0	t		41.0	2.5	blank	1.0	249.77508974075317	
43	202.47171449661255	movie	1		300	41.0	2.5	blank	1.0	250.19120836257935	2.5003926753997803
43	203.65548753738403	pulse	1	t		41.0	2.5	blank	1.0	251.37498140335083	
43	204.97210717201233	fix_post	2		12	41.0	2.5	blank	1.0	252.69160103797913	0.10003876686096191
44	205.0721459388733	fix_pre	0		120	42.0	2.5	/experiments/Knapen_AOT/AOT_stimuli/rescaled_final/0599_rv.mp4	0.0	252.7916398048401	1.0084712505340576
44	205.25571823120117	pulse	0	t		42.0	2.5	/experiments/Knapen_AOT/AOT_stimuli/rescaled_final/0599_rv.mp4	0.0	252.97521209716797	
44	206.08061718940735	movie	1		281	42.0	2.5	/experiments/Knapen_AOT/AOT_stimuli/rescaled_final/0599_rv.mp4	0.0	253.80011105537415	2.492046594619751
44	206.8540906906128	pulse	1	t		42.0	2.5	/experiments/Knapen_AOT/AOT_stimuli/rescaled_final/0599_rv.mp4	0.0	254.5735845565796	
44	208.45429706573486	pulse	1	t		42.0	2.5	/experiments/Knapen_AOT/AOT_stimuli/rescaled_final/0599_rv.mp4	0.0	256.17379093170166	
44	208.5726637840271	fix_post	2		12	42.0	2.5	/experiments/Knapen_AOT/AOT_stimuli/rescaled_final/0599_rv.mp4	0.0	256.2921576499939	0.10004448890686035
45	208.67270827293396	fix_pre	0		120	43.0	2.5	/experiments/Knapen_AOT/AOT_stimuli/rescaled_final/0883_rv.mp4	0.0	256.39220213890076	1.0084686279296875
45	209.68117690086365	movie	1		280	43.0	2.5	/experiments/Knapen_AOT/AOT_stimuli/rescaled_final/0883_rv.mp4	0.0	257.40067076683044	2.492000102996826
45	210.05509996414185	pulse	1	t		43.0	2.5	/experiments/Knapen_AOT/AOT_stimuli/rescaled_final/0883_rv.mp4	0.0	257.77459383010864	
45	211.64861345291138	pulse	1	t		43.0	2.5	/experiments/Knapen_AOT/AOT_stimuli/rescaled_final/0883_rv.mp4	0.0	259.3681073188782	
45	212.17317700386047	fix_post	2		12	43.0	2.5	/experiments/Knapen_AOT/AOT_stimuli/rescaled_final/0883_rv.mp4	0.0	259.89267086982727	0.10005807876586914
46	212.27323508262634	fix_pre	0		118	44.0	2.5	/experiments/Knapen_AOT/AOT_stimuli/rescaled_final/1551_fw.mp4	0.0	259.99272894859314	0.9918210506439209
46	213.24864768981934	pulse	0	t		44.0	2.5	/experiments/Knapen_AOT/AOT_stimuli/rescaled_final/1551_fw.mp4	0.0	260.96814155578613	
46	213.26505613327026	movie	1		283	44.0	2.5	/experiments/Knapen_AOT/AOT_stimuli/rescaled_final/1551_fw.mp4	0.0	260.98454999923706	2.5003676414489746
46	214.84899806976318	pulse	1	t		44.0	2.5	/experiments/Knapen_AOT/AOT_stimuli/rescaled_final/1551_fw.mp4	0.0	262.56849193573	
46	215.76542377471924	fix_post	2		12	44.0	2.5	/experiments/Knapen_AOT/AOT_stimuli/rescaled_final/1551_fw.mp4	0.0	263.48491764068604	0.10006952285766602
47	215.8654932975769	fix_pre	0		120	45.0	2.5	/experiments/Knapen_AOT/AOT_stimuli/rescaled_final/0273_fw.mp4	0.0	263.5849871635437	1.0084245204925537
47	216.4491891860962	pulse	0	t		45.0	2.5	/experiments/Knapen_AOT/AOT_stimuli/rescaled_final/0273_fw.mp4	0.0	264.168683052063	
47	216.87391781806946	movie	1		277	45.0	2.5	/experiments/Knapen_AOT/AOT_stimuli/rescaled_final/0273_fw.mp4	0.0	264.59341168403625	2.4920384883880615
47	218.04945349693298	pulse	1	t		45.0	2.5	/experiments/Knapen_AOT/AOT_stimuli/rescaled_final/0273_fw.mp4	0.0	265.7689473628998	
47	219.36595630645752	fix_post	2		12	45.0	2.5	/experiments/Knapen_AOT/AOT_stimuli/rescaled_final/0273_fw.mp4	0.0	267.0854501724243	0.1000826358795166
48	219.46603894233704	fix_pre	0		120	46.0	2.5	/experiments/Knapen_AOT/AOT_stimuli/rescaled_final/1979_fw.mp4	0.0	267.18553280830383	1.000040054321289
48	219.64944791793823	pulse	0	t		46.0	2.5	/experiments/Knapen_AOT/AOT_stimuli/rescaled_final/1979_fw.mp4	0.0	267.36894178390503	
48	220.46607899665833	movie	1		298	46.0	2.5	/experiments/Knapen_AOT/AOT_stimuli/rescaled_final/1979_fw.mp4	0.0	268.1855728626251	2.5003530979156494
48	221.24964451789856	pulse	1	t		46.0	2.5	/experiments/Knapen_AOT/AOT_stimuli/rescaled_final/1979_fw.mp4	0.0	268.96913838386536	
48	222.84997963905334	pulse	1	t		46.0	2.5	/experiments/Knapen_AOT/AOT_stimuli/rescaled_final/1979_fw.mp4	0.0	270.56947350502014	
48	222.96643209457397	fix_post	2		12	46.0	2.5	/experiments/Knapen_AOT/AOT_stimuli/rescaled_final/1979_fw.mp4	0.0	270.68592596054077	0.10002517700195312
49	223.06645727157593	fix_pre	0		120	47.0	2.5	/experiments/Knapen_AOT/AOT_stimuli/rescaled_final/2036_fw.mp4	0.0	270.7859511375427	1.008542537689209
49	224.07499980926514	movie	1		294	47.0	2.5	/experiments/Knapen_AOT/AOT_stimuli/rescaled_final/2036_fw.mp4	0.0	271.79449367523193	2.4920644760131836
49	224.45045971870422	pulse	1	t		47.0	2.5	/experiments/Knapen_AOT/AOT_stimuli/rescaled_final/2036_fw.mp4	0.0	272.169953584671	
49	226.05039811134338	pulse	1	t		47.0	2.5	/experiments/Knapen_AOT/AOT_stimuli/rescaled_final/2036_fw.mp4	0.0	273.7698919773102	
49	226.56706428527832	fix_post	2		12	47.0	2.5	/experiments/Knapen_AOT/AOT_stimuli/rescaled_final/2036_fw.mp4	0.0	274.2865581512451	0.1000368595123291
50	226.66710114479065	fix_pre	0		119	48.0	2.5	/experiments/Knapen_AOT/AOT_stimuli/rescaled_final/0380_rv.mp4	0.0	274.38659501075745	1.000084400177002
50	227.65070962905884	pulse	0	t		48.0	2.5	/experiments/Knapen_AOT/AOT_stimuli/rescaled_final/0380_rv.mp4	0.0	275.37020349502563	
50	227.66718554496765	movie	1		293	48.0	2.5	/experiments/Knapen_AOT/AOT_stimuli/rescaled_final/0380_rv.mp4	0.0	275.38667941093445	2.50038480758667
50	229.24886965751648	pulse	1	t		48.0	2.5	/experiments/Knapen_AOT/AOT_stimuli/rescaled_final/0380_rv.mp4	0.0	276.9683635234833	
50	230.16757035255432	fix_post	2		12	48.0	2.5	/experiments/Knapen_AOT/AOT_stimuli/rescaled_final/0380_rv.mp4	0.0	277.8870642185211	0.09996795654296875
51	230.2675383090973	fix_pre	0		120	49.0	2.5	blank	1.0	277.9870321750641	1.0001931190490723
51	230.85129809379578	pulse	0	t		49.0	2.5	blank	1.0	278.5707919597626	
51	231.26773142814636	movie	1		300	49.0	2.5	blank	1.0	278.98722529411316	2.5003819465637207
51	232.45164394378662	pulse	1	t		49.0	2.5	blank	1.0	280.1711378097534	
51	233.76811337471008	fix_post	2		12	49.0	2.5	blank	1.0	281.4876072406769	0.10003185272216797
52	233.86814522743225	fix_pre	0		120	50.0	2.5	/experiments/Knapen_AOT/AOT_stimuli/rescaled_final/1125_rv.mp4	0.0	281.58763909339905	1.0084855556488037
52	234.05169916152954	pulse	0	t		50.0	2.5	/experiments/Knapen_AOT/AOT_stimuli/rescaled_final/1125_rv.mp4	0.0	281.77119302749634	
52	234.87663078308105	movie	1		267	50.0	2.5	/experiments/Knapen_AOT/AOT_stimuli/rescaled_final/1125_rv.mp4	0.0	282.59612464904785	2.4920144081115723
52	235.64998054504395	pulse	1	t		50.0	2.5	/experiments/Knapen_AOT/AOT_stimuli/rescaled_final/1125_rv.mp4	0.0	283.36947441101074	
52	237.25162506103516	pulse	1	t		50.0	2.5	/experiments/Knapen_AOT/AOT_stimuli/rescaled_final/1125_rv.mp4	0.0	284.97111892700195	
52	237.36864519119263	fix_post	2		12	50.0	2.5	/experiments/Knapen_AOT/AOT_stimuli/rescaled_final/1125_rv.mp4	0.0	285.0881390571594	0.1000368595123291
53	237.46868205070496	fix_pre	0		120	51.0	2.5	/experiments/Knapen_AOT/AOT_stimuli/rescaled_final/0868_fw.mp4	0.0	285.18817591667175	1.0085105895996094
53	238.47719264030457	movie	1		258	51.0	2.5	/experiments/Knapen_AOT/AOT_stimuli/rescaled_final/0868_fw.mp4	0.0	286.19668650627136	2.4920248985290527
53	238.8516035079956	pulse	1	t		51.0	2.5	/experiments/Knapen_AOT/AOT_stimuli/rescaled_final/0868_fw.mp4	0.0	286.5710973739624	
53	240.45054006576538	pulse	1	t		51.0	2.5	/experiments/Knapen_AOT/AOT_stimuli/rescaled_final/0868_fw.mp4	0.0	288.1700339317322	
53	240.96921753883362	fix_post	2		12	51.0	2.5	/experiments/Knapen_AOT/AOT_stimuli/rescaled_final/0868_fw.mp4	0.0	288.6887114048004	0.0999898910522461
54	241.06920742988586	fix_pre	0		119	52.0	2.5	/experiments/Knapen_AOT/AOT_stimuli/rescaled_final/0356_rv.mp4	0.0	288.78870129585266	1.008495807647705
54	242.05298614501953	pulse	0	t		52.0	2.5	/experiments/Knapen_AOT/AOT_stimuli/rescaled_final/0356_rv.mp4	0.0	289.7724800109863	
54	242.07770323753357	movie	1		284	52.0	2.5	/experiments/Knapen_AOT/AOT_stimuli/rescaled_final/0356_rv.mp4	0.0	289.79719710350037	2.4920313358306885
54	243.65193796157837	pulse	1	t		52.0	2.5	/experiments/Knapen_AOT/AOT_stimuli/rescaled_final/0356_rv.mp4	0.0	291.37143182754517	
54	244.56973457336426	fix_post	2		12	52.0	2.5	/experiments/Knapen_AOT/AOT_stimuli/rescaled_final/0356_rv.mp4	0.0	292.28922843933105	0.10000061988830566
55	244.66973519325256	fix_pre	0		120	53.0	2.5	/experiments/Knapen_AOT/AOT_stimuli/rescaled_final/1811_fw.mp4	0.0	292.38922905921936	1.0085387229919434
55	245.25342416763306	pulse	0	t		53.0	2.5	/experiments/Knapen_AOT/AOT_stimuli/rescaled_final/1811_fw.mp4	0.0	292.97291803359985	
55	245.6782739162445	movie	1		285	53.0	2.5	/experiments/Knapen_AOT/AOT_stimuli/rescaled_final/1811_fw.mp4	0.0	293.3977677822113	2.4920523166656494
55	246.85235619544983	pulse	1	t		53.0	2.5	/experiments/Knapen_AOT/AOT_stimuli/rescaled_final/1811_fw.mp4	0.0	294.5718500614166	
55	248.17032623291016	fix_post	2		12	53.0	2.5	/experiments/Knapen_AOT/AOT_stimuli/rescaled_final/1811_fw.mp4	0.0	295.88982009887695	0.09996795654296875
56	248.27029418945312	fix_pre	0		120	54.0	2.5	/experiments/Knapen_AOT/AOT_stimuli/rescaled_final/0378_fw.mp4	0.0	295.9897880554199	1.0084736347198486
56	248.45388054847717	pulse	0	t		54.0	2.5	/experiments/Knapen_AOT/AOT_stimuli/rescaled_final/0378_fw.mp4	0.0	296.17337441444397	
56	249.27876782417297	movie	1		282	54.0	2.5	/experiments/Knapen_AOT/AOT_stimuli/rescaled_final/0378_fw.mp4	0.0	296.99826169013977	2.4920430183410645
56	250.05439710617065	pulse	1	t		54.0	2.5	/experiments/Knapen_AOT/AOT_stimuli/rescaled_final/0378_fw.mp4	0.0	297.77389097213745	
56	251.65219497680664	pulse	1	t		54.0	2.5	/experiments/Knapen_AOT/AOT_stimuli/rescaled_final/0378_fw.mp4	0.0	299.37168884277344	
56	251.77081084251404	fix_post	2		12	54.0	2.5	/experiments/Knapen_AOT/AOT_stimuli/rescaled_final/0378_fw.mp4	0.0	299.49030470848083	0.10001921653747559
57	251.8708300590515	fix_pre	0		120	55.0	2.5	blank	1.0	299.5903239250183	1.0001673698425293
57	252.87099742889404	movie	1		300	55.0	2.5	blank	1.0	300.59049129486084	2.500361442565918
57	253.25460743904114	pulse	1	t		55.0	2.5	blank	1.0	300.97410130500793	
57	254.85483694076538	pulse	1	t		55.0	2.5	blank	1.0	302.5743308067322	
57	255.37135887145996	fix_post	2		12	55.0	2.5	blank	1.0	303.09085273742676	0.10004520416259766
58	255.47140407562256	fix_pre	0		119	56.0	2.5	/experiments/Knapen_AOT/AOT_stimuli/rescaled_final/1980_rv.mp4	0.0	303.19089794158936	1.0002644062042236
58	256.45515537261963	pulse	0	t		56.0	2.5	/experiments/Knapen_AOT/AOT_stimuli/rescaled_final/1980_rv.mp4	0.0	304.1746492385864	
58	256.4716684818268	movie	1		291	56.0	2.5	/experiments/Knapen_AOT/AOT_stimuli/rescaled_final/1980_rv.mp4	0.0	304.1911623477936	2.5002241134643555
58	258.05360555648804	pulse	1	t		56.0	2.5	/experiments/Knapen_AOT/AOT_stimuli/rescaled_final/1980_rv.mp4	0.0	305.77309942245483	
58	258.97189259529114	fix_post	2		12	56.0	2.5	/experiments/Knapen_AOT/AOT_stimuli/rescaled_final/1980_rv.mp4	0.0	306.69138646125793	0.10003519058227539
59	259.0719277858734	fix_pre	0		120	57.0	2.5	/experiments/Knapen_AOT/AOT_stimuli/rescaled_final/1569_rv.mp4	0.0	306.7914216518402	1.0084803104400635
59	259.65555453300476	pulse	0	t		57.0	2.5	/experiments/Knapen_AOT/AOT_stimuli/rescaled_final/1569_rv.mp4	0.0	307.37504839897156	
59	260.0804080963135	movie	1		279	57.0	2.5	/experiments/Knapen_AOT/AOT_stimuli/rescaled_final/1569_rv.mp4	0.0	307.7999019622803	2.4920125007629395
59	261.25591492652893	pulse	1	t		57.0	2.5	/experiments/Knapen_AOT/AOT_stimuli/rescaled_final/1569_rv.mp4	0.0	308.9754087924957	
59	262.5724205970764	fix_post	2		12	57.0	2.5	/experiments/Knapen_AOT/AOT_stimuli/rescaled_final/1569_rv.mp4	0.0	310.2919144630432	0.10003781318664551
60	262.67245841026306	fix_pre	0		120	58.0	2.5	/experiments/Knapen_AOT/AOT_stimuli/rescaled_final/1859_rv.mp4	0.0	310.39195227622986	1.0087010860443115
60	262.8560333251953	pulse	0	t		58.0	2.5	/experiments/Knapen_AOT/AOT_stimuli/rescaled_final/1859_rv.mp4	0.0	310.5755271911621	
60	263.6811594963074	movie	1		290	58.0	2.5	/experiments/Knapen_AOT/AOT_stimuli/rescaled_final/1859_rv.mp4	0.0	311.40065336227417	2.491971731185913
60	264.45436930656433	pulse	1	t		58.0	2.5	/experiments/Knapen_AOT/AOT_stimuli/rescaled_final/1859_rv.mp4	0.0	312.1738631725311	
60	266.0548777580261	pulse	1	t		58.0	2.5	/experiments/Knapen_AOT/AOT_stimuli/rescaled_final/1859_rv.mp4	0.0	313.7743716239929	
60	266.1731312274933	fix_post	2		11	58.0	2.5	/experiments/Knapen_AOT/AOT_stimuli/rescaled_final/1859_rv.mp4	0.0	313.8926250934601	0.09994125366210938
61	266.2730724811554	fix_pre	0		120	59.0	2.5	/experiments/Knapen_AOT/AOT_stimuli/rescaled_final/0249_fw.mp4	0.0	313.9925663471222	1.0084583759307861
61	267.2815308570862	movie	1		276	59.0	2.5	/experiments/Knapen_AOT/AOT_stimuli/rescaled_final/0249_fw.mp4	0.0	315.001024723053	2.491999864578247
61	267.65591955184937	pulse	1	t		59.0	2.5	/experiments/Knapen_AOT/AOT_stimuli/rescaled_final/0249_fw.mp4	0.0	315.37541341781616	
61	269.2490441799164	pulse	1	t		59.0	2.5	/experiments/Knapen_AOT/AOT_stimuli/rescaled_final/0249_fw.mp4	0.0	316.9685380458832	
61	269.77353072166443	fix_post	2		12	59.0	2.5	/experiments/Knapen_AOT/AOT_stimuli/rescaled_final/0249_fw.mp4	0.0	317.4930245876312	0.10002636909484863
62	269.8735570907593	fix_pre	0		118	60.0	2.5	/experiments/Knapen_AOT/AOT_stimuli/rescaled_final/1577_rv.mp4	0.0	317.5930509567261	0.991950511932373
62	270.84917759895325	pulse	0	t		60.0	2.5	/experiments/Knapen_AOT/AOT_stimuli/rescaled_final/1577_rv.mp4	0.0	318.56867146492004	
62	270.86550760269165	movie	1		275	60.0	2.5	/experiments/Knapen_AOT/AOT_stimuli/rescaled_final/1577_rv.mp4	0.0	318.58500146865845	2.5002593994140625
62	272.4578278064728	pulse	1	t		60.0	2.5	/experiments/Knapen_AOT/AOT_stimuli/rescaled_final/1577_rv.mp4	0.0	320.1773216724396	
62	273.3657670021057	fix_post	2		12	60.0	2.5	/experiments/Knapen_AOT/AOT_stimuli/rescaled_final/1577_rv.mp4	0.0	321.0852608680725	0.10001587867736816
63	273.4657828807831	fix_pre	0		120	61.0	2.5	/experiments/Knapen_AOT/AOT_stimuli/rescaled_final/0235_rv.mp4	0.0	321.1852767467499	1.0084543228149414
63	274.04941868782043	pulse	0	t		61.0	2.5	/experiments/Knapen_AOT/AOT_stimuli/rescaled_final/0235_rv.mp4	0.0	321.76891255378723	
63	274.474237203598	movie	1		280	61.0	2.5	/experiments/Knapen_AOT/AOT_stimuli/rescaled_final/0235_rv.mp4	0.0	322.1937310695648	2.4920427799224854
63	275.6496765613556	pulse	1	t		61.0	2.5	/experiments/Knapen_AOT/AOT_stimuli/rescaled_final/0235_rv.mp4	0.0	323.3691704273224	
63	276.9662799835205	fix_post	2		12	61.0	2.5	/experiments/Knapen_AOT/AOT_stimuli/rescaled_final/0235_rv.mp4	0.0	324.6857738494873	0.1000220775604248
64	277.06630206108093	fix_pre	0		120	62.0	2.5	blank	1.0	324.78579592704773	1.0001447200775146
64	277.24987149238586	pulse	0	t		62.0	2.5	blank	1.0	324.96936535835266	
64	278.06644678115845	movie	1		300	62.0	2.5	blank	1.0	325.78594064712524	2.5003514289855957
64	278.85015892982483	pulse	1	t		62.0	2.5	blank	1.0	326.5696527957916	
64	280.45036792755127	pulse	1	t		62.0	2.5	blank	1.0	328.16986179351807	
64	280.56679821014404	fix_post	2		12	62.0	2.5	blank	1.0	328.28629207611084	0.10003042221069336
65	280.66682863235474	fix_pre	0		120	63.0	2.5	/experiments/Knapen_AOT/AOT_stimuli/rescaled_final/2001_rv.mp4	0.0	328.38632249832153	1.0085065364837646
65	281.6753351688385	movie	1		276	63.0	2.5	/experiments/Knapen_AOT/AOT_stimuli/rescaled_final/2001_rv.mp4	0.0	329.3948290348053	2.4920382499694824
65	282.0507242679596	pulse	1	t		63.0	2.5	/experiments/Knapen_AOT/AOT_stimuli/rescaled_final/2001_rv.mp4	0.0	329.7702181339264	
65	283.65077805519104	pulse	1	t		63.0	2.5	/experiments/Knapen_AOT/AOT_stimuli/rescaled_final/2001_rv.mp4	0.0	331.37027192115784	
65	284.167373418808	fix_post	2		12	63.0	2.5	/experiments/Knapen_AOT/AOT_stimuli/rescaled_final/2001_rv.mp4	0.0	331.8868672847748	0.10002899169921875
66	284.2674024105072	fix_pre	0		119	64.0	2.5	/experiments/Knapen_AOT/AOT_stimuli/rescaled_final/0703_rv.mp4	0.0	331.986896276474	1.0001616477966309
66	285.2511351108551	pulse	0	t		64.0	2.5	/experiments/Knapen_AOT/AOT_stimuli/rescaled_final/0703_rv.mp4	0.0	332.9706289768219	
66	285.26756405830383	movie	1		289	64.0	2.5	/experiments/Knapen_AOT/AOT_stimuli/rescaled_final/0703_rv.mp4	0.0	332.98705792427063	2.5003273487091064
66	286.8500862121582	pulse	1	t		64.0	2.5	/experiments/Knapen_AOT/AOT_stimuli/rescaled_final/0703_rv.mp4	0.0	334.569580078125	
66	287.76789140701294	fix_post	2		12	64.0	2.5	/experiments/Knapen_AOT/AOT_stimuli/rescaled_final/0703_rv.mp4	0.0	335.48738527297974	0.10003304481506348
67	287.867924451828	fix_pre	0		120	65.0	2.5	/experiments/Knapen_AOT/AOT_stimuli/rescaled_final/1899_rv.mp4	0.0	335.5874183177948	1.008671760559082
67	288.45151829719543	pulse	0	t		65.0	2.5	/experiments/Knapen_AOT/AOT_stimuli/rescaled_final/1899_rv.mp4	0.0	336.17101216316223	
67	288.8765962123871	movie	1		276	65.0	2.5	/experiments/Knapen_AOT/AOT_stimuli/rescaled_final/1899_rv.mp4	0.0	336.5960900783539	2.4918437004089355
67	290.05219292640686	pulse	1	t		65.0	2.5	/experiments/Knapen_AOT/AOT_stimuli/rescaled_final/1899_rv.mp4	0.0	337.77168679237366	
67	291.368439912796	fix_post	2		12	65.0	2.5	/experiments/Knapen_AOT/AOT_stimuli/rescaled_final/1899_rv.mp4	0.0	339.0879337787628	0.10008502006530762
68	291.4685249328613	fix_pre	0		120	66.0	2.5	/experiments/Knapen_AOT/AOT_stimuli/rescaled_final/1411_fw.mp4	0.0	339.1880187988281	1.0084574222564697
68	291.65201568603516	pulse	0	t		66.0	2.5	/experiments/Knapen_AOT/AOT_stimuli/rescaled_final/1411_fw.mp4	0.0	339.37150955200195	
68	292.4769823551178	movie	1		276	66.0	2.5	/experiments/Knapen_AOT/AOT_stimuli/rescaled_final/1411_fw.mp4	0.0	340.1964762210846	2.492002487182617
68	293.25039052963257	pulse	1	t		66.0	2.5	/experiments/Knapen_AOT/AOT_stimuli/rescaled_final/1411_fw.mp4	0.0	340.96988439559937	
68	294.8505651950836	pulse	1	t		66.0	2.5	/experiments/Knapen_AOT/AOT_stimuli/rescaled_final/1411_fw.mp4	0.0	342.5700590610504	
68	294.9689848423004	fix_post	2		12	66.0	2.5	/experiments/Knapen_AOT/AOT_stimuli/rescaled_final/1411_fw.mp4	0.0	342.6884787082672	0.10004401206970215
69	295.0690288543701	fix_pre	0		120	67.0	2.5	/experiments/Knapen_AOT/AOT_stimuli/rescaled_final/1853_rv.mp4	0.0	342.7885227203369	1.00846266746521
69	296.0774915218353	movie	1		277	67.0	2.5	/experiments/Knapen_AOT/AOT_stimuli/rescaled_final/1853_rv.mp4	0.0	343.7969853878021	2.492018699645996
69	296.4511194229126	pulse	1	t		67.0	2.5	/experiments/Knapen_AOT/AOT_stimuli/rescaled_final/1853_rv.mp4	0.0	344.1706132888794	
69	298.0508322715759	pulse	1	t		67.0	2.5	/experiments/Knapen_AOT/AOT_stimuli/rescaled_final/1853_rv.mp4	0.0	345.7703261375427	
69	298.5695102214813	fix_post	2		12	67.0	2.5	/experiments/Knapen_AOT/AOT_stimuli/rescaled_final/1853_rv.mp4	0.0	346.2890040874481	0.10001850128173828
70	298.66952872276306	fix_pre	0		119	68.0	2.5	/experiments/Knapen_AOT/AOT_stimuli/rescaled_final/1090_fw.mp4	0.0	346.38902258872986	1.000164270401001
70	299.6537137031555	pulse	0	t		68.0	2.5	/experiments/Knapen_AOT/AOT_stimuli/rescaled_final/1090_fw.mp4	0.0	347.3732075691223	
70	299.66969299316406	movie	1		276	68.0	2.5	/experiments/Knapen_AOT/AOT_stimuli/rescaled_final/1090_fw.mp4	0.0	347.38918685913086	2.5003843307495117
70	301.2521014213562	pulse	1	t		68.0	2.5	/experiments/Knapen_AOT/AOT_stimuli/rescaled_final/1090_fw.mp4	0.0	348.971595287323	
70	302.1700773239136	fix_post	2		12	68.0	2.5	/experiments/Knapen_AOT/AOT_stimuli/rescaled_final/1090_fw.mp4	0.0	349.88957118988037	0.10005402565002441
71	302.2701313495636	fix_pre	0		120	69.0	2.5	blank	1.0	349.9896252155304	1.0001232624053955
71	302.85414457321167	pulse	0	t		69.0	2.5	blank	1.0	350.57363843917847	
71	303.270254611969	movie	1		300	69.0	2.5	blank	1.0	350.9897484779358	2.5003392696380615
71	304.45439314842224	pulse	1	t		69.0	2.5	blank	1.0	352.17388701438904	
71	305.77059388160706	fix_post	2		12	69.0	2.5	blank	1.0	353.49008774757385	0.10004401206970215
72	305.87063789367676	fix_pre	0		120	70.0	2.5	/experiments/Knapen_AOT/AOT_stimuli/rescaled_final/0460_fw.mp4	0.0	353.59013175964355	1.0084867477416992
72	306.05430269241333	pulse	0	t		70.0	2.5	/experiments/Knapen_AOT/AOT_stimuli/rescaled_final/0460_fw.mp4	0.0	353.7737965583801	
72	306.87912464141846	movie	1		281	70.0	2.5	/experiments/Knapen_AOT/AOT_stimuli/rescaled_final/0460_fw.mp4	0.0	354.59861850738525	2.4920127391815186
72	307.6548182964325	pulse	1	t		70.0	2.5	/experiments/Knapen_AOT/AOT_stimuli/rescaled_final/0460_fw.mp4	0.0	355.3743121623993	
72	309.25286197662354	pulse	1	t		70.0	2.5	/experiments/Knapen_AOT/AOT_stimuli/rescaled_final/0460_fw.mp4	0.0	356.97235584259033	
72	309.3711373806	fix_post	2		12	70.0	2.5	/experiments/Knapen_AOT/AOT_stimuli/rescaled_final/0460_fw.mp4	0.0	357.0906312465668	0.10002493858337402
73	309.47116231918335	fix_pre	0		120	71.0	2.5	/experiments/Knapen_AOT/AOT_stimuli/rescaled_final/1522_rv.mp4	0.0	357.19065618515015	1.0085256099700928
73	310.47968792915344	movie	1		277	71.0	2.5	/experiments/Knapen_AOT/AOT_stimuli/rescaled_final/1522_rv.mp4	0.0	358.19918179512024	2.492011308670044
73	310.8535854816437	pulse	1	t		71.0	2.5	/experiments/Knapen_AOT/AOT_stimuli/rescaled_final/1522_rv.mp4	0.0	358.5730793476105	
73	312.45309019088745	pulse	1	t		71.0	2.5	/experiments/Knapen_AOT/AOT_stimuli/rescaled_final/1522_rv.mp4	0.0	360.17258405685425	
73	312.9716992378235	fix_post	2		12	71.0	2.5	/experiments/Knapen_AOT/AOT_stimuli/rescaled_final/1522_rv.mp4	0.0	360.6911931037903	0.10002779960632324
74	313.0717270374298	fix_pre	0		119	72.0	2.5	/experiments/Knapen_AOT/AOT_stimuli/rescaled_final/0249_rv.mp4	0.0	360.7912209033966	1.0000855922698975
74	314.0554995536804	pulse	0	t		72.0	2.5	/experiments/Knapen_AOT/AOT_stimuli/rescaled_final/0249_rv.mp4	0.0	361.7749934196472	
74	314.0718126296997	movie	1		285	72.0	2.5	/experiments/Knapen_AOT/AOT_stimuli/rescaled_final/0249_rv.mp4	0.0	361.7913064956665	2.500427484512329
74	315.65421056747437	pulse	1	t		72.0	2.5	/experiments/Knapen_AOT/AOT_stimuli/rescaled_final/0249_rv.mp4	0.0	363.37370443344116	
74	316.57224011421204	fix_post	2		12	72.0	2.5	/experiments/Knapen_AOT/AOT_stimuli/rescaled_final/0249_rv.mp4	0.0	364.29173398017883	0.10006165504455566
75	316.6723017692566	fix_pre	0		120	73.0	2.5	/experiments/Knapen_AOT/AOT_stimuli/rescaled_final/1032_fw.mp4	0.0	364.3917956352234	1.008455753326416
75	317.2561855316162	pulse	0	t		73.0	2.5	/experiments/Knapen_AOT/AOT_stimuli/rescaled_final/1032_fw.mp4	0.0	364.975679397583	
75	317.680757522583	movie	1		263	73.0	2.5	/experiments/Knapen_AOT/AOT_stimuli/rescaled_final/1032_fw.mp4	0.0	365.4002513885498	2.5003511905670166
75	318.8544108867645	pulse	1	t		73.0	2.5	/experiments/Knapen_AOT/AOT_stimuli/rescaled_final/1032_fw.mp4	0.0	366.5739047527313	
75	320.18110871315	fix_post	2		11	73.0	2.5	/experiments/Knapen_AOT/AOT_stimuli/rescaled_final/1032_fw.mp4	0.0	367.9006025791168	0.09166479110717773
76	320.2727735042572	fix_pre	0		120	74.0	2.5	/experiments/Knapen_AOT/AOT_stimuli/rescaled_final/0940_fw.mp4	0.0	367.992267370224	1.008542537689209
76	320.44844150543213	pulse	0	t		74.0	2.5	/experiments/Knapen_AOT/AOT_stimuli/rescaled_final/0940_fw.mp4	0.0	368.1679353713989	
76	321.2813160419464	movie	1		272	74.0	2.5	/experiments/Knapen_AOT/AOT_stimuli/rescaled_final/0940_fw.mp4	0.0	369.0008099079132	2.492141008377075
76	322.04868817329407	pulse	1	t		74.0	2.5	/experiments/Knapen_AOT/AOT_stimuli/rescaled_final/0940_fw.mp4	0.0	369.76818203926086	
76	323.64849853515625	pulse	1	t		74.0	2.5	/experiments/Knapen_AOT/AOT_stimuli/rescaled_final/0940_fw.mp4	0.0	371.36799240112305	
76	323.7734570503235	fix_post	2		12	74.0	2.5	/experiments/Knapen_AOT/AOT_stimuli/rescaled_final/0940_fw.mp4	0.0	371.4929509162903	0.09986472129821777
77	323.8733217716217	fix_pre	0		120	75.0	2.5	/experiments/Knapen_AOT/AOT_stimuli/rescaled_final/0398_rv.mp4	0.0	371.5928156375885	1.0084996223449707
77	324.8818213939667	movie	1		272	75.0	2.5	/experiments/Knapen_AOT/AOT_stimuli/rescaled_final/0398_rv.mp4	0.0	372.6013152599335	2.49204421043396
77	325.2488055229187	pulse	1	t		75.0	2.5	/experiments/Knapen_AOT/AOT_stimuli/rescaled_final/0398_rv.mp4	0.0	372.9682993888855	
77	326.8493525981903	pulse	1	t		75.0	2.5	/experiments/Knapen_AOT/AOT_stimuli/rescaled_final/0398_rv.mp4	0.0	374.5688464641571	
77	327.37386560440063	fix_post	2		12	75.0	2.5	/experiments/Knapen_AOT/AOT_stimuli/rescaled_final/0398_rv.mp4	0.0	375.09335947036743	0.10001659393310547
78	327.47388219833374	fix_pre	0		118	76.0	2.5	/experiments/Knapen_AOT/AOT_stimuli/rescaled_final/1010_fw.mp4	0.0	375.19337606430054	0.991823673248291
78	328.4493291378021	pulse	0	t		76.0	2.5	/experiments/Knapen_AOT/AOT_stimuli/rescaled_final/1010_fw.mp4	0.0	376.1688230037689	
78	328.46570587158203	movie	1		274	76.0	2.5	/experiments/Knapen_AOT/AOT_stimuli/rescaled_final/1010_fw.mp4	0.0	376.1851997375488	2.5003647804260254
78	330.0495994091034	pulse	1	t		76.0	2.5	/experiments/Knapen_AOT/AOT_stimuli/rescaled_final/1010_fw.mp4	0.0	377.7690932750702	
78	330.96607065200806	fix_post	2		12	76.0	2.5	/experiments/Knapen_AOT/AOT_stimuli/rescaled_final/1010_fw.mp4	0.0	378.68556451797485	0.1000053882598877
79	331.06607604026794	fix_pre	0		120	77.0	2.5	blank	1.0	378.78556990623474	1.000194787979126
79	331.6499836444855	pulse	0	t		77.0	2.5	blank	1.0	379.36947751045227	
79	332.06627082824707	movie	1		300	77.0	2.5	blank	1.0	379.78576469421387	2.500352621078491
79	333.2499990463257	pulse	1	t		77.0	2.5	blank	1.0	380.9694929122925	
79	334.56662344932556	fix_post	2		12	77.0	2.5	blank	1.0	382.28611731529236	0.09999847412109375
80	334.66662192344666	fix_pre	0		120	78.0	2.5	/experiments/Knapen_AOT/AOT_stimuli/rescaled_final/0355_fw.mp4	0.0	382.38611578941345	1.0084679126739502
80	334.8502781391144	pulse	0	t		78.0	2.5	/experiments/Knapen_AOT/AOT_stimuli/rescaled_final/0355_fw.mp4	0.0	382.5697720050812	
80	335.6750898361206	movie	1		263	78.0	2.5	/experiments/Knapen_AOT/AOT_stimuli/rescaled_final/0355_fw.mp4	0.0	383.3945837020874	2.4920549392700195
80	336.448557138443	pulse	1	t		78.0	2.5	/experiments/Knapen_AOT/AOT_stimuli/rescaled_final/0355_fw.mp4	0.0	384.1680510044098	
80	338.04861664772034	pulse	1	t		78.0	2.5	/experiments/Knapen_AOT/AOT_stimuli/rescaled_final/0355_fw.mp4	0.0	385.76811051368713	
80	338.1671447753906	fix_post	2		12	78.0	2.5	/experiments/Knapen_AOT/AOT_stimuli/rescaled_final/0355_fw.mp4	0.0	385.8866386413574	0.10000157356262207
81	338.26714634895325	fix_pre	0		120	79.0	2.5	/experiments/Knapen_AOT/AOT_stimuli/rescaled_final/0175_rv.mp4	0.0	385.98664021492004	1.0085351467132568
81	339.2756814956665	movie	1		259	79.0	2.5	/experiments/Knapen_AOT/AOT_stimuli/rescaled_final/0175_rv.mp4	0.0	386.9951753616333	2.492056131362915
81	339.65109872817993	pulse	1	t		79.0	2.5	/experiments/Knapen_AOT/AOT_stimuli/rescaled_final/0175_rv.mp4	0.0	387.37059259414673	
81	341.24927949905396	pulse	1	t		79.0	2.5	/experiments/Knapen_AOT/AOT_stimuli/rescaled_final/0175_rv.mp4	0.0	388.96877336502075	
81	341.7677376270294	fix_post	2		12	79.0	2.5	/experiments/Knapen_AOT/AOT_stimuli/rescaled_final/0175_rv.mp4	0.0	389.4872314929962	0.09998679161071777
82	341.86772441864014	fix_pre	0		119	80.0	2.5	/experiments/Knapen_AOT/AOT_stimuli/rescaled_final/1889_rv.mp4	0.0	389.58721828460693	1.000150442123413
82	342.8514232635498	pulse	0	t		80.0	2.5	/experiments/Knapen_AOT/AOT_stimuli/rescaled_final/1889_rv.mp4	0.0	390.5709171295166	
82	342.86787486076355	movie	1		279	80.0	2.5	/experiments/Knapen_AOT/AOT_stimuli/rescaled_final/1889_rv.mp4	0.0	390.58736872673035	2.5003790855407715
82	344.4501805305481	pulse	1	t		80.0	2.5	/experiments/Knapen_AOT/AOT_stimuli/rescaled_final/1889_rv.mp4	0.0	392.1696743965149	
82	345.3682539463043	fix_post	2		12	80.0	2.5	/experiments/Knapen_AOT/AOT_stimuli/rescaled_final/1889_rv.mp4	0.0	393.0877478122711	0.10000300407409668
83	345.4682569503784	fix_pre	0		120	81.0	2.5	/experiments/Knapen_AOT/AOT_stimuli/rescaled_final/1423_rv.mp4	0.0	393.1877508163452	1.008490800857544
83	346.0522186756134	pulse	0	t		81.0	2.5	/experiments/Knapen_AOT/AOT_stimuli/rescaled_final/1423_rv.mp4	0.0	393.7717125415802	
83	346.47674775123596	movie	1		273	81.0	2.5	/experiments/Knapen_AOT/AOT_stimuli/rescaled_final/1423_rv.mp4	0.0	394.19624161720276	2.4920730590820312
83	347.6500506401062	pulse	1	t		81.0	2.5	/experiments/Knapen_AOT/AOT_stimuli/rescaled_final/1423_rv.mp4	0.0	395.369544506073	
83	348.968820810318	fix_post	2		12	81.0	2.5	/experiments/Knapen_AOT/AOT_stimuli/rescaled_final/1423_rv.mp4	0.0	396.6883146762848	0.09996652603149414
84	349.0687873363495	fix_pre	0		120	82.0	2.5	blank	1.0	396.7882812023163	1.000138521194458
84	349.252338886261	pulse	0	t		82.0	2.5	blank	1.0	396.9718327522278	
84	350.06892585754395	movie	1		300	82.0	2.5	blank	1.0	397.78841972351074	2.5003769397735596
84	350.852698802948	pulse	1	t		82.0	2.5	blank	1.0	398.5721926689148	
84	352.45292472839355	pulse	1	t		82.0	2.5	blank	1.0	400.17241859436035	
84	352.5693027973175	fix_post	2		12	82.0	2.5	blank	1.0	400.2887966632843	0.10001921653747559
85	352.669322013855	fix_pre	0		120	83.0	2.5	/experiments/Knapen_AOT/AOT_stimuli/rescaled_final/0264_fw.mp4	0.0	400.3888158798218	1.0085258483886719
85	353.67784786224365	movie	1		284	83.0	2.5	/experiments/Knapen_AOT/AOT_stimuli/rescaled_final/0264_fw.mp4	0.0	401.39734172821045	2.492021083831787
85	354.0516405105591	pulse	1	t		83.0	2.5	/experiments/Knapen_AOT/AOT_stimuli/rescaled_final/0264_fw.mp4	0.0	401.7711343765259	
85	355.651629447937	pulse	1	t		83.0	2.5	/experiments/Knapen_AOT/AOT_stimuli/rescaled_final/0264_fw.mp4	0.0	403.3711233139038	
85	356.16986894607544	fix_post	2		12	83.0	2.5	/experiments/Knapen_AOT/AOT_stimuli/rescaled_final/0264_fw.mp4	0.0	403.88936281204224	0.09996867179870605
87	356.26983761787415	stim	0		1715					403.98933148384094	14.293843746185303
87	357.25357151031494	pulse	0	t						404.97306537628174	
87	358.8537895679474	pulse	0	t						406.5732834339142	
87	360.4543569087982	pulse	0	t						408.173850774765	
87	362.0543830394745	pulse	0	t						409.7738769054413	
87	363.6545732021332	pulse	0	t						411.3740670681	
87	365.2547891139984	pulse	0	t						412.9742829799652	
87	366.8550009727478	pulse	0	t						414.5744948387146	
87	368.4552502632141	pulse	0	t						416.1747441291809	
87	370.0554549694061	pulse	0	t						417.7749488353729	
