trial_nr	onset	event_type	phase	response	nr_frames	movie_index	movie_duration	movie_file	blank	onset_abs	duration
0	0.1581723690032959	stim	0		5					16.52640438079834	0.04165530204772949
0	0.1916954517364502	response	0	space						16.559927463531494	
1	0.1998276710510254	stim	0		5478					16.56805968284607	45.66521620750427
1	45.855109453201294	pulse	0	t						62.22334146499634	
1	45.8650438785553	stim	1		1715					62.23327589035034	14.302084684371948
1	47.448729276657104	pulse	1	t						63.81696128845215	
1	49.04894971847534	pulse	1	t						65.41718173027039	
1	50.649197578430176	pulse	1	t						67.01742959022522	
1	52.249430656433105	pulse	1	t						68.61766266822815	
1	53.84966731071472	pulse	1	t						70.21789932250977	
1	55.449909687042236	pulse	1	t						71.81814169883728	
1	57.05015468597412	pulse	1	t						73.41838669776917	
1	58.650410890579224	pulse	1	t						75.01864290237427	
2	60.167128562927246	fix_pre	0		11	0.0	2.5	/experiments/knapen_AOT/AOT_stimuli/rescaled_final/0930_fw.mp4	0.0	76.53536057472229	0.10844111442565918
2	60.25067734718323	pulse	0	t		0.0	2.5	/experiments/knapen_AOT/AOT_stimuli/rescaled_final/0930_fw.mp4	0.0	76.61890935897827	
2	60.275569677352905	movie	1		289	0.0	2.5	/experiments/knapen_AOT/AOT_stimuli/rescaled_final/0930_fw.mp4	0.0	76.64380168914795	2.49192214012146
2	61.8490936756134	pulse	1	t		0.0	2.5	/experiments/knapen_AOT/AOT_stimuli/rescaled_final/0930_fw.mp4	0.0	78.21732568740845	
2	62.767491817474365	fix_post	2		12	0.0	2.5	/experiments/knapen_AOT/AOT_stimuli/rescaled_final/0930_fw.mp4	0.0	79.13572382926941	0.10003948211669922
3	62.867531299591064	fix_pre	0		120	1.0	2.5	/experiments/knapen_AOT/AOT_stimuli/rescaled_final/0775_rv.mp4	0.0	79.23576331138611	1.0084893703460693
3	63.451138734817505	pulse	0	t		1.0	2.5	/experiments/knapen_AOT/AOT_stimuli/rescaled_final/0775_rv.mp4	0.0	79.81937074661255	
3	63.876020669937134	movie	1		285	1.0	2.5	/experiments/knapen_AOT/AOT_stimuli/rescaled_final/0775_rv.mp4	0.0	80.24425268173218	2.4920623302459717
3	65.04929947853088	pulse	1	t		1.0	2.5	/experiments/knapen_AOT/AOT_stimuli/rescaled_final/0775_rv.mp4	0.0	81.41753149032593	
3	66.3680830001831	fix_post	2		12	1.0	2.5	/experiments/knapen_AOT/AOT_stimuli/rescaled_final/0775_rv.mp4	0.0	82.73631501197815	0.09996914863586426
4	66.46805214881897	fix_pre	0		120	2.0	2.5	/experiments/knapen_AOT/AOT_stimuli/rescaled_final/1067_rv.mp4	0.0	82.83628416061401	1.0085415840148926
4	66.65170502662659	pulse	0	t		2.0	2.5	/experiments/knapen_AOT/AOT_stimuli/rescaled_final/1067_rv.mp4	0.0	83.01993703842163	
4	67.47659373283386	movie	1		285	2.0	2.5	/experiments/knapen_AOT/AOT_stimuli/rescaled_final/1067_rv.mp4	0.0	83.8448257446289	2.4919991493225098
4	68.24979305267334	pulse	1	t		2.0	2.5	/experiments/knapen_AOT/AOT_stimuli/rescaled_final/1067_rv.mp4	0.0	84.61802506446838	
4	69.85219478607178	pulse	1	t		2.0	2.5	/experiments/knapen_AOT/AOT_stimuli/rescaled_final/1067_rv.mp4	0.0	86.22042679786682	
4	69.96859288215637	fix_post	2		12	2.0	2.5	/experiments/knapen_AOT/AOT_stimuli/rescaled_final/1067_rv.mp4	0.0	86.33682489395142	0.10003805160522461
5	70.0686309337616	fix_pre	0		120	3.0	2.5	/experiments/knapen_AOT/AOT_stimuli/rescaled_final/0867_rv.mp4	0.0	86.43686294555664	1.0084781646728516
5	71.07710909843445	movie	1		276	3.0	2.5	/experiments/knapen_AOT/AOT_stimuli/rescaled_final/0867_rv.mp4	0.0	87.44534111022949	2.492018699645996
5	71.45087695121765	pulse	1	t		3.0	2.5	/experiments/knapen_AOT/AOT_stimuli/rescaled_final/0867_rv.mp4	0.0	87.8191089630127	
5	73.05144190788269	pulse	1	t		3.0	2.5	/experiments/knapen_AOT/AOT_stimuli/rescaled_final/0867_rv.mp4	0.0	89.41967391967773	
5	73.56912779808044	fix_post	2		12	3.0	2.5	/experiments/knapen_AOT/AOT_stimuli/rescaled_final/0867_rv.mp4	0.0	89.93735980987549	0.10001778602600098
6	73.66914558410645	fix_pre	0		118	4.0	2.5	/experiments/knapen_AOT/AOT_stimuli/rescaled_final/0891_rv.mp4	0.0	90.03737759590149	0.9918277263641357
6	74.64482688903809	pulse	0	t		4.0	2.5	/experiments/knapen_AOT/AOT_stimuli/rescaled_final/0891_rv.mp4	0.0	91.01305890083313	
6	74.66097331047058	movie	1		292	4.0	2.5	/experiments/knapen_AOT/AOT_stimuli/rescaled_final/0891_rv.mp4	0.0	91.02920532226562	2.500399589538574
6	76.24480438232422	pulse	1	t		4.0	2.5	/experiments/knapen_AOT/AOT_stimuli/rescaled_final/0891_rv.mp4	0.0	92.61303639411926	
6	77.16137290000916	fix_post	2		12	4.0	2.5	/experiments/knapen_AOT/AOT_stimuli/rescaled_final/0891_rv.mp4	0.0	93.5296049118042	0.1000680923461914
7	77.26144099235535	fix_pre	0		120	5.0	2.5	/experiments/knapen_AOT/AOT_stimuli/rescaled_final/1204_rv.mp4	0.0	93.62967300415039	1.0084426403045654
7	77.84498834609985	pulse	0	t		5.0	2.5	/experiments/knapen_AOT/AOT_stimuli/rescaled_final/1204_rv.mp4	0.0	94.2132203578949	
7	78.26988363265991	movie	1		282	5.0	2.5	/experiments/knapen_AOT/AOT_stimuli/rescaled_final/1204_rv.mp4	0.0	94.63811564445496	2.492023468017578
7	79.44561314582825	pulse	1	t		5.0	2.5	/experiments/knapen_AOT/AOT_stimuli/rescaled_final/1204_rv.mp4	0.0	95.81384515762329	
7	80.76190710067749	fix_post	2		12	5.0	2.5	/experiments/knapen_AOT/AOT_stimuli/rescaled_final/1204_rv.mp4	0.0	97.13013911247253	0.09998655319213867
8	80.86189365386963	fix_pre	0		120	6.0	2.5	blank	1.0	97.23012566566467	1.0001709461212158
8	81.0454888343811	pulse	0	t		6.0	2.5	blank	1.0	97.41372084617615	
8	81.86206459999084	movie	1		300	6.0	2.5	blank	1.0	98.23029661178589	2.500377893447876
8	82.64579606056213	pulse	1	t		6.0	2.5	blank	1.0	99.01402807235718	
8	84.24595332145691	pulse	1	t		6.0	2.5	blank	1.0	100.61418533325195	
8	84.36244249343872	fix_post	2		12	6.0	2.5	blank	1.0	100.73067450523376	0.1000058650970459
9	84.46244835853577	fix_pre	0		120	7.0	2.5	/experiments/knapen_AOT/AOT_stimuli/rescaled_final/1412_rv.mp4	0.0	100.83068037033081	1.0085277557373047
9	85.47097611427307	movie	1		289	7.0	2.5	/experiments/knapen_AOT/AOT_stimuli/rescaled_final/1412_rv.mp4	0.0	101.83920812606812	2.491981267929077
9	85.84446740150452	pulse	1	t		7.0	2.5	/experiments/knapen_AOT/AOT_stimuli/rescaled_final/1412_rv.mp4	0.0	102.21269941329956	
9	87.44401693344116	pulse	1	t		7.0	2.5	/experiments/knapen_AOT/AOT_stimuli/rescaled_final/1412_rv.mp4	0.0	103.8122489452362	
9	87.96295738220215	fix_post	2		12	7.0	2.5	/experiments/knapen_AOT/AOT_stimuli/rescaled_final/1412_rv.mp4	0.0	104.33118939399719	0.10001945495605469
10	88.0629768371582	fix_pre	0		119	8.0	2.5	/experiments/knapen_AOT/AOT_stimuli/rescaled_final/1976_rv.mp4	0.0	104.43120884895325	1.0001988410949707
10	89.0466685295105	pulse	0	t		8.0	2.5	/experiments/knapen_AOT/AOT_stimuli/rescaled_final/1976_rv.mp4	0.0	105.41490054130554	
10	89.06317567825317	movie	1		292	8.0	2.5	/experiments/knapen_AOT/AOT_stimuli/rescaled_final/1976_rv.mp4	0.0	105.43140769004822	2.5003538131713867
10	90.64569282531738	pulse	1	t		8.0	2.5	/experiments/knapen_AOT/AOT_stimuli/rescaled_final/1976_rv.mp4	0.0	107.01392483711243	
10	91.56352949142456	fix_post	2		12	8.0	2.5	/experiments/knapen_AOT/AOT_stimuli/rescaled_final/1976_rv.mp4	0.0	107.9317615032196	0.0999755859375
11	91.66350507736206	fix_pre	0		120	9.0	2.5	/experiments/knapen_AOT/AOT_stimuli/rescaled_final/0788_rv.mp4	0.0	108.0317370891571	1.008556604385376
11	92.24708580970764	pulse	0	t		9.0	2.5	/experiments/knapen_AOT/AOT_stimuli/rescaled_final/0788_rv.mp4	0.0	108.61531782150269	
11	92.67206168174744	movie	1		284	9.0	2.5	/experiments/knapen_AOT/AOT_stimuli/rescaled_final/0788_rv.mp4	0.0	109.04029369354248	2.492002010345459
11	93.8451280593872	pulse	1	t		9.0	2.5	/experiments/knapen_AOT/AOT_stimuli/rescaled_final/0788_rv.mp4	0.0	110.21336007118225	
11	95.1640636920929	fix_post	2		12	9.0	2.5	/experiments/knapen_AOT/AOT_stimuli/rescaled_final/0788_rv.mp4	0.0	111.53229570388794	0.10000371932983398
12	95.26406741142273	fix_pre	0		120	10.0	2.5	/experiments/knapen_AOT/AOT_stimuli/rescaled_final/0286_fw.mp4	0.0	111.63229942321777	1.0085134506225586
12	95.447589635849	pulse	0	t		10.0	2.5	/experiments/knapen_AOT/AOT_stimuli/rescaled_final/0286_fw.mp4	0.0	111.81582164764404	
12	96.27258086204529	movie	1		293	10.0	2.5	/experiments/knapen_AOT/AOT_stimuli/rescaled_final/0286_fw.mp4	0.0	112.64081287384033	2.4920003414154053
12	97.04574418067932	pulse	1	t		10.0	2.5	/experiments/knapen_AOT/AOT_stimuli/rescaled_final/0286_fw.mp4	0.0	113.41397619247437	
12	98.64539909362793	pulse	1	t		10.0	2.5	/experiments/knapen_AOT/AOT_stimuli/rescaled_final/0286_fw.mp4	0.0	115.01363110542297	
12	98.7645812034607	fix_post	2		12	10.0	2.5	/experiments/knapen_AOT/AOT_stimuli/rescaled_final/0286_fw.mp4	0.0	115.13281321525574	0.10011768341064453
13	98.86469888687134	fix_pre	0		120	11.0	2.5	/experiments/knapen_AOT/AOT_stimuli/rescaled_final/0730_rv.mp4	0.0	115.23293089866638	1.0084426403045654
13	99.8731415271759	movie	1		294	11.0	2.5	/experiments/knapen_AOT/AOT_stimuli/rescaled_final/0730_rv.mp4	0.0	116.24137353897095	2.491955518722534
13	100.24599647521973	pulse	1	t		11.0	2.5	/experiments/knapen_AOT/AOT_stimuli/rescaled_final/0730_rv.mp4	0.0	116.61422848701477	
13	101.84579491615295	pulse	1	t		11.0	2.5	/experiments/knapen_AOT/AOT_stimuli/rescaled_final/0730_rv.mp4	0.0	118.214026927948	
13	102.36509704589844	fix_post	2		12	11.0	2.5	/experiments/knapen_AOT/AOT_stimuli/rescaled_final/0730_rv.mp4	0.0	118.73332905769348	0.10002589225769043
14	102.46512293815613	fix_pre	0		119	12.0	2.5	blank	1.0	118.83335494995117	0.9918403625488281
14	103.44879055023193	pulse	0	t		12.0	2.5	blank	1.0	119.81702256202698	
14	103.45696330070496	movie	1		301	12.0	2.5	blank	1.0	119.8251953125	2.508702516555786
14	105.04901790618896	pulse	1	t		12.0	2.5	blank	1.0	121.41724991798401	
14	105.96566581726074	fix_post	2		12	12.0	2.5	blank	1.0	122.33389782905579	0.10006356239318848
15	106.06572937965393	fix_pre	0		120	13.0	2.5	/experiments/knapen_AOT/AOT_stimuli/rescaled_final/1892_fw.mp4	0.0	122.43396139144897	1.0085046291351318
15	106.64933395385742	pulse	0	t		13.0	2.5	/experiments/knapen_AOT/AOT_stimuli/rescaled_final/1892_fw.mp4	0.0	123.01756596565247	
15	107.07423400878906	movie	1		287	13.0	2.5	/experiments/knapen_AOT/AOT_stimuli/rescaled_final/1892_fw.mp4	0.0	123.4424660205841	2.4919872283935547
15	108.24938225746155	pulse	1	t		13.0	2.5	/experiments/knapen_AOT/AOT_stimuli/rescaled_final/1892_fw.mp4	0.0	124.61761426925659	
15	109.56622123718262	fix_post	2		12	13.0	2.5	/experiments/knapen_AOT/AOT_stimuli/rescaled_final/1892_fw.mp4	0.0	125.93445324897766	0.09999847412109375
16	109.66621971130371	fix_pre	0		120	14.0	2.5	/experiments/knapen_AOT/AOT_stimuli/rescaled_final/0305_fw.mp4	0.0	126.03445172309875	1.0084986686706543
16	109.8497862815857	pulse	0	t		14.0	2.5	/experiments/knapen_AOT/AOT_stimuli/rescaled_final/0305_fw.mp4	0.0	126.21801829338074	
16	110.67471837997437	movie	1		289	14.0	2.5	/experiments/knapen_AOT/AOT_stimuli/rescaled_final/0305_fw.mp4	0.0	127.04295039176941	2.4920339584350586
16	111.44774317741394	pulse	1	t		14.0	2.5	/experiments/knapen_AOT/AOT_stimuli/rescaled_final/0305_fw.mp4	0.0	127.81597518920898	
16	113.04834127426147	pulse	1	t		14.0	2.5	/experiments/knapen_AOT/AOT_stimuli/rescaled_final/0305_fw.mp4	0.0	129.41657328605652	
16	113.16675233840942	fix_post	2		12	14.0	2.5	/experiments/knapen_AOT/AOT_stimuli/rescaled_final/0305_fw.mp4	0.0	129.53498435020447	0.10006380081176758
17	113.26681613922119	fix_pre	0		120	15.0	2.5	/experiments/knapen_AOT/AOT_stimuli/rescaled_final/0114_fw.mp4	0.0	129.63504815101624	1.0084526538848877
17	114.27526879310608	movie	1		286	15.0	2.5	/experiments/knapen_AOT/AOT_stimuli/rescaled_final/0114_fw.mp4	0.0	130.64350080490112	2.4920361042022705
17	114.64932227134705	pulse	1	t		15.0	2.5	/experiments/knapen_AOT/AOT_stimuli/rescaled_final/0114_fw.mp4	0.0	131.0175542831421	
17	116.25071167945862	pulse	1	t		15.0	2.5	/experiments/knapen_AOT/AOT_stimuli/rescaled_final/0114_fw.mp4	0.0	132.61894369125366	
17	116.76730489730835	fix_post	2		12	15.0	2.5	/experiments/knapen_AOT/AOT_stimuli/rescaled_final/0114_fw.mp4	0.0	133.1355369091034	0.10004591941833496
18	116.86735081672668	fix_pre	0		119	16.0	2.5	/experiments/knapen_AOT/AOT_stimuli/rescaled_final/1093_rv.mp4	0.0	133.23558282852173	1.0001022815704346
18	117.85097575187683	pulse	0	t		16.0	2.5	/experiments/knapen_AOT/AOT_stimuli/rescaled_final/1093_rv.mp4	0.0	134.21920776367188	
18	117.86745309829712	movie	1		283	16.0	2.5	/experiments/knapen_AOT/AOT_stimuli/rescaled_final/1093_rv.mp4	0.0	134.23568511009216	2.500380039215088
18	119.44954657554626	pulse	1	t		16.0	2.5	/experiments/knapen_AOT/AOT_stimuli/rescaled_final/1093_rv.mp4	0.0	135.8177785873413	
18	120.3678331375122	fix_post	2		12	16.0	2.5	/experiments/knapen_AOT/AOT_stimuli/rescaled_final/1093_rv.mp4	0.0	136.73606514930725	0.10002422332763672
19	120.46785736083984	fix_pre	0		120	17.0	2.5	/experiments/knapen_AOT/AOT_stimuli/rescaled_final/1067_fw.mp4	0.0	136.8360893726349	1.0086121559143066
19	121.05147194862366	pulse	0	t		17.0	2.5	/experiments/knapen_AOT/AOT_stimuli/rescaled_final/1067_fw.mp4	0.0	137.4197039604187	
19	121.47646951675415	movie	1		287	17.0	2.5	/experiments/knapen_AOT/AOT_stimuli/rescaled_final/1067_fw.mp4	0.0	137.8447015285492	2.49190092086792
19	122.65000987052917	pulse	1	t		17.0	2.5	/experiments/knapen_AOT/AOT_stimuli/rescaled_final/1067_fw.mp4	0.0	139.01824188232422	
19	123.96837043762207	fix_post	2		12	17.0	2.5	/experiments/knapen_AOT/AOT_stimuli/rescaled_final/1067_fw.mp4	0.0	140.33660244941711	0.10001182556152344
20	124.0683822631836	fix_pre	0		120	18.0	2.5	/experiments/knapen_AOT/AOT_stimuli/rescaled_final/0465_rv.mp4	0.0	140.43661427497864	1.0085737705230713
20	124.24430584907532	pulse	0	t		18.0	2.5	/experiments/knapen_AOT/AOT_stimuli/rescaled_final/0465_rv.mp4	0.0	140.61253786087036	
20	125.07695603370667	movie	1		290	18.0	2.5	/experiments/knapen_AOT/AOT_stimuli/rescaled_final/0465_rv.mp4	0.0	141.4451880455017	2.49196457862854
20	125.84420418739319	pulse	1	t		18.0	2.5	/experiments/knapen_AOT/AOT_stimuli/rescaled_final/0465_rv.mp4	0.0	142.21243619918823	
20	127.44420742988586	pulse	1	t		18.0	2.5	/experiments/knapen_AOT/AOT_stimuli/rescaled_final/0465_rv.mp4	0.0	143.8124394416809	
20	127.5689206123352	fix_post	2		12	18.0	2.5	/experiments/knapen_AOT/AOT_stimuli/rescaled_final/0465_rv.mp4	0.0	143.93715262413025	0.1000525951385498
21	127.66897320747375	fix_pre	0		120	19.0	2.5	/experiments/knapen_AOT/AOT_stimuli/rescaled_final/2012_fw.mp4	0.0	144.0372052192688	1.0084831714630127
21	128.67745637893677	movie	1		294	19.0	2.5	/experiments/knapen_AOT/AOT_stimuli/rescaled_final/2012_fw.mp4	0.0	145.0456883907318	2.492138385772705
21	129.04460263252258	pulse	1	t		19.0	2.5	/experiments/knapen_AOT/AOT_stimuli/rescaled_final/2012_fw.mp4	0.0	145.41283464431763	
21	130.6446135044098	pulse	1	t		19.0	2.5	/experiments/knapen_AOT/AOT_stimuli/rescaled_final/2012_fw.mp4	0.0	147.01284551620483	
21	131.16959476470947	fix_post	2		12	19.0	2.5	/experiments/knapen_AOT/AOT_stimuli/rescaled_final/2012_fw.mp4	0.0	147.53782677650452	0.09996724128723145
22	131.2695620059967	fix_pre	0		118	20.0	2.5	blank	1.0	147.63779401779175	0.98341965675354
22	132.24488997459412	pulse	0	t		20.0	2.5	blank	1.0	148.61312198638916	
22	132.25298166275024	movie	1		301	20.0	2.5	blank	1.0	148.6212136745453	2.508704662322998
22	133.8450951576233	pulse	1	t		20.0	2.5	blank	1.0	150.21332716941833	
22	134.76168632507324	fix_post	2		12	20.0	2.5	blank	1.0	151.1299183368683	0.10007405281066895
23	134.8617603778839	fix_pre	0		120	21.0	2.5	/experiments/knapen_AOT/AOT_stimuli/rescaled_final/1594_fw.mp4	0.0	151.22999238967896	1.0084254741668701
23	135.44555711746216	pulse	0	t		21.0	2.5	/experiments/knapen_AOT/AOT_stimuli/rescaled_final/1594_fw.mp4	0.0	151.8137891292572	
23	135.87018585205078	movie	1		282	21.0	2.5	/experiments/knapen_AOT/AOT_stimuli/rescaled_final/1594_fw.mp4	0.0	152.23841786384583	2.492018699645996
23	137.04557061195374	pulse	1	t		21.0	2.5	/experiments/knapen_AOT/AOT_stimuli/rescaled_final/1594_fw.mp4	0.0	153.41380262374878	
23	138.36220455169678	fix_post	2		12	21.0	2.5	/experiments/knapen_AOT/AOT_stimuli/rescaled_final/1594_fw.mp4	0.0	154.73043656349182	0.10002565383911133
24	138.4622302055359	fix_pre	0		120	22.0	2.5	/experiments/knapen_AOT/AOT_stimuli/rescaled_final/1009_fw.mp4	0.0	154.83046221733093	1.0084984302520752
24	138.6459448337555	pulse	0	t		22.0	2.5	/experiments/knapen_AOT/AOT_stimuli/rescaled_final/1009_fw.mp4	0.0	155.01417684555054	
24	139.47072863578796	movie	1		272	22.0	2.5	/experiments/knapen_AOT/AOT_stimuli/rescaled_final/1009_fw.mp4	0.0	155.838960647583	2.492009162902832
24	140.24603080749512	pulse	1	t		22.0	2.5	/experiments/knapen_AOT/AOT_stimuli/rescaled_final/1009_fw.mp4	0.0	156.61426281929016	
24	141.8442244529724	pulse	1	t		22.0	2.5	/experiments/knapen_AOT/AOT_stimuli/rescaled_final/1009_fw.mp4	0.0	158.21245646476746	
24	141.9627377986908	fix_post	2		12	22.0	2.5	/experiments/knapen_AOT/AOT_stimuli/rescaled_final/1009_fw.mp4	0.0	158.33096981048584	0.10007309913635254
25	142.06281089782715	fix_pre	0		120	23.0	2.5	/experiments/knapen_AOT/AOT_stimuli/rescaled_final/1501_rv.mp4	0.0	158.4310429096222	1.008448839187622
25	143.07125973701477	movie	1		284	23.0	2.5	/experiments/knapen_AOT/AOT_stimuli/rescaled_final/1501_rv.mp4	0.0	159.43949174880981	2.492018938064575
25	143.44464468955994	pulse	1	t		23.0	2.5	/experiments/knapen_AOT/AOT_stimuli/rescaled_final/1501_rv.mp4	0.0	159.81287670135498	
25	145.0446696281433	pulse	1	t		23.0	2.5	/experiments/knapen_AOT/AOT_stimuli/rescaled_final/1501_rv.mp4	0.0	161.41290163993835	
25	145.56327867507935	fix_post	2		12	23.0	2.5	/experiments/knapen_AOT/AOT_stimuli/rescaled_final/1501_rv.mp4	0.0	161.9315106868744	0.10005021095275879
26	145.6633288860321	fix_pre	0		119	24.0	2.5	/experiments/knapen_AOT/AOT_stimuli/rescaled_final/0087_fw.mp4	0.0	162.03156089782715	1.0001435279846191
26	146.6471405029297	pulse	0	t		24.0	2.5	/experiments/knapen_AOT/AOT_stimuli/rescaled_final/0087_fw.mp4	0.0	163.01537251472473	
26	146.66347241401672	movie	1		291	24.0	2.5	/experiments/knapen_AOT/AOT_stimuli/rescaled_final/0087_fw.mp4	0.0	163.03170442581177	2.5003538131713867
26	148.2454855442047	pulse	1	t		24.0	2.5	/experiments/knapen_AOT/AOT_stimuli/rescaled_final/0087_fw.mp4	0.0	164.61371755599976	
26	149.1638262271881	fix_post	2		12	24.0	2.5	/experiments/knapen_AOT/AOT_stimuli/rescaled_final/0087_fw.mp4	0.0	165.53205823898315	0.10002350807189941
27	149.26384973526	fix_pre	0		120	25.0	2.5	/experiments/knapen_AOT/AOT_stimuli/rescaled_final/0288_fw.mp4	0.0	165.63208174705505	1.0085487365722656
27	149.84759306907654	pulse	0	t		25.0	2.5	/experiments/knapen_AOT/AOT_stimuli/rescaled_final/0288_fw.mp4	0.0	166.21582508087158	
27	150.27239847183228	movie	1		291	25.0	2.5	/experiments/knapen_AOT/AOT_stimuli/rescaled_final/0288_fw.mp4	0.0	166.64063048362732	2.491973400115967
27	151.44596552848816	pulse	1	t		25.0	2.5	/experiments/knapen_AOT/AOT_stimuli/rescaled_final/0288_fw.mp4	0.0	167.8141975402832	
27	152.76437187194824	fix_post	2		12	25.0	2.5	/experiments/knapen_AOT/AOT_stimuli/rescaled_final/0288_fw.mp4	0.0	169.1326038837433	0.10003018379211426
28	152.86440205574036	fix_pre	0		120	26.0	2.5	/experiments/knapen_AOT/AOT_stimuli/rescaled_final/1242_fw.mp4	0.0	169.2326340675354	1.0084917545318604
28	153.04803705215454	pulse	0	t		26.0	2.5	/experiments/knapen_AOT/AOT_stimuli/rescaled_final/1242_fw.mp4	0.0	169.41626906394958	
28	153.87289381027222	movie	1		276	26.0	2.5	/experiments/knapen_AOT/AOT_stimuli/rescaled_final/1242_fw.mp4	0.0	170.24112582206726	2.4920201301574707
28	154.6462242603302	pulse	1	t		26.0	2.5	/experiments/knapen_AOT/AOT_stimuli/rescaled_final/1242_fw.mp4	0.0	171.01445627212524	
28	156.24618124961853	pulse	1	t		26.0	2.5	/experiments/knapen_AOT/AOT_stimuli/rescaled_final/1242_fw.mp4	0.0	172.61441326141357	
28	156.3649139404297	fix_post	2		12	26.0	2.5	/experiments/knapen_AOT/AOT_stimuli/rescaled_final/1242_fw.mp4	0.0	172.73314595222473	0.10000753402709961
29	156.4649214744568	fix_pre	0		120	27.0	2.5	/experiments/knapen_AOT/AOT_stimuli/rescaled_final/0953_rv.mp4	0.0	172.83315348625183	1.0085196495056152
29	157.4734411239624	movie	1		292	27.0	2.5	/experiments/knapen_AOT/AOT_stimuli/rescaled_final/0953_rv.mp4	0.0	173.84167313575745	2.492047071456909
29	157.84670233726501	pulse	1	t		27.0	2.5	/experiments/knapen_AOT/AOT_stimuli/rescaled_final/0953_rv.mp4	0.0	174.21493434906006	
29	159.44690775871277	pulse	1	t		27.0	2.5	/experiments/knapen_AOT/AOT_stimuli/rescaled_final/0953_rv.mp4	0.0	175.8151397705078	
29	159.9654881954193	fix_post	2		12	27.0	2.5	/experiments/knapen_AOT/AOT_stimuli/rescaled_final/0953_rv.mp4	0.0	176.33372020721436	0.09996461868286133
30	160.06545281410217	fix_pre	0		119	28.0	2.5	blank	1.0	176.43368482589722	0.9918308258056641
30	161.0491862297058	pulse	0	t		28.0	2.5	blank	1.0	177.41741824150085	
30	161.05728363990784	movie	1		301	28.0	2.5	blank	1.0	177.42551565170288	2.5087356567382812
30	162.64942240715027	pulse	1	t		28.0	2.5	blank	1.0	179.0176544189453	
30	163.56601929664612	fix_post	2		12	28.0	2.5	blank	1.0	179.93425130844116	0.1000220775604248
31	163.66604137420654	fix_pre	0		120	29.0	2.5	/experiments/knapen_AOT/AOT_stimuli/rescaled_final/1512_rv.mp4	0.0	180.0342733860016	1.0084686279296875
31	164.24968075752258	pulse	0	t		29.0	2.5	/experiments/knapen_AOT/AOT_stimuli/rescaled_final/1512_rv.mp4	0.0	180.61791276931763	
31	164.67451000213623	movie	1		291	29.0	2.5	/experiments/knapen_AOT/AOT_stimuli/rescaled_final/1512_rv.mp4	0.0	181.04274201393127	2.49202561378479
31	165.84856367111206	pulse	1	t		29.0	2.5	/experiments/knapen_AOT/AOT_stimuli/rescaled_final/1512_rv.mp4	0.0	182.2167956829071	
31	167.16653561592102	fix_post	2		12	29.0	2.5	/experiments/knapen_AOT/AOT_stimuli/rescaled_final/1512_rv.mp4	0.0	183.53476762771606	0.10000872611999512
32	167.26654434204102	fix_pre	0		120	30.0	2.5	/experiments/knapen_AOT/AOT_stimuli/rescaled_final/1774_fw.mp4	0.0	183.63477635383606	1.0085134506225586
32	167.45019268989563	pulse	0	t		30.0	2.5	/experiments/knapen_AOT/AOT_stimuli/rescaled_final/1774_fw.mp4	0.0	183.81842470169067	
32	168.27505779266357	movie	1		280	30.0	2.5	/experiments/knapen_AOT/AOT_stimuli/rescaled_final/1774_fw.mp4	0.0	184.64328980445862	2.4920239448547363
32	169.0479860305786	pulse	1	t		30.0	2.5	/experiments/knapen_AOT/AOT_stimuli/rescaled_final/1774_fw.mp4	0.0	185.41621804237366	
32	170.65036702156067	pulse	1	t		30.0	2.5	/experiments/knapen_AOT/AOT_stimuli/rescaled_final/1774_fw.mp4	0.0	187.0185990333557	
32	170.7670817375183	fix_post	2		12	30.0	2.5	/experiments/knapen_AOT/AOT_stimuli/rescaled_final/1774_fw.mp4	0.0	187.13531374931335	0.10004615783691406
33	170.86712789535522	fix_pre	0		120	31.0	2.5	/experiments/knapen_AOT/AOT_stimuli/rescaled_final/1615_fw.mp4	0.0	187.23535990715027	1.0084645748138428
33	171.87559247016907	movie	1		293	31.0	2.5	/experiments/knapen_AOT/AOT_stimuli/rescaled_final/1615_fw.mp4	0.0	188.2438244819641	2.4920873641967773
33	172.24911785125732	pulse	1	t		31.0	2.5	/experiments/knapen_AOT/AOT_stimuli/rescaled_final/1615_fw.mp4	0.0	188.61734986305237	
33	173.84992671012878	pulse	1	t		31.0	2.5	/experiments/knapen_AOT/AOT_stimuli/rescaled_final/1615_fw.mp4	0.0	190.21815872192383	
33	174.36767983436584	fix_post	2		12	31.0	2.5	/experiments/knapen_AOT/AOT_stimuli/rescaled_final/1615_fw.mp4	0.0	190.7359118461609	0.10010337829589844
34	174.46778321266174	fix_pre	0		119	32.0	2.5	/experiments/knapen_AOT/AOT_stimuli/rescaled_final/0143_fw.mp4	0.0	190.8360152244568	1.0000300407409668
34	175.45133757591248	pulse	0	t		32.0	2.5	/experiments/knapen_AOT/AOT_stimuli/rescaled_final/0143_fw.mp4	0.0	191.81956958770752	
34	175.4678132534027	movie	1		290	32.0	2.5	/experiments/knapen_AOT/AOT_stimuli/rescaled_final/0143_fw.mp4	0.0	191.83604526519775	2.5003325939178467
34	177.04995465278625	pulse	1	t		32.0	2.5	/experiments/knapen_AOT/AOT_stimuli/rescaled_final/0143_fw.mp4	0.0	193.4181866645813	
34	177.96814584732056	fix_post	2		12	32.0	2.5	/experiments/knapen_AOT/AOT_stimuli/rescaled_final/0143_fw.mp4	0.0	194.3363778591156	0.10008978843688965
35	178.06823563575745	fix_pre	0		120	33.0	2.5	/experiments/knapen_AOT/AOT_stimuli/rescaled_final/1550_rv.mp4	0.0	194.4364676475525	1.0084638595581055
35	178.65208840370178	pulse	0	t		33.0	2.5	/experiments/knapen_AOT/AOT_stimuli/rescaled_final/1550_rv.mp4	0.0	195.02032041549683	
35	179.07669949531555	movie	1		287	33.0	2.5	/experiments/knapen_AOT/AOT_stimuli/rescaled_final/1550_rv.mp4	0.0	195.4449315071106	2.491997241973877
35	180.2502155303955	pulse	1	t		33.0	2.5	/experiments/knapen_AOT/AOT_stimuli/rescaled_final/1550_rv.mp4	0.0	196.61844754219055	
35	181.56869673728943	fix_post	2		12	33.0	2.5	/experiments/knapen_AOT/AOT_stimuli/rescaled_final/1550_rv.mp4	0.0	197.93692874908447	0.10003471374511719
36	181.66873145103455	fix_pre	0		120	34.0	2.5	blank	1.0	198.0369634628296	1.0001351833343506
36	181.85239052772522	pulse	0	t		34.0	2.5	blank	1.0	198.22062253952026	
36	182.6688666343689	movie	1		300	34.0	2.5	blank	1.0	199.03709864616394	2.500354528427124
36	183.44467496871948	pulse	1	t		34.0	2.5	blank	1.0	199.81290698051453	
36	185.04460620880127	pulse	1	t		34.0	2.5	blank	1.0	201.4128382205963	
36	185.16922116279602	fix_post	2		12	34.0	2.5	blank	1.0	201.53745317459106	0.10004949569702148
37	185.26927065849304	fix_pre	0		120	35.0	2.5	/experiments/knapen_AOT/AOT_stimuli/rescaled_final/1858_fw.mp4	0.0	201.6375026702881	1.0084764957427979
37	186.27774715423584	movie	1		284	35.0	2.5	/experiments/knapen_AOT/AOT_stimuli/rescaled_final/1858_fw.mp4	0.0	202.64597916603088	2.492016077041626
37	186.6453731060028	pulse	1	t		35.0	2.5	/experiments/knapen_AOT/AOT_stimuli/rescaled_final/1858_fw.mp4	0.0	203.01360511779785	
37	188.24490785598755	pulse	1	t		35.0	2.5	/experiments/knapen_AOT/AOT_stimuli/rescaled_final/1858_fw.mp4	0.0	204.6131398677826	
37	188.76976323127747	fix_post	2		12	35.0	2.5	/experiments/knapen_AOT/AOT_stimuli/rescaled_final/1858_fw.mp4	0.0	205.1379952430725	0.10001969337463379
38	188.8697829246521	fix_pre	0		118	36.0	2.5	/experiments/knapen_AOT/AOT_stimuli/rescaled_final/1781_fw.mp4	0.0	205.23801493644714	0.9918403625488281
38	189.8451898097992	pulse	0	t		36.0	2.5	/experiments/knapen_AOT/AOT_stimuli/rescaled_final/1781_fw.mp4	0.0	206.21342182159424	
38	189.86162328720093	movie	1		290	36.0	2.5	/experiments/knapen_AOT/AOT_stimuli/rescaled_final/1781_fw.mp4	0.0	206.22985529899597	2.5004477500915527
38	191.4455258846283	pulse	1	t		36.0	2.5	/experiments/knapen_AOT/AOT_stimuli/rescaled_final/1781_fw.mp4	0.0	207.81375789642334	
38	192.36207103729248	fix_post	2		12	36.0	2.5	/experiments/knapen_AOT/AOT_stimuli/rescaled_final/1781_fw.mp4	0.0	208.73030304908752	0.09995198249816895
39	192.46202301979065	fix_pre	0		120	37.0	2.5	/experiments/knapen_AOT/AOT_stimuli/rescaled_final/0830_rv.mp4	0.0	208.8302550315857	1.0085198879241943
39	193.04595756530762	pulse	0	t		37.0	2.5	/experiments/knapen_AOT/AOT_stimuli/rescaled_final/0830_rv.mp4	0.0	209.41418957710266	
39	193.47054290771484	movie	1		285	37.0	2.5	/experiments/knapen_AOT/AOT_stimuli/rescaled_final/0830_rv.mp4	0.0	209.8387749195099	2.491974353790283
39	194.64587259292603	pulse	1	t		37.0	2.5	/experiments/knapen_AOT/AOT_stimuli/rescaled_final/0830_rv.mp4	0.0	211.01410460472107	
39	195.96251726150513	fix_post	2		12	37.0	2.5	/experiments/knapen_AOT/AOT_stimuli/rescaled_final/0830_rv.mp4	0.0	212.33074927330017	0.10002303123474121
40	196.06254029273987	fix_pre	0		120	38.0	2.5	/experiments/knapen_AOT/AOT_stimuli/rescaled_final/1566_rv.mp4	0.0	212.4307723045349	1.0084996223449707
40	196.2460765838623	pulse	0	t		38.0	2.5	/experiments/knapen_AOT/AOT_stimuli/rescaled_final/1566_rv.mp4	0.0	212.61430859565735	
40	197.07103991508484	movie	1		285	38.0	2.5	/experiments/knapen_AOT/AOT_stimuli/rescaled_final/1566_rv.mp4	0.0	213.43927192687988	2.4920334815979004
40	197.8464503288269	pulse	1	t		38.0	2.5	/experiments/knapen_AOT/AOT_stimuli/rescaled_final/1566_rv.mp4	0.0	214.21468234062195	
40	199.44660592079163	pulse	1	t		38.0	2.5	/experiments/knapen_AOT/AOT_stimuli/rescaled_final/1566_rv.mp4	0.0	215.81483793258667	
40	199.56307339668274	fix_post	2		12	38.0	2.5	/experiments/knapen_AOT/AOT_stimuli/rescaled_final/1566_rv.mp4	0.0	215.93130540847778	0.10001516342163086
41	199.66308856010437	fix_pre	0		120	39.0	2.5	/experiments/knapen_AOT/AOT_stimuli/rescaled_final/0794_rv.mp4	0.0	216.0313205718994	1.0084986686706543
41	200.67158722877502	movie	1		287	39.0	2.5	/experiments/knapen_AOT/AOT_stimuli/rescaled_final/0794_rv.mp4	0.0	217.03981924057007	2.492041826248169
41	201.04599237442017	pulse	1	t		39.0	2.5	/experiments/knapen_AOT/AOT_stimuli/rescaled_final/0794_rv.mp4	0.0	217.4142243862152	
41	202.6461718082428	pulse	1	t		39.0	2.5	/experiments/knapen_AOT/AOT_stimuli/rescaled_final/0794_rv.mp4	0.0	219.01440382003784	
41	203.1636290550232	fix_post	2		12	39.0	2.5	/experiments/knapen_AOT/AOT_stimuli/rescaled_final/0794_rv.mp4	0.0	219.53186106681824	0.09999346733093262
42	203.26362252235413	fix_pre	0		119	40.0	2.5	/experiments/knapen_AOT/AOT_stimuli/rescaled_final/1646_rv.mp4	0.0	219.63185453414917	1.0001649856567383
42	204.2473955154419	pulse	0	t		40.0	2.5	/experiments/knapen_AOT/AOT_stimuli/rescaled_final/1646_rv.mp4	0.0	220.61562752723694	
42	204.26378750801086	movie	1		283	40.0	2.5	/experiments/knapen_AOT/AOT_stimuli/rescaled_final/1646_rv.mp4	0.0	220.6320195198059	2.5003738403320312
42	205.8463203907013	pulse	1	t		40.0	2.5	/experiments/knapen_AOT/AOT_stimuli/rescaled_final/1646_rv.mp4	0.0	222.21455240249634	
42	206.7641613483429	fix_post	2		12	40.0	2.5	/experiments/knapen_AOT/AOT_stimuli/rescaled_final/1646_rv.mp4	0.0	223.13239336013794	0.10003209114074707
43	206.86419343948364	fix_pre	0		120	41.0	2.5	blank	1.0	223.2324254512787	1.000126838684082
43	207.44783329963684	pulse	0	t		41.0	2.5	blank	1.0	223.81606531143188	
43	207.86432027816772	movie	1		300	41.0	2.5	blank	1.0	224.23255228996277	2.500377893447876
43	209.04802012443542	pulse	1	t		41.0	2.5	blank	1.0	225.41625213623047	
43	210.3646981716156	fix_post	2		12	41.0	2.5	blank	1.0	226.73293018341064	0.10003352165222168
44	210.46473169326782	fix_pre	0		120	42.0	2.5	/experiments/knapen_AOT/AOT_stimuli/rescaled_final/1181_rv.mp4	0.0	226.83296370506287	1.0085625648498535
44	210.64827156066895	pulse	0	t		42.0	2.5	/experiments/knapen_AOT/AOT_stimuli/rescaled_final/1181_rv.mp4	0.0	227.016503572464	
44	211.47329425811768	movie	1		286	42.0	2.5	/experiments/knapen_AOT/AOT_stimuli/rescaled_final/1181_rv.mp4	0.0	227.84152626991272	2.4919321537017822
44	212.2471067905426	pulse	1	t		42.0	2.5	/experiments/knapen_AOT/AOT_stimuli/rescaled_final/1181_rv.mp4	0.0	228.61533880233765	
44	213.84695839881897	pulse	1	t		42.0	2.5	/experiments/knapen_AOT/AOT_stimuli/rescaled_final/1181_rv.mp4	0.0	230.215190410614	
44	213.96522641181946	fix_post	2		12	42.0	2.5	/experiments/knapen_AOT/AOT_stimuli/rescaled_final/1181_rv.mp4	0.0	230.3334584236145	0.10002541542053223
45	214.06525182724	fix_pre	0		120	43.0	2.5	/experiments/knapen_AOT/AOT_stimuli/rescaled_final/0775_fw.mp4	0.0	230.43348383903503	1.0086257457733154
45	215.0738775730133	movie	1		268	43.0	2.5	/experiments/knapen_AOT/AOT_stimuli/rescaled_final/0775_fw.mp4	0.0	231.44210958480835	2.491884708404541
45	215.44728326797485	pulse	1	t		43.0	2.5	/experiments/knapen_AOT/AOT_stimuli/rescaled_final/0775_fw.mp4	0.0	231.8155152797699	
45	217.04696822166443	pulse	1	t		43.0	2.5	/experiments/knapen_AOT/AOT_stimuli/rescaled_final/0775_fw.mp4	0.0	233.41520023345947	
45	217.56576228141785	fix_post	2		12	43.0	2.5	/experiments/knapen_AOT/AOT_stimuli/rescaled_final/0775_fw.mp4	0.0	233.9339942932129	0.10002994537353516
46	217.66579222679138	fix_pre	0		119	44.0	2.5	/experiments/knapen_AOT/AOT_stimuli/rescaled_final/1892_rv.mp4	0.0	234.03402423858643	1.0002005100250244
46	218.64950704574585	pulse	0	t		44.0	2.5	/experiments/knapen_AOT/AOT_stimuli/rescaled_final/1892_rv.mp4	0.0	235.0177390575409	
46	218.6659927368164	movie	1		288	44.0	2.5	/experiments/knapen_AOT/AOT_stimuli/rescaled_final/1892_rv.mp4	0.0	235.03422474861145	2.500357151031494
46	220.24786710739136	pulse	1	t		44.0	2.5	/experiments/knapen_AOT/AOT_stimuli/rescaled_final/1892_rv.mp4	0.0	236.6160991191864	
46	221.1663498878479	fix_post	2		12	44.0	2.5	/experiments/knapen_AOT/AOT_stimuli/rescaled_final/1892_rv.mp4	0.0	237.53458189964294	0.10003972053527832
47	221.26638960838318	fix_pre	0		120	45.0	2.5	/experiments/knapen_AOT/AOT_stimuli/rescaled_final/1117_rv.mp4	0.0	237.63462162017822	1.0084388256072998
47	221.85000038146973	pulse	0	t		45.0	2.5	/experiments/knapen_AOT/AOT_stimuli/rescaled_final/1117_rv.mp4	0.0	238.21823239326477	
47	222.27482843399048	movie	1		289	45.0	2.5	/experiments/knapen_AOT/AOT_stimuli/rescaled_final/1117_rv.mp4	0.0	238.64306044578552	2.492069959640503
47	223.44840931892395	pulse	1	t		45.0	2.5	/experiments/knapen_AOT/AOT_stimuli/rescaled_final/1117_rv.mp4	0.0	239.816641330719	
47	224.76689839363098	fix_post	2		12	45.0	2.5	/experiments/knapen_AOT/AOT_stimuli/rescaled_final/1117_rv.mp4	0.0	241.13513040542603	0.10004281997680664
48	224.8669412136078	fix_pre	0		120	46.0	2.5	/experiments/knapen_AOT/AOT_stimuli/rescaled_final/2084_rv.mp4	0.0	241.23517322540283	1.0085320472717285
48	225.05045247077942	pulse	0	t		46.0	2.5	/experiments/knapen_AOT/AOT_stimuli/rescaled_final/2084_rv.mp4	0.0	241.41868448257446	
48	225.87547326087952	movie	1		285	46.0	2.5	/experiments/knapen_AOT/AOT_stimuli/rescaled_final/2084_rv.mp4	0.0	242.24370527267456	2.4920237064361572
48	226.64860248565674	pulse	1	t		46.0	2.5	/experiments/knapen_AOT/AOT_stimuli/rescaled_final/2084_rv.mp4	0.0	243.01683449745178	
48	228.24885249137878	pulse	1	t		46.0	2.5	/experiments/knapen_AOT/AOT_stimuli/rescaled_final/2084_rv.mp4	0.0	244.61708450317383	
48	228.36749696731567	fix_post	2		12	46.0	2.5	/experiments/knapen_AOT/AOT_stimuli/rescaled_final/2084_rv.mp4	0.0	244.73572897911072	0.10011053085327148
49	228.46760749816895	fix_pre	0		120	47.0	2.5	/experiments/knapen_AOT/AOT_stimuli/rescaled_final/0173_fw.mp4	0.0	244.835839509964	1.0083279609680176
49	229.47593545913696	movie	1		289	47.0	2.5	/experiments/knapen_AOT/AOT_stimuli/rescaled_final/0173_fw.mp4	0.0	245.844167470932	2.4920053482055664
49	229.849543094635	pulse	1	t		47.0	2.5	/experiments/knapen_AOT/AOT_stimuli/rescaled_final/0173_fw.mp4	0.0	246.21777510643005	
49	231.44902968406677	pulse	1	t		47.0	2.5	/experiments/knapen_AOT/AOT_stimuli/rescaled_final/0173_fw.mp4	0.0	247.81726169586182	
49	231.96794080734253	fix_post	2		12	47.0	2.5	/experiments/knapen_AOT/AOT_stimuli/rescaled_final/0173_fw.mp4	0.0	248.33617281913757	0.10000872611999512
50	232.06794953346252	fix_pre	0		119	48.0	2.5	/experiments/knapen_AOT/AOT_stimuli/rescaled_final/1936_rv.mp4	0.0	248.43618154525757	1.0001652240753174
50	233.05166506767273	pulse	0	t		48.0	2.5	/experiments/knapen_AOT/AOT_stimuli/rescaled_final/1936_rv.mp4	0.0	249.41989707946777	
50	233.06811475753784	movie	1		286	48.0	2.5	/experiments/knapen_AOT/AOT_stimuli/rescaled_final/1936_rv.mp4	0.0	249.43634676933289	2.5003650188446045
50	234.65039038658142	pulse	1	t		48.0	2.5	/experiments/knapen_AOT/AOT_stimuli/rescaled_final/1936_rv.mp4	0.0	251.01862239837646	
50	235.56847977638245	fix_post	2		12	48.0	2.5	/experiments/knapen_AOT/AOT_stimuli/rescaled_final/1936_rv.mp4	0.0	251.9367117881775	0.10002493858337402
51	235.66850471496582	fix_pre	0		120	49.0	2.5	blank	1.0	252.03673672676086	1.0001578330993652
51	236.25227117538452	pulse	0	t		49.0	2.5	blank	1.0	252.62050318717957	
51	236.66866254806519	movie	1		300	49.0	2.5	blank	1.0	253.03689455986023	2.500358819961548
51	237.85241603851318	pulse	1	t		49.0	2.5	blank	1.0	254.22064805030823	
51	239.16902136802673	fix_post	2		12	49.0	2.5	blank	1.0	255.53725337982178	0.1000516414642334
52	239.26907300949097	fix_pre	0		120	50.0	2.5	/experiments/knapen_AOT/AOT_stimuli/rescaled_final/1887_fw.mp4	0.0	255.637305021286	1.008470058441162
52	239.44595050811768	pulse	0	t		50.0	2.5	/experiments/knapen_AOT/AOT_stimuli/rescaled_final/1887_fw.mp4	0.0	255.81418251991272	
52	240.27754306793213	movie	1		290	50.0	2.5	/experiments/knapen_AOT/AOT_stimuli/rescaled_final/1887_fw.mp4	0.0	256.6457750797272	2.492020845413208
52	241.05065274238586	pulse	1	t		50.0	2.5	/experiments/knapen_AOT/AOT_stimuli/rescaled_final/1887_fw.mp4	0.0	257.4188847541809	
52	242.64509749412537	pulse	1	t		50.0	2.5	/experiments/knapen_AOT/AOT_stimuli/rescaled_final/1887_fw.mp4	0.0	259.0133295059204	
52	242.76956391334534	fix_post	2		12	50.0	2.5	/experiments/knapen_AOT/AOT_stimuli/rescaled_final/1887_fw.mp4	0.0	259.1377959251404	0.10001349449157715
53	242.8695774078369	fix_pre	0		120	51.0	2.5	/experiments/knapen_AOT/AOT_stimuli/rescaled_final/1214_fw.mp4	0.0	259.23780941963196	1.0085346698760986
53	243.878112077713	movie	1		283	51.0	2.5	/experiments/knapen_AOT/AOT_stimuli/rescaled_final/1214_fw.mp4	0.0	260.24634408950806	2.4919655323028564
53	244.24539303779602	pulse	1	t		51.0	2.5	/experiments/knapen_AOT/AOT_stimuli/rescaled_final/1214_fw.mp4	0.0	260.61362504959106	
53	245.84526538848877	pulse	1	t		51.0	2.5	/experiments/knapen_AOT/AOT_stimuli/rescaled_final/1214_fw.mp4	0.0	262.2134974002838	
53	246.37007761001587	fix_post	2		12	51.0	2.5	/experiments/knapen_AOT/AOT_stimuli/rescaled_final/1214_fw.mp4	0.0	262.7383096218109	0.10003423690795898
54	246.47011184692383	fix_pre	0		118	52.0	2.5	/experiments/knapen_AOT/AOT_stimuli/rescaled_final/0521_fw.mp4	0.0	262.8383438587189	0.9918355941772461
54	247.44551062583923	pulse	0	t		52.0	2.5	/experiments/knapen_AOT/AOT_stimuli/rescaled_final/0521_fw.mp4	0.0	263.8137426376343	
54	247.46194744110107	movie	1		293	52.0	2.5	/experiments/knapen_AOT/AOT_stimuli/rescaled_final/0521_fw.mp4	0.0	263.8301794528961	2.5003764629364014
54	249.04579496383667	pulse	1	t		52.0	2.5	/experiments/knapen_AOT/AOT_stimuli/rescaled_final/0521_fw.mp4	0.0	265.4140269756317	
54	249.96232390403748	fix_post	2		12	52.0	2.5	/experiments/knapen_AOT/AOT_stimuli/rescaled_final/0521_fw.mp4	0.0	266.3305559158325	0.10002779960632324
55	250.0623517036438	fix_pre	0		120	53.0	2.5	/experiments/knapen_AOT/AOT_stimuli/rescaled_final/2091_rv.mp4	0.0	266.43058371543884	1.0084583759307861
55	250.64609098434448	pulse	0	t		53.0	2.5	/experiments/knapen_AOT/AOT_stimuli/rescaled_final/2091_rv.mp4	0.0	267.0143229961395	
55	251.07081007957458	movie	1		290	53.0	2.5	/experiments/knapen_AOT/AOT_stimuli/rescaled_final/2091_rv.mp4	0.0	267.43904209136963	2.4920618534088135
55	252.24620175361633	pulse	1	t		53.0	2.5	/experiments/knapen_AOT/AOT_stimuli/rescaled_final/2091_rv.mp4	0.0	268.6144337654114	
55	253.5628719329834	fix_post	2		12	53.0	2.5	/experiments/knapen_AOT/AOT_stimuli/rescaled_final/2091_rv.mp4	0.0	269.93110394477844	0.10005712509155273
56	253.66292905807495	fix_pre	0		120	54.0	2.5	blank	1.0	270.03116106987	1.0000944137573242
56	253.84649443626404	pulse	0	t		54.0	2.5	blank	1.0	270.2147264480591	
56	254.66302347183228	movie	1		300	54.0	2.5	blank	1.0	271.0312554836273	2.500523328781128
56	255.44673037528992	pulse	1	t		54.0	2.5	blank	1.0	271.81496238708496	
56	257.04697012901306	pulse	1	t		54.0	2.5	blank	1.0	273.4152021408081	
56	257.1635468006134	fix_post	2		12	54.0	2.5	blank	1.0	273.53177881240845	0.09991860389709473
57	257.2634654045105	fix_pre	0		120	55.0	2.5	/experiments/knapen_AOT/AOT_stimuli/rescaled_final/1004_fw.mp4	0.0	273.63169741630554	1.0084571838378906
57	258.2719225883484	movie	1		275	55.0	2.5	/experiments/knapen_AOT/AOT_stimuli/rescaled_final/1004_fw.mp4	0.0	274.64015460014343	2.4920196533203125
57	258.64551424980164	pulse	1	t		55.0	2.5	/experiments/knapen_AOT/AOT_stimuli/rescaled_final/1004_fw.mp4	0.0	275.0137462615967	
57	260.2473785877228	pulse	1	t		55.0	2.5	/experiments/knapen_AOT/AOT_stimuli/rescaled_final/1004_fw.mp4	0.0	276.6156105995178	
57	260.7639422416687	fix_post	2		12	55.0	2.5	/experiments/knapen_AOT/AOT_stimuli/rescaled_final/1004_fw.mp4	0.0	277.13217425346375	0.10000753402709961
58	260.8639497756958	fix_pre	0		119	56.0	2.5	/experiments/knapen_AOT/AOT_stimuli/rescaled_final/0804_fw.mp4	0.0	277.23218178749084	1.008538007736206
58	261.8476414680481	pulse	0	t		56.0	2.5	/experiments/knapen_AOT/AOT_stimuli/rescaled_final/0804_fw.mp4	0.0	278.21587347984314	
58	261.872487783432	movie	1		284	56.0	2.5	/experiments/knapen_AOT/AOT_stimuli/rescaled_final/0804_fw.mp4	0.0	278.24071979522705	2.491999387741089
58	263.445992231369	pulse	1	t		56.0	2.5	/experiments/knapen_AOT/AOT_stimuli/rescaled_final/0804_fw.mp4	0.0	279.81422424316406	
58	264.3644871711731	fix_post	2		12	56.0	2.5	/experiments/knapen_AOT/AOT_stimuli/rescaled_final/0804_fw.mp4	0.0	280.73271918296814	0.10002517700195312
59	264.46451234817505	fix_pre	0		120	57.0	2.5	/experiments/knapen_AOT/AOT_stimuli/rescaled_final/0295_fw.mp4	0.0	280.8327443599701	1.0085372924804688
59	265.0481159687042	pulse	0	t		57.0	2.5	/experiments/knapen_AOT/AOT_stimuli/rescaled_final/0295_fw.mp4	0.0	281.41634798049927	
59	265.4730496406555	movie	1		279	57.0	2.5	/experiments/knapen_AOT/AOT_stimuli/rescaled_final/0295_fw.mp4	0.0	281.84128165245056	2.4920060634613037
59	266.6464331150055	pulse	1	t		57.0	2.5	/experiments/knapen_AOT/AOT_stimuli/rescaled_final/0295_fw.mp4	0.0	283.01466512680054	
59	267.9650557041168	fix_post	2		12	57.0	2.5	/experiments/knapen_AOT/AOT_stimuli/rescaled_final/0295_fw.mp4	0.0	284.33328771591187	0.09994697570800781
60	268.06500267982483	fix_pre	0		120	58.0	2.5	/experiments/knapen_AOT/AOT_stimuli/rescaled_final/2067_fw.mp4	0.0	284.4332346916199	1.008556842803955
60	268.2485988140106	pulse	0	t		58.0	2.5	/experiments/knapen_AOT/AOT_stimuli/rescaled_final/2067_fw.mp4	0.0	284.61683082580566	
60	269.0735595226288	movie	1		287	58.0	2.5	/experiments/knapen_AOT/AOT_stimuli/rescaled_final/2067_fw.mp4	0.0	285.4417915344238	2.4919981956481934
60	269.8492624759674	pulse	1	t		58.0	2.5	/experiments/knapen_AOT/AOT_stimuli/rescaled_final/2067_fw.mp4	0.0	286.21749448776245	
60	271.44720482826233	pulse	1	t		58.0	2.5	/experiments/knapen_AOT/AOT_stimuli/rescaled_final/2067_fw.mp4	0.0	287.8154368400574	
60	271.565557718277	fix_post	2		12	58.0	2.5	/experiments/knapen_AOT/AOT_stimuli/rescaled_final/2067_fw.mp4	0.0	287.933789730072	0.10006403923034668
61	271.6656217575073	fix_pre	0		120	59.0	2.5	/experiments/knapen_AOT/AOT_stimuli/rescaled_final/0002_fw.mp4	0.0	288.03385376930237	1.008481740951538
61	272.67410349845886	movie	1		280	59.0	2.5	/experiments/knapen_AOT/AOT_stimuli/rescaled_final/0002_fw.mp4	0.0	289.0423355102539	2.4920389652252197
61	273.048446893692	pulse	1	t		59.0	2.5	/experiments/knapen_AOT/AOT_stimuli/rescaled_final/0002_fw.mp4	0.0	289.41667890548706	
61	274.6476378440857	pulse	1	t		59.0	2.5	/experiments/knapen_AOT/AOT_stimuli/rescaled_final/0002_fw.mp4	0.0	291.01586985588074	
61	275.1661424636841	fix_post	2		12	59.0	2.5	/experiments/knapen_AOT/AOT_stimuli/rescaled_final/0002_fw.mp4	0.0	291.5343744754791	0.09993934631347656
62	275.26608180999756	fix_pre	0		119	60.0	2.5	/experiments/knapen_AOT/AOT_stimuli/rescaled_final/1350_fw.mp4	0.0	291.6343138217926	1.0001928806304932
62	276.2498288154602	pulse	0	t		60.0	2.5	/experiments/knapen_AOT/AOT_stimuli/rescaled_final/1350_fw.mp4	0.0	292.61806082725525	
62	276.26627469062805	movie	1		283	60.0	2.5	/experiments/knapen_AOT/AOT_stimuli/rescaled_final/1350_fw.mp4	0.0	292.6345067024231	2.500369071960449
62	277.84989643096924	pulse	1	t		60.0	2.5	/experiments/knapen_AOT/AOT_stimuli/rescaled_final/1350_fw.mp4	0.0	294.2181284427643	
62	278.7666437625885	fix_post	2		12	60.0	2.5	/experiments/knapen_AOT/AOT_stimuli/rescaled_final/1350_fw.mp4	0.0	295.13487577438354	0.10013651847839355
63	278.8667802810669	fix_pre	0		120	61.0	2.5	/experiments/knapen_AOT/AOT_stimuli/rescaled_final/1117_fw.mp4	0.0	295.23501229286194	1.0083420276641846
63	279.4503448009491	pulse	0	t		61.0	2.5	/experiments/knapen_AOT/AOT_stimuli/rescaled_final/1117_fw.mp4	0.0	295.81857681274414	
63	279.8751223087311	movie	1		291	61.0	2.5	/experiments/knapen_AOT/AOT_stimuli/rescaled_final/1117_fw.mp4	0.0	296.2433543205261	2.5004308223724365
63	281.0487184524536	pulse	1	t		61.0	2.5	/experiments/knapen_AOT/AOT_stimuli/rescaled_final/1117_fw.mp4	0.0	297.41695046424866	
63	282.3755531311035	fix_post	2		11	61.0	2.5	/experiments/knapen_AOT/AOT_stimuli/rescaled_final/1117_fw.mp4	0.0	298.74378514289856	0.09165239334106445
64	282.4672055244446	fix_pre	0		120	62.0	2.5	/experiments/knapen_AOT/AOT_stimuli/rescaled_final/1892_fw.mp4	0.0	298.8354375362396	1.0085065364837646
64	282.65073823928833	pulse	0	t		62.0	2.5	/experiments/knapen_AOT/AOT_stimuli/rescaled_final/1892_fw.mp4	0.0	299.0189702510834	
64	283.47571206092834	movie	1		282	62.0	2.5	/experiments/knapen_AOT/AOT_stimuli/rescaled_final/1892_fw.mp4	0.0	299.8439440727234	2.492011070251465
64	284.24866676330566	pulse	1	t		62.0	2.5	/experiments/knapen_AOT/AOT_stimuli/rescaled_final/1892_fw.mp4	0.0	300.6168987751007	
64	285.84930062294006	pulse	1	t		62.0	2.5	/experiments/knapen_AOT/AOT_stimuli/rescaled_final/1892_fw.mp4	0.0	302.2175326347351	
64	285.9677231311798	fix_post	2		12	62.0	2.5	/experiments/knapen_AOT/AOT_stimuli/rescaled_final/1892_fw.mp4	0.0	302.33595514297485	0.10003209114074707
65	286.06775522232056	fix_pre	0		120	63.0	2.5	blank	1.0	302.4359872341156	1.000197172164917
65	287.0679523944855	movie	1		300	63.0	2.5	blank	1.0	303.4361844062805	2.500304698944092
65	287.4514796733856	pulse	1	t		63.0	2.5	blank	1.0	303.81971168518066	
65	289.0517120361328	pulse	1	t		63.0	2.5	blank	1.0	305.41994404792786	
65	289.56825709342957	fix_post	2		12	63.0	2.5	blank	1.0	305.9364891052246	0.10002255439758301
66	289.66827964782715	fix_pre	0		119	64.0	2.5	/experiments/knapen_AOT/AOT_stimuli/rescaled_final/1327_fw.mp4	0.0	306.0365116596222	1.0002954006195068
66	290.6519765853882	pulse	0	t		64.0	2.5	/experiments/knapen_AOT/AOT_stimuli/rescaled_final/1327_fw.mp4	0.0	307.0202085971832	
66	290.66857504844666	movie	1		289	64.0	2.5	/experiments/knapen_AOT/AOT_stimuli/rescaled_final/1327_fw.mp4	0.0	307.0368070602417	2.5002572536468506
66	292.25055480003357	pulse	1	t		64.0	2.5	/experiments/knapen_AOT/AOT_stimuli/rescaled_final/1327_fw.mp4	0.0	308.6187868118286	
66	293.1688323020935	fix_post	2		12	64.0	2.5	/experiments/knapen_AOT/AOT_stimuli/rescaled_final/1327_fw.mp4	0.0	309.53706431388855	0.09998822212219238
67	293.2688205242157	fix_pre	0		120	65.0	2.5	/experiments/knapen_AOT/AOT_stimuli/rescaled_final/0465_fw.mp4	0.0	309.63705253601074	1.0085501670837402
67	293.8444073200226	pulse	0	t		65.0	2.5	/experiments/knapen_AOT/AOT_stimuli/rescaled_final/0465_fw.mp4	0.0	310.2126393318176	
67	294.27737069129944	movie	1		289	65.0	2.5	/experiments/knapen_AOT/AOT_stimuli/rescaled_final/0465_fw.mp4	0.0	310.6456027030945	2.492206335067749
67	295.4443607330322	pulse	1	t		65.0	2.5	/experiments/knapen_AOT/AOT_stimuli/rescaled_final/0465_fw.mp4	0.0	311.81259274482727	
67	296.7695770263672	fix_post	2		12	65.0	2.5	/experiments/knapen_AOT/AOT_stimuli/rescaled_final/0465_fw.mp4	0.0	313.13780903816223	0.09978580474853516
68	296.8693628311157	fix_pre	0		120	66.0	2.5	/experiments/knapen_AOT/AOT_stimuli/rescaled_final/1004_fw.mp4	0.0	313.23759484291077	1.0085155963897705
68	297.04476833343506	pulse	0	t		66.0	2.5	/experiments/knapen_AOT/AOT_stimuli/rescaled_final/1004_fw.mp4	0.0	313.4130003452301	
68	297.8778784275055	movie	1		279	66.0	2.5	/experiments/knapen_AOT/AOT_stimuli/rescaled_final/1004_fw.mp4	0.0	314.24611043930054	2.4921369552612305
68	298.64491963386536	pulse	1	t		66.0	2.5	/experiments/knapen_AOT/AOT_stimuli/rescaled_final/1004_fw.mp4	0.0	315.0131516456604	
68	300.2450511455536	pulse	1	t		66.0	2.5	/experiments/knapen_AOT/AOT_stimuli/rescaled_final/1004_fw.mp4	0.0	316.61328315734863	
68	300.3700153827667	fix_post	2		12	66.0	2.5	/experiments/knapen_AOT/AOT_stimuli/rescaled_final/1004_fw.mp4	0.0	316.73824739456177	0.09991002082824707
69	300.46992540359497	fix_pre	0		120	67.0	2.5	/experiments/knapen_AOT/AOT_stimuli/rescaled_final/1510_rv.mp4	0.0	316.83815741539	1.0084655284881592
69	301.47839093208313	movie	1		271	67.0	2.5	/experiments/knapen_AOT/AOT_stimuli/rescaled_final/1510_rv.mp4	0.0	317.8466229438782	2.4921905994415283
69	301.8453290462494	pulse	1	t		67.0	2.5	/experiments/knapen_AOT/AOT_stimuli/rescaled_final/1510_rv.mp4	0.0	318.21356105804443	
69	303.4448094367981	pulse	1	t		67.0	2.5	/experiments/knapen_AOT/AOT_stimuli/rescaled_final/1510_rv.mp4	0.0	319.81304144859314	
69	303.97058153152466	fix_post	2		12	67.0	2.5	/experiments/knapen_AOT/AOT_stimuli/rescaled_final/1510_rv.mp4	0.0	320.3388135433197	0.09986376762390137
70	304.07044529914856	fix_pre	0		118	68.0	2.5	/experiments/knapen_AOT/AOT_stimuli/rescaled_final/1696_fw.mp4	0.0	320.4386773109436	0.9918229579925537
70	305.0460011959076	pulse	0	t		68.0	2.5	/experiments/knapen_AOT/AOT_stimuli/rescaled_final/1696_fw.mp4	0.0	321.41423320770264	
70	305.0622682571411	movie	1		284	68.0	2.5	/experiments/knapen_AOT/AOT_stimuli/rescaled_final/1696_fw.mp4	0.0	321.43050026893616	2.5003702640533447
70	306.64614939689636	pulse	1	t		68.0	2.5	/experiments/knapen_AOT/AOT_stimuli/rescaled_final/1696_fw.mp4	0.0	323.0143814086914	
70	307.56263852119446	fix_post	2		12	68.0	2.5	/experiments/knapen_AOT/AOT_stimuli/rescaled_final/1696_fw.mp4	0.0	323.9308705329895	0.10000920295715332
71	307.6626477241516	fix_pre	0		120	69.0	2.5	blank	1.0	324.03087973594666	1.0001459121704102
71	308.24630403518677	pulse	0	t		69.0	2.5	blank	1.0	324.6145360469818	
71	308.662793636322	movie	1		300	69.0	2.5	blank	1.0	325.03102564811707	2.500403881072998
71	309.84659695625305	pulse	1	t		69.0	2.5	blank	1.0	326.2148289680481	
71	311.163197517395	fix_post	2		12	69.0	2.5	blank	1.0	327.53142952919006	0.10001158714294434
72	311.26320910453796	fix_pre	0		120	70.0	2.5	/experiments/knapen_AOT/AOT_stimuli/rescaled_final/1907_fw.mp4	0.0	327.631441116333	1.0084760189056396
72	311.4467372894287	pulse	0	t		70.0	2.5	/experiments/knapen_AOT/AOT_stimuli/rescaled_final/1907_fw.mp4	0.0	327.81496930122375	
72	312.2716851234436	movie	1		284	70.0	2.5	/experiments/knapen_AOT/AOT_stimuli/rescaled_final/1907_fw.mp4	0.0	328.63991713523865	2.4920272827148438
72	313.0449752807617	pulse	1	t		70.0	2.5	/experiments/knapen_AOT/AOT_stimuli/rescaled_final/1907_fw.mp4	0.0	329.41320729255676	
72	314.6453151702881	pulse	1	t		70.0	2.5	/experiments/knapen_AOT/AOT_stimuli/rescaled_final/1907_fw.mp4	0.0	331.01354718208313	
72	314.76371240615845	fix_post	2		12	70.0	2.5	/experiments/knapen_AOT/AOT_stimuli/rescaled_final/1907_fw.mp4	0.0	331.1319444179535	0.10003542900085449
73	314.8637478351593	fix_pre	0		120	71.0	2.5	/experiments/knapen_AOT/AOT_stimuli/rescaled_final/1946_fw.mp4	0.0	331.23197984695435	1.0085179805755615
73	315.87226581573486	movie	1		288	71.0	2.5	/experiments/knapen_AOT/AOT_stimuli/rescaled_final/1946_fw.mp4	0.0	332.2404978275299	2.492058753967285
73	316.24570751190186	pulse	1	t		71.0	2.5	/experiments/knapen_AOT/AOT_stimuli/rescaled_final/1946_fw.mp4	0.0	332.6139395236969	
73	317.84586358070374	pulse	1	t		71.0	2.5	/experiments/knapen_AOT/AOT_stimuli/rescaled_final/1946_fw.mp4	0.0	334.2140955924988	
73	318.36432456970215	fix_post	2		12	71.0	2.5	/experiments/knapen_AOT/AOT_stimuli/rescaled_final/1946_fw.mp4	0.0	334.7325565814972	0.1000056266784668
74	318.4643301963806	fix_pre	0		119	72.0	2.5	/experiments/knapen_AOT/AOT_stimuli/rescaled_final/1452_fw.mp4	0.0	334.83256220817566	1.000110387802124
74	319.44796872138977	pulse	0	t		72.0	2.5	/experiments/knapen_AOT/AOT_stimuli/rescaled_final/1452_fw.mp4	0.0	335.8162007331848	
74	319.46444058418274	movie	1		282	72.0	2.5	/experiments/knapen_AOT/AOT_stimuli/rescaled_final/1452_fw.mp4	0.0	335.8326725959778	2.500359058380127
74	321.0477468967438	pulse	1	t		72.0	2.5	/experiments/knapen_AOT/AOT_stimuli/rescaled_final/1452_fw.mp4	0.0	337.4159789085388	
74	321.96479964256287	fix_post	2		12	72.0	2.5	/experiments/knapen_AOT/AOT_stimuli/rescaled_final/1452_fw.mp4	0.0	338.3330316543579	0.10000967979431152
75	322.0648093223572	fix_pre	0		120	73.0	2.5	/experiments/knapen_AOT/AOT_stimuli/rescaled_final/0419_rv.mp4	0.0	338.4330413341522	1.0085198879241943
75	322.64844250679016	pulse	0	t		73.0	2.5	/experiments/knapen_AOT/AOT_stimuli/rescaled_final/0419_rv.mp4	0.0	339.0166745185852	
75	323.0733292102814	movie	1		280	73.0	2.5	/experiments/knapen_AOT/AOT_stimuli/rescaled_final/0419_rv.mp4	0.0	339.4415612220764	2.4920570850372314
75	324.24672079086304	pulse	1	t		73.0	2.5	/experiments/knapen_AOT/AOT_stimuli/rescaled_final/0419_rv.mp4	0.0	340.6149528026581	
75	325.5653862953186	fix_post	2		12	73.0	2.5	/experiments/knapen_AOT/AOT_stimuli/rescaled_final/0419_rv.mp4	0.0	341.93361830711365	0.10004591941833496
76	325.66543221473694	fix_pre	0		120	74.0	2.5	/experiments/knapen_AOT/AOT_stimuli/rescaled_final/1500_fw.mp4	0.0	342.033664226532	1.008427619934082
76	325.8489320278168	pulse	0	t		74.0	2.5	/experiments/knapen_AOT/AOT_stimuli/rescaled_final/1500_fw.mp4	0.0	342.2171640396118	
76	326.673859834671	movie	1		283	74.0	2.5	/experiments/knapen_AOT/AOT_stimuli/rescaled_final/1500_fw.mp4	0.0	343.04209184646606	2.492035150527954
76	327.44718623161316	pulse	1	t		74.0	2.5	/experiments/knapen_AOT/AOT_stimuli/rescaled_final/1500_fw.mp4	0.0	343.8154182434082	
76	329.047607421875	pulse	1	t		74.0	2.5	/experiments/knapen_AOT/AOT_stimuli/rescaled_final/1500_fw.mp4	0.0	345.41583943367004	
76	329.165894985199	fix_post	2		12	74.0	2.5	/experiments/knapen_AOT/AOT_stimuli/rescaled_final/1500_fw.mp4	0.0	345.534126996994	0.1000051498413086
77	329.2659001350403	fix_pre	0		120	75.0	2.5	/experiments/knapen_AOT/AOT_stimuli/rescaled_final/0099_rv.mp4	0.0	345.6341321468353	1.0085256099700928
77	330.2744257450104	movie	1		286	75.0	2.5	/experiments/knapen_AOT/AOT_stimuli/rescaled_final/0099_rv.mp4	0.0	346.6426577568054	2.492095947265625
77	330.6479706764221	pulse	1	t		75.0	2.5	/experiments/knapen_AOT/AOT_stimuli/rescaled_final/0099_rv.mp4	0.0	347.01620268821716	
77	332.24819231033325	pulse	1	t		75.0	2.5	/experiments/knapen_AOT/AOT_stimuli/rescaled_final/0099_rv.mp4	0.0	348.6164243221283	
77	332.766521692276	fix_post	2		12	75.0	2.5	/experiments/knapen_AOT/AOT_stimuli/rescaled_final/0099_rv.mp4	0.0	349.13475370407104	0.09997749328613281
78	332.86649918556213	fix_pre	0		119	76.0	2.5	/experiments/knapen_AOT/AOT_stimuli/rescaled_final/2057_fw.mp4	0.0	349.2347311973572	1.0000975131988525
78	333.8501396179199	pulse	0	t		76.0	2.5	/experiments/knapen_AOT/AOT_stimuli/rescaled_final/2057_fw.mp4	0.0	350.21837162971497	
78	333.866596698761	movie	1		279	76.0	2.5	/experiments/knapen_AOT/AOT_stimuli/rescaled_final/2057_fw.mp4	0.0	350.23482871055603	2.5003745555877686
78	335.44892930984497	pulse	1	t		76.0	2.5	/experiments/knapen_AOT/AOT_stimuli/rescaled_final/2057_fw.mp4	0.0	351.81716132164	
78	336.36697125434875	fix_post	2		12	76.0	2.5	/experiments/knapen_AOT/AOT_stimuli/rescaled_final/2057_fw.mp4	0.0	352.7352032661438	0.10001230239868164
79	336.46698355674744	fix_pre	0		120	77.0	2.5	blank	1.0	352.8352155685425	1.0001349449157715
79	337.050829410553	pulse	0	t		77.0	2.5	blank	1.0	353.419061422348	
79	337.4671185016632	movie	1		300	77.0	2.5	blank	1.0	353.83535051345825	2.500429153442383
79	338.6508538722992	pulse	1	t		77.0	2.5	blank	1.0	355.01908588409424	
79	339.9675476551056	fix_post	2		12	77.0	2.5	blank	1.0	356.33577966690063	0.10003781318664551
80	340.06758546829224	fix_pre	0		120	78.0	2.5	/experiments/knapen_AOT/AOT_stimuli/rescaled_final/0233_rv.mp4	0.0	356.4358174800873	1.0084431171417236
80	340.2510950565338	pulse	0	t		78.0	2.5	/experiments/knapen_AOT/AOT_stimuli/rescaled_final/0233_rv.mp4	0.0	356.61932706832886	
80	341.07602858543396	movie	1		286	78.0	2.5	/experiments/knapen_AOT/AOT_stimuli/rescaled_final/0233_rv.mp4	0.0	357.444260597229	2.5003724098205566
80	341.8494794368744	pulse	1	t		78.0	2.5	/experiments/knapen_AOT/AOT_stimuli/rescaled_final/0233_rv.mp4	0.0	358.21771144866943	
80	343.4497652053833	pulse	1	t		78.0	2.5	/experiments/knapen_AOT/AOT_stimuli/rescaled_final/0233_rv.mp4	0.0	359.81799721717834	
80	343.5764009952545	fix_post	2		11	78.0	2.5	/experiments/knapen_AOT/AOT_stimuli/rescaled_final/0233_rv.mp4	0.0	359.94463300704956	0.09163784980773926
81	343.66803884506226	fix_pre	0		120	79.0	2.5	/experiments/knapen_AOT/AOT_stimuli/rescaled_final/0138_rv.mp4	0.0	360.0362708568573	1.0085351467132568
81	344.6765739917755	movie	1		285	79.0	2.5	/experiments/knapen_AOT/AOT_stimuli/rescaled_final/0138_rv.mp4	0.0	361.04480600357056	2.4920382499694824
81	345.0509366989136	pulse	1	t		79.0	2.5	/experiments/knapen_AOT/AOT_stimuli/rescaled_final/0138_rv.mp4	0.0	361.4191687107086	
81	346.6499271392822	pulse	1	t		79.0	2.5	/experiments/knapen_AOT/AOT_stimuli/rescaled_final/0138_rv.mp4	0.0	363.01815915107727	
81	347.168612241745	fix_post	2		12	79.0	2.5	/experiments/knapen_AOT/AOT_stimuli/rescaled_final/0138_rv.mp4	0.0	363.53684425354004	0.10008001327514648
82	347.26869225502014	fix_pre	0		119	80.0	2.5	/experiments/knapen_AOT/AOT_stimuli/rescaled_final/2012_fw.mp4	0.0	363.6369242668152	1.0000624656677246
82	348.2523617744446	pulse	0	t		80.0	2.5	/experiments/knapen_AOT/AOT_stimuli/rescaled_final/2012_fw.mp4	0.0	364.6205937862396	
82	348.26875472068787	movie	1		286	80.0	2.5	/experiments/knapen_AOT/AOT_stimuli/rescaled_final/2012_fw.mp4	0.0	364.6369867324829	2.5003902912139893
82	349.8517966270447	pulse	1	t		80.0	2.5	/experiments/knapen_AOT/AOT_stimuli/rescaled_final/2012_fw.mp4	0.0	366.2200286388397	
82	350.76914501190186	fix_post	2		12	80.0	2.5	/experiments/knapen_AOT/AOT_stimuli/rescaled_final/2012_fw.mp4	0.0	367.1373770236969	0.10004329681396484
83	350.8691883087158	fix_pre	0		120	81.0	2.5	/experiments/knapen_AOT/AOT_stimuli/rescaled_final/1555_rv.mp4	0.0	367.23742032051086	1.0084559917449951
83	351.44482469558716	pulse	0	t		81.0	2.5	/experiments/knapen_AOT/AOT_stimuli/rescaled_final/1555_rv.mp4	0.0	367.8130567073822	
83	351.8776443004608	movie	1		278	81.0	2.5	/experiments/knapen_AOT/AOT_stimuli/rescaled_final/1555_rv.mp4	0.0	368.24587631225586	2.492100954055786
83	353.0449025630951	pulse	1	t		81.0	2.5	/experiments/knapen_AOT/AOT_stimuli/rescaled_final/1555_rv.mp4	0.0	369.41313457489014	
83	354.3697452545166	fix_post	2		12	81.0	2.5	/experiments/knapen_AOT/AOT_stimuli/rescaled_final/1555_rv.mp4	0.0	370.73797726631165	0.09999346733093262
84	354.46973872184753	fix_pre	0		120	82.0	2.5	/experiments/knapen_AOT/AOT_stimuli/rescaled_final/1134_fw.mp4	0.0	370.8379707336426	1.0084335803985596
84	354.6451766490936	pulse	0	t		82.0	2.5	/experiments/knapen_AOT/AOT_stimuli/rescaled_final/1134_fw.mp4	0.0	371.0134086608887	
84	355.4781723022461	movie	1		280	82.0	2.5	/experiments/knapen_AOT/AOT_stimuli/rescaled_final/1134_fw.mp4	0.0	371.84640431404114	2.492056131362915
84	356.2452039718628	pulse	1	t		82.0	2.5	/experiments/knapen_AOT/AOT_stimuli/rescaled_final/1134_fw.mp4	0.0	372.61343598365784	
84	357.8454384803772	pulse	1	t		82.0	2.5	/experiments/knapen_AOT/AOT_stimuli/rescaled_final/1134_fw.mp4	0.0	374.21367049217224	
84	357.970228433609	fix_post	2		12	82.0	2.5	/experiments/knapen_AOT/AOT_stimuli/rescaled_final/1134_fw.mp4	0.0	374.33846044540405	0.10000276565551758
85	358.0702311992645	fix_pre	0		120	83.0	2.5	blank	1.0	374.43846321105957	1.000166893005371
85	359.0703980922699	movie	1		300	83.0	2.5	blank	1.0	375.43863010406494	2.5003550052642822
85	359.44563269615173	pulse	1	t		83.0	2.5	blank	1.0	375.8138647079468	
85	361.0458619594574	pulse	1	t		83.0	2.5	blank	1.0	377.41409397125244	
85	361.5707530975342	fix_post	2		12	83.0	2.5	blank	1.0	377.9389851093292	0.10001111030578613
87	361.67076420783997	stim	0		1715					378.038996219635	14.293825626373291
87	362.6460933685303	pulse	0	t						379.0143253803253	
87	364.24635338783264	pulse	0	t						380.6145853996277	
87	365.84680223464966	pulse	0	t						382.2150342464447	
87	367.4468846321106	pulse	0	t						383.81511664390564	
87	369.0471751689911	pulse	0	t						385.41540718078613	
87	370.64730954170227	pulse	0	t						387.0155415534973	
87	372.24757528305054	pulse	0	t						388.6158072948456	
87	373.84775972366333	pulse	0	t						390.2159917354584	
87	375.4479854106903	pulse	0	t						391.81621742248535	
