trial_nr	onset	event_type	phase	response	nr_frames	movie_index	movie_duration	movie_file	blank	onset_abs	duration
0	0.01637101173400879	stim	0		297					18.212470054626465	2.4731531143188477
0	2.481487989425659	response	0	space						20.677587032318115	
1	2.4895241260528564	stim	0		215					20.685623168945312	1.7915849685668945
1	4.272916078567505	pulse	0	t						22.46901512145996	
1	4.281109094619751	stim	1		1717					22.477208137512207	14.30837893486023
1	16.906201124191284	pulse	1	t						35.10230016708374	
1	18.01534104347229	pulse	1	t						36.211440086364746	
2	18.58948802947998	fix_pre	0		64	0.0	2.5	/experiments/knapen_aot/videos/R_S_yt-AbJBxqEYoMg_27.mp4	0.0	36.78558707237244	0.5333151817321777
2	19.114497184753418	pulse	0	t		0.0	2.5	/experiments/knapen_aot/videos/R_S_yt-AbJBxqEYoMg_27.mp4	0.0	37.310596227645874	
2	19.122803211212158	movie	1		297	0.0	2.5	/experiments/knapen_aot/videos/R_S_yt-AbJBxqEYoMg_27.mp4	0.0	37.318902254104614	2.508291006088257
2	21.631094217300415	fix_post	2		12	0.0	2.5	/experiments/knapen_aot/videos/R_S_yt-AbJBxqEYoMg_27.mp4	0.0	39.82719326019287	0.09999799728393555
3	21.73109221458435	fix_pre	0		120	1.0	2.5	/experiments/knapen_aot/videos/R_S_yt-GjFQxAklviE_25.mp4	0.0	39.92719125747681	1.000018835067749
3	22.7311110496521	movie	1		296	1.0	2.5	/experiments/knapen_aot/videos/R_S_yt-GjFQxAklviE_25.mp4	0.0	40.927210092544556	2.500005006790161
3	25.23111605644226	fix_post	2		12	1.0	2.5	/experiments/knapen_aot/videos/R_S_yt-GjFQxAklviE_25.mp4	0.0	43.42721509933472	0.09996795654296875
4	25.33108401298523	fix_pre	0		120	2.0	2.5	/experiments/knapen_aot/videos/S_pexels-kindel-media-8165572.mp4	0.0	43.527183055877686	0.9999790191650391
4	26.33106303215027	movie	1		164	2.0	2.5	/experiments/knapen_aot/videos/S_pexels-kindel-media-8165572.mp4	0.0	44.527162075042725	2.5000131130218506
4	28.83107614517212	fix_post	2		12	2.0	2.5	/experiments/knapen_aot/videos/S_pexels-kindel-media-8165572.mp4	0.0	47.027175188064575	0.09998893737792969
5	28.93106508255005	fix_pre	0		120	3.0	2.5	/experiments/knapen_aot/videos/S_IrGYVLkWeQs_9.mp4	0.0	47.127164125442505	1.0000319480895996
5	29.93109703063965	movie	1		299	3.0	2.5	/experiments/knapen_aot/videos/S_IrGYVLkWeQs_9.mp4	0.0	48.127196073532104	2.4999961853027344
5	32.43109321594238	fix_post	2		12	3.0	2.5	/experiments/knapen_aot/videos/S_IrGYVLkWeQs_9.mp4	0.0	50.62719225883484	0.10001182556152344
6	32.531105041503906	fix_pre	0		10800	4.0	2.5	/experiments/knapen_aot/videos/R_S_yt-uSHBdUi8_V0_24.mp4	0.0	50.72720408439636	89.99964714050293
6	122.53075218200684	movie	1		296	4.0	2.5	/experiments/knapen_aot/videos/R_S_yt-uSHBdUi8_V0_24.mp4	0.0	140.7268512248993	2.499950885772705
6	125.03070306777954	fix_post	2		12	4.0	2.5	/experiments/knapen_aot/videos/R_S_yt-uSHBdUi8_V0_24.mp4	0.0	143.226802110672	0.10008692741394043
7	125.13078999519348	fix_pre	0		120	5.0	2.5	/experiments/knapen_aot/videos/S_yt-dO0OuozAgt0_225.mp4	0.0	143.32688903808594	0.9999170303344727
7	126.13070702552795	movie	1		296	5.0	2.5	/experiments/knapen_aot/videos/S_yt-dO0OuozAgt0_225.mp4	0.0	144.3268060684204	2.5001940727233887
7	128.63090109825134	fix_post	2		12	5.0	2.5	/experiments/knapen_aot/videos/S_yt-dO0OuozAgt0_225.mp4	0.0	146.8270001411438	0.0998220443725586
8	128.7307231426239	fix_pre	0		120	6.0	2.5	blank	1.0	146.92682218551636	0.9999270439147949
8	129.7306501865387	movie	1		300	6.0	2.5	blank	1.0	147.92674922943115	2.50003981590271
8	132.2306900024414	fix_post	2		12	6.0	2.5	blank	1.0	150.42678904533386	0.10014200210571289
9	132.33083200454712	fix_pre	0		120	7.0	2.5	/experiments/knapen_aot/videos/R_S_pexels-laker-5793000.mp4	0.0	150.52693104743958	0.9998550415039062
9	133.33068704605103	movie	1		164	7.0	2.5	/experiments/knapen_aot/videos/R_S_pexels-laker-5793000.mp4	0.0	151.52678608894348	2.499998092651367
9	135.8306851387024	fix_post	2		12	7.0	2.5	/experiments/knapen_aot/videos/R_S_pexels-laker-5793000.mp4	0.0	154.02678418159485	0.09996604919433594
10	135.93065118789673	fix_pre	0		901	8.0	2.5	/experiments/knapen_aot/videos/R_S_pexels-tima-miroshnichenko-8724308.mp4	0.0	154.12675023078918	7.508657932281494
10	143.43077516555786	pulse	0	t		8.0	2.5	/experiments/knapen_aot/videos/R_S_pexels-tima-miroshnichenko-8724308.mp4	0.0	161.62687420845032	
10	143.43930912017822	movie	1		87	8.0	2.5	/experiments/knapen_aot/videos/R_S_pexels-tima-miroshnichenko-8724308.mp4	0.0	161.63540816307068	1.3746399879455566
