trial_nr	onset	event_type	phase	response	nr_frames	movie_index	movie_duration	movie_file	blank	onset_abs	duration
0	0.13286995887756348	stim	0		39					36.862982988357544	0.3253920078277588
0	0.4503209590911865	response	0	space						37.18043398857117	
1	0.45826196670532227	stim	0		4895					37.1883749961853	40.79146194458008
1	41.241714000701904	pulse	0	t						77.97182703018188	
1	41.2497239112854	stim	1		1717					77.97983694076538	14.30828309059143
1	42.841644048690796	pulse	1	t						79.57175707817078	
1	44.44161796569824	pulse	1	t						81.17173099517822	
1	46.04160404205322	pulse	1	t						82.7717170715332	
1	47.64155602455139	pulse	1	t						84.37166905403137	
1	49.24152994155884	pulse	1	t						85.97164297103882	
1	50.84152889251709	pulse	1	t						87.57164192199707	
1	52.44149994850159	pulse	1	t						89.17161297798157	
1	54.04157304763794	pulse	1	t						90.77168607711792	
2	55.55800700187683	fix_pre	0		11	0.0	2.5	/experiments/AOT/AOT_stimuli/rescaled_final/1352_fw.mp4	0.0	92.28812003135681	0.09959602355957031
2	55.6415650844574	pulse	0	t		0.0	2.5	/experiments/AOT/AOT_stimuli/rescaled_final/1352_fw.mp4	0.0	92.37167811393738	
2	55.6576030254364	movie	1		242	0.0	2.5	/experiments/AOT/AOT_stimuli/rescaled_final/1352_fw.mp4	0.0	92.38771605491638	2.5003299713134766
2	57.241024017333984	pulse	1	t		0.0	2.5	/experiments/AOT/AOT_stimuli/rescaled_final/1352_fw.mp4	0.0	93.97113704681396	
2	58.15793299674988	fix_post	2		12	0.0	2.5	/experiments/AOT/AOT_stimuli/rescaled_final/1352_fw.mp4	0.0	94.88804602622986	0.10011696815490723
3	58.258049964904785	fix_pre	0		120	1.0	2.5	/experiments/AOT/AOT_stimuli/rescaled_final/1874_fw.mp4	0.0	94.98816299438477	0.9998860359191895
3	58.841487884521484	pulse	0	t		1.0	2.5	/experiments/AOT/AOT_stimuli/rescaled_final/1874_fw.mp4	0.0	95.57160091400146	
3	59.257936000823975	movie	1		246	1.0	2.5	/experiments/AOT/AOT_stimuli/rescaled_final/1874_fw.mp4	0.0	95.98804903030396	2.4996070861816406
3	60.4415180683136	pulse	1	t		1.0	2.5	/experiments/AOT/AOT_stimuli/rescaled_final/1874_fw.mp4	0.0	97.17163109779358	
3	61.757543087005615	fix_post	2		12	1.0	2.5	/experiments/AOT/AOT_stimuli/rescaled_final/1874_fw.mp4	0.0	98.4876561164856	0.10034990310668945
4	61.857892990112305	fix_pre	0		120	2.0	2.5	/experiments/AOT/AOT_stimuli/rescaled_final/0649_rv.mp4	0.0	98.58800601959229	1.0001120567321777
4	62.04145789146423	pulse	0	t		2.0	2.5	/experiments/AOT/AOT_stimuli/rescaled_final/0649_rv.mp4	0.0	98.77157092094421	
4	62.85800504684448	movie	1		244	2.0	2.5	/experiments/AOT/AOT_stimuli/rescaled_final/0649_rv.mp4	0.0	99.58811807632446	2.499985933303833
4	63.64148187637329	pulse	1	t		2.0	2.5	/experiments/AOT/AOT_stimuli/rescaled_final/0649_rv.mp4	0.0	100.37159490585327	
4	65.23754692077637	pulse	1	t		2.0	2.5	/experiments/AOT/AOT_stimuli/rescaled_final/0649_rv.mp4	0.0	101.96765995025635	
4	65.35799098014832	fix_post	2		12	2.0	2.5	/experiments/AOT/AOT_stimuli/rescaled_final/0649_rv.mp4	0.0	102.0881040096283	0.09996199607849121
5	65.4579529762268	fix_pre	0		120	3.0	2.5	/experiments/AOT/AOT_stimuli/rescaled_final/1734_fw.mp4	0.0	102.18806600570679	1.0000100135803223
5	66.45796298980713	movie	1		243	3.0	2.5	/experiments/AOT/AOT_stimuli/rescaled_final/1734_fw.mp4	0.0	103.18807601928711	2.500037908554077
5	66.84097290039062	pulse	1	t		3.0	2.5	/experiments/AOT/AOT_stimuli/rescaled_final/1734_fw.mp4	0.0	103.5710859298706	
5	68.44146490097046	pulse	1	t		3.0	2.5	/experiments/AOT/AOT_stimuli/rescaled_final/1734_fw.mp4	0.0	105.17157793045044	
5	68.9580008983612	fix_post	2		12	3.0	2.5	/experiments/AOT/AOT_stimuli/rescaled_final/1734_fw.mp4	0.0	105.68811392784119	0.09999608993530273
6	69.05799698829651	fix_pre	0		119	4.0	2.5	/experiments/AOT/AOT_stimuli/rescaled_final/2140_fw.mp4	0.0	105.78811001777649	0.9916090965270996
6	70.04148006439209	pulse	0	t		4.0	2.5	/experiments/AOT/AOT_stimuli/rescaled_final/2140_fw.mp4	0.0	106.77159309387207	
6	70.04960608482361	movie	1		244	4.0	2.5	/experiments/AOT/AOT_stimuli/rescaled_final/2140_fw.mp4	0.0	106.77971911430359	2.5084288120269775
6	71.64112401008606	pulse	1	t		4.0	2.5	/experiments/AOT/AOT_stimuli/rescaled_final/2140_fw.mp4	0.0	108.37123703956604	
6	72.55803489685059	fix_post	2		12	4.0	2.5	/experiments/AOT/AOT_stimuli/rescaled_final/2140_fw.mp4	0.0	109.28814792633057	0.09985613822937012
7	72.65789103507996	fix_pre	0		120	5.0	2.5	/experiments/AOT/AOT_stimuli/rescaled_final/1605_rv.mp4	0.0	109.38800406455994	1.0000288486480713
7	73.24138188362122	pulse	0	t		5.0	2.5	/experiments/AOT/AOT_stimuli/rescaled_final/1605_rv.mp4	0.0	109.9714949131012	
7	73.65791988372803	movie	1		244	5.0	2.5	/experiments/AOT/AOT_stimuli/rescaled_final/1605_rv.mp4	0.0	110.38803291320801	2.5000011920928955
7	74.8415539264679	pulse	1	t		5.0	2.5	/experiments/AOT/AOT_stimuli/rescaled_final/1605_rv.mp4	0.0	111.57166695594788	
7	76.15792107582092	fix_post	2		12	5.0	2.5	/experiments/AOT/AOT_stimuli/rescaled_final/1605_rv.mp4	0.0	112.8880341053009	0.10006594657897949
8	76.2579870223999	fix_pre	0		120	6.0	2.5	blank	1.0	112.98810005187988	0.9995429515838623
8	76.44150805473328	pulse	0	t		6.0	2.5	blank	1.0	113.17162108421326	
8	77.25752997398376	movie	1		300	6.0	2.5	blank	1.0	113.98764300346375	2.500662088394165
8	78.04101300239563	pulse	1	t		6.0	2.5	blank	1.0	114.77112603187561	
8	79.64153504371643	pulse	1	t		6.0	2.5	blank	1.0	116.37164807319641	
8	79.75819206237793	fix_post	2		12	6.0	2.5	blank	1.0	116.48830509185791	0.09988999366760254
9	79.85808205604553	fix_pre	0		120	7.0	2.5	/experiments/AOT/AOT_stimuli/rescaled_final/0877_rv.mp4	0.0	116.58819508552551	0.9997467994689941
9	80.85782885551453	movie	1		244	7.0	2.5	/experiments/AOT/AOT_stimuli/rescaled_final/0877_rv.mp4	0.0	117.5879418849945	2.5000741481781006
9	81.2409119606018	pulse	1	t		7.0	2.5	/experiments/AOT/AOT_stimuli/rescaled_final/0877_rv.mp4	0.0	117.97102499008179	
9	82.84131288528442	pulse	1	t		7.0	2.5	/experiments/AOT/AOT_stimuli/rescaled_final/0877_rv.mp4	0.0	119.5714259147644	
9	83.35790300369263	fix_post	2		12	7.0	2.5	/experiments/AOT/AOT_stimuli/rescaled_final/0877_rv.mp4	0.0	120.08801603317261	0.09952187538146973
10	83.4574248790741	fix_pre	0		119	8.0	2.5	/experiments/AOT/AOT_stimuli/rescaled_final/2148_fw.mp4	0.0	120.18753790855408	0.9920520782470703
10	84.4413709640503	pulse	0	t		8.0	2.5	/experiments/AOT/AOT_stimuli/rescaled_final/2148_fw.mp4	0.0	121.17148399353027	
10	84.44947695732117	movie	1		244	8.0	2.5	/experiments/AOT/AOT_stimuli/rescaled_final/2148_fw.mp4	0.0	121.17958998680115	2.5083839893341064
10	86.040766954422	pulse	1	t		8.0	2.5	/experiments/AOT/AOT_stimuli/rescaled_final/2148_fw.mp4	0.0	122.77087998390198	
10	86.95786094665527	fix_post	2		12	8.0	2.5	/experiments/AOT/AOT_stimuli/rescaled_final/2148_fw.mp4	0.0	123.68797397613525	0.09993696212768555
11	87.05779790878296	fix_pre	0		120	9.0	2.5	/experiments/AOT/AOT_stimuli/rescaled_final/1373_rv.mp4	0.0	123.78791093826294	1.0000560283660889
11	87.64127397537231	pulse	0	t		9.0	2.5	/experiments/AOT/AOT_stimuli/rescaled_final/1373_rv.mp4	0.0	124.3713870048523	
11	88.05785393714905	movie	1		243	9.0	2.5	/experiments/AOT/AOT_stimuli/rescaled_final/1373_rv.mp4	0.0	124.78796696662903	2.4995639324188232
11	89.24148106575012	pulse	1	t		9.0	2.5	/experiments/AOT/AOT_stimuli/rescaled_final/1373_rv.mp4	0.0	125.9715940952301	
11	90.55741786956787	fix_post	2		12	9.0	2.5	/experiments/AOT/AOT_stimuli/rescaled_final/1373_rv.mp4	0.0	127.28753089904785	0.10036110877990723
12	90.65777897834778	fix_pre	0		120	10.0	2.5	/experiments/AOT/AOT_stimuli/rescaled_final/1330_fw.mp4	0.0	127.38789200782776	1.0000829696655273
12	90.84122085571289	pulse	0	t		10.0	2.5	/experiments/AOT/AOT_stimuli/rescaled_final/1330_fw.mp4	0.0	127.57133388519287	
12	91.6578619480133	movie	1		243	10.0	2.5	/experiments/AOT/AOT_stimuli/rescaled_final/1330_fw.mp4	0.0	128.3879749774933	2.499922037124634
12	92.44127488136292	pulse	1	t		10.0	2.5	/experiments/AOT/AOT_stimuli/rescaled_final/1330_fw.mp4	0.0	129.1713879108429	
12	94.04017996788025	pulse	1	t		10.0	2.5	/experiments/AOT/AOT_stimuli/rescaled_final/1330_fw.mp4	0.0	130.77029299736023	
12	94.15778398513794	fix_post	2		12	10.0	2.5	/experiments/AOT/AOT_stimuli/rescaled_final/1330_fw.mp4	0.0	130.88789701461792	0.09999608993530273
13	94.25778007507324	fix_pre	0		120	11.0	2.5	/experiments/AOT/AOT_stimuli/rescaled_final/1959_rv.mp4	0.0	130.98789310455322	1.000011920928955
13	95.2577919960022	movie	1		245	11.0	2.5	/experiments/AOT/AOT_stimuli/rescaled_final/1959_rv.mp4	0.0	131.98790502548218	2.500030994415283
13	95.64095997810364	pulse	1	t		11.0	2.5	/experiments/AOT/AOT_stimuli/rescaled_final/1959_rv.mp4	0.0	132.37107300758362	
13	97.24132800102234	pulse	1	t		11.0	2.5	/experiments/AOT/AOT_stimuli/rescaled_final/1959_rv.mp4	0.0	133.97144103050232	
13	97.75782299041748	fix_post	2		12	11.0	2.5	/experiments/AOT/AOT_stimuli/rescaled_final/1959_rv.mp4	0.0	134.48793601989746	0.09991598129272461
14	97.8577389717102	fix_pre	0		119	12.0	2.5	/experiments/AOT/AOT_stimuli/rescaled_final/1721_fw.mp4	0.0	134.58785200119019	0.9917230606079102
14	98.8413519859314	pulse	0	t		12.0	2.5	/experiments/AOT/AOT_stimuli/rescaled_final/1721_fw.mp4	0.0	135.57146501541138	
14	98.84946203231812	movie	1		244	12.0	2.5	/experiments/AOT/AOT_stimuli/rescaled_final/1721_fw.mp4	0.0	135.5795750617981	2.5078649520874023
14	100.44089698791504	pulse	1	t		12.0	2.5	/experiments/AOT/AOT_stimuli/rescaled_final/1721_fw.mp4	0.0	137.17101001739502	
14	101.35732698440552	fix_post	2		12	12.0	2.5	/experiments/AOT/AOT_stimuli/rescaled_final/1721_fw.mp4	0.0	138.0874400138855	0.10050392150878906
15	101.4578309059143	fix_pre	0		120	13.0	2.5	blank	1.0	138.1879439353943	0.9999830722808838
15	102.04132294654846	pulse	0	t		13.0	2.5	blank	1.0	138.77143597602844	
15	102.45781397819519	movie	1		300	13.0	2.5	blank	1.0	139.18792700767517	2.49993896484375
15	103.64128994941711	pulse	1	t		13.0	2.5	blank	1.0	140.3714029788971	
15	104.95775294303894	fix_post	2		12	13.0	2.5	blank	1.0	141.68786597251892	0.10003900527954102
16	105.05779194831848	fix_pre	0		120	14.0	2.5	/experiments/AOT/AOT_stimuli/rescaled_final/0389_fw.mp4	0.0	141.78790497779846	0.9999699592590332
16	105.24126195907593	pulse	0	t		14.0	2.5	/experiments/AOT/AOT_stimuli/rescaled_final/0389_fw.mp4	0.0	141.9713749885559	
16	106.05776190757751	movie	1		244	14.0	2.5	/experiments/AOT/AOT_stimuli/rescaled_final/0389_fw.mp4	0.0	142.7878749370575	2.4995081424713135
16	106.8412230014801	pulse	1	t		14.0	2.5	/experiments/AOT/AOT_stimuli/rescaled_final/0389_fw.mp4	0.0	143.57133603096008	
16	108.43987703323364	pulse	1	t		14.0	2.5	/experiments/AOT/AOT_stimuli/rescaled_final/0389_fw.mp4	0.0	145.16999006271362	
16	108.55727005004883	fix_post	2		12	14.0	2.5	/experiments/AOT/AOT_stimuli/rescaled_final/0389_fw.mp4	0.0	145.2873830795288	0.10048580169677734
17	108.6577558517456	fix_pre	0		120	15.0	2.5	/experiments/AOT/AOT_stimuli/rescaled_final/0586_rv.mp4	0.0	145.3878688812256	1.0000011920928955
17	109.6577570438385	movie	1		241	15.0	2.5	/experiments/AOT/AOT_stimuli/rescaled_final/0586_rv.mp4	0.0	146.38787007331848	2.5003809928894043
17	110.04129886627197	pulse	1	t		15.0	2.5	/experiments/AOT/AOT_stimuli/rescaled_final/0586_rv.mp4	0.0	146.77141189575195	
17	111.64117908477783	pulse	1	t		15.0	2.5	/experiments/AOT/AOT_stimuli/rescaled_final/0586_rv.mp4	0.0	148.3712921142578	
17	112.1581380367279	fix_post	2		12	15.0	2.5	/experiments/AOT/AOT_stimuli/rescaled_final/0586_rv.mp4	0.0	148.88825106620789	0.09921097755432129
18	112.25734901428223	fix_pre	0		119	16.0	2.5	/experiments/AOT/AOT_stimuli/rescaled_final/1060_rv.mp4	0.0	148.9874620437622	0.9920320510864258
18	113.24127292633057	pulse	0	t		16.0	2.5	/experiments/AOT/AOT_stimuli/rescaled_final/1060_rv.mp4	0.0	149.97138595581055	
18	113.24938106536865	movie	1		246	16.0	2.5	/experiments/AOT/AOT_stimuli/rescaled_final/1060_rv.mp4	0.0	149.97949409484863	2.508363962173462
18	114.84099507331848	pulse	1	t		16.0	2.5	/experiments/AOT/AOT_stimuli/rescaled_final/1060_rv.mp4	0.0	151.57110810279846	
18	115.75774502754211	fix_post	2		12	16.0	2.5	/experiments/AOT/AOT_stimuli/rescaled_final/1060_rv.mp4	0.0	152.4878580570221	0.09999489784240723
19	115.85773992538452	fix_pre	0		120	17.0	2.5	/experiments/AOT/AOT_stimuli/rescaled_final/1688_rv.mp4	0.0	152.5878529548645	0.99993896484375
19	116.44128704071045	pulse	0	t		17.0	2.5	/experiments/AOT/AOT_stimuli/rescaled_final/1688_rv.mp4	0.0	153.17140007019043	
19	116.85767889022827	movie	1		245	17.0	2.5	/experiments/AOT/AOT_stimuli/rescaled_final/1688_rv.mp4	0.0	153.58779191970825	2.4999911785125732
19	118.04127907752991	pulse	1	t		17.0	2.5	/experiments/AOT/AOT_stimuli/rescaled_final/1688_rv.mp4	0.0	154.7713921070099	
19	119.35767006874084	fix_post	2		12	17.0	2.5	/experiments/AOT/AOT_stimuli/rescaled_final/1688_rv.mp4	0.0	156.08778309822083	0.10001587867736816
20	119.45768594741821	fix_pre	0		120	18.0	2.5	/experiments/AOT/AOT_stimuli/rescaled_final/2032_fw.mp4	0.0	156.1877989768982	0.9999270439147949
20	119.64121794700623	pulse	0	t		18.0	2.5	/experiments/AOT/AOT_stimuli/rescaled_final/2032_fw.mp4	0.0	156.3713309764862	
20	120.45761299133301	movie	1		244	18.0	2.5	/experiments/AOT/AOT_stimuli/rescaled_final/2032_fw.mp4	0.0	157.187726020813	2.5000009536743164
20	121.24121689796448	pulse	1	t		18.0	2.5	/experiments/AOT/AOT_stimuli/rescaled_final/2032_fw.mp4	0.0	157.97132992744446	
20	122.83950591087341	pulse	1	t		18.0	2.5	/experiments/AOT/AOT_stimuli/rescaled_final/2032_fw.mp4	0.0	159.5696189403534	
20	122.95761394500732	fix_post	2		12	18.0	2.5	/experiments/AOT/AOT_stimuli/rescaled_final/2032_fw.mp4	0.0	159.6877269744873	0.09962701797485352
21	123.05724096298218	fix_pre	0		120	19.0	2.5	/experiments/AOT/AOT_stimuli/rescaled_final/0871_rv.mp4	0.0	159.78735399246216	1.000082015991211
21	124.05732297897339	movie	1		244	19.0	2.5	/experiments/AOT/AOT_stimuli/rescaled_final/0871_rv.mp4	0.0	160.78743600845337	2.5003530979156494
21	124.44111394882202	pulse	1	t		19.0	2.5	/experiments/AOT/AOT_stimuli/rescaled_final/0871_rv.mp4	0.0	161.171226978302	
21	126.04122400283813	pulse	1	t		19.0	2.5	/experiments/AOT/AOT_stimuli/rescaled_final/0871_rv.mp4	0.0	162.77133703231812	
21	126.55767607688904	fix_post	2		12	19.0	2.5	/experiments/AOT/AOT_stimuli/rescaled_final/0871_rv.mp4	0.0	163.28778910636902	0.09991788864135742
22	126.6575939655304	fix_pre	0		119	20.0	2.5	blank	1.0	163.38770699501038	0.9917271137237549
22	127.64119791984558	pulse	0	t		20.0	2.5	blank	1.0	164.37131094932556	
22	127.64932107925415	movie	1		301	20.0	2.5	blank	1.0	164.37943410873413	2.508307933807373
22	129.24110507965088	pulse	1	t		20.0	2.5	blank	1.0	165.97121810913086	
22	130.15762901306152	fix_post	2		12	20.0	2.5	blank	1.0	166.8877420425415	0.09999799728393555
23	130.25762701034546	fix_pre	0		120	21.0	2.5	/experiments/AOT/AOT_stimuli/rescaled_final/1649_fw.mp4	0.0	166.98774003982544	0.9999759197235107
23	130.8411250114441	pulse	0	t		21.0	2.5	/experiments/AOT/AOT_stimuli/rescaled_final/1649_fw.mp4	0.0	167.57123804092407	
23	131.25760293006897	movie	1		245	21.0	2.5	/experiments/AOT/AOT_stimuli/rescaled_final/1649_fw.mp4	0.0	167.98771595954895	2.499706983566284
23	132.4412178993225	pulse	1	t		21.0	2.5	/experiments/AOT/AOT_stimuli/rescaled_final/1649_fw.mp4	0.0	169.1713309288025	
23	133.75730991363525	fix_post	2		12	21.0	2.5	/experiments/AOT/AOT_stimuli/rescaled_final/1649_fw.mp4	0.0	170.48742294311523	0.10048699378967285
24	133.85779690742493	fix_pre	0		120	22.0	2.5	/experiments/AOT/AOT_stimuli/rescaled_final/0153_rv.mp4	0.0	170.5879099369049	0.9994721412658691
24	134.04074907302856	pulse	0	t		22.0	2.5	/experiments/AOT/AOT_stimuli/rescaled_final/0153_rv.mp4	0.0	170.77086210250854	
24	134.8572690486908	movie	1		244	22.0	2.5	/experiments/AOT/AOT_stimuli/rescaled_final/0153_rv.mp4	0.0	171.58738207817078	2.5003418922424316
24	135.64127206802368	pulse	1	t		22.0	2.5	/experiments/AOT/AOT_stimuli/rescaled_final/0153_rv.mp4	0.0	172.37138509750366	
24	137.2395520210266	pulse	1	t		22.0	2.5	/experiments/AOT/AOT_stimuli/rescaled_final/0153_rv.mp4	0.0	173.9696650505066	
24	137.35761094093323	fix_post	2		12	22.0	2.5	/experiments/AOT/AOT_stimuli/rescaled_final/0153_rv.mp4	0.0	174.0877239704132	0.09975194931030273
25	137.45736289024353	fix_pre	0		120	23.0	2.5	/experiments/AOT/AOT_stimuli/rescaled_final/0947_fw.mp4	0.0	174.1874759197235	1.0003011226654053
25	138.45766401290894	movie	1		246	23.0	2.5	/experiments/AOT/AOT_stimuli/rescaled_final/0947_fw.mp4	0.0	175.18777704238892	2.4999208450317383
25	138.84051394462585	pulse	1	t		23.0	2.5	/experiments/AOT/AOT_stimuli/rescaled_final/0947_fw.mp4	0.0	175.57062697410583	
25	140.44113087654114	pulse	1	t		23.0	2.5	/experiments/AOT/AOT_stimuli/rescaled_final/0947_fw.mp4	0.0	177.17124390602112	
25	140.95758485794067	fix_post	2		12	23.0	2.5	/experiments/AOT/AOT_stimuli/rescaled_final/0947_fw.mp4	0.0	177.68769788742065	0.10003304481506348
26	141.05761790275574	fix_pre	0		119	24.0	2.5	/experiments/AOT/AOT_stimuli/rescaled_final/0723_fw.mp4	0.0	177.78773093223572	0.9916951656341553
26	142.0410180091858	pulse	0	t		24.0	2.5	/experiments/AOT/AOT_stimuli/rescaled_final/0723_fw.mp4	0.0	178.77113103866577	
26	142.0493130683899	movie	1		249	24.0	2.5	/experiments/AOT/AOT_stimuli/rescaled_final/0723_fw.mp4	0.0	178.77942609786987	2.5078048706054688
26	143.64057207107544	pulse	1	t		24.0	2.5	/experiments/AOT/AOT_stimuli/rescaled_final/0723_fw.mp4	0.0	180.37068510055542	
26	144.55711793899536	fix_post	2		12	24.0	2.5	/experiments/AOT/AOT_stimuli/rescaled_final/0723_fw.mp4	0.0	181.28723096847534	0.10042691230773926
27	144.6575448513031	fix_pre	0		120	25.0	2.5	/experiments/AOT/AOT_stimuli/rescaled_final/0365_rv.mp4	0.0	181.38765788078308	0.9999511241912842
27	145.24105787277222	pulse	0	t		25.0	2.5	/experiments/AOT/AOT_stimuli/rescaled_final/0365_rv.mp4	0.0	181.9711709022522	
27	145.65749597549438	movie	1		245	25.0	2.5	/experiments/AOT/AOT_stimuli/rescaled_final/0365_rv.mp4	0.0	182.38760900497437	2.500056028366089
27	146.84108591079712	pulse	1	t		25.0	2.5	/experiments/AOT/AOT_stimuli/rescaled_final/0365_rv.mp4	0.0	183.5711989402771	
27	148.15755200386047	fix_post	2		12	25.0	2.5	/experiments/AOT/AOT_stimuli/rescaled_final/0365_rv.mp4	0.0	184.88766503334045	0.10005307197570801
28	148.25760507583618	fix_pre	0		120	26.0	2.5	/experiments/AOT/AOT_stimuli/rescaled_final/0076_rv.mp4	0.0	184.98771810531616	1.0000019073486328
28	148.44118094444275	pulse	0	t		26.0	2.5	/experiments/AOT/AOT_stimuli/rescaled_final/0076_rv.mp4	0.0	185.17129397392273	
28	149.25760698318481	movie	1		244	26.0	2.5	/experiments/AOT/AOT_stimuli/rescaled_final/0076_rv.mp4	0.0	185.9877200126648	2.4994969367980957
28	150.0410258769989	pulse	1	t		26.0	2.5	/experiments/AOT/AOT_stimuli/rescaled_final/0076_rv.mp4	0.0	186.77113890647888	
28	151.63959503173828	pulse	1	t		26.0	2.5	/experiments/AOT/AOT_stimuli/rescaled_final/0076_rv.mp4	0.0	188.36970806121826	
28	151.7571039199829	fix_post	2		12	26.0	2.5	/experiments/AOT/AOT_stimuli/rescaled_final/0076_rv.mp4	0.0	188.4872169494629	0.10045504570007324
29	151.85755896568298	fix_pre	0		120	27.0	2.5	/experiments/AOT/AOT_stimuli/rescaled_final/0723_fw.mp4	0.0	188.58767199516296	0.9998888969421387
29	152.85744786262512	movie	1		245	27.0	2.5	/experiments/AOT/AOT_stimuli/rescaled_final/0723_fw.mp4	0.0	189.5875608921051	2.5001001358032227
29	153.24066591262817	pulse	1	t		27.0	2.5	/experiments/AOT/AOT_stimuli/rescaled_final/0723_fw.mp4	0.0	189.97077894210815	
29	154.84104204177856	pulse	1	t		27.0	2.5	/experiments/AOT/AOT_stimuli/rescaled_final/0723_fw.mp4	0.0	191.57115507125854	
29	155.35754799842834	fix_post	2		12	27.0	2.5	/experiments/AOT/AOT_stimuli/rescaled_final/0723_fw.mp4	0.0	192.08766102790833	0.10001993179321289
30	155.45756793022156	fix_pre	0		119	28.0	2.5	blank	1.0	192.18768095970154	0.9915499687194824
30	156.4410629272461	pulse	0	t		28.0	2.5	blank	1.0	193.17117595672607	
30	156.44911789894104	movie	1		301	28.0	2.5	blank	1.0	193.17923092842102	2.5083789825439453
30	158.04106307029724	pulse	1	t		28.0	2.5	blank	1.0	194.77117609977722	
30	158.95749688148499	fix_post	2		12	28.0	2.5	blank	1.0	195.68760991096497	0.10007500648498535
31	159.05757188796997	fix_pre	0		120	29.0	2.5	/experiments/AOT/AOT_stimuli/rescaled_final/1747_rv.mp4	0.0	195.78768491744995	0.9994640350341797
31	159.64103889465332	pulse	0	t		29.0	2.5	/experiments/AOT/AOT_stimuli/rescaled_final/1747_rv.mp4	0.0	196.3711519241333	
31	160.05703592300415	movie	1		243	29.0	2.5	/experiments/AOT/AOT_stimuli/rescaled_final/1747_rv.mp4	0.0	196.78714895248413	2.5000240802764893
31	161.24106097221375	pulse	1	t		29.0	2.5	/experiments/AOT/AOT_stimuli/rescaled_final/1747_rv.mp4	0.0	197.97117400169373	
31	162.55706000328064	fix_post	2		12	29.0	2.5	/experiments/AOT/AOT_stimuli/rescaled_final/1747_rv.mp4	0.0	199.28717303276062	0.1000070571899414
32	162.65706706047058	fix_pre	0		120	30.0	2.5	/experiments/AOT/AOT_stimuli/rescaled_final/0593_rv.mp4	0.0	199.38718008995056	1.0003688335418701
32	162.84108901023865	pulse	0	t		30.0	2.5	/experiments/AOT/AOT_stimuli/rescaled_final/0593_rv.mp4	0.0	199.57120203971863	
32	163.65743589401245	movie	1		243	30.0	2.5	/experiments/AOT/AOT_stimuli/rescaled_final/0593_rv.mp4	0.0	200.38754892349243	2.5000829696655273
32	164.44094491004944	pulse	1	t		30.0	2.5	/experiments/AOT/AOT_stimuli/rescaled_final/0593_rv.mp4	0.0	201.17105793952942	
32	166.03947806358337	pulse	1	t		30.0	2.5	/experiments/AOT/AOT_stimuli/rescaled_final/0593_rv.mp4	0.0	202.76959109306335	
32	166.15751886367798	fix_post	2		12	30.0	2.5	/experiments/AOT/AOT_stimuli/rescaled_final/0593_rv.mp4	0.0	202.88763189315796	0.0999300479888916
33	166.25744891166687	fix_pre	0		120	31.0	2.5	/experiments/AOT/AOT_stimuli/rescaled_final/0545_fw.mp4	0.0	202.98756194114685	1.0000481605529785
33	167.25749707221985	movie	1		245	31.0	2.5	/experiments/AOT/AOT_stimuli/rescaled_final/0545_fw.mp4	0.0	203.98761010169983	2.4995129108428955
33	167.64081597328186	pulse	1	t		31.0	2.5	/experiments/AOT/AOT_stimuli/rescaled_final/0545_fw.mp4	0.0	204.37092900276184	
33	169.2409598827362	pulse	1	t		31.0	2.5	/experiments/AOT/AOT_stimuli/rescaled_final/0545_fw.mp4	0.0	205.9710729122162	
33	169.75700998306274	fix_post	2		12	31.0	2.5	/experiments/AOT/AOT_stimuli/rescaled_final/0545_fw.mp4	0.0	206.48712301254272	0.10045099258422852
34	169.85746097564697	fix_pre	0		119	32.0	2.5	/experiments/AOT/AOT_stimuli/rescaled_final/1387_fw.mp4	0.0	206.58757400512695	0.9916999340057373
34	170.84098386764526	pulse	0	t		32.0	2.5	/experiments/AOT/AOT_stimuli/rescaled_final/1387_fw.mp4	0.0	207.57109689712524	
34	170.8491609096527	movie	1		245	32.0	2.5	/experiments/AOT/AOT_stimuli/rescaled_final/1387_fw.mp4	0.0	207.5792739391327	2.508284091949463
34	172.44079303741455	pulse	1	t		32.0	2.5	/experiments/AOT/AOT_stimuli/rescaled_final/1387_fw.mp4	0.0	209.17090606689453	
34	173.35744500160217	fix_post	2		12	32.0	2.5	/experiments/AOT/AOT_stimuli/rescaled_final/1387_fw.mp4	0.0	210.08755803108215	0.10000991821289062
35	173.45745491981506	fix_pre	0		120	33.0	2.5	blank	1.0	210.18756794929504	0.9999771118164062
35	174.0410978794098	pulse	0	t		33.0	2.5	blank	1.0	210.77121090888977	
35	174.45743203163147	movie	1		300	33.0	2.5	blank	1.0	211.18754506111145	2.500037908554077
35	175.64093208312988	pulse	1	t		33.0	2.5	blank	1.0	212.37104511260986	
35	176.95746994018555	fix_post	2		12	33.0	2.5	blank	1.0	213.68758296966553	0.09993410110473633
36	177.05740404129028	fix_pre	0		120	34.0	2.5	/experiments/AOT/AOT_stimuli/rescaled_final/1751_rv.mp4	0.0	213.78751707077026	1.0001308917999268
36	177.24095487594604	pulse	0	t		34.0	2.5	/experiments/AOT/AOT_stimuli/rescaled_final/1751_rv.mp4	0.0	213.97106790542603	
36	178.0575349330902	movie	1		243	34.0	2.5	/experiments/AOT/AOT_stimuli/rescaled_final/1751_rv.mp4	0.0	214.7876479625702	2.499917984008789
36	178.8409459590912	pulse	1	t		34.0	2.5	/experiments/AOT/AOT_stimuli/rescaled_final/1751_rv.mp4	0.0	215.57105898857117	
36	180.43969893455505	pulse	1	t		34.0	2.5	/experiments/AOT/AOT_stimuli/rescaled_final/1751_rv.mp4	0.0	217.16981196403503	
36	180.557452917099	fix_post	2		12	34.0	2.5	/experiments/AOT/AOT_stimuli/rescaled_final/1751_rv.mp4	0.0	217.28756594657898	0.09999203681945801
37	180.65744495391846	fix_pre	0		120	35.0	2.5	/experiments/AOT/AOT_stimuli/rescaled_final/0350_rv.mp4	0.0	217.38755798339844	0.9999210834503174
37	181.65736603736877	movie	1		243	35.0	2.5	/experiments/AOT/AOT_stimuli/rescaled_final/0350_rv.mp4	0.0	218.38747906684875	2.4999728202819824
37	182.04048705101013	pulse	1	t		35.0	2.5	/experiments/AOT/AOT_stimuli/rescaled_final/0350_rv.mp4	0.0	218.7706000804901	
37	183.64094400405884	pulse	1	t		35.0	2.5	/experiments/AOT/AOT_stimuli/rescaled_final/0350_rv.mp4	0.0	220.37105703353882	
37	184.15733885765076	fix_post	2		12	35.0	2.5	/experiments/AOT/AOT_stimuli/rescaled_final/0350_rv.mp4	0.0	220.88745188713074	0.10005712509155273
38	184.2573959827423	fix_pre	0		119	36.0	2.5	/experiments/AOT/AOT_stimuli/rescaled_final/0164_fw.mp4	0.0	220.9875090122223	0.9916930198669434
38	185.24089002609253	pulse	0	t		36.0	2.5	/experiments/AOT/AOT_stimuli/rescaled_final/0164_fw.mp4	0.0	221.9710030555725	
38	185.24908900260925	movie	1		244	36.0	2.5	/experiments/AOT/AOT_stimuli/rescaled_final/0164_fw.mp4	0.0	221.97920203208923	2.5082759857177734
38	186.84054899215698	pulse	1	t		36.0	2.5	/experiments/AOT/AOT_stimuli/rescaled_final/0164_fw.mp4	0.0	223.57066202163696	
38	187.75736498832703	fix_post	2		12	36.0	2.5	/experiments/AOT/AOT_stimuli/rescaled_final/0164_fw.mp4	0.0	224.487478017807	0.10000896453857422
39	187.8573739528656	fix_pre	0		120	37.0	2.5	/experiments/AOT/AOT_stimuli/rescaled_final/0174_fw.mp4	0.0	224.58748698234558	1.0000200271606445
39	188.4408950805664	pulse	0	t		37.0	2.5	/experiments/AOT/AOT_stimuli/rescaled_final/0174_fw.mp4	0.0	225.1710081100464	
39	188.85739398002625	movie	1		247	37.0	2.5	/experiments/AOT/AOT_stimuli/rescaled_final/0174_fw.mp4	0.0	225.58750700950623	2.500091075897217
39	190.0404498577118	pulse	1	t		37.0	2.5	/experiments/AOT/AOT_stimuli/rescaled_final/0174_fw.mp4	0.0	226.77056288719177	
39	191.35748505592346	fix_post	2		12	37.0	2.5	/experiments/AOT/AOT_stimuli/rescaled_final/0174_fw.mp4	0.0	228.08759808540344	0.09963083267211914
40	191.45711588859558	fix_pre	0		120	38.0	2.5	/experiments/AOT/AOT_stimuli/rescaled_final/0071_fw.mp4	0.0	228.18722891807556	1.0005671977996826
40	191.64058089256287	pulse	0	t		38.0	2.5	/experiments/AOT/AOT_stimuli/rescaled_final/0071_fw.mp4	0.0	228.37069392204285	
40	192.45768308639526	movie	1		247	38.0	2.5	/experiments/AOT/AOT_stimuli/rescaled_final/0071_fw.mp4	0.0	229.18779611587524	2.499584913253784
40	193.24084496498108	pulse	1	t		38.0	2.5	/experiments/AOT/AOT_stimuli/rescaled_final/0071_fw.mp4	0.0	229.97095799446106	
40	194.84096598625183	pulse	1	t		38.0	2.5	/experiments/AOT/AOT_stimuli/rescaled_final/0071_fw.mp4	0.0	231.5710790157318	
40	194.95726799964905	fix_post	2		12	38.0	2.5	/experiments/AOT/AOT_stimuli/rescaled_final/0071_fw.mp4	0.0	231.68738102912903	0.10006308555603027
41	195.05733108520508	fix_pre	0		120	39.0	2.5	/experiments/AOT/AOT_stimuli/rescaled_final/0893_fw.mp4	0.0	231.78744411468506	0.9999899864196777
41	196.05732107162476	movie	1		243	39.0	2.5	/experiments/AOT/AOT_stimuli/rescaled_final/0893_fw.mp4	0.0	232.78743410110474	2.4999427795410156
41	196.44070887565613	pulse	1	t		39.0	2.5	/experiments/AOT/AOT_stimuli/rescaled_final/0893_fw.mp4	0.0	233.1708219051361	
41	198.040687084198	pulse	1	t		39.0	2.5	/experiments/AOT/AOT_stimuli/rescaled_final/0893_fw.mp4	0.0	234.77080011367798	
41	198.55726385116577	fix_post	2		12	39.0	2.5	/experiments/AOT/AOT_stimuli/rescaled_final/0893_fw.mp4	0.0	235.28737688064575	0.09957408905029297
42	198.65683794021606	fix_pre	0		119	40.0	2.5	blank	1.0	235.38695096969604	0.9921190738677979
42	199.64088201522827	pulse	0	t		40.0	2.5	blank	1.0	236.37099504470825	
42	199.64895701408386	movie	1		301	40.0	2.5	blank	1.0	236.37907004356384	2.5083119869232178
42	201.24072194099426	pulse	1	t		40.0	2.5	blank	1.0	237.97083497047424	
42	202.15726900100708	fix_post	2		12	40.0	2.5	blank	1.0	238.88738203048706	0.10001587867736816
43	202.25728487968445	fix_pre	0		120	41.0	2.5	/experiments/AOT/AOT_stimuli/rescaled_final/1849_rv.mp4	0.0	238.98739790916443	0.9999949932098389
43	202.84076595306396	pulse	0	t		41.0	2.5	/experiments/AOT/AOT_stimuli/rescaled_final/1849_rv.mp4	0.0	239.57087898254395	
43	203.2572798728943	movie	1		245	41.0	2.5	/experiments/AOT/AOT_stimuli/rescaled_final/1849_rv.mp4	0.0	239.98739290237427	2.5000131130218506
43	204.4408359527588	pulse	1	t		41.0	2.5	/experiments/AOT/AOT_stimuli/rescaled_final/1849_rv.mp4	0.0	241.17094898223877	
43	205.75729298591614	fix_post	2		12	41.0	2.5	/experiments/AOT/AOT_stimuli/rescaled_final/1849_rv.mp4	0.0	242.48740601539612	0.0999460220336914
44	205.85723900794983	fix_pre	0		120	42.0	2.5	/experiments/AOT/AOT_stimuli/rescaled_final/0083_fw.mp4	0.0	242.5873520374298	1.0000050067901611
44	206.04080295562744	pulse	0	t		42.0	2.5	/experiments/AOT/AOT_stimuli/rescaled_final/0083_fw.mp4	0.0	242.77091598510742	
44	206.85724401474	movie	1		246	42.0	2.5	/experiments/AOT/AOT_stimuli/rescaled_final/0083_fw.mp4	0.0	243.58735704421997	2.5000009536743164
44	207.6407868862152	pulse	1	t		42.0	2.5	/experiments/AOT/AOT_stimuli/rescaled_final/0083_fw.mp4	0.0	244.3708999156952	
44	209.23930287361145	pulse	1	t		42.0	2.5	/experiments/AOT/AOT_stimuli/rescaled_final/0083_fw.mp4	0.0	245.96941590309143	
44	209.3572449684143	fix_post	2		12	42.0	2.5	/experiments/AOT/AOT_stimuli/rescaled_final/0083_fw.mp4	0.0	246.0873579978943	0.10004496574401855
45	209.45728993415833	fix_pre	0		120	43.0	2.5	/experiments/AOT/AOT_stimuli/rescaled_final/1747_rv.mp4	0.0	246.1874029636383	0.9999759197235107
45	210.45726585388184	movie	1		243	43.0	2.5	/experiments/AOT/AOT_stimuli/rescaled_final/1747_rv.mp4	0.0	247.18737888336182	2.5000150203704834
45	210.84096002578735	pulse	1	t		43.0	2.5	/experiments/AOT/AOT_stimuli/rescaled_final/1747_rv.mp4	0.0	247.57107305526733	
45	212.44073700904846	pulse	1	t		43.0	2.5	/experiments/AOT/AOT_stimuli/rescaled_final/1747_rv.mp4	0.0	249.17085003852844	
45	212.95728087425232	fix_post	2		12	43.0	2.5	/experiments/AOT/AOT_stimuli/rescaled_final/1747_rv.mp4	0.0	249.6873939037323	0.10000300407409668
46	213.05728387832642	fix_pre	0		119	44.0	2.5	/experiments/AOT/AOT_stimuli/rescaled_final/2048_fw.mp4	0.0	249.7873969078064	0.9916071891784668
46	214.0407428741455	pulse	0	t		44.0	2.5	/experiments/AOT/AOT_stimuli/rescaled_final/2048_fw.mp4	0.0	250.7708559036255	
46	214.04889106750488	movie	1		244	44.0	2.5	/experiments/AOT/AOT_stimuli/rescaled_final/2048_fw.mp4	0.0	250.77900409698486	2.5082879066467285
46	215.64041304588318	pulse	1	t		44.0	2.5	/experiments/AOT/AOT_stimuli/rescaled_final/2048_fw.mp4	0.0	252.37052607536316	
46	216.5571789741516	fix_post	2		12	44.0	2.5	/experiments/AOT/AOT_stimuli/rescaled_final/2048_fw.mp4	0.0	253.2872920036316	0.10000801086425781
47	216.65718698501587	fix_pre	0		120	45.0	2.5	/experiments/AOT/AOT_stimuli/rescaled_final/1760_rv.mp4	0.0	253.38730001449585	0.9995760917663574
47	217.24073386192322	pulse	0	t		45.0	2.5	/experiments/AOT/AOT_stimuli/rescaled_final/1760_rv.mp4	0.0	253.9708468914032	
47	217.65676307678223	movie	1		243	45.0	2.5	/experiments/AOT/AOT_stimuli/rescaled_final/1760_rv.mp4	0.0	254.3868761062622	2.500053882598877
47	218.84076499938965	pulse	1	t		45.0	2.5	/experiments/AOT/AOT_stimuli/rescaled_final/1760_rv.mp4	0.0	255.57087802886963	
47	220.1568169593811	fix_post	2		12	45.0	2.5	/experiments/AOT/AOT_stimuli/rescaled_final/1760_rv.mp4	0.0	256.8869299888611	0.10043597221374512
48	220.25725293159485	fix_pre	0		120	46.0	2.5	/experiments/AOT/AOT_stimuli/rescaled_final/1060_rv.mp4	0.0	256.98736596107483	0.9999799728393555
48	220.4407069683075	pulse	0	t		46.0	2.5	/experiments/AOT/AOT_stimuli/rescaled_final/1060_rv.mp4	0.0	257.1708199977875	
48	221.2572329044342	movie	1		244	46.0	2.5	/experiments/AOT/AOT_stimuli/rescaled_final/1060_rv.mp4	0.0	257.9873459339142	2.500102996826172
48	222.04067707061768	pulse	1	t		46.0	2.5	/experiments/AOT/AOT_stimuli/rescaled_final/1060_rv.mp4	0.0	258.77079010009766	
48	223.63913202285767	pulse	1	t		46.0	2.5	/experiments/AOT/AOT_stimuli/rescaled_final/1060_rv.mp4	0.0	260.36924505233765	
48	223.75733590126038	fix_post	2		12	46.0	2.5	/experiments/AOT/AOT_stimuli/rescaled_final/1060_rv.mp4	0.0	260.48744893074036	0.09990215301513672
49	223.8572380542755	fix_pre	0		120	47.0	2.5	blank	1.0	260.5873510837555	0.9999959468841553
49	224.85723400115967	movie	1		300	47.0	2.5	blank	1.0	261.58734703063965	2.499871015548706
49	225.24067187309265	pulse	1	t		47.0	2.5	blank	1.0	261.97078490257263	
49	226.84073185920715	pulse	1	t		47.0	2.5	blank	1.0	263.57084488868713	
49	227.35710501670837	fix_post	2		12	47.0	2.5	blank	1.0	264.08721804618835	0.10006594657897949
50	227.45717096328735	fix_pre	0		119	48.0	2.5	/experiments/AOT/AOT_stimuli/rescaled_final/0931_rv.mp4	0.0	264.18728399276733	0.9917058944702148
50	228.44068908691406	pulse	0	t		48.0	2.5	/experiments/AOT/AOT_stimuli/rescaled_final/0931_rv.mp4	0.0	265.17080211639404	
50	228.44887685775757	movie	1		248	48.0	2.5	/experiments/AOT/AOT_stimuli/rescaled_final/0931_rv.mp4	0.0	265.17898988723755	2.5082790851593018
50	230.04031991958618	pulse	1	t		48.0	2.5	/experiments/AOT/AOT_stimuli/rescaled_final/0931_rv.mp4	0.0	266.77043294906616	
50	230.95715594291687	fix_post	2		12	48.0	2.5	/experiments/AOT/AOT_stimuli/rescaled_final/0931_rv.mp4	0.0	267.68726897239685	0.0999000072479248
51	231.0570559501648	fix_pre	0		120	49.0	2.5	/experiments/AOT/AOT_stimuli/rescaled_final/0090_fw.mp4	0.0	267.7871689796448	0.9997560977935791
51	231.64056491851807	pulse	0	t		49.0	2.5	/experiments/AOT/AOT_stimuli/rescaled_final/0090_fw.mp4	0.0	268.37067794799805	
51	232.05681204795837	movie	1		249	49.0	2.5	/experiments/AOT/AOT_stimuli/rescaled_final/0090_fw.mp4	0.0	268.78692507743835	2.5004539489746094
51	233.24068903923035	pulse	1	t		49.0	2.5	/experiments/AOT/AOT_stimuli/rescaled_final/0090_fw.mp4	0.0	269.9708020687103	
51	234.55726599693298	fix_post	2		12	49.0	2.5	/experiments/AOT/AOT_stimuli/rescaled_final/0090_fw.mp4	0.0	271.28737902641296	0.09986686706542969
52	234.6571328639984	fix_pre	0		120	50.0	2.5	/experiments/AOT/AOT_stimuli/rescaled_final/2163_fw.mp4	0.0	271.3872458934784	0.9999220371246338
52	234.84066200256348	pulse	0	t		50.0	2.5	/experiments/AOT/AOT_stimuli/rescaled_final/2163_fw.mp4	0.0	271.57077503204346	
52	235.65705490112305	movie	1		244	50.0	2.5	/experiments/AOT/AOT_stimuli/rescaled_final/2163_fw.mp4	0.0	272.387167930603	2.500054121017456
52	236.4406349658966	pulse	1	t		50.0	2.5	/experiments/AOT/AOT_stimuli/rescaled_final/2163_fw.mp4	0.0	273.1707479953766	
52	238.0366780757904	pulse	1	t		50.0	2.5	/experiments/AOT/AOT_stimuli/rescaled_final/2163_fw.mp4	0.0	274.7667911052704	
52	238.1571090221405	fix_post	2		12	50.0	2.5	/experiments/AOT/AOT_stimuli/rescaled_final/2163_fw.mp4	0.0	274.8872220516205	0.09996986389160156
53	238.2570788860321	fix_pre	0		120	51.0	2.5	/experiments/AOT/AOT_stimuli/rescaled_final/1496_rv.mp4	0.0	274.9871919155121	0.9999821186065674
53	239.25706100463867	movie	1		246	51.0	2.5	/experiments/AOT/AOT_stimuli/rescaled_final/1496_rv.mp4	0.0	275.98717403411865	2.5001840591430664
53	239.64049005508423	pulse	1	t		51.0	2.5	/experiments/AOT/AOT_stimuli/rescaled_final/1496_rv.mp4	0.0	276.3706030845642	
53	241.24062705039978	pulse	1	t		51.0	2.5	/experiments/AOT/AOT_stimuli/rescaled_final/1496_rv.mp4	0.0	277.97074007987976	
53	241.75724506378174	fix_post	2		12	51.0	2.5	/experiments/AOT/AOT_stimuli/rescaled_final/1496_rv.mp4	0.0	278.4873580932617	0.09988689422607422
54	241.8571319580078	fix_pre	0		119	52.0	2.5	/experiments/AOT/AOT_stimuli/rescaled_final/1209_fw.mp4	0.0	278.5872449874878	0.991581916809082
54	242.8407289981842	pulse	0	t		52.0	2.5	/experiments/AOT/AOT_stimuli/rescaled_final/1209_fw.mp4	0.0	279.5708420276642	
54	242.8487138748169	movie	1		246	52.0	2.5	/experiments/AOT/AOT_stimuli/rescaled_final/1209_fw.mp4	0.0	279.5788269042969	2.5079941749572754
54	244.4403600692749	pulse	1	t		52.0	2.5	/experiments/AOT/AOT_stimuli/rescaled_final/1209_fw.mp4	0.0	281.1704730987549	
54	245.35670804977417	fix_post	2		12	52.0	2.5	/experiments/AOT/AOT_stimuli/rescaled_final/1209_fw.mp4	0.0	282.08682107925415	0.10036587715148926
55	245.45707392692566	fix_pre	0		120	53.0	2.5	/experiments/AOT/AOT_stimuli/rescaled_final/1649_fw.mp4	0.0	282.18718695640564	0.9996399879455566
55	246.04022693634033	pulse	0	t		53.0	2.5	/experiments/AOT/AOT_stimuli/rescaled_final/1649_fw.mp4	0.0	282.7703399658203	
55	246.45671391487122	movie	1		244	53.0	2.5	/experiments/AOT/AOT_stimuli/rescaled_final/1649_fw.mp4	0.0	283.1868269443512	2.5003769397735596
55	247.64041996002197	pulse	1	t		53.0	2.5	/experiments/AOT/AOT_stimuli/rescaled_final/1649_fw.mp4	0.0	284.37053298950195	
55	248.95709085464478	fix_post	2		12	53.0	2.5	/experiments/AOT/AOT_stimuli/rescaled_final/1649_fw.mp4	0.0	285.68720388412476	0.10001111030578613
56	249.05710196495056	fix_pre	0		120	54.0	2.5	/experiments/AOT/AOT_stimuli/rescaled_final/0302_rv.mp4	0.0	285.78721499443054	0.9999439716339111
56	249.24058389663696	pulse	0	t		54.0	2.5	/experiments/AOT/AOT_stimuli/rescaled_final/0302_rv.mp4	0.0	285.97069692611694	
56	250.05704593658447	movie	1		244	54.0	2.5	/experiments/AOT/AOT_stimuli/rescaled_final/0302_rv.mp4	0.0	286.78715896606445	2.4999771118164062
56	250.8405740261078	pulse	1	t		54.0	2.5	/experiments/AOT/AOT_stimuli/rescaled_final/0302_rv.mp4	0.0	287.57068705558777	
56	252.43891787528992	pulse	1	t		54.0	2.5	/experiments/AOT/AOT_stimuli/rescaled_final/0302_rv.mp4	0.0	289.1690309047699	
56	252.55702304840088	fix_post	2		12	54.0	2.5	/experiments/AOT/AOT_stimuli/rescaled_final/0302_rv.mp4	0.0	289.28713607788086	0.1000678539276123
57	252.6570909023285	fix_pre	0		120	55.0	2.5	blank	1.0	289.3872039318085	0.9999420642852783
57	253.65703296661377	movie	1		300	55.0	2.5	blank	1.0	290.38714599609375	2.5000219345092773
57	254.04047989845276	pulse	1	t		55.0	2.5	blank	1.0	290.77059292793274	
57	255.6405348777771	pulse	1	t		55.0	2.5	blank	1.0	292.3706479072571	
57	256.15705490112305	fix_post	2		12	55.0	2.5	blank	1.0	292.887167930603	0.09991717338562012
58	256.25697207450867	fix_pre	0		119	56.0	2.5	/experiments/AOT/AOT_stimuli/rescaled_final/1060_fw.mp4	0.0	292.98708510398865	0.9917178153991699
58	257.2405309677124	pulse	0	t		56.0	2.5	/experiments/AOT/AOT_stimuli/rescaled_final/1060_fw.mp4	0.0	293.9706439971924	
58	257.24868988990784	movie	1		246	56.0	2.5	/experiments/AOT/AOT_stimuli/rescaled_final/1060_fw.mp4	0.0	293.9788029193878	2.5083160400390625
58	258.8415379524231	pulse	1	t		56.0	2.5	/experiments/AOT/AOT_stimuli/rescaled_final/1060_fw.mp4	0.0	295.5716509819031	
58	259.7570059299469	fix_post	2		12	56.0	2.5	/experiments/AOT/AOT_stimuli/rescaled_final/1060_fw.mp4	0.0	296.4871189594269	0.09993410110473633
59	259.85694003105164	fix_pre	0		120	57.0	2.5	/experiments/AOT/AOT_stimuli/rescaled_final/1853_fw.mp4	0.0	296.5870530605316	1.0001239776611328
59	260.44044303894043	pulse	0	t		57.0	2.5	/experiments/AOT/AOT_stimuli/rescaled_final/1853_fw.mp4	0.0	297.1705560684204	
59	260.85706400871277	movie	1		244	57.0	2.5	/experiments/AOT/AOT_stimuli/rescaled_final/1853_fw.mp4	0.0	297.58717703819275	2.4994678497314453
59	262.0405240058899	pulse	1	t		57.0	2.5	/experiments/AOT/AOT_stimuli/rescaled_final/1853_fw.mp4	0.0	298.7706370353699	
59	263.3565318584442	fix_post	2		12	57.0	2.5	/experiments/AOT/AOT_stimuli/rescaled_final/1853_fw.mp4	0.0	300.0866448879242	0.10045218467712402
60	263.45698404312134	fix_pre	0		120	58.0	2.5	/experiments/AOT/AOT_stimuli/rescaled_final/1649_rv.mp4	0.0	300.1870970726013	1.00006103515625
60	263.64047503471375	pulse	0	t		58.0	2.5	/experiments/AOT/AOT_stimuli/rescaled_final/1649_rv.mp4	0.0	300.3705880641937	
60	264.4570450782776	movie	1		244	58.0	2.5	/experiments/AOT/AOT_stimuli/rescaled_final/1649_rv.mp4	0.0	301.18715810775757	2.4997708797454834
60	265.24043798446655	pulse	1	t		58.0	2.5	/experiments/AOT/AOT_stimuli/rescaled_final/1649_rv.mp4	0.0	301.97055101394653	
60	266.83898997306824	pulse	1	t		58.0	2.5	/experiments/AOT/AOT_stimuli/rescaled_final/1649_rv.mp4	0.0	303.5691030025482	
60	266.95681595802307	fix_post	2		12	58.0	2.5	/experiments/AOT/AOT_stimuli/rescaled_final/1649_rv.mp4	0.0	303.68692898750305	0.10015702247619629
61	267.05697298049927	fix_pre	0		120	59.0	2.5	/experiments/AOT/AOT_stimuli/rescaled_final/1432_rv.mp4	0.0	303.78708600997925	1.0000529289245605
61	268.0570259094238	movie	1		244	59.0	2.5	/experiments/AOT/AOT_stimuli/rescaled_final/1432_rv.mp4	0.0	304.7871389389038	2.4998960494995117
61	268.44017791748047	pulse	1	t		59.0	2.5	/experiments/AOT/AOT_stimuli/rescaled_final/1432_rv.mp4	0.0	305.17029094696045	
61	270.04040789604187	pulse	1	t		59.0	2.5	/experiments/AOT/AOT_stimuli/rescaled_final/1432_rv.mp4	0.0	306.77052092552185	
61	270.55692195892334	fix_post	2		12	59.0	2.5	/experiments/AOT/AOT_stimuli/rescaled_final/1432_rv.mp4	0.0	307.2870349884033	0.10002303123474121
62	270.6569449901581	fix_pre	0		119	60.0	2.5	/experiments/AOT/AOT_stimuli/rescaled_final/0348_fw.mp4	0.0	307.38705801963806	0.9916880130767822
62	271.6404619216919	pulse	0	t		60.0	2.5	/experiments/AOT/AOT_stimuli/rescaled_final/0348_fw.mp4	0.0	308.3705749511719	
62	271.64863300323486	movie	1		247	60.0	2.5	/experiments/AOT/AOT_stimuli/rescaled_final/0348_fw.mp4	0.0	308.37874603271484	2.5082359313964844
62	273.2397379875183	pulse	1	t		60.0	2.5	/experiments/AOT/AOT_stimuli/rescaled_final/0348_fw.mp4	0.0	309.9698510169983	
62	274.15686893463135	fix_post	2		12	60.0	2.5	/experiments/AOT/AOT_stimuli/rescaled_final/0348_fw.mp4	0.0	310.8869819641113	0.09997296333312988
63	274.2568418979645	fix_pre	0		120	61.0	2.5	/experiments/AOT/AOT_stimuli/rescaled_final/0723_rv.mp4	0.0	310.98695492744446	0.9996609687805176
63	274.84044003486633	pulse	0	t		61.0	2.5	/experiments/AOT/AOT_stimuli/rescaled_final/0723_rv.mp4	0.0	311.5705530643463	
63	275.256502866745	movie	1		248	61.0	2.5	/experiments/AOT/AOT_stimuli/rescaled_final/0723_rv.mp4	0.0	311.986615896225	2.5005030632019043
63	276.4405620098114	pulse	1	t		61.0	2.5	/experiments/AOT/AOT_stimuli/rescaled_final/0723_rv.mp4	0.0	313.1706750392914	
63	277.7570059299469	fix_post	2		12	61.0	2.5	/experiments/AOT/AOT_stimuli/rescaled_final/0723_rv.mp4	0.0	314.4871189594269	0.09994292259216309
64	277.85694885253906	fix_pre	0		120	62.0	2.5	blank	1.0	314.58706188201904	0.9999940395355225
64	278.040442943573	pulse	0	t		62.0	2.5	blank	1.0	314.770555973053	
64	278.8569428920746	movie	1		300	62.0	2.5	blank	1.0	315.58705592155457	2.499997138977051
64	279.64056396484375	pulse	1	t		62.0	2.5	blank	1.0	316.37067699432373	
64	281.240473985672	pulse	1	t		62.0	2.5	blank	1.0	317.970587015152	
64	281.35694003105164	fix_post	2		12	62.0	2.5	blank	1.0	318.0870530605316	0.10007500648498535
65	281.4570150375366	fix_pre	0		120	63.0	2.5	/experiments/AOT/AOT_stimuli/rescaled_final/0727_fw.mp4	0.0	318.1871280670166	0.999500036239624
65	282.45651507377625	movie	1		246	63.0	2.5	/experiments/AOT/AOT_stimuli/rescaled_final/0727_fw.mp4	0.0	319.1866281032562	2.4999759197235107
65	282.84039306640625	pulse	1	t		63.0	2.5	/experiments/AOT/AOT_stimuli/rescaled_final/0727_fw.mp4	0.0	319.57050609588623	
65	284.4404208660126	pulse	1	t		63.0	2.5	/experiments/AOT/AOT_stimuli/rescaled_final/0727_fw.mp4	0.0	321.17053389549255	
65	284.95649099349976	fix_post	2		12	63.0	2.5	/experiments/AOT/AOT_stimuli/rescaled_final/0727_fw.mp4	0.0	321.68660402297974	0.10046792030334473
66	285.0569589138031	fix_pre	0		119	64.0	2.5	/experiments/AOT/AOT_stimuli/rescaled_final/0702_rv.mp4	0.0	321.7870719432831	0.991645097732544
66	286.0404109954834	pulse	0	t		64.0	2.5	/experiments/AOT/AOT_stimuli/rescaled_final/0702_rv.mp4	0.0	322.7705240249634	
66	286.04860401153564	movie	1		244	64.0	2.5	/experiments/AOT/AOT_stimuli/rescaled_final/0702_rv.mp4	0.0	322.7787170410156	2.5078020095825195
66	287.64023303985596	pulse	1	t		64.0	2.5	/experiments/AOT/AOT_stimuli/rescaled_final/0702_rv.mp4	0.0	324.37034606933594	
66	288.55640602111816	fix_post	2		12	64.0	2.5	/experiments/AOT/AOT_stimuli/rescaled_final/0702_rv.mp4	0.0	325.28651905059814	0.10045099258422852
67	288.6568570137024	fix_pre	0		120	65.0	2.5	/experiments/AOT/AOT_stimuli/rescaled_final/0745_rv.mp4	0.0	325.3869700431824	0.9999899864196777
67	289.2404019832611	pulse	0	t		65.0	2.5	/experiments/AOT/AOT_stimuli/rescaled_final/0745_rv.mp4	0.0	325.9705150127411	
67	289.65684700012207	movie	1		245	65.0	2.5	/experiments/AOT/AOT_stimuli/rescaled_final/0745_rv.mp4	0.0	326.38696002960205	2.5000250339508057
67	290.84039187431335	pulse	1	t		65.0	2.5	/experiments/AOT/AOT_stimuli/rescaled_final/0745_rv.mp4	0.0	327.57050490379333	
67	292.1568720340729	fix_post	2		12	65.0	2.5	/experiments/AOT/AOT_stimuli/rescaled_final/0745_rv.mp4	0.0	328.88698506355286	0.10000205039978027
68	292.25687408447266	fix_pre	0		120	66.0	2.5	/experiments/AOT/AOT_stimuli/rescaled_final/1156_fw.mp4	0.0	328.98698711395264	0.9999279975891113
68	292.44038486480713	pulse	0	t		66.0	2.5	/experiments/AOT/AOT_stimuli/rescaled_final/1156_fw.mp4	0.0	329.1704978942871	
68	293.25680208206177	movie	1		244	66.0	2.5	/experiments/AOT/AOT_stimuli/rescaled_final/1156_fw.mp4	0.0	329.98691511154175	2.5000498294830322
68	294.04032707214355	pulse	1	t		66.0	2.5	/experiments/AOT/AOT_stimuli/rescaled_final/1156_fw.mp4	0.0	330.77044010162354	
68	295.63894987106323	pulse	1	t		66.0	2.5	/experiments/AOT/AOT_stimuli/rescaled_final/1156_fw.mp4	0.0	332.3690629005432	
68	295.7568519115448	fix_post	2		12	66.0	2.5	/experiments/AOT/AOT_stimuli/rescaled_final/1156_fw.mp4	0.0	332.4869649410248	0.09996294975280762
69	295.8568148612976	fix_pre	0		120	67.0	2.5	/experiments/AOT/AOT_stimuli/rescaled_final/0745_fw.mp4	0.0	332.5869278907776	1.000007152557373
69	296.856822013855	movie	1		246	67.0	2.5	/experiments/AOT/AOT_stimuli/rescaled_final/0745_fw.mp4	0.0	333.58693504333496	2.4995579719543457
69	297.2398838996887	pulse	1	t		67.0	2.5	/experiments/AOT/AOT_stimuli/rescaled_final/0745_fw.mp4	0.0	333.9699969291687	
69	298.8403899669647	pulse	1	t		67.0	2.5	/experiments/AOT/AOT_stimuli/rescaled_final/0745_fw.mp4	0.0	335.5705029964447	
69	299.3563799858093	fix_post	2		12	67.0	2.5	/experiments/AOT/AOT_stimuli/rescaled_final/0745_fw.mp4	0.0	336.0864930152893	0.10041999816894531
70	299.45679998397827	fix_pre	0		119	68.0	2.5	/experiments/AOT/AOT_stimuli/rescaled_final/0593_fw.mp4	0.0	336.18691301345825	0.9916999340057373
70	300.44032192230225	pulse	0	t		68.0	2.5	/experiments/AOT/AOT_stimuli/rescaled_final/0593_fw.mp4	0.0	337.1704349517822	
70	300.448499917984	movie	1		246	68.0	2.5	/experiments/AOT/AOT_stimuli/rescaled_final/0593_fw.mp4	0.0	337.178612947464	2.508486032485962
70	302.040137052536	pulse	1	t		68.0	2.5	/experiments/AOT/AOT_stimuli/rescaled_final/0593_fw.mp4	0.0	338.770250082016	
70	302.95698595046997	fix_post	2		12	68.0	2.5	/experiments/AOT/AOT_stimuli/rescaled_final/0593_fw.mp4	0.0	339.68709897994995	0.10006403923034668
71	303.0570499897003	fix_pre	0		120	69.0	2.5	blank	1.0	339.7871630191803	1.0000050067901611
71	303.6406400203705	pulse	0	t		69.0	2.5	blank	1.0	340.37075304985046	
71	304.0570549964905	movie	1		300	69.0	2.5	blank	1.0	340.78716802597046	2.499778985977173
71	305.2403099536896	pulse	1	t		69.0	2.5	blank	1.0	341.97042298316956	
71	306.55683398246765	fix_post	2		12	69.0	2.5	blank	1.0	343.28694701194763	0.09992504119873047
72	306.6567590236664	fix_pre	0		120	70.0	2.5	/experiments/AOT/AOT_stimuli/rescaled_final/1578_rv.mp4	0.0	343.38687205314636	1.0000109672546387
72	306.84025597572327	pulse	0	t		70.0	2.5	/experiments/AOT/AOT_stimuli/rescaled_final/1578_rv.mp4	0.0	343.57036900520325	
72	307.656769990921	movie	1		247	70.0	2.5	/experiments/AOT/AOT_stimuli/rescaled_final/1578_rv.mp4	0.0	344.386883020401	2.4999520778656006
72	308.440269947052	pulse	1	t		70.0	2.5	/experiments/AOT/AOT_stimuli/rescaled_final/1578_rv.mp4	0.0	345.170382976532	
72	310.04035806655884	pulse	1	t		70.0	2.5	/experiments/AOT/AOT_stimuli/rescaled_final/1578_rv.mp4	0.0	346.7704710960388	
72	310.1567220687866	fix_post	2		12	70.0	2.5	/experiments/AOT/AOT_stimuli/rescaled_final/1578_rv.mp4	0.0	346.8868350982666	0.09996700286865234
73	310.2566890716553	fix_pre	0		120	71.0	2.5	/experiments/AOT/AOT_stimuli/rescaled_final/0075_rv.mp4	0.0	346.98680210113525	0.9996368885040283
73	311.2563259601593	movie	1		244	71.0	2.5	/experiments/AOT/AOT_stimuli/rescaled_final/0075_rv.mp4	0.0	347.9864389896393	2.500427007675171
73	311.6400668621063	pulse	1	t		71.0	2.5	/experiments/AOT/AOT_stimuli/rescaled_final/0075_rv.mp4	0.0	348.3701798915863	
73	313.2401740550995	pulse	1	t		71.0	2.5	/experiments/AOT/AOT_stimuli/rescaled_final/0075_rv.mp4	0.0	349.97028708457947	
73	313.7567529678345	fix_post	2		12	71.0	2.5	/experiments/AOT/AOT_stimuli/rescaled_final/0075_rv.mp4	0.0	350.48686599731445	0.09998297691345215
74	313.8567359447479	fix_pre	0		119	72.0	2.5	/experiments/AOT/AOT_stimuli/rescaled_final/0352_fw.mp4	0.0	350.5868489742279	0.9916341304779053
74	314.8402888774872	pulse	0	t		72.0	2.5	/experiments/AOT/AOT_stimuli/rescaled_final/0352_fw.mp4	0.0	351.57040190696716	
74	314.84837007522583	movie	1		247	72.0	2.5	/experiments/AOT/AOT_stimuli/rescaled_final/0352_fw.mp4	0.0	351.5784831047058	2.508382797241211
74	316.4398498535156	pulse	1	t		72.0	2.5	/experiments/AOT/AOT_stimuli/rescaled_final/0352_fw.mp4	0.0	353.1699628829956	
74	317.35675287246704	fix_post	2		12	72.0	2.5	/experiments/AOT/AOT_stimuli/rescaled_final/0352_fw.mp4	0.0	354.086865901947	0.09998202323913574
75	317.4567348957062	fix_pre	0		120	73.0	2.5	/experiments/AOT/AOT_stimuli/rescaled_final/1578_fw.mp4	0.0	354.18684792518616	0.9999940395355225
75	318.0402719974518	pulse	0	t		73.0	2.5	/experiments/AOT/AOT_stimuli/rescaled_final/1578_fw.mp4	0.0	354.77038502693176	
75	318.4567289352417	movie	1		249	73.0	2.5	/experiments/AOT/AOT_stimuli/rescaled_final/1578_fw.mp4	0.0	355.1868419647217	2.499516010284424
75	319.6402280330658	pulse	1	t		73.0	2.5	/experiments/AOT/AOT_stimuli/rescaled_final/1578_fw.mp4	0.0	356.3703410625458	
75	320.9562449455261	fix_post	2		12	73.0	2.5	/experiments/AOT/AOT_stimuli/rescaled_final/1578_fw.mp4	0.0	357.6863579750061	0.10043001174926758
76	321.0566749572754	fix_pre	0		120	74.0	2.5	/experiments/AOT/AOT_stimuli/rescaled_final/1842_fw.mp4	0.0	357.78678798675537	1.0000340938568115
76	321.24014687538147	pulse	0	t		74.0	2.5	/experiments/AOT/AOT_stimuli/rescaled_final/1842_fw.mp4	0.0	357.97025990486145	
76	322.0567090511322	movie	1		246	74.0	2.5	/experiments/AOT/AOT_stimuli/rescaled_final/1842_fw.mp4	0.0	358.7868220806122	2.499936819076538
76	322.8401389122009	pulse	1	t		74.0	2.5	/experiments/AOT/AOT_stimuli/rescaled_final/1842_fw.mp4	0.0	359.5702519416809	
76	324.4388430118561	pulse	1	t		74.0	2.5	/experiments/AOT/AOT_stimuli/rescaled_final/1842_fw.mp4	0.0	361.16895604133606	
76	324.55664587020874	fix_post	2		12	74.0	2.5	/experiments/AOT/AOT_stimuli/rescaled_final/1842_fw.mp4	0.0	361.2867588996887	0.10018515586853027
77	324.65683102607727	fix_pre	0		120	75.0	2.5	/experiments/AOT/AOT_stimuli/rescaled_final/1953_fw.mp4	0.0	361.38694405555725	0.9999220371246338
77	325.6567530632019	movie	1		245	75.0	2.5	/experiments/AOT/AOT_stimuli/rescaled_final/1953_fw.mp4	0.0	362.3868660926819	2.4999988079071045
77	326.039990901947	pulse	1	t		75.0	2.5	/experiments/AOT/AOT_stimuli/rescaled_final/1953_fw.mp4	0.0	362.770103931427	
77	327.6402130126953	pulse	1	t		75.0	2.5	/experiments/AOT/AOT_stimuli/rescaled_final/1953_fw.mp4	0.0	364.3703260421753	
77	328.156751871109	fix_post	2		12	75.0	2.5	/experiments/AOT/AOT_stimuli/rescaled_final/1953_fw.mp4	0.0	364.886864900589	0.09998607635498047
78	328.256737947464	fix_pre	0		119	76.0	2.5	/experiments/AOT/AOT_stimuli/rescaled_final/1605_fw.mp4	0.0	364.98685097694397	0.9916141033172607
78	329.2402560710907	pulse	0	t		76.0	2.5	/experiments/AOT/AOT_stimuli/rescaled_final/1605_fw.mp4	0.0	365.9703691005707	
78	329.24835205078125	movie	1		246	76.0	2.5	/experiments/AOT/AOT_stimuli/rescaled_final/1605_fw.mp4	0.0	365.97846508026123	2.5083088874816895
78	330.8399329185486	pulse	1	t		76.0	2.5	/experiments/AOT/AOT_stimuli/rescaled_final/1605_fw.mp4	0.0	367.57004594802856	
78	331.75666093826294	fix_post	2		12	76.0	2.5	/experiments/AOT/AOT_stimuli/rescaled_final/1605_fw.mp4	0.0	368.4867739677429	0.09965705871582031
79	331.85631799697876	fix_pre	0		120	77.0	2.5	blank	1.0	368.58643102645874	1.000316858291626
79	332.44018507003784	pulse	0	t		77.0	2.5	blank	1.0	369.1702980995178	
79	332.8566348552704	movie	1		300	77.0	2.5	blank	1.0	369.58674788475037	2.49961519241333
79	334.0401449203491	pulse	1	t		77.0	2.5	blank	1.0	370.7702579498291	
79	335.3562500476837	fix_post	2		12	77.0	2.5	blank	1.0	372.0863630771637	0.10036897659301758
80	335.45661902427673	fix_pre	0		120	78.0	2.5	/experiments/AOT/AOT_stimuli/rescaled_final/1688_fw.mp4	0.0	372.1867320537567	1.0000948905944824
80	335.6401219367981	pulse	0	t		78.0	2.5	/experiments/AOT/AOT_stimuli/rescaled_final/1688_fw.mp4	0.0	372.3702349662781	
80	336.4567139148712	movie	1		245	78.0	2.5	/experiments/AOT/AOT_stimuli/rescaled_final/1688_fw.mp4	0.0	373.1868269443512	2.49997615814209
80	337.2401170730591	pulse	1	t		78.0	2.5	/experiments/AOT/AOT_stimuli/rescaled_final/1688_fw.mp4	0.0	373.97023010253906	
80	338.8388240337372	pulse	1	t		78.0	2.5	/experiments/AOT/AOT_stimuli/rescaled_final/1688_fw.mp4	0.0	375.56893706321716	
80	338.9566900730133	fix_post	2		12	78.0	2.5	/experiments/AOT/AOT_stimuli/rescaled_final/1688_fw.mp4	0.0	375.6868031024933	0.0995478630065918
81	339.0562379360199	fix_pre	0		120	79.0	2.5	/experiments/AOT/AOT_stimuli/rescaled_final/0722_rv.mp4	0.0	375.7863509654999	0.9999630451202393
81	340.05620098114014	movie	1		248	79.0	2.5	/experiments/AOT/AOT_stimuli/rescaled_final/0722_rv.mp4	0.0	376.7863140106201	2.4999279975891113
81	340.440034866333	pulse	1	t		79.0	2.5	/experiments/AOT/AOT_stimuli/rescaled_final/0722_rv.mp4	0.0	377.170147895813	
81	342.04009985923767	pulse	1	t		79.0	2.5	/experiments/AOT/AOT_stimuli/rescaled_final/0722_rv.mp4	0.0	378.77021288871765	
81	342.55612897872925	fix_post	2		12	79.0	2.5	/experiments/AOT/AOT_stimuli/rescaled_final/0722_rv.mp4	0.0	379.28624200820923	0.10049605369567871
82	342.6566250324249	fix_pre	0		119	80.0	2.5	/experiments/AOT/AOT_stimuli/rescaled_final/1409_fw.mp4	0.0	379.3867380619049	0.9916338920593262
82	343.64012694358826	pulse	0	t		80.0	2.5	/experiments/AOT/AOT_stimuli/rescaled_final/1409_fw.mp4	0.0	380.37023997306824	
82	343.64825892448425	movie	1		247	80.0	2.5	/experiments/AOT/AOT_stimuli/rescaled_final/1409_fw.mp4	0.0	380.37837195396423	2.5078699588775635
82	345.23948788642883	pulse	1	t		80.0	2.5	/experiments/AOT/AOT_stimuli/rescaled_final/1409_fw.mp4	0.0	381.9696009159088	
82	346.1561288833618	fix_post	2		12	80.0	2.5	/experiments/AOT/AOT_stimuli/rescaled_final/1409_fw.mp4	0.0	382.8862419128418	0.10047316551208496
83	346.2566020488739	fix_pre	0		120	81.0	2.5	/experiments/AOT/AOT_stimuli/rescaled_final/1387_rv.mp4	0.0	382.9867150783539	1.0001749992370605
83	346.84012603759766	pulse	0	t		81.0	2.5	/experiments/AOT/AOT_stimuli/rescaled_final/1387_rv.mp4	0.0	383.57023906707764	
83	347.25677704811096	movie	1		245	81.0	2.5	/experiments/AOT/AOT_stimuli/rescaled_final/1387_rv.mp4	0.0	383.98689007759094	2.499809980392456
83	348.44017004966736	pulse	1	t		81.0	2.5	/experiments/AOT/AOT_stimuli/rescaled_final/1387_rv.mp4	0.0	385.17028307914734	
83	349.7565870285034	fix_post	2		12	81.0	2.5	/experiments/AOT/AOT_stimuli/rescaled_final/1387_rv.mp4	0.0	386.4867000579834	0.10000896453857422
84	349.856595993042	fix_pre	0		120	82.0	2.5	blank	1.0	386.586709022522	0.9998788833618164
84	350.04009795188904	pulse	0	t		82.0	2.5	blank	1.0	386.770210981369	
84	350.8564748764038	movie	1		300	82.0	2.5	blank	1.0	387.5865879058838	2.5001091957092285
84	351.6400098800659	pulse	1	t		82.0	2.5	blank	1.0	388.3701229095459	
84	353.24002289772034	pulse	1	t		82.0	2.5	blank	1.0	389.9701359272003	
84	353.35658407211304	fix_post	2		12	82.0	2.5	blank	1.0	390.086697101593	0.09991288185119629
85	353.45649695396423	fix_pre	0		120	83.0	2.5	/experiments/AOT/AOT_stimuli/rescaled_final/0493_rv.mp4	0.0	390.1866099834442	0.9996490478515625
85	354.4561460018158	movie	1		244	83.0	2.5	/experiments/AOT/AOT_stimuli/rescaled_final/0493_rv.mp4	0.0	391.1862590312958	2.5003440380096436
85	354.83983993530273	pulse	1	t		83.0	2.5	/experiments/AOT/AOT_stimuli/rescaled_final/0493_rv.mp4	0.0	391.5699529647827	
85	356.4400019645691	pulse	1	t		83.0	2.5	/experiments/AOT/AOT_stimuli/rescaled_final/0493_rv.mp4	0.0	393.1701149940491	
85	356.95649003982544	fix_post	2		12	83.0	2.5	/experiments/AOT/AOT_stimuli/rescaled_final/0493_rv.mp4	0.0	393.6866030693054	0.0996098518371582
87	357.0560998916626	stim	0		1716					393.7862129211426	14.300405025482178
87	358.0396499633789	pulse	0	t						394.7697629928589	
87	359.63984990119934	pulse	0	t						396.3699629306793	
87	361.24001288414	pulse	0	t						397.97012591362	
87	362.8400070667267	pulse	0	t						399.57012009620667	
87	364.440062046051	pulse	0	t						401.170175075531	
87	366.03983902931213	pulse	0	t						402.7699520587921	
87	367.63991498947144	pulse	0	t						404.3700280189514	
87	369.23991203308105	pulse	0	t						405.97002506256104	
87	370.83993196487427	pulse	0	t						407.57004499435425	
