trial_nr	onset	event_type	phase	response	nr_frames	movie_index	movie_duration	movie_file	blank	onset_abs	duration
0	0.20828509330749512	stim	0		13					24.032191038131714	0.10832405090332031
0	0.3013341426849365	response	0	space						24.125240087509155	
1	0.31660914421081543	stim	0		4639					24.140515089035034	38.66637587547302
1	38.972944021224976	pulse	0	t						62.796849966049194	
1	38.98298501968384	stim	1		1715					62.80689096450806	14.299796104431152
1	40.572715044021606	pulse	1	t						64.39662098884583	
1	42.17292499542236	pulse	1	t						65.99683094024658	
1	43.7733371257782	pulse	1	t						67.59724307060242	
1	45.373512983322144	pulse	1	t						69.19741892814636	
1	46.97365713119507	pulse	1	t						70.79756307601929	
1	48.57391810417175	pulse	1	t						72.39782404899597	
1	50.1741840839386	pulse	1	t						73.99809002876282	
1	51.774436950683594	pulse	1	t						75.59834289550781	
2	53.28278112411499	fix_pre	0		12	0.0	2.5	/experiments/knapen_AOT/AOT_stimuli/rescaled_final/1781_rv.mp4	0.0	77.10668706893921	0.10010194778442383
2	53.37471795082092	pulse	0	t		0.0	2.5	/experiments/knapen_AOT/AOT_stimuli/rescaled_final/1781_rv.mp4	0.0	77.19862389564514	
2	53.382883071899414	movie	1		245	0.0	2.5	/experiments/knapen_AOT/AOT_stimuli/rescaled_final/1781_rv.mp4	0.0	77.20678901672363	2.5086169242858887
2	54.97561812400818	pulse	1	t		0.0	2.5	/experiments/knapen_AOT/AOT_stimuli/rescaled_final/1781_rv.mp4	0.0	78.7995240688324	
2	55.8914999961853	fix_post	2		12	0.0	2.5	/experiments/knapen_AOT/AOT_stimuli/rescaled_final/1781_rv.mp4	0.0	79.71540594100952	0.10001492500305176
3	55.991514921188354	fix_pre	0		120	1.0	2.5	/experiments/knapen_AOT/AOT_stimuli/rescaled_final/2147_fw.mp4	0.0	79.81542086601257	1.0001351833343506
3	56.575254917144775	pulse	0	t		1.0	2.5	/experiments/knapen_AOT/AOT_stimuli/rescaled_final/2147_fw.mp4	0.0	80.399160861969	
3	56.991650104522705	movie	1		245	1.0	2.5	/experiments/knapen_AOT/AOT_stimuli/rescaled_final/2147_fw.mp4	0.0	80.81555604934692	2.5004148483276367
3	58.17552995681763	pulse	1	t		1.0	2.5	/experiments/knapen_AOT/AOT_stimuli/rescaled_final/2147_fw.mp4	0.0	81.99943590164185	
3	59.49206495285034	fix_post	2		12	1.0	2.5	/experiments/knapen_AOT/AOT_stimuli/rescaled_final/2147_fw.mp4	0.0	83.31597089767456	0.1000070571899414
4	59.59207201004028	fix_pre	0		120	2.0	2.5	/experiments/knapen_AOT/AOT_stimuli/rescaled_final/0258_rv.mp4	0.0	83.4159779548645	1.0001440048217773
4	59.775665044784546	pulse	0	t		2.0	2.5	/experiments/knapen_AOT/AOT_stimuli/rescaled_final/0258_rv.mp4	0.0	83.59957098960876	
4	60.59221601486206	movie	1		245	2.0	2.5	/experiments/knapen_AOT/AOT_stimuli/rescaled_final/0258_rv.mp4	0.0	84.41612195968628	2.500370979309082
4	61.37579107284546	pulse	1	t		2.0	2.5	/experiments/knapen_AOT/AOT_stimuli/rescaled_final/0258_rv.mp4	0.0	85.19969701766968	
4	62.973647117614746	pulse	1	t		2.0	2.5	/experiments/knapen_AOT/AOT_stimuli/rescaled_final/0258_rv.mp4	0.0	86.79755306243896	
4	63.09258699417114	fix_post	2		12	2.0	2.5	/experiments/knapen_AOT/AOT_stimuli/rescaled_final/0258_rv.mp4	0.0	86.91649293899536	0.100006103515625
5	63.19259309768677	fix_pre	0		120	3.0	2.5	/experiments/knapen_AOT/AOT_stimuli/rescaled_final/1802_fw.mp4	0.0	87.01649904251099	1.0001559257507324
5	64.1927490234375	movie	1		242	3.0	2.5	/experiments/knapen_AOT/AOT_stimuli/rescaled_final/1802_fw.mp4	0.0	88.01665496826172	2.4921510219573975
5	64.57691311836243	pulse	1	t		3.0	2.5	/experiments/knapen_AOT/AOT_stimuli/rescaled_final/1802_fw.mp4	0.0	88.40081906318665	
5	66.17667007446289	pulse	1	t		3.0	2.5	/experiments/knapen_AOT/AOT_stimuli/rescaled_final/1802_fw.mp4	0.0	90.00057601928711	
5	66.6849000453949	fix_post	2		12	3.0	2.5	/experiments/knapen_AOT/AOT_stimuli/rescaled_final/1802_fw.mp4	0.0	90.50880599021912	0.0998849868774414
6	66.78478503227234	fix_pre	0		120	4.0	2.5	/experiments/knapen_AOT/AOT_stimuli/rescaled_final/0459_rv.mp4	0.0	90.60869097709656	1.000251054763794
6	67.77684593200684	pulse	0	t		4.0	2.5	/experiments/knapen_AOT/AOT_stimuli/rescaled_final/0459_rv.mp4	0.0	91.60075187683105	
6	67.78503608703613	movie	1		246	4.0	2.5	/experiments/knapen_AOT/AOT_stimuli/rescaled_final/0459_rv.mp4	0.0	91.60894203186035	2.508641004562378
6	69.381756067276	pulse	1	t		4.0	2.5	/experiments/knapen_AOT/AOT_stimuli/rescaled_final/0459_rv.mp4	0.0	93.20566201210022	
6	70.29367709159851	fix_post	2		12	4.0	2.5	/experiments/knapen_AOT/AOT_stimuli/rescaled_final/0459_rv.mp4	0.0	94.11758303642273	0.10001397132873535
7	70.39369106292725	fix_pre	0		120	5.0	2.5	/experiments/knapen_AOT/AOT_stimuli/rescaled_final/2016_fw.mp4	0.0	94.21759700775146	1.0001368522644043
7	70.97742104530334	pulse	0	t		5.0	2.5	/experiments/knapen_AOT/AOT_stimuli/rescaled_final/2016_fw.mp4	0.0	94.80132699012756	
7	71.39382791519165	movie	1		244	5.0	2.5	/experiments/knapen_AOT/AOT_stimuli/rescaled_final/2016_fw.mp4	0.0	95.21773386001587	2.5004520416259766
7	72.57774710655212	pulse	1	t		5.0	2.5	/experiments/knapen_AOT/AOT_stimuli/rescaled_final/2016_fw.mp4	0.0	96.40165305137634	
7	73.89427995681763	fix_post	2		12	5.0	2.5	/experiments/knapen_AOT/AOT_stimuli/rescaled_final/2016_fw.mp4	0.0	97.71818590164185	0.09990715980529785
8	73.99418711662292	fix_pre	0		120	6.0	2.5	/experiments/knapen_AOT/AOT_stimuli/rescaled_final/0273_fw.mp4	0.0	97.81809306144714	1.000175952911377
8	74.17776298522949	pulse	0	t		6.0	2.5	/experiments/knapen_AOT/AOT_stimuli/rescaled_final/0273_fw.mp4	0.0	98.00166893005371	
8	74.9943630695343	movie	1		243	6.0	2.5	/experiments/knapen_AOT/AOT_stimuli/rescaled_final/0273_fw.mp4	0.0	98.81826901435852	2.500347852706909
8	75.77797102928162	pulse	1	t		6.0	2.5	/experiments/knapen_AOT/AOT_stimuli/rescaled_final/0273_fw.mp4	0.0	99.60187697410583	
8	77.37808203697205	pulse	1	t		6.0	2.5	/experiments/knapen_AOT/AOT_stimuli/rescaled_final/0273_fw.mp4	0.0	101.20198798179626	
8	77.49471092224121	fix_post	2		12	6.0	2.5	/experiments/knapen_AOT/AOT_stimuli/rescaled_final/0273_fw.mp4	0.0	101.31861686706543	0.10005617141723633
9	77.59476709365845	fix_pre	0		119	7.0	2.5	blank	1.0	101.41867303848267	0.9917628765106201
9	78.58652997016907	movie	1		300	7.0	2.5	blank	1.0	102.41043591499329	2.5004220008850098
9	78.97857999801636	pulse	1	t		7.0	2.5	blank	1.0	102.80248594284058	
9	80.57875895500183	pulse	1	t		7.0	2.5	blank	1.0	104.40266489982605	
9	81.08695197105408	fix_post	2		12	7.0	2.5	blank	1.0	104.9108579158783	0.09996509552001953
10	81.1869170665741	fix_pre	0		120	8.0	2.5	/experiments/knapen_AOT/AOT_stimuli/rescaled_final/0303_rv.mp4	0.0	105.01082301139832	1.0001869201660156
10	82.17895293235779	pulse	0	t		8.0	2.5	/experiments/knapen_AOT/AOT_stimuli/rescaled_final/0303_rv.mp4	0.0	106.002858877182	
10	82.18710398674011	movie	1		244	8.0	2.5	/experiments/knapen_AOT/AOT_stimuli/rescaled_final/0303_rv.mp4	0.0	106.01100993156433	2.508733034133911
10	83.78024911880493	pulse	1	t		8.0	2.5	/experiments/knapen_AOT/AOT_stimuli/rescaled_final/0303_rv.mp4	0.0	107.60415506362915	
10	84.69583702087402	fix_post	2		12	8.0	2.5	/experiments/knapen_AOT/AOT_stimuli/rescaled_final/0303_rv.mp4	0.0	108.51974296569824	0.10000991821289062
11	84.79584693908691	fix_pre	0		120	9.0	2.5	/experiments/knapen_AOT/AOT_stimuli/rescaled_final/1125_rv.mp4	0.0	108.61975288391113	1.0001821517944336
11	85.37945508956909	pulse	0	t		9.0	2.5	/experiments/knapen_AOT/AOT_stimuli/rescaled_final/1125_rv.mp4	0.0	109.20336103439331	
11	85.79602909088135	movie	1		244	9.0	2.5	/experiments/knapen_AOT/AOT_stimuli/rescaled_final/1125_rv.mp4	0.0	109.61993503570557	2.500356912612915
11	86.97979593276978	pulse	1	t		9.0	2.5	/experiments/knapen_AOT/AOT_stimuli/rescaled_final/1125_rv.mp4	0.0	110.803701877594	
11	88.29638600349426	fix_post	2		12	9.0	2.5	/experiments/knapen_AOT/AOT_stimuli/rescaled_final/1125_rv.mp4	0.0	112.12029194831848	0.09994292259216309
12	88.39632892608643	fix_pre	0		120	10.0	2.5	/experiments/knapen_AOT/AOT_stimuli/rescaled_final/1124_rv.mp4	0.0	112.22023487091064	1.0002000331878662
12	88.57993602752686	pulse	0	t		10.0	2.5	/experiments/knapen_AOT/AOT_stimuli/rescaled_final/1124_rv.mp4	0.0	112.40384197235107	
12	89.39652895927429	movie	1		246	10.0	2.5	/experiments/knapen_AOT/AOT_stimuli/rescaled_final/1124_rv.mp4	0.0	113.22043490409851	2.500378131866455
12	90.18013596534729	pulse	1	t		10.0	2.5	/experiments/knapen_AOT/AOT_stimuli/rescaled_final/1124_rv.mp4	0.0	114.00404191017151	
12	91.77303099632263	pulse	1	t		10.0	2.5	/experiments/knapen_AOT/AOT_stimuli/rescaled_final/1124_rv.mp4	0.0	115.59693694114685	
12	91.89690709114075	fix_post	2		12	10.0	2.5	/experiments/knapen_AOT/AOT_stimuli/rescaled_final/1124_rv.mp4	0.0	115.72081303596497	0.09997987747192383
13	91.99688696861267	fix_pre	0		119	11.0	2.5	/experiments/knapen_AOT/AOT_stimuli/rescaled_final/1231_rv.mp4	0.0	115.82079291343689	0.9918420314788818
13	92.98872900009155	movie	1		244	11.0	2.5	/experiments/knapen_AOT/AOT_stimuli/rescaled_final/1231_rv.mp4	0.0	116.81263494491577	2.500369071960449
13	93.37693405151367	pulse	1	t		11.0	2.5	/experiments/knapen_AOT/AOT_stimuli/rescaled_final/1231_rv.mp4	0.0	117.20083999633789	
13	94.97358107566833	pulse	1	t		11.0	2.5	/experiments/knapen_AOT/AOT_stimuli/rescaled_final/1231_rv.mp4	0.0	118.79748702049255	
13	95.489098072052	fix_post	2		12	11.0	2.5	/experiments/knapen_AOT/AOT_stimuli/rescaled_final/1231_rv.mp4	0.0	119.31300401687622	0.10001301765441895
14	95.58911108970642	fix_pre	0		120	12.0	2.5	/experiments/knapen_AOT/AOT_stimuli/rescaled_final/0332_fw.mp4	0.0	119.41301703453064	1.0002269744873047
14	96.57353591918945	pulse	0	t		12.0	2.5	/experiments/knapen_AOT/AOT_stimuli/rescaled_final/0332_fw.mp4	0.0	120.39744186401367	
14	96.58933806419373	movie	1		244	12.0	2.5	/experiments/knapen_AOT/AOT_stimuli/rescaled_final/0332_fw.mp4	0.0	120.41324400901794	2.508643865585327
14	98.18189692497253	pulse	1	t		12.0	2.5	/experiments/knapen_AOT/AOT_stimuli/rescaled_final/0332_fw.mp4	0.0	122.00580286979675	
14	99.09798192977905	fix_post	2		12	12.0	2.5	/experiments/knapen_AOT/AOT_stimuli/rescaled_final/0332_fw.mp4	0.0	122.92188787460327	0.09998798370361328
15	99.19796991348267	fix_pre	0		120	13.0	2.5	blank	1.0	123.02187585830688	1.000143051147461
15	99.77328300476074	pulse	0	t		13.0	2.5	blank	1.0	123.59718894958496	
15	100.19811296463013	movie	1		300	13.0	2.5	blank	1.0	124.02201890945435	2.500396966934204
15	101.37345099449158	pulse	1	t		13.0	2.5	blank	1.0	125.1973569393158	
15	102.69850993156433	fix_post	2		12	13.0	2.5	blank	1.0	126.52241587638855	0.09996819496154785
16	102.79847812652588	fix_pre	0		120	14.0	2.5	/experiments/knapen_AOT/AOT_stimuli/rescaled_final/0508_fw.mp4	0.0	126.6223840713501	1.0001869201660156
16	102.97371411323547	pulse	0	t		14.0	2.5	/experiments/knapen_AOT/AOT_stimuli/rescaled_final/0508_fw.mp4	0.0	126.79762005805969	
16	103.7986650466919	movie	1		246	14.0	2.5	/experiments/knapen_AOT/AOT_stimuli/rescaled_final/0508_fw.mp4	0.0	127.62257099151611	2.500385046005249
16	104.57398009300232	pulse	1	t		14.0	2.5	/experiments/knapen_AOT/AOT_stimuli/rescaled_final/0508_fw.mp4	0.0	128.39788603782654	
16	106.17431902885437	pulse	1	t		14.0	2.5	/experiments/knapen_AOT/AOT_stimuli/rescaled_final/0508_fw.mp4	0.0	129.9982249736786	
16	106.29905009269714	fix_post	2		12	14.0	2.5	/experiments/knapen_AOT/AOT_stimuli/rescaled_final/0508_fw.mp4	0.0	130.12295603752136	0.09998583793640137
17	106.39903593063354	fix_pre	0		119	15.0	2.5	/experiments/knapen_AOT/AOT_stimuli/rescaled_final/0700_fw.mp4	0.0	130.22294187545776	0.9917941093444824
17	107.39083003997803	movie	1		245	15.0	2.5	/experiments/knapen_AOT/AOT_stimuli/rescaled_final/0700_fw.mp4	0.0	131.21473598480225	2.500401020050049
17	107.77516603469849	pulse	1	t		15.0	2.5	/experiments/knapen_AOT/AOT_stimuli/rescaled_final/0700_fw.mp4	0.0	131.5990719795227	
17	109.37469911575317	pulse	1	t		15.0	2.5	/experiments/knapen_AOT/AOT_stimuli/rescaled_final/0700_fw.mp4	0.0	133.1986050605774	
17	109.89123106002808	fix_post	2		12	15.0	2.5	/experiments/knapen_AOT/AOT_stimuli/rescaled_final/0700_fw.mp4	0.0	133.7151370048523	0.10002994537353516
18	109.99126100540161	fix_pre	0		119	16.0	2.5	/experiments/knapen_AOT/AOT_stimuli/rescaled_final/1669_rv.mp4	0.0	133.81516695022583	0.9918251037597656
18	110.97486114501953	pulse	0	t		16.0	2.5	/experiments/knapen_AOT/AOT_stimuli/rescaled_final/1669_rv.mp4	0.0	134.79876708984375	
18	110.98308610916138	movie	1		246	16.0	2.5	/experiments/knapen_AOT/AOT_stimuli/rescaled_final/1669_rv.mp4	0.0	134.8069920539856	2.508708953857422
18	112.5758740901947	pulse	1	t		16.0	2.5	/experiments/knapen_AOT/AOT_stimuli/rescaled_final/1669_rv.mp4	0.0	136.39978003501892	
18	113.4917950630188	fix_post	2		12	16.0	2.5	/experiments/knapen_AOT/AOT_stimuli/rescaled_final/1669_rv.mp4	0.0	137.31570100784302	0.1000070571899414
19	113.59180212020874	fix_pre	0		120	17.0	2.5	/experiments/knapen_AOT/AOT_stimuli/rescaled_final/1202_fw.mp4	0.0	137.41570806503296	1.0001449584960938
19	114.17544198036194	pulse	0	t		17.0	2.5	/experiments/knapen_AOT/AOT_stimuli/rescaled_final/1202_fw.mp4	0.0	137.99934792518616	
19	114.59194707870483	movie	1		244	17.0	2.5	/experiments/knapen_AOT/AOT_stimuli/rescaled_final/1202_fw.mp4	0.0	138.41585302352905	2.5003678798675537
19	115.77574300765991	pulse	1	t		17.0	2.5	/experiments/knapen_AOT/AOT_stimuli/rescaled_final/1202_fw.mp4	0.0	139.59964895248413	
19	117.09231495857239	fix_post	2		12	17.0	2.5	/experiments/knapen_AOT/AOT_stimuli/rescaled_final/1202_fw.mp4	0.0	140.9162209033966	0.10001301765441895
20	117.1923279762268	fix_pre	0		120	18.0	2.5	/experiments/knapen_AOT/AOT_stimuli/rescaled_final/1600_rv.mp4	0.0	141.01623392105103	1.0001490116119385
20	117.37584710121155	pulse	0	t		18.0	2.5	/experiments/knapen_AOT/AOT_stimuli/rescaled_final/1600_rv.mp4	0.0	141.19975304603577	
20	118.19247698783875	movie	1		244	18.0	2.5	/experiments/knapen_AOT/AOT_stimuli/rescaled_final/1600_rv.mp4	0.0	142.01638293266296	2.5003719329833984
20	118.97623610496521	pulse	1	t		18.0	2.5	/experiments/knapen_AOT/AOT_stimuli/rescaled_final/1600_rv.mp4	0.0	142.80014204978943	
20	120.57810091972351	pulse	1	t		18.0	2.5	/experiments/knapen_AOT/AOT_stimuli/rescaled_final/1600_rv.mp4	0.0	144.40200686454773	
20	120.69284892082214	fix_post	2		12	18.0	2.5	/experiments/knapen_AOT/AOT_stimuli/rescaled_final/1600_rv.mp4	0.0	144.51675486564636	0.10003805160522461
21	120.79288697242737	fix_pre	0		119	19.0	2.5	blank	1.0	144.6167929172516	0.991767168045044
21	121.78465414047241	movie	1		300	19.0	2.5	blank	1.0	145.60856008529663	2.500523805618286
21	122.17660713195801	pulse	1	t		19.0	2.5	blank	1.0	146.00051307678223	
21	123.77679395675659	pulse	1	t		19.0	2.5	blank	1.0	147.6006999015808	
21	124.2851779460907	fix_post	2		12	19.0	2.5	blank	1.0	148.10908389091492	0.09987998008728027
22	124.38505792617798	fix_pre	0		120	20.0	2.5	/experiments/knapen_AOT/AOT_stimuli/rescaled_final/0680_fw.mp4	0.0	148.2089638710022	1.0001630783081055
22	125.37707304954529	pulse	0	t		20.0	2.5	/experiments/knapen_AOT/AOT_stimuli/rescaled_final/0680_fw.mp4	0.0	149.2009789943695	
22	125.38522100448608	movie	1		245	20.0	2.5	/experiments/knapen_AOT/AOT_stimuli/rescaled_final/0680_fw.mp4	0.0	149.2091269493103	2.5087220668792725
22	126.9816529750824	pulse	1	t		20.0	2.5	/experiments/knapen_AOT/AOT_stimuli/rescaled_final/0680_fw.mp4	0.0	150.80555891990662	
22	127.89394307136536	fix_post	2		12	20.0	2.5	/experiments/knapen_AOT/AOT_stimuli/rescaled_final/0680_fw.mp4	0.0	151.71784901618958	0.09997391700744629
23	127.9939169883728	fix_pre	0		120	21.0	2.5	/experiments/knapen_AOT/AOT_stimuli/rescaled_final/1627_fw.mp4	0.0	151.81782293319702	1.0001609325408936
23	128.57757091522217	pulse	0	t		21.0	2.5	/experiments/knapen_AOT/AOT_stimuli/rescaled_final/1627_fw.mp4	0.0	152.4014768600464	
23	128.9940779209137	movie	1		244	21.0	2.5	/experiments/knapen_AOT/AOT_stimuli/rescaled_final/1627_fw.mp4	0.0	152.81798386573792	2.5003650188446045
23	130.17792391777039	pulse	1	t		21.0	2.5	/experiments/knapen_AOT/AOT_stimuli/rescaled_final/1627_fw.mp4	0.0	154.0018298625946	
23	131.4944429397583	fix_post	2		12	21.0	2.5	/experiments/knapen_AOT/AOT_stimuli/rescaled_final/1627_fw.mp4	0.0	155.31834888458252	0.10004019737243652
24	131.59448313713074	fix_pre	0		120	22.0	2.5	/experiments/knapen_AOT/AOT_stimuli/rescaled_final/2094_rv.mp4	0.0	155.41838908195496	1.0001299381256104
24	131.7781479358673	pulse	0	t		22.0	2.5	/experiments/knapen_AOT/AOT_stimuli/rescaled_final/2094_rv.mp4	0.0	155.60205388069153	
24	132.59461307525635	movie	1		243	22.0	2.5	/experiments/knapen_AOT/AOT_stimuli/rescaled_final/2094_rv.mp4	0.0	156.41851902008057	2.5003960132598877
24	133.37852692604065	pulse	1	t		22.0	2.5	/experiments/knapen_AOT/AOT_stimuli/rescaled_final/2094_rv.mp4	0.0	157.20243287086487	
24	134.97831201553345	pulse	1	t		22.0	2.5	/experiments/knapen_AOT/AOT_stimuli/rescaled_final/2094_rv.mp4	0.0	158.80221796035767	
24	135.09500908851624	fix_post	2		12	22.0	2.5	/experiments/knapen_AOT/AOT_stimuli/rescaled_final/2094_rv.mp4	0.0	158.91891503334045	0.10005688667297363
25	135.1950659751892	fix_pre	0		120	23.0	2.5	/experiments/knapen_AOT/AOT_stimuli/rescaled_final/0610_fw.mp4	0.0	159.01897192001343	1.0001511573791504
25	136.19521713256836	movie	1		243	23.0	2.5	/experiments/knapen_AOT/AOT_stimuli/rescaled_final/0610_fw.mp4	0.0	160.01912307739258	2.4920358657836914
25	136.57935404777527	pulse	1	t		23.0	2.5	/experiments/knapen_AOT/AOT_stimuli/rescaled_final/0610_fw.mp4	0.0	160.4032599925995	
25	138.1790690422058	pulse	1	t		23.0	2.5	/experiments/knapen_AOT/AOT_stimuli/rescaled_final/0610_fw.mp4	0.0	162.00297498703003	
25	138.68725299835205	fix_post	2		12	23.0	2.5	/experiments/knapen_AOT/AOT_stimuli/rescaled_final/0610_fw.mp4	0.0	162.51115894317627	0.09993910789489746
26	138.78719210624695	fix_pre	0		120	24.0	2.5	/experiments/knapen_AOT/AOT_stimuli/rescaled_final/0071_rv.mp4	0.0	162.61109805107117	1.000166893005371
26	139.77938508987427	pulse	0	t		24.0	2.5	/experiments/knapen_AOT/AOT_stimuli/rescaled_final/0071_rv.mp4	0.0	163.6032910346985	
26	139.78735899925232	movie	1		247	24.0	2.5	/experiments/knapen_AOT/AOT_stimuli/rescaled_final/0071_rv.mp4	0.0	163.61126494407654	2.508772134780884
26	141.38003396987915	pulse	1	t		24.0	2.5	/experiments/knapen_AOT/AOT_stimuli/rescaled_final/0071_rv.mp4	0.0	165.20393991470337	
26	142.2961311340332	fix_post	2		12	24.0	2.5	/experiments/knapen_AOT/AOT_stimuli/rescaled_final/0071_rv.mp4	0.0	166.12003707885742	0.0999608039855957
27	142.3960919380188	fix_pre	0		120	25.0	2.5	/experiments/knapen_AOT/AOT_stimuli/rescaled_final/1898_rv.mp4	0.0	166.21999788284302	1.0002009868621826
27	142.97971296310425	pulse	0	t		25.0	2.5	/experiments/knapen_AOT/AOT_stimuli/rescaled_final/1898_rv.mp4	0.0	166.80361890792847	
27	143.39629292488098	movie	1		245	25.0	2.5	/experiments/knapen_AOT/AOT_stimuli/rescaled_final/1898_rv.mp4	0.0	167.2201988697052	2.5003411769866943
27	144.58002996444702	pulse	1	t		25.0	2.5	/experiments/knapen_AOT/AOT_stimuli/rescaled_final/1898_rv.mp4	0.0	168.40393590927124	
27	145.89663410186768	fix_post	2		12	25.0	2.5	/experiments/knapen_AOT/AOT_stimuli/rescaled_final/1898_rv.mp4	0.0	169.7205400466919	0.09998893737792969
28	145.9966230392456	fix_pre	0		120	26.0	2.5	/experiments/knapen_AOT/AOT_stimuli/rescaled_final/0503_fw.mp4	0.0	169.82052898406982	1.0001530647277832
28	146.1726589202881	pulse	0	t		26.0	2.5	/experiments/knapen_AOT/AOT_stimuli/rescaled_final/0503_fw.mp4	0.0	169.9965648651123	
28	146.9967761039734	movie	1		245	26.0	2.5	/experiments/knapen_AOT/AOT_stimuli/rescaled_final/0503_fw.mp4	0.0	170.8206820487976	2.5004210472106934
28	147.77306699752808	pulse	1	t		26.0	2.5	/experiments/knapen_AOT/AOT_stimuli/rescaled_final/0503_fw.mp4	0.0	171.5969729423523	
28	149.3782811164856	pulse	1	t		26.0	2.5	/experiments/knapen_AOT/AOT_stimuli/rescaled_final/0503_fw.mp4	0.0	173.20218706130981	
28	149.49719715118408	fix_post	2		12	26.0	2.5	/experiments/knapen_AOT/AOT_stimuli/rescaled_final/0503_fw.mp4	0.0	173.3211030960083	0.09997177124023438
29	149.59716892242432	fix_pre	0		120	27.0	2.5	blank	1.0	173.42107486724854	1.000265121459961
29	150.59743404388428	movie	1		299	27.0	2.5	blank	1.0	174.4213399887085	2.491976022720337
29	150.9734079837799	pulse	1	t		27.0	2.5	blank	1.0	174.79731392860413	
29	152.57349395751953	pulse	1	t		27.0	2.5	blank	1.0	176.39739990234375	
29	153.08941006660461	fix_post	2		12	27.0	2.5	blank	1.0	176.91331601142883	0.10000801086425781
30	153.18941807746887	fix_pre	0		119	28.0	2.5	/experiments/knapen_AOT/AOT_stimuli/rescaled_final/2094_fw.mp4	0.0	177.0133240222931	0.9917728900909424
30	154.17299795150757	pulse	0	t		28.0	2.5	/experiments/knapen_AOT/AOT_stimuli/rescaled_final/2094_fw.mp4	0.0	177.9969038963318	
30	154.18119096755981	movie	1		242	28.0	2.5	/experiments/knapen_AOT/AOT_stimuli/rescaled_final/2094_fw.mp4	0.0	178.00509691238403	2.5087380409240723
30	155.7736840248108	pulse	1	t		28.0	2.5	/experiments/knapen_AOT/AOT_stimuli/rescaled_final/2094_fw.mp4	0.0	179.597589969635	
30	156.6899290084839	fix_post	2		12	28.0	2.5	/experiments/knapen_AOT/AOT_stimuli/rescaled_final/2094_fw.mp4	0.0	180.5138349533081	0.10001492500305176
31	156.78994393348694	fix_pre	0		120	29.0	2.5	/experiments/knapen_AOT/AOT_stimuli/rescaled_final/1606_fw.mp4	0.0	180.61384987831116	1.0001912117004395
31	157.37366604804993	pulse	0	t		29.0	2.5	/experiments/knapen_AOT/AOT_stimuli/rescaled_final/1606_fw.mp4	0.0	181.19757199287415	
31	157.79013514518738	movie	1		244	29.0	2.5	/experiments/knapen_AOT/AOT_stimuli/rescaled_final/1606_fw.mp4	0.0	181.6140410900116	2.5002927780151367
31	158.97381591796875	pulse	1	t		29.0	2.5	/experiments/knapen_AOT/AOT_stimuli/rescaled_final/1606_fw.mp4	0.0	182.79772186279297	
31	160.29042792320251	fix_post	2		12	29.0	2.5	/experiments/knapen_AOT/AOT_stimuli/rescaled_final/1606_fw.mp4	0.0	184.11433386802673	0.10004520416259766
32	160.3904731273651	fix_pre	0		120	30.0	2.5	/experiments/knapen_AOT/AOT_stimuli/rescaled_final/1305_fw.mp4	0.0	184.21437907218933	1.0001428127288818
32	160.57403802871704	pulse	0	t		30.0	2.5	/experiments/knapen_AOT/AOT_stimuli/rescaled_final/1305_fw.mp4	0.0	184.39794397354126	
32	161.390615940094	movie	1		244	30.0	2.5	/experiments/knapen_AOT/AOT_stimuli/rescaled_final/1305_fw.mp4	0.0	185.2145218849182	2.5003581047058105
32	162.17429900169373	pulse	1	t		30.0	2.5	/experiments/knapen_AOT/AOT_stimuli/rescaled_final/1305_fw.mp4	0.0	185.99820494651794	
32	163.77632904052734	pulse	1	t		30.0	2.5	/experiments/knapen_AOT/AOT_stimuli/rescaled_final/1305_fw.mp4	0.0	187.60023498535156	
32	163.8909740447998	fix_post	2		12	30.0	2.5	/experiments/knapen_AOT/AOT_stimuli/rescaled_final/1305_fw.mp4	0.0	187.71487998962402	0.0999898910522461
33	163.99096393585205	fix_pre	0		119	31.0	2.5	/experiments/knapen_AOT/AOT_stimuli/rescaled_final/1846_fw.mp4	0.0	187.81486988067627	0.9918661117553711
33	164.98283004760742	movie	1		244	31.0	2.5	/experiments/knapen_AOT/AOT_stimuli/rescaled_final/1846_fw.mp4	0.0	188.80673599243164	2.5003480911254883
33	165.37485313415527	pulse	1	t		31.0	2.5	/experiments/knapen_AOT/AOT_stimuli/rescaled_final/1846_fw.mp4	0.0	189.1987590789795	
33	166.97492504119873	pulse	1	t		31.0	2.5	/experiments/knapen_AOT/AOT_stimuli/rescaled_final/1846_fw.mp4	0.0	190.79883098602295	
33	167.4831781387329	fix_post	2		12	31.0	2.5	/experiments/knapen_AOT/AOT_stimuli/rescaled_final/1846_fw.mp4	0.0	191.30708408355713	0.10000801086425781
34	167.58318614959717	fix_pre	0		120	32.0	2.5	/experiments/knapen_AOT/AOT_stimuli/rescaled_final/1158_fw.mp4	0.0	191.4070920944214	1.0001509189605713
34	168.57522702217102	pulse	0	t		32.0	2.5	/experiments/knapen_AOT/AOT_stimuli/rescaled_final/1158_fw.mp4	0.0	192.39913296699524	
34	168.58333706855774	movie	1		246	32.0	2.5	/experiments/knapen_AOT/AOT_stimuli/rescaled_final/1158_fw.mp4	0.0	192.40724301338196	2.508746862411499
34	170.1765410900116	pulse	1	t		32.0	2.5	/experiments/knapen_AOT/AOT_stimuli/rescaled_final/1158_fw.mp4	0.0	194.00044703483582	
34	171.09208393096924	fix_post	2		12	32.0	2.5	/experiments/knapen_AOT/AOT_stimuli/rescaled_final/1158_fw.mp4	0.0	194.91598987579346	0.10000419616699219
35	171.19208812713623	fix_pre	0		120	33.0	2.5	blank	1.0	195.01599407196045	1.000121831893921
35	171.77565813064575	pulse	0	t		33.0	2.5	blank	1.0	195.59956407546997	
35	172.19220995903015	movie	1		300	33.0	2.5	blank	1.0	196.01611590385437	2.500447988510132
35	173.37585496902466	pulse	1	t		33.0	2.5	blank	1.0	197.19976091384888	
35	174.69265794754028	fix_post	2		12	33.0	2.5	blank	1.0	198.5165638923645	0.09993410110473633
36	174.79259204864502	fix_pre	0		120	34.0	2.5	/experiments/knapen_AOT/AOT_stimuli/rescaled_final/0248_rv.mp4	0.0	198.61649799346924	1.0002410411834717
36	174.97620010375977	pulse	0	t		34.0	2.5	/experiments/knapen_AOT/AOT_stimuli/rescaled_final/0248_rv.mp4	0.0	198.80010604858398	
36	175.7928330898285	movie	1		244	34.0	2.5	/experiments/knapen_AOT/AOT_stimuli/rescaled_final/0248_rv.mp4	0.0	199.6167390346527	2.500282049179077
36	176.57650995254517	pulse	1	t		34.0	2.5	/experiments/knapen_AOT/AOT_stimuli/rescaled_final/0248_rv.mp4	0.0	200.40041589736938	
36	178.1767680644989	pulse	1	t		34.0	2.5	/experiments/knapen_AOT/AOT_stimuli/rescaled_final/0248_rv.mp4	0.0	202.00067400932312	
36	178.29311513900757	fix_post	2		12	34.0	2.5	/experiments/knapen_AOT/AOT_stimuli/rescaled_final/0248_rv.mp4	0.0	202.1170210838318	0.10001993179321289
37	178.39313507080078	fix_pre	0		120	35.0	2.5	/experiments/knapen_AOT/AOT_stimuli/rescaled_final/1585_rv.mp4	0.0	202.217041015625	1.0001959800720215
37	179.3933310508728	movie	1		244	35.0	2.5	/experiments/knapen_AOT/AOT_stimuli/rescaled_final/1585_rv.mp4	0.0	203.21723699569702	2.49200701713562
37	179.77814412117004	pulse	1	t		35.0	2.5	/experiments/knapen_AOT/AOT_stimuli/rescaled_final/1585_rv.mp4	0.0	203.60205006599426	
37	181.37713813781738	pulse	1	t		35.0	2.5	/experiments/knapen_AOT/AOT_stimuli/rescaled_final/1585_rv.mp4	0.0	205.2010440826416	
37	181.88533806800842	fix_post	2		12	35.0	2.5	/experiments/knapen_AOT/AOT_stimuli/rescaled_final/1585_rv.mp4	0.0	205.70924401283264	0.09996390342712402
38	181.98530197143555	fix_pre	0		120	36.0	2.5	/experiments/knapen_AOT/AOT_stimuli/rescaled_final/1834_fw.mp4	0.0	205.80920791625977	1.0001800060272217
38	182.9773449897766	pulse	0	t		36.0	2.5	/experiments/knapen_AOT/AOT_stimuli/rescaled_final/1834_fw.mp4	0.0	206.80125093460083	
38	182.98548197746277	movie	1		245	36.0	2.5	/experiments/knapen_AOT/AOT_stimuli/rescaled_final/1834_fw.mp4	0.0	206.809387922287	2.50871205329895
38	184.57876205444336	pulse	1	t		36.0	2.5	/experiments/knapen_AOT/AOT_stimuli/rescaled_final/1834_fw.mp4	0.0	208.40266799926758	
38	185.49419403076172	fix_post	2		12	36.0	2.5	/experiments/knapen_AOT/AOT_stimuli/rescaled_final/1834_fw.mp4	0.0	209.31809997558594	0.10002589225769043
39	185.5942199230194	fix_pre	0		120	37.0	2.5	/experiments/knapen_AOT/AOT_stimuli/rescaled_final/1608_rv.mp4	0.0	209.41812586784363	1.0001411437988281
39	186.1778290271759	pulse	0	t		37.0	2.5	/experiments/knapen_AOT/AOT_stimuli/rescaled_final/1608_rv.mp4	0.0	210.00173497200012	
39	186.59436106681824	movie	1		245	37.0	2.5	/experiments/knapen_AOT/AOT_stimuli/rescaled_final/1608_rv.mp4	0.0	210.41826701164246	2.5003788471221924
39	187.77818608283997	pulse	1	t		37.0	2.5	/experiments/knapen_AOT/AOT_stimuli/rescaled_final/1608_rv.mp4	0.0	211.60209202766418	
39	189.09473991394043	fix_post	2		12	37.0	2.5	/experiments/knapen_AOT/AOT_stimuli/rescaled_final/1608_rv.mp4	0.0	212.91864585876465	0.10001206398010254
40	189.19475197792053	fix_pre	0		120	38.0	2.5	/experiments/knapen_AOT/AOT_stimuli/rescaled_final/1786_fw.mp4	0.0	213.01865792274475	1.0001859664916992
40	189.37833309173584	pulse	0	t		38.0	2.5	/experiments/knapen_AOT/AOT_stimuli/rescaled_final/1786_fw.mp4	0.0	213.20223903656006	
40	190.19493794441223	movie	1		245	38.0	2.5	/experiments/knapen_AOT/AOT_stimuli/rescaled_final/1786_fw.mp4	0.0	214.01884388923645	2.5003111362457275
40	190.97859811782837	pulse	1	t		38.0	2.5	/experiments/knapen_AOT/AOT_stimuli/rescaled_final/1786_fw.mp4	0.0	214.8025040626526	
40	192.57665300369263	pulse	1	t		38.0	2.5	/experiments/knapen_AOT/AOT_stimuli/rescaled_final/1786_fw.mp4	0.0	216.40055894851685	
40	192.69524908065796	fix_post	2		12	38.0	2.5	/experiments/knapen_AOT/AOT_stimuli/rescaled_final/1786_fw.mp4	0.0	216.51915502548218	0.10003495216369629
41	192.79528403282166	fix_pre	0		120	39.0	2.5	/experiments/knapen_AOT/AOT_stimuli/rescaled_final/0076_fw.mp4	0.0	216.61918997764587	1.0002329349517822
41	193.79551696777344	movie	1		244	39.0	2.5	/experiments/knapen_AOT/AOT_stimuli/rescaled_final/0076_fw.mp4	0.0	217.61942291259766	2.4920461177825928
41	194.18045902252197	pulse	1	t		39.0	2.5	/experiments/knapen_AOT/AOT_stimuli/rescaled_final/0076_fw.mp4	0.0	218.0043649673462	
41	195.77926993370056	pulse	1	t		39.0	2.5	/experiments/knapen_AOT/AOT_stimuli/rescaled_final/0076_fw.mp4	0.0	219.60317587852478	
41	196.28756308555603	fix_post	2		12	39.0	2.5	/experiments/knapen_AOT/AOT_stimuli/rescaled_final/0076_fw.mp4	0.0	220.11146903038025	0.09989595413208008
42	196.3874590396881	fix_pre	0		120	40.0	2.5	/experiments/knapen_AOT/AOT_stimuli/rescaled_final/0275_fw.mp4	0.0	220.21136498451233	1.0002129077911377
42	197.37954211235046	pulse	0	t		40.0	2.5	/experiments/knapen_AOT/AOT_stimuli/rescaled_final/0275_fw.mp4	0.0	221.20344805717468	
42	197.38767194747925	movie	1		245	40.0	2.5	/experiments/knapen_AOT/AOT_stimuli/rescaled_final/0275_fw.mp4	0.0	221.21157789230347	2.508726119995117
42	198.9800500869751	pulse	1	t		40.0	2.5	/experiments/knapen_AOT/AOT_stimuli/rescaled_final/0275_fw.mp4	0.0	222.80395603179932	
42	199.89639806747437	fix_post	2		12	40.0	2.5	/experiments/knapen_AOT/AOT_stimuli/rescaled_final/0275_fw.mp4	0.0	223.72030401229858	0.09996390342712402
43	199.9963619709015	fix_pre	0		120	41.0	2.5	blank	1.0	223.8202679157257	1.0001580715179443
43	200.57997393608093	pulse	0	t		41.0	2.5	blank	1.0	224.40387988090515	
43	200.99652004241943	movie	1		300	41.0	2.5	blank	1.0	224.82042598724365	2.5003650188446045
43	202.18031406402588	pulse	1	t		41.0	2.5	blank	1.0	226.0042200088501	
43	203.49688506126404	fix_post	2		12	41.0	2.5	blank	1.0	227.32079100608826	0.10001707077026367
44	203.5969021320343	fix_pre	0		120	42.0	2.5	/experiments/knapen_AOT/AOT_stimuli/rescaled_final/2073_rv.mp4	0.0	227.42080807685852	1.0001788139343262
44	203.78045010566711	pulse	0	t		42.0	2.5	/experiments/knapen_AOT/AOT_stimuli/rescaled_final/2073_rv.mp4	0.0	227.60435605049133	
44	204.59708094596863	movie	1		244	42.0	2.5	/experiments/knapen_AOT/AOT_stimuli/rescaled_final/2073_rv.mp4	0.0	228.42098689079285	2.5004050731658936
44	205.38065910339355	pulse	1	t		42.0	2.5	/experiments/knapen_AOT/AOT_stimuli/rescaled_final/2073_rv.mp4	0.0	229.20456504821777	
44	206.978609085083	pulse	1	t		42.0	2.5	/experiments/knapen_AOT/AOT_stimuli/rescaled_final/2073_rv.mp4	0.0	230.80251502990723	
44	207.09748601913452	fix_post	2		12	42.0	2.5	/experiments/knapen_AOT/AOT_stimuli/rescaled_final/2073_rv.mp4	0.0	230.92139196395874	0.099945068359375
45	207.1974310874939	fix_pre	0		119	43.0	2.5	/experiments/knapen_AOT/AOT_stimuli/rescaled_final/1313_rv.mp4	0.0	231.02133703231812	0.991797924041748
45	208.18922901153564	movie	1		244	43.0	2.5	/experiments/knapen_AOT/AOT_stimuli/rescaled_final/1313_rv.mp4	0.0	232.01313495635986	2.5004029273986816
45	208.57733392715454	pulse	1	t		43.0	2.5	/experiments/knapen_AOT/AOT_stimuli/rescaled_final/1313_rv.mp4	0.0	232.40123987197876	
45	210.17405700683594	pulse	1	t		43.0	2.5	/experiments/knapen_AOT/AOT_stimuli/rescaled_final/1313_rv.mp4	0.0	233.99796295166016	
45	210.68963193893433	fix_post	2		12	43.0	2.5	/experiments/knapen_AOT/AOT_stimuli/rescaled_final/1313_rv.mp4	0.0	234.51353788375854	0.09998297691345215
46	210.78961491584778	fix_pre	0		120	44.0	2.5	/experiments/knapen_AOT/AOT_stimuli/rescaled_final/0468_fw.mp4	0.0	234.613520860672	1.0002191066741943
46	211.77426409721375	pulse	0	t		44.0	2.5	/experiments/knapen_AOT/AOT_stimuli/rescaled_final/0468_fw.mp4	0.0	235.59817004203796	
46	211.78983402252197	movie	1		245	44.0	2.5	/experiments/knapen_AOT/AOT_stimuli/rescaled_final/0468_fw.mp4	0.0	235.6137399673462	2.5086851119995117
46	213.37372708320618	pulse	1	t		44.0	2.5	/experiments/knapen_AOT/AOT_stimuli/rescaled_final/0468_fw.mp4	0.0	237.1976330280304	
46	214.29851913452148	fix_post	2		10	44.0	2.5	/experiments/knapen_AOT/AOT_stimuli/rescaled_final/0468_fw.mp4	0.0	238.1224250793457	0.09999799728393555
47	214.39851713180542	fix_pre	0		120	45.0	2.5	/experiments/knapen_AOT/AOT_stimuli/rescaled_final/0401_rv.mp4	0.0	238.22242307662964	1.000173807144165
47	214.97375297546387	pulse	0	t		45.0	2.5	/experiments/knapen_AOT/AOT_stimuli/rescaled_final/0401_rv.mp4	0.0	238.7976589202881	
47	215.39869093894958	movie	1		244	45.0	2.5	/experiments/knapen_AOT/AOT_stimuli/rescaled_final/0401_rv.mp4	0.0	239.2225968837738	2.5004022121429443
47	216.5781569480896	pulse	1	t		45.0	2.5	/experiments/knapen_AOT/AOT_stimuli/rescaled_final/0401_rv.mp4	0.0	240.40206289291382	
47	217.89909315109253	fix_post	2		12	45.0	2.5	/experiments/knapen_AOT/AOT_stimuli/rescaled_final/0401_rv.mp4	0.0	241.72299909591675	0.09993982315063477
48	217.99903297424316	fix_pre	0		120	46.0	2.5	/experiments/knapen_AOT/AOT_stimuli/rescaled_final/0195_rv.mp4	0.0	241.82293891906738	1.0001580715179443
48	218.17442202568054	pulse	0	t		46.0	2.5	/experiments/knapen_AOT/AOT_stimuli/rescaled_final/0195_rv.mp4	0.0	241.99832797050476	
48	218.9991910457611	movie	1		244	46.0	2.5	/experiments/knapen_AOT/AOT_stimuli/rescaled_final/0195_rv.mp4	0.0	242.82309699058533	2.500369071960449
48	219.77457094192505	pulse	1	t		46.0	2.5	/experiments/knapen_AOT/AOT_stimuli/rescaled_final/0195_rv.mp4	0.0	243.59847688674927	
48	221.3747580051422	pulse	1	t		46.0	2.5	/experiments/knapen_AOT/AOT_stimuli/rescaled_final/0195_rv.mp4	0.0	245.19866394996643	
48	221.49956011772156	fix_post	2		11	46.0	2.5	/experiments/knapen_AOT/AOT_stimuli/rescaled_final/0195_rv.mp4	0.0	245.32346606254578	0.09168601036071777
49	221.59124612808228	fix_pre	0		120	47.0	2.5	/experiments/knapen_AOT/AOT_stimuli/rescaled_final/1744_rv.mp4	0.0	245.4151520729065	1.0001788139343262
49	222.5914249420166	movie	1		244	47.0	2.5	/experiments/knapen_AOT/AOT_stimuli/rescaled_final/1744_rv.mp4	0.0	246.41533088684082	2.500383138656616
49	222.97565698623657	pulse	1	t		47.0	2.5	/experiments/knapen_AOT/AOT_stimuli/rescaled_final/1744_rv.mp4	0.0	246.7995629310608	
49	224.57524299621582	pulse	1	t		47.0	2.5	/experiments/knapen_AOT/AOT_stimuli/rescaled_final/1744_rv.mp4	0.0	248.39914894104004	
49	225.09180808067322	fix_post	2		12	47.0	2.5	/experiments/knapen_AOT/AOT_stimuli/rescaled_final/1744_rv.mp4	0.0	248.91571402549744	0.09999299049377441
50	225.191801071167	fix_pre	0		119	48.0	2.5	/experiments/knapen_AOT/AOT_stimuli/rescaled_final/0203_fw.mp4	0.0	249.0157070159912	0.9918098449707031
50	226.17555594444275	pulse	0	t		48.0	2.5	/experiments/knapen_AOT/AOT_stimuli/rescaled_final/0203_fw.mp4	0.0	249.99946188926697	
50	226.1836109161377	movie	1		246	48.0	2.5	/experiments/knapen_AOT/AOT_stimuli/rescaled_final/0203_fw.mp4	0.0	250.0075168609619	2.508794069290161
50	227.77711606025696	pulse	1	t		48.0	2.5	/experiments/knapen_AOT/AOT_stimuli/rescaled_final/0203_fw.mp4	0.0	251.60102200508118	
50	228.69240498542786	fix_post	2		12	48.0	2.5	/experiments/knapen_AOT/AOT_stimuli/rescaled_final/0203_fw.mp4	0.0	252.51631093025208	0.09993410110473633
51	228.7923390865326	fix_pre	0		120	49.0	2.5	blank	1.0	252.6162450313568	1.0001449584960938
51	229.37588810920715	pulse	0	t		49.0	2.5	blank	1.0	253.19979405403137	
51	229.7924840450287	movie	1		300	49.0	2.5	blank	1.0	253.6163899898529	2.5003809928894043
51	230.97631692886353	pulse	1	t		49.0	2.5	blank	1.0	254.80022287368774	
51	232.2928650379181	fix_post	2		12	49.0	2.5	blank	1.0	256.1167709827423	0.09999299049377441
52	232.39285802841187	fix_pre	0		120	50.0	2.5	/experiments/knapen_AOT/AOT_stimuli/rescaled_final/1609_fw.mp4	0.0	256.2167639732361	1.0001220703125
52	232.57651901245117	pulse	0	t		50.0	2.5	/experiments/knapen_AOT/AOT_stimuli/rescaled_final/1609_fw.mp4	0.0	256.4004249572754	
52	233.39298009872437	movie	1		244	50.0	2.5	/experiments/knapen_AOT/AOT_stimuli/rescaled_final/1609_fw.mp4	0.0	257.2168860435486	2.500424861907959
52	234.17670011520386	pulse	1	t		50.0	2.5	/experiments/knapen_AOT/AOT_stimuli/rescaled_final/1609_fw.mp4	0.0	258.0006060600281	
52	235.77687191963196	pulse	1	t		50.0	2.5	/experiments/knapen_AOT/AOT_stimuli/rescaled_final/1609_fw.mp4	0.0	259.6007778644562	
52	235.89340496063232	fix_post	2		12	50.0	2.5	/experiments/knapen_AOT/AOT_stimuli/rescaled_final/1609_fw.mp4	0.0	259.71731090545654	0.09996509552001953
53	235.99337005615234	fix_pre	0		120	51.0	2.5	/experiments/knapen_AOT/AOT_stimuli/rescaled_final/0505_rv.mp4	0.0	259.81727600097656	1.0001640319824219
53	236.99353408813477	movie	1		244	51.0	2.5	/experiments/knapen_AOT/AOT_stimuli/rescaled_final/0505_rv.mp4	0.0	260.817440032959	2.4920730590820312
53	237.37744092941284	pulse	1	t		51.0	2.5	/experiments/knapen_AOT/AOT_stimuli/rescaled_final/0505_rv.mp4	0.0	261.20134687423706	
53	238.9775140285492	pulse	1	t		51.0	2.5	/experiments/knapen_AOT/AOT_stimuli/rescaled_final/0505_rv.mp4	0.0	262.8014199733734	
53	239.4856071472168	fix_post	2		12	51.0	2.5	/experiments/knapen_AOT/AOT_stimuli/rescaled_final/0505_rv.mp4	0.0	263.309513092041	0.09999680519104004
54	239.58560395240784	fix_pre	0		120	52.0	2.5	/experiments/knapen_AOT/AOT_stimuli/rescaled_final/0672_rv.mp4	0.0	263.40950989723206	1.0001490116119385
54	240.57765293121338	pulse	0	t		52.0	2.5	/experiments/knapen_AOT/AOT_stimuli/rescaled_final/0672_rv.mp4	0.0	264.4015588760376	
54	240.58575296401978	movie	1		245	52.0	2.5	/experiments/knapen_AOT/AOT_stimuli/rescaled_final/0672_rv.mp4	0.0	264.409658908844	2.5087380409240723
54	242.17835593223572	pulse	1	t		52.0	2.5	/experiments/knapen_AOT/AOT_stimuli/rescaled_final/0672_rv.mp4	0.0	266.00226187705994	
54	243.09449100494385	fix_post	2		12	52.0	2.5	/experiments/knapen_AOT/AOT_stimuli/rescaled_final/0672_rv.mp4	0.0	266.91839694976807	0.09998893737792969
55	243.19447994232178	fix_pre	0		120	53.0	2.5	/experiments/knapen_AOT/AOT_stimuli/rescaled_final/1606_rv.mp4	0.0	267.018385887146	1.0001220703125
55	243.77812314033508	pulse	0	t		53.0	2.5	/experiments/knapen_AOT/AOT_stimuli/rescaled_final/1606_rv.mp4	0.0	267.6020290851593	
55	244.19460201263428	movie	1		244	53.0	2.5	/experiments/knapen_AOT/AOT_stimuli/rescaled_final/1606_rv.mp4	0.0	268.0185079574585	2.5004289150238037
55	245.3784101009369	pulse	1	t		53.0	2.5	/experiments/knapen_AOT/AOT_stimuli/rescaled_final/1606_rv.mp4	0.0	269.2023160457611	
55	246.69503092765808	fix_post	2		12	53.0	2.5	/experiments/knapen_AOT/AOT_stimuli/rescaled_final/1606_rv.mp4	0.0	270.5189368724823	0.09997820854187012
56	246.79500913619995	fix_pre	0		120	54.0	2.5	/experiments/knapen_AOT/AOT_stimuli/rescaled_final/0090_rv.mp4	0.0	270.61891508102417	1.000140905380249
56	246.97866892814636	pulse	0	t		54.0	2.5	/experiments/knapen_AOT/AOT_stimuli/rescaled_final/0090_rv.mp4	0.0	270.8025748729706	
56	247.7951500415802	movie	1		245	54.0	2.5	/experiments/knapen_AOT/AOT_stimuli/rescaled_final/0090_rv.mp4	0.0	271.6190559864044	2.500377893447876
56	248.5787649154663	pulse	1	t		54.0	2.5	/experiments/knapen_AOT/AOT_stimuli/rescaled_final/0090_rv.mp4	0.0	272.4026708602905	
56	250.17912793159485	pulse	1	t		54.0	2.5	/experiments/knapen_AOT/AOT_stimuli/rescaled_final/0090_rv.mp4	0.0	274.00303387641907	
56	250.29552793502808	fix_post	2		12	54.0	2.5	/experiments/knapen_AOT/AOT_stimuli/rescaled_final/0090_rv.mp4	0.0	274.1194338798523	0.10004019737243652
57	250.3955681324005	fix_pre	0		120	55.0	2.5	/experiments/knapen_AOT/AOT_stimuli/rescaled_final/0275_fw.mp4	0.0	274.21947407722473	1.000126838684082
57	251.3956949710846	movie	1		243	55.0	2.5	/experiments/knapen_AOT/AOT_stimuli/rescaled_final/0275_fw.mp4	0.0	275.2196009159088	2.492033004760742
57	251.78361797332764	pulse	1	t		55.0	2.5	/experiments/knapen_AOT/AOT_stimuli/rescaled_final/0275_fw.mp4	0.0	275.60752391815186	
57	253.3796260356903	pulse	1	t		55.0	2.5	/experiments/knapen_AOT/AOT_stimuli/rescaled_final/0275_fw.mp4	0.0	277.2035319805145	
57	253.88772797584534	fix_post	2		12	55.0	2.5	/experiments/knapen_AOT/AOT_stimuli/rescaled_final/0275_fw.mp4	0.0	277.71163392066956	0.10000109672546387
58	253.9877290725708	fix_pre	0		120	56.0	2.5	blank	1.0	277.811635017395	1.0002219676971436
58	254.9798080921173	pulse	0	t		56.0	2.5	blank	1.0	278.8037140369415	
58	254.98795104026794	movie	1		301	56.0	2.5	blank	1.0	278.81185698509216	2.508671998977661
58	256.57999300956726	pulse	1	t		56.0	2.5	blank	1.0	280.4038989543915	
58	257.4966230392456	fix_post	2		12	56.0	2.5	blank	1.0	281.3205289840698	0.100006103515625
59	257.59662914276123	fix_pre	0		120	57.0	2.5	/experiments/knapen_AOT/AOT_stimuli/rescaled_final/1960_fw.mp4	0.0	281.42053508758545	1.0001378059387207
59	258.1803619861603	pulse	0	t		57.0	2.5	/experiments/knapen_AOT/AOT_stimuli/rescaled_final/1960_fw.mp4	0.0	282.0042679309845	
59	258.59676694869995	movie	1		245	57.0	2.5	/experiments/knapen_AOT/AOT_stimuli/rescaled_final/1960_fw.mp4	0.0	282.42067289352417	2.5004220008850098
59	259.7805950641632	pulse	1	t		57.0	2.5	/experiments/knapen_AOT/AOT_stimuli/rescaled_final/1960_fw.mp4	0.0	283.6045010089874	
59	261.09718894958496	fix_post	2		12	57.0	2.5	/experiments/knapen_AOT/AOT_stimuli/rescaled_final/1960_fw.mp4	0.0	284.9210948944092	0.09994101524353027
60	261.1971299648285	fix_pre	0		120	58.0	2.5	/experiments/knapen_AOT/AOT_stimuli/rescaled_final/0675_rv.mp4	0.0	285.0210359096527	1.0001530647277832
60	261.3733561038971	pulse	0	t		58.0	2.5	/experiments/knapen_AOT/AOT_stimuli/rescaled_final/0675_rv.mp4	0.0	285.1972620487213	
60	262.1972830295563	movie	1		244	58.0	2.5	/experiments/knapen_AOT/AOT_stimuli/rescaled_final/0675_rv.mp4	0.0	286.0211889743805	2.500382900238037
60	262.97357296943665	pulse	1	t		58.0	2.5	/experiments/knapen_AOT/AOT_stimuli/rescaled_final/0675_rv.mp4	0.0	286.79747891426086	
60	264.58144307136536	pulse	1	t		58.0	2.5	/experiments/knapen_AOT/AOT_stimuli/rescaled_final/0675_rv.mp4	0.0	288.4053490161896	
60	264.6976659297943	fix_post	2		12	58.0	2.5	/experiments/knapen_AOT/AOT_stimuli/rescaled_final/0675_rv.mp4	0.0	288.52157187461853	0.10002708435058594
61	264.7976930141449	fix_pre	0		119	59.0	2.5	/experiments/knapen_AOT/AOT_stimuli/rescaled_final/1827_rv.mp4	0.0	288.6215989589691	0.9918639659881592
61	265.78955698013306	movie	1		245	59.0	2.5	/experiments/knapen_AOT/AOT_stimuli/rescaled_final/1827_rv.mp4	0.0	289.6134629249573	2.5003750324249268
61	266.17356610298157	pulse	1	t		59.0	2.5	/experiments/knapen_AOT/AOT_stimuli/rescaled_final/1827_rv.mp4	0.0	289.9974720478058	
61	267.77340292930603	pulse	1	t		59.0	2.5	/experiments/knapen_AOT/AOT_stimuli/rescaled_final/1827_rv.mp4	0.0	291.59730887413025	
61	268.289932012558	fix_post	2		12	59.0	2.5	/experiments/knapen_AOT/AOT_stimuli/rescaled_final/1827_rv.mp4	0.0	292.1138379573822	0.09997391700744629
62	268.38990592956543	fix_pre	0		119	60.0	2.5	/experiments/knapen_AOT/AOT_stimuli/rescaled_final/1640_fw.mp4	0.0	292.21381187438965	0.9918069839477539
62	269.3735680580139	pulse	0	t		60.0	2.5	/experiments/knapen_AOT/AOT_stimuli/rescaled_final/1640_fw.mp4	0.0	293.19747400283813	
62	269.3817129135132	movie	1		245	60.0	2.5	/experiments/knapen_AOT/AOT_stimuli/rescaled_final/1640_fw.mp4	0.0	293.2056188583374	2.508761167526245
62	270.97452092170715	pulse	1	t		60.0	2.5	/experiments/knapen_AOT/AOT_stimuli/rescaled_final/1640_fw.mp4	0.0	294.7984268665314	
62	271.89047408103943	fix_post	2		12	60.0	2.5	/experiments/knapen_AOT/AOT_stimuli/rescaled_final/1640_fw.mp4	0.0	295.71438002586365	0.09994387626647949
63	271.9904179573059	fix_pre	0		120	61.0	2.5	/experiments/knapen_AOT/AOT_stimuli/rescaled_final/0568_rv.mp4	0.0	295.8143239021301	1.0001449584960938
63	272.57404494285583	pulse	0	t		61.0	2.5	/experiments/knapen_AOT/AOT_stimuli/rescaled_final/0568_rv.mp4	0.0	296.39795088768005	
63	272.990562915802	movie	1		245	61.0	2.5	/experiments/knapen_AOT/AOT_stimuli/rescaled_final/0568_rv.mp4	0.0	296.8144688606262	2.50040602684021
63	274.17443108558655	pulse	1	t		61.0	2.5	/experiments/knapen_AOT/AOT_stimuli/rescaled_final/0568_rv.mp4	0.0	297.99833703041077	
63	275.4909689426422	fix_post	2		12	61.0	2.5	/experiments/knapen_AOT/AOT_stimuli/rescaled_final/0568_rv.mp4	0.0	299.31487488746643	0.10002803802490234
64	275.5909969806671	fix_pre	0		117	62.0	2.5	/experiments/knapen_AOT/AOT_stimuli/rescaled_final/1811_fw.mp4	0.0	299.41490292549133	1.0001411437988281
64	275.7745900154114	pulse	0	t		62.0	2.5	/experiments/knapen_AOT/AOT_stimuli/rescaled_final/1811_fw.mp4	0.0	299.5984959602356	
64	276.59113812446594	movie	1		245	62.0	2.5	/experiments/knapen_AOT/AOT_stimuli/rescaled_final/1811_fw.mp4	0.0	300.41504406929016	2.500358819961548
64	277.3747351169586	pulse	1	t		62.0	2.5	/experiments/knapen_AOT/AOT_stimuli/rescaled_final/1811_fw.mp4	0.0	301.19864106178284	
64	278.97507905960083	pulse	1	t		62.0	2.5	/experiments/knapen_AOT/AOT_stimuli/rescaled_final/1811_fw.mp4	0.0	302.79898500442505	
64	279.0914969444275	fix_post	2		12	62.0	2.5	/experiments/knapen_AOT/AOT_stimuli/rescaled_final/1811_fw.mp4	0.0	302.9154028892517	0.10000014305114746
65	279.19149708747864	fix_pre	0		120	63.0	2.5	blank	1.0	303.01540303230286	1.0001869201660156
65	280.19168400764465	movie	1		299	63.0	2.5	blank	1.0	304.0155899524689	2.492056131362915
65	280.57522797584534	pulse	1	t		63.0	2.5	blank	1.0	304.39913392066956	
65	282.1754500865936	pulse	1	t		63.0	2.5	blank	1.0	305.99935603141785	
65	282.68374013900757	fix_post	2		12	63.0	2.5	blank	1.0	306.5076460838318	0.0999898910522461
66	282.7837300300598	fix_pre	0		120	64.0	2.5	/experiments/knapen_AOT/AOT_stimuli/rescaled_final/0540_rv.mp4	0.0	306.60763597488403	1.0001559257507324
66	283.7757411003113	pulse	0	t		64.0	2.5	/experiments/knapen_AOT/AOT_stimuli/rescaled_final/0540_rv.mp4	0.0	307.5996470451355	
66	283.78388595581055	movie	1		247	64.0	2.5	/experiments/knapen_AOT/AOT_stimuli/rescaled_final/0540_rv.mp4	0.0	307.60779190063477	2.5087010860443115
66	285.3766191005707	pulse	1	t		64.0	2.5	/experiments/knapen_AOT/AOT_stimuli/rescaled_final/0540_rv.mp4	0.0	309.2005250453949	
66	286.29258704185486	fix_post	2		12	64.0	2.5	/experiments/knapen_AOT/AOT_stimuli/rescaled_final/0540_rv.mp4	0.0	310.1164929866791	0.10000205039978027
67	286.39258909225464	fix_pre	0		120	65.0	2.5	/experiments/knapen_AOT/AOT_stimuli/rescaled_final/1062_fw.mp4	0.0	310.21649503707886	1.0001459121704102
67	286.9762740135193	pulse	0	t		65.0	2.5	/experiments/knapen_AOT/AOT_stimuli/rescaled_final/1062_fw.mp4	0.0	310.8001799583435	
67	287.39273500442505	movie	1		245	65.0	2.5	/experiments/knapen_AOT/AOT_stimuli/rescaled_final/1062_fw.mp4	0.0	311.21664094924927	2.5004141330718994
67	288.5765781402588	pulse	1	t		65.0	2.5	/experiments/knapen_AOT/AOT_stimuli/rescaled_final/1062_fw.mp4	0.0	312.400484085083	
67	289.89314913749695	fix_post	2		12	65.0	2.5	/experiments/knapen_AOT/AOT_stimuli/rescaled_final/1062_fw.mp4	0.0	313.71705508232117	0.10002899169921875
68	289.99317812919617	fix_pre	0		120	66.0	2.5	/experiments/knapen_AOT/AOT_stimuli/rescaled_final/0501_rv.mp4	0.0	313.8170840740204	1.0001089572906494
68	290.1767039299011	pulse	0	t		66.0	2.5	/experiments/knapen_AOT/AOT_stimuli/rescaled_final/0501_rv.mp4	0.0	314.00060987472534	
68	290.9932870864868	movie	1		243	66.0	2.5	/experiments/knapen_AOT/AOT_stimuli/rescaled_final/0501_rv.mp4	0.0	314.81719303131104	2.5004329681396484
68	291.7769389152527	pulse	1	t		66.0	2.5	/experiments/knapen_AOT/AOT_stimuli/rescaled_final/0501_rv.mp4	0.0	315.6008448600769	
68	293.377268075943	pulse	1	t		66.0	2.5	/experiments/knapen_AOT/AOT_stimuli/rescaled_final/0501_rv.mp4	0.0	317.2011740207672	
68	293.49372005462646	fix_post	2		12	66.0	2.5	/experiments/knapen_AOT/AOT_stimuli/rescaled_final/0501_rv.mp4	0.0	317.3176259994507	0.09995198249816895
69	293.59367203712463	fix_pre	0		120	67.0	2.5	/experiments/knapen_AOT/AOT_stimuli/rescaled_final/2018_rv.mp4	0.0	317.41757798194885	1.0002539157867432
69	294.5939259529114	movie	1		243	67.0	2.5	/experiments/knapen_AOT/AOT_stimuli/rescaled_final/2018_rv.mp4	0.0	318.4178318977356	2.4919471740722656
69	294.97822308540344	pulse	1	t		67.0	2.5	/experiments/knapen_AOT/AOT_stimuli/rescaled_final/2018_rv.mp4	0.0	318.80212903022766	
69	296.5776860713959	pulse	1	t		67.0	2.5	/experiments/knapen_AOT/AOT_stimuli/rescaled_final/2018_rv.mp4	0.0	320.4015920162201	
69	297.08587312698364	fix_post	2		12	67.0	2.5	/experiments/knapen_AOT/AOT_stimuli/rescaled_final/2018_rv.mp4	0.0	320.90977907180786	0.10006093978881836
70	297.18593406677246	fix_pre	0		120	68.0	2.5	/experiments/knapen_AOT/AOT_stimuli/rescaled_final/0854_fw.mp4	0.0	321.0098400115967	1.0001120567321777
70	298.17783999443054	pulse	0	t		68.0	2.5	/experiments/knapen_AOT/AOT_stimuli/rescaled_final/0854_fw.mp4	0.0	322.00174593925476	
70	298.18604612350464	movie	1		245	68.0	2.5	/experiments/knapen_AOT/AOT_stimuli/rescaled_final/0854_fw.mp4	0.0	322.00995206832886	2.50870680809021
70	299.7787380218506	pulse	1	t		68.0	2.5	/experiments/knapen_AOT/AOT_stimuli/rescaled_final/0854_fw.mp4	0.0	323.6026439666748	
70	300.69475293159485	fix_post	2		12	68.0	2.5	/experiments/knapen_AOT/AOT_stimuli/rescaled_final/0854_fw.mp4	0.0	324.51865887641907	0.09998202323913574
71	300.794734954834	fix_pre	0		120	69.0	2.5	/experiments/knapen_AOT/AOT_stimuli/rescaled_final/0654_rv.mp4	0.0	324.6186408996582	1.0001611709594727
71	301.3784370422363	pulse	0	t		69.0	2.5	/experiments/knapen_AOT/AOT_stimuli/rescaled_final/0654_rv.mp4	0.0	325.20234298706055	
71	301.79489612579346	movie	1		245	69.0	2.5	/experiments/knapen_AOT/AOT_stimuli/rescaled_final/0654_rv.mp4	0.0	325.6188020706177	2.5004827976226807
71	302.9786479473114	pulse	1	t		69.0	2.5	/experiments/knapen_AOT/AOT_stimuli/rescaled_final/0654_rv.mp4	0.0	326.8025538921356	
71	304.29537892341614	fix_post	2		12	69.0	2.5	/experiments/knapen_AOT/AOT_stimuli/rescaled_final/0654_rv.mp4	0.0	328.11928486824036	0.0999140739440918
72	304.39529299736023	fix_pre	0		120	70.0	2.5	blank	1.0	328.21919894218445	1.0001440048217773
72	304.57880091667175	pulse	0	t		70.0	2.5	blank	1.0	328.402706861496	
72	305.395437002182	movie	1		300	70.0	2.5	blank	1.0	329.2193429470062	2.5003421306610107
72	306.179181098938	pulse	1	t		70.0	2.5	blank	1.0	330.0030870437622	
72	307.77938508987427	pulse	1	t		70.0	2.5	blank	1.0	331.6032910346985	
72	307.895779132843	fix_post	2		12	70.0	2.5	blank	1.0	331.71968507766724	0.10006594657897949
73	307.995845079422	fix_pre	0		120	71.0	2.5	/experiments/knapen_AOT/AOT_stimuli/rescaled_final/1704_rv.mp4	0.0	331.8197510242462	1.0001368522644043
73	308.9959819316864	movie	1		242	71.0	2.5	/experiments/knapen_AOT/AOT_stimuli/rescaled_final/1704_rv.mp4	0.0	332.8198878765106	2.4920380115509033
73	309.3802020549774	pulse	1	t		71.0	2.5	/experiments/knapen_AOT/AOT_stimuli/rescaled_final/1704_rv.mp4	0.0	333.20410799980164	
73	310.97975993156433	pulse	1	t		71.0	2.5	/experiments/knapen_AOT/AOT_stimuli/rescaled_final/1704_rv.mp4	0.0	334.80366587638855	
73	311.4880199432373	fix_post	2		12	71.0	2.5	/experiments/knapen_AOT/AOT_stimuli/rescaled_final/1704_rv.mp4	0.0	335.3119258880615	0.10001397132873535
74	311.58803391456604	fix_pre	0		120	72.0	2.5	/experiments/knapen_AOT/AOT_stimuli/rescaled_final/1606_rv.mp4	0.0	335.41193985939026	1.0001440048217773
74	312.5801160335541	pulse	0	t		72.0	2.5	/experiments/knapen_AOT/AOT_stimuli/rescaled_final/1606_rv.mp4	0.0	336.4040219783783	
74	312.5881779193878	movie	1		245	72.0	2.5	/experiments/knapen_AOT/AOT_stimuli/rescaled_final/1606_rv.mp4	0.0	336.41208386421204	2.5086941719055176
74	314.1809389591217	pulse	1	t		72.0	2.5	/experiments/knapen_AOT/AOT_stimuli/rescaled_final/1606_rv.mp4	0.0	338.0048449039459	
74	315.09687209129333	fix_post	2		12	72.0	2.5	/experiments/knapen_AOT/AOT_stimuli/rescaled_final/1606_rv.mp4	0.0	338.92077803611755	0.10001182556152344
75	315.19688391685486	fix_pre	0		120	73.0	2.5	/experiments/knapen_AOT/AOT_stimuli/rescaled_final/1191_fw.mp4	0.0	339.0207898616791	1.0001881122589111
75	315.78057408332825	pulse	0	t		73.0	2.5	/experiments/knapen_AOT/AOT_stimuli/rescaled_final/1191_fw.mp4	0.0	339.60448002815247	
75	316.19707202911377	movie	1		244	73.0	2.5	/experiments/knapen_AOT/AOT_stimuli/rescaled_final/1191_fw.mp4	0.0	340.020977973938	2.500375986099243
75	317.37380504608154	pulse	1	t		73.0	2.5	/experiments/knapen_AOT/AOT_stimuli/rescaled_final/1191_fw.mp4	0.0	341.19771099090576	
75	318.697448015213	fix_post	2		12	73.0	2.5	/experiments/knapen_AOT/AOT_stimuli/rescaled_final/1191_fw.mp4	0.0	342.52135396003723	0.09996509552001953
76	318.79741311073303	fix_pre	0		120	74.0	2.5	/experiments/knapen_AOT/AOT_stimuli/rescaled_final/1194_rv.mp4	0.0	342.62131905555725	1.0001778602600098
76	318.9809639453888	pulse	0	t		74.0	2.5	/experiments/knapen_AOT/AOT_stimuli/rescaled_final/1194_rv.mp4	0.0	342.804869890213	
76	319.79759097099304	movie	1		247	74.0	2.5	/experiments/knapen_AOT/AOT_stimuli/rescaled_final/1194_rv.mp4	0.0	343.62149691581726	2.5003771781921387
76	320.57391810417175	pulse	1	t		74.0	2.5	/experiments/knapen_AOT/AOT_stimuli/rescaled_final/1194_rv.mp4	0.0	344.397824048996	
76	322.17405796051025	pulse	1	t		74.0	2.5	/experiments/knapen_AOT/AOT_stimuli/rescaled_final/1194_rv.mp4	0.0	345.9979639053345	
76	322.2979681491852	fix_post	2		12	74.0	2.5	/experiments/knapen_AOT/AOT_stimuli/rescaled_final/1194_rv.mp4	0.0	346.1218740940094	0.09996390342712402
77	322.3979320526123	fix_pre	0		120	75.0	2.5	/experiments/knapen_AOT/AOT_stimuli/rescaled_final/0076_rv.mp4	0.0	346.2218379974365	1.0001790523529053
77	323.3981111049652	movie	1		243	75.0	2.5	/experiments/knapen_AOT/AOT_stimuli/rescaled_final/0076_rv.mp4	0.0	347.22201704978943	2.4920778274536133
77	323.78237795829773	pulse	1	t		75.0	2.5	/experiments/knapen_AOT/AOT_stimuli/rescaled_final/0076_rv.mp4	0.0	347.60628390312195	
77	325.3737380504608	pulse	1	t		75.0	2.5	/experiments/knapen_AOT/AOT_stimuli/rescaled_final/0076_rv.mp4	0.0	349.19764399528503	
77	325.8901889324188	fix_post	2		12	75.0	2.5	/experiments/knapen_AOT/AOT_stimuli/rescaled_final/0076_rv.mp4	0.0	349.71409487724304	0.09997105598449707
78	325.9901599884033	fix_pre	0		119	76.0	2.5	/experiments/knapen_AOT/AOT_stimuli/rescaled_final/1490_rv.mp4	0.0	349.81406593322754	0.9918379783630371
78	326.97379207611084	pulse	0	t		76.0	2.5	/experiments/knapen_AOT/AOT_stimuli/rescaled_final/1490_rv.mp4	0.0	350.79769802093506	
78	326.98199796676636	movie	1		245	76.0	2.5	/experiments/knapen_AOT/AOT_stimuli/rescaled_final/1490_rv.mp4	0.0	350.8059039115906	2.5087339878082275
78	328.5744650363922	pulse	1	t		76.0	2.5	/experiments/knapen_AOT/AOT_stimuli/rescaled_final/1490_rv.mp4	0.0	352.39837098121643	
78	329.4907319545746	fix_post	2		12	76.0	2.5	/experiments/knapen_AOT/AOT_stimuli/rescaled_final/1490_rv.mp4	0.0	353.3146378993988	0.099945068359375
79	329.59067702293396	fix_pre	0		120	77.0	2.5	blank	1.0	353.4145829677582	1.0002191066741943
79	330.17432498931885	pulse	0	t		77.0	2.5	blank	1.0	353.99823093414307	
79	330.59089612960815	movie	1		300	77.0	2.5	blank	1.0	354.4148020744324	2.500412940979004
79	331.7746579647064	pulse	1	t		77.0	2.5	blank	1.0	355.59856390953064	
79	333.09130907058716	fix_post	2		12	77.0	2.5	blank	1.0	356.9152150154114	0.0999288558959961
80	333.19123792648315	fix_pre	0		120	78.0	2.5	/experiments/knapen_AOT/AOT_stimuli/rescaled_final/0066_fw.mp4	0.0	357.0151438713074	1.0001220703125
80	333.3747570514679	pulse	0	t		78.0	2.5	/experiments/knapen_AOT/AOT_stimuli/rescaled_final/0066_fw.mp4	0.0	357.1986629962921	
80	334.19135999679565	movie	1		246	78.0	2.5	/experiments/knapen_AOT/AOT_stimuli/rescaled_final/0066_fw.mp4	0.0	358.0152659416199	2.5003769397735596
80	334.9750781059265	pulse	1	t		78.0	2.5	/experiments/knapen_AOT/AOT_stimuli/rescaled_final/0066_fw.mp4	0.0	358.79898405075073	
80	336.5752749443054	pulse	1	t		78.0	2.5	/experiments/knapen_AOT/AOT_stimuli/rescaled_final/0066_fw.mp4	0.0	360.39918088912964	
80	336.6917369365692	fix_post	2		12	78.0	2.5	/experiments/knapen_AOT/AOT_stimuli/rescaled_final/0066_fw.mp4	0.0	360.51564288139343	0.10001707077026367
81	336.7917540073395	fix_pre	0		119	79.0	2.5	/experiments/knapen_AOT/AOT_stimuli/rescaled_final/0610_rv.mp4	0.0	360.6156599521637	0.9943101406097412
81	337.7860641479492	movie	1		241	79.0	2.5	/experiments/knapen_AOT/AOT_stimuli/rescaled_final/0610_rv.mp4	0.0	361.60997009277344	2.4979348182678223
81	338.1756110191345	pulse	1	t		79.0	2.5	/experiments/knapen_AOT/AOT_stimuli/rescaled_final/0610_rv.mp4	0.0	361.99951696395874	
81	339.7757239341736	pulse	1	t		79.0	2.5	/experiments/knapen_AOT/AOT_stimuli/rescaled_final/0610_rv.mp4	0.0	363.5996298789978	
81	340.28399896621704	fix_post	2		12	79.0	2.5	/experiments/knapen_AOT/AOT_stimuli/rescaled_final/0610_rv.mp4	0.0	364.10790491104126	0.10003995895385742
82	340.3840389251709	fix_pre	0		120	80.0	2.5	/experiments/knapen_AOT/AOT_stimuli/rescaled_final/0071_fw.mp4	0.0	364.2079448699951	1.0000901222229004
82	341.37608003616333	pulse	0	t		80.0	2.5	/experiments/knapen_AOT/AOT_stimuli/rescaled_final/0071_fw.mp4	0.0	365.19998598098755	
82	341.3841290473938	movie	1		249	80.0	2.5	/experiments/knapen_AOT/AOT_stimuli/rescaled_final/0071_fw.mp4	0.0	365.208034992218	2.5086920261383057
82	342.9768650531769	pulse	1	t		80.0	2.5	/experiments/knapen_AOT/AOT_stimuli/rescaled_final/0071_fw.mp4	0.0	366.8007709980011	
82	343.8928210735321	fix_post	2		12	80.0	2.5	/experiments/knapen_AOT/AOT_stimuli/rescaled_final/0071_fw.mp4	0.0	367.7167270183563	0.10001397132873535
83	343.99283504486084	fix_pre	0		120	81.0	2.5	/experiments/knapen_AOT/AOT_stimuli/rescaled_final/0816_fw.mp4	0.0	367.81674098968506	1.0002079010009766
83	344.5766110420227	pulse	0	t		81.0	2.5	/experiments/knapen_AOT/AOT_stimuli/rescaled_final/0816_fw.mp4	0.0	368.4005169868469	
83	344.9930429458618	movie	1		244	81.0	2.5	/experiments/knapen_AOT/AOT_stimuli/rescaled_final/0816_fw.mp4	0.0	368.81694889068604	2.500359058380127
83	346.17689204216003	pulse	1	t		81.0	2.5	/experiments/knapen_AOT/AOT_stimuli/rescaled_final/0816_fw.mp4	0.0	370.00079798698425	
83	347.49340200424194	fix_post	2		12	81.0	2.5	/experiments/knapen_AOT/AOT_stimuli/rescaled_final/0816_fw.mp4	0.0	371.31730794906616	0.09998893737792969
84	347.5933909416199	fix_pre	0		120	82.0	2.5	/experiments/knapen_AOT/AOT_stimuli/rescaled_final/1327_fw.mp4	0.0	371.4172968864441	1.0001411437988281
84	347.7769341468811	pulse	0	t		82.0	2.5	/experiments/knapen_AOT/AOT_stimuli/rescaled_final/1327_fw.mp4	0.0	371.6008400917053	
84	348.5935320854187	movie	1		244	82.0	2.5	/experiments/knapen_AOT/AOT_stimuli/rescaled_final/1327_fw.mp4	0.0	372.4174380302429	2.5004448890686035
84	349.3772931098938	pulse	1	t		82.0	2.5	/experiments/knapen_AOT/AOT_stimuli/rescaled_final/1327_fw.mp4	0.0	373.201199054718	
84	350.97905111312866	pulse	1	t		82.0	2.5	/experiments/knapen_AOT/AOT_stimuli/rescaled_final/1327_fw.mp4	0.0	374.8029570579529	
84	351.0939769744873	fix_post	2		12	82.0	2.5	/experiments/knapen_AOT/AOT_stimuli/rescaled_final/1327_fw.mp4	0.0	374.9178829193115	0.09995913505554199
85	351.19393610954285	fix_pre	0		120	83.0	2.5	blank	1.0	375.01784205436707	1.0001559257507324
85	352.1940920352936	movie	1		299	83.0	2.5	blank	1.0	376.0179979801178	2.4920859336853027
85	352.57770895957947	pulse	1	t		83.0	2.5	blank	1.0	376.4016149044037	
85	354.17783308029175	pulse	1	t		83.0	2.5	blank	1.0	378.00173902511597	
85	354.6861779689789	fix_post	2		12	83.0	2.5	blank	1.0	378.5100839138031	0.1000831127166748
87	354.78626108169556	stim	0		1716					378.6101670265198	14.302048921585083
87	355.77822709083557	pulse	0	t						379.6021330356598	
87	357.3784091472626	pulse	0	t						381.2023150920868	
87	358.97864413261414	pulse	0	t						382.80255007743835	
87	360.5788400173187	pulse	0	t						384.40274596214294	
87	362.1790270805359	pulse	0	t						386.0029330253601	
87	363.77928709983826	pulse	0	t						387.6031930446625	
87	365.37960410118103	pulse	0	t						389.20351004600525	
87	366.9797329902649	pulse	0	t						390.8036389350891	
87	368.580029964447	pulse	0	t						392.40393590927124	
