trial_nr	onset	event_type	phase	response	nr_frames	movie_index	movie_duration	movie_file	blank	onset_abs	duration
0	0.13370490074157715	stim	0		109					20.497589826583862	0.9084169864654541
0	1.0340690612792969	response	0	space						21.397953987121582	
1	1.0421218872070312	stim	0		2504					21.406006813049316	20.866496086120605
1	21.901050090789795	pulse	0	t						42.26493501663208	
1	21.908617973327637	stim	1		1717					42.27250289916992	14.308291912078857
1	23.500476121902466	pulse	1	t						43.86436104774475	
1	25.10031795501709	pulse	1	t						45.464202880859375	
1	26.7003231048584	pulse	1	t						47.064208030700684	
1	28.300434112548828	pulse	1	t						48.66431903839111	
1	29.90041494369507	pulse	1	t						50.26429986953735	
1	31.500385999679565	pulse	1	t						51.86427092552185	
1	33.10001301765442	pulse	1	t						53.463897943496704	
1	34.7001519203186	pulse	1	t						55.06403684616089	
2	36.216909885406494	fix_pre	0		11	0.0	2.5	/experiments/AOT/AOT_stimuli/rescaled_final/1988_fw.mp4	0.0	56.58079481124878	0.09162712097167969
2	36.300424098968506	pulse	0	t		0.0	2.5	/experiments/AOT/AOT_stimuli/rescaled_final/1988_fw.mp4	0.0	56.66430902481079	
2	36.308537006378174	movie	1		244	0.0	2.5	/experiments/AOT/AOT_stimuli/rescaled_final/1988_fw.mp4	0.0	56.67242193222046	2.5083389282226562
2	37.899921894073486	pulse	1	t		0.0	2.5	/experiments/AOT/AOT_stimuli/rescaled_final/1988_fw.mp4	0.0	58.26380681991577	
2	38.81687593460083	fix_post	2		12	0.0	2.5	/experiments/AOT/AOT_stimuli/rescaled_final/1988_fw.mp4	0.0	59.180760860443115	0.0998990535736084
3	38.91677498817444	fix_pre	0		120	1.0	2.5	/experiments/AOT/AOT_stimuli/rescaled_final/0316_rv.mp4	0.0	59.280659914016724	1.000175952911377
3	39.50036406517029	pulse	0	t		1.0	2.5	/experiments/AOT/AOT_stimuli/rescaled_final/0316_rv.mp4	0.0	59.86424899101257	
3	39.916950941085815	movie	1		245	1.0	2.5	/experiments/AOT/AOT_stimuli/rescaled_final/0316_rv.mp4	0.0	60.2808358669281	2.499911069869995
3	41.100295066833496	pulse	1	t		1.0	2.5	/experiments/AOT/AOT_stimuli/rescaled_final/0316_rv.mp4	0.0	61.46417999267578	
3	42.41686201095581	fix_post	2		12	1.0	2.5	/experiments/AOT/AOT_stimuli/rescaled_final/0316_rv.mp4	0.0	62.780746936798096	0.09992289543151855
4	42.51678490638733	fix_pre	0		120	2.0	2.5	/experiments/AOT/AOT_stimuli/rescaled_final/0826_rv.mp4	0.0	62.880669832229614	1.0000782012939453
4	42.7003059387207	pulse	0	t		2.0	2.5	/experiments/AOT/AOT_stimuli/rescaled_final/0826_rv.mp4	0.0	63.06419086456299	
4	43.516863107681274	movie	1		243	2.0	2.5	/experiments/AOT/AOT_stimuli/rescaled_final/0826_rv.mp4	0.0	63.88074803352356	2.5000438690185547
4	44.30023503303528	pulse	1	t		2.0	2.5	/experiments/AOT/AOT_stimuli/rescaled_final/0826_rv.mp4	0.0	64.66411995887756	
4	45.898972034454346	pulse	1	t		2.0	2.5	/experiments/AOT/AOT_stimuli/rescaled_final/0826_rv.mp4	0.0	66.26285696029663	
4	46.01690697669983	fix_post	2		12	2.0	2.5	/experiments/AOT/AOT_stimuli/rescaled_final/0826_rv.mp4	0.0	66.38079190254211	0.0998849868774414
5	46.11679196357727	fix_pre	0		120	3.0	2.5	/experiments/AOT/AOT_stimuli/rescaled_final/1057_fw.mp4	0.0	66.48067688941956	1.000072956085205
5	47.116864919662476	movie	1		242	3.0	2.5	/experiments/AOT/AOT_stimuli/rescaled_final/1057_fw.mp4	0.0	67.48074984550476	2.499886989593506
5	47.49998092651367	pulse	1	t		3.0	2.5	/experiments/AOT/AOT_stimuli/rescaled_final/1057_fw.mp4	0.0	67.86386585235596	
5	49.10023093223572	pulse	1	t		3.0	2.5	/experiments/AOT/AOT_stimuli/rescaled_final/1057_fw.mp4	0.0	69.464115858078	
5	49.61675190925598	fix_post	2		12	3.0	2.5	/experiments/AOT/AOT_stimuli/rescaled_final/1057_fw.mp4	0.0	69.98063683509827	0.10002899169921875
6	49.7167809009552	fix_pre	0		119	4.0	2.5	/experiments/AOT/AOT_stimuli/rescaled_final/1505_rv.mp4	0.0	70.08066582679749	0.9917809963226318
6	50.700284004211426	pulse	0	t		4.0	2.5	/experiments/AOT/AOT_stimuli/rescaled_final/1505_rv.mp4	0.0	71.06416893005371	
6	50.70856189727783	movie	1		243	4.0	2.5	/experiments/AOT/AOT_stimuli/rescaled_final/1505_rv.mp4	0.0	71.07244682312012	2.5082550048828125
6	52.30013704299927	pulse	1	t		4.0	2.5	/experiments/AOT/AOT_stimuli/rescaled_final/1505_rv.mp4	0.0	72.66402196884155	
6	53.216816902160645	fix_post	2		12	4.0	2.5	/experiments/AOT/AOT_stimuli/rescaled_final/1505_rv.mp4	0.0	73.58070182800293	0.09986400604248047
7	53.316680908203125	fix_pre	0		120	5.0	2.5	/experiments/AOT/AOT_stimuli/rescaled_final/0829_fw.mp4	0.0	73.68056583404541	1.0000560283660889
7	53.90026593208313	pulse	0	t		5.0	2.5	/experiments/AOT/AOT_stimuli/rescaled_final/0829_fw.mp4	0.0	74.26415085792542	
7	54.316736936569214	movie	1		245	5.0	2.5	/experiments/AOT/AOT_stimuli/rescaled_final/0829_fw.mp4	0.0	74.6806218624115	2.4999911785125732
7	55.50037598609924	pulse	1	t		5.0	2.5	/experiments/AOT/AOT_stimuli/rescaled_final/0829_fw.mp4	0.0	75.86426091194153	
7	56.81672811508179	fix_post	2		12	5.0	2.5	/experiments/AOT/AOT_stimuli/rescaled_final/0829_fw.mp4	0.0	77.18061304092407	0.1000669002532959
8	56.91679501533508	fix_pre	0		120	6.0	2.5	/experiments/AOT/AOT_stimuli/rescaled_final/0460_fw.mp4	0.0	77.28067994117737	0.9999079704284668
8	57.10029911994934	pulse	0	t		6.0	2.5	/experiments/AOT/AOT_stimuli/rescaled_final/0460_fw.mp4	0.0	77.46418404579163	
8	57.91670298576355	movie	1		242	6.0	2.5	/experiments/AOT/AOT_stimuli/rescaled_final/0460_fw.mp4	0.0	78.28058791160583	2.4997549057006836
8	58.700247049331665	pulse	1	t		6.0	2.5	/experiments/AOT/AOT_stimuli/rescaled_final/0460_fw.mp4	0.0	79.06413197517395	
8	60.2986900806427	pulse	1	t		6.0	2.5	/experiments/AOT/AOT_stimuli/rescaled_final/0460_fw.mp4	0.0	80.66257500648499	
8	60.41645789146423	fix_post	2		12	6.0	2.5	/experiments/AOT/AOT_stimuli/rescaled_final/0460_fw.mp4	0.0	80.78034281730652	0.1003119945526123
9	60.516769886016846	fix_pre	0		120	7.0	2.5	blank	1.0	80.88065481185913	0.999946117401123
9	61.51671600341797	movie	1		300	7.0	2.5	blank	1.0	81.88060092926025	2.5000009536743164
9	61.90022301673889	pulse	1	t		7.0	2.5	blank	1.0	82.26410794258118	
9	63.50025296211243	pulse	1	t		7.0	2.5	blank	1.0	83.86413788795471	
9	64.01671695709229	fix_post	2		12	7.0	2.5	blank	1.0	84.38060188293457	0.10002613067626953
10	64.11674308776855	fix_pre	0		119	8.0	2.5	/experiments/AOT/AOT_stimuli/rescaled_final/1779_rv.mp4	0.0	84.48062801361084	0.9916718006134033
10	65.10027194023132	pulse	0	t		8.0	2.5	/experiments/AOT/AOT_stimuli/rescaled_final/1779_rv.mp4	0.0	85.46415686607361	
10	65.10841488838196	movie	1		243	8.0	2.5	/experiments/AOT/AOT_stimuli/rescaled_final/1779_rv.mp4	0.0	85.47229981422424	2.5082590579986572
10	66.7007040977478	pulse	1	t		8.0	2.5	/experiments/AOT/AOT_stimuli/rescaled_final/1779_rv.mp4	0.0	87.06458902359009	
10	67.61667394638062	fix_post	2		12	8.0	2.5	/experiments/AOT/AOT_stimuli/rescaled_final/1779_rv.mp4	0.0	87.9805588722229	0.10002303123474121
11	67.71669697761536	fix_pre	0		120	9.0	2.5	/experiments/AOT/AOT_stimuli/rescaled_final/0612_rv.mp4	0.0	88.08058190345764	1.0000100135803223
11	68.30023288726807	pulse	0	t		9.0	2.5	/experiments/AOT/AOT_stimuli/rescaled_final/0612_rv.mp4	0.0	88.66411781311035	
11	68.71670699119568	movie	1		243	9.0	2.5	/experiments/AOT/AOT_stimuli/rescaled_final/0612_rv.mp4	0.0	89.08059191703796	2.5000369548797607
11	69.90035390853882	pulse	1	t		9.0	2.5	/experiments/AOT/AOT_stimuli/rescaled_final/0612_rv.mp4	0.0	90.2642388343811	
11	71.21674394607544	fix_post	2		12	9.0	2.5	/experiments/AOT/AOT_stimuli/rescaled_final/0612_rv.mp4	0.0	91.58062887191772	0.09995102882385254
12	71.31669497489929	fix_pre	0		120	10.0	2.5	/experiments/AOT/AOT_stimuli/rescaled_final/1340_rv.mp4	0.0	91.68057990074158	1.0001001358032227
12	71.50018095970154	pulse	0	t		10.0	2.5	/experiments/AOT/AOT_stimuli/rescaled_final/1340_rv.mp4	0.0	91.86406588554382	
12	72.31679511070251	movie	1		243	10.0	2.5	/experiments/AOT/AOT_stimuli/rescaled_final/1340_rv.mp4	0.0	92.6806800365448	2.49993896484375
12	73.10023403167725	pulse	1	t		10.0	2.5	/experiments/AOT/AOT_stimuli/rescaled_final/1340_rv.mp4	0.0	93.46411895751953	
12	74.69856810569763	pulse	1	t		10.0	2.5	/experiments/AOT/AOT_stimuli/rescaled_final/1340_rv.mp4	0.0	95.06245303153992	
12	74.81673407554626	fix_post	2		12	10.0	2.5	/experiments/AOT/AOT_stimuli/rescaled_final/1340_rv.mp4	0.0	95.18061900138855	0.09991192817687988
13	74.91664600372314	fix_pre	0		120	11.0	2.5	/experiments/AOT/AOT_stimuli/rescaled_final/0623_fw.mp4	0.0	95.28053092956543	1.0000779628753662
13	75.91672396659851	movie	1		243	11.0	2.5	/experiments/AOT/AOT_stimuli/rescaled_final/0623_fw.mp4	0.0	96.2806088924408	2.499972105026245
13	76.29990005493164	pulse	1	t		11.0	2.5	/experiments/AOT/AOT_stimuli/rescaled_final/0623_fw.mp4	0.0	96.66378498077393	
13	77.90008902549744	pulse	1	t		11.0	2.5	/experiments/AOT/AOT_stimuli/rescaled_final/0623_fw.mp4	0.0	98.26397395133972	
13	78.41669607162476	fix_post	2		12	11.0	2.5	/experiments/AOT/AOT_stimuli/rescaled_final/0623_fw.mp4	0.0	98.78058099746704	0.10000491142272949
14	78.51670098304749	fix_pre	0		119	12.0	2.5	/experiments/AOT/AOT_stimuli/rescaled_final/0121_fw.mp4	0.0	98.88058590888977	0.9917089939117432
14	79.5001289844513	pulse	0	t		12.0	2.5	/experiments/AOT/AOT_stimuli/rescaled_final/0121_fw.mp4	0.0	99.86401391029358	
14	79.50840997695923	movie	1		244	12.0	2.5	/experiments/AOT/AOT_stimuli/rescaled_final/0121_fw.mp4	0.0	99.87229490280151	2.5083279609680176
14	81.10116600990295	pulse	1	t		12.0	2.5	/experiments/AOT/AOT_stimuli/rescaled_final/0121_fw.mp4	0.0	101.46505093574524	
14	82.01673793792725	fix_post	2		12	12.0	2.5	/experiments/AOT/AOT_stimuli/rescaled_final/0121_fw.mp4	0.0	102.38062286376953	0.09997296333312988
15	82.11671090126038	fix_pre	0		120	13.0	2.5	blank	1.0	102.48059582710266	0.9999251365661621
15	82.700119972229	pulse	0	t		13.0	2.5	blank	1.0	103.06400489807129	
15	83.11663603782654	movie	1		300	13.0	2.5	blank	1.0	103.48052096366882	2.499969959259033
15	84.30014896392822	pulse	1	t		13.0	2.5	blank	1.0	104.66403388977051	
15	85.61660599708557	fix_post	2		12	13.0	2.5	blank	1.0	105.98049092292786	0.09998893737792969
16	85.7165949344635	fix_pre	0		120	14.0	2.5	/experiments/AOT/AOT_stimuli/rescaled_final/0282_rv.mp4	0.0	106.08047986030579	1.0000700950622559
16	85.90020394325256	pulse	0	t		14.0	2.5	/experiments/AOT/AOT_stimuli/rescaled_final/0282_rv.mp4	0.0	106.26408886909485	
16	86.71666502952576	movie	1		244	14.0	2.5	/experiments/AOT/AOT_stimuli/rescaled_final/0282_rv.mp4	0.0	107.08054995536804	2.499600887298584
16	87.50010299682617	pulse	1	t		14.0	2.5	/experiments/AOT/AOT_stimuli/rescaled_final/0282_rv.mp4	0.0	107.86398792266846	
16	89.09797191619873	pulse	1	t		14.0	2.5	/experiments/AOT/AOT_stimuli/rescaled_final/0282_rv.mp4	0.0	109.46185684204102	
16	89.21626591682434	fix_post	2		12	14.0	2.5	/experiments/AOT/AOT_stimuli/rescaled_final/0282_rv.mp4	0.0	109.58015084266663	0.09995508193969727
17	89.31622099876404	fix_pre	0		120	15.0	2.5	/experiments/AOT/AOT_stimuli/rescaled_final/0920_fw.mp4	0.0	109.68010592460632	1.0006051063537598
17	90.3168261051178	movie	1		242	15.0	2.5	/experiments/AOT/AOT_stimuli/rescaled_final/0920_fw.mp4	0.0	110.68071103096008	2.499825954437256
17	90.70087003707886	pulse	1	t		15.0	2.5	/experiments/AOT/AOT_stimuli/rescaled_final/0920_fw.mp4	0.0	111.06475496292114	
17	92.29999303817749	pulse	1	t		15.0	2.5	/experiments/AOT/AOT_stimuli/rescaled_final/0920_fw.mp4	0.0	112.66387796401978	
17	92.81665205955505	fix_post	2		12	15.0	2.5	/experiments/AOT/AOT_stimuli/rescaled_final/0920_fw.mp4	0.0	113.18053698539734	0.09999704360961914
18	92.91664910316467	fix_pre	0		119	16.0	2.5	/experiments/AOT/AOT_stimuli/rescaled_final/0496_rv.mp4	0.0	113.28053402900696	0.9915919303894043
18	93.90007591247559	pulse	0	t		16.0	2.5	/experiments/AOT/AOT_stimuli/rescaled_final/0496_rv.mp4	0.0	114.26396083831787	
18	93.90824103355408	movie	1		245	16.0	2.5	/experiments/AOT/AOT_stimuli/rescaled_final/0496_rv.mp4	0.0	114.27212595939636	2.5083820819854736
18	95.49991202354431	pulse	1	t		16.0	2.5	/experiments/AOT/AOT_stimuli/rescaled_final/0496_rv.mp4	0.0	115.8637969493866	
18	96.41662311553955	fix_post	2		12	16.0	2.5	/experiments/AOT/AOT_stimuli/rescaled_final/0496_rv.mp4	0.0	116.78050804138184	0.09993791580200195
19	96.51656103134155	fix_pre	0		120	17.0	2.5	/experiments/AOT/AOT_stimuli/rescaled_final/0160_rv.mp4	0.0	116.88044595718384	1.0000040531158447
19	97.10001802444458	pulse	0	t		17.0	2.5	/experiments/AOT/AOT_stimuli/rescaled_final/0160_rv.mp4	0.0	117.46390295028687	
19	97.5165650844574	movie	1		245	17.0	2.5	/experiments/AOT/AOT_stimuli/rescaled_final/0160_rv.mp4	0.0	117.88045001029968	2.4999499320983887
19	98.7000949382782	pulse	1	t		17.0	2.5	/experiments/AOT/AOT_stimuli/rescaled_final/0160_rv.mp4	0.0	119.06397986412048	
19	100.01651501655579	fix_post	2		12	17.0	2.5	/experiments/AOT/AOT_stimuli/rescaled_final/0160_rv.mp4	0.0	120.38039994239807	0.10013699531555176
20	100.11665201187134	fix_pre	0		120	18.0	2.5	/experiments/AOT/AOT_stimuli/rescaled_final/0096_fw.mp4	0.0	120.48053693771362	0.9998579025268555
20	100.3000099658966	pulse	0	t		18.0	2.5	/experiments/AOT/AOT_stimuli/rescaled_final/0096_fw.mp4	0.0	120.66389489173889	
20	101.1165099143982	movie	1		244	18.0	2.5	/experiments/AOT/AOT_stimuli/rescaled_final/0096_fw.mp4	0.0	121.48039484024048	2.500145196914673
20	101.89994597434998	pulse	1	t		18.0	2.5	/experiments/AOT/AOT_stimuli/rescaled_final/0096_fw.mp4	0.0	122.26383090019226	
20	103.49838089942932	pulse	1	t		18.0	2.5	/experiments/AOT/AOT_stimuli/rescaled_final/0096_fw.mp4	0.0	123.8622658252716	
20	103.61665511131287	fix_post	2		12	18.0	2.5	/experiments/AOT/AOT_stimuli/rescaled_final/0096_fw.mp4	0.0	123.98054003715515	0.09983992576599121
21	103.71649503707886	fix_pre	0		120	19.0	2.5	/experiments/AOT/AOT_stimuli/rescaled_final/1956_fw.mp4	0.0	124.08037996292114	1.0000028610229492
21	104.7164978981018	movie	1		244	19.0	2.5	/experiments/AOT/AOT_stimuli/rescaled_final/1956_fw.mp4	0.0	125.08038282394409	2.5000851154327393
21	105.09970998764038	pulse	1	t		19.0	2.5	/experiments/AOT/AOT_stimuli/rescaled_final/1956_fw.mp4	0.0	125.46359491348267	
21	106.69999408721924	pulse	1	t		19.0	2.5	/experiments/AOT/AOT_stimuli/rescaled_final/1956_fw.mp4	0.0	127.06387901306152	
21	107.21658301353455	fix_post	2		12	19.0	2.5	/experiments/AOT/AOT_stimuli/rescaled_final/1956_fw.mp4	0.0	127.58046793937683	0.0999600887298584
22	107.3165431022644	fix_pre	0		119	20.0	2.5	/experiments/AOT/AOT_stimuli/rescaled_final/1779_fw.mp4	0.0	127.68042802810669	0.9915499687194824
22	108.30001711845398	pulse	0	t		20.0	2.5	/experiments/AOT/AOT_stimuli/rescaled_final/1779_fw.mp4	0.0	128.66390204429626	
22	108.30809307098389	movie	1		244	20.0	2.5	/experiments/AOT/AOT_stimuli/rescaled_final/1779_fw.mp4	0.0	128.67197799682617	2.508415937423706
22	109.89985799789429	pulse	1	t		20.0	2.5	/experiments/AOT/AOT_stimuli/rescaled_final/1779_fw.mp4	0.0	130.26374292373657	
22	110.81650900840759	fix_post	2		12	20.0	2.5	/experiments/AOT/AOT_stimuli/rescaled_final/1779_fw.mp4	0.0	131.18039393424988	0.09999489784240723
23	110.91650390625	fix_pre	0		120	21.0	2.5	blank	1.0	131.28038883209229	0.9999291896820068
23	111.49999499320984	pulse	0	t		21.0	2.5	blank	1.0	131.86387991905212	
23	111.916433095932	movie	1		300	21.0	2.5	blank	1.0	132.2803180217743	2.5000498294830322
23	113.09996891021729	pulse	1	t		21.0	2.5	blank	1.0	133.46385383605957	
23	114.41648292541504	fix_post	2		12	21.0	2.5	blank	1.0	134.78036785125732	0.09995317459106445
24	114.5164361000061	fix_pre	0		120	22.0	2.5	/experiments/AOT/AOT_stimuli/rescaled_final/2080_rv.mp4	0.0	134.8803210258484	1.0000638961791992
24	114.6999900341034	pulse	0	t		22.0	2.5	/experiments/AOT/AOT_stimuli/rescaled_final/2080_rv.mp4	0.0	135.06387495994568	
24	115.5164999961853	movie	1		243	22.0	2.5	/experiments/AOT/AOT_stimuli/rescaled_final/2080_rv.mp4	0.0	135.8803849220276	2.5000100135803223
24	116.30000400543213	pulse	1	t		22.0	2.5	/experiments/AOT/AOT_stimuli/rescaled_final/2080_rv.mp4	0.0	136.6638889312744	
24	117.89868688583374	pulse	1	t		22.0	2.5	/experiments/AOT/AOT_stimuli/rescaled_final/2080_rv.mp4	0.0	138.26257181167603	
24	118.01651000976562	fix_post	2		12	22.0	2.5	/experiments/AOT/AOT_stimuli/rescaled_final/2080_rv.mp4	0.0	138.3803949356079	0.09996294975280762
25	118.11647295951843	fix_pre	0		120	23.0	2.5	/experiments/AOT/AOT_stimuli/rescaled_final/0229_rv.mp4	0.0	138.48035788536072	0.9999699592590332
25	119.11644291877747	movie	1		245	23.0	2.5	/experiments/AOT/AOT_stimuli/rescaled_final/0229_rv.mp4	0.0	139.48032784461975	2.4999120235443115
25	119.499596118927	pulse	1	t		23.0	2.5	/experiments/AOT/AOT_stimuli/rescaled_final/0229_rv.mp4	0.0	139.8634810447693	
25	121.10006594657898	pulse	1	t		23.0	2.5	/experiments/AOT/AOT_stimuli/rescaled_final/0229_rv.mp4	0.0	141.46395087242126	
25	121.61635494232178	fix_post	2		12	23.0	2.5	/experiments/AOT/AOT_stimuli/rescaled_final/0229_rv.mp4	0.0	141.98023986816406	0.10007095336914062
26	121.71642589569092	fix_pre	0		119	24.0	2.5	/experiments/AOT/AOT_stimuli/rescaled_final/1962_rv.mp4	0.0	142.0803108215332	0.9916431903839111
26	122.69998002052307	pulse	0	t		24.0	2.5	/experiments/AOT/AOT_stimuli/rescaled_final/1962_rv.mp4	0.0	143.06386494636536	
26	122.70806908607483	movie	1		248	24.0	2.5	/experiments/AOT/AOT_stimuli/rescaled_final/1962_rv.mp4	0.0	143.07195401191711	2.508394956588745
26	124.2997829914093	pulse	1	t		24.0	2.5	/experiments/AOT/AOT_stimuli/rescaled_final/1962_rv.mp4	0.0	144.6636679172516	
26	125.21646404266357	fix_post	2		12	24.0	2.5	/experiments/AOT/AOT_stimuli/rescaled_final/1962_rv.mp4	0.0	145.58034896850586	0.09987497329711914
27	125.3163390159607	fix_pre	0		120	25.0	2.5	/experiments/AOT/AOT_stimuli/rescaled_final/0096_rv.mp4	0.0	145.68022394180298	1.000053882598877
27	125.90013694763184	pulse	0	t		25.0	2.5	/experiments/AOT/AOT_stimuli/rescaled_final/0096_rv.mp4	0.0	146.26402187347412	
27	126.31639289855957	movie	1		244	25.0	2.5	/experiments/AOT/AOT_stimuli/rescaled_final/0096_rv.mp4	0.0	146.68027782440186	2.500042200088501
27	127.49996304512024	pulse	1	t		25.0	2.5	/experiments/AOT/AOT_stimuli/rescaled_final/0096_rv.mp4	0.0	147.86384797096252	
27	128.81643509864807	fix_post	2		12	25.0	2.5	/experiments/AOT/AOT_stimuli/rescaled_final/0096_rv.mp4	0.0	149.18032002449036	0.1000208854675293
28	128.9164559841156	fix_pre	0		120	26.0	2.5	blank	1.0	149.28034090995789	0.9999539852142334
28	129.09996795654297	pulse	0	t		26.0	2.5	blank	1.0	149.46385288238525	
28	129.91640996932983	movie	1		300	26.0	2.5	blank	1.0	150.28029489517212	2.499962091445923
28	130.69990992546082	pulse	1	t		26.0	2.5	blank	1.0	151.0637948513031	
28	132.29991507530212	pulse	1	t		26.0	2.5	blank	1.0	152.6638000011444	
28	132.41637206077576	fix_post	2		12	26.0	2.5	blank	1.0	152.78025698661804	0.1000359058380127
29	132.51640796661377	fix_pre	0		120	27.0	2.5	/experiments/AOT/AOT_stimuli/rescaled_final/0453_rv.mp4	0.0	152.88029289245605	1.0000040531158447
29	133.51641201972961	movie	1		244	27.0	2.5	/experiments/AOT/AOT_stimuli/rescaled_final/0453_rv.mp4	0.0	153.8802969455719	2.4999020099639893
29	133.8993489742279	pulse	1	t		27.0	2.5	/experiments/AOT/AOT_stimuli/rescaled_final/0453_rv.mp4	0.0	154.2632339000702	
29	135.49986505508423	pulse	1	t		27.0	2.5	/experiments/AOT/AOT_stimuli/rescaled_final/0453_rv.mp4	0.0	155.8637499809265	
29	136.0163140296936	fix_post	2		12	27.0	2.5	/experiments/AOT/AOT_stimuli/rescaled_final/0453_rv.mp4	0.0	156.3801989555359	0.10005998611450195
30	136.1163740158081	fix_pre	0		119	28.0	2.5	/experiments/AOT/AOT_stimuli/rescaled_final/0742_fw.mp4	0.0	156.4802589416504	0.99167799949646
30	137.10001397132874	pulse	0	t		28.0	2.5	/experiments/AOT/AOT_stimuli/rescaled_final/0742_fw.mp4	0.0	157.46389889717102	
30	137.10805201530457	movie	1		243	28.0	2.5	/experiments/AOT/AOT_stimuli/rescaled_final/0742_fw.mp4	0.0	157.47193694114685	2.508275032043457
30	138.69950008392334	pulse	1	t		28.0	2.5	/experiments/AOT/AOT_stimuli/rescaled_final/0742_fw.mp4	0.0	159.06338500976562	
30	139.61632704734802	fix_post	2		12	28.0	2.5	/experiments/AOT/AOT_stimuli/rescaled_final/0742_fw.mp4	0.0	159.9802119731903	0.10001087188720703
31	139.71633791923523	fix_pre	0		120	29.0	2.5	/experiments/AOT/AOT_stimuli/rescaled_final/1199_fw.mp4	0.0	160.08022284507751	1.0001120567321777
31	140.29984092712402	pulse	0	t		29.0	2.5	/experiments/AOT/AOT_stimuli/rescaled_final/1199_fw.mp4	0.0	160.6637258529663	
31	140.7164499759674	movie	1		244	29.0	2.5	/experiments/AOT/AOT_stimuli/rescaled_final/1199_fw.mp4	0.0	161.0803349018097	2.4998440742492676
31	141.89987707138062	pulse	1	t		29.0	2.5	/experiments/AOT/AOT_stimuli/rescaled_final/1199_fw.mp4	0.0	162.2637619972229	
31	143.21629405021667	fix_post	2		12	29.0	2.5	/experiments/AOT/AOT_stimuli/rescaled_final/1199_fw.mp4	0.0	163.58017897605896	0.1000218391418457
32	143.31631588935852	fix_pre	0		120	30.0	2.5	/experiments/AOT/AOT_stimuli/rescaled_final/0121_rv.mp4	0.0	163.6802008152008	0.9996321201324463
32	143.49985003471375	pulse	0	t		30.0	2.5	/experiments/AOT/AOT_stimuli/rescaled_final/0121_rv.mp4	0.0	163.86373496055603	
32	144.31594800949097	movie	1		244	30.0	2.5	/experiments/AOT/AOT_stimuli/rescaled_final/0121_rv.mp4	0.0	164.67983293533325	2.5002779960632324
32	145.09951996803284	pulse	1	t		30.0	2.5	/experiments/AOT/AOT_stimuli/rescaled_final/0121_rv.mp4	0.0	165.46340489387512	
32	146.69866490364075	pulse	1	t		30.0	2.5	/experiments/AOT/AOT_stimuli/rescaled_final/0121_rv.mp4	0.0	167.06254982948303	
32	146.8162260055542	fix_post	2		12	30.0	2.5	/experiments/AOT/AOT_stimuli/rescaled_final/0121_rv.mp4	0.0	167.18011093139648	0.10039210319519043
33	146.9166181087494	fix_pre	0		120	31.0	2.5	/experiments/AOT/AOT_stimuli/rescaled_final/1056_fw.mp4	0.0	167.28050303459167	0.9997220039367676
33	147.91634011268616	movie	1		245	31.0	2.5	/experiments/AOT/AOT_stimuli/rescaled_final/1056_fw.mp4	0.0	168.28022503852844	2.5000009536743164
33	148.29945611953735	pulse	1	t		31.0	2.5	/experiments/AOT/AOT_stimuli/rescaled_final/1056_fw.mp4	0.0	168.66334104537964	
33	149.89973998069763	pulse	1	t		31.0	2.5	/experiments/AOT/AOT_stimuli/rescaled_final/1056_fw.mp4	0.0	170.26362490653992	
33	150.41634106636047	fix_post	2		12	31.0	2.5	/experiments/AOT/AOT_stimuli/rescaled_final/1056_fw.mp4	0.0	170.78022599220276	0.09992289543151855
34	150.516263961792	fix_pre	0		119	32.0	2.5	/experiments/AOT/AOT_stimuli/rescaled_final/1529_fw.mp4	0.0	170.88014888763428	0.9917240142822266
34	151.4998071193695	pulse	0	t		32.0	2.5	/experiments/AOT/AOT_stimuli/rescaled_final/1529_fw.mp4	0.0	171.8636920452118	
34	151.50798797607422	movie	1		244	32.0	2.5	/experiments/AOT/AOT_stimuli/rescaled_final/1529_fw.mp4	0.0	171.8718729019165	2.508357048034668
34	153.09956908226013	pulse	1	t		32.0	2.5	/experiments/AOT/AOT_stimuli/rescaled_final/1529_fw.mp4	0.0	173.46345400810242	
34	154.0163450241089	fix_post	2		12	32.0	2.5	/experiments/AOT/AOT_stimuli/rescaled_final/1529_fw.mp4	0.0	174.38022994995117	0.09995889663696289
35	154.11630392074585	fix_pre	0		120	33.0	2.5	/experiments/AOT/AOT_stimuli/rescaled_final/1912_rv.mp4	0.0	174.48018884658813	0.9999580383300781
35	154.69984412193298	pulse	0	t		33.0	2.5	/experiments/AOT/AOT_stimuli/rescaled_final/1912_rv.mp4	0.0	175.06372904777527	
35	155.11626195907593	movie	1		246	33.0	2.5	/experiments/AOT/AOT_stimuli/rescaled_final/1912_rv.mp4	0.0	175.4801468849182	2.4999959468841553
35	156.29978203773499	pulse	1	t		33.0	2.5	/experiments/AOT/AOT_stimuli/rescaled_final/1912_rv.mp4	0.0	176.66366696357727	
35	157.61625790596008	fix_post	2		12	33.0	2.5	/experiments/AOT/AOT_stimuli/rescaled_final/1912_rv.mp4	0.0	177.98014283180237	0.1000361442565918
36	157.71629405021667	fix_pre	0		120	34.0	2.5	blank	1.0	178.08017897605896	0.9999818801879883
36	157.89981603622437	pulse	0	t		34.0	2.5	blank	1.0	178.26370096206665	
36	158.71627593040466	movie	1		300	34.0	2.5	blank	1.0	179.08016085624695	2.499946117401123
36	159.49970388412476	pulse	1	t		34.0	2.5	blank	1.0	179.86358880996704	
36	161.09971690177917	pulse	1	t		34.0	2.5	blank	1.0	181.46360182762146	
36	161.2162220478058	fix_post	2		12	34.0	2.5	blank	1.0	181.58010697364807	0.10001587867736816
37	161.31623792648315	fix_pre	0		120	35.0	2.5	/experiments/AOT/AOT_stimuli/rescaled_final/1184_fw.mp4	0.0	181.68012285232544	0.9999120235443115
37	162.31614995002747	movie	1		246	35.0	2.5	/experiments/AOT/AOT_stimuli/rescaled_final/1184_fw.mp4	0.0	182.68003487586975	2.5000410079956055
37	162.69936108589172	pulse	1	t		35.0	2.5	/experiments/AOT/AOT_stimuli/rescaled_final/1184_fw.mp4	0.0	183.063246011734	
37	164.2997019290924	pulse	1	t		35.0	2.5	/experiments/AOT/AOT_stimuli/rescaled_final/1184_fw.mp4	0.0	184.6635868549347	
37	164.81619095802307	fix_post	2		12	35.0	2.5	/experiments/AOT/AOT_stimuli/rescaled_final/1184_fw.mp4	0.0	185.18007588386536	0.09997701644897461
38	164.91616797447205	fix_pre	0		119	36.0	2.5	/experiments/AOT/AOT_stimuli/rescaled_final/1679_fw.mp4	0.0	185.28005290031433	0.991657018661499
38	165.89976406097412	pulse	0	t		36.0	2.5	/experiments/AOT/AOT_stimuli/rescaled_final/1679_fw.mp4	0.0	186.2636489868164	
38	165.90782499313354	movie	1		244	36.0	2.5	/experiments/AOT/AOT_stimuli/rescaled_final/1679_fw.mp4	0.0	186.27170991897583	2.50844407081604
38	167.49973893165588	pulse	1	t		36.0	2.5	/experiments/AOT/AOT_stimuli/rescaled_final/1679_fw.mp4	0.0	187.86362385749817	
38	168.41626906394958	fix_post	2		12	36.0	2.5	/experiments/AOT/AOT_stimuli/rescaled_final/1679_fw.mp4	0.0	188.78015398979187	0.09990191459655762
39	168.51617097854614	fix_pre	0		120	37.0	2.5	/experiments/AOT/AOT_stimuli/rescaled_final/1825_fw.mp4	0.0	188.88005590438843	1.0000240802764893
39	169.09974598884583	pulse	0	t		37.0	2.5	/experiments/AOT/AOT_stimuli/rescaled_final/1825_fw.mp4	0.0	189.4636309146881	
39	169.51619505882263	movie	1		244	37.0	2.5	/experiments/AOT/AOT_stimuli/rescaled_final/1825_fw.mp4	0.0	189.88007998466492	2.4999818801879883
39	170.6997950077057	pulse	1	t		37.0	2.5	/experiments/AOT/AOT_stimuli/rescaled_final/1825_fw.mp4	0.0	191.06367993354797	
39	172.01617693901062	fix_post	2		12	37.0	2.5	/experiments/AOT/AOT_stimuli/rescaled_final/1825_fw.mp4	0.0	192.3800618648529	0.1000521183013916
40	172.116229057312	fix_pre	0		120	38.0	2.5	/experiments/AOT/AOT_stimuli/rescaled_final/0310_rv.mp4	0.0	192.4801139831543	0.9998989105224609
40	172.29974102973938	pulse	0	t		38.0	2.5	/experiments/AOT/AOT_stimuli/rescaled_final/0310_rv.mp4	0.0	192.66362595558167	
40	173.11612796783447	movie	1		245	38.0	2.5	/experiments/AOT/AOT_stimuli/rescaled_final/0310_rv.mp4	0.0	193.48001289367676	2.5000181198120117
40	173.89974808692932	pulse	1	t		38.0	2.5	/experiments/AOT/AOT_stimuli/rescaled_final/0310_rv.mp4	0.0	194.2636330127716	
40	175.4982089996338	pulse	1	t		38.0	2.5	/experiments/AOT/AOT_stimuli/rescaled_final/0310_rv.mp4	0.0	195.86209392547607	
40	175.61614608764648	fix_post	2		12	38.0	2.5	/experiments/AOT/AOT_stimuli/rescaled_final/0310_rv.mp4	0.0	195.98003101348877	0.10002779960632324
41	175.7161738872528	fix_pre	0		120	39.0	2.5	/experiments/AOT/AOT_stimuli/rescaled_final/0460_rv.mp4	0.0	196.0800588130951	0.9999861717224121
41	176.71616005897522	movie	1		243	39.0	2.5	/experiments/AOT/AOT_stimuli/rescaled_final/0460_rv.mp4	0.0	197.0800449848175	2.499976873397827
41	177.0994529724121	pulse	1	t		39.0	2.5	/experiments/AOT/AOT_stimuli/rescaled_final/0460_rv.mp4	0.0	197.4633378982544	
41	178.6997320652008	pulse	1	t		39.0	2.5	/experiments/AOT/AOT_stimuli/rescaled_final/0460_rv.mp4	0.0	199.0636169910431	
41	179.21613693237305	fix_post	2		12	39.0	2.5	/experiments/AOT/AOT_stimuli/rescaled_final/0460_rv.mp4	0.0	199.58002185821533	0.10007095336914062
42	179.3162078857422	fix_pre	0		119	40.0	2.5	/experiments/AOT/AOT_stimuli/rescaled_final/1704_rv.mp4	0.0	199.68009281158447	0.9917042255401611
42	180.29963207244873	pulse	0	t		40.0	2.5	/experiments/AOT/AOT_stimuli/rescaled_final/1704_rv.mp4	0.0	200.66351699829102	
42	180.30791211128235	movie	1		243	40.0	2.5	/experiments/AOT/AOT_stimuli/rescaled_final/1704_rv.mp4	0.0	200.67179703712463	2.508293867111206
42	181.89929103851318	pulse	1	t		40.0	2.5	/experiments/AOT/AOT_stimuli/rescaled_final/1704_rv.mp4	0.0	202.26317596435547	
42	182.81620597839355	fix_post	2		12	40.0	2.5	/experiments/AOT/AOT_stimuli/rescaled_final/1704_rv.mp4	0.0	203.18009090423584	0.1000070571899414
43	182.9162130355835	fix_pre	0		120	41.0	2.5	/experiments/AOT/AOT_stimuli/rescaled_final/1940_rv.mp4	0.0	203.28009796142578	0.9999430179595947
43	183.4996280670166	pulse	0	t		41.0	2.5	/experiments/AOT/AOT_stimuli/rescaled_final/1940_rv.mp4	0.0	203.8635129928589	
43	183.9161560535431	movie	1		243	41.0	2.5	/experiments/AOT/AOT_stimuli/rescaled_final/1940_rv.mp4	0.0	204.28004097938538	2.500025987625122
43	185.09977507591248	pulse	1	t		41.0	2.5	/experiments/AOT/AOT_stimuli/rescaled_final/1940_rv.mp4	0.0	205.46366000175476	
43	186.4161820411682	fix_post	2		12	41.0	2.5	/experiments/AOT/AOT_stimuli/rescaled_final/1940_rv.mp4	0.0	206.7800669670105	0.09993290901184082
44	186.51611495018005	fix_pre	0		120	42.0	2.5	blank	1.0	206.87999987602234	1.0000431537628174
44	186.6996729373932	pulse	0	t		42.0	2.5	blank	1.0	207.06355786323547	
44	187.51615810394287	movie	1		300	42.0	2.5	blank	1.0	207.88004302978516	2.499957799911499
44	188.29961395263672	pulse	1	t		42.0	2.5	blank	1.0	208.663498878479	
44	189.89961791038513	pulse	1	t		42.0	2.5	blank	1.0	210.26350283622742	
44	190.01611590385437	fix_post	2		12	42.0	2.5	blank	1.0	210.38000082969666	0.09998917579650879
45	190.11610507965088	fix_pre	0		120	43.0	2.5	/experiments/AOT/AOT_stimuli/rescaled_final/1733_rv.mp4	0.0	210.47999000549316	0.9999759197235107
45	191.1160809993744	movie	1		243	43.0	2.5	/experiments/AOT/AOT_stimuli/rescaled_final/1733_rv.mp4	0.0	211.47996592521667	2.4999659061431885
45	191.49970698356628	pulse	1	t		43.0	2.5	/experiments/AOT/AOT_stimuli/rescaled_final/1733_rv.mp4	0.0	211.86359190940857	
45	193.09958505630493	pulse	1	t		43.0	2.5	/experiments/AOT/AOT_stimuli/rescaled_final/1733_rv.mp4	0.0	213.46346998214722	
45	193.61604690551758	fix_post	2		12	43.0	2.5	/experiments/AOT/AOT_stimuli/rescaled_final/1733_rv.mp4	0.0	213.97993183135986	0.10002398490905762
46	193.71607089042664	fix_pre	0		119	44.0	2.5	/experiments/AOT/AOT_stimuli/rescaled_final/1471_rv.mp4	0.0	214.07995581626892	0.991645097732544
46	194.69955110549927	pulse	0	t		44.0	2.5	/experiments/AOT/AOT_stimuli/rescaled_final/1471_rv.mp4	0.0	215.06343603134155	
46	194.70771598815918	movie	1		244	44.0	2.5	/experiments/AOT/AOT_stimuli/rescaled_final/1471_rv.mp4	0.0	215.07160091400146	2.5082709789276123
46	196.30069208145142	pulse	1	t		44.0	2.5	/experiments/AOT/AOT_stimuli/rescaled_final/1471_rv.mp4	0.0	216.6645770072937	
46	197.2159869670868	fix_post	2		12	44.0	2.5	/experiments/AOT/AOT_stimuli/rescaled_final/1471_rv.mp4	0.0	217.57987189292908	0.10005402565002441
47	197.31604099273682	fix_pre	0		120	45.0	2.5	/experiments/AOT/AOT_stimuli/rescaled_final/1319_rv.mp4	0.0	217.6799259185791	1.0000419616699219
47	197.8995931148529	pulse	0	t		45.0	2.5	/experiments/AOT/AOT_stimuli/rescaled_final/1319_rv.mp4	0.0	218.2634780406952	
47	198.31608295440674	movie	1		247	45.0	2.5	/experiments/AOT/AOT_stimuli/rescaled_final/1319_rv.mp4	0.0	218.67996788024902	2.5000650882720947
47	199.4991500377655	pulse	1	t		45.0	2.5	/experiments/AOT/AOT_stimuli/rescaled_final/1319_rv.mp4	0.0	219.8630349636078	
47	200.81614804267883	fix_post	2		12	45.0	2.5	/experiments/AOT/AOT_stimuli/rescaled_final/1319_rv.mp4	0.0	221.18003296852112	0.09956192970275879
48	200.9157099723816	fix_pre	0		120	46.0	2.5	/experiments/AOT/AOT_stimuli/rescaled_final/1071_rv.mp4	0.0	221.27959489822388	1.0005099773406982
48	201.09967803955078	pulse	0	t		46.0	2.5	/experiments/AOT/AOT_stimuli/rescaled_final/1071_rv.mp4	0.0	221.46356296539307	
48	201.9162199497223	movie	1		242	46.0	2.5	/experiments/AOT/AOT_stimuli/rescaled_final/1071_rv.mp4	0.0	222.28010487556458	2.4997670650482178
48	202.69941902160645	pulse	1	t		46.0	2.5	/experiments/AOT/AOT_stimuli/rescaled_final/1071_rv.mp4	0.0	223.06330394744873	
48	204.29785990715027	pulse	1	t		46.0	2.5	/experiments/AOT/AOT_stimuli/rescaled_final/1071_rv.mp4	0.0	224.66174483299255	
48	204.4159870147705	fix_post	2		12	46.0	2.5	/experiments/AOT/AOT_stimuli/rescaled_final/1071_rv.mp4	0.0	224.7798719406128	0.1000370979309082
49	204.51602411270142	fix_pre	0		120	47.0	2.5	/experiments/AOT/AOT_stimuli/rescaled_final/0829_rv.mp4	0.0	224.8799090385437	0.99993896484375
49	205.51596307754517	movie	1		243	47.0	2.5	/experiments/AOT/AOT_stimuli/rescaled_final/0829_rv.mp4	0.0	225.87984800338745	2.50003981590271
49	205.89893698692322	pulse	1	t		47.0	2.5	/experiments/AOT/AOT_stimuli/rescaled_final/0829_rv.mp4	0.0	226.2628219127655	
49	207.49940609931946	pulse	1	t		47.0	2.5	/experiments/AOT/AOT_stimuli/rescaled_final/0829_rv.mp4	0.0	227.86329102516174	
49	208.01600289344788	fix_post	2		12	47.0	2.5	/experiments/AOT/AOT_stimuli/rescaled_final/0829_rv.mp4	0.0	228.37988781929016	0.09995412826538086
50	208.11595702171326	fix_pre	0		119	48.0	2.5	/experiments/AOT/AOT_stimuli/rescaled_final/1248_fw.mp4	0.0	228.47984194755554	0.9916739463806152
50	209.09948706626892	pulse	0	t		48.0	2.5	/experiments/AOT/AOT_stimuli/rescaled_final/1248_fw.mp4	0.0	229.4633719921112	
50	209.10763096809387	movie	1		245	48.0	2.5	/experiments/AOT/AOT_stimuli/rescaled_final/1248_fw.mp4	0.0	229.47151589393616	2.5083770751953125
50	210.70057702064514	pulse	1	t		48.0	2.5	/experiments/AOT/AOT_stimuli/rescaled_final/1248_fw.mp4	0.0	231.06446194648743	
50	211.61600804328918	fix_post	2		12	48.0	2.5	/experiments/AOT/AOT_stimuli/rescaled_final/1248_fw.mp4	0.0	231.97989296913147	0.09997105598449707
51	211.71597909927368	fix_pre	0		120	49.0	2.5	blank	1.0	232.07986402511597	0.9999837875366211
51	212.2994110584259	pulse	0	t		49.0	2.5	blank	1.0	232.6632959842682	
51	212.7159628868103	movie	1		300	49.0	2.5	blank	1.0	233.0798478126526	2.500002145767212
51	213.8993649482727	pulse	1	t		49.0	2.5	blank	1.0	234.263249874115	
51	215.21596503257751	fix_post	2		12	49.0	2.5	blank	1.0	235.5798499584198	0.09998607635498047
52	215.3159511089325	fix_pre	0		120	50.0	2.5	/experiments/AOT/AOT_stimuli/rescaled_final/1042_fw.mp4	0.0	235.67983603477478	0.9999799728393555
52	215.49944806098938	pulse	0	t		50.0	2.5	/experiments/AOT/AOT_stimuli/rescaled_final/1042_fw.mp4	0.0	235.86333298683167	
52	216.31593108177185	movie	1		245	50.0	2.5	/experiments/AOT/AOT_stimuli/rescaled_final/1042_fw.mp4	0.0	236.67981600761414	2.500640869140625
52	217.0994210243225	pulse	1	t		50.0	2.5	/experiments/AOT/AOT_stimuli/rescaled_final/1042_fw.mp4	0.0	237.4633059501648	
52	218.6979169845581	pulse	1	t		50.0	2.5	/experiments/AOT/AOT_stimuli/rescaled_final/1042_fw.mp4	0.0	239.0618019104004	
52	218.81657195091248	fix_post	2		12	50.0	2.5	/experiments/AOT/AOT_stimuli/rescaled_final/1042_fw.mp4	0.0	239.18045687675476	0.09933710098266602
53	218.91590905189514	fix_pre	0		120	51.0	2.5	/experiments/AOT/AOT_stimuli/rescaled_final/0890_fw.mp4	0.0	239.27979397773743	1.000011920928955
53	219.9159209728241	movie	1		244	51.0	2.5	/experiments/AOT/AOT_stimuli/rescaled_final/0890_fw.mp4	0.0	240.27980589866638	2.5000030994415283
53	220.3002700805664	pulse	1	t		51.0	2.5	/experiments/AOT/AOT_stimuli/rescaled_final/0890_fw.mp4	0.0	240.6641550064087	
53	221.89943099021912	pulse	1	t		51.0	2.5	/experiments/AOT/AOT_stimuli/rescaled_final/0890_fw.mp4	0.0	242.2633159160614	
53	222.41592407226562	fix_post	2		12	51.0	2.5	/experiments/AOT/AOT_stimuli/rescaled_final/0890_fw.mp4	0.0	242.7798089981079	0.09997892379760742
54	222.51590299606323	fix_pre	0		119	52.0	2.5	/experiments/AOT/AOT_stimuli/rescaled_final/0013_rv.mp4	0.0	242.87978792190552	0.9916269779205322
54	223.49942803382874	pulse	0	t		52.0	2.5	/experiments/AOT/AOT_stimuli/rescaled_final/0013_rv.mp4	0.0	243.86331295967102	
54	223.50752997398376	movie	1		245	52.0	2.5	/experiments/AOT/AOT_stimuli/rescaled_final/0013_rv.mp4	0.0	243.87141489982605	2.5084469318389893
54	225.09899806976318	pulse	1	t		52.0	2.5	/experiments/AOT/AOT_stimuli/rescaled_final/0013_rv.mp4	0.0	245.46288299560547	
54	226.01597690582275	fix_post	2		12	52.0	2.5	/experiments/AOT/AOT_stimuli/rescaled_final/0013_rv.mp4	0.0	246.37986183166504	0.09997701644897461
55	226.11595392227173	fix_pre	0		120	53.0	2.5	/experiments/AOT/AOT_stimuli/rescaled_final/0059_rv.mp4	0.0	246.479838848114	0.9999661445617676
55	226.69938397407532	pulse	0	t		53.0	2.5	/experiments/AOT/AOT_stimuli/rescaled_final/0059_rv.mp4	0.0	247.0632688999176	
55	227.1159200668335	movie	1		243	53.0	2.5	/experiments/AOT/AOT_stimuli/rescaled_final/0059_rv.mp4	0.0	247.47980499267578	2.499976873397827
55	228.29936695098877	pulse	1	t		53.0	2.5	/experiments/AOT/AOT_stimuli/rescaled_final/0059_rv.mp4	0.0	248.66325187683105	
55	229.61589694023132	fix_post	2		12	53.0	2.5	/experiments/AOT/AOT_stimuli/rescaled_final/0059_rv.mp4	0.0	249.9797818660736	0.0999610424041748
56	229.7158579826355	fix_pre	0		120	54.0	2.5	blank	1.0	250.07974290847778	1.0000369548797607
56	229.89942002296448	pulse	0	t		54.0	2.5	blank	1.0	250.26330494880676	
56	230.71589493751526	movie	1		300	54.0	2.5	blank	1.0	251.07977986335754	2.5000030994415283
56	231.49937200546265	pulse	1	t		54.0	2.5	blank	1.0	251.86325693130493	
56	233.09934091567993	pulse	1	t		54.0	2.5	blank	1.0	253.46322584152222	
56	233.2158980369568	fix_post	2		12	54.0	2.5	blank	1.0	253.57978296279907	0.09990406036376953
57	233.31580209732056	fix_pre	0		120	55.0	2.5	/experiments/AOT/AOT_stimuli/rescaled_final/1094_rv.mp4	0.0	253.67968702316284	1.0001208782196045
57	234.31592297554016	movie	1		244	55.0	2.5	/experiments/AOT/AOT_stimuli/rescaled_final/1094_rv.mp4	0.0	254.67980790138245	2.5000059604644775
57	234.69924998283386	pulse	1	t		55.0	2.5	/experiments/AOT/AOT_stimuli/rescaled_final/1094_rv.mp4	0.0	255.06313490867615	
57	236.29935908317566	pulse	1	t		55.0	2.5	/experiments/AOT/AOT_stimuli/rescaled_final/1094_rv.mp4	0.0	256.66324400901794	
57	236.81592893600464	fix_post	2		12	55.0	2.5	/experiments/AOT/AOT_stimuli/rescaled_final/1094_rv.mp4	0.0	257.1798138618469	0.09998703002929688
58	236.91591596603394	fix_pre	0		119	56.0	2.5	/experiments/AOT/AOT_stimuli/rescaled_final/0102_fw.mp4	0.0	257.2798008918762	0.9916150569915771
58	237.89933109283447	pulse	0	t		56.0	2.5	/experiments/AOT/AOT_stimuli/rescaled_final/0102_fw.mp4	0.0	258.26321601867676	
58	237.9075310230255	movie	1		246	56.0	2.5	/experiments/AOT/AOT_stimuli/rescaled_final/0102_fw.mp4	0.0	258.2714159488678	2.5083160400390625
58	239.49924111366272	pulse	1	t		56.0	2.5	/experiments/AOT/AOT_stimuli/rescaled_final/0102_fw.mp4	0.0	259.863126039505	
58	240.41584706306458	fix_post	2		12	56.0	2.5	/experiments/AOT/AOT_stimuli/rescaled_final/0102_fw.mp4	0.0	260.77973198890686	0.09999990463256836
59	240.51584696769714	fix_pre	0		120	57.0	2.5	/experiments/AOT/AOT_stimuli/rescaled_final/1156_fw.mp4	0.0	260.87973189353943	1.0000519752502441
59	241.09931707382202	pulse	0	t		57.0	2.5	/experiments/AOT/AOT_stimuli/rescaled_final/1156_fw.mp4	0.0	261.4632019996643	
59	241.5158989429474	movie	1		244	57.0	2.5	/experiments/AOT/AOT_stimuli/rescaled_final/1156_fw.mp4	0.0	261.8797838687897	2.499974012374878
59	242.69951701164246	pulse	1	t		57.0	2.5	/experiments/AOT/AOT_stimuli/rescaled_final/1156_fw.mp4	0.0	263.06340193748474	
59	244.01587295532227	fix_post	2		12	57.0	2.5	/experiments/AOT/AOT_stimuli/rescaled_final/1156_fw.mp4	0.0	264.37975788116455	0.09999394416809082
60	244.11586689949036	fix_pre	0		120	58.0	2.5	/experiments/AOT/AOT_stimuli/rescaled_final/0294_fw.mp4	0.0	264.47975182533264	1.0000081062316895
60	244.2993369102478	pulse	0	t		58.0	2.5	/experiments/AOT/AOT_stimuli/rescaled_final/0294_fw.mp4	0.0	264.6632218360901	
60	245.11587500572205	movie	1		244	58.0	2.5	/experiments/AOT/AOT_stimuli/rescaled_final/0294_fw.mp4	0.0	265.47975993156433	2.499933958053589
60	245.89932894706726	pulse	1	t		58.0	2.5	/experiments/AOT/AOT_stimuli/rescaled_final/0294_fw.mp4	0.0	266.26321387290955	
60	247.49791502952576	pulse	1	t		58.0	2.5	/experiments/AOT/AOT_stimuli/rescaled_final/0294_fw.mp4	0.0	267.86179995536804	
60	247.61580896377563	fix_post	2		12	58.0	2.5	/experiments/AOT/AOT_stimuli/rescaled_final/0294_fw.mp4	0.0	267.9796938896179	0.09999608993530273
61	247.71580505371094	fix_pre	0		120	59.0	2.5	/experiments/AOT/AOT_stimuli/rescaled_final/1891_rv.mp4	0.0	268.0796899795532	1.0000019073486328
61	248.71580696105957	movie	1		243	59.0	2.5	/experiments/AOT/AOT_stimuli/rescaled_final/1891_rv.mp4	0.0	269.07969188690186	2.4999821186065674
61	249.10031509399414	pulse	1	t		59.0	2.5	/experiments/AOT/AOT_stimuli/rescaled_final/1891_rv.mp4	0.0	269.4642000198364	
61	250.69935488700867	pulse	1	t		59.0	2.5	/experiments/AOT/AOT_stimuli/rescaled_final/1891_rv.mp4	0.0	271.06323981285095	
61	251.21578907966614	fix_post	2		12	59.0	2.5	/experiments/AOT/AOT_stimuli/rescaled_final/1891_rv.mp4	0.0	271.5796740055084	0.10003781318664551
62	251.31582689285278	fix_pre	0		119	60.0	2.5	/experiments/AOT/AOT_stimuli/rescaled_final/0059_rv.mp4	0.0	271.67971181869507	0.9915721416473389
62	252.29919290542603	pulse	0	t		60.0	2.5	/experiments/AOT/AOT_stimuli/rescaled_final/0059_rv.mp4	0.0	272.6630778312683	
62	252.30739903450012	movie	1		243	60.0	2.5	/experiments/AOT/AOT_stimuli/rescaled_final/0059_rv.mp4	0.0	272.6712839603424	2.5083999633789062
62	253.89887309074402	pulse	1	t		60.0	2.5	/experiments/AOT/AOT_stimuli/rescaled_final/0059_rv.mp4	0.0	274.2627580165863	
62	254.81579899787903	fix_post	2		12	60.0	2.5	/experiments/AOT/AOT_stimuli/rescaled_final/0059_rv.mp4	0.0	275.1796839237213	0.09999608993530273
63	254.91579508781433	fix_pre	0		120	61.0	2.5	/experiments/AOT/AOT_stimuli/rescaled_final/2014_fw.mp4	0.0	275.2796800136566	0.999521017074585
63	255.4988570213318	pulse	0	t		61.0	2.5	/experiments/AOT/AOT_stimuli/rescaled_final/2014_fw.mp4	0.0	275.8627419471741	
63	255.91531610488892	movie	1		247	61.0	2.5	/experiments/AOT/AOT_stimuli/rescaled_final/2014_fw.mp4	0.0	276.2792010307312	2.5003559589385986
63	257.0989279747009	pulse	1	t		61.0	2.5	/experiments/AOT/AOT_stimuli/rescaled_final/2014_fw.mp4	0.0	277.4628129005432	
63	258.4156720638275	fix_post	2		12	61.0	2.5	/experiments/AOT/AOT_stimuli/rescaled_final/2014_fw.mp4	0.0	278.7795569896698	0.10037899017333984
64	258.51605105400085	fix_pre	0		120	62.0	2.5	blank	1.0	278.87993597984314	0.9997649192810059
64	258.69929003715515	pulse	0	t		62.0	2.5	blank	1.0	279.06317496299744	
64	259.51581597328186	movie	1		300	62.0	2.5	blank	1.0	279.87970089912415	2.4998860359191895
64	260.29923701286316	pulse	1	t		62.0	2.5	blank	1.0	280.66312193870544	
64	261.8993000984192	pulse	1	t		62.0	2.5	blank	1.0	282.2631850242615	
64	262.01570200920105	fix_post	2		12	62.0	2.5	blank	1.0	282.37958693504333	0.1000831127166748
65	262.1157851219177	fix_pre	0		120	63.0	2.5	/experiments/AOT/AOT_stimuli/rescaled_final/0191_fw.mp4	0.0	282.47967004776	1.000004768371582
65	263.1157898902893	movie	1		245	63.0	2.5	/experiments/AOT/AOT_stimuli/rescaled_final/0191_fw.mp4	0.0	283.4796748161316	2.5000200271606445
65	263.49884390830994	pulse	1	t		63.0	2.5	/experiments/AOT/AOT_stimuli/rescaled_final/0191_fw.mp4	0.0	283.8627288341522	
65	265.09916710853577	pulse	1	t		63.0	2.5	/experiments/AOT/AOT_stimuli/rescaled_final/0191_fw.mp4	0.0	285.46305203437805	
65	265.61580991744995	fix_post	2		12	63.0	2.5	/experiments/AOT/AOT_stimuli/rescaled_final/0191_fw.mp4	0.0	285.97969484329224	0.09984016418457031
66	265.7156500816345	fix_pre	0		119	64.0	2.5	/experiments/AOT/AOT_stimuli/rescaled_final/1608_rv.mp4	0.0	286.0795350074768	0.9917218685150146
66	266.6991329193115	pulse	0	t		64.0	2.5	/experiments/AOT/AOT_stimuli/rescaled_final/1608_rv.mp4	0.0	287.0630178451538	
66	266.70737195014954	movie	1		245	64.0	2.5	/experiments/AOT/AOT_stimuli/rescaled_final/1608_rv.mp4	0.0	287.0712568759918	2.50833797454834
66	268.29911708831787	pulse	1	t		64.0	2.5	/experiments/AOT/AOT_stimuli/rescaled_final/1608_rv.mp4	0.0	288.66300201416016	
66	269.2157099246979	fix_post	2		12	64.0	2.5	/experiments/AOT/AOT_stimuli/rescaled_final/1608_rv.mp4	0.0	289.57959485054016	0.10004615783691406
67	269.3157560825348	fix_pre	0		120	65.0	2.5	/experiments/AOT/AOT_stimuli/rescaled_final/0730_rv.mp4	0.0	289.6796410083771	0.999985933303833
67	269.8991448879242	pulse	0	t		65.0	2.5	/experiments/AOT/AOT_stimuli/rescaled_final/0730_rv.mp4	0.0	290.2630298137665	
67	270.3157420158386	movie	1		243	65.0	2.5	/experiments/AOT/AOT_stimuli/rescaled_final/0730_rv.mp4	0.0	290.6796269416809	2.5000159740448
67	271.4993190765381	pulse	1	t		65.0	2.5	/experiments/AOT/AOT_stimuli/rescaled_final/0730_rv.mp4	0.0	291.86320400238037	
67	272.8157579898834	fix_post	2		12	65.0	2.5	/experiments/AOT/AOT_stimuli/rescaled_final/0730_rv.mp4	0.0	293.1796429157257	0.09993195533752441
68	272.91568994522095	fix_pre	0		120	66.0	2.5	/experiments/AOT/AOT_stimuli/rescaled_final/0718_rv.mp4	0.0	293.27957487106323	0.9999980926513672
68	273.09918189048767	pulse	0	t		66.0	2.5	/experiments/AOT/AOT_stimuli/rescaled_final/0718_rv.mp4	0.0	293.46306681632996	
68	273.9156880378723	movie	1		242	66.0	2.5	/experiments/AOT/AOT_stimuli/rescaled_final/0718_rv.mp4	0.0	294.2795729637146	2.5000178813934326
68	274.6991140842438	pulse	1	t		66.0	2.5	/experiments/AOT/AOT_stimuli/rescaled_final/0718_rv.mp4	0.0	295.06299901008606	
68	276.297837972641	pulse	1	t		66.0	2.5	/experiments/AOT/AOT_stimuli/rescaled_final/0718_rv.mp4	0.0	296.6617228984833	
68	276.41570591926575	fix_post	2		12	66.0	2.5	/experiments/AOT/AOT_stimuli/rescaled_final/0718_rv.mp4	0.0	296.77959084510803	0.09999704360961914
69	276.51570296287537	fix_pre	0		120	67.0	2.5	/experiments/AOT/AOT_stimuli/rescaled_final/1037_rv.mp4	0.0	296.87958788871765	1.0000109672546387
69	277.51571393013	movie	1		246	67.0	2.5	/experiments/AOT/AOT_stimuli/rescaled_final/1037_rv.mp4	0.0	297.8795988559723	2.500092029571533
69	277.89888405799866	pulse	1	t		67.0	2.5	/experiments/AOT/AOT_stimuli/rescaled_final/1037_rv.mp4	0.0	298.26276898384094	
69	279.49914503097534	pulse	1	t		67.0	2.5	/experiments/AOT/AOT_stimuli/rescaled_final/1037_rv.mp4	0.0	299.8630299568176	
69	280.01580595970154	fix_post	2		12	67.0	2.5	/experiments/AOT/AOT_stimuli/rescaled_final/1037_rv.mp4	0.0	300.3796908855438	0.09987998008728027
70	280.1156859397888	fix_pre	0		119	68.0	2.5	/experiments/AOT/AOT_stimuli/rescaled_final/0542_fw.mp4	0.0	300.4795708656311	0.9915680885314941
70	281.0991220474243	pulse	0	t		68.0	2.5	/experiments/AOT/AOT_stimuli/rescaled_final/0542_fw.mp4	0.0	301.4630069732666	
70	281.1072540283203	movie	1		249	68.0	2.5	/experiments/AOT/AOT_stimuli/rescaled_final/0542_fw.mp4	0.0	301.4711389541626	2.508413076400757
70	282.70002698898315	pulse	1	t		68.0	2.5	/experiments/AOT/AOT_stimuli/rescaled_final/0542_fw.mp4	0.0	303.06391191482544	
70	283.61566710472107	fix_post	2		10	68.0	2.5	/experiments/AOT/AOT_stimuli/rescaled_final/0542_fw.mp4	0.0	303.97955203056335	0.0999758243560791
71	283.71564292907715	fix_pre	0		120	69.0	2.5	/experiments/AOT/AOT_stimuli/rescaled_final/0920_rv.mp4	0.0	304.07952785491943	0.9999740123748779
71	284.2991371154785	pulse	0	t		69.0	2.5	/experiments/AOT/AOT_stimuli/rescaled_final/0920_rv.mp4	0.0	304.6630220413208	
71	284.715616941452	movie	1		245	69.0	2.5	/experiments/AOT/AOT_stimuli/rescaled_final/0920_rv.mp4	0.0	305.0795018672943	2.500098943710327
71	285.89920711517334	pulse	1	t		69.0	2.5	/experiments/AOT/AOT_stimuli/rescaled_final/0920_rv.mp4	0.0	306.2630920410156	
71	287.21571588516235	fix_post	2		12	69.0	2.5	/experiments/AOT/AOT_stimuli/rescaled_final/0920_rv.mp4	0.0	307.57960081100464	0.09988903999328613
72	287.31560492515564	fix_pre	0		120	70.0	2.5	blank	1.0	307.6794898509979	0.999967098236084
72	287.49912309646606	pulse	0	t		70.0	2.5	blank	1.0	307.86300802230835	
72	288.3155720233917	movie	1		300	70.0	2.5	blank	1.0	308.679456949234	2.500020980834961
72	289.09910106658936	pulse	1	t		70.0	2.5	blank	1.0	309.46298599243164	
72	290.69895601272583	pulse	1	t		70.0	2.5	blank	1.0	311.0628409385681	
72	290.8155930042267	fix_post	2		12	70.0	2.5	blank	1.0	311.17947793006897	0.09994697570800781
73	290.9155399799347	fix_pre	0		120	71.0	2.5	/experiments/AOT/AOT_stimuli/rescaled_final/0765_rv.mp4	0.0	311.279424905777	1.0001089572906494
73	291.91564893722534	movie	1		246	71.0	2.5	/experiments/AOT/AOT_stimuli/rescaled_final/0765_rv.mp4	0.0	312.2795338630676	2.4998719692230225
73	292.2990140914917	pulse	1	t		71.0	2.5	/experiments/AOT/AOT_stimuli/rescaled_final/0765_rv.mp4	0.0	312.662899017334	
73	293.899071931839	pulse	1	t		71.0	2.5	/experiments/AOT/AOT_stimuli/rescaled_final/0765_rv.mp4	0.0	314.2629568576813	
73	294.41552090644836	fix_post	2		12	71.0	2.5	/experiments/AOT/AOT_stimuli/rescaled_final/0765_rv.mp4	0.0	314.77940583229065	0.10005497932434082
74	294.5155758857727	fix_pre	0		119	72.0	2.5	/experiments/AOT/AOT_stimuli/rescaled_final/1678_rv.mp4	0.0	314.879460811615	0.9917221069335938
74	295.4992001056671	pulse	0	t		72.0	2.5	/experiments/AOT/AOT_stimuli/rescaled_final/1678_rv.mp4	0.0	315.8630850315094	
74	295.5072979927063	movie	1		244	72.0	2.5	/experiments/AOT/AOT_stimuli/rescaled_final/1678_rv.mp4	0.0	315.8711829185486	2.508239984512329
74	297.09868693351746	pulse	1	t		72.0	2.5	/experiments/AOT/AOT_stimuli/rescaled_final/1678_rv.mp4	0.0	317.46257185935974	
74	298.0155379772186	fix_post	2		12	72.0	2.5	/experiments/AOT/AOT_stimuli/rescaled_final/1678_rv.mp4	0.0	318.3794229030609	0.10004496574401855
75	298.11558294296265	fix_pre	0		120	73.0	2.5	/experiments/AOT/AOT_stimuli/rescaled_final/0826_rv.mp4	0.0	318.47946786880493	1.0000059604644775
75	298.69908595085144	pulse	0	t		73.0	2.5	/experiments/AOT/AOT_stimuli/rescaled_final/0826_rv.mp4	0.0	319.0629708766937	
75	299.1155889034271	movie	1		246	73.0	2.5	/experiments/AOT/AOT_stimuli/rescaled_final/0826_rv.mp4	0.0	319.4794738292694	2.4999821186065674
75	300.29910111427307	pulse	1	t		73.0	2.5	/experiments/AOT/AOT_stimuli/rescaled_final/0826_rv.mp4	0.0	320.66298604011536	
75	301.6155710220337	fix_post	2		12	73.0	2.5	/experiments/AOT/AOT_stimuli/rescaled_final/0826_rv.mp4	0.0	321.979455947876	0.09999394416809082
76	301.7155649662018	fix_pre	0		120	74.0	2.5	/experiments/AOT/AOT_stimuli/rescaled_final/0337_fw.mp4	0.0	322.07944989204407	0.9999270439147949
76	301.8990750312805	pulse	0	t		74.0	2.5	/experiments/AOT/AOT_stimuli/rescaled_final/0337_fw.mp4	0.0	322.2629599571228	
76	302.7154920101166	movie	1		243	74.0	2.5	/experiments/AOT/AOT_stimuli/rescaled_final/0337_fw.mp4	0.0	323.07937693595886	2.5000479221343994
76	303.49899911880493	pulse	1	t		74.0	2.5	/experiments/AOT/AOT_stimuli/rescaled_final/0337_fw.mp4	0.0	323.8628840446472	
76	305.0975110530853	pulse	1	t		74.0	2.5	/experiments/AOT/AOT_stimuli/rescaled_final/0337_fw.mp4	0.0	325.4613959789276	
76	305.215539932251	fix_post	2		12	74.0	2.5	/experiments/AOT/AOT_stimuli/rescaled_final/0337_fw.mp4	0.0	325.57942485809326	0.1000220775604248
77	305.3155620098114	fix_pre	0		120	75.0	2.5	blank	1.0	325.6794469356537	0.9999680519104004
77	306.3155300617218	movie	1		300	75.0	2.5	blank	1.0	326.6794149875641	2.500030040740967
77	306.6991009712219	pulse	1	t		75.0	2.5	blank	1.0	327.0629858970642	
77	308.2990720272064	pulse	1	t		75.0	2.5	blank	1.0	328.6629569530487	
77	308.81556010246277	fix_post	2		12	75.0	2.5	blank	1.0	329.17944502830505	0.1000669002532959
78	308.91562700271606	fix_pre	0		119	76.0	2.5	/experiments/AOT/AOT_stimuli/rescaled_final/0160_fw.mp4	0.0	329.27951192855835	0.9914689064025879
78	309.899099111557	pulse	0	t		76.0	2.5	/experiments/AOT/AOT_stimuli/rescaled_final/0160_fw.mp4	0.0	330.2629840373993	
78	309.90709590911865	movie	1		243	76.0	2.5	/experiments/AOT/AOT_stimuli/rescaled_final/0160_fw.mp4	0.0	330.27098083496094	2.508435010910034
78	311.4983739852905	pulse	1	t		76.0	2.5	/experiments/AOT/AOT_stimuli/rescaled_final/0160_fw.mp4	0.0	331.8622589111328	
78	312.4155309200287	fix_post	2		12	76.0	2.5	/experiments/AOT/AOT_stimuli/rescaled_final/0160_fw.mp4	0.0	332.779415845871	0.10000300407409668
79	312.5155339241028	fix_pre	0		120	77.0	2.5	/experiments/AOT/AOT_stimuli/rescaled_final/1201_fw.mp4	0.0	332.87941884994507	1.0001440048217773
79	313.09910106658936	pulse	0	t		77.0	2.5	/experiments/AOT/AOT_stimuli/rescaled_final/1201_fw.mp4	0.0	333.46298599243164	
79	313.51567792892456	movie	1		244	77.0	2.5	/experiments/AOT/AOT_stimuli/rescaled_final/1201_fw.mp4	0.0	333.87956285476685	2.499904155731201
79	314.69905495643616	pulse	1	t		77.0	2.5	/experiments/AOT/AOT_stimuli/rescaled_final/1201_fw.mp4	0.0	335.06293988227844	
79	316.01558208465576	fix_post	2		12	77.0	2.5	/experiments/AOT/AOT_stimuli/rescaled_final/1201_fw.mp4	0.0	336.37946701049805	0.09991002082824707
80	316.115492105484	fix_pre	0		120	78.0	2.5	/experiments/AOT/AOT_stimuli/rescaled_final/1973_fw.mp4	0.0	336.4793770313263	1.000032901763916
80	316.29903292655945	pulse	0	t		78.0	2.5	/experiments/AOT/AOT_stimuli/rescaled_final/1973_fw.mp4	0.0	336.66291785240173	
80	317.1155250072479	movie	1		245	78.0	2.5	/experiments/AOT/AOT_stimuli/rescaled_final/1973_fw.mp4	0.0	337.4794099330902	2.4999890327453613
80	317.89896512031555	pulse	1	t		78.0	2.5	/experiments/AOT/AOT_stimuli/rescaled_final/1973_fw.mp4	0.0	338.26285004615784	
80	319.4972610473633	pulse	1	t		78.0	2.5	/experiments/AOT/AOT_stimuli/rescaled_final/1973_fw.mp4	0.0	339.86114597320557	
80	319.6155140399933	fix_post	2		12	78.0	2.5	/experiments/AOT/AOT_stimuli/rescaled_final/1973_fw.mp4	0.0	339.97939896583557	0.09987902641296387
81	319.71539306640625	fix_pre	0		120	79.0	2.5	/experiments/AOT/AOT_stimuli/rescaled_final/1541_rv.mp4	0.0	340.07927799224854	0.9999918937683105
81	320.71538496017456	movie	1		245	79.0	2.5	/experiments/AOT/AOT_stimuli/rescaled_final/1541_rv.mp4	0.0	341.07926988601685	2.5001280307769775
81	321.0987010002136	pulse	1	t		79.0	2.5	/experiments/AOT/AOT_stimuli/rescaled_final/1541_rv.mp4	0.0	341.4625859260559	
81	322.6988730430603	pulse	1	t		79.0	2.5	/experiments/AOT/AOT_stimuli/rescaled_final/1541_rv.mp4	0.0	343.0627579689026	
81	323.21551299095154	fix_post	2		12	79.0	2.5	/experiments/AOT/AOT_stimuli/rescaled_final/1541_rv.mp4	0.0	343.5793979167938	0.09991312026977539
82	323.3154261112213	fix_pre	0		119	80.0	2.5	/experiments/AOT/AOT_stimuli/rescaled_final/1160_rv.mp4	0.0	343.6793110370636	0.9916088581085205
82	324.29901003837585	pulse	0	t		80.0	2.5	/experiments/AOT/AOT_stimuli/rescaled_final/1160_rv.mp4	0.0	344.66289496421814	
82	324.30703496932983	movie	1		247	80.0	2.5	/experiments/AOT/AOT_stimuli/rescaled_final/1160_rv.mp4	0.0	344.6709198951721	2.50833797454834
82	325.8985130786896	pulse	1	t		80.0	2.5	/experiments/AOT/AOT_stimuli/rescaled_final/1160_rv.mp4	0.0	346.26239800453186	
82	326.8153729438782	fix_post	2		12	80.0	2.5	/experiments/AOT/AOT_stimuli/rescaled_final/1160_rv.mp4	0.0	347.17925786972046	0.10002517700195312
83	326.9153981208801	fix_pre	0		120	81.0	2.5	/experiments/AOT/AOT_stimuli/rescaled_final/2087_rv.mp4	0.0	347.2792830467224	1.0000488758087158
83	327.4988749027252	pulse	0	t		81.0	2.5	/experiments/AOT/AOT_stimuli/rescaled_final/2087_rv.mp4	0.0	347.8627598285675	
83	327.91544699668884	movie	1		244	81.0	2.5	/experiments/AOT/AOT_stimuli/rescaled_final/2087_rv.mp4	0.0	348.2793319225311	2.499951124191284
83	329.0989589691162	pulse	1	t		81.0	2.5	/experiments/AOT/AOT_stimuli/rescaled_final/2087_rv.mp4	0.0	349.4628438949585	
83	330.4153981208801	fix_post	2		12	81.0	2.5	/experiments/AOT/AOT_stimuli/rescaled_final/2087_rv.mp4	0.0	350.7792830467224	0.09993791580200195
84	330.51533603668213	fix_pre	0		120	82.0	2.5	/experiments/AOT/AOT_stimuli/rescaled_final/1976_fw.mp4	0.0	350.8792209625244	1.0001559257507324
84	330.6988639831543	pulse	0	t		82.0	2.5	/experiments/AOT/AOT_stimuli/rescaled_final/1976_fw.mp4	0.0	351.0627489089966	
84	331.51549196243286	movie	1		244	82.0	2.5	/experiments/AOT/AOT_stimuli/rescaled_final/1976_fw.mp4	0.0	351.87937688827515	2.499904155731201
84	332.29882311820984	pulse	1	t		82.0	2.5	/experiments/AOT/AOT_stimuli/rescaled_final/1976_fw.mp4	0.0	352.6627080440521	
84	333.897234916687	pulse	1	t		82.0	2.5	/experiments/AOT/AOT_stimuli/rescaled_final/1976_fw.mp4	0.0	354.2611198425293	
84	334.01539611816406	fix_post	2		12	82.0	2.5	/experiments/AOT/AOT_stimuli/rescaled_final/1976_fw.mp4	0.0	354.37928104400635	0.0999457836151123
85	334.1153419017792	fix_pre	0		120	83.0	2.5	blank	1.0	354.47922682762146	1.0000441074371338
85	335.1153860092163	movie	1		300	83.0	2.5	blank	1.0	355.4792709350586	2.499964952468872
85	335.49881291389465	pulse	1	t		83.0	2.5	blank	1.0	355.86269783973694	
85	337.0987501144409	pulse	1	t		83.0	2.5	blank	1.0	357.4626350402832	
85	337.6153509616852	fix_post	2		12	83.0	2.5	blank	1.0	357.97923588752747	0.0999600887298584
87	337.71531105041504	stim	0		1716					358.0791959762573	14.3000328540802
87	338.69881296157837	pulse	0	t						359.06269788742065	
87	340.2988169193268	pulse	0	t						360.66270184516907	
87	341.89873600006104	pulse	0	t						362.2626209259033	
87	343.4987919330597	pulse	0	t						363.862676858902	
87	345.0987150669098	pulse	0	t						365.4625999927521	
87	346.6988070011139	pulse	0	t						367.0626919269562	
87	348.29880595207214	pulse	0	t						368.66269087791443	
87	349.8989019393921	pulse	0	t						370.2627868652344	
87	351.4987449645996	pulse	0	t						371.8626298904419	
