trial_nr	onset	event_type	phase	response	nr_frames	movie_index	movie_duration	movie_file	blank	onset_abs	duration
0	0.15823912620544434	stim	0		94					21.705584049224854	0.7833540439605713
0	0.9335429668426514	response	0	space						22.48088788986206	
1	0.9415931701660156	stim	0		13100					22.488938093185425	109.16611194610596
1	110.10142397880554	pulse	0	t						131.64876890182495	
1	110.10770511627197	stim	1		1717					131.65505003929138	14.30833101272583
1	111.6995620727539	pulse	1	t						133.24690699577332	
1	113.29948997497559	pulse	1	t						134.846834897995	
1	114.89953994750977	pulse	1	t						136.44688487052917	
1	116.49947595596313	pulse	1	t						138.04682087898254	
1	118.09949898719788	pulse	1	t						139.64684391021729	
1	119.69945311546326	pulse	1	t						141.24679803848267	
1	121.29948115348816	pulse	1	t						142.84682607650757	
1	122.89944696426392	pulse	1	t						144.44679188728333	
2	124.4160361289978	fix_pre	0		11	0.0	2.5	/experiments/AOT/AOT_stimuli/rescaled_final/0934_fw.mp4	0.0	145.9633810520172	0.09164786338806152
2	124.4994249343872	pulse	0	t		0.0	2.5	/experiments/AOT/AOT_stimuli/rescaled_final/0934_fw.mp4	0.0	146.04676985740662	
2	124.50768399238586	movie	1		242	0.0	2.5	/experiments/AOT/AOT_stimuli/rescaled_final/0934_fw.mp4	0.0	146.05502891540527	2.5083930492401123
2	126.09967613220215	pulse	1	t		0.0	2.5	/experiments/AOT/AOT_stimuli/rescaled_final/0934_fw.mp4	0.0	147.64702105522156	
2	127.01607704162598	fix_post	2		12	0.0	2.5	/experiments/AOT/AOT_stimuli/rescaled_final/0934_fw.mp4	0.0	148.56342196464539	0.0999610424041748
3	127.11603808403015	fix_pre	0		120	1.0	2.5	/experiments/AOT/AOT_stimuli/rescaled_final/0344_rv.mp4	0.0	148.66338300704956	0.9999580383300781
3	127.69946503639221	pulse	0	t		1.0	2.5	/experiments/AOT/AOT_stimuli/rescaled_final/0344_rv.mp4	0.0	149.24680995941162	
3	128.11599612236023	movie	1		241	1.0	2.5	/experiments/AOT/AOT_stimuli/rescaled_final/0344_rv.mp4	0.0	149.66334104537964	2.500044822692871
3	129.29960894584656	pulse	1	t		1.0	2.5	/experiments/AOT/AOT_stimuli/rescaled_final/0344_rv.mp4	0.0	150.84695386886597	
3	130.6160409450531	fix_post	2		12	1.0	2.5	/experiments/AOT/AOT_stimuli/rescaled_final/0344_rv.mp4	0.0	152.1633858680725	0.09998822212219238
4	130.7160291671753	fix_pre	0		120	2.0	2.5	/experiments/AOT/AOT_stimuli/rescaled_final/0214_fw.mp4	0.0	152.2633740901947	0.9999558925628662
4	130.89946007728577	pulse	0	t		2.0	2.5	/experiments/AOT/AOT_stimuli/rescaled_final/0214_fw.mp4	0.0	152.44680500030518	
4	131.71598505973816	movie	1		242	2.0	2.5	/experiments/AOT/AOT_stimuli/rescaled_final/0214_fw.mp4	0.0	153.26332998275757	2.5001320838928223
4	132.49943709373474	pulse	1	t		2.0	2.5	/experiments/AOT/AOT_stimuli/rescaled_final/0214_fw.mp4	0.0	154.04678201675415	
4	134.09824299812317	pulse	1	t		2.0	2.5	/experiments/AOT/AOT_stimuli/rescaled_final/0214_fw.mp4	0.0	155.64558792114258	
4	134.21611714363098	fix_post	2		12	2.0	2.5	/experiments/AOT/AOT_stimuli/rescaled_final/0214_fw.mp4	0.0	155.7634620666504	0.09992098808288574
5	134.31603813171387	fix_pre	0		120	3.0	2.5	/experiments/AOT/AOT_stimuli/rescaled_final/0392_rv.mp4	0.0	155.86338305473328	0.9999079704284668
5	135.31594610214233	movie	1		244	3.0	2.5	/experiments/AOT/AOT_stimuli/rescaled_final/0392_rv.mp4	0.0	156.86329102516174	2.4997658729553223
5	135.6988971233368	pulse	1	t		3.0	2.5	/experiments/AOT/AOT_stimuli/rescaled_final/0392_rv.mp4	0.0	157.2462420463562	
5	137.2989900112152	pulse	1	t		3.0	2.5	/experiments/AOT/AOT_stimuli/rescaled_final/0392_rv.mp4	0.0	158.84633493423462	
5	137.81571197509766	fix_post	2		12	3.0	2.5	/experiments/AOT/AOT_stimuli/rescaled_final/0392_rv.mp4	0.0	159.36305689811707	0.10003209114074707
6	137.9157440662384	fix_pre	0		119	4.0	2.5	/experiments/AOT/AOT_stimuli/rescaled_final/0404_fw.mp4	0.0	159.4630889892578	0.9921419620513916
6	138.89934515953064	pulse	0	t		4.0	2.5	/experiments/AOT/AOT_stimuli/rescaled_final/0404_fw.mp4	0.0	160.44669008255005	
6	138.9078860282898	movie	1		246	4.0	2.5	/experiments/AOT/AOT_stimuli/rescaled_final/0404_fw.mp4	0.0	160.4552309513092	2.5080180168151855
6	140.49944400787354	pulse	1	t		4.0	2.5	/experiments/AOT/AOT_stimuli/rescaled_final/0404_fw.mp4	0.0	162.04678893089294	
6	141.41590404510498	fix_post	2		12	4.0	2.5	/experiments/AOT/AOT_stimuli/rescaled_final/0404_fw.mp4	0.0	162.9632489681244	0.09997701644897461
7	141.51588106155396	fix_pre	0		120	5.0	2.5	/experiments/AOT/AOT_stimuli/rescaled_final/1797_fw.mp4	0.0	163.06322598457336	1.0000178813934326
7	142.09939813613892	pulse	0	t		5.0	2.5	/experiments/AOT/AOT_stimuli/rescaled_final/1797_fw.mp4	0.0	163.64674305915833	
7	142.5158989429474	movie	1		246	5.0	2.5	/experiments/AOT/AOT_stimuli/rescaled_final/1797_fw.mp4	0.0	164.0632438659668	2.4999401569366455
7	143.6994390487671	pulse	1	t		5.0	2.5	/experiments/AOT/AOT_stimuli/rescaled_final/1797_fw.mp4	0.0	165.2467839717865	
7	145.01583909988403	fix_post	2		12	5.0	2.5	/experiments/AOT/AOT_stimuli/rescaled_final/1797_fw.mp4	0.0	166.56318402290344	0.09999585151672363
8	145.11583495140076	fix_pre	0		120	6.0	2.5	blank	1.0	166.66317987442017	1.0000522136688232
8	145.29935002326965	pulse	0	t		6.0	2.5	blank	1.0	166.84669494628906	
8	146.11588716506958	movie	1		300	6.0	2.5	blank	1.0	167.663232088089	2.4999167919158936
8	146.89933013916016	pulse	1	t		6.0	2.5	blank	1.0	168.44667506217957	
8	148.49930596351624	pulse	1	t		6.0	2.5	blank	1.0	170.04665088653564	
8	148.61580395698547	fix_post	2		12	6.0	2.5	blank	1.0	170.16314888000488	0.09960007667541504
9	148.7154040336609	fix_pre	0		120	7.0	2.5	/experiments/AOT/AOT_stimuli/rescaled_final/0746_fw.mp4	0.0	170.2627489566803	1.000417947769165
9	149.71582198143005	movie	1		244	7.0	2.5	/experiments/AOT/AOT_stimuli/rescaled_final/0746_fw.mp4	0.0	171.26316690444946	2.499993085861206
9	150.09912705421448	pulse	1	t		7.0	2.5	/experiments/AOT/AOT_stimuli/rescaled_final/0746_fw.mp4	0.0	171.6464719772339	
9	151.69927215576172	pulse	1	t		7.0	2.5	/experiments/AOT/AOT_stimuli/rescaled_final/0746_fw.mp4	0.0	173.24661707878113	
9	152.21581506729126	fix_post	2		12	7.0	2.5	/experiments/AOT/AOT_stimuli/rescaled_final/0746_fw.mp4	0.0	173.76315999031067	0.09994697570800781
10	152.31576204299927	fix_pre	0		119	8.0	2.5	/experiments/AOT/AOT_stimuli/rescaled_final/1139_rv.mp4	0.0	173.86310696601868	0.991692066192627
10	153.29934096336365	pulse	0	t		8.0	2.5	/experiments/AOT/AOT_stimuli/rescaled_final/1139_rv.mp4	0.0	174.84668588638306	
10	153.3074541091919	movie	1		245	8.0	2.5	/experiments/AOT/AOT_stimuli/rescaled_final/1139_rv.mp4	0.0	174.8547990322113	2.5082969665527344
10	154.89885306358337	pulse	1	t		8.0	2.5	/experiments/AOT/AOT_stimuli/rescaled_final/1139_rv.mp4	0.0	176.44619798660278	
10	155.81575107574463	fix_post	2		12	8.0	2.5	/experiments/AOT/AOT_stimuli/rescaled_final/1139_rv.mp4	0.0	177.36309599876404	0.10003209114074707
11	155.91578316688538	fix_pre	0		120	9.0	2.5	/experiments/AOT/AOT_stimuli/rescaled_final/0565_fw.mp4	0.0	177.46312808990479	1.0000178813934326
11	156.49929904937744	pulse	0	t		9.0	2.5	/experiments/AOT/AOT_stimuli/rescaled_final/0565_fw.mp4	0.0	178.04664397239685	
11	156.9158010482788	movie	1		246	9.0	2.5	/experiments/AOT/AOT_stimuli/rescaled_final/0565_fw.mp4	0.0	178.46314597129822	2.5000081062316895
11	158.0994770526886	pulse	1	t		9.0	2.5	/experiments/AOT/AOT_stimuli/rescaled_final/0565_fw.mp4	0.0	179.646821975708	
11	159.4158091545105	fix_post	2		12	9.0	2.5	/experiments/AOT/AOT_stimuli/rescaled_final/0565_fw.mp4	0.0	180.9631540775299	0.09995198249816895
12	159.51576113700867	fix_pre	0		120	10.0	2.5	/experiments/AOT/AOT_stimuli/rescaled_final/1865_fw.mp4	0.0	181.06310606002808	1.0000519752502441
12	159.69929599761963	pulse	0	t		10.0	2.5	/experiments/AOT/AOT_stimuli/rescaled_final/1865_fw.mp4	0.0	181.24664092063904	
12	160.5158131122589	movie	1		244	10.0	2.5	/experiments/AOT/AOT_stimuli/rescaled_final/1865_fw.mp4	0.0	182.06315803527832	2.4999279975891113
12	161.29937505722046	pulse	1	t		10.0	2.5	/experiments/AOT/AOT_stimuli/rescaled_final/1865_fw.mp4	0.0	182.84671998023987	
12	162.89756393432617	pulse	1	t		10.0	2.5	/experiments/AOT/AOT_stimuli/rescaled_final/1865_fw.mp4	0.0	184.44490885734558	
12	163.01574110984802	fix_post	2		12	10.0	2.5	/experiments/AOT/AOT_stimuli/rescaled_final/1865_fw.mp4	0.0	184.56308603286743	0.10007405281066895
13	163.1158151626587	fix_pre	0		120	11.0	2.5	/experiments/AOT/AOT_stimuli/rescaled_final/0113_rv.mp4	0.0	184.6631600856781	0.9998629093170166
13	164.1156780719757	movie	1		245	11.0	2.5	/experiments/AOT/AOT_stimuli/rescaled_final/0113_rv.mp4	0.0	185.66302299499512	2.500040054321289
13	164.4990210533142	pulse	1	t		11.0	2.5	/experiments/AOT/AOT_stimuli/rescaled_final/0113_rv.mp4	0.0	186.04636597633362	
13	166.0992751121521	pulse	1	t		11.0	2.5	/experiments/AOT/AOT_stimuli/rescaled_final/0113_rv.mp4	0.0	187.6466200351715	
13	166.615718126297	fix_post	2		12	11.0	2.5	/experiments/AOT/AOT_stimuli/rescaled_final/0113_rv.mp4	0.0	188.1630630493164	0.10013985633850098
14	166.7158579826355	fix_pre	0		119	12.0	2.5	blank	1.0	188.2632029056549	0.9915201663970947
14	167.69930505752563	pulse	0	t		12.0	2.5	blank	1.0	189.24664998054504	
14	167.7073781490326	movie	1		301	12.0	2.5	blank	1.0	189.254723072052	2.508312940597534
14	169.29928994178772	pulse	1	t		12.0	2.5	blank	1.0	190.84663486480713	
14	170.21569108963013	fix_post	2		12	12.0	2.5	blank	1.0	191.76303601264954	0.10010385513305664
15	170.31579494476318	fix_pre	0		120	13.0	2.5	/experiments/AOT/AOT_stimuli/rescaled_final/1274_rv.mp4	0.0	191.8631398677826	0.9999990463256836
15	170.89924716949463	pulse	0	t		13.0	2.5	/experiments/AOT/AOT_stimuli/rescaled_final/1274_rv.mp4	0.0	192.44659209251404	
15	171.31579399108887	movie	1		242	13.0	2.5	/experiments/AOT/AOT_stimuli/rescaled_final/1274_rv.mp4	0.0	192.86313891410828	2.499897003173828
15	172.49930000305176	pulse	1	t		13.0	2.5	/experiments/AOT/AOT_stimuli/rescaled_final/1274_rv.mp4	0.0	194.04664492607117	
15	173.8156909942627	fix_post	2		12	13.0	2.5	/experiments/AOT/AOT_stimuli/rescaled_final/1274_rv.mp4	0.0	195.3630359172821	0.10007500648498535
16	173.91576600074768	fix_pre	0		120	14.0	2.5	/experiments/AOT/AOT_stimuli/rescaled_final/0042_rv.mp4	0.0	195.4631109237671	0.9999151229858398
16	174.09932112693787	pulse	0	t		14.0	2.5	/experiments/AOT/AOT_stimuli/rescaled_final/0042_rv.mp4	0.0	195.64666604995728	
16	174.91568112373352	movie	1		243	14.0	2.5	/experiments/AOT/AOT_stimuli/rescaled_final/0042_rv.mp4	0.0	196.46302604675293	2.500102996826172
16	175.69913005828857	pulse	1	t		14.0	2.5	/experiments/AOT/AOT_stimuli/rescaled_final/0042_rv.mp4	0.0	197.24647498130798	
16	177.29789900779724	pulse	1	t		14.0	2.5	/experiments/AOT/AOT_stimuli/rescaled_final/0042_rv.mp4	0.0	198.84524393081665	
16	177.4157841205597	fix_post	2		12	14.0	2.5	/experiments/AOT/AOT_stimuli/rescaled_final/0042_rv.mp4	0.0	198.9631290435791	0.09997391700744629
17	177.51575803756714	fix_pre	0		120	15.0	2.5	/experiments/AOT/AOT_stimuli/rescaled_final/0709_fw.mp4	0.0	199.06310296058655	1.0000030994415283
17	178.51576113700867	movie	1		244	15.0	2.5	/experiments/AOT/AOT_stimuli/rescaled_final/0709_fw.mp4	0.0	200.06310606002808	2.4999728202819824
17	178.89901995658875	pulse	1	t		15.0	2.5	/experiments/AOT/AOT_stimuli/rescaled_final/0709_fw.mp4	0.0	200.44636487960815	
17	180.4991910457611	pulse	1	t		15.0	2.5	/experiments/AOT/AOT_stimuli/rescaled_final/0709_fw.mp4	0.0	202.04653596878052	
17	181.01573395729065	fix_post	2		12	15.0	2.5	/experiments/AOT/AOT_stimuli/rescaled_final/0709_fw.mp4	0.0	202.56307888031006	0.09995317459106445
18	181.1156871318817	fix_pre	0		119	16.0	2.5	/experiments/AOT/AOT_stimuli/rescaled_final/1330_rv.mp4	0.0	202.66303205490112	0.991710901260376
18	182.0991871356964	pulse	0	t		16.0	2.5	/experiments/AOT/AOT_stimuli/rescaled_final/1330_rv.mp4	0.0	203.64653205871582	
18	182.1073980331421	movie	1		244	16.0	2.5	/experiments/AOT/AOT_stimuli/rescaled_final/1330_rv.mp4	0.0	203.6547429561615	2.508273124694824
18	183.69901204109192	pulse	1	t		16.0	2.5	/experiments/AOT/AOT_stimuli/rescaled_final/1330_rv.mp4	0.0	205.24635696411133	
18	184.6156711578369	fix_post	2		12	16.0	2.5	/experiments/AOT/AOT_stimuli/rescaled_final/1330_rv.mp4	0.0	206.16301608085632	0.10005784034729004
19	184.7157289981842	fix_pre	0		120	17.0	2.5	/experiments/AOT/AOT_stimuli/rescaled_final/2117_fw.mp4	0.0	206.2630739212036	0.9999949932098389
19	185.29923009872437	pulse	0	t		17.0	2.5	/experiments/AOT/AOT_stimuli/rescaled_final/2117_fw.mp4	0.0	206.84657502174377	
19	185.71572399139404	movie	1		247	17.0	2.5	/experiments/AOT/AOT_stimuli/rescaled_final/2117_fw.mp4	0.0	207.26306891441345	2.4999451637268066
19	186.89925909042358	pulse	1	t		17.0	2.5	/experiments/AOT/AOT_stimuli/rescaled_final/2117_fw.mp4	0.0	208.446604013443	
19	188.21566915512085	fix_post	2		12	17.0	2.5	/experiments/AOT/AOT_stimuli/rescaled_final/2117_fw.mp4	0.0	209.76301407814026	0.0999608039855957
20	188.31562995910645	fix_pre	0		120	18.0	2.5	/experiments/AOT/AOT_stimuli/rescaled_final/1876_fw.mp4	0.0	209.86297488212585	1.0000240802764893
20	188.49917912483215	pulse	0	t		18.0	2.5	/experiments/AOT/AOT_stimuli/rescaled_final/1876_fw.mp4	0.0	210.04652404785156	
20	189.31565403938293	movie	1		246	18.0	2.5	/experiments/AOT/AOT_stimuli/rescaled_final/1876_fw.mp4	0.0	210.86299896240234	2.4999659061431885
20	190.0992729663849	pulse	1	t		18.0	2.5	/experiments/AOT/AOT_stimuli/rescaled_final/1876_fw.mp4	0.0	211.6466178894043	
20	191.69759106636047	pulse	1	t		18.0	2.5	/experiments/AOT/AOT_stimuli/rescaled_final/1876_fw.mp4	0.0	213.24493598937988	
20	191.81561994552612	fix_post	2		12	18.0	2.5	/experiments/AOT/AOT_stimuli/rescaled_final/1876_fw.mp4	0.0	213.36296486854553	0.10011506080627441
21	191.9157350063324	fix_pre	0		120	19.0	2.5	/experiments/AOT/AOT_stimuli/rescaled_final/0086_rv.mp4	0.0	213.4630799293518	0.9996349811553955
21	192.9153699874878	movie	1		242	19.0	2.5	/experiments/AOT/AOT_stimuli/rescaled_final/0086_rv.mp4	0.0	214.4627149105072	2.500849962234497
21	193.29902505874634	pulse	1	t		19.0	2.5	/experiments/AOT/AOT_stimuli/rescaled_final/0086_rv.mp4	0.0	214.84636998176575	
21	194.8991720676422	pulse	1	t		19.0	2.5	/experiments/AOT/AOT_stimuli/rescaled_final/0086_rv.mp4	0.0	216.44651699066162	
21	195.4162199497223	fix_post	2		12	19.0	2.5	/experiments/AOT/AOT_stimuli/rescaled_final/0086_rv.mp4	0.0	216.9635648727417	0.09954714775085449
22	195.51576709747314	fix_pre	0		119	20.0	2.5	/experiments/AOT/AOT_stimuli/rescaled_final/0848_rv.mp4	0.0	217.06311202049255	0.9914720058441162
22	196.49913001060486	pulse	0	t		20.0	2.5	/experiments/AOT/AOT_stimuli/rescaled_final/0848_rv.mp4	0.0	218.04647493362427	
22	196.50723910331726	movie	1		245	20.0	2.5	/experiments/AOT/AOT_stimuli/rescaled_final/0848_rv.mp4	0.0	218.05458402633667	2.5083799362182617
22	198.09872794151306	pulse	1	t		20.0	2.5	/experiments/AOT/AOT_stimuli/rescaled_final/0848_rv.mp4	0.0	219.64607286453247	
22	199.01561903953552	fix_post	2		12	20.0	2.5	/experiments/AOT/AOT_stimuli/rescaled_final/0848_rv.mp4	0.0	220.56296396255493	0.1001129150390625
23	199.11573195457458	fix_pre	0		120	21.0	2.5	blank	1.0	220.663076877594	0.9997940063476562
23	199.6990520954132	pulse	0	t		21.0	2.5	blank	1.0	221.24639701843262	
23	200.11552596092224	movie	1		300	21.0	2.5	blank	1.0	221.66287088394165	2.5000619888305664
23	201.29904413223267	pulse	1	t		21.0	2.5	blank	1.0	222.84638905525208	
23	202.6155879497528	fix_post	2		12	21.0	2.5	blank	1.0	224.16293287277222	0.09994220733642578
24	202.71553015708923	fix_pre	0		120	22.0	2.5	/experiments/AOT/AOT_stimuli/rescaled_final/0086_rv.mp4	0.0	224.26287508010864	1.000074863433838
24	202.8990340232849	pulse	0	t		22.0	2.5	/experiments/AOT/AOT_stimuli/rescaled_final/0086_rv.mp4	0.0	224.44637894630432	
24	203.71560502052307	movie	1		243	22.0	2.5	/experiments/AOT/AOT_stimuli/rescaled_final/0086_rv.mp4	0.0	225.26294994354248	2.4999101161956787
24	204.49904608726501	pulse	1	t		22.0	2.5	/experiments/AOT/AOT_stimuli/rescaled_final/0086_rv.mp4	0.0	226.04639101028442	
24	206.09734106063843	pulse	1	t		22.0	2.5	/experiments/AOT/AOT_stimuli/rescaled_final/0086_rv.mp4	0.0	227.64468598365784	
24	206.21551513671875	fix_post	2		12	22.0	2.5	/experiments/AOT/AOT_stimuli/rescaled_final/0086_rv.mp4	0.0	227.76286005973816	0.0996708869934082
25	206.31518602371216	fix_pre	0		120	23.0	2.5	/experiments/AOT/AOT_stimuli/rescaled_final/0404_fw.mp4	0.0	227.86253094673157	0.9999520778656006
25	207.31513810157776	movie	1		244	23.0	2.5	/experiments/AOT/AOT_stimuli/rescaled_final/0404_fw.mp4	0.0	228.86248302459717	2.5003559589385986
25	207.69858312606812	pulse	1	t		23.0	2.5	/experiments/AOT/AOT_stimuli/rescaled_final/0404_fw.mp4	0.0	229.24592804908752	
25	209.29899907112122	pulse	1	t		23.0	2.5	/experiments/AOT/AOT_stimuli/rescaled_final/0404_fw.mp4	0.0	230.84634399414062	
25	209.81549406051636	fix_post	2		12	23.0	2.5	/experiments/AOT/AOT_stimuli/rescaled_final/0404_fw.mp4	0.0	231.36283898353577	0.10003900527954102
26	209.9155330657959	fix_pre	0		119	24.0	2.5	/experiments/AOT/AOT_stimuli/rescaled_final/1713_rv.mp4	0.0	231.4628779888153	0.9916489124298096
26	210.89906096458435	pulse	0	t		24.0	2.5	/experiments/AOT/AOT_stimuli/rescaled_final/1713_rv.mp4	0.0	232.44640588760376	
26	210.9071819782257	movie	1		245	24.0	2.5	/experiments/AOT/AOT_stimuli/rescaled_final/1713_rv.mp4	0.0	232.45452690124512	2.508324146270752
26	212.50025510787964	pulse	1	t		24.0	2.5	/experiments/AOT/AOT_stimuli/rescaled_final/1713_rv.mp4	0.0	234.04760003089905	
26	213.41550612449646	fix_post	2		12	24.0	2.5	/experiments/AOT/AOT_stimuli/rescaled_final/1713_rv.mp4	0.0	234.96285104751587	0.10010004043579102
27	213.51560616493225	fix_pre	0		120	25.0	2.5	/experiments/AOT/AOT_stimuli/rescaled_final/0304_fw.mp4	0.0	235.06295108795166	0.9999539852142334
27	214.0990309715271	pulse	0	t		25.0	2.5	/experiments/AOT/AOT_stimuli/rescaled_final/0304_fw.mp4	0.0	235.6463758945465	
27	214.51556015014648	movie	1		245	25.0	2.5	/experiments/AOT/AOT_stimuli/rescaled_final/0304_fw.mp4	0.0	236.0629050731659	2.4995248317718506
27	215.6990990638733	pulse	1	t		25.0	2.5	/experiments/AOT/AOT_stimuli/rescaled_final/0304_fw.mp4	0.0	237.2464439868927	
27	217.01508498191833	fix_post	2		12	25.0	2.5	/experiments/AOT/AOT_stimuli/rescaled_final/0304_fw.mp4	0.0	238.56242990493774	0.10044503211975098
28	217.1155300140381	fix_pre	0		120	26.0	2.5	/experiments/AOT/AOT_stimuli/rescaled_final/1443_rv.mp4	0.0	238.6628749370575	0.9999361038208008
28	217.29901599884033	pulse	0	t		26.0	2.5	/experiments/AOT/AOT_stimuli/rescaled_final/1443_rv.mp4	0.0	238.84636092185974	
28	218.1154661178589	movie	1		245	26.0	2.5	/experiments/AOT/AOT_stimuli/rescaled_final/1443_rv.mp4	0.0	239.6628110408783	2.5000510215759277
28	218.8989679813385	pulse	1	t		26.0	2.5	/experiments/AOT/AOT_stimuli/rescaled_final/1443_rv.mp4	0.0	240.4463129043579	
28	220.49887609481812	pulse	1	t		26.0	2.5	/experiments/AOT/AOT_stimuli/rescaled_final/1443_rv.mp4	0.0	242.04622101783752	
28	220.61551713943481	fix_post	2		12	26.0	2.5	/experiments/AOT/AOT_stimuli/rescaled_final/1443_rv.mp4	0.0	242.16286206245422	0.10002994537353516
29	220.71554708480835	fix_pre	0		120	27.0	2.5	blank	1.0	242.26289200782776	1.0000028610229492
29	221.7155499458313	movie	1		300	27.0	2.5	blank	1.0	243.2628948688507	2.499958038330078
29	222.09896993637085	pulse	1	t		27.0	2.5	blank	1.0	243.64631485939026	
29	223.6989231109619	pulse	1	t		27.0	2.5	blank	1.0	245.24626803398132	
29	224.21550798416138	fix_post	2		12	27.0	2.5	blank	1.0	245.7628529071808	0.09998512268066406
30	224.31549310684204	fix_pre	0		119	28.0	2.5	/experiments/AOT/AOT_stimuli/rescaled_final/0632_rv.mp4	0.0	245.86283802986145	0.9916698932647705
30	225.29899907112122	pulse	0	t		28.0	2.5	/experiments/AOT/AOT_stimuli/rescaled_final/0632_rv.mp4	0.0	246.84634399414062	
30	225.3071630001068	movie	1		246	28.0	2.5	/experiments/AOT/AOT_stimuli/rescaled_final/0632_rv.mp4	0.0	246.85450792312622	2.50827693939209
30	226.89864897727966	pulse	1	t		28.0	2.5	/experiments/AOT/AOT_stimuli/rescaled_final/0632_rv.mp4	0.0	248.44599390029907	
30	227.8154399394989	fix_post	2		12	28.0	2.5	/experiments/AOT/AOT_stimuli/rescaled_final/0632_rv.mp4	0.0	249.3627848625183	0.10008406639099121
31	227.9155240058899	fix_pre	0		120	29.0	2.5	/experiments/AOT/AOT_stimuli/rescaled_final/1581_fw.mp4	0.0	249.4628689289093	0.9999780654907227
31	228.49898505210876	pulse	0	t		29.0	2.5	/experiments/AOT/AOT_stimuli/rescaled_final/1581_fw.mp4	0.0	250.04632997512817	
31	228.91550207138062	movie	1		246	29.0	2.5	/experiments/AOT/AOT_stimuli/rescaled_final/1581_fw.mp4	0.0	250.46284699440002	2.4999239444732666
31	230.09898400306702	pulse	1	t		29.0	2.5	/experiments/AOT/AOT_stimuli/rescaled_final/1581_fw.mp4	0.0	251.64632892608643	
31	231.41542601585388	fix_post	2		12	29.0	2.5	/experiments/AOT/AOT_stimuli/rescaled_final/1581_fw.mp4	0.0	252.9627709388733	0.10003113746643066
32	231.5154571533203	fix_pre	0		120	30.0	2.5	/experiments/AOT/AOT_stimuli/rescaled_final/1364_fw.mp4	0.0	253.06280207633972	0.9999938011169434
32	231.6990261077881	pulse	0	t		30.0	2.5	/experiments/AOT/AOT_stimuli/rescaled_final/1364_fw.mp4	0.0	253.2463710308075	
32	232.51545095443726	movie	1		246	30.0	2.5	/experiments/AOT/AOT_stimuli/rescaled_final/1364_fw.mp4	0.0	254.06279587745667	2.4999351501464844
32	233.29895496368408	pulse	1	t		30.0	2.5	/experiments/AOT/AOT_stimuli/rescaled_final/1364_fw.mp4	0.0	254.8462998867035	
32	234.89752101898193	pulse	1	t		30.0	2.5	/experiments/AOT/AOT_stimuli/rescaled_final/1364_fw.mp4	0.0	256.44486594200134	
32	235.01538610458374	fix_post	2		12	30.0	2.5	/experiments/AOT/AOT_stimuli/rescaled_final/1364_fw.mp4	0.0	256.56273102760315	0.10003805160522461
33	235.11542415618896	fix_pre	0		120	31.0	2.5	/experiments/AOT/AOT_stimuli/rescaled_final/0738_rv.mp4	0.0	256.6627690792084	1.0
33	236.11542415618896	movie	1		246	31.0	2.5	/experiments/AOT/AOT_stimuli/rescaled_final/0738_rv.mp4	0.0	257.6627690792084	2.4997198581695557
33	236.498517036438	pulse	1	t		31.0	2.5	/experiments/AOT/AOT_stimuli/rescaled_final/0738_rv.mp4	0.0	258.0458619594574	
33	238.09888100624084	pulse	1	t		31.0	2.5	/experiments/AOT/AOT_stimuli/rescaled_final/0738_rv.mp4	0.0	259.64622592926025	
33	238.61514401435852	fix_post	2		12	31.0	2.5	/experiments/AOT/AOT_stimuli/rescaled_final/0738_rv.mp4	0.0	260.16248893737793	0.10029006004333496
34	238.71543407440186	fix_pre	0		119	32.0	2.5	/experiments/AOT/AOT_stimuli/rescaled_final/0934_rv.mp4	0.0	260.26277899742126	0.9916388988494873
34	239.6989231109619	pulse	0	t		32.0	2.5	/experiments/AOT/AOT_stimuli/rescaled_final/0934_rv.mp4	0.0	261.2462680339813	
34	239.70707297325134	movie	1		244	32.0	2.5	/experiments/AOT/AOT_stimuli/rescaled_final/0934_rv.mp4	0.0	261.25441789627075	2.5084240436553955
34	241.2986500263214	pulse	1	t		32.0	2.5	/experiments/AOT/AOT_stimuli/rescaled_final/0934_rv.mp4	0.0	262.8459949493408	
34	242.21549701690674	fix_post	2		12	32.0	2.5	/experiments/AOT/AOT_stimuli/rescaled_final/0934_rv.mp4	0.0	263.76284193992615	0.09989595413208008
35	242.31539297103882	fix_pre	0		120	33.0	2.5	/experiments/AOT/AOT_stimuli/rescaled_final/0086_fw.mp4	0.0	263.8627378940582	1.000096082687378
35	242.89889812469482	pulse	0	t		33.0	2.5	/experiments/AOT/AOT_stimuli/rescaled_final/0086_fw.mp4	0.0	264.44624304771423	
35	243.3154890537262	movie	1		242	33.0	2.5	/experiments/AOT/AOT_stimuli/rescaled_final/0086_fw.mp4	0.0	264.8628339767456	2.4994640350341797
35	244.499037027359	pulse	1	t		33.0	2.5	/experiments/AOT/AOT_stimuli/rescaled_final/0086_fw.mp4	0.0	266.0463819503784	
35	245.81495308876038	fix_post	2		12	33.0	2.5	/experiments/AOT/AOT_stimuli/rescaled_final/0086_fw.mp4	0.0	267.3622980117798	0.1005859375
36	245.91553902626038	fix_pre	0		120	34.0	2.5	blank	1.0	267.4628839492798	0.9998519420623779
36	246.09899497032166	pulse	0	t		34.0	2.5	blank	1.0	267.64633989334106	
36	246.91539096832275	movie	1		300	34.0	2.5	blank	1.0	268.46273589134216	2.50019907951355
36	247.69837594032288	pulse	1	t		34.0	2.5	blank	1.0	269.2457208633423	
36	249.29906797409058	pulse	1	t		34.0	2.5	blank	1.0	270.84641289711	
36	249.4155900478363	fix_post	2		12	34.0	2.5	blank	1.0	270.9629349708557	0.09956502914428711
37	249.5151550769806	fix_pre	0		120	35.0	2.5	/experiments/AOT/AOT_stimuli/rescaled_final/0531_fw.mp4	0.0	271.0625	1.0001540184020996
37	250.5153090953827	movie	1		245	35.0	2.5	/experiments/AOT/AOT_stimuli/rescaled_final/0531_fw.mp4	0.0	272.0626540184021	2.500131845474243
37	250.89851903915405	pulse	1	t		35.0	2.5	/experiments/AOT/AOT_stimuli/rescaled_final/0531_fw.mp4	0.0	272.44586396217346	
37	252.49876809120178	pulse	1	t		35.0	2.5	/experiments/AOT/AOT_stimuli/rescaled_final/0531_fw.mp4	0.0	274.0461130142212	
37	253.01544094085693	fix_post	2		12	35.0	2.5	/experiments/AOT/AOT_stimuli/rescaled_final/0531_fw.mp4	0.0	274.56278586387634	0.10005521774291992
38	253.11549615859985	fix_pre	0		119	36.0	2.5	/experiments/AOT/AOT_stimuli/rescaled_final/1531_rv.mp4	0.0	274.66284108161926	0.9915158748626709
38	254.0988850593567	pulse	0	t		36.0	2.5	/experiments/AOT/AOT_stimuli/rescaled_final/1531_rv.mp4	0.0	275.6462299823761	
38	254.10701203346252	movie	1		247	36.0	2.5	/experiments/AOT/AOT_stimuli/rescaled_final/1531_rv.mp4	0.0	275.65435695648193	2.5082449913024902
38	255.69875407218933	pulse	1	t		36.0	2.5	/experiments/AOT/AOT_stimuli/rescaled_final/1531_rv.mp4	0.0	277.24609899520874	
38	256.615257024765	fix_post	2		12	36.0	2.5	/experiments/AOT/AOT_stimuli/rescaled_final/1531_rv.mp4	0.0	278.1626019477844	0.10005307197570801
39	256.7153100967407	fix_pre	0		120	37.0	2.5	/experiments/AOT/AOT_stimuli/rescaled_final/1443_fw.mp4	0.0	278.26265501976013	1.0000128746032715
39	257.29883193969727	pulse	0	t		37.0	2.5	/experiments/AOT/AOT_stimuli/rescaled_final/1443_fw.mp4	0.0	278.8461768627167	
39	257.715322971344	movie	1		244	37.0	2.5	/experiments/AOT/AOT_stimuli/rescaled_final/1443_fw.mp4	0.0	279.2626678943634	2.5001111030578613
39	258.89883494377136	pulse	1	t		37.0	2.5	/experiments/AOT/AOT_stimuli/rescaled_final/1443_fw.mp4	0.0	280.44617986679077	
39	260.21543407440186	fix_post	2		12	37.0	2.5	/experiments/AOT/AOT_stimuli/rescaled_final/1443_fw.mp4	0.0	281.76277899742126	0.09983992576599121
40	260.31527400016785	fix_pre	0		120	38.0	2.5	/experiments/AOT/AOT_stimuli/rescaled_final/1876_rv.mp4	0.0	281.86261892318726	1.000035047531128
40	260.4987299442291	pulse	0	t		38.0	2.5	/experiments/AOT/AOT_stimuli/rescaled_final/1876_rv.mp4	0.0	282.04607486724854	
40	261.315309047699	movie	1		244	38.0	2.5	/experiments/AOT/AOT_stimuli/rescaled_final/1876_rv.mp4	0.0	282.8626539707184	2.4999539852142334
40	262.09880208969116	pulse	1	t		38.0	2.5	/experiments/AOT/AOT_stimuli/rescaled_final/1876_rv.mp4	0.0	283.64614701271057	
40	263.6973719596863	pulse	1	t		38.0	2.5	/experiments/AOT/AOT_stimuli/rescaled_final/1876_rv.mp4	0.0	285.2447168827057	
40	263.8152630329132	fix_post	2		12	38.0	2.5	/experiments/AOT/AOT_stimuli/rescaled_final/1876_rv.mp4	0.0	285.3626079559326	0.10004496574401855
41	263.9153079986572	fix_pre	0		120	39.0	2.5	/experiments/AOT/AOT_stimuli/rescaled_final/2011_fw.mp4	0.0	285.46265292167664	0.9999821186065674
41	264.9152901172638	movie	1		244	39.0	2.5	/experiments/AOT/AOT_stimuli/rescaled_final/2011_fw.mp4	0.0	286.4626350402832	2.4999709129333496
41	265.2986271381378	pulse	1	t		39.0	2.5	/experiments/AOT/AOT_stimuli/rescaled_final/2011_fw.mp4	0.0	286.8459720611572	
41	266.898805141449	pulse	1	t		39.0	2.5	/experiments/AOT/AOT_stimuli/rescaled_final/2011_fw.mp4	0.0	288.4461500644684	
41	267.41526103019714	fix_post	2		12	39.0	2.5	/experiments/AOT/AOT_stimuli/rescaled_final/2011_fw.mp4	0.0	288.96260595321655	0.10007596015930176
42	267.51533699035645	fix_pre	0		119	40.0	2.5	/experiments/AOT/AOT_stimuli/rescaled_final/1268_rv.mp4	0.0	289.06268191337585	0.9916009902954102
42	268.49884009361267	pulse	0	t		40.0	2.5	/experiments/AOT/AOT_stimuli/rescaled_final/1268_rv.mp4	0.0	290.0461850166321	
42	268.50693798065186	movie	1		246	40.0	2.5	/experiments/AOT/AOT_stimuli/rescaled_final/1268_rv.mp4	0.0	290.05428290367126	2.5084421634674072
42	270.0984351634979	pulse	1	t		40.0	2.5	/experiments/AOT/AOT_stimuli/rescaled_final/1268_rv.mp4	0.0	291.64578008651733	
42	271.01538014411926	fix_post	2		12	40.0	2.5	/experiments/AOT/AOT_stimuli/rescaled_final/1268_rv.mp4	0.0	292.5627250671387	0.09989690780639648
43	271.11527705192566	fix_pre	0		120	41.0	2.5	blank	1.0	292.66262197494507	0.9999849796295166
43	271.69878697395325	pulse	0	t		41.0	2.5	blank	1.0	293.24613189697266	
43	272.1152620315552	movie	1		300	41.0	2.5	blank	1.0	293.6626069545746	2.500046968460083
43	273.2987949848175	pulse	1	t		41.0	2.5	blank	1.0	294.8461399078369	
43	274.61530900001526	fix_post	2		12	41.0	2.5	blank	1.0	296.16265392303467	0.10000801086425781
44	274.7153170108795	fix_pre	0		120	42.0	2.5	/experiments/AOT/AOT_stimuli/rescaled_final/2060_fw.mp4	0.0	296.2626619338989	1.0000059604644775
44	274.8987510204315	pulse	0	t		42.0	2.5	/experiments/AOT/AOT_stimuli/rescaled_final/2060_fw.mp4	0.0	296.4460959434509	
44	275.715322971344	movie	1		243	42.0	2.5	/experiments/AOT/AOT_stimuli/rescaled_final/2060_fw.mp4	0.0	297.2626678943634	2.499943971633911
44	276.4987759590149	pulse	1	t		42.0	2.5	/experiments/AOT/AOT_stimuli/rescaled_final/2060_fw.mp4	0.0	298.0461208820343	
44	278.0970799922943	pulse	1	t		42.0	2.5	/experiments/AOT/AOT_stimuli/rescaled_final/2060_fw.mp4	0.0	299.6444249153137	
44	278.2152669429779	fix_post	2		12	42.0	2.5	/experiments/AOT/AOT_stimuli/rescaled_final/2060_fw.mp4	0.0	299.7626118659973	0.10002303123474121
45	278.31528997421265	fix_pre	0		120	43.0	2.5	/experiments/AOT/AOT_stimuli/rescaled_final/0115_rv.mp4	0.0	299.86263489723206	0.9998960494995117
45	279.31518602371216	movie	1		245	43.0	2.5	/experiments/AOT/AOT_stimuli/rescaled_final/0115_rv.mp4	0.0	300.86253094673157	2.500030994415283
45	279.6999001502991	pulse	1	t		43.0	2.5	/experiments/AOT/AOT_stimuli/rescaled_final/0115_rv.mp4	0.0	301.2472450733185	
45	281.29870796203613	pulse	1	t		43.0	2.5	/experiments/AOT/AOT_stimuli/rescaled_final/0115_rv.mp4	0.0	302.84605288505554	
45	281.81521701812744	fix_post	2		12	43.0	2.5	/experiments/AOT/AOT_stimuli/rescaled_final/0115_rv.mp4	0.0	303.36256194114685	0.0999910831451416
46	281.9152081012726	fix_pre	0		119	44.0	2.5	/experiments/AOT/AOT_stimuli/rescaled_final/0562_rv.mp4	0.0	303.462553024292	0.9916729927062988
46	282.8987319469452	pulse	0	t		44.0	2.5	/experiments/AOT/AOT_stimuli/rescaled_final/0562_rv.mp4	0.0	304.4460768699646	
46	282.9068810939789	movie	1		244	44.0	2.5	/experiments/AOT/AOT_stimuli/rescaled_final/0562_rv.mp4	0.0	304.4542260169983	2.5083749294281006
46	284.49896717071533	pulse	1	t		44.0	2.5	/experiments/AOT/AOT_stimuli/rescaled_final/0562_rv.mp4	0.0	306.04631209373474	
46	285.415256023407	fix_post	2		12	44.0	2.5	/experiments/AOT/AOT_stimuli/rescaled_final/0562_rv.mp4	0.0	306.9626009464264	0.09999394416809082
47	285.5152499675751	fix_pre	0		120	45.0	2.5	/experiments/AOT/AOT_stimuli/rescaled_final/0540_fw.mp4	0.0	307.0625948905945	0.9999690055847168
47	286.09871315956116	pulse	0	t		45.0	2.5	/experiments/AOT/AOT_stimuli/rescaled_final/0540_fw.mp4	0.0	307.64605808258057	
47	286.5152189731598	movie	1		245	45.0	2.5	/experiments/AOT/AOT_stimuli/rescaled_final/0540_fw.mp4	0.0	308.0625638961792	2.499920129776001
47	287.69869899749756	pulse	1	t		45.0	2.5	/experiments/AOT/AOT_stimuli/rescaled_final/0540_fw.mp4	0.0	309.24604392051697	
47	289.0151391029358	fix_post	2		12	45.0	2.5	/experiments/AOT/AOT_stimuli/rescaled_final/0540_fw.mp4	0.0	310.5624840259552	0.10012602806091309
48	289.1152651309967	fix_pre	0		120	46.0	2.5	/experiments/AOT/AOT_stimuli/rescaled_final/2161_rv.mp4	0.0	310.6626100540161	0.999871015548706
48	289.29871797561646	pulse	0	t		46.0	2.5	/experiments/AOT/AOT_stimuli/rescaled_final/2161_rv.mp4	0.0	310.84606289863586	
48	290.1151361465454	movie	1		243	46.0	2.5	/experiments/AOT/AOT_stimuli/rescaled_final/2161_rv.mp4	0.0	311.6624810695648	2.500091791152954
48	290.8986461162567	pulse	1	t		46.0	2.5	/experiments/AOT/AOT_stimuli/rescaled_final/2161_rv.mp4	0.0	312.4459910392761	
48	292.4973940849304	pulse	1	t		46.0	2.5	/experiments/AOT/AOT_stimuli/rescaled_final/2161_rv.mp4	0.0	314.04473900794983	
48	292.61522793769836	fix_post	2		12	46.0	2.5	/experiments/AOT/AOT_stimuli/rescaled_final/2161_rv.mp4	0.0	314.1625728607178	0.09986519813537598
49	292.71509313583374	fix_pre	0		120	47.0	2.5	/experiments/AOT/AOT_stimuli/rescaled_final/0051_fw.mp4	0.0	314.26243805885315	1.0001158714294434
49	293.7152090072632	movie	1		244	47.0	2.5	/experiments/AOT/AOT_stimuli/rescaled_final/0051_fw.mp4	0.0	315.2625539302826	2.4999730587005615
49	294.09836411476135	pulse	1	t		47.0	2.5	/experiments/AOT/AOT_stimuli/rescaled_final/0051_fw.mp4	0.0	315.64570903778076	
49	295.69864201545715	pulse	1	t		47.0	2.5	/experiments/AOT/AOT_stimuli/rescaled_final/0051_fw.mp4	0.0	317.24598693847656	
49	296.21518206596375	fix_post	2		12	47.0	2.5	/experiments/AOT/AOT_stimuli/rescaled_final/0051_fw.mp4	0.0	317.76252698898315	0.09994292259216309
50	296.3151249885559	fix_pre	0		119	48.0	2.5	blank	1.0	317.8624699115753	0.9916479587554932
50	297.29858016967773	pulse	0	t		48.0	2.5	blank	1.0	318.84592509269714	
50	297.3067729473114	movie	1		301	48.0	2.5	blank	1.0	318.8541178703308	2.5084211826324463
50	298.8986620903015	pulse	1	t		48.0	2.5	blank	1.0	320.4460070133209	
50	299.81519412994385	fix_post	2		12	48.0	2.5	blank	1.0	321.36253905296326	0.09998202323913574
51	299.915176153183	fix_pre	0		120	49.0	2.5	/experiments/AOT/AOT_stimuli/rescaled_final/0113_rv.mp4	0.0	321.4625210762024	0.9998989105224609
51	300.4986231327057	pulse	0	t		49.0	2.5	/experiments/AOT/AOT_stimuli/rescaled_final/0113_rv.mp4	0.0	322.0459680557251	
51	300.91507506370544	movie	1		244	49.0	2.5	/experiments/AOT/AOT_stimuli/rescaled_final/0113_rv.mp4	0.0	322.46241998672485	2.4996590614318848
51	302.09854197502136	pulse	1	t		49.0	2.5	/experiments/AOT/AOT_stimuli/rescaled_final/0113_rv.mp4	0.0	323.64588689804077	
51	303.41473412513733	fix_post	2		12	49.0	2.5	/experiments/AOT/AOT_stimuli/rescaled_final/0113_rv.mp4	0.0	324.96207904815674	0.10039496421813965
52	303.51512908935547	fix_pre	0		120	50.0	2.5	/experiments/AOT/AOT_stimuli/rescaled_final/1427_fw.mp4	0.0	325.0624740123749	0.999669075012207
52	303.6986200809479	pulse	0	t		50.0	2.5	/experiments/AOT/AOT_stimuli/rescaled_final/1427_fw.mp4	0.0	325.2459650039673	
52	304.5147981643677	movie	1		247	50.0	2.5	/experiments/AOT/AOT_stimuli/rescaled_final/1427_fw.mp4	0.0	326.0621430873871	2.500330924987793
52	305.2983341217041	pulse	1	t		50.0	2.5	/experiments/AOT/AOT_stimuli/rescaled_final/1427_fw.mp4	0.0	326.8456790447235	
52	306.89858198165894	pulse	1	t		50.0	2.5	/experiments/AOT/AOT_stimuli/rescaled_final/1427_fw.mp4	0.0	328.44592690467834	
52	307.01512908935547	fix_post	2		12	50.0	2.5	/experiments/AOT/AOT_stimuli/rescaled_final/1427_fw.mp4	0.0	328.5624740123749	0.10005402565002441
53	307.1151831150055	fix_pre	0		120	51.0	2.5	/experiments/AOT/AOT_stimuli/rescaled_final/1422_rv.mp4	0.0	328.6625280380249	0.9999048709869385
53	308.11508798599243	movie	1		245	51.0	2.5	/experiments/AOT/AOT_stimuli/rescaled_final/1422_rv.mp4	0.0	329.66243290901184	2.5000979900360107
53	308.498095035553	pulse	1	t		51.0	2.5	/experiments/AOT/AOT_stimuli/rescaled_final/1422_rv.mp4	0.0	330.0454399585724	
53	310.09855699539185	pulse	1	t		51.0	2.5	/experiments/AOT/AOT_stimuli/rescaled_final/1422_rv.mp4	0.0	331.64590191841125	
53	310.61518597602844	fix_post	2		12	51.0	2.5	/experiments/AOT/AOT_stimuli/rescaled_final/1422_rv.mp4	0.0	332.16253089904785	0.09990215301513672
54	310.7150881290436	fix_pre	0		119	52.0	2.5	/experiments/AOT/AOT_stimuli/rescaled_final/1172_fw.mp4	0.0	332.262433052063	0.9916188716888428
54	311.6984429359436	pulse	0	t		52.0	2.5	/experiments/AOT/AOT_stimuli/rescaled_final/1172_fw.mp4	0.0	333.245787858963	
54	311.7067070007324	movie	1		244	52.0	2.5	/experiments/AOT/AOT_stimuli/rescaled_final/1172_fw.mp4	0.0	333.25405192375183	2.508319139480591
54	313.29979705810547	pulse	1	t		52.0	2.5	/experiments/AOT/AOT_stimuli/rescaled_final/1172_fw.mp4	0.0	334.8471419811249	
54	314.215026140213	fix_post	2		12	52.0	2.5	/experiments/AOT/AOT_stimuli/rescaled_final/1172_fw.mp4	0.0	335.7623710632324	0.10002684593200684
55	314.315052986145	fix_pre	0		120	53.0	2.5	/experiments/AOT/AOT_stimuli/rescaled_final/0612_rv.mp4	0.0	335.86239790916443	0.9999401569366455
55	314.89852595329285	pulse	0	t		53.0	2.5	/experiments/AOT/AOT_stimuli/rescaled_final/0612_rv.mp4	0.0	336.44587087631226	
55	315.31499314308167	movie	1		245	53.0	2.5	/experiments/AOT/AOT_stimuli/rescaled_final/0612_rv.mp4	0.0	336.8623380661011	2.499638795852661
55	316.4985821247101	pulse	1	t		53.0	2.5	/experiments/AOT/AOT_stimuli/rescaled_final/0612_rv.mp4	0.0	338.0459270477295	
55	317.8146319389343	fix_post	2		12	53.0	2.5	/experiments/AOT/AOT_stimuli/rescaled_final/0612_rv.mp4	0.0	339.36197686195374	0.10038900375366211
56	317.915020942688	fix_pre	0		120	54.0	2.5	/experiments/AOT/AOT_stimuli/rescaled_final/2077_fw.mp4	0.0	339.4623658657074	0.9999661445617676
56	318.09855103492737	pulse	0	t		54.0	2.5	/experiments/AOT/AOT_stimuli/rescaled_final/2077_fw.mp4	0.0	339.6458959579468	
56	318.91498708724976	movie	1		244	54.0	2.5	/experiments/AOT/AOT_stimuli/rescaled_final/2077_fw.mp4	0.0	340.46233201026917	2.499829053878784
56	319.6984860897064	pulse	1	t		54.0	2.5	/experiments/AOT/AOT_stimuli/rescaled_final/2077_fw.mp4	0.0	341.24583101272583	
56	321.2969479560852	pulse	1	t		54.0	2.5	/experiments/AOT/AOT_stimuli/rescaled_final/2077_fw.mp4	0.0	342.8442928791046	
56	321.41481614112854	fix_post	2		12	54.0	2.5	/experiments/AOT/AOT_stimuli/rescaled_final/2077_fw.mp4	0.0	342.96216106414795	0.10020184516906738
57	321.5150179862976	fix_pre	0		120	55.0	2.5	blank	1.0	343.062362909317	1.000040054321289
57	322.5150580406189	movie	1		300	55.0	2.5	blank	1.0	344.0624029636383	2.499601125717163
57	322.8985159397125	pulse	1	t		55.0	2.5	blank	1.0	344.44586086273193	
57	324.49845695495605	pulse	1	t		55.0	2.5	blank	1.0	346.04580187797546	
57	325.01465916633606	fix_post	2		12	55.0	2.5	blank	1.0	346.56200408935547	0.1003119945526123
58	325.1149711608887	fix_pre	0		119	56.0	2.5	/experiments/AOT/AOT_stimuli/rescaled_final/1459_fw.mp4	0.0	346.6623160839081	0.9917218685150146
58	326.09851908683777	pulse	0	t		56.0	2.5	/experiments/AOT/AOT_stimuli/rescaled_final/1459_fw.mp4	0.0	347.6458640098572	
58	326.1066930294037	movie	1		245	56.0	2.5	/experiments/AOT/AOT_stimuli/rescaled_final/1459_fw.mp4	0.0	347.6540379524231	2.5082991123199463
58	327.69855403900146	pulse	1	t		56.0	2.5	/experiments/AOT/AOT_stimuli/rescaled_final/1459_fw.mp4	0.0	349.2458989620209	
58	328.61499214172363	fix_post	2		12	56.0	2.5	/experiments/AOT/AOT_stimuli/rescaled_final/1459_fw.mp4	0.0	350.16233706474304	0.10003900527954102
59	328.7150311470032	fix_pre	0		120	57.0	2.5	/experiments/AOT/AOT_stimuli/rescaled_final/1713_rv.mp4	0.0	350.2623760700226	0.9999048709869385
59	329.298388004303	pulse	0	t		57.0	2.5	/experiments/AOT/AOT_stimuli/rescaled_final/1713_rv.mp4	0.0	350.8457329273224	
59	329.7149360179901	movie	1		244	57.0	2.5	/experiments/AOT/AOT_stimuli/rescaled_final/1713_rv.mp4	0.0	351.2622809410095	2.499946117401123
59	330.8985381126404	pulse	1	t		57.0	2.5	/experiments/AOT/AOT_stimuli/rescaled_final/1713_rv.mp4	0.0	352.4458830356598	
59	332.21488213539124	fix_post	2		12	57.0	2.5	/experiments/AOT/AOT_stimuli/rescaled_final/1713_rv.mp4	0.0	353.76222705841064	0.10004091262817383
60	332.3149230480194	fix_pre	0		120	58.0	2.5	/experiments/AOT/AOT_stimuli/rescaled_final/2178_fw.mp4	0.0	353.8622679710388	1.0000901222229004
60	332.49841809272766	pulse	0	t		58.0	2.5	/experiments/AOT/AOT_stimuli/rescaled_final/2178_fw.mp4	0.0	354.04576301574707	
60	333.3150131702423	movie	1		243	58.0	2.5	/experiments/AOT/AOT_stimuli/rescaled_final/2178_fw.mp4	0.0	354.8623580932617	2.5000059604644775
60	334.0984809398651	pulse	1	t		58.0	2.5	/experiments/AOT/AOT_stimuli/rescaled_final/2178_fw.mp4	0.0	355.6458258628845	
60	335.6968891620636	pulse	1	t		58.0	2.5	/experiments/AOT/AOT_stimuli/rescaled_final/2178_fw.mp4	0.0	357.244234085083	
60	335.8150191307068	fix_post	2		12	58.0	2.5	/experiments/AOT/AOT_stimuli/rescaled_final/2178_fw.mp4	0.0	357.3623640537262	0.09996986389160156
61	335.9149889945984	fix_pre	0		120	59.0	2.5	/experiments/AOT/AOT_stimuli/rescaled_final/0625_rv.mp4	0.0	357.4623339176178	0.9999470710754395
61	336.9149360656738	movie	1		245	59.0	2.5	/experiments/AOT/AOT_stimuli/rescaled_final/0625_rv.mp4	0.0	358.46228098869324	2.499953031539917
61	337.2985939979553	pulse	1	t		59.0	2.5	/experiments/AOT/AOT_stimuli/rescaled_final/0625_rv.mp4	0.0	358.84593892097473	
61	338.8984589576721	pulse	1	t		59.0	2.5	/experiments/AOT/AOT_stimuli/rescaled_final/0625_rv.mp4	0.0	360.4458038806915	
61	339.41488909721375	fix_post	2		12	59.0	2.5	/experiments/AOT/AOT_stimuli/rescaled_final/0625_rv.mp4	0.0	360.96223402023315	0.10010194778442383
62	339.51499104499817	fix_pre	0		119	60.0	2.5	/experiments/AOT/AOT_stimuli/rescaled_final/1989_fw.mp4	0.0	361.0623359680176	0.9916369915008545
62	340.4983661174774	pulse	0	t		60.0	2.5	/experiments/AOT/AOT_stimuli/rescaled_final/1989_fw.mp4	0.0	362.0457110404968	
62	340.506628036499	movie	1		248	60.0	2.5	/experiments/AOT/AOT_stimuli/rescaled_final/1989_fw.mp4	0.0	362.05397295951843	2.5082900524139404
62	342.0983769893646	pulse	1	t		60.0	2.5	/experiments/AOT/AOT_stimuli/rescaled_final/1989_fw.mp4	0.0	363.64572191238403	
62	343.01491808891296	fix_post	2		12	60.0	2.5	/experiments/AOT/AOT_stimuli/rescaled_final/1989_fw.mp4	0.0	364.5622630119324	0.1000220775604248
63	343.1149401664734	fix_pre	0		120	61.0	2.5	/experiments/AOT/AOT_stimuli/rescaled_final/1698_fw.mp4	0.0	364.6622850894928	0.9999139308929443
63	343.69854617118835	pulse	0	t		61.0	2.5	/experiments/AOT/AOT_stimuli/rescaled_final/1698_fw.mp4	0.0	365.24589109420776	
63	344.11485409736633	movie	1		245	61.0	2.5	/experiments/AOT/AOT_stimuli/rescaled_final/1698_fw.mp4	0.0	365.66219902038574	2.5000689029693604
63	345.2984690666199	pulse	1	t		61.0	2.5	/experiments/AOT/AOT_stimuli/rescaled_final/1698_fw.mp4	0.0	366.8458139896393	
63	346.6149230003357	fix_post	2		12	61.0	2.5	/experiments/AOT/AOT_stimuli/rescaled_final/1698_fw.mp4	0.0	368.1622679233551	0.1000831127166748
64	346.71500611305237	fix_pre	0		120	62.0	2.5	/experiments/AOT/AOT_stimuli/rescaled_final/0844_rv.mp4	0.0	368.2623510360718	0.9998688697814941
64	346.89843916893005	pulse	0	t		62.0	2.5	/experiments/AOT/AOT_stimuli/rescaled_final/0844_rv.mp4	0.0	368.44578409194946	
64	347.71487498283386	movie	1		247	62.0	2.5	/experiments/AOT/AOT_stimuli/rescaled_final/0844_rv.mp4	0.0	369.26221990585327	2.4999849796295166
64	348.49840903282166	pulse	1	t		62.0	2.5	/experiments/AOT/AOT_stimuli/rescaled_final/0844_rv.mp4	0.0	370.04575395584106	
64	350.0978901386261	pulse	1	t		62.0	2.5	/experiments/AOT/AOT_stimuli/rescaled_final/0844_rv.mp4	0.0	371.6452350616455	
64	350.2148599624634	fix_post	2		12	62.0	2.5	/experiments/AOT/AOT_stimuli/rescaled_final/0844_rv.mp4	0.0	371.7622048854828	0.1000361442565918
65	350.31489610671997	fix_pre	0		120	63.0	2.5	blank	1.0	371.8622410297394	0.9999468326568604
65	351.31484293937683	movie	1		300	63.0	2.5	blank	1.0	372.86218786239624	2.50006103515625
65	351.69834899902344	pulse	1	t		63.0	2.5	blank	1.0	373.24569392204285	
65	353.2983739376068	pulse	1	t		63.0	2.5	blank	1.0	374.8457188606262	
65	353.8149039745331	fix_post	2		12	63.0	2.5	blank	1.0	375.3622488975525	0.0998990535736084
66	353.9148030281067	fix_pre	0		119	64.0	2.5	/experiments/AOT/AOT_stimuli/rescaled_final/1377_fw.mp4	0.0	375.4621479511261	0.9917941093444824
66	354.8985140323639	pulse	0	t		64.0	2.5	/experiments/AOT/AOT_stimuli/rescaled_final/1377_fw.mp4	0.0	376.4458589553833	
66	354.9065971374512	movie	1		244	64.0	2.5	/experiments/AOT/AOT_stimuli/rescaled_final/1377_fw.mp4	0.0	376.4539420604706	2.507788896560669
66	356.4978530406952	pulse	1	t		64.0	2.5	/experiments/AOT/AOT_stimuli/rescaled_final/1377_fw.mp4	0.0	378.0451979637146	
66	357.41438603401184	fix_post	2		12	64.0	2.5	/experiments/AOT/AOT_stimuli/rescaled_final/1377_fw.mp4	0.0	378.96173095703125	0.10051512718200684
67	357.51490116119385	fix_pre	0		120	65.0	2.5	/experiments/AOT/AOT_stimuli/rescaled_final/1039_fw.mp4	0.0	379.06224608421326	0.9999008178710938
67	358.0983531475067	pulse	0	t		65.0	2.5	/experiments/AOT/AOT_stimuli/rescaled_final/1039_fw.mp4	0.0	379.6456980705261	
67	358.51480197906494	movie	1		245	65.0	2.5	/experiments/AOT/AOT_stimuli/rescaled_final/1039_fw.mp4	0.0	380.06214690208435	2.4998741149902344
67	359.69796895980835	pulse	1	t		65.0	2.5	/experiments/AOT/AOT_stimuli/rescaled_final/1039_fw.mp4	0.0	381.24531388282776	
67	361.0146760940552	fix_post	2		12	65.0	2.5	/experiments/AOT/AOT_stimuli/rescaled_final/1039_fw.mp4	0.0	382.5620210170746	0.10038590431213379
68	361.1150619983673	fix_pre	0		120	66.0	2.5	/experiments/AOT/AOT_stimuli/rescaled_final/0762_rv.mp4	0.0	382.6624069213867	1.000108003616333
68	361.2985191345215	pulse	0	t		66.0	2.5	/experiments/AOT/AOT_stimuli/rescaled_final/0762_rv.mp4	0.0	382.8458640575409	
68	362.11517000198364	movie	1		247	66.0	2.5	/experiments/AOT/AOT_stimuli/rescaled_final/0762_rv.mp4	0.0	383.66251492500305	2.49957013130188
68	362.8983290195465	pulse	1	t		66.0	2.5	/experiments/AOT/AOT_stimuli/rescaled_final/0762_rv.mp4	0.0	384.4456739425659	
68	364.4983251094818	pulse	1	t		66.0	2.5	/experiments/AOT/AOT_stimuli/rescaled_final/0762_rv.mp4	0.0	386.0456700325012	
68	364.6147401332855	fix_post	2		12	66.0	2.5	/experiments/AOT/AOT_stimuli/rescaled_final/0762_rv.mp4	0.0	386.16208505630493	0.10004782676696777
69	364.7147879600525	fix_pre	0		120	67.0	2.5	/experiments/AOT/AOT_stimuli/rescaled_final/2079_fw.mp4	0.0	386.2621328830719	0.999967098236084
69	365.7147550582886	movie	1		246	67.0	2.5	/experiments/AOT/AOT_stimuli/rescaled_final/2079_fw.mp4	0.0	387.262099981308	2.5000550746917725
69	366.0993859767914	pulse	1	t		67.0	2.5	/experiments/AOT/AOT_stimuli/rescaled_final/2079_fw.mp4	0.0	387.6467308998108	
69	367.69823813438416	pulse	1	t		67.0	2.5	/experiments/AOT/AOT_stimuli/rescaled_final/2079_fw.mp4	0.0	389.24558305740356	
69	368.21481013298035	fix_post	2		12	67.0	2.5	/experiments/AOT/AOT_stimuli/rescaled_final/2079_fw.mp4	0.0	389.76215505599976	0.09990692138671875
70	368.31471705436707	fix_pre	0		119	68.0	2.5	blank	1.0	389.8620619773865	0.9916720390319824
70	369.2982671260834	pulse	0	t		68.0	2.5	blank	1.0	390.8456120491028	
70	369.30638909339905	movie	1		301	68.0	2.5	blank	1.0	390.85373401641846	2.5083670616149902
70	370.8982319831848	pulse	1	t		68.0	2.5	blank	1.0	392.4455769062042	
70	371.81475615501404	fix_post	2		12	68.0	2.5	blank	1.0	393.36210107803345	0.10019898414611816
71	371.91495513916016	fix_pre	0		120	69.0	2.5	/experiments/AOT/AOT_stimuli/rescaled_final/0787_rv.mp4	0.0	393.46230006217957	0.9997949600219727
71	372.49823808670044	pulse	0	t		69.0	2.5	/experiments/AOT/AOT_stimuli/rescaled_final/0787_rv.mp4	0.0	394.04558300971985	
71	372.91475009918213	movie	1		245	69.0	2.5	/experiments/AOT/AOT_stimuli/rescaled_final/0787_rv.mp4	0.0	394.46209502220154	2.500005006790161
71	374.09820795059204	pulse	1	t		69.0	2.5	/experiments/AOT/AOT_stimuli/rescaled_final/0787_rv.mp4	0.0	395.64555287361145	
71	375.4147551059723	fix_post	2		12	69.0	2.5	/experiments/AOT/AOT_stimuli/rescaled_final/0787_rv.mp4	0.0	396.9621000289917	0.09996986389160156
72	375.5147249698639	fix_pre	0		120	70.0	2.5	/experiments/AOT/AOT_stimuli/rescaled_final/0293_rv.mp4	0.0	397.0620698928833	1.0000560283660889
72	375.69821405410767	pulse	0	t		70.0	2.5	/experiments/AOT/AOT_stimuli/rescaled_final/0293_rv.mp4	0.0	397.2455589771271	
72	376.51478099823	movie	1		243	70.0	2.5	/experiments/AOT/AOT_stimuli/rescaled_final/0293_rv.mp4	0.0	398.0621259212494	2.4995510578155518
72	377.298180103302	pulse	1	t		70.0	2.5	/experiments/AOT/AOT_stimuli/rescaled_final/0293_rv.mp4	0.0	398.8455250263214	
72	378.89667797088623	pulse	1	t		70.0	2.5	/experiments/AOT/AOT_stimuli/rescaled_final/0293_rv.mp4	0.0	400.44402289390564	
72	379.01433205604553	fix_post	2		12	70.0	2.5	/experiments/AOT/AOT_stimuli/rescaled_final/0293_rv.mp4	0.0	400.56167697906494	0.10040998458862305
73	379.11474204063416	fix_pre	0		120	71.0	2.5	/experiments/AOT/AOT_stimuli/rescaled_final/0181_rv.mp4	0.0	400.66208696365356	1.000006914138794
73	380.11474895477295	movie	1		248	71.0	2.5	/experiments/AOT/AOT_stimuli/rescaled_final/0181_rv.mp4	0.0	401.66209387779236	2.5000171661376953
73	380.49871301651	pulse	1	t		71.0	2.5	/experiments/AOT/AOT_stimuli/rescaled_final/0181_rv.mp4	0.0	402.0460579395294	
73	382.098256111145	pulse	1	t		71.0	2.5	/experiments/AOT/AOT_stimuli/rescaled_final/0181_rv.mp4	0.0	403.64560103416443	
73	382.61476612091064	fix_post	2		12	71.0	2.5	/experiments/AOT/AOT_stimuli/rescaled_final/0181_rv.mp4	0.0	404.16211104393005	0.09986400604248047
74	382.7146301269531	fix_pre	0		119	72.0	2.5	/experiments/AOT/AOT_stimuli/rescaled_final/0625_fw.mp4	0.0	404.26197504997253	0.9916889667510986
74	383.6982569694519	pulse	0	t		72.0	2.5	/experiments/AOT/AOT_stimuli/rescaled_final/0625_fw.mp4	0.0	405.2456018924713	
74	383.7063190937042	movie	1		246	72.0	2.5	/experiments/AOT/AOT_stimuli/rescaled_final/0625_fw.mp4	0.0	405.25366401672363	2.507962942123413
74	385.29805302619934	pulse	1	t		72.0	2.5	/experiments/AOT/AOT_stimuli/rescaled_final/0625_fw.mp4	0.0	406.84539794921875	
74	386.21428203582764	fix_post	2		12	72.0	2.5	/experiments/AOT/AOT_stimuli/rescaled_final/0625_fw.mp4	0.0	407.76162695884705	0.10036897659301758
75	386.31465101242065	fix_pre	0		120	73.0	2.5	/experiments/AOT/AOT_stimuli/rescaled_final/0145_rv.mp4	0.0	407.86199593544006	1.0000479221343994
75	386.89827704429626	pulse	0	t		73.0	2.5	/experiments/AOT/AOT_stimuli/rescaled_final/0145_rv.mp4	0.0	408.4456219673157	
75	387.31469893455505	movie	1		245	73.0	2.5	/experiments/AOT/AOT_stimuli/rescaled_final/0145_rv.mp4	0.0	408.86204385757446	2.4999940395355225
75	388.49828815460205	pulse	1	t		73.0	2.5	/experiments/AOT/AOT_stimuli/rescaled_final/0145_rv.mp4	0.0	410.04563307762146	
75	389.8146929740906	fix_post	2		12	73.0	2.5	/experiments/AOT/AOT_stimuli/rescaled_final/0145_rv.mp4	0.0	411.36203789711	0.10005807876586914
76	389.91475105285645	fix_pre	0		120	74.0	2.5	/experiments/AOT/AOT_stimuli/rescaled_final/0762_rv.mp4	0.0	411.46209597587585	1.0000240802764893
76	390.09819412231445	pulse	0	t		74.0	2.5	/experiments/AOT/AOT_stimuli/rescaled_final/0762_rv.mp4	0.0	411.64553904533386	
76	390.91477513313293	movie	1		245	74.0	2.5	/experiments/AOT/AOT_stimuli/rescaled_final/0762_rv.mp4	0.0	412.46212005615234	2.499945878982544
76	391.6981899738312	pulse	1	t		74.0	2.5	/experiments/AOT/AOT_stimuli/rescaled_final/0762_rv.mp4	0.0	413.2455348968506	
76	393.29812693595886	pulse	1	t		74.0	2.5	/experiments/AOT/AOT_stimuli/rescaled_final/0762_rv.mp4	0.0	414.84547185897827	
76	393.4147210121155	fix_post	2		12	74.0	2.5	/experiments/AOT/AOT_stimuli/rescaled_final/0762_rv.mp4	0.0	414.9620659351349	0.0999460220336914
77	393.51466703414917	fix_pre	0		120	75.0	2.5	/experiments/AOT/AOT_stimuli/rescaled_final/0998_rv.mp4	0.0	415.0620119571686	1.0000231266021729
77	394.51469016075134	movie	1		243	75.0	2.5	/experiments/AOT/AOT_stimuli/rescaled_final/0998_rv.mp4	0.0	416.06203508377075	2.5000298023223877
77	394.8980679512024	pulse	1	t		75.0	2.5	/experiments/AOT/AOT_stimuli/rescaled_final/0998_rv.mp4	0.0	416.4454128742218	
77	396.49815106391907	pulse	1	t		75.0	2.5	/experiments/AOT/AOT_stimuli/rescaled_final/0998_rv.mp4	0.0	418.0454959869385	
77	397.01471996307373	fix_post	2		12	75.0	2.5	/experiments/AOT/AOT_stimuli/rescaled_final/0998_rv.mp4	0.0	418.56206488609314	0.09999513626098633
78	397.1147150993347	fix_pre	0		119	76.0	2.5	/experiments/AOT/AOT_stimuli/rescaled_final/0687_fw.mp4	0.0	418.6620600223541	0.9916019439697266
78	398.09811210632324	pulse	0	t		76.0	2.5	/experiments/AOT/AOT_stimuli/rescaled_final/0687_fw.mp4	0.0	419.64545702934265	
78	398.10631704330444	movie	1		245	76.0	2.5	/experiments/AOT/AOT_stimuli/rescaled_final/0687_fw.mp4	0.0	419.65366196632385	2.5083489418029785
78	399.69772696495056	pulse	1	t		76.0	2.5	/experiments/AOT/AOT_stimuli/rescaled_final/0687_fw.mp4	0.0	421.24507188796997	
78	400.6146659851074	fix_post	2		12	76.0	2.5	/experiments/AOT/AOT_stimuli/rescaled_final/0687_fw.mp4	0.0	422.16201090812683	0.10004711151123047
79	400.71471309661865	fix_pre	0		120	77.0	2.5	blank	1.0	422.26205801963806	0.999953031539917
79	401.2981700897217	pulse	0	t		77.0	2.5	blank	1.0	422.8455150127411	
79	401.71466612815857	movie	1		300	77.0	2.5	blank	1.0	423.262011051178	2.500203847885132
79	402.89810705184937	pulse	1	t		77.0	2.5	blank	1.0	424.4454519748688	
79	404.2148699760437	fix_post	2		12	77.0	2.5	blank	1.0	425.7622148990631	0.09968018531799316
80	404.3145501613617	fix_pre	0		120	78.0	2.5	/experiments/AOT/AOT_stimuli/rescaled_final/1665_rv.mp4	0.0	425.8618950843811	1.0000388622283936
80	404.4981770515442	pulse	0	t		78.0	2.5	/experiments/AOT/AOT_stimuli/rescaled_final/1665_rv.mp4	0.0	426.0455219745636	
80	405.3145890235901	movie	1		243	78.0	2.5	/experiments/AOT/AOT_stimuli/rescaled_final/1665_rv.mp4	0.0	426.8619339466095	2.5000109672546387
80	406.0981271266937	pulse	1	t		78.0	2.5	/experiments/AOT/AOT_stimuli/rescaled_final/1665_rv.mp4	0.0	427.64547204971313	
80	407.6964249610901	pulse	1	t		78.0	2.5	/experiments/AOT/AOT_stimuli/rescaled_final/1665_rv.mp4	0.0	429.2437698841095	
80	407.8145999908447	fix_post	2		12	78.0	2.5	/experiments/AOT/AOT_stimuli/rescaled_final/1665_rv.mp4	0.0	429.36194491386414	0.10000896453857422
81	407.9146089553833	fix_pre	0		120	79.0	2.5	/experiments/AOT/AOT_stimuli/rescaled_final/1093_fw.mp4	0.0	429.4619538784027	0.9999220371246338
81	408.91453099250793	movie	1		245	79.0	2.5	/experiments/AOT/AOT_stimuli/rescaled_final/1093_fw.mp4	0.0	430.46187591552734	2.5000710487365723
81	409.29832696914673	pulse	1	t		79.0	2.5	/experiments/AOT/AOT_stimuli/rescaled_final/1093_fw.mp4	0.0	430.84567189216614	
81	410.89800906181335	pulse	1	t		79.0	2.5	/experiments/AOT/AOT_stimuli/rescaled_final/1093_fw.mp4	0.0	432.44535398483276	
81	411.4146020412445	fix_post	2		12	79.0	2.5	/experiments/AOT/AOT_stimuli/rescaled_final/1093_fw.mp4	0.0	432.9619469642639	0.09997200965881348
82	411.5145740509033	fix_pre	0		119	80.0	2.5	/experiments/AOT/AOT_stimuli/rescaled_final/1183_rv.mp4	0.0	433.06191897392273	0.9917120933532715
82	412.49818205833435	pulse	0	t		80.0	2.5	/experiments/AOT/AOT_stimuli/rescaled_final/1183_rv.mp4	0.0	434.04552698135376	
82	412.5062861442566	movie	1		248	80.0	2.5	/experiments/AOT/AOT_stimuli/rescaled_final/1183_rv.mp4	0.0	434.053631067276	2.5078299045562744
82	414.0980610847473	pulse	1	t		80.0	2.5	/experiments/AOT/AOT_stimuli/rescaled_final/1183_rv.mp4	0.0	435.6454060077667	
82	415.01411604881287	fix_post	2		12	80.0	2.5	/experiments/AOT/AOT_stimuli/rescaled_final/1183_rv.mp4	0.0	436.5614609718323	0.10002708435058594
83	415.11414313316345	fix_pre	0		120	81.0	2.5	/experiments/AOT/AOT_stimuli/rescaled_final/1768_fw.mp4	0.0	436.66148805618286	1.0001089572906494
83	415.69766998291016	pulse	0	t		81.0	2.5	/experiments/AOT/AOT_stimuli/rescaled_final/1768_fw.mp4	0.0	437.24501490592957	
83	416.1142520904541	movie	1		243	81.0	2.5	/experiments/AOT/AOT_stimuli/rescaled_final/1768_fw.mp4	0.0	437.6615970134735	2.5003650188446045
83	417.2983570098877	pulse	1	t		81.0	2.5	/experiments/AOT/AOT_stimuli/rescaled_final/1768_fw.mp4	0.0	438.8457019329071	
83	418.6146171092987	fix_post	2		12	81.0	2.5	/experiments/AOT/AOT_stimuli/rescaled_final/1768_fw.mp4	0.0	440.1619620323181	0.09996604919433594
84	418.71458315849304	fix_pre	0		120	82.0	2.5	/experiments/AOT/AOT_stimuli/rescaled_final/2013_rv.mp4	0.0	440.26192808151245	0.9996078014373779
84	418.8980779647827	pulse	0	t		82.0	2.5	/experiments/AOT/AOT_stimuli/rescaled_final/2013_rv.mp4	0.0	440.4454228878021	
84	419.7141909599304	movie	1		244	82.0	2.5	/experiments/AOT/AOT_stimuli/rescaled_final/2013_rv.mp4	0.0	441.26153588294983	2.500333070755005
84	420.4979519844055	pulse	1	t		82.0	2.5	/experiments/AOT/AOT_stimuli/rescaled_final/2013_rv.mp4	0.0	442.0452969074249	
84	422.0966601371765	pulse	1	t		82.0	2.5	/experiments/AOT/AOT_stimuli/rescaled_final/2013_rv.mp4	0.0	443.6440050601959	
84	422.2145240306854	fix_post	2		12	82.0	2.5	/experiments/AOT/AOT_stimuli/rescaled_final/2013_rv.mp4	0.0	443.76186895370483	0.1001279354095459
85	422.31465196609497	fix_pre	0		120	83.0	2.5	blank	1.0	443.8619968891144	0.999798059463501
85	423.3144500255585	movie	1		300	83.0	2.5	blank	1.0	444.8617949485779	2.499983072280884
85	423.6979420185089	pulse	1	t		83.0	2.5	blank	1.0	445.2452869415283	
85	425.298043012619	pulse	1	t		83.0	2.5	blank	1.0	446.8453879356384	
85	425.81443309783936	fix_post	2		12	83.0	2.5	blank	1.0	447.36177802085876	0.1000368595123291
87	425.9144699573517	stim	0		1716					447.4618148803711	14.299996137619019
87	426.89809107780457	pulse	0	t						448.445436000824	
87	428.4980731010437	pulse	0	t						450.0454180240631	
87	430.09803795814514	pulse	0	t						451.64538288116455	
87	431.6979739665985	pulse	0	t						453.2453188896179	
87	433.2979941368103	pulse	0	t						454.8453390598297	
87	434.89787197113037	pulse	0	t						456.4452168941498	
87	436.4978859424591	pulse	0	t						458.0452308654785	
87	438.0978751182556	pulse	0	t						459.645220041275	
87	439.69792008399963	pulse	0	t						461.24526500701904	
