trial_nr	onset	event_type	phase	response	nr_frames	movie_index	movie_duration	movie_file	blank	onset_abs	duration
0	0.15827465057373047	stim	0		4					16.2601420879364	0.03311729431152344
0	0.18326449394226074	response	0	space						16.28513193130493	
1	0.1913919448852539	stim	0		4712					16.293259382247925	39.28106164932251
1	39.46263575553894	pulse	0	t						55.56450319290161	
1	39.472453594207764	stim	1		1715					55.574321031570435	14.302017450332642
1	41.05607032775879	pulse	1	t						57.15793776512146	
1	42.6563835144043	pulse	1	t						58.75825095176697	
1	44.25657033920288	pulse	1	t						60.35843777656555	
1	45.85685420036316	pulse	1	t						61.95872163772583	
1	47.45703458786011	pulse	1	t						63.55890202522278	
1	49.05730104446411	pulse	1	t						65.15916848182678	
1	50.657525300979614	pulse	1	t						66.75939273834229	
1	52.257739305496216	pulse	1	t						68.35960674285889	
2	53.774471044540405	fix_pre	0		11	0.0	2.5	/experiments/knapen_AOT/AOT_stimuli/rescaled_final/1801_rv.mp4	0.0	69.87633848190308	0.10840630531311035
2	53.85801863670349	pulse	0	t		0.0	2.5	/experiments/knapen_AOT/AOT_stimuli/rescaled_final/1801_rv.mp4	0.0	69.95988607406616	
2	53.882877349853516	movie	1		266	0.0	2.5	/experiments/knapen_AOT/AOT_stimuli/rescaled_final/1801_rv.mp4	0.0	69.98474478721619	2.492009162902832
2	55.4587459564209	pulse	1	t		0.0	2.5	/experiments/knapen_AOT/AOT_stimuli/rescaled_final/1801_rv.mp4	0.0	71.56061339378357	
2	56.37488651275635	fix_post	2		12	0.0	2.5	/experiments/knapen_AOT/AOT_stimuli/rescaled_final/1801_rv.mp4	0.0	72.47675395011902	0.10003161430358887
3	56.47491812705994	fix_pre	0		120	1.0	2.5	/experiments/knapen_AOT/AOT_stimuli/rescaled_final/1087_rv.mp4	0.0	72.57678556442261	1.0084397792816162
3	57.05860710144043	pulse	0	t		1.0	2.5	/experiments/knapen_AOT/AOT_stimuli/rescaled_final/1087_rv.mp4	0.0	73.1604745388031	
3	57.48335790634155	movie	1		266	1.0	2.5	/experiments/knapen_AOT/AOT_stimuli/rescaled_final/1087_rv.mp4	0.0	73.58522534370422	2.49204158782959
3	58.65874910354614	pulse	1	t		1.0	2.5	/experiments/knapen_AOT/AOT_stimuli/rescaled_final/1087_rv.mp4	0.0	74.76061654090881	
3	59.97539949417114	fix_post	2		12	1.0	2.5	/experiments/knapen_AOT/AOT_stimuli/rescaled_final/1087_rv.mp4	0.0	76.07726693153381	0.10004925727844238
4	60.075448751449585	fix_pre	0		120	2.0	2.5	/experiments/knapen_AOT/AOT_stimuli/rescaled_final/0012_fw.mp4	0.0	76.17731618881226	1.0085582733154297
4	60.25905919075012	pulse	0	t		2.0	2.5	/experiments/knapen_AOT/AOT_stimuli/rescaled_final/0012_fw.mp4	0.0	76.3609266281128	
4	61.084007024765015	movie	1		266	2.0	2.5	/experiments/knapen_AOT/AOT_stimuli/rescaled_final/0012_fw.mp4	0.0	77.18587446212769	2.4919447898864746
4	61.856998443603516	pulse	1	t		2.0	2.5	/experiments/knapen_AOT/AOT_stimuli/rescaled_final/0012_fw.mp4	0.0	77.95886588096619	
4	63.45731592178345	pulse	1	t		2.0	2.5	/experiments/knapen_AOT/AOT_stimuli/rescaled_final/0012_fw.mp4	0.0	79.55918335914612	
4	63.57595181465149	fix_post	2		12	2.0	2.5	/experiments/knapen_AOT/AOT_stimuli/rescaled_final/0012_fw.mp4	0.0	79.67781925201416	0.10004091262817383
5	63.67599272727966	fix_pre	0		120	3.0	2.5	/experiments/knapen_AOT/AOT_stimuli/rescaled_final/2092_fw.mp4	0.0	79.77786016464233	1.0084693431854248
5	64.68446207046509	movie	1		281	3.0	2.5	/experiments/knapen_AOT/AOT_stimuli/rescaled_final/2092_fw.mp4	0.0	80.78632950782776	2.4920427799224854
5	65.05802416801453	pulse	1	t		3.0	2.5	/experiments/knapen_AOT/AOT_stimuli/rescaled_final/2092_fw.mp4	0.0	81.1598916053772	
5	66.65767741203308	pulse	1	t		3.0	2.5	/experiments/knapen_AOT/AOT_stimuli/rescaled_final/2092_fw.mp4	0.0	82.75954484939575	
5	67.17650485038757	fix_post	2		12	3.0	2.5	/experiments/knapen_AOT/AOT_stimuli/rescaled_final/2092_fw.mp4	0.0	83.27837228775024	0.10000324249267578
6	67.27650809288025	fix_pre	0		119	4.0	2.5	/experiments/knapen_AOT/AOT_stimuli/rescaled_final/1767_fw.mp4	0.0	83.37837553024292	1.0002999305725098
6	68.25226855278015	pulse	0	t		4.0	2.5	/experiments/knapen_AOT/AOT_stimuli/rescaled_final/1767_fw.mp4	0.0	84.35413599014282	
6	68.27680802345276	movie	1		278	4.0	2.5	/experiments/knapen_AOT/AOT_stimuli/rescaled_final/1767_fw.mp4	0.0	84.37867546081543	2.500234842300415
6	69.85259246826172	pulse	1	t		4.0	2.5	/experiments/knapen_AOT/AOT_stimuli/rescaled_final/1767_fw.mp4	0.0	85.95445990562439	
6	70.77704286575317	fix_post	2		12	4.0	2.5	/experiments/knapen_AOT/AOT_stimuli/rescaled_final/1767_fw.mp4	0.0	86.87891030311584	0.10001492500305176
7	70.87705779075623	fix_pre	0		120	5.0	2.5	blank	1.0	86.9789252281189	1.0001611709594727
7	71.45240831375122	pulse	0	t		5.0	2.5	blank	1.0	87.55427575111389	
7	71.8772189617157	movie	1		300	5.0	2.5	blank	1.0	87.97908639907837	2.5004653930664062
7	73.0525951385498	pulse	1	t		5.0	2.5	blank	1.0	89.15446257591248	
7	74.3776843547821	fix_post	2		12	5.0	2.5	blank	1.0	90.47955179214478	0.09991884231567383
8	74.47760319709778	fix_pre	0		120	6.0	2.5	/experiments/knapen_AOT/AOT_stimuli/rescaled_final/1582_rv.mp4	0.0	90.57947063446045	1.0085556507110596
8	74.6529061794281	pulse	0	t		6.0	2.5	/experiments/knapen_AOT/AOT_stimuli/rescaled_final/1582_rv.mp4	0.0	90.75477361679077	
8	75.48615884780884	movie	1		263	6.0	2.5	/experiments/knapen_AOT/AOT_stimuli/rescaled_final/1582_rv.mp4	0.0	91.58802628517151	2.4919917583465576
8	76.25241184234619	pulse	1	t		6.0	2.5	/experiments/knapen_AOT/AOT_stimuli/rescaled_final/1582_rv.mp4	0.0	92.35427927970886	
8	77.8536422252655	pulse	1	t		6.0	2.5	/experiments/knapen_AOT/AOT_stimuli/rescaled_final/1582_rv.mp4	0.0	93.95550966262817	
8	77.9781506061554	fix_post	2		12	6.0	2.5	/experiments/knapen_AOT/AOT_stimuli/rescaled_final/1582_rv.mp4	0.0	94.08001804351807	0.10000896453857422
9	78.07815957069397	fix_pre	0		120	7.0	2.5	/experiments/knapen_AOT/AOT_stimuli/rescaled_final/1767_fw.mp4	0.0	94.18002700805664	1.0084991455078125
9	79.08665871620178	movie	1		275	7.0	2.5	/experiments/knapen_AOT/AOT_stimuli/rescaled_final/1767_fw.mp4	0.0	95.18852615356445	2.492124557495117
9	79.45281052589417	pulse	1	t		7.0	2.5	/experiments/knapen_AOT/AOT_stimuli/rescaled_final/1767_fw.mp4	0.0	95.55467796325684	
9	81.05393648147583	pulse	1	t		7.0	2.5	/experiments/knapen_AOT/AOT_stimuli/rescaled_final/1767_fw.mp4	0.0	97.1558039188385	
9	81.5787832736969	fix_post	2		12	7.0	2.5	/experiments/knapen_AOT/AOT_stimuli/rescaled_final/1767_fw.mp4	0.0	97.68065071105957	0.09988784790039062
10	81.67867112159729	fix_pre	0		118	8.0	2.5	/experiments/knapen_AOT/AOT_stimuli/rescaled_final/0262_fw.mp4	0.0	97.78053855895996	0.9918386936187744
10	82.65402674674988	pulse	0	t		8.0	2.5	/experiments/knapen_AOT/AOT_stimuli/rescaled_final/0262_fw.mp4	0.0	98.75589418411255	
10	82.67050981521606	movie	1		283	8.0	2.5	/experiments/knapen_AOT/AOT_stimuli/rescaled_final/0262_fw.mp4	0.0	98.77237725257874	2.5003550052642822
10	84.25252604484558	pulse	1	t		8.0	2.5	/experiments/knapen_AOT/AOT_stimuli/rescaled_final/0262_fw.mp4	0.0	100.35439348220825	
10	85.17086482048035	fix_post	2		12	8.0	2.5	/experiments/knapen_AOT/AOT_stimuli/rescaled_final/0262_fw.mp4	0.0	101.27273225784302	0.1000206470489502
11	85.2708854675293	fix_pre	0		120	9.0	2.5	/experiments/knapen_AOT/AOT_stimuli/rescaled_final/1820_rv.mp4	0.0	101.37275290489197	1.0084950923919678
11	85.85465049743652	pulse	0	t		9.0	2.5	/experiments/knapen_AOT/AOT_stimuli/rescaled_final/1820_rv.mp4	0.0	101.9565179347992	
11	86.27938055992126	movie	1		271	9.0	2.5	/experiments/knapen_AOT/AOT_stimuli/rescaled_final/1820_rv.mp4	0.0	102.38124799728394	2.492011785507202
11	87.45259165763855	pulse	1	t		9.0	2.5	/experiments/knapen_AOT/AOT_stimuli/rescaled_final/1820_rv.mp4	0.0	103.55445909500122	
11	88.77139234542847	fix_post	2		12	9.0	2.5	/experiments/knapen_AOT/AOT_stimuli/rescaled_final/1820_rv.mp4	0.0	104.87325978279114	0.10012364387512207
12	88.87151598930359	fix_pre	0		120	10.0	2.5	/experiments/knapen_AOT/AOT_stimuli/rescaled_final/0386_rv.mp4	0.0	104.97338342666626	1.0084280967712402
12	89.05495715141296	pulse	0	t		10.0	2.5	/experiments/knapen_AOT/AOT_stimuli/rescaled_final/0386_rv.mp4	0.0	105.15682458877563	
12	89.87994408607483	movie	1		276	10.0	2.5	/experiments/knapen_AOT/AOT_stimuli/rescaled_final/0386_rv.mp4	0.0	105.9818115234375	2.4920060634613037
12	90.65458917617798	pulse	1	t		10.0	2.5	/experiments/knapen_AOT/AOT_stimuli/rescaled_final/0386_rv.mp4	0.0	106.75645661354065	
12	92.25571060180664	pulse	1	t		10.0	2.5	/experiments/knapen_AOT/AOT_stimuli/rescaled_final/0386_rv.mp4	0.0	108.35757803916931	
12	92.37195014953613	fix_post	2		12	10.0	2.5	/experiments/knapen_AOT/AOT_stimuli/rescaled_final/0386_rv.mp4	0.0	108.4738175868988	0.1000065803527832
13	92.47195672988892	fix_pre	0		120	11.0	2.5	/experiments/knapen_AOT/AOT_stimuli/rescaled_final/0387_fw.mp4	0.0	108.57382416725159	1.0084879398345947
13	93.48044466972351	movie	1		256	11.0	2.5	/experiments/knapen_AOT/AOT_stimuli/rescaled_final/0387_fw.mp4	0.0	109.58231210708618	2.492096185684204
13	93.85416030883789	pulse	1	t		11.0	2.5	/experiments/knapen_AOT/AOT_stimuli/rescaled_final/0387_fw.mp4	0.0	109.95602774620056	
13	95.45463490486145	pulse	1	t		11.0	2.5	/experiments/knapen_AOT/AOT_stimuli/rescaled_final/0387_fw.mp4	0.0	111.55650234222412	
13	95.97254085540771	fix_post	2		12	11.0	2.5	/experiments/knapen_AOT/AOT_stimuli/rescaled_final/0387_fw.mp4	0.0	112.07440829277039	0.10003852844238281
14	96.0725793838501	fix_pre	0		119	12.0	2.5	blank	1.0	112.17444682121277	0.9917817115783691
14	97.05628204345703	pulse	0	t		12.0	2.5	blank	1.0	113.1581494808197	
14	97.06436109542847	movie	1		301	12.0	2.5	blank	1.0	113.16622853279114	2.508687734603882
14	98.65638899803162	pulse	1	t		12.0	2.5	blank	1.0	114.75825643539429	
14	99.57304883003235	fix_post	2		12	12.0	2.5	blank	1.0	115.67491626739502	0.1001286506652832
15	99.67317748069763	fix_pre	0		120	13.0	2.5	/experiments/knapen_AOT/AOT_stimuli/rescaled_final/2091_fw.mp4	0.0	115.7750449180603	1.0083556175231934
15	100.25672817230225	pulse	0	t		13.0	2.5	/experiments/knapen_AOT/AOT_stimuli/rescaled_final/2091_fw.mp4	0.0	116.35859560966492	
15	100.68153309822083	movie	1		264	13.0	2.5	/experiments/knapen_AOT/AOT_stimuli/rescaled_final/2091_fw.mp4	0.0	116.7834005355835	2.4921021461486816
15	101.85618233680725	pulse	1	t		13.0	2.5	/experiments/knapen_AOT/AOT_stimuli/rescaled_final/2091_fw.mp4	0.0	117.95804977416992	
15	103.1736352443695	fix_post	2		12	13.0	2.5	/experiments/knapen_AOT/AOT_stimuli/rescaled_final/2091_fw.mp4	0.0	119.27550268173218	0.10001707077026367
16	103.27365231513977	fix_pre	0		120	14.0	2.5	/experiments/knapen_AOT/AOT_stimuli/rescaled_final/0677_fw.mp4	0.0	119.37551975250244	1.0084996223449707
16	103.45715522766113	pulse	0	t		14.0	2.5	/experiments/knapen_AOT/AOT_stimuli/rescaled_final/0677_fw.mp4	0.0	119.5590226650238	
16	104.28215193748474	movie	1		270	14.0	2.5	/experiments/knapen_AOT/AOT_stimuli/rescaled_final/0677_fw.mp4	0.0	120.38401937484741	2.4919540882110596
16	105.05510473251343	pulse	1	t		14.0	2.5	/experiments/knapen_AOT/AOT_stimuli/rescaled_final/0677_fw.mp4	0.0	121.1569721698761	
16	106.65802145004272	pulse	1	t		14.0	2.5	/experiments/knapen_AOT/AOT_stimuli/rescaled_final/0677_fw.mp4	0.0	122.7598888874054	
16	106.7741060256958	fix_post	2		12	14.0	2.5	/experiments/knapen_AOT/AOT_stimuli/rescaled_final/0677_fw.mp4	0.0	122.87597346305847	0.10001826286315918
17	106.87412428855896	fix_pre	0		120	15.0	2.5	/experiments/knapen_AOT/AOT_stimuli/rescaled_final/1780_rv.mp4	0.0	122.97599172592163	1.0086262226104736
17	107.88275051116943	movie	1		272	15.0	2.5	/experiments/knapen_AOT/AOT_stimuli/rescaled_final/1780_rv.mp4	0.0	123.9846179485321	2.491960048675537
17	108.25801396369934	pulse	1	t		15.0	2.5	/experiments/knapen_AOT/AOT_stimuli/rescaled_final/1780_rv.mp4	0.0	124.35988140106201	
17	109.8561601638794	pulse	1	t		15.0	2.5	/experiments/knapen_AOT/AOT_stimuli/rescaled_final/1780_rv.mp4	0.0	125.95802760124207	
17	110.37471055984497	fix_post	2		12	15.0	2.5	/experiments/knapen_AOT/AOT_stimuli/rescaled_final/1780_rv.mp4	0.0	126.47657799720764	0.10000109672546387
18	110.47471165657043	fix_pre	0		119	16.0	2.5	/experiments/knapen_AOT/AOT_stimuli/rescaled_final/0430_rv.mp4	0.0	126.5765790939331	1.000133752822876
18	111.45839524269104	pulse	0	t		16.0	2.5	/experiments/knapen_AOT/AOT_stimuli/rescaled_final/0430_rv.mp4	0.0	127.56026268005371	
18	111.47484540939331	movie	1		284	16.0	2.5	/experiments/knapen_AOT/AOT_stimuli/rescaled_final/0430_rv.mp4	0.0	127.57671284675598	2.500393867492676
18	113.05716395378113	pulse	1	t		16.0	2.5	/experiments/knapen_AOT/AOT_stimuli/rescaled_final/0430_rv.mp4	0.0	129.1590313911438	
18	113.97523927688599	fix_post	2		12	16.0	2.5	/experiments/knapen_AOT/AOT_stimuli/rescaled_final/0430_rv.mp4	0.0	130.07710671424866	0.1000831127166748
19	114.07532238960266	fix_pre	0		120	17.0	2.5	/experiments/knapen_AOT/AOT_stimuli/rescaled_final/0072_fw.mp4	0.0	130.17718982696533	1.008413314819336
19	114.65904593467712	pulse	0	t		17.0	2.5	/experiments/knapen_AOT/AOT_stimuli/rescaled_final/0072_fw.mp4	0.0	130.7609133720398	
19	115.083735704422	movie	1		276	17.0	2.5	/experiments/knapen_AOT/AOT_stimuli/rescaled_final/0072_fw.mp4	0.0	131.18560314178467	2.492000102996826
19	116.25738167762756	pulse	1	t		17.0	2.5	/experiments/knapen_AOT/AOT_stimuli/rescaled_final/0072_fw.mp4	0.0	132.35924911499023	
19	117.57573580741882	fix_post	2		12	17.0	2.5	/experiments/knapen_AOT/AOT_stimuli/rescaled_final/0072_fw.mp4	0.0	133.6776032447815	0.10002946853637695
20	117.6757652759552	fix_pre	0		120	18.0	2.5	/experiments/knapen_AOT/AOT_stimuli/rescaled_final/0806_rv.mp4	0.0	133.77763271331787	1.0085458755493164
20	117.85161423683167	pulse	0	t		18.0	2.5	/experiments/knapen_AOT/AOT_stimuli/rescaled_final/0806_rv.mp4	0.0	133.95348167419434	
20	118.68431115150452	movie	1		284	18.0	2.5	/experiments/knapen_AOT/AOT_stimuli/rescaled_final/0806_rv.mp4	0.0	134.7861785888672	2.4919662475585938
20	119.45776653289795	pulse	1	t		18.0	2.5	/experiments/knapen_AOT/AOT_stimuli/rescaled_final/0806_rv.mp4	0.0	135.55963397026062	
20	121.05163621902466	pulse	1	t		18.0	2.5	/experiments/knapen_AOT/AOT_stimuli/rescaled_final/0806_rv.mp4	0.0	137.15350365638733	
20	121.17627739906311	fix_post	2		12	18.0	2.5	/experiments/knapen_AOT/AOT_stimuli/rescaled_final/0806_rv.mp4	0.0	137.27814483642578	0.10001921653747559
21	121.27629661560059	fix_pre	0		120	19.0	2.5	blank	1.0	137.37816405296326	1.0001647472381592
21	122.27646136283875	movie	1		300	19.0	2.5	blank	1.0	138.37832880020142	2.5003511905670166
21	122.65172576904297	pulse	1	t		19.0	2.5	blank	1.0	138.75359320640564	
21	124.25220656394958	pulse	1	t		19.0	2.5	blank	1.0	140.35407400131226	
21	124.77681255340576	fix_post	2		12	19.0	2.5	blank	1.0	140.87867999076843	0.10010290145874023
22	124.8769154548645	fix_pre	0		118	20.0	2.5	/experiments/knapen_AOT/AOT_stimuli/rescaled_final/0417_rv.mp4	0.0	140.97878289222717	0.991715669631958
22	125.85221552848816	pulse	0	t		20.0	2.5	/experiments/knapen_AOT/AOT_stimuli/rescaled_final/0417_rv.mp4	0.0	141.95408296585083	
22	125.86863112449646	movie	1		260	20.0	2.5	/experiments/knapen_AOT/AOT_stimuli/rescaled_final/0417_rv.mp4	0.0	141.97049856185913	2.500399112701416
22	127.45253467559814	pulse	1	t		20.0	2.5	/experiments/knapen_AOT/AOT_stimuli/rescaled_final/0417_rv.mp4	0.0	143.55440211296082	
22	128.36903023719788	fix_post	2		12	20.0	2.5	/experiments/knapen_AOT/AOT_stimuli/rescaled_final/0417_rv.mp4	0.0	144.47089767456055	0.1000356674194336
23	128.4690659046173	fix_pre	0		120	21.0	2.5	/experiments/knapen_AOT/AOT_stimuli/rescaled_final/0209_rv.mp4	0.0	144.57093334197998	1.0084607601165771
23	129.05278134346008	pulse	0	t		21.0	2.5	/experiments/knapen_AOT/AOT_stimuli/rescaled_final/0209_rv.mp4	0.0	145.15464878082275	
23	129.4775266647339	movie	1		275	21.0	2.5	/experiments/knapen_AOT/AOT_stimuli/rescaled_final/0209_rv.mp4	0.0	145.57939410209656	2.4920339584350586
23	130.65293741226196	pulse	1	t		21.0	2.5	/experiments/knapen_AOT/AOT_stimuli/rescaled_final/0209_rv.mp4	0.0	146.75480484962463	
23	131.96956062316895	fix_post	2		12	21.0	2.5	/experiments/knapen_AOT/AOT_stimuli/rescaled_final/0209_rv.mp4	0.0	148.07142806053162	0.10001373291015625
24	132.0695743560791	fix_pre	0		120	22.0	2.5	/experiments/knapen_AOT/AOT_stimuli/rescaled_final/1164_rv.mp4	0.0	148.17144179344177	1.0085082054138184
24	132.25329113006592	pulse	0	t		22.0	2.5	/experiments/knapen_AOT/AOT_stimuli/rescaled_final/1164_rv.mp4	0.0	148.3551585674286	
24	133.07808256149292	movie	1		265	22.0	2.5	/experiments/knapen_AOT/AOT_stimuli/rescaled_final/1164_rv.mp4	0.0	149.1799499988556	2.492076873779297
24	133.85300517082214	pulse	1	t		22.0	2.5	/experiments/knapen_AOT/AOT_stimuli/rescaled_final/1164_rv.mp4	0.0	149.95487260818481	
24	135.45362663269043	pulse	1	t		22.0	2.5	/experiments/knapen_AOT/AOT_stimuli/rescaled_final/1164_rv.mp4	0.0	151.5554940700531	
24	135.57015943527222	fix_post	2		12	22.0	2.5	/experiments/knapen_AOT/AOT_stimuli/rescaled_final/1164_rv.mp4	0.0	151.6720268726349	0.10009431838989258
25	135.6702537536621	fix_pre	0		120	23.0	2.5	/experiments/knapen_AOT/AOT_stimuli/rescaled_final/1258_fw.mp4	0.0	151.77212119102478	1.0083882808685303
25	136.67864203453064	movie	1		270	23.0	2.5	/experiments/knapen_AOT/AOT_stimuli/rescaled_final/1258_fw.mp4	0.0	152.7805094718933	2.4920148849487305
25	137.05243229866028	pulse	1	t		23.0	2.5	/experiments/knapen_AOT/AOT_stimuli/rescaled_final/1258_fw.mp4	0.0	153.15429973602295	
25	138.652193069458	pulse	1	t		23.0	2.5	/experiments/knapen_AOT/AOT_stimuli/rescaled_final/1258_fw.mp4	0.0	154.75406050682068	
25	139.17065691947937	fix_post	2		12	23.0	2.5	/experiments/knapen_AOT/AOT_stimuli/rescaled_final/1258_fw.mp4	0.0	155.27252435684204	0.10005688667297363
26	139.27071380615234	fix_pre	0		119	24.0	2.5	/experiments/knapen_AOT/AOT_stimuli/rescaled_final/1371_rv.mp4	0.0	155.37258124351501	1.0001270771026611
26	140.25445771217346	pulse	0	t		24.0	2.5	/experiments/knapen_AOT/AOT_stimuli/rescaled_final/1371_rv.mp4	0.0	156.35632514953613	
26	140.270840883255	movie	1		276	24.0	2.5	/experiments/knapen_AOT/AOT_stimuli/rescaled_final/1371_rv.mp4	0.0	156.37270832061768	2.5003864765167236
26	141.85341811180115	pulse	1	t		24.0	2.5	/experiments/knapen_AOT/AOT_stimuli/rescaled_final/1371_rv.mp4	0.0	157.95528554916382	
26	142.77122735977173	fix_post	2		12	24.0	2.5	/experiments/knapen_AOT/AOT_stimuli/rescaled_final/1371_rv.mp4	0.0	158.8730947971344	0.10002279281616211
27	142.8712501525879	fix_pre	0		120	25.0	2.5	/experiments/knapen_AOT/AOT_stimuli/rescaled_final/0819_fw.mp4	0.0	158.97311758995056	1.0084583759307861
27	143.4550371170044	pulse	0	t		25.0	2.5	/experiments/knapen_AOT/AOT_stimuli/rescaled_final/0819_fw.mp4	0.0	159.55690455436707	
27	143.87970852851868	movie	1		262	25.0	2.5	/experiments/knapen_AOT/AOT_stimuli/rescaled_final/0819_fw.mp4	0.0	159.98157596588135	2.4920120239257812
27	145.05476140975952	pulse	1	t		25.0	2.5	/experiments/knapen_AOT/AOT_stimuli/rescaled_final/0819_fw.mp4	0.0	161.1566288471222	
27	146.37172055244446	fix_post	2		12	25.0	2.5	/experiments/knapen_AOT/AOT_stimuli/rescaled_final/0819_fw.mp4	0.0	162.47358798980713	0.10006022453308105
28	146.47178077697754	fix_pre	0		120	26.0	2.5	/experiments/knapen_AOT/AOT_stimuli/rescaled_final/0005_rv.mp4	0.0	162.5736482143402	1.008479118347168
28	146.6553235054016	pulse	0	t		26.0	2.5	/experiments/knapen_AOT/AOT_stimuli/rescaled_final/0005_rv.mp4	0.0	162.75719094276428	
28	147.4802598953247	movie	1		263	26.0	2.5	/experiments/knapen_AOT/AOT_stimuli/rescaled_final/0005_rv.mp4	0.0	163.58212733268738	2.4920237064361572
28	148.25478100776672	pulse	1	t		26.0	2.5	/experiments/knapen_AOT/AOT_stimuli/rescaled_final/0005_rv.mp4	0.0	164.3566484451294	
28	149.85450339317322	pulse	1	t		26.0	2.5	/experiments/knapen_AOT/AOT_stimuli/rescaled_final/0005_rv.mp4	0.0	165.9563708305359	
28	149.97228360176086	fix_post	2		12	26.0	2.5	/experiments/knapen_AOT/AOT_stimuli/rescaled_final/0005_rv.mp4	0.0	166.07415103912354	0.10007119178771973
29	150.07235479354858	fix_pre	0		120	27.0	2.5	blank	1.0	166.17422223091125	1.0000920295715332
29	151.07244682312012	movie	1		300	27.0	2.5	blank	1.0	167.1743142604828	2.5003609657287598
29	151.45630049705505	pulse	1	t		27.0	2.5	blank	1.0	167.55816793441772	
29	153.05627989768982	pulse	1	t		27.0	2.5	blank	1.0	169.1581473350525	
29	153.57280778884888	fix_post	2		12	27.0	2.5	blank	1.0	169.67467522621155	0.10002613067626953
30	153.67283391952515	fix_pre	0		119	28.0	2.5	/experiments/knapen_AOT/AOT_stimuli/rescaled_final/1258_fw.mp4	0.0	169.77470135688782	1.0001437664031982
30	154.6564908027649	pulse	0	t		28.0	2.5	/experiments/knapen_AOT/AOT_stimuli/rescaled_final/1258_fw.mp4	0.0	170.75835824012756	
30	154.67297768592834	movie	1		280	28.0	2.5	/experiments/knapen_AOT/AOT_stimuli/rescaled_final/1258_fw.mp4	0.0	170.77484512329102	2.500369071960449
30	156.2554748058319	pulse	1	t		28.0	2.5	/experiments/knapen_AOT/AOT_stimuli/rescaled_final/1258_fw.mp4	0.0	172.35734224319458	
30	157.1733467578888	fix_post	2		12	28.0	2.5	/experiments/knapen_AOT/AOT_stimuli/rescaled_final/1258_fw.mp4	0.0	173.27521419525146	0.10001492500305176
31	157.27336168289185	fix_pre	0		120	29.0	2.5	/experiments/knapen_AOT/AOT_stimuli/rescaled_final/0839_fw.mp4	0.0	173.37522912025452	1.0085368156433105
31	157.8569815158844	pulse	0	t		29.0	2.5	/experiments/knapen_AOT/AOT_stimuli/rescaled_final/0839_fw.mp4	0.0	173.95884895324707	
31	158.28189849853516	movie	1		288	29.0	2.5	/experiments/knapen_AOT/AOT_stimuli/rescaled_final/0839_fw.mp4	0.0	174.38376593589783	2.491995334625244
31	159.45517301559448	pulse	1	t		29.0	2.5	/experiments/knapen_AOT/AOT_stimuli/rescaled_final/0839_fw.mp4	0.0	175.55704045295715	
31	160.7738938331604	fix_post	2		12	29.0	2.5	/experiments/knapen_AOT/AOT_stimuli/rescaled_final/0839_fw.mp4	0.0	176.87576127052307	0.10011506080627441
32	160.87400889396667	fix_pre	0		120	30.0	2.5	/experiments/knapen_AOT/AOT_stimuli/rescaled_final/0195_rv.mp4	0.0	176.97587633132935	1.0084202289581299
32	161.05745434761047	pulse	0	t		30.0	2.5	/experiments/knapen_AOT/AOT_stimuli/rescaled_final/0195_rv.mp4	0.0	177.15932178497314	
32	161.8824291229248	movie	1		269	30.0	2.5	/experiments/knapen_AOT/AOT_stimuli/rescaled_final/0195_rv.mp4	0.0	177.98429656028748	2.49214506149292
32	162.65575170516968	pulse	1	t		30.0	2.5	/experiments/knapen_AOT/AOT_stimuli/rescaled_final/0195_rv.mp4	0.0	178.75761914253235	
32	164.25606298446655	pulse	1	t		30.0	2.5	/experiments/knapen_AOT/AOT_stimuli/rescaled_final/0195_rv.mp4	0.0	180.35793042182922	
32	164.37457418441772	fix_post	2		12	30.0	2.5	/experiments/knapen_AOT/AOT_stimuli/rescaled_final/0195_rv.mp4	0.0	180.4764416217804	0.09999299049377441
33	164.4745671749115	fix_pre	0		120	31.0	2.5	/experiments/knapen_AOT/AOT_stimuli/rescaled_final/2103_fw.mp4	0.0	180.57643461227417	1.008404016494751
33	165.48297119140625	movie	1		256	31.0	2.5	/experiments/knapen_AOT/AOT_stimuli/rescaled_final/2103_fw.mp4	0.0	181.58483862876892	2.4920361042022705
33	165.85841250419617	pulse	1	t		31.0	2.5	/experiments/knapen_AOT/AOT_stimuli/rescaled_final/2103_fw.mp4	0.0	181.96027994155884	
33	167.45795059204102	pulse	1	t		31.0	2.5	/experiments/knapen_AOT/AOT_stimuli/rescaled_final/2103_fw.mp4	0.0	183.5598180294037	
33	167.97500729560852	fix_post	2		12	31.0	2.5	/experiments/knapen_AOT/AOT_stimuli/rescaled_final/2103_fw.mp4	0.0	184.0768747329712	0.09998798370361328
34	168.07499527931213	fix_pre	0		119	32.0	2.5	/experiments/knapen_AOT/AOT_stimuli/rescaled_final/1487_rv.mp4	0.0	184.1768627166748	1.0001683235168457
34	169.0586643218994	pulse	0	t		32.0	2.5	/experiments/knapen_AOT/AOT_stimuli/rescaled_final/1487_rv.mp4	0.0	185.16053175926208	
34	169.07516360282898	movie	1		276	32.0	2.5	/experiments/knapen_AOT/AOT_stimuli/rescaled_final/1487_rv.mp4	0.0	185.17703104019165	2.500359296798706
34	170.65735602378845	pulse	1	t		32.0	2.5	/experiments/knapen_AOT/AOT_stimuli/rescaled_final/1487_rv.mp4	0.0	186.75922346115112	
34	171.57552289962769	fix_post	2		12	32.0	2.5	/experiments/knapen_AOT/AOT_stimuli/rescaled_final/1487_rv.mp4	0.0	187.67739033699036	0.10006833076477051
35	171.67559123039246	fix_pre	0		120	33.0	2.5	/experiments/knapen_AOT/AOT_stimuli/rescaled_final/1414_fw.mp4	0.0	187.77745866775513	1.0084428787231445
35	172.25921726226807	pulse	0	t		33.0	2.5	/experiments/knapen_AOT/AOT_stimuli/rescaled_final/1414_fw.mp4	0.0	188.36108469963074	
35	172.6840341091156	movie	1		282	33.0	2.5	/experiments/knapen_AOT/AOT_stimuli/rescaled_final/1414_fw.mp4	0.0	188.78590154647827	2.492061138153076
35	173.8576464653015	pulse	1	t		33.0	2.5	/experiments/knapen_AOT/AOT_stimuli/rescaled_final/1414_fw.mp4	0.0	189.95951390266418	
35	175.17609524726868	fix_post	2		12	33.0	2.5	/experiments/knapen_AOT/AOT_stimuli/rescaled_final/1414_fw.mp4	0.0	191.27796268463135	0.0999751091003418
36	175.27607035636902	fix_pre	0		120	34.0	2.5	/experiments/knapen_AOT/AOT_stimuli/rescaled_final/1856_fw.mp4	0.0	191.3779377937317	1.008638858795166
36	175.45192980766296	pulse	0	t		34.0	2.5	/experiments/knapen_AOT/AOT_stimuli/rescaled_final/1856_fw.mp4	0.0	191.55379724502563	
36	176.28470921516418	movie	1		274	34.0	2.5	/experiments/knapen_AOT/AOT_stimuli/rescaled_final/1856_fw.mp4	0.0	192.38657665252686	2.4919369220733643
36	177.0576455593109	pulse	1	t		34.0	2.5	/experiments/knapen_AOT/AOT_stimuli/rescaled_final/1856_fw.mp4	0.0	193.15951299667358	
36	178.66021084785461	pulse	1	t		34.0	2.5	/experiments/knapen_AOT/AOT_stimuli/rescaled_final/1856_fw.mp4	0.0	194.76207828521729	
36	178.77664613723755	fix_post	2		12	34.0	2.5	/experiments/knapen_AOT/AOT_stimuli/rescaled_final/1856_fw.mp4	0.0	194.87851357460022	0.09996485710144043
37	178.876610994339	fix_pre	0		120	35.0	2.5	blank	1.0	194.97847843170166	1.0001530647277832
37	179.87676405906677	movie	1		300	35.0	2.5	blank	1.0	195.97863149642944	2.500383138656616
37	180.25208163261414	pulse	1	t		35.0	2.5	blank	1.0	196.3539490699768	
37	181.85233330726624	pulse	1	t		35.0	2.5	blank	1.0	197.9542007446289	
37	182.3771471977234	fix_post	2		12	35.0	2.5	blank	1.0	198.47901463508606	0.10002374649047852
38	182.47717094421387	fix_pre	0		118	36.0	2.5	/experiments/knapen_AOT/AOT_stimuli/rescaled_final/2061_fw.mp4	0.0	198.57903838157654	1.000244140625
38	183.4526014328003	pulse	0	t		36.0	2.5	/experiments/knapen_AOT/AOT_stimuli/rescaled_final/2061_fw.mp4	0.0	199.55446887016296	
38	183.47741508483887	movie	1		272	36.0	2.5	/experiments/knapen_AOT/AOT_stimuli/rescaled_final/2061_fw.mp4	0.0	199.57928252220154	2.4919509887695312
38	185.0528519153595	pulse	1	t		36.0	2.5	/experiments/knapen_AOT/AOT_stimuli/rescaled_final/2061_fw.mp4	0.0	201.15471935272217	
38	185.9693660736084	fix_post	2		12	36.0	2.5	/experiments/knapen_AOT/AOT_stimuli/rescaled_final/2061_fw.mp4	0.0	202.07123351097107	0.10002255439758301
39	186.06938862800598	fix_pre	0		120	37.0	2.5	/experiments/knapen_AOT/AOT_stimuli/rescaled_final/1693_rv.mp4	0.0	202.17125606536865	1.0084855556488037
39	186.65298795700073	pulse	0	t		37.0	2.5	/experiments/knapen_AOT/AOT_stimuli/rescaled_final/1693_rv.mp4	0.0	202.7548553943634	
39	187.07787418365479	movie	1		282	37.0	2.5	/experiments/knapen_AOT/AOT_stimuli/rescaled_final/1693_rv.mp4	0.0	203.17974162101746	2.4920191764831543
39	188.25327920913696	pulse	1	t		37.0	2.5	/experiments/knapen_AOT/AOT_stimuli/rescaled_final/1693_rv.mp4	0.0	204.35514664649963	
39	189.56989336013794	fix_post	2		12	37.0	2.5	/experiments/knapen_AOT/AOT_stimuli/rescaled_final/1693_rv.mp4	0.0	205.6717607975006	0.10001635551452637
40	189.66990971565247	fix_pre	0		120	38.0	2.5	/experiments/knapen_AOT/AOT_stimuli/rescaled_final/0275_fw.mp4	0.0	205.77177715301514	1.008552074432373
40	189.85349869728088	pulse	0	t		38.0	2.5	/experiments/knapen_AOT/AOT_stimuli/rescaled_final/0275_fw.mp4	0.0	205.95536613464355	
40	190.67846179008484	movie	1		269	38.0	2.5	/experiments/knapen_AOT/AOT_stimuli/rescaled_final/0275_fw.mp4	0.0	206.7803292274475	2.492020845413208
40	191.4523093700409	pulse	1	t		38.0	2.5	/experiments/knapen_AOT/AOT_stimuli/rescaled_final/0275_fw.mp4	0.0	207.55417680740356	
40	193.05403852462769	pulse	1	t		38.0	2.5	/experiments/knapen_AOT/AOT_stimuli/rescaled_final/0275_fw.mp4	0.0	209.15590596199036	
40	193.17048263549805	fix_post	2		12	38.0	2.5	/experiments/knapen_AOT/AOT_stimuli/rescaled_final/0275_fw.mp4	0.0	209.27235007286072	0.10008406639099121
41	193.27056670188904	fix_pre	0		120	39.0	2.5	/experiments/knapen_AOT/AOT_stimuli/rescaled_final/1066_rv.mp4	0.0	209.3724341392517	1.0083918571472168
41	194.27895855903625	movie	1		278	39.0	2.5	/experiments/knapen_AOT/AOT_stimuli/rescaled_final/1066_rv.mp4	0.0	210.38082599639893	2.492002010345459
41	194.652761220932	pulse	1	t		39.0	2.5	/experiments/knapen_AOT/AOT_stimuli/rescaled_final/1066_rv.mp4	0.0	210.75462865829468	
41	196.2523205280304	pulse	1	t		39.0	2.5	/experiments/knapen_AOT/AOT_stimuli/rescaled_final/1066_rv.mp4	0.0	212.35418796539307	
41	196.7709605693817	fix_post	2		12	39.0	2.5	/experiments/knapen_AOT/AOT_stimuli/rescaled_final/1066_rv.mp4	0.0	212.87282800674438	0.10003542900085449
42	196.87099599838257	fix_pre	0		119	40.0	2.5	/experiments/knapen_AOT/AOT_stimuli/rescaled_final/1374_fw.mp4	0.0	212.97286343574524	1.0001769065856934
42	197.85467529296875	pulse	0	t		40.0	2.5	/experiments/knapen_AOT/AOT_stimuli/rescaled_final/1374_fw.mp4	0.0	213.95654273033142	
42	197.87117290496826	movie	1		269	40.0	2.5	/experiments/knapen_AOT/AOT_stimuli/rescaled_final/1374_fw.mp4	0.0	213.97304034233093	2.5003485679626465
42	199.45380306243896	pulse	1	t		40.0	2.5	/experiments/knapen_AOT/AOT_stimuli/rescaled_final/1374_fw.mp4	0.0	215.55567049980164	
42	200.3715214729309	fix_post	2		12	40.0	2.5	/experiments/knapen_AOT/AOT_stimuli/rescaled_final/1374_fw.mp4	0.0	216.47338891029358	0.10001254081726074
43	200.47153401374817	fix_pre	0		120	41.0	2.5	/experiments/knapen_AOT/AOT_stimuli/rescaled_final/0609_rv.mp4	0.0	216.57340145111084	1.0085046291351318
43	201.05519604682922	pulse	0	t		41.0	2.5	/experiments/knapen_AOT/AOT_stimuli/rescaled_final/0609_rv.mp4	0.0	217.1570634841919	
43	201.4800386428833	movie	1		270	41.0	2.5	/experiments/knapen_AOT/AOT_stimuli/rescaled_final/0609_rv.mp4	0.0	217.58190608024597	2.4921228885650635
43	202.65466737747192	pulse	1	t		41.0	2.5	/experiments/knapen_AOT/AOT_stimuli/rescaled_final/0609_rv.mp4	0.0	218.7565348148346	
43	203.97216153144836	fix_post	2		12	41.0	2.5	/experiments/knapen_AOT/AOT_stimuli/rescaled_final/0609_rv.mp4	0.0	220.07402896881104	0.09990334510803223
44	204.0720648765564	fix_pre	0		120	42.0	2.5	blank	1.0	220.17393231391907	1.0001630783081055
44	204.25572109222412	pulse	0	t		42.0	2.5	blank	1.0	220.3575885295868	
44	205.0722279548645	movie	1		300	42.0	2.5	blank	1.0	221.17409539222717	2.500506639480591
44	205.85587191581726	pulse	1	t		42.0	2.5	blank	1.0	221.95773935317993	
44	207.45607495307922	pulse	1	t		42.0	2.5	blank	1.0	223.5579423904419	
44	207.5727345943451	fix_post	2		12	42.0	2.5	blank	1.0	223.67460203170776	0.09987616539001465
45	207.6726107597351	fix_pre	0		120	43.0	2.5	/experiments/knapen_AOT/AOT_stimuli/rescaled_final/0053_rv.mp4	0.0	223.77447819709778	1.0085465908050537
45	208.68115735054016	movie	1		277	43.0	2.5	/experiments/knapen_AOT/AOT_stimuli/rescaled_final/0053_rv.mp4	0.0	224.78302478790283	2.492053508758545
45	209.05488228797913	pulse	1	t		43.0	2.5	/experiments/knapen_AOT/AOT_stimuli/rescaled_final/0053_rv.mp4	0.0	225.1567497253418	
45	210.6543207168579	pulse	1	t		43.0	2.5	/experiments/knapen_AOT/AOT_stimuli/rescaled_final/0053_rv.mp4	0.0	226.75618815422058	
45	211.1732108592987	fix_post	2		12	43.0	2.5	/experiments/knapen_AOT/AOT_stimuli/rescaled_final/0053_rv.mp4	0.0	227.27507829666138	0.09994745254516602
46	211.27315831184387	fix_pre	0		119	44.0	2.5	/experiments/knapen_AOT/AOT_stimuli/rescaled_final/0108_rv.mp4	0.0	227.37502574920654	1.000192642211914
46	212.25704550743103	pulse	0	t		44.0	2.5	/experiments/knapen_AOT/AOT_stimuli/rescaled_final/0108_rv.mp4	0.0	228.3589129447937	
46	212.2733509540558	movie	1		265	44.0	2.5	/experiments/knapen_AOT/AOT_stimuli/rescaled_final/0108_rv.mp4	0.0	228.37521839141846	2.5003483295440674
46	213.85620617866516	pulse	1	t		44.0	2.5	/experiments/knapen_AOT/AOT_stimuli/rescaled_final/0108_rv.mp4	0.0	229.95807361602783	
46	214.77369928359985	fix_post	2		12	44.0	2.5	/experiments/knapen_AOT/AOT_stimuli/rescaled_final/0108_rv.mp4	0.0	230.87556672096252	0.10007786750793457
47	214.8737771511078	fix_pre	0		120	45.0	2.5	/experiments/knapen_AOT/AOT_stimuli/rescaled_final/0625_rv.mp4	0.0	230.97564458847046	1.0084490776062012
47	215.457355260849	pulse	0	t		45.0	2.5	/experiments/knapen_AOT/AOT_stimuli/rescaled_final/0625_rv.mp4	0.0	231.55922269821167	
47	215.882226228714	movie	1		282	45.0	2.5	/experiments/knapen_AOT/AOT_stimuli/rescaled_final/0625_rv.mp4	0.0	231.98409366607666	2.4919979572296143
47	217.05577754974365	pulse	1	t		45.0	2.5	/experiments/knapen_AOT/AOT_stimuli/rescaled_final/0625_rv.mp4	0.0	233.15764498710632	
47	218.3742241859436	fix_post	2		12	45.0	2.5	/experiments/knapen_AOT/AOT_stimuli/rescaled_final/0625_rv.mp4	0.0	234.47609162330627	0.10001969337463379
48	218.47424387931824	fix_pre	0		120	46.0	2.5	/experiments/knapen_AOT/AOT_stimuli/rescaled_final/0065_rv.mp4	0.0	234.5761113166809	1.0084917545318604
48	218.65776824951172	pulse	0	t		46.0	2.5	/experiments/knapen_AOT/AOT_stimuli/rescaled_final/0065_rv.mp4	0.0	234.7596356868744	
48	219.4827356338501	movie	1		272	46.0	2.5	/experiments/knapen_AOT/AOT_stimuli/rescaled_final/0065_rv.mp4	0.0	235.58460307121277	2.49204421043396
48	220.25568389892578	pulse	1	t		46.0	2.5	/experiments/knapen_AOT/AOT_stimuli/rescaled_final/0065_rv.mp4	0.0	236.35755133628845	
48	221.85614895820618	pulse	1	t		46.0	2.5	/experiments/knapen_AOT/AOT_stimuli/rescaled_final/0065_rv.mp4	0.0	237.95801639556885	
48	221.97477984428406	fix_post	2		12	46.0	2.5	/experiments/knapen_AOT/AOT_stimuli/rescaled_final/0065_rv.mp4	0.0	238.07664728164673	0.1000356674194336
49	222.0748155117035	fix_pre	0		120	47.0	2.5	/experiments/knapen_AOT/AOT_stimuli/rescaled_final/2157_rv.mp4	0.0	238.17668294906616	1.0086212158203125
49	223.0834367275238	movie	1		282	47.0	2.5	/experiments/knapen_AOT/AOT_stimuli/rescaled_final/2157_rv.mp4	0.0	239.18530416488647	2.4918885231018066
49	223.45698881149292	pulse	1	t		47.0	2.5	/experiments/knapen_AOT/AOT_stimuli/rescaled_final/2157_rv.mp4	0.0	239.5588562488556	
49	225.05663990974426	pulse	1	t		47.0	2.5	/experiments/knapen_AOT/AOT_stimuli/rescaled_final/2157_rv.mp4	0.0	241.15850734710693	
49	225.5753252506256	fix_post	2		12	47.0	2.5	/experiments/knapen_AOT/AOT_stimuli/rescaled_final/2157_rv.mp4	0.0	241.67719268798828	0.0999910831451416
50	225.67531633377075	fix_pre	0		119	48.0	2.5	blank	1.0	241.77718377113342	0.9917974472045898
50	226.65908479690552	pulse	0	t		48.0	2.5	blank	1.0	242.7609522342682	
50	226.66711378097534	movie	1		301	48.0	2.5	blank	1.0	242.768981218338	2.5088248252868652
50	228.25942039489746	pulse	1	t		48.0	2.5	blank	1.0	244.36128783226013	
50	229.1759386062622	fix_post	2		12	48.0	2.5	blank	1.0	245.27780604362488	0.10000205039978027
51	229.275940656662	fix_pre	0		120	49.0	2.5	/experiments/knapen_AOT/AOT_stimuli/rescaled_final/0274_fw.mp4	0.0	245.37780809402466	1.0084154605865479
51	229.8598370552063	pulse	0	t		49.0	2.5	/experiments/knapen_AOT/AOT_stimuli/rescaled_final/0274_fw.mp4	0.0	245.96170449256897	
51	230.28435611724854	movie	1		284	49.0	2.5	/experiments/knapen_AOT/AOT_stimuli/rescaled_final/0274_fw.mp4	0.0	246.3862235546112	2.4920268058776855
51	231.45772862434387	pulse	1	t		49.0	2.5	/experiments/knapen_AOT/AOT_stimuli/rescaled_final/0274_fw.mp4	0.0	247.55959606170654	
51	232.77638292312622	fix_post	2		12	49.0	2.5	/experiments/knapen_AOT/AOT_stimuli/rescaled_final/0274_fw.mp4	0.0	248.8782503604889	0.10002326965332031
52	232.87640619277954	fix_pre	0		120	50.0	2.5	/experiments/knapen_AOT/AOT_stimuli/rescaled_final/1319_rv.mp4	0.0	248.9782736301422	1.008549451828003
52	233.05278944969177	pulse	0	t		50.0	2.5	/experiments/knapen_AOT/AOT_stimuli/rescaled_final/1319_rv.mp4	0.0	249.15465688705444	
52	233.88495564460754	movie	1		291	50.0	2.5	/experiments/knapen_AOT/AOT_stimuli/rescaled_final/1319_rv.mp4	0.0	249.98682308197021	2.491981029510498
52	234.65798950195312	pulse	1	t		50.0	2.5	/experiments/knapen_AOT/AOT_stimuli/rescaled_final/1319_rv.mp4	0.0	250.7598569393158	
52	236.25835251808167	pulse	1	t		50.0	2.5	/experiments/knapen_AOT/AOT_stimuli/rescaled_final/1319_rv.mp4	0.0	252.36021995544434	
52	236.37693667411804	fix_post	2		12	50.0	2.5	/experiments/knapen_AOT/AOT_stimuli/rescaled_final/1319_rv.mp4	0.0	252.4788041114807	0.10002422332763672
53	236.47696089744568	fix_pre	0		120	51.0	2.5	/experiments/knapen_AOT/AOT_stimuli/rescaled_final/1352_fw.mp4	0.0	252.57882833480835	1.0084779262542725
53	237.48543882369995	movie	1		280	51.0	2.5	/experiments/knapen_AOT/AOT_stimuli/rescaled_final/1352_fw.mp4	0.0	253.58730626106262	2.492027521133423
53	237.85265135765076	pulse	1	t		51.0	2.5	/experiments/knapen_AOT/AOT_stimuli/rescaled_final/1352_fw.mp4	0.0	253.95451879501343	
53	239.45264720916748	pulse	1	t		51.0	2.5	/experiments/knapen_AOT/AOT_stimuli/rescaled_final/1352_fw.mp4	0.0	255.55451464653015	
53	239.97746634483337	fix_post	2		12	51.0	2.5	/experiments/knapen_AOT/AOT_stimuli/rescaled_final/1352_fw.mp4	0.0	256.07933378219604	0.10007286071777344
54	240.07753920555115	fix_pre	0		118	52.0	2.5	/experiments/knapen_AOT/AOT_stimuli/rescaled_final/0185_rv.mp4	0.0	256.1794066429138	0.9917693138122559
54	241.0528302192688	pulse	0	t		52.0	2.5	/experiments/knapen_AOT/AOT_stimuli/rescaled_final/0185_rv.mp4	0.0	257.15469765663147	
54	241.0693085193634	movie	1		279	52.0	2.5	/experiments/knapen_AOT/AOT_stimuli/rescaled_final/0185_rv.mp4	0.0	257.1711759567261	2.5004007816314697
54	242.6523733139038	pulse	1	t		52.0	2.5	/experiments/knapen_AOT/AOT_stimuli/rescaled_final/0185_rv.mp4	0.0	258.7542407512665	
54	243.56970930099487	fix_post	2		12	52.0	2.5	/experiments/knapen_AOT/AOT_stimuli/rescaled_final/0185_rv.mp4	0.0	259.67157673835754	0.09999847412109375
55	243.66970777511597	fix_pre	0		120	53.0	2.5	/experiments/knapen_AOT/AOT_stimuli/rescaled_final/0806_fw.mp4	0.0	259.77157521247864	1.008479118347168
55	244.25342774391174	pulse	0	t		53.0	2.5	/experiments/knapen_AOT/AOT_stimuli/rescaled_final/0806_fw.mp4	0.0	260.3552951812744	
55	244.67818689346313	movie	1		279	53.0	2.5	/experiments/knapen_AOT/AOT_stimuli/rescaled_final/0806_fw.mp4	0.0	260.7800543308258	2.4920575618743896
55	245.85358119010925	pulse	1	t		53.0	2.5	/experiments/knapen_AOT/AOT_stimuli/rescaled_final/0806_fw.mp4	0.0	261.9554486274719	
55	247.17024445533752	fix_post	2		12	53.0	2.5	/experiments/knapen_AOT/AOT_stimuli/rescaled_final/0806_fw.mp4	0.0	263.2721118927002	0.10001802444458008
56	247.2702624797821	fix_pre	0		120	54.0	2.5	/experiments/knapen_AOT/AOT_stimuli/rescaled_final/1943_fw.mp4	0.0	263.3721299171448	1.0084705352783203
56	247.4538266658783	pulse	0	t		54.0	2.5	/experiments/knapen_AOT/AOT_stimuli/rescaled_final/1943_fw.mp4	0.0	263.55569410324097	
56	248.27873301506042	movie	1		272	54.0	2.5	/experiments/knapen_AOT/AOT_stimuli/rescaled_final/1943_fw.mp4	0.0	264.3806004524231	2.4920296669006348
56	249.0544948577881	pulse	1	t		54.0	2.5	/experiments/knapen_AOT/AOT_stimuli/rescaled_final/1943_fw.mp4	0.0	265.15636229515076	
56	250.65256237983704	pulse	1	t		54.0	2.5	/experiments/knapen_AOT/AOT_stimuli/rescaled_final/1943_fw.mp4	0.0	266.7544298171997	
56	250.77076268196106	fix_post	2		12	54.0	2.5	/experiments/knapen_AOT/AOT_stimuli/rescaled_final/1943_fw.mp4	0.0	266.87263011932373	0.10001754760742188
57	250.87078022956848	fix_pre	0		120	55.0	2.5	blank	1.0	266.97264766693115	1.0001230239868164
57	251.8709032535553	movie	1		300	55.0	2.5	blank	1.0	267.97277069091797	2.5004067420959473
57	252.25452184677124	pulse	1	t		55.0	2.5	blank	1.0	268.3563892841339	
57	253.85476183891296	pulse	1	t		55.0	2.5	blank	1.0	269.95662927627563	
57	254.37130999565125	fix_post	2		12	55.0	2.5	blank	1.0	270.4731774330139	0.10010290145874023
58	254.47141289710999	fix_pre	0		119	56.0	2.5	/experiments/knapen_AOT/AOT_stimuli/rescaled_final/1352_rv.mp4	0.0	270.57328033447266	1.0000934600830078
58	255.45516347885132	pulse	0	t		56.0	2.5	/experiments/knapen_AOT/AOT_stimuli/rescaled_final/1352_rv.mp4	0.0	271.557030916214	
58	255.471506357193	movie	1		285	56.0	2.5	/experiments/knapen_AOT/AOT_stimuli/rescaled_final/1352_rv.mp4	0.0	271.57337379455566	2.5005483627319336
58	257.0555410385132	pulse	1	t		56.0	2.5	/experiments/knapen_AOT/AOT_stimuli/rescaled_final/1352_rv.mp4	0.0	273.15740847587585	
58	257.9720547199249	fix_post	2		12	56.0	2.5	/experiments/knapen_AOT/AOT_stimuli/rescaled_final/1352_rv.mp4	0.0	274.0739221572876	0.09982562065124512
59	258.0718803405762	fix_pre	0		120	57.0	2.5	/experiments/knapen_AOT/AOT_stimuli/rescaled_final/1961_rv.mp4	0.0	274.17374777793884	1.008481502532959
59	258.65553045272827	pulse	0	t		57.0	2.5	/experiments/knapen_AOT/AOT_stimuli/rescaled_final/1961_rv.mp4	0.0	274.75739789009094	
59	259.08036184310913	movie	1		278	57.0	2.5	/experiments/knapen_AOT/AOT_stimuli/rescaled_final/1961_rv.mp4	0.0	275.1822292804718	2.4921512603759766
59	260.2540018558502	pulse	1	t		57.0	2.5	/experiments/knapen_AOT/AOT_stimuli/rescaled_final/1961_rv.mp4	0.0	276.3558692932129	
59	261.5725131034851	fix_post	2		12	57.0	2.5	/experiments/knapen_AOT/AOT_stimuli/rescaled_final/1961_rv.mp4	0.0	277.6743805408478	0.09988713264465332
60	261.67240023612976	fix_pre	0		120	58.0	2.5	/experiments/knapen_AOT/AOT_stimuli/rescaled_final/1758_fw.mp4	0.0	277.77426767349243	1.0085420608520508
60	261.8559675216675	pulse	0	t		58.0	2.5	/experiments/knapen_AOT/AOT_stimuli/rescaled_final/1758_fw.mp4	0.0	277.95783495903015	
60	262.6809422969818	movie	1		285	58.0	2.5	/experiments/knapen_AOT/AOT_stimuli/rescaled_final/1758_fw.mp4	0.0	278.7828097343445	2.4920620918273926
60	263.45411682128906	pulse	1	t		58.0	2.5	/experiments/knapen_AOT/AOT_stimuli/rescaled_final/1758_fw.mp4	0.0	279.55598425865173	
60	265.0549850463867	pulse	1	t		58.0	2.5	/experiments/knapen_AOT/AOT_stimuli/rescaled_final/1758_fw.mp4	0.0	281.1568524837494	
60	265.1730043888092	fix_post	2		12	58.0	2.5	/experiments/knapen_AOT/AOT_stimuli/rescaled_final/1758_fw.mp4	0.0	281.2748718261719	0.09993505477905273
61	265.27293944358826	fix_pre	0		120	59.0	2.5	/experiments/knapen_AOT/AOT_stimuli/rescaled_final/0012_fw.mp4	0.0	281.3748068809509	1.0085246562957764
61	266.28146409988403	movie	1		286	59.0	2.5	/experiments/knapen_AOT/AOT_stimuli/rescaled_final/0012_fw.mp4	0.0	282.3833315372467	2.4920356273651123
61	266.65533423423767	pulse	1	t		59.0	2.5	/experiments/knapen_AOT/AOT_stimuli/rescaled_final/0012_fw.mp4	0.0	282.75720167160034	
61	268.2549605369568	pulse	1	t		59.0	2.5	/experiments/knapen_AOT/AOT_stimuli/rescaled_final/0012_fw.mp4	0.0	284.35682797431946	
61	268.77349972724915	fix_post	2		12	59.0	2.5	/experiments/knapen_AOT/AOT_stimuli/rescaled_final/0012_fw.mp4	0.0	284.8753671646118	0.09998869895935059
62	268.8734884262085	fix_pre	0		119	60.0	2.5	/experiments/knapen_AOT/AOT_stimuli/rescaled_final/1641_fw.mp4	0.0	284.97535586357117	1.000211477279663
62	269.8571786880493	pulse	0	t		60.0	2.5	/experiments/knapen_AOT/AOT_stimuli/rescaled_final/1641_fw.mp4	0.0	285.959046125412	
62	269.87369990348816	movie	1		272	60.0	2.5	/experiments/knapen_AOT/AOT_stimuli/rescaled_final/1641_fw.mp4	0.0	285.97556734085083	2.500300168991089
62	271.4557020664215	pulse	1	t		60.0	2.5	/experiments/knapen_AOT/AOT_stimuli/rescaled_final/1641_fw.mp4	0.0	287.5575695037842	
62	272.37400007247925	fix_post	2		12	60.0	2.5	/experiments/knapen_AOT/AOT_stimuli/rescaled_final/1641_fw.mp4	0.0	288.4758675098419	0.10001564025878906
63	272.47401571273804	fix_pre	0		120	61.0	2.5	/experiments/knapen_AOT/AOT_stimuli/rescaled_final/0743_rv.mp4	0.0	288.5758831501007	1.0085103511810303
63	273.05795764923096	pulse	0	t		61.0	2.5	/experiments/knapen_AOT/AOT_stimuli/rescaled_final/0743_rv.mp4	0.0	289.1598250865936	
63	273.48252606391907	movie	1		271	61.0	2.5	/experiments/knapen_AOT/AOT_stimuli/rescaled_final/0743_rv.mp4	0.0	289.58439350128174	2.492021083831787
63	274.65632915496826	pulse	1	t		61.0	2.5	/experiments/knapen_AOT/AOT_stimuli/rescaled_final/0743_rv.mp4	0.0	290.75819659233093	
63	275.97454714775085	fix_post	2		12	61.0	2.5	/experiments/knapen_AOT/AOT_stimuli/rescaled_final/0743_rv.mp4	0.0	292.0764145851135	0.10007691383361816
64	276.0746240615845	fix_pre	0		120	62.0	2.5	/experiments/knapen_AOT/AOT_stimuli/rescaled_final/1167_fw.mp4	0.0	292.17649149894714	1.008533000946045
64	276.2584707736969	pulse	0	t		62.0	2.5	/experiments/knapen_AOT/AOT_stimuli/rescaled_final/1167_fw.mp4	0.0	292.36033821105957	
64	277.0831570625305	movie	1		282	62.0	2.5	/experiments/knapen_AOT/AOT_stimuli/rescaled_final/1167_fw.mp4	0.0	293.1850244998932	2.491929531097412
64	277.8562307357788	pulse	1	t		62.0	2.5	/experiments/knapen_AOT/AOT_stimuli/rescaled_final/1167_fw.mp4	0.0	293.9580981731415	
64	279.4564824104309	pulse	1	t		62.0	2.5	/experiments/knapen_AOT/AOT_stimuli/rescaled_final/1167_fw.mp4	0.0	295.5583498477936	
64	279.57508659362793	fix_post	2		12	62.0	2.5	/experiments/knapen_AOT/AOT_stimuli/rescaled_final/1167_fw.mp4	0.0	295.6769540309906	0.10001492500305176
65	279.675101518631	fix_pre	0		120	63.0	2.5	blank	1.0	295.77696895599365	1.0001657009124756
65	280.67526721954346	movie	1		300	63.0	2.5	blank	1.0	296.7771346569061	2.500412940979004
65	281.05884552001953	pulse	1	t		63.0	2.5	blank	1.0	297.1607129573822	
65	282.65910720825195	pulse	1	t		63.0	2.5	blank	1.0	298.7609746456146	
65	283.17568016052246	fix_post	2		12	63.0	2.5	blank	1.0	299.27754759788513	0.09998273849487305
66	283.27566289901733	fix_pre	0		119	64.0	2.5	/experiments/knapen_AOT/AOT_stimuli/rescaled_final/0572_rv.mp4	0.0	299.37753033638	1.000206708908081
66	284.2523069381714	pulse	0	t		64.0	2.5	/experiments/knapen_AOT/AOT_stimuli/rescaled_final/0572_rv.mp4	0.0	300.35417437553406	
66	284.2758696079254	movie	1		283	64.0	2.5	/experiments/knapen_AOT/AOT_stimuli/rescaled_final/0572_rv.mp4	0.0	300.3777370452881	2.500321865081787
66	285.8581700325012	pulse	1	t		64.0	2.5	/experiments/knapen_AOT/AOT_stimuli/rescaled_final/0572_rv.mp4	0.0	301.9600374698639	
66	286.7761914730072	fix_post	2		12	64.0	2.5	/experiments/knapen_AOT/AOT_stimuli/rescaled_final/0572_rv.mp4	0.0	302.8780589103699	0.09998893737792969
67	286.87618041038513	fix_pre	0		120	65.0	2.5	/experiments/knapen_AOT/AOT_stimuli/rescaled_final/0164_rv.mp4	0.0	302.9780478477478	1.008502721786499
67	287.4518632888794	pulse	0	t		65.0	2.5	/experiments/knapen_AOT/AOT_stimuli/rescaled_final/0164_rv.mp4	0.0	303.55373072624207	
67	287.88468313217163	movie	1		272	65.0	2.5	/experiments/knapen_AOT/AOT_stimuli/rescaled_final/0164_rv.mp4	0.0	303.9865505695343	2.4920814037323
67	289.0520749092102	pulse	1	t		65.0	2.5	/experiments/knapen_AOT/AOT_stimuli/rescaled_final/0164_rv.mp4	0.0	305.1539423465729	
67	290.37676453590393	fix_post	2		12	65.0	2.5	/experiments/knapen_AOT/AOT_stimuli/rescaled_final/0164_rv.mp4	0.0	306.4786319732666	0.09999847412109375
68	290.476763010025	fix_pre	0		120	66.0	2.5	/experiments/knapen_AOT/AOT_stimuli/rescaled_final/0326_fw.mp4	0.0	306.5786304473877	1.008476972579956
68	290.65218019485474	pulse	0	t		66.0	2.5	/experiments/knapen_AOT/AOT_stimuli/rescaled_final/0326_fw.mp4	0.0	306.7540476322174	
68	291.485239982605	movie	1		275	66.0	2.5	/experiments/knapen_AOT/AOT_stimuli/rescaled_final/0326_fw.mp4	0.0	307.58710741996765	2.4920291900634766
68	292.252210855484	pulse	1	t		66.0	2.5	/experiments/knapen_AOT/AOT_stimuli/rescaled_final/0326_fw.mp4	0.0	308.3540782928467	
68	293.85251235961914	pulse	1	t		66.0	2.5	/experiments/knapen_AOT/AOT_stimuli/rescaled_final/0326_fw.mp4	0.0	309.9543797969818	
68	293.97726917266846	fix_post	2		12	66.0	2.5	/experiments/knapen_AOT/AOT_stimuli/rescaled_final/0326_fw.mp4	0.0	310.0791366100311	0.10018539428710938
69	294.07745456695557	fix_pre	0		120	67.0	2.5	/experiments/knapen_AOT/AOT_stimuli/rescaled_final/1915_rv.mp4	0.0	310.17932200431824	1.0083129405975342
69	295.0857675075531	movie	1		261	67.0	2.5	/experiments/knapen_AOT/AOT_stimuli/rescaled_final/1915_rv.mp4	0.0	311.18763494491577	2.492065906524658
69	295.45269441604614	pulse	1	t		67.0	2.5	/experiments/knapen_AOT/AOT_stimuli/rescaled_final/1915_rv.mp4	0.0	311.5545618534088	
69	297.052937746048	pulse	1	t		67.0	2.5	/experiments/knapen_AOT/AOT_stimuli/rescaled_final/1915_rv.mp4	0.0	313.15480518341064	
69	297.57783341407776	fix_post	2		12	67.0	2.5	/experiments/knapen_AOT/AOT_stimuli/rescaled_final/1915_rv.mp4	0.0	313.67970085144043	0.09999322891235352
70	297.6778266429901	fix_pre	0		118	68.0	2.5	/experiments/knapen_AOT/AOT_stimuli/rescaled_final/1580_rv.mp4	0.0	313.7796940803528	0.9918251037597656
70	298.65338110923767	pulse	0	t		68.0	2.5	/experiments/knapen_AOT/AOT_stimuli/rescaled_final/1580_rv.mp4	0.0	314.75524854660034	
70	298.6696517467499	movie	1		278	68.0	2.5	/experiments/knapen_AOT/AOT_stimuli/rescaled_final/1580_rv.mp4	0.0	314.77151918411255	2.5003433227539062
70	300.2534747123718	pulse	1	t		68.0	2.5	/experiments/knapen_AOT/AOT_stimuli/rescaled_final/1580_rv.mp4	0.0	316.3553421497345	
70	301.1699950695038	fix_post	2		12	68.0	2.5	/experiments/knapen_AOT/AOT_stimuli/rescaled_final/1580_rv.mp4	0.0	317.27186250686646	0.10002756118774414
71	301.2700226306915	fix_pre	0		120	69.0	2.5	/experiments/knapen_AOT/AOT_stimuli/rescaled_final/0559_fw.mp4	0.0	317.3718900680542	1.0084948539733887
71	301.8536739349365	pulse	0	t		69.0	2.5	/experiments/knapen_AOT/AOT_stimuli/rescaled_final/0559_fw.mp4	0.0	317.9555413722992	
71	302.2785174846649	movie	1		276	69.0	2.5	/experiments/knapen_AOT/AOT_stimuli/rescaled_final/0559_fw.mp4	0.0	318.3803849220276	2.49202823638916
71	303.4522478580475	pulse	1	t		69.0	2.5	/experiments/knapen_AOT/AOT_stimuli/rescaled_final/0559_fw.mp4	0.0	319.55411529541016	
71	304.7705457210541	fix_post	2		12	69.0	2.5	/experiments/knapen_AOT/AOT_stimuli/rescaled_final/0559_fw.mp4	0.0	320.87241315841675	0.1000986099243164
72	304.8706443309784	fix_pre	0		120	70.0	2.5	blank	1.0	320.97251176834106	1.000061273574829
72	305.0541136264801	pulse	0	t		70.0	2.5	blank	1.0	321.1559810638428	
72	305.8707056045532	movie	1		300	70.0	2.5	blank	1.0	321.9725730419159	2.500384569168091
72	306.6545629501343	pulse	1	t		70.0	2.5	blank	1.0	322.75643038749695	
72	308.25456738471985	pulse	1	t		70.0	2.5	blank	1.0	324.3564348220825	
72	308.3710901737213	fix_post	2		12	70.0	2.5	blank	1.0	324.472957611084	0.10001969337463379
73	308.47110986709595	fix_pre	0		120	71.0	2.5	/experiments/knapen_AOT/AOT_stimuli/rescaled_final/0411_fw.mp4	0.0	324.5729773044586	1.0084848403930664
73	309.479594707489	movie	1		274	71.0	2.5	/experiments/knapen_AOT/AOT_stimuli/rescaled_final/0411_fw.mp4	0.0	325.5814621448517	2.4920246601104736
73	309.8536055088043	pulse	1	t		71.0	2.5	/experiments/knapen_AOT/AOT_stimuli/rescaled_final/0411_fw.mp4	0.0	325.955472946167	
73	311.4548509120941	pulse	1	t		71.0	2.5	/experiments/knapen_AOT/AOT_stimuli/rescaled_final/0411_fw.mp4	0.0	327.5567183494568	
73	311.9716193675995	fix_post	2		12	71.0	2.5	/experiments/knapen_AOT/AOT_stimuli/rescaled_final/0411_fw.mp4	0.0	328.07348680496216	0.10002613067626953
74	312.07164549827576	fix_pre	0		119	72.0	2.5	/experiments/knapen_AOT/AOT_stimuli/rescaled_final/1167_rv.mp4	0.0	328.1735129356384	1.0001955032348633
74	313.0555667877197	pulse	0	t		72.0	2.5	/experiments/knapen_AOT/AOT_stimuli/rescaled_final/1167_rv.mp4	0.0	329.1574342250824	
74	313.0718410015106	movie	1		272	72.0	2.5	/experiments/knapen_AOT/AOT_stimuli/rescaled_final/1167_rv.mp4	0.0	329.1737084388733	2.5003902912139893
74	314.65425157546997	pulse	1	t		72.0	2.5	/experiments/knapen_AOT/AOT_stimuli/rescaled_final/1167_rv.mp4	0.0	330.75611901283264	
74	315.5722312927246	fix_post	2		12	72.0	2.5	/experiments/knapen_AOT/AOT_stimuli/rescaled_final/1167_rv.mp4	0.0	331.6740987300873	0.09998369216918945
75	315.6722149848938	fix_pre	0		120	73.0	2.5	/experiments/knapen_AOT/AOT_stimuli/rescaled_final/1282_rv.mp4	0.0	331.77408242225647	1.0084617137908936
75	316.2558500766754	pulse	0	t		73.0	2.5	/experiments/knapen_AOT/AOT_stimuli/rescaled_final/1282_rv.mp4	0.0	332.3577175140381	
75	316.6806766986847	movie	1		277	73.0	2.5	/experiments/knapen_AOT/AOT_stimuli/rescaled_final/1282_rv.mp4	0.0	332.78254413604736	2.4920237064361572
75	317.85525250434875	pulse	1	t		73.0	2.5	/experiments/knapen_AOT/AOT_stimuli/rescaled_final/1282_rv.mp4	0.0	333.9571199417114	
75	319.17270040512085	fix_post	2		12	73.0	2.5	/experiments/knapen_AOT/AOT_stimuli/rescaled_final/1282_rv.mp4	0.0	335.2745678424835	0.1000204086303711
76	319.2727208137512	fix_pre	0		120	74.0	2.5	/experiments/knapen_AOT/AOT_stimuli/rescaled_final/1676_fw.mp4	0.0	335.3745882511139	1.0085148811340332
76	319.45630645751953	pulse	0	t		74.0	2.5	/experiments/knapen_AOT/AOT_stimuli/rescaled_final/1676_fw.mp4	0.0	335.5581738948822	
76	320.28123569488525	movie	1		281	74.0	2.5	/experiments/knapen_AOT/AOT_stimuli/rescaled_final/1676_fw.mp4	0.0	336.3831031322479	2.492022752761841
76	321.05472469329834	pulse	1	t		74.0	2.5	/experiments/knapen_AOT/AOT_stimuli/rescaled_final/1676_fw.mp4	0.0	337.156592130661	
76	322.6552391052246	pulse	1	t		74.0	2.5	/experiments/knapen_AOT/AOT_stimuli/rescaled_final/1676_fw.mp4	0.0	338.7571065425873	
76	322.7732584476471	fix_post	2		12	74.0	2.5	/experiments/knapen_AOT/AOT_stimuli/rescaled_final/1676_fw.mp4	0.0	338.87512588500977	0.10007548332214355
77	322.87333393096924	fix_pre	0		120	75.0	2.5	blank	1.0	338.9752013683319	1.0001137256622314
77	323.87344765663147	movie	1		300	75.0	2.5	blank	1.0	339.97531509399414	2.500339984893799
77	324.2569971084595	pulse	1	t		75.0	2.5	blank	1.0	340.35886454582214	
77	325.8572590351105	pulse	1	t		75.0	2.5	blank	1.0	341.95912647247314	
77	326.37378764152527	fix_post	2		12	75.0	2.5	blank	1.0	342.47565507888794	0.10002899169921875
78	326.4738166332245	fix_pre	0		119	76.0	2.5	/experiments/knapen_AOT/AOT_stimuli/rescaled_final/2010_rv.mp4	0.0	342.57568407058716	1.008535385131836
78	327.45754313468933	pulse	0	t		76.0	2.5	/experiments/knapen_AOT/AOT_stimuli/rescaled_final/2010_rv.mp4	0.0	343.559410572052	
78	327.4823520183563	movie	1		258	76.0	2.5	/experiments/knapen_AOT/AOT_stimuli/rescaled_final/2010_rv.mp4	0.0	343.584219455719	2.4919986724853516
78	329.0578062534332	pulse	1	t		76.0	2.5	/experiments/knapen_AOT/AOT_stimuli/rescaled_final/2010_rv.mp4	0.0	345.1596736907959	
78	329.9743506908417	fix_post	2		12	76.0	2.5	/experiments/knapen_AOT/AOT_stimuli/rescaled_final/2010_rv.mp4	0.0	346.07621812820435	0.10003066062927246
79	330.07438135147095	fix_pre	0		120	77.0	2.5	/experiments/knapen_AOT/AOT_stimuli/rescaled_final/0898_rv.mp4	0.0	346.1762487888336	1.0086159706115723
79	330.65795707702637	pulse	0	t		77.0	2.5	/experiments/knapen_AOT/AOT_stimuli/rescaled_final/0898_rv.mp4	0.0	346.75982451438904	
79	331.0829973220825	movie	1		278	77.0	2.5	/experiments/knapen_AOT/AOT_stimuli/rescaled_final/0898_rv.mp4	0.0	347.1848647594452	2.491910934448242
79	332.25733256340027	pulse	1	t		77.0	2.5	/experiments/knapen_AOT/AOT_stimuli/rescaled_final/0898_rv.mp4	0.0	348.35920000076294	
79	333.57490825653076	fix_post	2		12	77.0	2.5	/experiments/knapen_AOT/AOT_stimuli/rescaled_final/0898_rv.mp4	0.0	349.67677569389343	0.09999942779541016
80	333.6749076843262	fix_pre	0		120	78.0	2.5	/experiments/knapen_AOT/AOT_stimuli/rescaled_final/0178_rv.mp4	0.0	349.77677512168884	1.0085086822509766
80	333.85850954055786	pulse	0	t		78.0	2.5	/experiments/knapen_AOT/AOT_stimuli/rescaled_final/0178_rv.mp4	0.0	349.96037697792053	
80	334.68341636657715	movie	1		284	78.0	2.5	/experiments/knapen_AOT/AOT_stimuli/rescaled_final/0178_rv.mp4	0.0	350.7852838039398	2.4920005798339844
80	335.4564893245697	pulse	1	t		78.0	2.5	/experiments/knapen_AOT/AOT_stimuli/rescaled_final/0178_rv.mp4	0.0	351.5583567619324	
80	337.0567617416382	pulse	1	t		78.0	2.5	/experiments/knapen_AOT/AOT_stimuli/rescaled_final/0178_rv.mp4	0.0	353.15862917900085	
80	337.17541694641113	fix_post	2		12	78.0	2.5	/experiments/knapen_AOT/AOT_stimuli/rescaled_final/0178_rv.mp4	0.0	353.2772843837738	0.10001611709594727
81	337.2754330635071	fix_pre	0		120	79.0	2.5	/experiments/knapen_AOT/AOT_stimuli/rescaled_final/0053_fw.mp4	0.0	353.37730050086975	1.0085229873657227
81	338.2839560508728	movie	1		282	79.0	2.5	/experiments/knapen_AOT/AOT_stimuli/rescaled_final/0053_fw.mp4	0.0	354.3858234882355	2.492013931274414
81	338.6582098007202	pulse	1	t		79.0	2.5	/experiments/knapen_AOT/AOT_stimuli/rescaled_final/0053_fw.mp4	0.0	354.7600772380829	
81	340.2573277950287	pulse	1	t		79.0	2.5	/experiments/knapen_AOT/AOT_stimuli/rescaled_final/0053_fw.mp4	0.0	356.35919523239136	
81	340.7759699821472	fix_post	2		12	79.0	2.5	/experiments/knapen_AOT/AOT_stimuli/rescaled_final/0053_fw.mp4	0.0	356.8778374195099	0.10000824928283691
82	340.87597823143005	fix_pre	0		119	80.0	2.5	/experiments/knapen_AOT/AOT_stimuli/rescaled_final/0254_fw.mp4	0.0	356.9778456687927	1.0001294612884521
82	341.8600959777832	pulse	0	t		80.0	2.5	/experiments/knapen_AOT/AOT_stimuli/rescaled_final/0254_fw.mp4	0.0	357.9619634151459	
82	341.8761076927185	movie	1		282	80.0	2.5	/experiments/knapen_AOT/AOT_stimuli/rescaled_final/0254_fw.mp4	0.0	357.9779751300812	2.5004045963287354
82	343.4581708908081	pulse	1	t		80.0	2.5	/experiments/knapen_AOT/AOT_stimuli/rescaled_final/0254_fw.mp4	0.0	359.5600383281708	
82	344.37651228904724	fix_post	2		12	80.0	2.5	/experiments/knapen_AOT/AOT_stimuli/rescaled_final/0254_fw.mp4	0.0	360.4783797264099	0.10001683235168457
83	344.4765291213989	fix_pre	0		120	81.0	2.5	/experiments/knapen_AOT/AOT_stimuli/rescaled_final/1820_fw.mp4	0.0	360.5783965587616	1.0085368156433105
83	345.05254316329956	pulse	0	t		81.0	2.5	/experiments/knapen_AOT/AOT_stimuli/rescaled_final/1820_fw.mp4	0.0	361.15441060066223	
83	345.48506593704224	movie	1		280	81.0	2.5	/experiments/knapen_AOT/AOT_stimuli/rescaled_final/1820_fw.mp4	0.0	361.5869333744049	2.491966962814331
83	346.6523628234863	pulse	1	t		81.0	2.5	/experiments/knapen_AOT/AOT_stimuli/rescaled_final/1820_fw.mp4	0.0	362.754230260849	
83	347.97703289985657	fix_post	2		12	81.0	2.5	/experiments/knapen_AOT/AOT_stimuli/rescaled_final/1820_fw.mp4	0.0	364.07890033721924	0.10019445419311523
84	348.0772273540497	fix_pre	0		120	82.0	2.5	/experiments/knapen_AOT/AOT_stimuli/rescaled_final/1801_rv.mp4	0.0	364.17909479141235	1.0083329677581787
84	348.2523913383484	pulse	0	t		82.0	2.5	/experiments/knapen_AOT/AOT_stimuli/rescaled_final/1801_rv.mp4	0.0	364.35425877571106	
84	349.08556032180786	movie	1		279	82.0	2.5	/experiments/knapen_AOT/AOT_stimuli/rescaled_final/1801_rv.mp4	0.0	365.18742775917053	2.4920239448547363
84	349.85254192352295	pulse	1	t		82.0	2.5	/experiments/knapen_AOT/AOT_stimuli/rescaled_final/1801_rv.mp4	0.0	365.9544093608856	
84	351.45286560058594	pulse	1	t		82.0	2.5	/experiments/knapen_AOT/AOT_stimuli/rescaled_final/1801_rv.mp4	0.0	367.5547330379486	
84	351.5775842666626	fix_post	2		12	82.0	2.5	/experiments/knapen_AOT/AOT_stimuli/rescaled_final/1801_rv.mp4	0.0	367.67945170402527	0.1000669002532959
85	351.6776511669159	fix_pre	0		120	83.0	2.5	blank	1.0	367.77951860427856	1.0000903606414795
85	352.6777415275574	movie	1		300	83.0	2.5	blank	1.0	368.77960896492004	2.5003700256347656
85	353.05312514305115	pulse	1	t		83.0	2.5	blank	1.0	369.1549925804138	
85	354.65324306488037	pulse	1	t		83.0	2.5	blank	1.0	370.75511050224304	
85	355.17811155319214	fix_post	2		12	83.0	2.5	blank	1.0	371.2799789905548	0.1000511646270752
87	355.2781627178192	stim	0		1715					371.3800301551819	14.293785095214844
87	356.25351333618164	pulse	0	t						372.3553807735443	
87	357.85376238822937	pulse	0	t						373.95562982559204	
87	359.45395135879517	pulse	0	t						375.55581879615784	
87	361.0542221069336	pulse	0	t						377.15608954429626	
87	362.65450072288513	pulse	0	t						378.7563681602478	
87	364.2546751499176	pulse	0	t						380.3565425872803	
87	365.85499000549316	pulse	0	t						381.95685744285583	
87	367.4551742076874	pulse	0	t						383.55704164505005	
87	369.05540561676025	pulse	0	t						385.1572730541229	
