trial_nr	onset	event_type	phase	response	nr_frames	movie_index	movie_duration	movie_file	blank	onset_abs	duration
0	0.17483806610107422	stim	0		1					19.82598304748535	0.03324127197265625
0	0.19800996780395508	response	0	space						19.849154949188232	
1	0.20807933807373047	stim	0		4450					19.859224319458008	37.09833598136902
1	37.29427790641785	pulse	0	t						56.945422887802124	
1	37.30641531944275	stim	1		1714					56.957560300827026	14.301069498062134
1	38.889089584350586	pulse	1	t						58.54023456573486	
1	40.48949337005615	pulse	1	t						60.14063835144043	
1	42.08960962295532	pulse	1	t						61.7407546043396	
1	43.68987703323364	pulse	1	t						63.34102201461792	
1	45.29023289680481	pulse	1	t						64.94137787818909	
1	46.89033389091492	pulse	1	t						66.5414788722992	
1	48.49078726768494	pulse	1	t						68.14193224906921	
1	50.09079170227051	pulse	1	t						69.74193668365479	
2	51.60748481750488	fix_pre	0		11	0.0	2.5	/experiments/knapen_AOT/AOT_stimuli/rescaled_final/1683_rv.mp4	0.0	71.25862979888916	0.11674380302429199
2	51.69103121757507	pulse	0	t		0.0	2.5	/experiments/knapen_AOT/AOT_stimuli/rescaled_final/1683_rv.mp4	0.0	71.34217619895935	
2	51.724228620529175	movie	1		272	0.0	2.5	/experiments/knapen_AOT/AOT_stimuli/rescaled_final/1683_rv.mp4	0.0	71.37537360191345	2.483790636062622
2	53.29140520095825	pulse	1	t		0.0	2.5	/experiments/knapen_AOT/AOT_stimuli/rescaled_final/1683_rv.mp4	0.0	72.94255018234253	
2	54.2080192565918	fix_post	2		12	0.0	2.5	/experiments/knapen_AOT/AOT_stimuli/rescaled_final/1683_rv.mp4	0.0	73.85916423797607	0.0998678207397461
3	54.30788707733154	fix_pre	0		120	1.0	2.5	/experiments/knapen_AOT/AOT_stimuli/rescaled_final/1539_fw.mp4	0.0	73.95903205871582	1.0085453987121582
3	54.8915433883667	pulse	0	t		1.0	2.5	/experiments/knapen_AOT/AOT_stimuli/rescaled_final/1539_fw.mp4	0.0	74.54268836975098	
3	55.3164324760437	movie	1		272	1.0	2.5	/experiments/knapen_AOT/AOT_stimuli/rescaled_final/1539_fw.mp4	0.0	74.96757745742798	2.491983652114868
3	56.49127984046936	pulse	1	t		1.0	2.5	/experiments/knapen_AOT/AOT_stimuli/rescaled_final/1539_fw.mp4	0.0	76.14242482185364	
3	57.80841612815857	fix_post	2		12	1.0	2.5	/experiments/knapen_AOT/AOT_stimuli/rescaled_final/1539_fw.mp4	0.0	77.45956110954285	0.10000991821289062
4	57.90842604637146	fix_pre	0		120	2.0	2.5	/experiments/knapen_AOT/AOT_stimuli/rescaled_final/1031_fw.mp4	0.0	77.55957102775574	1.0086171627044678
4	58.09243297576904	pulse	0	t		2.0	2.5	/experiments/knapen_AOT/AOT_stimuli/rescaled_final/1031_fw.mp4	0.0	77.74357795715332	
4	58.91704320907593	movie	1		279	2.0	2.5	/experiments/knapen_AOT/AOT_stimuli/rescaled_final/1031_fw.mp4	0.0	78.5681881904602	2.491898775100708
4	59.690699338912964	pulse	1	t		2.0	2.5	/experiments/knapen_AOT/AOT_stimuli/rescaled_final/1031_fw.mp4	0.0	79.34184432029724	
4	61.29052019119263	pulse	1	t		2.0	2.5	/experiments/knapen_AOT/AOT_stimuli/rescaled_final/1031_fw.mp4	0.0	80.9416651725769	
4	61.408941984176636	fix_post	2		12	2.0	2.5	/experiments/knapen_AOT/AOT_stimuli/rescaled_final/1031_fw.mp4	0.0	81.06008696556091	0.10002255439758301
5	61.50896453857422	fix_pre	0		120	3.0	2.5	/experiments/knapen_AOT/AOT_stimuli/rescaled_final/1166_rv.mp4	0.0	81.1601095199585	1.008732557296753
5	62.51769709587097	movie	1		258	3.0	2.5	/experiments/knapen_AOT/AOT_stimuli/rescaled_final/1166_rv.mp4	0.0	82.16884207725525	2.491997003555298
5	62.89176893234253	pulse	1	t		3.0	2.5	/experiments/knapen_AOT/AOT_stimuli/rescaled_final/1166_rv.mp4	0.0	82.5429139137268	
5	64.49121832847595	pulse	1	t		3.0	2.5	/experiments/knapen_AOT/AOT_stimuli/rescaled_final/1166_rv.mp4	0.0	84.14236330986023	
5	65.00969409942627	fix_post	2		12	3.0	2.5	/experiments/knapen_AOT/AOT_stimuli/rescaled_final/1166_rv.mp4	0.0	84.66083908081055	0.099822998046875
6	65.10951709747314	fix_pre	0		119	4.0	2.5	/experiments/knapen_AOT/AOT_stimuli/rescaled_final/0890_rv.mp4	0.0	84.76066207885742	1.0001747608184814
6	66.0932297706604	pulse	0	t		4.0	2.5	/experiments/knapen_AOT/AOT_stimuli/rescaled_final/0890_rv.mp4	0.0	85.74437475204468	
6	66.10969185829163	movie	1		269	4.0	2.5	/experiments/knapen_AOT/AOT_stimuli/rescaled_final/0890_rv.mp4	0.0	85.7608368396759	2.5086774826049805
6	67.6935818195343	pulse	1	t		4.0	2.5	/experiments/knapen_AOT/AOT_stimuli/rescaled_final/0890_rv.mp4	0.0	87.34472680091858	
6	68.6183693408966	fix_post	2		11	4.0	2.5	/experiments/knapen_AOT/AOT_stimuli/rescaled_final/0890_rv.mp4	0.0	88.26951432228088	0.09168767929077148
7	68.71005702018738	fix_pre	0		120	5.0	2.5	blank	1.0	88.36120200157166	1.0001418590545654
7	69.28702402114868	pulse	0	t		5.0	2.5	blank	1.0	88.93816900253296	
7	69.71019887924194	movie	1		300	5.0	2.5	blank	1.0	89.36134386062622	2.500420570373535
7	70.88559150695801	pulse	1	t		5.0	2.5	blank	1.0	90.53673648834229	
7	72.21061944961548	fix_post	2		12	5.0	2.5	blank	1.0	91.86176443099976	0.09998607635498047
8	72.31060552597046	fix_pre	0		120	6.0	2.5	/experiments/knapen_AOT/AOT_stimuli/rescaled_final/0899_rv.mp4	0.0	91.96175050735474	1.008760690689087
8	72.48584651947021	pulse	0	t		6.0	2.5	/experiments/knapen_AOT/AOT_stimuli/rescaled_final/0899_rv.mp4	0.0	92.13699150085449	
8	73.31936621665955	movie	1		269	6.0	2.5	/experiments/knapen_AOT/AOT_stimuli/rescaled_final/0899_rv.mp4	0.0	92.97051119804382	2.4921278953552246
8	74.09262871742249	pulse	1	t		6.0	2.5	/experiments/knapen_AOT/AOT_stimuli/rescaled_final/0899_rv.mp4	0.0	93.74377369880676	
8	75.68642568588257	pulse	1	t		6.0	2.5	/experiments/knapen_AOT/AOT_stimuli/rescaled_final/0899_rv.mp4	0.0	95.33757066726685	
8	75.81149411201477	fix_post	2		12	6.0	2.5	/experiments/knapen_AOT/AOT_stimuli/rescaled_final/0899_rv.mp4	0.0	95.46263909339905	0.09965920448303223
9	75.9111533164978	fix_pre	0		120	7.0	2.5	/experiments/knapen_AOT/AOT_stimuli/rescaled_final/1075_rv.mp4	0.0	95.56229829788208	1.0085911750793457
9	76.91974449157715	movie	1		277	7.0	2.5	/experiments/knapen_AOT/AOT_stimuli/rescaled_final/1075_rv.mp4	0.0	96.57088947296143	2.491945505142212
9	77.28675103187561	pulse	1	t		7.0	2.5	/experiments/knapen_AOT/AOT_stimuli/rescaled_final/1075_rv.mp4	0.0	96.93789601325989	
9	78.88699269294739	pulse	1	t		7.0	2.5	/experiments/knapen_AOT/AOT_stimuli/rescaled_final/1075_rv.mp4	0.0	98.53813767433167	
9	79.41168999671936	fix_post	2		12	7.0	2.5	/experiments/knapen_AOT/AOT_stimuli/rescaled_final/1075_rv.mp4	0.0	99.06283497810364	0.09998226165771484
10	79.51167225837708	fix_pre	0		118	8.0	2.5	/experiments/knapen_AOT/AOT_stimuli/rescaled_final/0859_fw.mp4	0.0	99.16281723976135	0.9918482303619385
10	80.48705434799194	pulse	0	t		8.0	2.5	/experiments/knapen_AOT/AOT_stimuli/rescaled_final/0859_fw.mp4	0.0	100.13819932937622	
10	80.50352048873901	movie	1		271	8.0	2.5	/experiments/knapen_AOT/AOT_stimuli/rescaled_final/0859_fw.mp4	0.0	100.15466547012329	2.5005898475646973
10	82.08538627624512	pulse	1	t		8.0	2.5	/experiments/knapen_AOT/AOT_stimuli/rescaled_final/0859_fw.mp4	0.0	101.7365312576294	
10	83.00411033630371	fix_post	2		12	8.0	2.5	/experiments/knapen_AOT/AOT_stimuli/rescaled_final/0859_fw.mp4	0.0	102.65525531768799	0.10004305839538574
11	83.1041533946991	fix_pre	0		120	9.0	2.5	/experiments/knapen_AOT/AOT_stimuli/rescaled_final/0490_fw.mp4	0.0	102.75529837608337	1.0082049369812012
11	83.68753099441528	pulse	0	t		9.0	2.5	/experiments/knapen_AOT/AOT_stimuli/rescaled_final/0490_fw.mp4	0.0	103.33867597579956	
11	84.1123583316803	movie	1		255	9.0	2.5	/experiments/knapen_AOT/AOT_stimuli/rescaled_final/0490_fw.mp4	0.0	103.76350331306458	2.4920547008514404
11	85.2866883277893	pulse	1	t		9.0	2.5	/experiments/knapen_AOT/AOT_stimuli/rescaled_final/0490_fw.mp4	0.0	104.93783330917358	
11	86.60441303253174	fix_post	2		12	9.0	2.5	/experiments/knapen_AOT/AOT_stimuli/rescaled_final/0490_fw.mp4	0.0	106.25555801391602	0.10027432441711426
12	86.70468735694885	fix_pre	0		120	10.0	2.5	/experiments/knapen_AOT/AOT_stimuli/rescaled_final/2036_rv.mp4	0.0	106.35583233833313	1.0083911418914795
12	86.8880090713501	pulse	0	t		10.0	2.5	/experiments/knapen_AOT/AOT_stimuli/rescaled_final/2036_rv.mp4	0.0	106.53915405273438	
12	87.71307849884033	movie	1		268	10.0	2.5	/experiments/knapen_AOT/AOT_stimuli/rescaled_final/2036_rv.mp4	0.0	107.36422348022461	2.492276191711426
12	88.48756814002991	pulse	1	t		10.0	2.5	/experiments/knapen_AOT/AOT_stimuli/rescaled_final/2036_rv.mp4	0.0	108.13871312141418	
12	90.08839511871338	pulse	1	t		10.0	2.5	/experiments/knapen_AOT/AOT_stimuli/rescaled_final/2036_rv.mp4	0.0	109.73954010009766	
12	90.20535469055176	fix_post	2		12	10.0	2.5	/experiments/knapen_AOT/AOT_stimuli/rescaled_final/2036_rv.mp4	0.0	109.85649967193604	0.09992456436157227
13	90.30527925491333	fix_pre	0		120	11.0	2.5	/experiments/knapen_AOT/AOT_stimuli/rescaled_final/1528_rv.mp4	0.0	109.95642423629761	1.0081899166107178
13	91.31346917152405	movie	1		266	11.0	2.5	/experiments/knapen_AOT/AOT_stimuli/rescaled_final/1528_rv.mp4	0.0	110.96461415290833	2.4921774864196777
13	91.68759751319885	pulse	1	t		11.0	2.5	/experiments/knapen_AOT/AOT_stimuli/rescaled_final/1528_rv.mp4	0.0	111.33874249458313	
13	93.28849864006042	pulse	1	t		11.0	2.5	/experiments/knapen_AOT/AOT_stimuli/rescaled_final/1528_rv.mp4	0.0	112.9396436214447	
13	93.80564665794373	fix_post	2		12	11.0	2.5	/experiments/knapen_AOT/AOT_stimuli/rescaled_final/1528_rv.mp4	0.0	113.456791639328	0.09986162185668945
14	93.90550827980042	fix_pre	0		119	12.0	2.5	/experiments/knapen_AOT/AOT_stimuli/rescaled_final/0929_fw.mp4	0.0	113.55665326118469	1.0001535415649414
14	94.88917636871338	pulse	0	t		12.0	2.5	/experiments/knapen_AOT/AOT_stimuli/rescaled_final/0929_fw.mp4	0.0	114.54032135009766	
14	94.90566182136536	movie	1		284	12.0	2.5	/experiments/knapen_AOT/AOT_stimuli/rescaled_final/0929_fw.mp4	0.0	114.55680680274963	2.500663995742798
14	96.48827624320984	pulse	1	t		12.0	2.5	/experiments/knapen_AOT/AOT_stimuli/rescaled_final/0929_fw.mp4	0.0	116.13942122459412	
14	97.40632581710815	fix_post	2		12	12.0	2.5	/experiments/knapen_AOT/AOT_stimuli/rescaled_final/0929_fw.mp4	0.0	117.05747079849243	0.09980487823486328
15	97.50613069534302	fix_pre	0		120	13.0	2.5	/experiments/knapen_AOT/AOT_stimuli/rescaled_final/0963_rv.mp4	0.0	117.1572756767273	1.0084753036499023
15	98.08978819847107	pulse	0	t		13.0	2.5	/experiments/knapen_AOT/AOT_stimuli/rescaled_final/0963_rv.mp4	0.0	117.74093317985535	
15	98.51460599899292	movie	1		262	13.0	2.5	/experiments/knapen_AOT/AOT_stimuli/rescaled_final/0963_rv.mp4	0.0	118.1657509803772	2.4921863079071045
15	99.68829584121704	pulse	1	t		13.0	2.5	/experiments/knapen_AOT/AOT_stimuli/rescaled_final/0963_rv.mp4	0.0	119.33944082260132	
15	101.00679230690002	fix_post	2		12	13.0	2.5	/experiments/knapen_AOT/AOT_stimuli/rescaled_final/0963_rv.mp4	0.0	120.6579372882843	0.10006880760192871
16	101.10686111450195	fix_pre	0		120	14.0	2.5	blank	1.0	120.75800609588623	0.9998610019683838
16	101.29021620750427	pulse	0	t		14.0	2.5	blank	1.0	120.94136118888855	
16	102.10672211647034	movie	1		300	14.0	2.5	blank	1.0	121.75786709785461	2.500399351119995
16	102.89042282104492	pulse	1	t		14.0	2.5	blank	1.0	122.5415678024292	
16	104.49062037467957	pulse	1	t		14.0	2.5	blank	1.0	124.14176535606384	
16	104.60712146759033	fix_post	2		12	14.0	2.5	blank	1.0	124.25826644897461	0.10003161430358887
17	104.70715308189392	fix_pre	0		120	15.0	2.5	/experiments/knapen_AOT/AOT_stimuli/rescaled_final/0276_fw.mp4	0.0	124.3582980632782	1.0085279941558838
17	105.7156810760498	movie	1		268	15.0	2.5	/experiments/knapen_AOT/AOT_stimuli/rescaled_final/0276_fw.mp4	0.0	125.36682605743408	2.492347240447998
17	106.08937239646912	pulse	1	t		15.0	2.5	/experiments/knapen_AOT/AOT_stimuli/rescaled_final/0276_fw.mp4	0.0	125.7405173778534	
17	107.69020056724548	pulse	1	t		15.0	2.5	/experiments/knapen_AOT/AOT_stimuli/rescaled_final/0276_fw.mp4	0.0	127.34134554862976	
17	108.2080283164978	fix_post	2		12	15.0	2.5	/experiments/knapen_AOT/AOT_stimuli/rescaled_final/0276_fw.mp4	0.0	127.85917329788208	0.09966301918029785
18	108.3076913356781	fix_pre	0		119	16.0	2.5	/experiments/knapen_AOT/AOT_stimuli/rescaled_final/1766_fw.mp4	0.0	127.95883631706238	1.0001256465911865
18	109.29135298728943	pulse	0	t		16.0	2.5	/experiments/knapen_AOT/AOT_stimuli/rescaled_final/1766_fw.mp4	0.0	128.9424979686737	
18	109.30781698226929	movie	1		277	16.0	2.5	/experiments/knapen_AOT/AOT_stimuli/rescaled_final/1766_fw.mp4	0.0	128.95896196365356	2.500369071960449
18	110.89207410812378	pulse	1	t		16.0	2.5	/experiments/knapen_AOT/AOT_stimuli/rescaled_final/1766_fw.mp4	0.0	130.54321908950806	
18	111.80818605422974	fix_post	2		12	16.0	2.5	/experiments/knapen_AOT/AOT_stimuli/rescaled_final/1766_fw.mp4	0.0	131.459331035614	0.10004830360412598
19	111.90823435783386	fix_pre	0		120	17.0	2.5	/experiments/knapen_AOT/AOT_stimuli/rescaled_final/0711_fw.mp4	0.0	131.55937933921814	1.0086991786956787
19	112.49218201637268	pulse	0	t		17.0	2.5	/experiments/knapen_AOT/AOT_stimuli/rescaled_final/0711_fw.mp4	0.0	132.14332699775696	
19	112.91693353652954	movie	1		271	17.0	2.5	/experiments/knapen_AOT/AOT_stimuli/rescaled_final/0711_fw.mp4	0.0	132.56807851791382	2.4920551776885986
19	114.09079670906067	pulse	1	t		17.0	2.5	/experiments/knapen_AOT/AOT_stimuli/rescaled_final/0711_fw.mp4	0.0	133.74194169044495	
19	115.40898871421814	fix_post	2		12	17.0	2.5	/experiments/knapen_AOT/AOT_stimuli/rescaled_final/0711_fw.mp4	0.0	135.06013369560242	0.10000133514404297
20	115.50899004936218	fix_pre	0		120	18.0	2.5	/experiments/knapen_AOT/AOT_stimuli/rescaled_final/1606_fw.mp4	0.0	135.16013503074646	1.008361577987671
20	115.6923143863678	pulse	0	t		18.0	2.5	/experiments/knapen_AOT/AOT_stimuli/rescaled_final/1606_fw.mp4	0.0	135.34345936775208	
20	116.51735162734985	movie	1		272	18.0	2.5	/experiments/knapen_AOT/AOT_stimuli/rescaled_final/1606_fw.mp4	0.0	136.16849660873413	2.5002951622009277
20	117.29080843925476	pulse	1	t		18.0	2.5	/experiments/knapen_AOT/AOT_stimuli/rescaled_final/1606_fw.mp4	0.0	136.94195342063904	
20	118.89154601097107	pulse	1	t		18.0	2.5	/experiments/knapen_AOT/AOT_stimuli/rescaled_final/1606_fw.mp4	0.0	138.54269099235535	
20	119.01764678955078	fix_post	2		11	18.0	2.5	/experiments/knapen_AOT/AOT_stimuli/rescaled_final/1606_fw.mp4	0.0	138.66879177093506	0.0916295051574707
21	119.10927629470825	fix_pre	0		120	19.0	2.5	/experiments/knapen_AOT/AOT_stimuli/rescaled_final/0416_fw.mp4	0.0	138.76042127609253	1.0085289478302002
21	120.11780524253845	movie	1		270	19.0	2.5	/experiments/knapen_AOT/AOT_stimuli/rescaled_final/0416_fw.mp4	0.0	139.76895022392273	2.492063522338867
21	120.49175453186035	pulse	1	t		19.0	2.5	/experiments/knapen_AOT/AOT_stimuli/rescaled_final/0416_fw.mp4	0.0	140.14289951324463	
21	122.09110426902771	pulse	1	t		19.0	2.5	/experiments/knapen_AOT/AOT_stimuli/rescaled_final/0416_fw.mp4	0.0	141.742249250412	
21	122.60986876487732	fix_post	2		12	19.0	2.5	/experiments/knapen_AOT/AOT_stimuli/rescaled_final/0416_fw.mp4	0.0	142.2610137462616	0.10001587867736816
22	122.70988464355469	fix_pre	0		119	20.0	2.5	blank	1.0	142.36102962493896	0.9917566776275635
22	123.68608379364014	pulse	0	t		20.0	2.5	blank	1.0	143.3372287750244	
22	123.70164132118225	movie	1		301	20.0	2.5	blank	1.0	143.35278630256653	2.508774757385254
22	125.28584957122803	pulse	1	t		20.0	2.5	blank	1.0	144.9369945526123	
22	126.2104160785675	fix_post	2		12	20.0	2.5	blank	1.0	145.86156105995178	0.09996271133422852
23	126.31037878990173	fix_pre	0		120	21.0	2.5	/experiments/knapen_AOT/AOT_stimuli/rescaled_final/2077_rv.mp4	0.0	145.961523771286	1.0085947513580322
23	126.88588094711304	pulse	0	t		21.0	2.5	/experiments/knapen_AOT/AOT_stimuli/rescaled_final/2077_rv.mp4	0.0	146.53702592849731	
23	127.31897354125977	movie	1		266	21.0	2.5	/experiments/knapen_AOT/AOT_stimuli/rescaled_final/2077_rv.mp4	0.0	146.97011852264404	2.4920706748962402
23	128.48602747917175	pulse	1	t		21.0	2.5	/experiments/knapen_AOT/AOT_stimuli/rescaled_final/2077_rv.mp4	0.0	148.13717246055603	
23	129.811044216156	fix_post	2		12	21.0	2.5	/experiments/knapen_AOT/AOT_stimuli/rescaled_final/2077_rv.mp4	0.0	149.46218919754028	0.09990572929382324
24	129.91094994544983	fix_pre	0		120	22.0	2.5	/experiments/knapen_AOT/AOT_stimuli/rescaled_final/1686_fw.mp4	0.0	149.5620949268341	1.0088684558868408
24	130.08638310432434	pulse	0	t		22.0	2.5	/experiments/knapen_AOT/AOT_stimuli/rescaled_final/1686_fw.mp4	0.0	149.73752808570862	
24	130.91981840133667	movie	1		264	22.0	2.5	/experiments/knapen_AOT/AOT_stimuli/rescaled_final/1686_fw.mp4	0.0	150.57096338272095	2.491629123687744
24	131.68682432174683	pulse	1	t		22.0	2.5	/experiments/knapen_AOT/AOT_stimuli/rescaled_final/1686_fw.mp4	0.0	151.3379693031311	
24	133.28668332099915	pulse	1	t		22.0	2.5	/experiments/knapen_AOT/AOT_stimuli/rescaled_final/1686_fw.mp4	0.0	152.93782830238342	
24	133.4114475250244	fix_post	2		12	22.0	2.5	/experiments/knapen_AOT/AOT_stimuli/rescaled_final/1686_fw.mp4	0.0	153.0625925064087	0.09999561309814453
25	133.51144313812256	fix_pre	0		120	23.0	2.5	/experiments/knapen_AOT/AOT_stimuli/rescaled_final/0269_rv.mp4	0.0	153.16258811950684	1.00872802734375
25	134.5201711654663	movie	1		271	23.0	2.5	/experiments/knapen_AOT/AOT_stimuli/rescaled_final/0269_rv.mp4	0.0	154.1713161468506	2.491806983947754
25	134.8870186805725	pulse	1	t		23.0	2.5	/experiments/knapen_AOT/AOT_stimuli/rescaled_final/0269_rv.mp4	0.0	154.5381636619568	
25	136.48719120025635	pulse	1	t		23.0	2.5	/experiments/knapen_AOT/AOT_stimuli/rescaled_final/0269_rv.mp4	0.0	156.13833618164062	
25	137.01197814941406	fix_post	2		12	23.0	2.5	/experiments/knapen_AOT/AOT_stimuli/rescaled_final/0269_rv.mp4	0.0	156.66312313079834	0.10002470016479492
26	137.11200284957886	fix_pre	0		118	24.0	2.5	/experiments/knapen_AOT/AOT_stimuli/rescaled_final/0452_fw.mp4	0.0	156.76314783096313	0.9918029308319092
26	138.08740139007568	pulse	0	t		24.0	2.5	/experiments/knapen_AOT/AOT_stimuli/rescaled_final/0452_fw.mp4	0.0	157.73854637145996	
26	138.10380578041077	movie	1		258	24.0	2.5	/experiments/knapen_AOT/AOT_stimuli/rescaled_final/0452_fw.mp4	0.0	157.75495076179504	2.5005054473876953
26	139.686354637146	pulse	1	t		24.0	2.5	/experiments/knapen_AOT/AOT_stimuli/rescaled_final/0452_fw.mp4	0.0	159.33749961853027	
26	140.60431122779846	fix_post	2		12	24.0	2.5	/experiments/knapen_AOT/AOT_stimuli/rescaled_final/0452_fw.mp4	0.0	160.25545620918274	0.10015416145324707
27	140.7044653892517	fix_pre	0		120	25.0	2.5	/experiments/knapen_AOT/AOT_stimuli/rescaled_final/2117_rv.mp4	0.0	160.355610370636	1.0082988739013672
27	141.28810930252075	pulse	0	t		25.0	2.5	/experiments/knapen_AOT/AOT_stimuli/rescaled_final/2117_rv.mp4	0.0	160.93925428390503	
27	141.71276426315308	movie	1		274	25.0	2.5	/experiments/knapen_AOT/AOT_stimuli/rescaled_final/2117_rv.mp4	0.0	161.36390924453735	2.4922502040863037
27	142.88729882240295	pulse	1	t		25.0	2.5	/experiments/knapen_AOT/AOT_stimuli/rescaled_final/2117_rv.mp4	0.0	162.53844380378723	
27	144.20501446723938	fix_post	2		12	25.0	2.5	/experiments/knapen_AOT/AOT_stimuli/rescaled_final/2117_rv.mp4	0.0	163.85615944862366	0.09974503517150879
28	144.3047595024109	fix_pre	0		120	26.0	2.5	/experiments/knapen_AOT/AOT_stimuli/rescaled_final/0029_rv.mp4	0.0	163.95590448379517	1.008807897567749
28	144.4883370399475	pulse	0	t		26.0	2.5	/experiments/knapen_AOT/AOT_stimuli/rescaled_final/0029_rv.mp4	0.0	164.1394820213318	
28	145.31356739997864	movie	1		259	26.0	2.5	/experiments/knapen_AOT/AOT_stimuli/rescaled_final/0029_rv.mp4	0.0	164.96471238136292	2.4917099475860596
28	146.08663773536682	pulse	1	t		26.0	2.5	/experiments/knapen_AOT/AOT_stimuli/rescaled_final/0029_rv.mp4	0.0	165.7377827167511	
28	147.68805384635925	pulse	1	t		26.0	2.5	/experiments/knapen_AOT/AOT_stimuli/rescaled_final/0029_rv.mp4	0.0	167.33919882774353	
28	147.8052773475647	fix_post	2		12	26.0	2.5	/experiments/knapen_AOT/AOT_stimuli/rescaled_final/0029_rv.mp4	0.0	167.45642232894897	0.10001158714294434
29	147.90528893470764	fix_pre	0		120	27.0	2.5	blank	1.0	167.55643391609192	1.0001544952392578
29	148.9054434299469	movie	1		300	27.0	2.5	blank	1.0	168.55658841133118	2.5003662109375
29	149.28931379318237	pulse	1	t		27.0	2.5	blank	1.0	168.94045877456665	
29	150.8892538547516	pulse	1	t		27.0	2.5	blank	1.0	170.54039883613586	
29	151.4058096408844	fix_post	2		12	27.0	2.5	blank	1.0	171.05695462226868	0.10013675689697266
30	151.50594639778137	fix_pre	0		119	28.0	2.5	/experiments/knapen_AOT/AOT_stimuli/rescaled_final/1598_rv.mp4	0.0	171.15709137916565	1.0086627006530762
30	152.48956727981567	pulse	0	t		28.0	2.5	/experiments/knapen_AOT/AOT_stimuli/rescaled_final/1598_rv.mp4	0.0	172.14071226119995	
30	152.51460909843445	movie	1		259	28.0	2.5	/experiments/knapen_AOT/AOT_stimuli/rescaled_final/1598_rv.mp4	0.0	172.16575407981873	2.5001134872436523
30	154.08823084831238	pulse	1	t		28.0	2.5	/experiments/knapen_AOT/AOT_stimuli/rescaled_final/1598_rv.mp4	0.0	173.73937582969666	
30	155.0147225856781	fix_post	2		11	28.0	2.5	/experiments/knapen_AOT/AOT_stimuli/rescaled_final/1598_rv.mp4	0.0	174.66586756706238	0.0919029712677002
31	155.1066255569458	fix_pre	0		120	29.0	2.5	/experiments/knapen_AOT/AOT_stimuli/rescaled_final/0005_rv.mp4	0.0	174.75777053833008	1.0083606243133545
31	155.68999862670898	pulse	0	t		29.0	2.5	/experiments/knapen_AOT/AOT_stimuli/rescaled_final/0005_rv.mp4	0.0	175.34114360809326	
31	156.11498618125916	movie	1		268	29.0	2.5	/experiments/knapen_AOT/AOT_stimuli/rescaled_final/0005_rv.mp4	0.0	175.76613116264343	2.4923455715179443
31	157.2899317741394	pulse	1	t		29.0	2.5	/experiments/knapen_AOT/AOT_stimuli/rescaled_final/0005_rv.mp4	0.0	176.94107675552368	
31	158.6073317527771	fix_post	2		12	29.0	2.5	/experiments/knapen_AOT/AOT_stimuli/rescaled_final/0005_rv.mp4	0.0	178.25847673416138	0.09972858428955078
32	158.70706033706665	fix_pre	0		120	30.0	2.5	/experiments/knapen_AOT/AOT_stimuli/rescaled_final/1058_fw.mp4	0.0	178.35820531845093	1.0084187984466553
32	158.89047074317932	pulse	0	t		30.0	2.5	/experiments/knapen_AOT/AOT_stimuli/rescaled_final/1058_fw.mp4	0.0	178.5416157245636	
32	159.7154791355133	movie	1		262	30.0	2.5	/experiments/knapen_AOT/AOT_stimuli/rescaled_final/1058_fw.mp4	0.0	179.36662411689758	2.49194598197937
32	160.48884344100952	pulse	1	t		30.0	2.5	/experiments/knapen_AOT/AOT_stimuli/rescaled_final/1058_fw.mp4	0.0	180.1399884223938	
32	162.09112119674683	pulse	1	t		30.0	2.5	/experiments/knapen_AOT/AOT_stimuli/rescaled_final/1058_fw.mp4	0.0	181.7422661781311	
32	162.20742511749268	fix_post	2		12	30.0	2.5	/experiments/knapen_AOT/AOT_stimuli/rescaled_final/1058_fw.mp4	0.0	181.85857009887695	0.10005068778991699
33	162.3074758052826	fix_pre	0		120	31.0	2.5	/experiments/knapen_AOT/AOT_stimuli/rescaled_final/1187_fw.mp4	0.0	181.95862078666687	1.008608102798462
33	163.31608390808105	movie	1		279	31.0	2.5	/experiments/knapen_AOT/AOT_stimuli/rescaled_final/1187_fw.mp4	0.0	182.96722888946533	2.491945505142212
33	163.69021582603455	pulse	1	t		31.0	2.5	/experiments/knapen_AOT/AOT_stimuli/rescaled_final/1187_fw.mp4	0.0	183.34136080741882	
33	165.28971648216248	pulse	1	t		31.0	2.5	/experiments/knapen_AOT/AOT_stimuli/rescaled_final/1187_fw.mp4	0.0	184.94086146354675	
33	165.80802941322327	fix_post	2		12	31.0	2.5	/experiments/knapen_AOT/AOT_stimuli/rescaled_final/1187_fw.mp4	0.0	185.45917439460754	0.09995889663696289
34	165.90798830986023	fix_pre	0		119	32.0	2.5	/experiments/knapen_AOT/AOT_stimuli/rescaled_final/1212_rv.mp4	0.0	185.5591332912445	1.0001699924468994
34	166.891863822937	pulse	0	t		32.0	2.5	/experiments/knapen_AOT/AOT_stimuli/rescaled_final/1212_rv.mp4	0.0	186.5430088043213	
34	166.90815830230713	movie	1		268	32.0	2.5	/experiments/knapen_AOT/AOT_stimuli/rescaled_final/1212_rv.mp4	0.0	186.5593032836914	2.500650644302368
34	168.49020171165466	pulse	1	t		32.0	2.5	/experiments/knapen_AOT/AOT_stimuli/rescaled_final/1212_rv.mp4	0.0	188.14134669303894	
34	169.4088089466095	fix_post	2		12	32.0	2.5	/experiments/knapen_AOT/AOT_stimuli/rescaled_final/1212_rv.mp4	0.0	189.05995392799377	0.09973859786987305
35	169.50854754447937	fix_pre	0		120	33.0	2.5	/experiments/knapen_AOT/AOT_stimuli/rescaled_final/1104_fw.mp4	0.0	189.15969252586365	1.008599042892456
35	170.0921654701233	pulse	0	t		33.0	2.5	/experiments/knapen_AOT/AOT_stimuli/rescaled_final/1104_fw.mp4	0.0	189.74331045150757	
35	170.51714658737183	movie	1		263	33.0	2.5	/experiments/knapen_AOT/AOT_stimuli/rescaled_final/1104_fw.mp4	0.0	190.1682915687561	2.5004160404205322
35	171.69067120552063	pulse	1	t		33.0	2.5	/experiments/knapen_AOT/AOT_stimuli/rescaled_final/1104_fw.mp4	0.0	191.3418161869049	
35	173.01756262779236	fix_post	2		11	33.0	2.5	/experiments/knapen_AOT/AOT_stimuli/rescaled_final/1104_fw.mp4	0.0	192.66870760917664	0.09153580665588379
36	173.10909843444824	fix_pre	0		120	34.0	2.5	blank	1.0	192.76024341583252	1.0001509189605713
36	173.29281973838806	pulse	0	t		34.0	2.5	blank	1.0	192.94396471977234	
36	174.1092493534088	movie	1		300	34.0	2.5	blank	1.0	193.7603943347931	2.500347137451172
36	174.89286947250366	pulse	1	t		34.0	2.5	blank	1.0	194.54401445388794	
36	176.49317812919617	pulse	1	t		34.0	2.5	blank	1.0	196.14432311058044	
36	176.60959649085999	fix_post	2		12	34.0	2.5	blank	1.0	196.26074147224426	0.10015583038330078
37	176.7097523212433	fix_pre	0		120	35.0	2.5	/experiments/knapen_AOT/AOT_stimuli/rescaled_final/0352_fw.mp4	0.0	196.36089730262756	1.0085210800170898
37	177.71827340126038	movie	1		275	35.0	2.5	/experiments/knapen_AOT/AOT_stimuli/rescaled_final/0352_fw.mp4	0.0	197.36941838264465	2.491863489151001
37	178.09215474128723	pulse	1	t		35.0	2.5	/experiments/knapen_AOT/AOT_stimuli/rescaled_final/0352_fw.mp4	0.0	197.7432997226715	
37	179.69497275352478	pulse	1	t		35.0	2.5	/experiments/knapen_AOT/AOT_stimuli/rescaled_final/0352_fw.mp4	0.0	199.34611773490906	
37	180.21013689041138	fix_post	2		12	35.0	2.5	/experiments/knapen_AOT/AOT_stimuli/rescaled_final/0352_fw.mp4	0.0	199.86128187179565	0.10036015510559082
38	180.31049704551697	fix_pre	0		119	36.0	2.5	/experiments/knapen_AOT/AOT_stimuli/rescaled_final/1030_rv.mp4	0.0	199.96164202690125	0.9997968673706055
38	181.29382276535034	pulse	0	t		36.0	2.5	/experiments/knapen_AOT/AOT_stimuli/rescaled_final/1030_rv.mp4	0.0	200.94496774673462	
38	181.31029391288757	movie	1		263	36.0	2.5	/experiments/knapen_AOT/AOT_stimuli/rescaled_final/1030_rv.mp4	0.0	200.96143889427185	2.500615358352661
38	182.89458203315735	pulse	1	t		36.0	2.5	/experiments/knapen_AOT/AOT_stimuli/rescaled_final/1030_rv.mp4	0.0	202.54572701454163	
38	183.81090927124023	fix_post	2		12	36.0	2.5	/experiments/knapen_AOT/AOT_stimuli/rescaled_final/1030_rv.mp4	0.0	203.4620542526245	0.09976339340209961
39	183.91067266464233	fix_pre	0		120	37.0	2.5	/experiments/knapen_AOT/AOT_stimuli/rescaled_final/2026_fw.mp4	0.0	203.5618176460266	1.008509874343872
39	184.48655009269714	pulse	0	t		37.0	2.5	/experiments/knapen_AOT/AOT_stimuli/rescaled_final/2026_fw.mp4	0.0	204.13769507408142	
39	184.9191825389862	movie	1		258	37.0	2.5	/experiments/knapen_AOT/AOT_stimuli/rescaled_final/2026_fw.mp4	0.0	204.57032752037048	2.492060899734497
39	186.0862956047058	pulse	1	t		37.0	2.5	/experiments/knapen_AOT/AOT_stimuli/rescaled_final/2026_fw.mp4	0.0	205.7374405860901	
39	187.4112434387207	fix_post	2		12	37.0	2.5	/experiments/knapen_AOT/AOT_stimuli/rescaled_final/2026_fw.mp4	0.0	207.06238842010498	0.10007238388061523
40	187.51131582260132	fix_pre	0		120	38.0	2.5	/experiments/knapen_AOT/AOT_stimuli/rescaled_final/0726_rv.mp4	0.0	207.1624608039856	1.0084047317504883
40	187.68652772903442	pulse	0	t		38.0	2.5	/experiments/knapen_AOT/AOT_stimuli/rescaled_final/0726_rv.mp4	0.0	207.3376727104187	
40	188.5197205543518	movie	1		266	38.0	2.5	/experiments/knapen_AOT/AOT_stimuli/rescaled_final/0726_rv.mp4	0.0	208.17086553573608	2.4920356273651123
40	189.28699612617493	pulse	1	t		38.0	2.5	/experiments/knapen_AOT/AOT_stimuli/rescaled_final/0726_rv.mp4	0.0	208.9381411075592	
40	190.88697957992554	pulse	1	t		38.0	2.5	/experiments/knapen_AOT/AOT_stimuli/rescaled_final/0726_rv.mp4	0.0	210.53812456130981	
40	191.01175618171692	fix_post	2		12	38.0	2.5	/experiments/knapen_AOT/AOT_stimuli/rescaled_final/0726_rv.mp4	0.0	210.6629011631012	0.10000824928283691
41	191.11176443099976	fix_pre	0		120	39.0	2.5	/experiments/knapen_AOT/AOT_stimuli/rescaled_final/0343_fw.mp4	0.0	210.76290941238403	1.0085160732269287
41	192.12028050422668	movie	1		270	39.0	2.5	/experiments/knapen_AOT/AOT_stimuli/rescaled_final/0343_fw.mp4	0.0	211.77142548561096	2.4925360679626465
41	192.48716640472412	pulse	1	t		39.0	2.5	/experiments/knapen_AOT/AOT_stimuli/rescaled_final/0343_fw.mp4	0.0	212.1383113861084	
41	194.08771395683289	pulse	1	t		39.0	2.5	/experiments/knapen_AOT/AOT_stimuli/rescaled_final/0343_fw.mp4	0.0	213.73885893821716	
41	194.61281657218933	fix_post	2		12	39.0	2.5	/experiments/knapen_AOT/AOT_stimuli/rescaled_final/0343_fw.mp4	0.0	214.2639615535736	0.09981203079223633
42	194.71262860298157	fix_pre	0		118	40.0	2.5	/experiments/knapen_AOT/AOT_stimuli/rescaled_final/1988_rv.mp4	0.0	214.36377358436584	0.9915375709533691
42	195.68772840499878	pulse	0	t		40.0	2.5	/experiments/knapen_AOT/AOT_stimuli/rescaled_final/1988_rv.mp4	0.0	215.33887338638306	
42	195.70416617393494	movie	1		270	40.0	2.5	/experiments/knapen_AOT/AOT_stimuli/rescaled_final/1988_rv.mp4	0.0	215.3553111553192	2.5007402896881104
42	197.28636407852173	pulse	1	t		40.0	2.5	/experiments/knapen_AOT/AOT_stimuli/rescaled_final/1988_rv.mp4	0.0	216.937509059906	
42	198.20490646362305	fix_post	2		12	40.0	2.5	/experiments/knapen_AOT/AOT_stimuli/rescaled_final/1988_rv.mp4	0.0	217.85605144500732	0.09971356391906738
43	198.30462002754211	fix_pre	0		120	41.0	2.5	blank	1.0	217.9557650089264	1.0001146793365479
43	198.88817358016968	pulse	0	t		41.0	2.5	blank	1.0	218.53931856155396	
43	199.30473470687866	movie	1		300	41.0	2.5	blank	1.0	218.95587968826294	2.500314712524414
43	200.48841166496277	pulse	1	t		41.0	2.5	blank	1.0	220.13955664634705	
43	201.80504941940308	fix_post	2		12	41.0	2.5	blank	1.0	221.45619440078735	0.10001325607299805
44	201.90506267547607	fix_pre	0		120	42.0	2.5	/experiments/knapen_AOT/AOT_stimuli/rescaled_final/0096_rv.mp4	0.0	221.55620765686035	1.0086569786071777
44	202.08866262435913	pulse	0	t		42.0	2.5	/experiments/knapen_AOT/AOT_stimuli/rescaled_final/0096_rv.mp4	0.0	221.7398076057434	
44	202.91371965408325	movie	1		259	42.0	2.5	/experiments/knapen_AOT/AOT_stimuli/rescaled_final/0096_rv.mp4	0.0	222.56486463546753	2.4920527935028076
44	203.68760108947754	pulse	1	t		42.0	2.5	/experiments/knapen_AOT/AOT_stimuli/rescaled_final/0096_rv.mp4	0.0	223.33874607086182	
44	205.28769898414612	pulse	1	t		42.0	2.5	/experiments/knapen_AOT/AOT_stimuli/rescaled_final/0096_rv.mp4	0.0	224.9388439655304	
44	205.40577244758606	fix_post	2		12	42.0	2.5	/experiments/knapen_AOT/AOT_stimuli/rescaled_final/0096_rv.mp4	0.0	225.05691742897034	0.09984254837036133
45	205.50561499595642	fix_pre	0		120	43.0	2.5	/experiments/knapen_AOT/AOT_stimuli/rescaled_final/0709_rv.mp4	0.0	225.1567599773407	1.008476972579956
45	206.51409196853638	movie	1		268	43.0	2.5	/experiments/knapen_AOT/AOT_stimuli/rescaled_final/0709_rv.mp4	0.0	226.16523694992065	2.4922890663146973
45	206.88952326774597	pulse	1	t		43.0	2.5	/experiments/knapen_AOT/AOT_stimuli/rescaled_final/0709_rv.mp4	0.0	226.54066824913025	
45	208.4872772693634	pulse	1	t		43.0	2.5	/experiments/knapen_AOT/AOT_stimuli/rescaled_final/0709_rv.mp4	0.0	228.13842225074768	
45	209.00638103485107	fix_post	2		12	43.0	2.5	/experiments/knapen_AOT/AOT_stimuli/rescaled_final/0709_rv.mp4	0.0	228.65752601623535	0.09977340698242188
46	209.1061544418335	fix_pre	0		119	44.0	2.5	/experiments/knapen_AOT/AOT_stimuli/rescaled_final/1573_rv.mp4	0.0	228.75729942321777	1.0086064338684082
46	210.08999180793762	pulse	0	t		44.0	2.5	/experiments/knapen_AOT/AOT_stimuli/rescaled_final/1573_rv.mp4	0.0	229.7411367893219	
46	210.1147608757019	movie	1		274	44.0	2.5	/experiments/knapen_AOT/AOT_stimuli/rescaled_final/1573_rv.mp4	0.0	229.76590585708618	2.4919466972351074
46	211.68852639198303	pulse	1	t		44.0	2.5	/experiments/knapen_AOT/AOT_stimuli/rescaled_final/1573_rv.mp4	0.0	231.3396713733673	
46	212.606707572937	fix_post	2		12	44.0	2.5	/experiments/knapen_AOT/AOT_stimuli/rescaled_final/1573_rv.mp4	0.0	232.2578525543213	0.1002204418182373
47	212.70692801475525	fix_pre	0		120	45.0	2.5	/experiments/knapen_AOT/AOT_stimuli/rescaled_final/0122_rv.mp4	0.0	232.35807299613953	1.0082714557647705
47	213.29031133651733	pulse	0	t		45.0	2.5	/experiments/knapen_AOT/AOT_stimuli/rescaled_final/0122_rv.mp4	0.0	232.9414563179016	
47	213.71519947052002	movie	1		273	45.0	2.5	/experiments/knapen_AOT/AOT_stimuli/rescaled_final/0122_rv.mp4	0.0	233.3663444519043	2.4921154975891113
47	214.8900182247162	pulse	1	t		45.0	2.5	/experiments/knapen_AOT/AOT_stimuli/rescaled_final/0122_rv.mp4	0.0	234.54116320610046	
47	216.20731496810913	fix_post	2		12	45.0	2.5	/experiments/knapen_AOT/AOT_stimuli/rescaled_final/0122_rv.mp4	0.0	235.8584599494934	0.10015010833740234
48	216.30746507644653	fix_pre	0		120	46.0	2.5	/experiments/knapen_AOT/AOT_stimuli/rescaled_final/0085_rv.mp4	0.0	235.9586100578308	1.008246660232544
48	216.49109840393066	pulse	0	t		46.0	2.5	/experiments/knapen_AOT/AOT_stimuli/rescaled_final/0085_rv.mp4	0.0	236.14224338531494	
48	217.31571173667908	movie	1		288	46.0	2.5	/experiments/knapen_AOT/AOT_stimuli/rescaled_final/0085_rv.mp4	0.0	236.96685671806335	2.4923481941223145
48	218.0893976688385	pulse	1	t		46.0	2.5	/experiments/knapen_AOT/AOT_stimuli/rescaled_final/0085_rv.mp4	0.0	237.74054265022278	
48	219.68931126594543	pulse	1	t		46.0	2.5	/experiments/knapen_AOT/AOT_stimuli/rescaled_final/0085_rv.mp4	0.0	239.3404562473297	
48	219.8080599308014	fix_post	2		12	46.0	2.5	/experiments/knapen_AOT/AOT_stimuli/rescaled_final/0085_rv.mp4	0.0	239.45920491218567	0.09970569610595703
49	219.90776562690735	fix_pre	0		120	47.0	2.5	/experiments/knapen_AOT/AOT_stimuli/rescaled_final/0044_fw.mp4	0.0	239.55891060829163	1.0086748600006104
49	220.91644048690796	movie	1		248	47.0	2.5	/experiments/knapen_AOT/AOT_stimuli/rescaled_final/0044_fw.mp4	0.0	240.56758546829224	2.500330924987793
49	221.28980660438538	pulse	1	t		47.0	2.5	/experiments/knapen_AOT/AOT_stimuli/rescaled_final/0044_fw.mp4	0.0	240.94095158576965	
49	222.88985967636108	pulse	1	t		47.0	2.5	/experiments/knapen_AOT/AOT_stimuli/rescaled_final/0044_fw.mp4	0.0	242.54100465774536	
49	223.41677141189575	fix_post	2		11	47.0	2.5	/experiments/knapen_AOT/AOT_stimuli/rescaled_final/0044_fw.mp4	0.0	243.06791639328003	0.09158563613891602
50	223.50835704803467	fix_pre	0		119	48.0	2.5	/experiments/knapen_AOT/AOT_stimuli/rescaled_final/1166_rv.mp4	0.0	243.15950202941895	1.0000879764556885
50	224.49202370643616	pulse	0	t		48.0	2.5	/experiments/knapen_AOT/AOT_stimuli/rescaled_final/1166_rv.mp4	0.0	244.14316868782043	
50	224.50844502449036	movie	1		278	48.0	2.5	/experiments/knapen_AOT/AOT_stimuli/rescaled_final/1166_rv.mp4	0.0	244.15959000587463	2.500410556793213
50	226.09088110923767	pulse	1	t		48.0	2.5	/experiments/knapen_AOT/AOT_stimuli/rescaled_final/1166_rv.mp4	0.0	245.74202609062195	
50	227.00885558128357	fix_post	2		12	48.0	2.5	/experiments/knapen_AOT/AOT_stimuli/rescaled_final/1166_rv.mp4	0.0	246.66000056266785	0.09999585151672363
51	227.1088514328003	fix_pre	0		120	49.0	2.5	blank	1.0	246.75999641418457	1.0004627704620361
51	227.69274926185608	pulse	0	t		49.0	2.5	blank	1.0	247.34389424324036	
51	228.10931420326233	movie	1		300	49.0	2.5	blank	1.0	247.7604591846466	2.5000715255737305
51	229.29292488098145	pulse	1	t		49.0	2.5	blank	1.0	248.94406986236572	
51	230.60938572883606	fix_post	2		12	49.0	2.5	blank	1.0	250.26053071022034	0.10002017021179199
52	230.70940589904785	fix_pre	0		120	50.0	2.5	/experiments/knapen_AOT/AOT_stimuli/rescaled_final/1187_fw.mp4	0.0	250.36055088043213	1.0084776878356934
52	230.89326071739197	pulse	0	t		50.0	2.5	/experiments/knapen_AOT/AOT_stimuli/rescaled_final/1187_fw.mp4	0.0	250.54440569877625	
52	231.71788358688354	movie	1		274	50.0	2.5	/experiments/knapen_AOT/AOT_stimuli/rescaled_final/1187_fw.mp4	0.0	251.36902856826782	2.4921133518218994
52	232.49121046066284	pulse	1	t		50.0	2.5	/experiments/knapen_AOT/AOT_stimuli/rescaled_final/1187_fw.mp4	0.0	252.14235544204712	
52	234.09192371368408	pulse	1	t		50.0	2.5	/experiments/knapen_AOT/AOT_stimuli/rescaled_final/1187_fw.mp4	0.0	253.74306869506836	
52	234.20999693870544	fix_post	2		12	50.0	2.5	/experiments/knapen_AOT/AOT_stimuli/rescaled_final/1187_fw.mp4	0.0	253.86114192008972	0.09993910789489746
53	234.30993604660034	fix_pre	0		120	51.0	2.5	/experiments/knapen_AOT/AOT_stimuli/rescaled_final/1989_fw.mp4	0.0	253.96108102798462	1.0085227489471436
53	235.31845879554749	movie	1		272	51.0	2.5	/experiments/knapen_AOT/AOT_stimuli/rescaled_final/1989_fw.mp4	0.0	254.96960377693176	2.492016553878784
53	235.69218802452087	pulse	1	t		51.0	2.5	/experiments/knapen_AOT/AOT_stimuli/rescaled_final/1989_fw.mp4	0.0	255.34333300590515	
53	237.29179620742798	pulse	1	t		51.0	2.5	/experiments/knapen_AOT/AOT_stimuli/rescaled_final/1989_fw.mp4	0.0	256.94294118881226	
53	237.81047534942627	fix_post	2		12	51.0	2.5	/experiments/knapen_AOT/AOT_stimuli/rescaled_final/1989_fw.mp4	0.0	257.46162033081055	0.10003876686096191
54	237.91051411628723	fix_pre	0		119	52.0	2.5	/experiments/knapen_AOT/AOT_stimuli/rescaled_final/0908_rv.mp4	0.0	257.5616590976715	1.0001578330993652
54	238.89410758018494	pulse	0	t		52.0	2.5	/experiments/knapen_AOT/AOT_stimuli/rescaled_final/0908_rv.mp4	0.0	258.5452525615692	
54	238.9106719493866	movie	1		282	52.0	2.5	/experiments/knapen_AOT/AOT_stimuli/rescaled_final/0908_rv.mp4	0.0	258.5618169307709	2.500617742538452
54	240.4927680492401	pulse	1	t		52.0	2.5	/experiments/knapen_AOT/AOT_stimuli/rescaled_final/0908_rv.mp4	0.0	260.1439130306244	
54	241.41128969192505	fix_post	2		12	52.0	2.5	/experiments/knapen_AOT/AOT_stimuli/rescaled_final/0908_rv.mp4	0.0	261.0624346733093	0.09974408149719238
55	241.51103377342224	fix_pre	0		120	53.0	2.5	/experiments/knapen_AOT/AOT_stimuli/rescaled_final/1678_rv.mp4	0.0	261.1621787548065	1.0084922313690186
55	242.08659863471985	pulse	0	t		53.0	2.5	/experiments/knapen_AOT/AOT_stimuli/rescaled_final/1678_rv.mp4	0.0	261.7377436161041	
55	242.51952600479126	movie	1		268	53.0	2.5	/experiments/knapen_AOT/AOT_stimuli/rescaled_final/1678_rv.mp4	0.0	262.17067098617554	2.4920520782470703
55	243.68667030334473	pulse	1	t		53.0	2.5	/experiments/knapen_AOT/AOT_stimuli/rescaled_final/1678_rv.mp4	0.0	263.337815284729	
55	245.01157808303833	fix_post	2		12	53.0	2.5	/experiments/knapen_AOT/AOT_stimuli/rescaled_final/1678_rv.mp4	0.0	264.6627230644226	0.10016989707946777
56	245.1117479801178	fix_pre	0		120	54.0	2.5	/experiments/knapen_AOT/AOT_stimuli/rescaled_final/0918_fw.mp4	0.0	264.7628929615021	1.0083403587341309
56	245.28678393363953	pulse	0	t		54.0	2.5	/experiments/knapen_AOT/AOT_stimuli/rescaled_final/0918_fw.mp4	0.0	264.9379289150238	
56	246.12008833885193	movie	1		260	54.0	2.5	/experiments/knapen_AOT/AOT_stimuli/rescaled_final/0918_fw.mp4	0.0	265.7712333202362	2.5004255771636963
56	246.88704347610474	pulse	1	t		54.0	2.5	/experiments/knapen_AOT/AOT_stimuli/rescaled_final/0918_fw.mp4	0.0	266.538188457489	
56	248.48730540275574	pulse	1	t		54.0	2.5	/experiments/knapen_AOT/AOT_stimuli/rescaled_final/0918_fw.mp4	0.0	268.13845038414	
56	248.62051391601562	fix_post	2		11	54.0	2.5	/experiments/knapen_AOT/AOT_stimuli/rescaled_final/0918_fw.mp4	0.0	268.2716588973999	0.09185099601745605
57	248.71236491203308	fix_pre	0		120	55.0	2.5	blank	1.0	268.36350989341736	0.9998764991760254
57	249.7122414112091	movie	1		300	55.0	2.5	blank	1.0	269.3633863925934	2.500431776046753
57	250.0875527858734	pulse	1	t		55.0	2.5	blank	1.0	269.7386977672577	
57	251.68782114982605	pulse	1	t		55.0	2.5	blank	1.0	271.3389661312103	
57	252.21267318725586	fix_post	2		12	55.0	2.5	blank	1.0	271.86381816864014	0.09997963905334473
58	252.3126528263092	fix_pre	0		118	56.0	2.5	/experiments/knapen_AOT/AOT_stimuli/rescaled_final/1175_rv.mp4	0.0	271.9637978076935	0.9918625354766846
58	253.28809428215027	pulse	0	t		56.0	2.5	/experiments/knapen_AOT/AOT_stimuli/rescaled_final/1175_rv.mp4	0.0	272.93923926353455	
58	253.3045153617859	movie	1		286	56.0	2.5	/experiments/knapen_AOT/AOT_stimuli/rescaled_final/1175_rv.mp4	0.0	272.95566034317017	2.500302791595459
58	254.88775753974915	pulse	1	t		56.0	2.5	/experiments/knapen_AOT/AOT_stimuli/rescaled_final/1175_rv.mp4	0.0	274.5389025211334	
58	255.80481815338135	fix_post	2		12	56.0	2.5	/experiments/knapen_AOT/AOT_stimuli/rescaled_final/1175_rv.mp4	0.0	275.4559631347656	0.10001993179321289
59	255.90483808517456	fix_pre	0		120	57.0	2.5	/experiments/knapen_AOT/AOT_stimuli/rescaled_final/1058_fw.mp4	0.0	275.55598306655884	1.0086047649383545
59	256.48853826522827	pulse	0	t		57.0	2.5	/experiments/knapen_AOT/AOT_stimuli/rescaled_final/1058_fw.mp4	0.0	276.13968324661255	
59	256.9134428501129	movie	1		286	57.0	2.5	/experiments/knapen_AOT/AOT_stimuli/rescaled_final/1058_fw.mp4	0.0	276.5645878314972	2.49191951751709
59	258.08699560165405	pulse	1	t		57.0	2.5	/experiments/knapen_AOT/AOT_stimuli/rescaled_final/1058_fw.mp4	0.0	277.73814058303833	
59	259.40536236763	fix_post	2		12	57.0	2.5	/experiments/knapen_AOT/AOT_stimuli/rescaled_final/1058_fw.mp4	0.0	279.0565073490143	0.10005593299865723
60	259.50541830062866	fix_pre	0		120	58.0	2.5	/experiments/knapen_AOT/AOT_stimuli/rescaled_final/2139_fw.mp4	0.0	279.15656328201294	1.0086290836334229
60	259.68892097473145	pulse	0	t		58.0	2.5	/experiments/knapen_AOT/AOT_stimuli/rescaled_final/2139_fw.mp4	0.0	279.3400659561157	
60	260.5140473842621	movie	1		286	58.0	2.5	/experiments/knapen_AOT/AOT_stimuli/rescaled_final/2139_fw.mp4	0.0	280.16519236564636	2.4918529987335205
60	261.2873811721802	pulse	1	t		58.0	2.5	/experiments/knapen_AOT/AOT_stimuli/rescaled_final/2139_fw.mp4	0.0	280.93852615356445	
60	262.8880922794342	pulse	1	t		58.0	2.5	/experiments/knapen_AOT/AOT_stimuli/rescaled_final/2139_fw.mp4	0.0	282.5392372608185	
60	263.0059003829956	fix_post	2		12	58.0	2.5	/experiments/knapen_AOT/AOT_stimuli/rescaled_final/2139_fw.mp4	0.0	282.6570453643799	0.10001850128173828
61	263.10591888427734	fix_pre	0		120	59.0	2.5	/experiments/knapen_AOT/AOT_stimuli/rescaled_final/1084_fw.mp4	0.0	282.7570638656616	1.008709192276001
61	264.11462807655334	movie	1		275	59.0	2.5	/experiments/knapen_AOT/AOT_stimuli/rescaled_final/1084_fw.mp4	0.0	283.7657730579376	2.4918599128723145
61	264.48909163475037	pulse	1	t		59.0	2.5	/experiments/knapen_AOT/AOT_stimuli/rescaled_final/1084_fw.mp4	0.0	284.14023661613464	
61	266.08789801597595	pulse	1	t		59.0	2.5	/experiments/knapen_AOT/AOT_stimuli/rescaled_final/1084_fw.mp4	0.0	285.73904299736023	
61	266.60648798942566	fix_post	2		11	59.0	2.5	/experiments/knapen_AOT/AOT_stimuli/rescaled_final/1084_fw.mp4	0.0	286.25763297080994	0.0999910831451416
62	266.7064790725708	fix_pre	0		119	60.0	2.5	/experiments/knapen_AOT/AOT_stimuli/rescaled_final/2061_fw.mp4	0.0	286.3576240539551	1.000251293182373
62	267.6901922225952	pulse	0	t		60.0	2.5	/experiments/knapen_AOT/AOT_stimuli/rescaled_final/2061_fw.mp4	0.0	287.3413372039795	
62	267.7067303657532	movie	1		284	60.0	2.5	/experiments/knapen_AOT/AOT_stimuli/rescaled_final/2061_fw.mp4	0.0	287.35787534713745	2.5004563331604004
62	269.29066014289856	pulse	1	t		60.0	2.5	/experiments/knapen_AOT/AOT_stimuli/rescaled_final/2061_fw.mp4	0.0	288.94180512428284	
62	270.2071866989136	fix_post	2		12	60.0	2.5	/experiments/knapen_AOT/AOT_stimuli/rescaled_final/2061_fw.mp4	0.0	289.85833168029785	0.09992051124572754
63	270.3071072101593	fix_pre	0		120	61.0	2.5	/experiments/knapen_AOT/AOT_stimuli/rescaled_final/1623_rv.mp4	0.0	289.9582521915436	1.0084822177886963
63	270.89064264297485	pulse	0	t		61.0	2.5	/experiments/knapen_AOT/AOT_stimuli/rescaled_final/1623_rv.mp4	0.0	290.54178762435913	
63	271.315589427948	movie	1		282	61.0	2.5	/experiments/knapen_AOT/AOT_stimuli/rescaled_final/1623_rv.mp4	0.0	290.9667344093323	2.4919848442077637
63	272.49007773399353	pulse	1	t		61.0	2.5	/experiments/knapen_AOT/AOT_stimuli/rescaled_final/1623_rv.mp4	0.0	292.1412227153778	
63	273.80757427215576	fix_post	2		12	61.0	2.5	/experiments/knapen_AOT/AOT_stimuli/rescaled_final/1623_rv.mp4	0.0	293.45871925354004	0.10000824928283691
64	273.9075825214386	fix_pre	0		120	62.0	2.5	/experiments/knapen_AOT/AOT_stimuli/rescaled_final/0944_rv.mp4	0.0	293.5587275028229	1.008483648300171
64	274.09119415283203	pulse	0	t		62.0	2.5	/experiments/knapen_AOT/AOT_stimuli/rescaled_final/0944_rv.mp4	0.0	293.7423391342163	
64	274.91606616973877	movie	1		276	62.0	2.5	/experiments/knapen_AOT/AOT_stimuli/rescaled_final/0944_rv.mp4	0.0	294.56721115112305	2.4923388957977295
64	275.6901032924652	pulse	1	t		62.0	2.5	/experiments/knapen_AOT/AOT_stimuli/rescaled_final/0944_rv.mp4	0.0	295.3412482738495	
64	277.28942012786865	pulse	1	t		62.0	2.5	/experiments/knapen_AOT/AOT_stimuli/rescaled_final/0944_rv.mp4	0.0	296.94056510925293	
64	277.4084050655365	fix_post	2		12	62.0	2.5	/experiments/knapen_AOT/AOT_stimuli/rescaled_final/0944_rv.mp4	0.0	297.0595500469208	0.09966135025024414
65	277.50806641578674	fix_pre	0		120	63.0	2.5	blank	1.0	297.159211397171	1.0001730918884277
65	278.50823950767517	movie	1		300	63.0	2.5	blank	1.0	298.15938448905945	2.5003647804260254
65	278.8918936252594	pulse	1	t		63.0	2.5	blank	1.0	298.5430386066437	
65	280.492050409317	pulse	1	t		63.0	2.5	blank	1.0	300.1431953907013	
65	281.0086042881012	fix_post	2		12	63.0	2.5	blank	1.0	300.6597492694855	0.10002636909484863
66	281.10863065719604	fix_pre	0		119	64.0	2.5	/experiments/knapen_AOT/AOT_stimuli/rescaled_final/0726_fw.mp4	0.0	300.7597756385803	1.0085530281066895
66	282.0924062728882	pulse	0	t		64.0	2.5	/experiments/knapen_AOT/AOT_stimuli/rescaled_final/0726_fw.mp4	0.0	301.74355125427246	
66	282.11718368530273	movie	1		284	64.0	2.5	/experiments/knapen_AOT/AOT_stimuli/rescaled_final/0726_fw.mp4	0.0	301.768328666687	2.4920332431793213
66	283.6913194656372	pulse	1	t		64.0	2.5	/experiments/knapen_AOT/AOT_stimuli/rescaled_final/0726_fw.mp4	0.0	303.3424644470215	
66	284.60921692848206	fix_post	2		12	64.0	2.5	/experiments/knapen_AOT/AOT_stimuli/rescaled_final/0726_fw.mp4	0.0	304.26036190986633	0.09995627403259277
67	284.70917320251465	fix_pre	0		120	65.0	2.5	/experiments/knapen_AOT/AOT_stimuli/rescaled_final/0758_fw.mp4	0.0	304.3603181838989	1.0085945129394531
67	285.29314064979553	pulse	0	t		65.0	2.5	/experiments/knapen_AOT/AOT_stimuli/rescaled_final/0758_fw.mp4	0.0	304.9442856311798	
67	285.7177677154541	movie	1		272	65.0	2.5	/experiments/knapen_AOT/AOT_stimuli/rescaled_final/0758_fw.mp4	0.0	305.3689126968384	2.4919605255126953
67	286.89190459251404	pulse	1	t		65.0	2.5	/experiments/knapen_AOT/AOT_stimuli/rescaled_final/0758_fw.mp4	0.0	306.5430495738983	
67	288.2097282409668	fix_post	2		12	65.0	2.5	/experiments/knapen_AOT/AOT_stimuli/rescaled_final/0758_fw.mp4	0.0	307.8608732223511	0.10009169578552246
68	288.3098199367523	fix_pre	0		119	66.0	2.5	/experiments/knapen_AOT/AOT_stimuli/rescaled_final/0929_rv.mp4	0.0	307.9609649181366	1.0085008144378662
68	288.49338126182556	pulse	0	t		66.0	2.5	/experiments/knapen_AOT/AOT_stimuli/rescaled_final/0929_rv.mp4	0.0	308.14452624320984	
68	289.3183207511902	movie	1		287	66.0	2.5	/experiments/knapen_AOT/AOT_stimuli/rescaled_final/0929_rv.mp4	0.0	308.96946573257446	2.4919121265411377
68	290.09377789497375	pulse	1	t		66.0	2.5	/experiments/knapen_AOT/AOT_stimuli/rescaled_final/0929_rv.mp4	0.0	309.74492287635803	
68	291.69199109077454	pulse	1	t		66.0	2.5	/experiments/knapen_AOT/AOT_stimuli/rescaled_final/0929_rv.mp4	0.0	311.3431360721588	
68	291.8102328777313	fix_post	2		12	66.0	2.5	/experiments/knapen_AOT/AOT_stimuli/rescaled_final/0929_rv.mp4	0.0	311.4613778591156	0.10001778602600098
69	291.9102506637573	fix_pre	0		120	67.0	2.5	/experiments/knapen_AOT/AOT_stimuli/rescaled_final/1564_fw.mp4	0.0	311.5613956451416	1.0086312294006348
69	292.91888189315796	movie	1		269	67.0	2.5	/experiments/knapen_AOT/AOT_stimuli/rescaled_final/1564_fw.mp4	0.0	312.57002687454224	2.4920802116394043
69	293.2932960987091	pulse	1	t		67.0	2.5	/experiments/knapen_AOT/AOT_stimuli/rescaled_final/1564_fw.mp4	0.0	312.9444410800934	
69	294.88597345352173	pulse	1	t		67.0	2.5	/experiments/knapen_AOT/AOT_stimuli/rescaled_final/1564_fw.mp4	0.0	314.537118434906	
69	295.41096210479736	fix_post	2		12	67.0	2.5	/experiments/knapen_AOT/AOT_stimuli/rescaled_final/1564_fw.mp4	0.0	315.06210708618164	0.09983563423156738
70	295.51079773902893	fix_pre	0		118	68.0	2.5	blank	1.0	315.1619427204132	0.983508825302124
70	296.48628783226013	pulse	0	t		68.0	2.5	blank	1.0	316.1374328136444	
70	296.49430656433105	movie	1		301	68.0	2.5	blank	1.0	316.14545154571533	2.5086777210235596
70	298.0864622592926	pulse	1	t		68.0	2.5	blank	1.0	317.7376072406769	
70	299.0029842853546	fix_post	2		12	68.0	2.5	blank	1.0	318.6541292667389	0.1000204086303711
71	299.103004693985	fix_pre	0		120	69.0	2.5	/experiments/knapen_AOT/AOT_stimuli/rescaled_final/1635_rv.mp4	0.0	318.75414967536926	1.0085153579711914
71	299.68665623664856	pulse	0	t		69.0	2.5	/experiments/knapen_AOT/AOT_stimuli/rescaled_final/1635_rv.mp4	0.0	319.33780121803284	
71	300.1115200519562	movie	1		277	69.0	2.5	/experiments/knapen_AOT/AOT_stimuli/rescaled_final/1635_rv.mp4	0.0	319.76266503334045	2.492128849029541
71	301.2872977256775	pulse	1	t		69.0	2.5	/experiments/knapen_AOT/AOT_stimuli/rescaled_final/1635_rv.mp4	0.0	320.93844270706177	
71	302.6036489009857	fix_post	2		12	69.0	2.5	/experiments/knapen_AOT/AOT_stimuli/rescaled_final/1635_rv.mp4	0.0	322.25479388237	0.10001254081726074
72	302.703661441803	fix_pre	0		120	70.0	2.5	/experiments/knapen_AOT/AOT_stimuli/rescaled_final/1264_fw.mp4	0.0	322.35480642318726	1.008406400680542
72	302.88718271255493	pulse	0	t		70.0	2.5	/experiments/knapen_AOT/AOT_stimuli/rescaled_final/1264_fw.mp4	0.0	322.5383276939392	
72	303.7120678424835	movie	1		280	70.0	2.5	/experiments/knapen_AOT/AOT_stimuli/rescaled_final/1264_fw.mp4	0.0	323.3632128238678	2.4920098781585693
72	304.48737835884094	pulse	1	t		70.0	2.5	/experiments/knapen_AOT/AOT_stimuli/rescaled_final/1264_fw.mp4	0.0	324.1385233402252	
72	306.0876405239105	pulse	1	t		70.0	2.5	/experiments/knapen_AOT/AOT_stimuli/rescaled_final/1264_fw.mp4	0.0	325.7387855052948	
72	306.2040777206421	fix_post	2		12	70.0	2.5	/experiments/knapen_AOT/AOT_stimuli/rescaled_final/1264_fw.mp4	0.0	325.85522270202637	0.10022258758544922
73	306.30430030822754	fix_pre	0		120	71.0	2.5	/experiments/knapen_AOT/AOT_stimuli/rescaled_final/1297_rv.mp4	0.0	325.9554452896118	1.008270263671875
73	307.3125705718994	movie	1		268	71.0	2.5	/experiments/knapen_AOT/AOT_stimuli/rescaled_final/1297_rv.mp4	0.0	326.9637155532837	2.4921610355377197
73	307.686482667923	pulse	1	t		71.0	2.5	/experiments/knapen_AOT/AOT_stimuli/rescaled_final/1297_rv.mp4	0.0	327.33762764930725	
73	309.28755474090576	pulse	1	t		71.0	2.5	/experiments/knapen_AOT/AOT_stimuli/rescaled_final/1297_rv.mp4	0.0	328.93869972229004	
73	309.80473160743713	fix_post	2		12	71.0	2.5	/experiments/knapen_AOT/AOT_stimuli/rescaled_final/1297_rv.mp4	0.0	329.4558765888214	0.10011553764343262
74	309.90484714508057	fix_pre	0		119	72.0	2.5	/experiments/knapen_AOT/AOT_stimuli/rescaled_final/0372_fw.mp4	0.0	329.55599212646484	0.9999468326568604
74	310.88835620880127	pulse	0	t		72.0	2.5	/experiments/knapen_AOT/AOT_stimuli/rescaled_final/0372_fw.mp4	0.0	330.53950119018555	
74	310.9047939777374	movie	1		258	72.0	2.5	/experiments/knapen_AOT/AOT_stimuli/rescaled_final/0372_fw.mp4	0.0	330.5559389591217	2.5004537105560303
74	312.48883748054504	pulse	1	t		72.0	2.5	/experiments/knapen_AOT/AOT_stimuli/rescaled_final/0372_fw.mp4	0.0	332.1399824619293	
74	313.40524768829346	fix_post	2		12	72.0	2.5	/experiments/knapen_AOT/AOT_stimuli/rescaled_final/0372_fw.mp4	0.0	333.05639266967773	0.09993457794189453
75	313.50518226623535	fix_pre	0		120	73.0	2.5	/experiments/knapen_AOT/AOT_stimuli/rescaled_final/0174_rv.mp4	0.0	333.15632724761963	1.008662462234497
75	314.0887951850891	pulse	0	t		73.0	2.5	/experiments/knapen_AOT/AOT_stimuli/rescaled_final/0174_rv.mp4	0.0	333.7399401664734	
75	314.51384472846985	movie	1		281	73.0	2.5	/experiments/knapen_AOT/AOT_stimuli/rescaled_final/0174_rv.mp4	0.0	334.1649897098541	2.491943836212158
75	315.68780183792114	pulse	1	t		73.0	2.5	/experiments/knapen_AOT/AOT_stimuli/rescaled_final/0174_rv.mp4	0.0	335.3389468193054	
75	317.005788564682	fix_post	2		12	73.0	2.5	/experiments/knapen_AOT/AOT_stimuli/rescaled_final/0174_rv.mp4	0.0	336.6569335460663	0.10001015663146973
76	317.1057987213135	fix_pre	0		120	74.0	2.5	/experiments/knapen_AOT/AOT_stimuli/rescaled_final/0146_rv.mp4	0.0	336.75694370269775	1.0084102153778076
76	317.28929328918457	pulse	0	t		74.0	2.5	/experiments/knapen_AOT/AOT_stimuli/rescaled_final/0146_rv.mp4	0.0	336.94043827056885	
76	318.1142089366913	movie	1		283	74.0	2.5	/experiments/knapen_AOT/AOT_stimuli/rescaled_final/0146_rv.mp4	0.0	337.76535391807556	2.49202561378479
76	318.8873722553253	pulse	1	t		74.0	2.5	/experiments/knapen_AOT/AOT_stimuli/rescaled_final/0146_rv.mp4	0.0	338.5385172367096	
76	320.4875955581665	pulse	1	t		74.0	2.5	/experiments/knapen_AOT/AOT_stimuli/rescaled_final/0146_rv.mp4	0.0	340.1387405395508	
76	320.6062345504761	fix_post	2		12	74.0	2.5	/experiments/knapen_AOT/AOT_stimuli/rescaled_final/0146_rv.mp4	0.0	340.25737953186035	0.10001182556152344
77	320.7062463760376	fix_pre	0		120	75.0	2.5	/experiments/knapen_AOT/AOT_stimuli/rescaled_final/2077_fw.mp4	0.0	340.3573913574219	1.008476734161377
77	321.714723110199	movie	1		265	75.0	2.5	/experiments/knapen_AOT/AOT_stimuli/rescaled_final/2077_fw.mp4	0.0	341.36586809158325	2.4920830726623535
77	322.09068536758423	pulse	1	t		75.0	2.5	/experiments/knapen_AOT/AOT_stimuli/rescaled_final/2077_fw.mp4	0.0	341.7418303489685	
77	323.6889224052429	pulse	1	t		75.0	2.5	/experiments/knapen_AOT/AOT_stimuli/rescaled_final/2077_fw.mp4	0.0	343.3400673866272	
77	324.2068061828613	fix_post	2		12	75.0	2.5	/experiments/knapen_AOT/AOT_stimuli/rescaled_final/2077_fw.mp4	0.0	343.8579511642456	0.10007381439208984
78	324.3068799972534	fix_pre	0		119	76.0	2.5	/experiments/knapen_AOT/AOT_stimuli/rescaled_final/0185_fw.mp4	0.0	343.9580249786377	1.0000691413879395
78	325.29059624671936	pulse	0	t		76.0	2.5	/experiments/knapen_AOT/AOT_stimuli/rescaled_final/0185_fw.mp4	0.0	344.94174122810364	
78	325.30694913864136	movie	1		282	76.0	2.5	/experiments/knapen_AOT/AOT_stimuli/rescaled_final/0185_fw.mp4	0.0	344.95809412002563	2.5005321502685547
78	326.89009165763855	pulse	1	t		76.0	2.5	/experiments/knapen_AOT/AOT_stimuli/rescaled_final/0185_fw.mp4	0.0	346.5412366390228	
78	327.8074812889099	fix_post	2		12	76.0	2.5	/experiments/knapen_AOT/AOT_stimuli/rescaled_final/0185_fw.mp4	0.0	347.4586262702942	0.09986114501953125
79	327.90734243392944	fix_pre	0		120	77.0	2.5	blank	1.0	347.5584874153137	1.0001537799835205
79	328.4909429550171	pulse	0	t		77.0	2.5	blank	1.0	348.14208793640137	
79	328.90749621391296	movie	1		300	77.0	2.5	blank	1.0	348.55864119529724	2.5003597736358643
79	330.0915379524231	pulse	1	t		77.0	2.5	blank	1.0	349.7426829338074	
79	331.4078559875488	fix_post	2		12	77.0	2.5	blank	1.0	351.0590009689331	0.10002779960632324
80	331.50788378715515	fix_pre	0		120	78.0	2.5	/experiments/knapen_AOT/AOT_stimuli/rescaled_final/1469_rv.mp4	0.0	351.15902876853943	1.0084800720214844
80	331.6914134025574	pulse	0	t		78.0	2.5	/experiments/knapen_AOT/AOT_stimuli/rescaled_final/1469_rv.mp4	0.0	351.34255838394165	
80	332.51636385917664	movie	1		281	78.0	2.5	/experiments/knapen_AOT/AOT_stimuli/rescaled_final/1469_rv.mp4	0.0	352.1675088405609	2.4922235012054443
80	333.2899692058563	pulse	1	t		78.0	2.5	/experiments/knapen_AOT/AOT_stimuli/rescaled_final/1469_rv.mp4	0.0	352.9411141872406	
80	334.89024233818054	pulse	1	t		78.0	2.5	/experiments/knapen_AOT/AOT_stimuli/rescaled_final/1469_rv.mp4	0.0	354.5413873195648	
80	335.0085873603821	fix_post	2		12	78.0	2.5	/experiments/knapen_AOT/AOT_stimuli/rescaled_final/1469_rv.mp4	0.0	354.65973234176636	0.09979510307312012
81	335.1083824634552	fix_pre	0		120	79.0	2.5	/experiments/knapen_AOT/AOT_stimuli/rescaled_final/0758_rv.mp4	0.0	354.7595274448395	1.0085375308990479
81	336.11691999435425	movie	1		265	79.0	2.5	/experiments/knapen_AOT/AOT_stimuli/rescaled_final/0758_rv.mp4	0.0	355.7680649757385	2.4920129776000977
81	336.49280977249146	pulse	1	t		79.0	2.5	/experiments/knapen_AOT/AOT_stimuli/rescaled_final/0758_rv.mp4	0.0	356.14395475387573	
81	338.090295791626	pulse	1	t		79.0	2.5	/experiments/knapen_AOT/AOT_stimuli/rescaled_final/0758_rv.mp4	0.0	357.74144077301025	
81	338.60893297195435	fix_post	2		12	79.0	2.5	/experiments/knapen_AOT/AOT_stimuli/rescaled_final/0758_rv.mp4	0.0	358.2600779533386	0.10017633438110352
82	338.70910930633545	fix_pre	0		119	80.0	2.5	/experiments/knapen_AOT/AOT_stimuli/rescaled_final/0857_rv.mp4	0.0	358.3602542877197	1.0004403591156006
82	339.69300389289856	pulse	0	t		80.0	2.5	/experiments/knapen_AOT/AOT_stimuli/rescaled_final/0857_rv.mp4	0.0	359.34414887428284	
82	339.70954966545105	movie	1		266	80.0	2.5	/experiments/knapen_AOT/AOT_stimuli/rescaled_final/0857_rv.mp4	0.0	359.3606946468353	2.5082919597625732
82	341.2919137477875	pulse	1	t		80.0	2.5	/experiments/knapen_AOT/AOT_stimuli/rescaled_final/0857_rv.mp4	0.0	360.94305872917175	
82	342.2178416252136	fix_post	2		11	80.0	2.5	/experiments/knapen_AOT/AOT_stimuli/rescaled_final/0857_rv.mp4	0.0	361.8689866065979	0.09166908264160156
83	342.3095107078552	fix_pre	0		120	81.0	2.5	/experiments/knapen_AOT/AOT_stimuli/rescaled_final/0535_fw.mp4	0.0	361.9606556892395	1.0085248947143555
83	342.89312410354614	pulse	0	t		81.0	2.5	/experiments/knapen_AOT/AOT_stimuli/rescaled_final/0535_fw.mp4	0.0	362.5442690849304	
83	343.3180356025696	movie	1		279	81.0	2.5	/experiments/knapen_AOT/AOT_stimuli/rescaled_final/0535_fw.mp4	0.0	362.96918058395386	2.4923017024993896
83	344.4918339252472	pulse	1	t		81.0	2.5	/experiments/knapen_AOT/AOT_stimuli/rescaled_final/0535_fw.mp4	0.0	364.14297890663147	
83	345.81033730506897	fix_post	2		12	81.0	2.5	/experiments/knapen_AOT/AOT_stimuli/rescaled_final/0535_fw.mp4	0.0	365.46148228645325	0.09972810745239258
84	345.91006541252136	fix_pre	0		120	82.0	2.5	/experiments/knapen_AOT/AOT_stimuli/rescaled_final/0085_fw.mp4	0.0	365.56121039390564	1.0086259841918945
84	346.0936040878296	pulse	0	t		82.0	2.5	/experiments/knapen_AOT/AOT_stimuli/rescaled_final/0085_fw.mp4	0.0	365.74474906921387	
84	346.91869139671326	movie	1		264	82.0	2.5	/experiments/knapen_AOT/AOT_stimuli/rescaled_final/0085_fw.mp4	0.0	366.56983637809753	2.4919631481170654
84	347.69225549697876	pulse	1	t		82.0	2.5	/experiments/knapen_AOT/AOT_stimuli/rescaled_final/0085_fw.mp4	0.0	367.34340047836304	
84	349.2948045730591	pulse	1	t		82.0	2.5	/experiments/knapen_AOT/AOT_stimuli/rescaled_final/0085_fw.mp4	0.0	368.94594955444336	
84	349.4106545448303	fix_post	2		12	82.0	2.5	/experiments/knapen_AOT/AOT_stimuli/rescaled_final/0085_fw.mp4	0.0	369.0617995262146	0.09993457794189453
85	349.5105891227722	fix_pre	0		120	83.0	2.5	blank	1.0	369.1617341041565	1.0001380443572998
85	350.5107271671295	movie	1		300	83.0	2.5	blank	1.0	370.1618721485138	2.50039005279541
85	350.88665223121643	pulse	1	t		83.0	2.5	blank	1.0	370.5377972126007	
85	352.4863736629486	pulse	1	t		83.0	2.5	blank	1.0	372.1375186443329	
85	353.0111172199249	fix_post	2		12	83.0	2.5	blank	1.0	372.6622622013092	0.10003781318664551
87	353.1111550331116	stim	0		1716					372.76230001449585	14.3021080493927
87	354.08657717704773	pulse	0	t						373.737722158432	
87	355.68690633773804	pulse	0	t						375.3380513191223	
87	357.2870543003082	pulse	0	t						376.9381992816925	
87	358.8871955871582	pulse	0	t						378.5383405685425	
87	360.4875078201294	pulse	0	t						380.1386528015137	
87	362.08774161338806	pulse	0	t						381.73888659477234	
87	363.6879496574402	pulse	0	t						383.33909463882446	
87	365.2881660461426	pulse	0	t						384.93931102752686	
87	366.88836669921875	pulse	0	t						386.539511680603	
