trial_nr	onset	event_type	phase	response	nr_frames	movie_index	movie_duration	movie_file	blank	onset_abs	duration
0	0.14149975776672363	stim	0		3					17.76720428466797	0.024894237518310547
0	0.15844106674194336	response	0	space						17.78414559364319	
1	0.16639399528503418	stim	0		4637					17.79209852218628	38.65012574195862
1	38.80614686012268	pulse	0	t						56.431851387023926	
1	38.81651973724365	stim	1		1715					56.4422242641449	14.307878017425537
1	40.406068086624146	pulse	1	t						58.03177261352539	
1	42.00626754760742	pulse	1	t						59.63197207450867	
1	43.6065034866333	pulse	1	t						61.232208013534546	
1	45.20672130584717	pulse	1	t						62.83242583274841	
1	46.80691409111023	pulse	1	t						64.43261861801147	
1	48.40718460083008	pulse	1	t						66.03288912773132	
1	50.00770902633667	pulse	1	t						67.63341355323792	
1	51.60789442062378	pulse	1	t						69.23359894752502	
2	53.12439775466919	fix_pre	0		11	0.0	2.5	/experiments/Knapen_AOT/AOT_stimuli/rescaled_final/0056_fw.mp4	0.0	70.75010228157043	0.1250920295715332
2	53.207972049713135	pulse	0	t		0.0	2.5	/experiments/Knapen_AOT/AOT_stimuli/rescaled_final/0056_fw.mp4	0.0	70.83367657661438	
2	53.24948978424072	movie	1		283	0.0	2.5	/experiments/Knapen_AOT/AOT_stimuli/rescaled_final/0056_fw.mp4	0.0	70.87519431114197	2.4753143787384033
2	54.80746555328369	pulse	1	t		0.0	2.5	/experiments/Knapen_AOT/AOT_stimuli/rescaled_final/0056_fw.mp4	0.0	72.43317008018494	
2	55.724804162979126	fix_post	2		12	0.0	2.5	/experiments/Knapen_AOT/AOT_stimuli/rescaled_final/0056_fw.mp4	0.0	73.35050868988037	0.10006213188171387
3	55.82486629486084	fix_pre	0		120	1.0	2.5	/experiments/Knapen_AOT/AOT_stimuli/rescaled_final/1942_fw.mp4	0.0	73.45057082176208	1.0084311962127686
3	56.40846061706543	pulse	0	t		1.0	2.5	/experiments/Knapen_AOT/AOT_stimuli/rescaled_final/1942_fw.mp4	0.0	74.03416514396667	
3	56.83329749107361	movie	1		290	1.0	2.5	/experiments/Knapen_AOT/AOT_stimuli/rescaled_final/1942_fw.mp4	0.0	74.45900201797485	2.4922492504119873
3	58.00673747062683	pulse	1	t		1.0	2.5	/experiments/Knapen_AOT/AOT_stimuli/rescaled_final/1942_fw.mp4	0.0	75.63244199752808	
3	59.325546741485596	fix_post	2		12	1.0	2.5	/experiments/Knapen_AOT/AOT_stimuli/rescaled_final/1942_fw.mp4	0.0	76.95125126838684	0.09979248046875
4	59.425339221954346	fix_pre	0		120	2.0	2.5	/experiments/Knapen_AOT/AOT_stimuli/rescaled_final/1204_fw.mp4	0.0	77.05104374885559	1.0085279941558838
4	59.609461545944214	pulse	0	t		2.0	2.5	/experiments/Knapen_AOT/AOT_stimuli/rescaled_final/1204_fw.mp4	0.0	77.23516607284546	
4	60.43386721611023	movie	1		277	2.0	2.5	/experiments/Knapen_AOT/AOT_stimuli/rescaled_final/1204_fw.mp4	0.0	78.05957174301147	2.4920542240142822
4	61.2070996761322	pulse	1	t		2.0	2.5	/experiments/Knapen_AOT/AOT_stimuli/rescaled_final/1204_fw.mp4	0.0	78.83280420303345	
4	62.80721116065979	pulse	1	t		2.0	2.5	/experiments/Knapen_AOT/AOT_stimuli/rescaled_final/1204_fw.mp4	0.0	80.43291568756104	
4	62.92592144012451	fix_post	2		12	2.0	2.5	/experiments/Knapen_AOT/AOT_stimuli/rescaled_final/1204_fw.mp4	0.0	80.55162596702576	0.09998226165771484
5	63.02590370178223	fix_pre	0		120	3.0	2.5	/experiments/Knapen_AOT/AOT_stimuli/rescaled_final/1992_rv.mp4	0.0	80.65160822868347	1.0085234642028809
5	64.03442716598511	movie	1		280	3.0	2.5	/experiments/Knapen_AOT/AOT_stimuli/rescaled_final/1992_rv.mp4	0.0	81.66013169288635	2.491992950439453
5	64.40883731842041	pulse	1	t		3.0	2.5	/experiments/Knapen_AOT/AOT_stimuli/rescaled_final/1992_rv.mp4	0.0	82.03454184532166	
5	66.00776696205139	pulse	1	t		3.0	2.5	/experiments/Knapen_AOT/AOT_stimuli/rescaled_final/1992_rv.mp4	0.0	83.63347148895264	
5	66.52642011642456	fix_post	2		12	3.0	2.5	/experiments/Knapen_AOT/AOT_stimuli/rescaled_final/1992_rv.mp4	0.0	84.1521246433258	0.10000896453857422
6	66.62642908096313	fix_pre	0		119	4.0	2.5	/experiments/Knapen_AOT/AOT_stimuli/rescaled_final/1417_rv.mp4	0.0	84.25213360786438	1.0001442432403564
6	67.6101987361908	pulse	0	t		4.0	2.5	/experiments/Knapen_AOT/AOT_stimuli/rescaled_final/1417_rv.mp4	0.0	85.23590326309204	
6	67.62657332420349	movie	1		288	4.0	2.5	/experiments/Knapen_AOT/AOT_stimuli/rescaled_final/1417_rv.mp4	0.0	85.25227785110474	2.5003812313079834
6	69.20899415016174	pulse	1	t		4.0	2.5	/experiments/Knapen_AOT/AOT_stimuli/rescaled_final/1417_rv.mp4	0.0	86.83469867706299	
6	70.12695455551147	fix_post	2		12	4.0	2.5	/experiments/Knapen_AOT/AOT_stimuli/rescaled_final/1417_rv.mp4	0.0	87.75265908241272	0.10001754760742188
7	70.2269721031189	fix_pre	0		120	5.0	2.5	/experiments/Knapen_AOT/AOT_stimuli/rescaled_final/0862_rv.mp4	0.0	87.85267663002014	1.008504867553711
7	70.81065487861633	pulse	0	t		5.0	2.5	/experiments/Knapen_AOT/AOT_stimuli/rescaled_final/0862_rv.mp4	0.0	88.43635940551758	
7	71.23547697067261	movie	1		291	5.0	2.5	/experiments/Knapen_AOT/AOT_stimuli/rescaled_final/0862_rv.mp4	0.0	88.86118149757385	2.4920222759246826
7	72.40893507003784	pulse	1	t		5.0	2.5	/experiments/Knapen_AOT/AOT_stimuli/rescaled_final/0862_rv.mp4	0.0	90.03463959693909	
7	73.72749924659729	fix_post	2		12	5.0	2.5	/experiments/Knapen_AOT/AOT_stimuli/rescaled_final/0862_rv.mp4	0.0	91.35320377349854	0.1000213623046875
8	73.82752060890198	fix_pre	0		120	6.0	2.5	blank	1.0	91.45322513580322	1.0001485347747803
8	74.01118040084839	pulse	0	t		6.0	2.5	blank	1.0	91.63688492774963	
8	74.82766914367676	movie	1		300	6.0	2.5	blank	1.0	92.453373670578	2.500372886657715
8	75.61134266853333	pulse	1	t		6.0	2.5	blank	1.0	93.23704719543457	
8	77.2115261554718	pulse	1	t		6.0	2.5	blank	1.0	94.83723068237305	
8	77.32804203033447	fix_post	2		12	6.0	2.5	blank	1.0	94.95374655723572	0.1000213623046875
9	77.42806339263916	fix_pre	0		120	7.0	2.5	/experiments/Knapen_AOT/AOT_stimuli/rescaled_final/1130_fw.mp4	0.0	95.0537679195404	1.008481740951538
9	78.4365451335907	movie	1		284	7.0	2.5	/experiments/Knapen_AOT/AOT_stimuli/rescaled_final/1130_fw.mp4	0.0	96.06224966049194	2.492034673690796
9	78.81204771995544	pulse	1	t		7.0	2.5	/experiments/Knapen_AOT/AOT_stimuli/rescaled_final/1130_fw.mp4	0.0	96.43775224685669	
9	80.41008162498474	pulse	1	t		7.0	2.5	/experiments/Knapen_AOT/AOT_stimuli/rescaled_final/1130_fw.mp4	0.0	98.03578615188599	
9	80.9285798072815	fix_post	2		12	7.0	2.5	/experiments/Knapen_AOT/AOT_stimuli/rescaled_final/1130_fw.mp4	0.0	98.55428433418274	0.10020065307617188
10	81.02878046035767	fix_pre	0		119	8.0	2.5	/experiments/Knapen_AOT/AOT_stimuli/rescaled_final/0655_rv.mp4	0.0	98.65448498725891	1.0000240802764893
10	82.0124101638794	pulse	0	t		8.0	2.5	/experiments/Knapen_AOT/AOT_stimuli/rescaled_final/0655_rv.mp4	0.0	99.63811469078064	
10	82.02880454063416	movie	1		288	8.0	2.5	/experiments/Knapen_AOT/AOT_stimuli/rescaled_final/0655_rv.mp4	0.0	99.6545090675354	2.5003256797790527
10	83.60420155525208	pulse	1	t		8.0	2.5	/experiments/Knapen_AOT/AOT_stimuli/rescaled_final/0655_rv.mp4	0.0	101.22990608215332	
10	84.52913022041321	fix_post	2		12	8.0	2.5	/experiments/Knapen_AOT/AOT_stimuli/rescaled_final/0655_rv.mp4	0.0	102.15483474731445	0.10000348091125488
11	84.62913370132446	fix_pre	0		120	9.0	2.5	/experiments/Knapen_AOT/AOT_stimuli/rescaled_final/1942_fw.mp4	0.0	102.25483822822571	1.008530616760254
11	85.20484447479248	pulse	0	t		9.0	2.5	/experiments/Knapen_AOT/AOT_stimuli/rescaled_final/1942_fw.mp4	0.0	102.83054900169373	
11	85.63766431808472	movie	1		284	9.0	2.5	/experiments/Knapen_AOT/AOT_stimuli/rescaled_final/1942_fw.mp4	0.0	103.26336884498596	2.4920246601104736
11	86.80471348762512	pulse	1	t		9.0	2.5	/experiments/Knapen_AOT/AOT_stimuli/rescaled_final/1942_fw.mp4	0.0	104.43041801452637	
11	88.12968897819519	fix_post	2		12	9.0	2.5	/experiments/Knapen_AOT/AOT_stimuli/rescaled_final/1942_fw.mp4	0.0	105.75539350509644	0.10000443458557129
12	88.22969341278076	fix_pre	0		120	10.0	2.5	/experiments/Knapen_AOT/AOT_stimuli/rescaled_final/0026_fw.mp4	0.0	105.855397939682	1.0084788799285889
12	88.40493202209473	pulse	0	t		10.0	2.5	/experiments/Knapen_AOT/AOT_stimuli/rescaled_final/0026_fw.mp4	0.0	106.03063654899597	
12	89.23817229270935	movie	1		281	10.0	2.5	/experiments/Knapen_AOT/AOT_stimuli/rescaled_final/0026_fw.mp4	0.0	106.8638768196106	2.492029905319214
12	90.0052900314331	pulse	1	t		10.0	2.5	/experiments/Knapen_AOT/AOT_stimuli/rescaled_final/0026_fw.mp4	0.0	107.63099455833435	
12	91.60552167892456	pulse	1	t		10.0	2.5	/experiments/Knapen_AOT/AOT_stimuli/rescaled_final/0026_fw.mp4	0.0	109.2312262058258	
12	91.73020219802856	fix_post	2		12	10.0	2.5	/experiments/Knapen_AOT/AOT_stimuli/rescaled_final/0026_fw.mp4	0.0	109.35590672492981	0.10002636909484863
13	91.83022856712341	fix_pre	0		120	11.0	2.5	/experiments/Knapen_AOT/AOT_stimuli/rescaled_final/1431_rv.mp4	0.0	109.45593309402466	1.0085163116455078
13	92.83874487876892	movie	1		282	11.0	2.5	/experiments/Knapen_AOT/AOT_stimuli/rescaled_final/1431_rv.mp4	0.0	110.46444940567017	2.492004632949829
13	93.2038426399231	pulse	1	t		11.0	2.5	/experiments/Knapen_AOT/AOT_stimuli/rescaled_final/1431_rv.mp4	0.0	110.82954716682434	
13	94.80418014526367	pulse	1	t		11.0	2.5	/experiments/Knapen_AOT/AOT_stimuli/rescaled_final/1431_rv.mp4	0.0	112.42988467216492	
13	95.33074951171875	fix_post	2		12	11.0	2.5	/experiments/Knapen_AOT/AOT_stimuli/rescaled_final/1431_rv.mp4	0.0	112.95645403862	0.10005068778991699
14	95.43080019950867	fix_pre	0		118	12.0	2.5	/experiments/Knapen_AOT/AOT_stimuli/rescaled_final/1050_fw.mp4	0.0	113.05650472640991	0.9917645454406738
14	96.40643239021301	pulse	0	t		12.0	2.5	/experiments/Knapen_AOT/AOT_stimuli/rescaled_final/1050_fw.mp4	0.0	114.03213691711426	
14	96.42256474494934	movie	1		287	12.0	2.5	/experiments/Knapen_AOT/AOT_stimuli/rescaled_final/1050_fw.mp4	0.0	114.04826927185059	2.500396490097046
14	98.00471711158752	pulse	1	t		12.0	2.5	/experiments/Knapen_AOT/AOT_stimuli/rescaled_final/1050_fw.mp4	0.0	115.63042163848877	
14	98.92296123504639	fix_post	2		12	12.0	2.5	/experiments/Knapen_AOT/AOT_stimuli/rescaled_final/1050_fw.mp4	0.0	116.54866576194763	0.1000516414642334
15	99.02301287651062	fix_pre	0		120	13.0	2.5	/experiments/Knapen_AOT/AOT_stimuli/rescaled_final/0499_fw.mp4	0.0	116.64871740341187	1.0084655284881592
15	99.60661721229553	pulse	0	t		13.0	2.5	/experiments/Knapen_AOT/AOT_stimuli/rescaled_final/0499_fw.mp4	0.0	117.23232173919678	
15	100.03147840499878	movie	1		280	13.0	2.5	/experiments/Knapen_AOT/AOT_stimuli/rescaled_final/0499_fw.mp4	0.0	117.65718293190002	2.4920265674591064
15	101.20488834381104	pulse	1	t		13.0	2.5	/experiments/Knapen_AOT/AOT_stimuli/rescaled_final/0499_fw.mp4	0.0	118.83059287071228	
15	102.52350497245789	fix_post	2		12	13.0	2.5	/experiments/Knapen_AOT/AOT_stimuli/rescaled_final/0499_fw.mp4	0.0	120.14920949935913	0.10005545616149902
16	102.62356042861938	fix_pre	0		120	14.0	2.5	blank	1.0	120.24926495552063	1.0001025199890137
16	102.80707955360413	pulse	0	t		14.0	2.5	blank	1.0	120.43278408050537	
16	103.6236629486084	movie	1		300	14.0	2.5	blank	1.0	121.24936747550964	2.500404119491577
16	104.40732622146606	pulse	1	t		14.0	2.5	blank	1.0	122.03303074836731	
16	106.00760626792908	pulse	1	t		14.0	2.5	blank	1.0	123.63331079483032	
16	106.12406706809998	fix_post	2		12	14.0	2.5	blank	1.0	123.74977159500122	0.10005021095275879
17	106.22411727905273	fix_pre	0		120	15.0	2.5	/experiments/Knapen_AOT/AOT_stimuli/rescaled_final/0989_fw.mp4	0.0	123.84982180595398	1.0084335803985596
17	107.2325508594513	movie	1		280	15.0	2.5	/experiments/Knapen_AOT/AOT_stimuli/rescaled_final/0989_fw.mp4	0.0	124.85825538635254	2.492021083831787
17	107.60934114456177	pulse	1	t		15.0	2.5	/experiments/Knapen_AOT/AOT_stimuli/rescaled_final/0989_fw.mp4	0.0	125.23504567146301	
17	109.20636677742004	pulse	1	t		15.0	2.5	/experiments/Knapen_AOT/AOT_stimuli/rescaled_final/0989_fw.mp4	0.0	126.83207130432129	
17	109.72457194328308	fix_post	2		12	15.0	2.5	/experiments/Knapen_AOT/AOT_stimuli/rescaled_final/0989_fw.mp4	0.0	127.35027647018433	0.1000669002532959
18	109.82463884353638	fix_pre	0		119	16.0	2.5	/experiments/Knapen_AOT/AOT_stimuli/rescaled_final/0560_rv.mp4	0.0	127.45034337043762	1.0001130104064941
18	110.80827045440674	pulse	0	t		16.0	2.5	/experiments/Knapen_AOT/AOT_stimuli/rescaled_final/0560_rv.mp4	0.0	128.43397498130798	
18	110.82475185394287	movie	1		286	16.0	2.5	/experiments/Knapen_AOT/AOT_stimuli/rescaled_final/0560_rv.mp4	0.0	128.45045638084412	2.5004467964172363
18	112.40710830688477	pulse	1	t		16.0	2.5	/experiments/Knapen_AOT/AOT_stimuli/rescaled_final/0560_rv.mp4	0.0	130.032812833786	
18	113.32519865036011	fix_post	2		12	16.0	2.5	/experiments/Knapen_AOT/AOT_stimuli/rescaled_final/0560_rv.mp4	0.0	130.95090317726135	0.0999457836151123
19	113.42514443397522	fix_pre	0		120	17.0	2.5	/experiments/Knapen_AOT/AOT_stimuli/rescaled_final/1705_rv.mp4	0.0	131.05084896087646	1.00850510597229
19	114.00899362564087	pulse	0	t		17.0	2.5	/experiments/Knapen_AOT/AOT_stimuli/rescaled_final/1705_rv.mp4	0.0	131.63469815254211	
19	114.43364953994751	movie	1		289	17.0	2.5	/experiments/Knapen_AOT/AOT_stimuli/rescaled_final/1705_rv.mp4	0.0	132.05935406684875	2.4920332431793213
19	115.60724210739136	pulse	1	t		17.0	2.5	/experiments/Knapen_AOT/AOT_stimuli/rescaled_final/1705_rv.mp4	0.0	133.2329466342926	
19	116.92568278312683	fix_post	2		12	17.0	2.5	/experiments/Knapen_AOT/AOT_stimuli/rescaled_final/1705_rv.mp4	0.0	134.55138731002808	0.10002541542053223
20	117.02570819854736	fix_pre	0		120	18.0	2.5	/experiments/Knapen_AOT/AOT_stimuli/rescaled_final/1797_fw.mp4	0.0	134.6514127254486	1.0085275173187256
20	117.20935773849487	pulse	0	t		18.0	2.5	/experiments/Knapen_AOT/AOT_stimuli/rescaled_final/1797_fw.mp4	0.0	134.83506226539612	
20	118.03423571586609	movie	1		281	18.0	2.5	/experiments/Knapen_AOT/AOT_stimuli/rescaled_final/1797_fw.mp4	0.0	135.65994024276733	2.4920310974121094
20	118.80823922157288	pulse	1	t		18.0	2.5	/experiments/Knapen_AOT/AOT_stimuli/rescaled_final/1797_fw.mp4	0.0	136.43394374847412	
20	120.40754199028015	pulse	1	t		18.0	2.5	/experiments/Knapen_AOT/AOT_stimuli/rescaled_final/1797_fw.mp4	0.0	138.0332465171814	
20	120.5262668132782	fix_post	2		12	18.0	2.5	/experiments/Knapen_AOT/AOT_stimuli/rescaled_final/1797_fw.mp4	0.0	138.15197134017944	0.09997296333312988
21	120.62623977661133	fix_pre	0		120	19.0	2.5	/experiments/Knapen_AOT/AOT_stimuli/rescaled_final/1831_fw.mp4	0.0	138.25194430351257	1.0085411071777344
21	121.63478088378906	movie	1		284	19.0	2.5	/experiments/Knapen_AOT/AOT_stimuli/rescaled_final/1831_fw.mp4	0.0	139.2604854106903	2.491997003555298
21	122.00835824012756	pulse	1	t		19.0	2.5	/experiments/Knapen_AOT/AOT_stimuli/rescaled_final/1831_fw.mp4	0.0	139.6340627670288	
21	123.60828590393066	pulse	1	t		19.0	2.5	/experiments/Knapen_AOT/AOT_stimuli/rescaled_final/1831_fw.mp4	0.0	141.2339904308319	
21	124.12677788734436	fix_post	2		12	19.0	2.5	/experiments/Knapen_AOT/AOT_stimuli/rescaled_final/1831_fw.mp4	0.0	141.7524824142456	0.10001444816589355
22	124.22679233551025	fix_pre	0		119	20.0	2.5	/experiments/Knapen_AOT/AOT_stimuli/rescaled_final/0764_rv.mp4	0.0	141.8524968624115	1.00014066696167
22	125.21045589447021	pulse	0	t		20.0	2.5	/experiments/Knapen_AOT/AOT_stimuli/rescaled_final/0764_rv.mp4	0.0	142.83616042137146	
22	125.22693300247192	movie	1		284	20.0	2.5	/experiments/Knapen_AOT/AOT_stimuli/rescaled_final/0764_rv.mp4	0.0	142.85263752937317	2.5003511905670166
22	126.80951929092407	pulse	1	t		20.0	2.5	/experiments/Knapen_AOT/AOT_stimuli/rescaled_final/0764_rv.mp4	0.0	144.43522381782532	
22	127.72728419303894	fix_post	2		12	20.0	2.5	/experiments/Knapen_AOT/AOT_stimuli/rescaled_final/0764_rv.mp4	0.0	145.35298871994019	0.10003900527954102
23	127.82732319831848	fix_pre	0		120	21.0	2.5	blank	1.0	145.45302772521973	1.0001556873321533
23	128.41155743598938	pulse	0	t		21.0	2.5	blank	1.0	146.03726196289062	
23	128.82747888565063	movie	1		300	21.0	2.5	blank	1.0	146.45318341255188	2.5003793239593506
23	130.0114369392395	pulse	1	t		21.0	2.5	blank	1.0	147.63714146614075	
23	131.32785820960999	fix_post	2		12	21.0	2.5	blank	1.0	148.95356273651123	0.09999346733093262
24	131.42785167694092	fix_pre	0		120	22.0	2.5	/experiments/Knapen_AOT/AOT_stimuli/rescaled_final/1619_fw.mp4	0.0	149.05355620384216	1.0085570812225342
24	131.61137628555298	pulse	0	t		22.0	2.5	/experiments/Knapen_AOT/AOT_stimuli/rescaled_final/1619_fw.mp4	0.0	149.23708081245422	
24	132.43640875816345	movie	1		286	22.0	2.5	/experiments/Knapen_AOT/AOT_stimuli/rescaled_final/1619_fw.mp4	0.0	150.0621132850647	2.4919703006744385
24	133.20961236953735	pulse	1	t		22.0	2.5	/experiments/Knapen_AOT/AOT_stimuli/rescaled_final/1619_fw.mp4	0.0	150.8353168964386	
24	134.80976748466492	pulse	1	t		22.0	2.5	/experiments/Knapen_AOT/AOT_stimuli/rescaled_final/1619_fw.mp4	0.0	152.43547201156616	
24	134.9283790588379	fix_post	2		12	22.0	2.5	/experiments/Knapen_AOT/AOT_stimuli/rescaled_final/1619_fw.mp4	0.0	152.55408358573914	0.10007619857788086
25	135.02845525741577	fix_pre	0		120	23.0	2.5	/experiments/Knapen_AOT/AOT_stimuli/rescaled_final/1768_rv.mp4	0.0	152.65415978431702	1.0084152221679688
25	136.03687047958374	movie	1		280	23.0	2.5	/experiments/Knapen_AOT/AOT_stimuli/rescaled_final/1768_rv.mp4	0.0	153.66257500648499	2.4920427799224854
25	136.41084122657776	pulse	1	t		23.0	2.5	/experiments/Knapen_AOT/AOT_stimuli/rescaled_final/1768_rv.mp4	0.0	154.036545753479	
25	138.00419783592224	pulse	1	t		23.0	2.5	/experiments/Knapen_AOT/AOT_stimuli/rescaled_final/1768_rv.mp4	0.0	155.6299023628235	
25	138.52891325950623	fix_post	2		12	23.0	2.5	/experiments/Knapen_AOT/AOT_stimuli/rescaled_final/1768_rv.mp4	0.0	156.15461778640747	0.10000872611999512
26	138.62892198562622	fix_pre	0		118	24.0	2.5	/experiments/Knapen_AOT/AOT_stimuli/rescaled_final/1776_rv.mp4	0.0	156.25462651252747	0.9918434619903564
26	139.60424304008484	pulse	0	t		24.0	2.5	/experiments/Knapen_AOT/AOT_stimuli/rescaled_final/1776_rv.mp4	0.0	157.22994756698608	
26	139.62076544761658	movie	1		289	24.0	2.5	/experiments/Knapen_AOT/AOT_stimuli/rescaled_final/1776_rv.mp4	0.0	157.24646997451782	2.5005123615264893
26	141.2046184539795	pulse	1	t		24.0	2.5	/experiments/Knapen_AOT/AOT_stimuli/rescaled_final/1776_rv.mp4	0.0	158.83032298088074	
26	142.12127780914307	fix_post	2		12	24.0	2.5	/experiments/Knapen_AOT/AOT_stimuli/rescaled_final/1776_rv.mp4	0.0	159.7469823360443	0.0998544692993164
27	142.22113227844238	fix_pre	0		120	25.0	2.5	/experiments/Knapen_AOT/AOT_stimuli/rescaled_final/0257_rv.mp4	0.0	159.84683680534363	1.0085241794586182
27	142.8047342300415	pulse	0	t		25.0	2.5	/experiments/Knapen_AOT/AOT_stimuli/rescaled_final/0257_rv.mp4	0.0	160.43043875694275	
27	143.229656457901	movie	1		287	25.0	2.5	/experiments/Knapen_AOT/AOT_stimuli/rescaled_final/0257_rv.mp4	0.0	160.85536098480225	2.492013454437256
27	144.40514397621155	pulse	1	t		25.0	2.5	/experiments/Knapen_AOT/AOT_stimuli/rescaled_final/0257_rv.mp4	0.0	162.0308485031128	
27	145.72166991233826	fix_post	2		12	25.0	2.5	/experiments/Knapen_AOT/AOT_stimuli/rescaled_final/0257_rv.mp4	0.0	163.3473744392395	0.10002994537353516
28	145.8216998577118	fix_pre	0		120	26.0	2.5	blank	1.0	163.44740438461304	1.0001287460327148
28	146.00519061088562	pulse	0	t		26.0	2.5	blank	1.0	163.63089513778687	
28	146.8218286037445	movie	1		300	26.0	2.5	blank	1.0	164.44753313064575	2.5003774166107178
28	147.60547924041748	pulse	1	t		26.0	2.5	blank	1.0	165.23118376731873	
28	149.20571041107178	pulse	1	t		26.0	2.5	blank	1.0	166.83141493797302	
28	149.32220602035522	fix_post	2		12	26.0	2.5	blank	1.0	166.94791054725647	0.1000070571899414
29	149.42221307754517	fix_pre	0		120	27.0	2.5	/experiments/Knapen_AOT/AOT_stimuli/rescaled_final/1217_rv.mp4	0.0	167.0479176044464	1.0085666179656982
29	150.43077969551086	movie	1		279	27.0	2.5	/experiments/Knapen_AOT/AOT_stimuli/rescaled_final/1217_rv.mp4	0.0	168.0564842224121	2.491957902908325
29	150.8060657978058	pulse	1	t		27.0	2.5	/experiments/Knapen_AOT/AOT_stimuli/rescaled_final/1217_rv.mp4	0.0	168.43177032470703	
29	152.40478801727295	pulse	1	t		27.0	2.5	/experiments/Knapen_AOT/AOT_stimuli/rescaled_final/1217_rv.mp4	0.0	170.0304925441742	
29	152.9227375984192	fix_post	2		12	27.0	2.5	/experiments/Knapen_AOT/AOT_stimuli/rescaled_final/1217_rv.mp4	0.0	170.54844212532043	0.10007905960083008
30	153.02281665802002	fix_pre	0		119	28.0	2.5	/experiments/Knapen_AOT/AOT_stimuli/rescaled_final/2055_rv.mp4	0.0	170.64852118492126	1.0085208415985107
30	154.00651741027832	pulse	0	t		28.0	2.5	/experiments/Knapen_AOT/AOT_stimuli/rescaled_final/2055_rv.mp4	0.0	171.63222193717957	
30	154.03133749961853	movie	1		277	28.0	2.5	/experiments/Knapen_AOT/AOT_stimuli/rescaled_final/2055_rv.mp4	0.0	171.65704202651978	2.4919440746307373
30	155.6060471534729	pulse	1	t		28.0	2.5	/experiments/Knapen_AOT/AOT_stimuli/rescaled_final/2055_rv.mp4	0.0	173.23175168037415	
30	156.52328157424927	fix_post	2		12	28.0	2.5	/experiments/Knapen_AOT/AOT_stimuli/rescaled_final/2055_rv.mp4	0.0	174.1489861011505	0.10002470016479492
31	156.62330627441406	fix_pre	0		120	29.0	2.5	/experiments/Knapen_AOT/AOT_stimuli/rescaled_final/2046_rv.mp4	0.0	174.2490108013153	1.0085093975067139
31	157.2069787979126	pulse	0	t		29.0	2.5	/experiments/Knapen_AOT/AOT_stimuli/rescaled_final/2046_rv.mp4	0.0	174.83268332481384	
31	157.63181567192078	movie	1		286	29.0	2.5	/experiments/Knapen_AOT/AOT_stimuli/rescaled_final/2046_rv.mp4	0.0	175.25752019882202	2.4920356273651123
31	158.80509686470032	pulse	1	t		29.0	2.5	/experiments/Knapen_AOT/AOT_stimuli/rescaled_final/2046_rv.mp4	0.0	176.43080139160156	
31	160.1238512992859	fix_post	2		12	29.0	2.5	/experiments/Knapen_AOT/AOT_stimuli/rescaled_final/2046_rv.mp4	0.0	177.74955582618713	0.10012984275817871
32	160.22398114204407	fix_pre	0		120	30.0	2.5	/experiments/Knapen_AOT/AOT_stimuli/rescaled_final/1017_fw.mp4	0.0	177.8496856689453	1.0083589553833008
32	160.4073543548584	pulse	0	t		30.0	2.5	/experiments/Knapen_AOT/AOT_stimuli/rescaled_final/1017_fw.mp4	0.0	178.03305888175964	
32	161.23234009742737	movie	1		283	30.0	2.5	/experiments/Knapen_AOT/AOT_stimuli/rescaled_final/1017_fw.mp4	0.0	178.8580446243286	2.492032289505005
32	162.00550389289856	pulse	1	t		30.0	2.5	/experiments/Knapen_AOT/AOT_stimuli/rescaled_final/1017_fw.mp4	0.0	179.6312084197998	
32	163.605947971344	pulse	1	t		30.0	2.5	/experiments/Knapen_AOT/AOT_stimuli/rescaled_final/1017_fw.mp4	0.0	181.23165249824524	
32	163.72437238693237	fix_post	2		12	30.0	2.5	/experiments/Knapen_AOT/AOT_stimuli/rescaled_final/1017_fw.mp4	0.0	181.35007691383362	0.10002875328063965
33	163.824401140213	fix_pre	0		120	31.0	2.5	/experiments/Knapen_AOT/AOT_stimuli/rescaled_final/0066_rv.mp4	0.0	181.45010566711426	1.0085113048553467
33	164.83291244506836	movie	1		274	31.0	2.5	/experiments/Knapen_AOT/AOT_stimuli/rescaled_final/0066_rv.mp4	0.0	182.4586169719696	2.4920241832733154
33	165.20661211013794	pulse	1	t		31.0	2.5	/experiments/Knapen_AOT/AOT_stimuli/rescaled_final/0066_rv.mp4	0.0	182.83231663703918	
33	166.80640029907227	pulse	1	t		31.0	2.5	/experiments/Knapen_AOT/AOT_stimuli/rescaled_final/0066_rv.mp4	0.0	184.4321048259735	
33	167.32493662834167	fix_post	2		12	31.0	2.5	/experiments/Knapen_AOT/AOT_stimuli/rescaled_final/0066_rv.mp4	0.0	184.95064115524292	0.09999918937683105
34	167.4249358177185	fix_pre	0		119	32.0	2.5	/experiments/Knapen_AOT/AOT_stimuli/rescaled_final/1935_rv.mp4	0.0	185.05064034461975	1.0002031326293945
34	168.40893077850342	pulse	0	t		32.0	2.5	/experiments/Knapen_AOT/AOT_stimuli/rescaled_final/1935_rv.mp4	0.0	186.03463530540466	
34	168.4251389503479	movie	1		294	32.0	2.5	/experiments/Knapen_AOT/AOT_stimuli/rescaled_final/1935_rv.mp4	0.0	186.05084347724915	2.5002994537353516
34	170.00734996795654	pulse	1	t		32.0	2.5	/experiments/Knapen_AOT/AOT_stimuli/rescaled_final/1935_rv.mp4	0.0	187.6330544948578	
34	170.92543840408325	fix_post	2		12	32.0	2.5	/experiments/Knapen_AOT/AOT_stimuli/rescaled_final/1935_rv.mp4	0.0	188.5511429309845	0.10000872611999512
35	171.02544713020325	fix_pre	0		120	33.0	2.5	blank	1.0	188.6511516571045	1.0001626014709473
35	171.60905122756958	pulse	0	t		33.0	2.5	blank	1.0	189.23475575447083	
35	172.0256097316742	movie	1		300	33.0	2.5	blank	1.0	189.65131425857544	2.5004982948303223
35	173.20924305915833	pulse	1	t		33.0	2.5	blank	1.0	190.83494758605957	
35	174.52610802650452	fix_post	2		12	33.0	2.5	blank	1.0	192.15181255340576	0.09990644454956055
36	174.62601447105408	fix_pre	0		120	34.0	2.5	/experiments/Knapen_AOT/AOT_stimuli/rescaled_final/1587_fw.mp4	0.0	192.25171899795532	1.0084750652313232
36	174.8095154762268	pulse	0	t		34.0	2.5	/experiments/Knapen_AOT/AOT_stimuli/rescaled_final/1587_fw.mp4	0.0	192.43522000312805	
36	175.6344895362854	movie	1		295	34.0	2.5	/experiments/Knapen_AOT/AOT_stimuli/rescaled_final/1587_fw.mp4	0.0	193.26019406318665	2.49202823638916
36	176.40835666656494	pulse	1	t		34.0	2.5	/experiments/Knapen_AOT/AOT_stimuli/rescaled_final/1587_fw.mp4	0.0	194.0340611934662	
36	178.00573801994324	pulse	1	t		34.0	2.5	/experiments/Knapen_AOT/AOT_stimuli/rescaled_final/1587_fw.mp4	0.0	195.63144254684448	
36	178.12651777267456	fix_post	2		12	34.0	2.5	/experiments/Knapen_AOT/AOT_stimuli/rescaled_final/1587_fw.mp4	0.0	195.7522222995758	0.10004138946533203
37	178.2265591621399	fix_pre	0		120	35.0	2.5	/experiments/Knapen_AOT/AOT_stimuli/rescaled_final/1829_fw.mp4	0.0	195.85226368904114	1.008486032485962
37	179.23504519462585	movie	1		296	35.0	2.5	/experiments/Knapen_AOT/AOT_stimuli/rescaled_final/1829_fw.mp4	0.0	196.8607497215271	2.492018699645996
37	179.60782265663147	pulse	1	t		35.0	2.5	/experiments/Knapen_AOT/AOT_stimuli/rescaled_final/1829_fw.mp4	0.0	197.23352718353271	
37	181.20593404769897	pulse	1	t		35.0	2.5	/experiments/Knapen_AOT/AOT_stimuli/rescaled_final/1829_fw.mp4	0.0	198.83163857460022	
37	181.72706389427185	fix_post	2		12	35.0	2.5	/experiments/Knapen_AOT/AOT_stimuli/rescaled_final/1829_fw.mp4	0.0	199.3527684211731	0.1000068187713623
38	181.8270707130432	fix_pre	0		119	36.0	2.5	/experiments/Knapen_AOT/AOT_stimuli/rescaled_final/1400_rv.mp4	0.0	199.45277523994446	1.0001957416534424
38	182.81067609786987	pulse	0	t		36.0	2.5	/experiments/Knapen_AOT/AOT_stimuli/rescaled_final/1400_rv.mp4	0.0	200.43638062477112	
38	182.82726645469666	movie	1		290	36.0	2.5	/experiments/Knapen_AOT/AOT_stimuli/rescaled_final/1400_rv.mp4	0.0	200.4529709815979	2.5004518032073975
38	184.40865206718445	pulse	1	t		36.0	2.5	/experiments/Knapen_AOT/AOT_stimuli/rescaled_final/1400_rv.mp4	0.0	202.0343565940857	
38	185.32771825790405	fix_post	2		12	36.0	2.5	/experiments/Knapen_AOT/AOT_stimuli/rescaled_final/1400_rv.mp4	0.0	202.9534227848053	0.09990692138671875
39	185.42762517929077	fix_pre	0		120	37.0	2.5	/experiments/Knapen_AOT/AOT_stimuli/rescaled_final/0778_fw.mp4	0.0	203.05332970619202	1.0085484981536865
39	186.01123356819153	pulse	0	t		37.0	2.5	/experiments/Knapen_AOT/AOT_stimuli/rescaled_final/0778_fw.mp4	0.0	203.63693809509277	
39	186.43617367744446	movie	1		295	37.0	2.5	/experiments/Knapen_AOT/AOT_stimuli/rescaled_final/0778_fw.mp4	0.0	204.0618782043457	2.4919819831848145
39	187.60878729820251	pulse	1	t		37.0	2.5	/experiments/Knapen_AOT/AOT_stimuli/rescaled_final/0778_fw.mp4	0.0	205.23449182510376	
39	188.92815566062927	fix_post	2		12	37.0	2.5	/experiments/Knapen_AOT/AOT_stimuli/rescaled_final/0778_fw.mp4	0.0	206.55386018753052	0.10002803802490234
40	189.02818369865417	fix_pre	0		119	38.0	2.5	/experiments/Knapen_AOT/AOT_stimuli/rescaled_final/1694_fw.mp4	0.0	206.65388822555542	1.0085034370422363
40	189.2118854522705	pulse	0	t		38.0	2.5	/experiments/Knapen_AOT/AOT_stimuli/rescaled_final/1694_fw.mp4	0.0	206.83758997917175	
40	190.0366871356964	movie	1		296	38.0	2.5	/experiments/Knapen_AOT/AOT_stimuli/rescaled_final/1694_fw.mp4	0.0	207.66239166259766	2.49200701713562
40	190.8074779510498	pulse	1	t		38.0	2.5	/experiments/Knapen_AOT/AOT_stimuli/rescaled_final/1694_fw.mp4	0.0	208.43318247795105	
40	192.40775179862976	pulse	1	t		38.0	2.5	/experiments/Knapen_AOT/AOT_stimuli/rescaled_final/1694_fw.mp4	0.0	210.033456325531	
40	192.52869415283203	fix_post	2		12	38.0	2.5	/experiments/Knapen_AOT/AOT_stimuli/rescaled_final/1694_fw.mp4	0.0	210.15439867973328	0.10001206398010254
41	192.62870621681213	fix_pre	0		120	39.0	2.5	/experiments/Knapen_AOT/AOT_stimuli/rescaled_final/1507_rv.mp4	0.0	210.25441074371338	1.0085129737854004
41	193.63721919059753	movie	1		293	39.0	2.5	/experiments/Knapen_AOT/AOT_stimuli/rescaled_final/1507_rv.mp4	0.0	211.26292371749878	2.4837193489074707
41	194.0083920955658	pulse	1	t		39.0	2.5	/experiments/Knapen_AOT/AOT_stimuli/rescaled_final/1507_rv.mp4	0.0	211.63409662246704	
41	195.60440874099731	pulse	1	t		39.0	2.5	/experiments/Knapen_AOT/AOT_stimuli/rescaled_final/1507_rv.mp4	0.0	213.23011326789856	
41	196.120938539505	fix_post	2		12	39.0	2.5	/experiments/Knapen_AOT/AOT_stimuli/rescaled_final/1507_rv.mp4	0.0	213.74664306640625	0.1000053882598877
42	196.2209439277649	fix_pre	0		119	40.0	2.5	/experiments/Knapen_AOT/AOT_stimuli/rescaled_final/0958_rv.mp4	0.0	213.84664845466614	1.000195026397705
42	197.20454597473145	pulse	0	t		40.0	2.5	/experiments/Knapen_AOT/AOT_stimuli/rescaled_final/0958_rv.mp4	0.0	214.8302505016327	
42	197.2211389541626	movie	1		299	40.0	2.5	/experiments/Knapen_AOT/AOT_stimuli/rescaled_final/0958_rv.mp4	0.0	214.84684348106384	2.500322103500366
42	198.80495166778564	pulse	1	t		40.0	2.5	/experiments/Knapen_AOT/AOT_stimuli/rescaled_final/0958_rv.mp4	0.0	216.4306561946869	
42	199.72146105766296	fix_post	2		12	40.0	2.5	/experiments/Knapen_AOT/AOT_stimuli/rescaled_final/0958_rv.mp4	0.0	217.3471655845642	0.09997677803039551
43	199.82143783569336	fix_pre	0		120	41.0	2.5	/experiments/Knapen_AOT/AOT_stimuli/rescaled_final/0100_fw.mp4	0.0	217.4471423625946	1.0085158348083496
43	200.40500712394714	pulse	0	t		41.0	2.5	/experiments/Knapen_AOT/AOT_stimuli/rescaled_final/0100_fw.mp4	0.0	218.0307116508484	
43	200.8299536705017	movie	1		296	41.0	2.5	/experiments/Knapen_AOT/AOT_stimuli/rescaled_final/0100_fw.mp4	0.0	218.45565819740295	2.492022752761841
43	202.00527215003967	pulse	1	t		41.0	2.5	/experiments/Knapen_AOT/AOT_stimuli/rescaled_final/0100_fw.mp4	0.0	219.63097667694092	
43	203.32197642326355	fix_post	2		12	41.0	2.5	/experiments/Knapen_AOT/AOT_stimuli/rescaled_final/0100_fw.mp4	0.0	220.9476809501648	0.1000053882598877
44	203.42198181152344	fix_pre	0		120	42.0	2.5	blank	1.0	221.04768633842468	1.0001773834228516
44	203.60548424720764	pulse	0	t		42.0	2.5	blank	1.0	221.2311887741089	
44	204.4221591949463	movie	1		300	42.0	2.5	blank	1.0	222.04786372184753	2.500368595123291
44	205.20571994781494	pulse	1	t		42.0	2.5	blank	1.0	222.8314244747162	
44	206.8059949874878	pulse	1	t		42.0	2.5	blank	1.0	224.43169951438904	
44	206.92252779006958	fix_post	2		12	42.0	2.5	blank	1.0	224.54823231697083	0.10005617141723633
45	207.02258396148682	fix_pre	0		120	43.0	2.5	/experiments/Knapen_AOT/AOT_stimuli/rescaled_final/1575_fw.mp4	0.0	224.64828848838806	1.0084493160247803
45	208.0310332775116	movie	1		270	43.0	2.5	/experiments/Knapen_AOT/AOT_stimuli/rescaled_final/1575_fw.mp4	0.0	225.65673780441284	2.4920451641082764
45	208.40646886825562	pulse	1	t		43.0	2.5	/experiments/Knapen_AOT/AOT_stimuli/rescaled_final/1575_fw.mp4	0.0	226.03217339515686	
45	210.0064971446991	pulse	1	t		43.0	2.5	/experiments/Knapen_AOT/AOT_stimuli/rescaled_final/1575_fw.mp4	0.0	227.63220167160034	
45	210.52307844161987	fix_post	2		12	43.0	2.5	/experiments/Knapen_AOT/AOT_stimuli/rescaled_final/1575_fw.mp4	0.0	228.14878296852112	0.10001778602600098
46	210.62309622764587	fix_pre	0		119	44.0	2.5	/experiments/Knapen_AOT/AOT_stimuli/rescaled_final/0396_fw.mp4	0.0	228.24880075454712	1.0001935958862305
46	211.60688638687134	pulse	0	t		44.0	2.5	/experiments/Knapen_AOT/AOT_stimuli/rescaled_final/0396_fw.mp4	0.0	229.23259091377258	
46	211.6232898235321	movie	1		273	44.0	2.5	/experiments/Knapen_AOT/AOT_stimuli/rescaled_final/0396_fw.mp4	0.0	229.24899435043335	2.500335693359375
46	213.20675897598267	pulse	1	t		44.0	2.5	/experiments/Knapen_AOT/AOT_stimuli/rescaled_final/0396_fw.mp4	0.0	230.8324635028839	
46	214.12362551689148	fix_post	2		12	44.0	2.5	/experiments/Knapen_AOT/AOT_stimuli/rescaled_final/0396_fw.mp4	0.0	231.74933004379272	0.10003972053527832
47	214.22366523742676	fix_pre	0		120	45.0	2.5	/experiments/Knapen_AOT/AOT_stimuli/rescaled_final/0015_rv.mp4	0.0	231.849369764328	1.0085179805755615
47	214.80731678009033	pulse	0	t		45.0	2.5	/experiments/Knapen_AOT/AOT_stimuli/rescaled_final/0015_rv.mp4	0.0	232.43302130699158	
47	215.23218321800232	movie	1		272	45.0	2.5	/experiments/Knapen_AOT/AOT_stimuli/rescaled_final/0015_rv.mp4	0.0	232.85788774490356	2.491959810256958
47	216.40540623664856	pulse	1	t		45.0	2.5	/experiments/Knapen_AOT/AOT_stimuli/rescaled_final/0015_rv.mp4	0.0	234.0311107635498	
47	217.72414302825928	fix_post	2		12	45.0	2.5	/experiments/Knapen_AOT/AOT_stimuli/rescaled_final/0015_rv.mp4	0.0	235.34984755516052	0.10004496574401855
48	217.8241879940033	fix_pre	0		120	46.0	2.5	/experiments/Knapen_AOT/AOT_stimuli/rescaled_final/1417_fw.mp4	0.0	235.44989252090454	1.0085229873657227
48	218.00781846046448	pulse	0	t		46.0	2.5	/experiments/Knapen_AOT/AOT_stimuli/rescaled_final/1417_fw.mp4	0.0	235.63352298736572	
48	218.83271098136902	movie	1		276	46.0	2.5	/experiments/Knapen_AOT/AOT_stimuli/rescaled_final/1417_fw.mp4	0.0	236.45841550827026	2.492029905319214
48	219.60810661315918	pulse	1	t		46.0	2.5	/experiments/Knapen_AOT/AOT_stimuli/rescaled_final/1417_fw.mp4	0.0	237.23381114006042	
48	221.2063808441162	pulse	1	t		46.0	2.5	/experiments/Knapen_AOT/AOT_stimuli/rescaled_final/1417_fw.mp4	0.0	238.83208537101746	
48	221.32474088668823	fix_post	2		12	46.0	2.5	/experiments/Knapen_AOT/AOT_stimuli/rescaled_final/1417_fw.mp4	0.0	238.95044541358948	0.10000109672546387
49	221.4247419834137	fix_pre	0		120	47.0	2.5	/experiments/Knapen_AOT/AOT_stimuli/rescaled_final/1552_rv.mp4	0.0	239.05044651031494	1.0084941387176514
49	222.43323612213135	movie	1		280	47.0	2.5	/experiments/Knapen_AOT/AOT_stimuli/rescaled_final/1552_rv.mp4	0.0	240.0589406490326	2.49200701713562
49	222.8085961341858	pulse	1	t		47.0	2.5	/experiments/Knapen_AOT/AOT_stimuli/rescaled_final/1552_rv.mp4	0.0	240.43430066108704	
49	224.40858626365662	pulse	1	t		47.0	2.5	/experiments/Knapen_AOT/AOT_stimuli/rescaled_final/1552_rv.mp4	0.0	242.03429079055786	
49	224.92524313926697	fix_post	2		12	47.0	2.5	/experiments/Knapen_AOT/AOT_stimuli/rescaled_final/1552_rv.mp4	0.0	242.5509476661682	0.10007381439208984
50	225.02531695365906	fix_pre	0		119	48.0	2.5	/experiments/Knapen_AOT/AOT_stimuli/rescaled_final/0346_fw.mp4	0.0	242.6510214805603	1.0000889301300049
50	226.00893235206604	pulse	0	t		48.0	2.5	/experiments/Knapen_AOT/AOT_stimuli/rescaled_final/0346_fw.mp4	0.0	243.63463687896729	
50	226.02540588378906	movie	1		282	48.0	2.5	/experiments/Knapen_AOT/AOT_stimuli/rescaled_final/0346_fw.mp4	0.0	243.6511104106903	2.5003857612609863
50	227.60880184173584	pulse	1	t		48.0	2.5	/experiments/Knapen_AOT/AOT_stimuli/rescaled_final/0346_fw.mp4	0.0	245.23450636863708	
50	228.52579164505005	fix_post	2		12	48.0	2.5	/experiments/Knapen_AOT/AOT_stimuli/rescaled_final/0346_fw.mp4	0.0	246.1514961719513	0.10001087188720703
51	228.62580251693726	fix_pre	0		120	49.0	2.5	blank	1.0	246.2515070438385	1.0002317428588867
51	229.209463596344	pulse	0	t		49.0	2.5	blank	1.0	246.83516812324524	
51	229.62603425979614	movie	1		300	49.0	2.5	blank	1.0	247.2517387866974	2.500326633453369
51	230.8098020553589	pulse	1	t		49.0	2.5	blank	1.0	248.43550658226013	
51	232.1263608932495	fix_post	2		12	49.0	2.5	blank	1.0	249.75206542015076	0.0999915599822998
52	232.2263524532318	fix_pre	0		120	50.0	2.5	/experiments/Knapen_AOT/AOT_stimuli/rescaled_final/0942_fw.mp4	0.0	249.85205698013306	1.0084922313690186
52	232.41003918647766	pulse	0	t		50.0	2.5	/experiments/Knapen_AOT/AOT_stimuli/rescaled_final/0942_fw.mp4	0.0	250.0357437133789	
52	233.23484468460083	movie	1		284	50.0	2.5	/experiments/Knapen_AOT/AOT_stimuli/rescaled_final/0942_fw.mp4	0.0	250.86054921150208	2.4920644760131836
52	234.0083086490631	pulse	1	t		50.0	2.5	/experiments/Knapen_AOT/AOT_stimuli/rescaled_final/0942_fw.mp4	0.0	251.63401317596436	
52	235.60871124267578	pulse	1	t		50.0	2.5	/experiments/Knapen_AOT/AOT_stimuli/rescaled_final/0942_fw.mp4	0.0	253.23441576957703	
52	235.726909160614	fix_post	2		12	50.0	2.5	/experiments/Knapen_AOT/AOT_stimuli/rescaled_final/0942_fw.mp4	0.0	253.35261368751526	0.0999917984008789
53	235.8269009590149	fix_pre	0		120	51.0	2.5	/experiments/Knapen_AOT/AOT_stimuli/rescaled_final/2110_fw.mp4	0.0	253.45260548591614	1.0085222721099854
53	236.83542323112488	movie	1		283	51.0	2.5	/experiments/Knapen_AOT/AOT_stimuli/rescaled_final/2110_fw.mp4	0.0	254.46112775802612	2.4919965267181396
53	237.20921301841736	pulse	1	t		51.0	2.5	/experiments/Knapen_AOT/AOT_stimuli/rescaled_final/2110_fw.mp4	0.0	254.8349175453186	
53	238.8092999458313	pulse	1	t		51.0	2.5	/experiments/Knapen_AOT/AOT_stimuli/rescaled_final/2110_fw.mp4	0.0	256.43500447273254	
53	239.32741975784302	fix_post	2		12	51.0	2.5	/experiments/Knapen_AOT/AOT_stimuli/rescaled_final/2110_fw.mp4	0.0	256.95312428474426	0.10001587867736816
54	239.42743563652039	fix_pre	0		119	52.0	2.5	/experiments/Knapen_AOT/AOT_stimuli/rescaled_final/0104_rv.mp4	0.0	257.05314016342163	1.0001699924468994
54	240.41118502616882	pulse	0	t		52.0	2.5	/experiments/Knapen_AOT/AOT_stimuli/rescaled_final/0104_rv.mp4	0.0	258.03688955307007	
54	240.42760562896729	movie	1		285	52.0	2.5	/experiments/Knapen_AOT/AOT_stimuli/rescaled_final/0104_rv.mp4	0.0	258.05331015586853	2.500366449356079
54	242.00981521606445	pulse	1	t		52.0	2.5	/experiments/Knapen_AOT/AOT_stimuli/rescaled_final/0104_rv.mp4	0.0	259.6355197429657	
54	242.92797207832336	fix_post	2		12	52.0	2.5	/experiments/Knapen_AOT/AOT_stimuli/rescaled_final/0104_rv.mp4	0.0	260.5536766052246	0.10001444816589355
55	243.02798652648926	fix_pre	0		120	53.0	2.5	/experiments/Knapen_AOT/AOT_stimuli/rescaled_final/1974_rv.mp4	0.0	260.6536910533905	1.00846266746521
55	243.60538387298584	pulse	0	t		53.0	2.5	/experiments/Knapen_AOT/AOT_stimuli/rescaled_final/1974_rv.mp4	0.0	261.2310883998871	
55	244.03644919395447	movie	1		275	53.0	2.5	/experiments/Knapen_AOT/AOT_stimuli/rescaled_final/1974_rv.mp4	0.0	261.6621537208557	2.4920458793640137
55	245.210191488266	pulse	1	t		53.0	2.5	/experiments/Knapen_AOT/AOT_stimuli/rescaled_final/1974_rv.mp4	0.0	262.83589601516724	
55	246.52849507331848	fix_post	2		12	53.0	2.5	/experiments/Knapen_AOT/AOT_stimuli/rescaled_final/1974_rv.mp4	0.0	264.1541996002197	0.1000211238861084
56	246.6285161972046	fix_pre	0		120	54.0	2.5	blank	1.0	264.25422072410583	1.0001592636108398
56	246.81210613250732	pulse	0	t		54.0	2.5	blank	1.0	264.43781065940857	
56	247.62867546081543	movie	1		300	54.0	2.5	blank	1.0	265.2543799877167	2.5003671646118164
56	248.41235542297363	pulse	1	t		54.0	2.5	blank	1.0	266.0380599498749	
56	250.01283383369446	pulse	1	t		54.0	2.5	blank	1.0	267.6385383605957	
56	250.12904262542725	fix_post	2		12	54.0	2.5	blank	1.0	267.7547471523285	0.10001325607299805
57	250.22905588150024	fix_pre	0		120	55.0	2.5	/experiments/Knapen_AOT/AOT_stimuli/rescaled_final/0371_rv.mp4	0.0	267.8547604084015	1.008549690246582
57	251.23760557174683	movie	1		282	55.0	2.5	/experiments/Knapen_AOT/AOT_stimuli/rescaled_final/0371_rv.mp4	0.0	268.86331009864807	2.4919934272766113
57	251.61158514022827	pulse	1	t		55.0	2.5	/experiments/Knapen_AOT/AOT_stimuli/rescaled_final/0371_rv.mp4	0.0	269.2372896671295	
57	253.2050805091858	pulse	1	t		55.0	2.5	/experiments/Knapen_AOT/AOT_stimuli/rescaled_final/0371_rv.mp4	0.0	270.83078503608704	
57	253.72959899902344	fix_post	2		12	55.0	2.5	/experiments/Knapen_AOT/AOT_stimuli/rescaled_final/0371_rv.mp4	0.0	271.3553035259247	0.10004973411560059
58	253.82964873313904	fix_pre	0		118	56.0	2.5	/experiments/Knapen_AOT/AOT_stimuli/rescaled_final/0916_rv.mp4	0.0	271.4553532600403	1.0002191066741943
58	254.80533385276794	pulse	0	t		56.0	2.5	/experiments/Knapen_AOT/AOT_stimuli/rescaled_final/0916_rv.mp4	0.0	272.4310383796692	
58	254.82986783981323	movie	1		272	56.0	2.5	/experiments/Knapen_AOT/AOT_stimuli/rescaled_final/0916_rv.mp4	0.0	272.4555723667145	2.4918975830078125
58	256.40526056289673	pulse	1	t		56.0	2.5	/experiments/Knapen_AOT/AOT_stimuli/rescaled_final/0916_rv.mp4	0.0	274.030965089798	
58	257.32176542282104	fix_post	2		12	56.0	2.5	/experiments/Knapen_AOT/AOT_stimuli/rescaled_final/0916_rv.mp4	0.0	274.9474699497223	0.10008716583251953
59	257.42185258865356	fix_pre	0		120	57.0	2.5	/experiments/Knapen_AOT/AOT_stimuli/rescaled_final/0104_fw.mp4	0.0	275.0475571155548	1.0084879398345947
59	258.00552225112915	pulse	0	t		57.0	2.5	/experiments/Knapen_AOT/AOT_stimuli/rescaled_final/0104_fw.mp4	0.0	275.6312267780304	
59	258.43034052848816	movie	1		285	57.0	2.5	/experiments/Knapen_AOT/AOT_stimuli/rescaled_final/0104_fw.mp4	0.0	276.0560450553894	2.4919891357421875
59	259.60574650764465	pulse	1	t		57.0	2.5	/experiments/Knapen_AOT/AOT_stimuli/rescaled_final/0104_fw.mp4	0.0	277.2314510345459	
59	260.92232966423035	fix_post	2		12	57.0	2.5	/experiments/Knapen_AOT/AOT_stimuli/rescaled_final/0104_fw.mp4	0.0	278.5480341911316	0.09997797012329102
60	261.02230763435364	fix_pre	0		120	58.0	2.5	/experiments/Knapen_AOT/AOT_stimuli/rescaled_final/1130_rv.mp4	0.0	278.6480121612549	1.0085344314575195
60	261.20581698417664	pulse	0	t		58.0	2.5	/experiments/Knapen_AOT/AOT_stimuli/rescaled_final/1130_rv.mp4	0.0	278.8315215110779	
60	262.03084206581116	movie	1		292	58.0	2.5	/experiments/Knapen_AOT/AOT_stimuli/rescaled_final/1130_rv.mp4	0.0	279.6565465927124	2.4920036792755127
60	262.8061695098877	pulse	1	t		58.0	2.5	/experiments/Knapen_AOT/AOT_stimuli/rescaled_final/1130_rv.mp4	0.0	280.43187403678894	
60	264.40644907951355	pulse	1	t		58.0	2.5	/experiments/Knapen_AOT/AOT_stimuli/rescaled_final/1130_rv.mp4	0.0	282.0321536064148	
60	264.52284574508667	fix_post	2		12	58.0	2.5	/experiments/Knapen_AOT/AOT_stimuli/rescaled_final/1130_rv.mp4	0.0	282.1485502719879	0.10001063346862793
61	264.6228563785553	fix_pre	0		120	59.0	2.5	/experiments/Knapen_AOT/AOT_stimuli/rescaled_final/1831_rv.mp4	0.0	282.24856090545654	1.0085620880126953
61	265.631418466568	movie	1		292	59.0	2.5	/experiments/Knapen_AOT/AOT_stimuli/rescaled_final/1831_rv.mp4	0.0	283.25712299346924	2.491969585418701
61	266.0060803890228	pulse	1	t		59.0	2.5	/experiments/Knapen_AOT/AOT_stimuli/rescaled_final/1831_rv.mp4	0.0	283.6317849159241	
61	267.6041238307953	pulse	1	t		59.0	2.5	/experiments/Knapen_AOT/AOT_stimuli/rescaled_final/1831_rv.mp4	0.0	285.22982835769653	
61	268.1233880519867	fix_post	2		12	59.0	2.5	/experiments/Knapen_AOT/AOT_stimuli/rescaled_final/1831_rv.mp4	0.0	285.74909257888794	0.10000228881835938
62	268.22339034080505	fix_pre	0		119	60.0	2.5	/experiments/Knapen_AOT/AOT_stimuli/rescaled_final/0290_fw.mp4	0.0	285.8490948677063	1.0002751350402832
62	269.20717430114746	pulse	0	t		60.0	2.5	/experiments/Knapen_AOT/AOT_stimuli/rescaled_final/0290_fw.mp4	0.0	286.8328788280487	
62	269.22366547584534	movie	1		291	60.0	2.5	/experiments/Knapen_AOT/AOT_stimuli/rescaled_final/0290_fw.mp4	0.0	286.8493700027466	2.50032114982605
62	270.8065650463104	pulse	1	t		60.0	2.5	/experiments/Knapen_AOT/AOT_stimuli/rescaled_final/0290_fw.mp4	0.0	288.43226957321167	
62	271.7239866256714	fix_post	2		12	60.0	2.5	/experiments/Knapen_AOT/AOT_stimuli/rescaled_final/0290_fw.mp4	0.0	289.34969115257263	0.09996771812438965
63	271.8239543437958	fix_pre	0		120	61.0	2.5	/experiments/Knapen_AOT/AOT_stimuli/rescaled_final/0655_rv.mp4	0.0	289.449658870697	1.0001237392425537
63	272.40762305259705	pulse	0	t		61.0	2.5	/experiments/Knapen_AOT/AOT_stimuli/rescaled_final/0655_rv.mp4	0.0	290.0333275794983	
63	272.82407808303833	movie	1		297	61.0	2.5	/experiments/Knapen_AOT/AOT_stimuli/rescaled_final/0655_rv.mp4	0.0	290.4497826099396	2.5003790855407715
63	274.00519466400146	pulse	1	t		61.0	2.5	/experiments/Knapen_AOT/AOT_stimuli/rescaled_final/0655_rv.mp4	0.0	291.6308991909027	
63	275.3244571685791	fix_post	2		12	61.0	2.5	/experiments/Knapen_AOT/AOT_stimuli/rescaled_final/0655_rv.mp4	0.0	292.95016169548035	0.10003852844238281
64	275.4244956970215	fix_pre	0		120	62.0	2.5	/experiments/Knapen_AOT/AOT_stimuli/rescaled_final/1204_rv.mp4	0.0	293.05020022392273	1.008528709411621
64	275.60796785354614	pulse	0	t		62.0	2.5	/experiments/Knapen_AOT/AOT_stimuli/rescaled_final/1204_rv.mp4	0.0	293.2336723804474	
64	276.4330244064331	movie	1		280	62.0	2.5	/experiments/Knapen_AOT/AOT_stimuli/rescaled_final/1204_rv.mp4	0.0	294.05872893333435	2.4920566082000732
64	277.20691299438477	pulse	1	t		62.0	2.5	/experiments/Knapen_AOT/AOT_stimuli/rescaled_final/1204_rv.mp4	0.0	294.832617521286	
64	278.8089921474457	pulse	1	t		62.0	2.5	/experiments/Knapen_AOT/AOT_stimuli/rescaled_final/1204_rv.mp4	0.0	296.4346966743469	
64	278.9250810146332	fix_post	2		12	62.0	2.5	/experiments/Knapen_AOT/AOT_stimuli/rescaled_final/1204_rv.mp4	0.0	296.5507855415344	0.0999910831451416
65	279.0250720977783	fix_pre	0		120	63.0	2.5	blank	1.0	296.65077662467957	1.0001685619354248
65	280.02524065971375	movie	1		300	63.0	2.5	blank	1.0	297.650945186615	2.5003716945648193
65	280.408837556839	pulse	1	t		63.0	2.5	blank	1.0	298.03454208374023	
65	282.00901556015015	pulse	1	t		63.0	2.5	blank	1.0	299.6347200870514	
65	282.52561235427856	fix_post	2		12	63.0	2.5	blank	1.0	300.1513168811798	0.1000370979309082
66	282.6256494522095	fix_pre	0		119	64.0	2.5	/experiments/Knapen_AOT/AOT_stimuli/rescaled_final/1069_fw.mp4	0.0	300.2513539791107	1.000427484512329
66	283.6094744205475	pulse	0	t		64.0	2.5	/experiments/Knapen_AOT/AOT_stimuli/rescaled_final/1069_fw.mp4	0.0	301.23517894744873	
66	283.6260769367218	movie	1		292	64.0	2.5	/experiments/Knapen_AOT/AOT_stimuli/rescaled_final/1069_fw.mp4	0.0	301.25178146362305	2.5000643730163574
66	285.2080190181732	pulse	1	t		64.0	2.5	/experiments/Knapen_AOT/AOT_stimuli/rescaled_final/1069_fw.mp4	0.0	302.83372354507446	
66	286.12614130973816	fix_post	2		12	64.0	2.5	/experiments/Knapen_AOT/AOT_stimuli/rescaled_final/1069_fw.mp4	0.0	303.7518458366394	0.10007286071777344
67	286.22621417045593	fix_pre	0		120	65.0	2.5	/experiments/Knapen_AOT/AOT_stimuli/rescaled_final/1533_rv.mp4	0.0	303.8519186973572	1.0084362030029297
67	286.80995535850525	pulse	0	t		65.0	2.5	/experiments/Knapen_AOT/AOT_stimuli/rescaled_final/1533_rv.mp4	0.0	304.4356598854065	
67	287.23465037345886	movie	1		278	65.0	2.5	/experiments/Knapen_AOT/AOT_stimuli/rescaled_final/1533_rv.mp4	0.0	304.8603549003601	2.4920268058776855
67	288.4084551334381	pulse	1	t		65.0	2.5	/experiments/Knapen_AOT/AOT_stimuli/rescaled_final/1533_rv.mp4	0.0	306.03415966033936	
67	289.72667717933655	fix_post	2		12	65.0	2.5	/experiments/Knapen_AOT/AOT_stimuli/rescaled_final/1533_rv.mp4	0.0	307.3523817062378	0.10001540184020996
68	289.82669258117676	fix_pre	0		120	66.0	2.5	/experiments/Knapen_AOT/AOT_stimuli/rescaled_final/2111_rv.mp4	0.0	307.452397108078	1.0085036754608154
68	290.0102868080139	pulse	0	t		66.0	2.5	/experiments/Knapen_AOT/AOT_stimuli/rescaled_final/2111_rv.mp4	0.0	307.63599133491516	
68	290.8351962566376	movie	1		288	66.0	2.5	/experiments/Knapen_AOT/AOT_stimuli/rescaled_final/2111_rv.mp4	0.0	308.4609007835388	2.4920401573181152
68	291.6086039543152	pulse	1	t		66.0	2.5	/experiments/Knapen_AOT/AOT_stimuli/rescaled_final/2111_rv.mp4	0.0	309.23430848121643	
68	293.2088885307312	pulse	1	t		66.0	2.5	/experiments/Knapen_AOT/AOT_stimuli/rescaled_final/2111_rv.mp4	0.0	310.83459305763245	
68	293.3272364139557	fix_post	2		12	66.0	2.5	/experiments/Knapen_AOT/AOT_stimuli/rescaled_final/2111_rv.mp4	0.0	310.95294094085693	0.09999227523803711
69	293.4272286891937	fix_pre	0		120	67.0	2.5	/experiments/Knapen_AOT/AOT_stimuli/rescaled_final/0163_fw.mp4	0.0	311.05293321609497	1.0084898471832275
69	294.43571853637695	movie	1		274	67.0	2.5	/experiments/Knapen_AOT/AOT_stimuli/rescaled_final/0163_fw.mp4	0.0	312.0614230632782	2.4920294284820557
69	294.8096442222595	pulse	1	t		67.0	2.5	/experiments/Knapen_AOT/AOT_stimuli/rescaled_final/0163_fw.mp4	0.0	312.43534874916077	
69	296.4094994068146	pulse	1	t		67.0	2.5	/experiments/Knapen_AOT/AOT_stimuli/rescaled_final/0163_fw.mp4	0.0	314.0352039337158	
69	296.927747964859	fix_post	2		12	67.0	2.5	/experiments/Knapen_AOT/AOT_stimuli/rescaled_final/0163_fw.mp4	0.0	314.55345249176025	0.10006380081176758
70	297.0278117656708	fix_pre	0		119	68.0	2.5	/experiments/Knapen_AOT/AOT_stimuli/rescaled_final/1440_fw.mp4	0.0	314.653516292572	1.000211477279663
70	298.0114996433258	pulse	0	t		68.0	2.5	/experiments/Knapen_AOT/AOT_stimuli/rescaled_final/1440_fw.mp4	0.0	315.63720417022705	
70	298.02802324295044	movie	1		282	68.0	2.5	/experiments/Knapen_AOT/AOT_stimuli/rescaled_final/1440_fw.mp4	0.0	315.6537277698517	2.5002739429473877
70	299.6102375984192	pulse	1	t		68.0	2.5	/experiments/Knapen_AOT/AOT_stimuli/rescaled_final/1440_fw.mp4	0.0	317.23594212532043	
70	300.5282971858978	fix_post	2		12	68.0	2.5	/experiments/Knapen_AOT/AOT_stimuli/rescaled_final/1440_fw.mp4	0.0	318.1540017127991	0.10001564025878906
71	300.6283128261566	fix_pre	0		120	69.0	2.5	/experiments/Knapen_AOT/AOT_stimuli/rescaled_final/0376_fw.mp4	0.0	318.25401735305786	1.0084960460662842
71	301.2120108604431	pulse	0	t		69.0	2.5	/experiments/Knapen_AOT/AOT_stimuli/rescaled_final/0376_fw.mp4	0.0	318.83771538734436	
71	301.6368088722229	movie	1		272	69.0	2.5	/experiments/Knapen_AOT/AOT_stimuli/rescaled_final/0376_fw.mp4	0.0	319.26251339912415	2.4920265674591064
71	302.8115746974945	pulse	1	t		69.0	2.5	/experiments/Knapen_AOT/AOT_stimuli/rescaled_final/0376_fw.mp4	0.0	320.43727922439575	
71	304.128835439682	fix_post	2		12	69.0	2.5	/experiments/Knapen_AOT/AOT_stimuli/rescaled_final/0376_fw.mp4	0.0	321.75453996658325	0.10005331039428711
72	304.2288887500763	fix_pre	0		120	70.0	2.5	blank	1.0	321.85459327697754	1.0001113414764404
72	304.40440583229065	pulse	0	t		70.0	2.5	blank	1.0	322.0301103591919	
72	305.22900009155273	movie	1		300	70.0	2.5	blank	1.0	322.854704618454	2.5005178451538086
72	306.00439858436584	pulse	1	t		70.0	2.5	blank	1.0	323.6301031112671	
72	307.6046607494354	pulse	1	t		70.0	2.5	blank	1.0	325.23036527633667	
72	307.72951793670654	fix_post	2		12	70.0	2.5	blank	1.0	325.3552224636078	0.09988570213317871
73	307.8294036388397	fix_pre	0		120	71.0	2.5	/experiments/Knapen_AOT/AOT_stimuli/rescaled_final/1405_rv.mp4	0.0	325.45510816574097	1.0085031986236572
73	308.8379068374634	movie	1		279	71.0	2.5	/experiments/Knapen_AOT/AOT_stimuli/rescaled_final/1405_rv.mp4	0.0	326.4636113643646	2.4920613765716553
73	309.2049207687378	pulse	1	t		71.0	2.5	/experiments/Knapen_AOT/AOT_stimuli/rescaled_final/1405_rv.mp4	0.0	326.83062529563904	
73	310.8050503730774	pulse	1	t		71.0	2.5	/experiments/Knapen_AOT/AOT_stimuli/rescaled_final/1405_rv.mp4	0.0	328.43075489997864	
73	311.32996821403503	fix_post	2		12	71.0	2.5	/experiments/Knapen_AOT/AOT_stimuli/rescaled_final/1405_rv.mp4	0.0	328.9556727409363	0.0999915599822998
74	311.42995977401733	fix_pre	0		118	72.0	2.5	/experiments/Knapen_AOT/AOT_stimuli/rescaled_final/1766_fw.mp4	0.0	329.0556643009186	0.9918410778045654
74	312.4054169654846	pulse	0	t		72.0	2.5	/experiments/Knapen_AOT/AOT_stimuli/rescaled_final/1766_fw.mp4	0.0	330.03112149238586	
74	312.4218008518219	movie	1		278	72.0	2.5	/experiments/Knapen_AOT/AOT_stimuli/rescaled_final/1766_fw.mp4	0.0	330.04750537872314	2.500337839126587
74	314.00537180900574	pulse	1	t		72.0	2.5	/experiments/Knapen_AOT/AOT_stimuli/rescaled_final/1766_fw.mp4	0.0	331.631076335907	
74	314.9221386909485	fix_post	2		12	72.0	2.5	/experiments/Knapen_AOT/AOT_stimuli/rescaled_final/1766_fw.mp4	0.0	332.54784321784973	0.10000467300415039
75	315.02214336395264	fix_pre	0		120	73.0	2.5	/experiments/Knapen_AOT/AOT_stimuli/rescaled_final/0496_fw.mp4	0.0	332.6478478908539	1.008514404296875
75	315.6059203147888	pulse	0	t		73.0	2.5	/experiments/Knapen_AOT/AOT_stimuli/rescaled_final/0496_fw.mp4	0.0	333.23162484169006	
75	316.0306577682495	movie	1		277	73.0	2.5	/experiments/Knapen_AOT/AOT_stimuli/rescaled_final/0496_fw.mp4	0.0	333.65636229515076	2.4920036792755127
75	317.2061116695404	pulse	1	t		73.0	2.5	/experiments/Knapen_AOT/AOT_stimuli/rescaled_final/0496_fw.mp4	0.0	334.83181619644165	
75	318.522661447525	fix_post	2		12	73.0	2.5	/experiments/Knapen_AOT/AOT_stimuli/rescaled_final/0496_fw.mp4	0.0	336.14836597442627	0.10014557838439941
76	318.6228070259094	fix_pre	0		120	74.0	2.5	/experiments/Knapen_AOT/AOT_stimuli/rescaled_final/1431_rv.mp4	0.0	336.24851155281067	1.0083792209625244
76	318.80629801750183	pulse	0	t		74.0	2.5	/experiments/Knapen_AOT/AOT_stimuli/rescaled_final/1431_rv.mp4	0.0	336.4320025444031	
76	319.63118624687195	movie	1		282	74.0	2.5	/experiments/Knapen_AOT/AOT_stimuli/rescaled_final/1431_rv.mp4	0.0	337.2568907737732	2.492004632949829
76	320.40464091300964	pulse	1	t		74.0	2.5	/experiments/Knapen_AOT/AOT_stimuli/rescaled_final/1431_rv.mp4	0.0	338.0303454399109	
76	322.00508975982666	pulse	1	t		74.0	2.5	/experiments/Knapen_AOT/AOT_stimuli/rescaled_final/1431_rv.mp4	0.0	339.6307942867279	
76	322.1231908798218	fix_post	2		12	74.0	2.5	/experiments/Knapen_AOT/AOT_stimuli/rescaled_final/1431_rv.mp4	0.0	339.748895406723	0.10003900527954102
77	322.2232298851013	fix_pre	0		120	75.0	2.5	/experiments/Knapen_AOT/AOT_stimuli/rescaled_final/0597_rv.mp4	0.0	339.84893441200256	1.0085713863372803
77	323.2318012714386	movie	1		281	75.0	2.5	/experiments/Knapen_AOT/AOT_stimuli/rescaled_final/0597_rv.mp4	0.0	340.85750579833984	2.4919445514678955
77	323.60760617256165	pulse	1	t		75.0	2.5	/experiments/Knapen_AOT/AOT_stimuli/rescaled_final/0597_rv.mp4	0.0	341.2333106994629	
77	325.20586013793945	pulse	1	t		75.0	2.5	/experiments/Knapen_AOT/AOT_stimuli/rescaled_final/0597_rv.mp4	0.0	342.8315646648407	
77	325.7237458229065	fix_post	2		12	75.0	2.5	/experiments/Knapen_AOT/AOT_stimuli/rescaled_final/0597_rv.mp4	0.0	343.34945034980774	0.10003423690795898
78	325.82378005981445	fix_pre	0		119	76.0	2.5	blank	1.0	343.4494845867157	0.9917609691619873
78	326.8074917793274	pulse	0	t		76.0	2.5	blank	1.0	344.43319630622864	
78	326.81554102897644	movie	1		301	76.0	2.5	blank	1.0	344.4412455558777	2.5087647438049316
78	328.407705783844	pulse	1	t		76.0	2.5	blank	1.0	346.03341031074524	
78	329.3243057727814	fix_post	2		12	76.0	2.5	blank	1.0	346.9500102996826	0.10000443458557129
79	329.42431020736694	fix_pre	0		120	77.0	2.5	/experiments/Knapen_AOT/AOT_stimuli/rescaled_final/1081_rv.mp4	0.0	347.0500147342682	1.0084738731384277
79	330.0079810619354	pulse	0	t		77.0	2.5	/experiments/Knapen_AOT/AOT_stimuli/rescaled_final/1081_rv.mp4	0.0	347.63368558883667	
79	330.43278408050537	movie	1		272	77.0	2.5	/experiments/Knapen_AOT/AOT_stimuli/rescaled_final/1081_rv.mp4	0.0	348.0584886074066	2.4920413494110107
79	331.60627031326294	pulse	1	t		77.0	2.5	/experiments/Knapen_AOT/AOT_stimuli/rescaled_final/1081_rv.mp4	0.0	349.2319748401642	
79	332.9248254299164	fix_post	2		12	77.0	2.5	/experiments/Knapen_AOT/AOT_stimuli/rescaled_final/1081_rv.mp4	0.0	350.5505299568176	0.1000361442565918
80	333.024861574173	fix_pre	0		119	78.0	2.5	/experiments/Knapen_AOT/AOT_stimuli/rescaled_final/1465_fw.mp4	0.0	350.6505661010742	1.0085976123809814
80	333.20847821235657	pulse	0	t		78.0	2.5	/experiments/Knapen_AOT/AOT_stimuli/rescaled_final/1465_fw.mp4	0.0	350.8341827392578	
80	334.03345918655396	movie	1		270	78.0	2.5	/experiments/Knapen_AOT/AOT_stimuli/rescaled_final/1465_fw.mp4	0.0	351.6591637134552	2.491926670074463
80	334.8067207336426	pulse	1	t		78.0	2.5	/experiments/Knapen_AOT/AOT_stimuli/rescaled_final/1465_fw.mp4	0.0	352.4324252605438	
80	336.40701127052307	pulse	1	t		78.0	2.5	/experiments/Knapen_AOT/AOT_stimuli/rescaled_final/1465_fw.mp4	0.0	354.0327157974243	
80	336.5253858566284	fix_post	2		12	78.0	2.5	/experiments/Knapen_AOT/AOT_stimuli/rescaled_final/1465_fw.mp4	0.0	354.15109038352966	0.10001254081726074
81	336.6253983974457	fix_pre	0		120	79.0	2.5	/experiments/Knapen_AOT/AOT_stimuli/rescaled_final/1472_rv.mp4	0.0	354.2511029243469	1.0084834098815918
81	337.63388180732727	movie	1		261	79.0	2.5	/experiments/Knapen_AOT/AOT_stimuli/rescaled_final/1472_rv.mp4	0.0	355.2595863342285	2.4920477867126465
81	338.00751781463623	pulse	1	t		79.0	2.5	/experiments/Knapen_AOT/AOT_stimuli/rescaled_final/1472_rv.mp4	0.0	355.6332223415375	
81	339.60764479637146	pulse	1	t		79.0	2.5	/experiments/Knapen_AOT/AOT_stimuli/rescaled_final/1472_rv.mp4	0.0	357.2333493232727	
81	340.1259295940399	fix_post	2		12	79.0	2.5	/experiments/Knapen_AOT/AOT_stimuli/rescaled_final/1472_rv.mp4	0.0	357.75163412094116	0.10003399848937988
82	340.2259635925293	fix_pre	0		119	80.0	2.5	/experiments/Knapen_AOT/AOT_stimuli/rescaled_final/0104_fw.mp4	0.0	357.85166811943054	1.0085642337799072
82	341.2096297740936	pulse	0	t		80.0	2.5	/experiments/Knapen_AOT/AOT_stimuli/rescaled_final/0104_fw.mp4	0.0	358.8353343009949	
82	341.2345278263092	movie	1		284	80.0	2.5	/experiments/Knapen_AOT/AOT_stimuli/rescaled_final/0104_fw.mp4	0.0	358.86023235321045	2.4919307231903076
82	342.80846309661865	pulse	1	t		80.0	2.5	/experiments/Knapen_AOT/AOT_stimuli/rescaled_final/0104_fw.mp4	0.0	360.4341676235199	
82	343.7264585494995	fix_post	2		12	80.0	2.5	/experiments/Knapen_AOT/AOT_stimuli/rescaled_final/0104_fw.mp4	0.0	361.35216307640076	0.10003900527954102
83	343.82649755477905	fix_pre	0		120	81.0	2.5	/experiments/Knapen_AOT/AOT_stimuli/rescaled_final/0006_rv.mp4	0.0	361.4522020816803	1.0084991455078125
83	344.4101712703705	pulse	0	t		81.0	2.5	/experiments/Knapen_AOT/AOT_stimuli/rescaled_final/0006_rv.mp4	0.0	362.03587579727173	
83	344.83499670028687	movie	1		282	81.0	2.5	/experiments/Knapen_AOT/AOT_stimuli/rescaled_final/0006_rv.mp4	0.0	362.4607012271881	2.492109537124634
83	346.00840616226196	pulse	1	t		81.0	2.5	/experiments/Knapen_AOT/AOT_stimuli/rescaled_final/0006_rv.mp4	0.0	363.6341106891632	
83	347.3271062374115	fix_post	2		12	81.0	2.5	/experiments/Knapen_AOT/AOT_stimuli/rescaled_final/0006_rv.mp4	0.0	364.95281076431274	0.09991621971130371
84	347.4270224571228	fix_pre	0		120	82.0	2.5	/experiments/Knapen_AOT/AOT_stimuli/rescaled_final/0027_fw.mp4	0.0	365.05272698402405	1.0085234642028809
84	347.6052942276001	pulse	0	t		82.0	2.5	/experiments/Knapen_AOT/AOT_stimuli/rescaled_final/0027_fw.mp4	0.0	365.23099875450134	
84	348.4355459213257	movie	1		271	82.0	2.5	/experiments/Knapen_AOT/AOT_stimuli/rescaled_final/0027_fw.mp4	0.0	366.06125044822693	2.500432252883911
84	349.2093951702118	pulse	1	t		82.0	2.5	/experiments/Knapen_AOT/AOT_stimuli/rescaled_final/0027_fw.mp4	0.0	366.83509969711304	
84	350.81060242652893	pulse	1	t		82.0	2.5	/experiments/Knapen_AOT/AOT_stimuli/rescaled_final/0027_fw.mp4	0.0	368.4363069534302	
84	350.9359781742096	fix_post	2		11	82.0	2.5	/experiments/Knapen_AOT/AOT_stimuli/rescaled_final/0027_fw.mp4	0.0	368.56168270111084	0.09155392646789551
85	351.0275321006775	fix_pre	0		120	83.0	2.5	blank	1.0	368.65323662757874	1.000227689743042
85	352.02775979042053	movie	1		300	83.0	2.5	blank	1.0	369.6534643173218	2.500307083129883
85	352.41127347946167	pulse	1	t		83.0	2.5	blank	1.0	370.0369780063629	
85	354.0117082595825	pulse	1	t		83.0	2.5	blank	1.0	371.63741278648376	
85	354.5280668735504	fix_post	2		12	83.0	2.5	blank	1.0	372.15377140045166	0.10848355293273926
87	354.63655042648315	stim	0		1715					372.2622549533844	14.293744087219238
87	355.6119017601013	pulse	0	t						373.23760628700256	
87	357.21248960494995	pulse	0	t						374.8381941318512	
87	358.81292939186096	pulse	0	t						376.4386339187622	
87	360.4128940105438	pulse	0	t						378.03859853744507	
87	362.00510597229004	pulse	0	t						379.6308104991913	
87	363.60507130622864	pulse	0	t						381.2307758331299	
87	365.2052400112152	pulse	0	t						382.83094453811646	
87	366.8055362701416	pulse	0	t						384.43124079704285	
87	368.40601086616516	pulse	0	t						386.0317153930664	
