trial_nr	onset	event_type	phase	response	nr_frames	movie_index	movie_duration	movie_file	blank	onset_abs	duration
0	0.1581876277923584	stim	0		5					17.421988487243652	0.0415647029876709
0	0.1917283535003662	response	0	space						17.45552921295166	
1	0.1997523307800293	stim	0		4916					17.463553190231323	40.983906507492065
1	41.173383712768555	pulse	0	t						58.43718457221985	
1	41.183658838272095	stim	1		1714					58.44745969772339	14.299469709396362
1	42.76472449302673	pulse	1	t						60.02852535247803	
1	44.36509108543396	pulse	1	t						61.628891944885254	
1	45.965229988098145	pulse	1	t						63.22903084754944	
1	47.565428733825684	pulse	1	t						64.82922959327698	
1	49.165653228759766	pulse	1	t						66.42945408821106	
1	50.76592707633972	pulse	1	t						68.02972793579102	
1	52.36610436439514	pulse	1	t						69.62990522384644	
1	53.96642446517944	pulse	1	t						71.23022532463074	
2	55.48312854766846	fix_pre	0		11	0.0	2.5	/experiments/Knapen_AOT/AOT_stimuli/rescaled_final/2153_rv.mp4	0.0	72.74692940711975	0.10837364196777344
2	55.566701889038086	pulse	0	t		0.0	2.5	/experiments/Knapen_AOT/AOT_stimuli/rescaled_final/2153_rv.mp4	0.0	72.83050274848938	
2	55.59150218963623	movie	1		288	0.0	2.5	/experiments/Knapen_AOT/AOT_stimuli/rescaled_final/2153_rv.mp4	0.0	72.85530304908752	2.491976499557495
2	57.16509389877319	pulse	1	t		0.0	2.5	/experiments/Knapen_AOT/AOT_stimuli/rescaled_final/2153_rv.mp4	0.0	74.42889475822449	
2	58.083478689193726	fix_post	2		12	0.0	2.5	/experiments/Knapen_AOT/AOT_stimuli/rescaled_final/2153_rv.mp4	0.0	75.34727954864502	0.10004281997680664
3	58.18352150917053	fix_pre	0		120	1.0	2.5	/experiments/Knapen_AOT/AOT_stimuli/rescaled_final/2170_fw.mp4	0.0	75.44732236862183	1.0084993839263916
3	58.767247676849365	pulse	0	t		1.0	2.5	/experiments/Knapen_AOT/AOT_stimuli/rescaled_final/2170_fw.mp4	0.0	76.03104853630066	
3	59.192020893096924	movie	1		280	1.0	2.5	/experiments/Knapen_AOT/AOT_stimuli/rescaled_final/2170_fw.mp4	0.0	76.45582175254822	2.492058753967285
3	60.36564922332764	pulse	1	t		1.0	2.5	/experiments/Knapen_AOT/AOT_stimuli/rescaled_final/2170_fw.mp4	0.0	77.62945008277893	
3	61.68407964706421	fix_post	2		12	1.0	2.5	/experiments/Knapen_AOT/AOT_stimuli/rescaled_final/2170_fw.mp4	0.0	78.9478805065155	0.10000157356262207
4	61.78408122062683	fix_pre	0		120	2.0	2.5	/experiments/Knapen_AOT/AOT_stimuli/rescaled_final/0277_rv.mp4	0.0	79.04788208007812	1.0084717273712158
4	61.9676399230957	pulse	0	t		2.0	2.5	/experiments/Knapen_AOT/AOT_stimuli/rescaled_final/0277_rv.mp4	0.0	79.231440782547	
4	62.79255294799805	movie	1		291	2.0	2.5	/experiments/Knapen_AOT/AOT_stimuli/rescaled_final/0277_rv.mp4	0.0	80.05635380744934	2.492013931274414
4	63.56617021560669	pulse	1	t		2.0	2.5	/experiments/Knapen_AOT/AOT_stimuli/rescaled_final/0277_rv.mp4	0.0	80.82997107505798	
4	65.16622424125671	pulse	1	t		2.0	2.5	/experiments/Knapen_AOT/AOT_stimuli/rescaled_final/0277_rv.mp4	0.0	82.43002510070801	
4	65.28456687927246	fix_post	2		12	2.0	2.5	/experiments/Knapen_AOT/AOT_stimuli/rescaled_final/0277_rv.mp4	0.0	82.54836773872375	0.10008049011230469
5	65.38464736938477	fix_pre	0		120	3.0	2.5	/experiments/Knapen_AOT/AOT_stimuli/rescaled_final/0203_fw.mp4	0.0	82.64844822883606	1.0084757804870605
5	66.39312314987183	movie	1		285	3.0	2.5	/experiments/Knapen_AOT/AOT_stimuli/rescaled_final/0203_fw.mp4	0.0	83.65692400932312	2.4919755458831787
5	66.76675605773926	pulse	1	t		3.0	2.5	/experiments/Knapen_AOT/AOT_stimuli/rescaled_final/0203_fw.mp4	0.0	84.03055691719055	
5	68.36657619476318	pulse	1	t		3.0	2.5	/experiments/Knapen_AOT/AOT_stimuli/rescaled_final/0203_fw.mp4	0.0	85.63037705421448	
5	68.885098695755	fix_post	2		12	3.0	2.5	/experiments/Knapen_AOT/AOT_stimuli/rescaled_final/0203_fw.mp4	0.0	86.1488995552063	0.10009074211120605
6	68.98518943786621	fix_pre	0		119	4.0	2.5	/experiments/Knapen_AOT/AOT_stimuli/rescaled_final/1581_rv.mp4	0.0	86.2489902973175	1.0001943111419678
6	69.96889400482178	pulse	0	t		4.0	2.5	/experiments/Knapen_AOT/AOT_stimuli/rescaled_final/1581_rv.mp4	0.0	87.23269486427307	
6	69.98538374900818	movie	1		286	4.0	2.5	/experiments/Knapen_AOT/AOT_stimuli/rescaled_final/1581_rv.mp4	0.0	87.24918460845947	2.500269889831543
6	71.56740403175354	pulse	1	t		4.0	2.5	/experiments/Knapen_AOT/AOT_stimuli/rescaled_final/1581_rv.mp4	0.0	88.83120489120483	
6	72.48565363883972	fix_post	2		12	4.0	2.5	/experiments/Knapen_AOT/AOT_stimuli/rescaled_final/1581_rv.mp4	0.0	89.74945449829102	0.10010528564453125
7	72.58575892448425	fix_pre	0		120	5.0	2.5	/experiments/Knapen_AOT/AOT_stimuli/rescaled_final/0772_rv.mp4	0.0	89.84955978393555	1.0084528923034668
7	73.1695294380188	pulse	0	t		5.0	2.5	/experiments/Knapen_AOT/AOT_stimuli/rescaled_final/0772_rv.mp4	0.0	90.43333029747009	
7	73.59421181678772	movie	1		292	5.0	2.5	/experiments/Knapen_AOT/AOT_stimuli/rescaled_final/0772_rv.mp4	0.0	90.85801267623901	2.491997480392456
7	74.76798868179321	pulse	1	t		5.0	2.5	/experiments/Knapen_AOT/AOT_stimuli/rescaled_final/0772_rv.mp4	0.0	92.0317895412445	
7	76.08620929718018	fix_post	2		12	5.0	2.5	/experiments/Knapen_AOT/AOT_stimuli/rescaled_final/0772_rv.mp4	0.0	93.35001015663147	0.10021376609802246
8	76.1864230632782	fix_pre	0		120	6.0	2.5	blank	1.0	93.45022392272949	0.9999818801879883
8	76.36995434761047	pulse	0	t		6.0	2.5	blank	1.0	93.63375520706177	
8	77.18640494346619	movie	1		300	6.0	2.5	blank	1.0	94.45020580291748	2.500436305999756
8	77.97004175186157	pulse	1	t		6.0	2.5	blank	1.0	95.23384261131287	
8	79.57025480270386	pulse	1	t		6.0	2.5	blank	1.0	96.83405566215515	
8	79.68684124946594	fix_post	2		12	6.0	2.5	blank	1.0	96.95064210891724	0.09994912147521973
9	79.78679037094116	fix_pre	0		120	7.0	2.5	/experiments/Knapen_AOT/AOT_stimuli/rescaled_final/1271_fw.mp4	0.0	97.05059123039246	1.0084946155548096
9	80.79528498649597	movie	1		291	7.0	2.5	/experiments/Knapen_AOT/AOT_stimuli/rescaled_final/1271_fw.mp4	0.0	98.05908584594727	2.4920053482055664
9	81.16896390914917	pulse	1	t		7.0	2.5	/experiments/Knapen_AOT/AOT_stimuli/rescaled_final/1271_fw.mp4	0.0	98.43276476860046	
9	82.76260375976562	pulse	1	t		7.0	2.5	/experiments/Knapen_AOT/AOT_stimuli/rescaled_final/1271_fw.mp4	0.0	100.02640461921692	
9	83.28729033470154	fix_post	2		12	7.0	2.5	/experiments/Knapen_AOT/AOT_stimuli/rescaled_final/1271_fw.mp4	0.0	100.55109119415283	0.10006117820739746
10	83.38735151290894	fix_pre	0		118	8.0	2.5	/experiments/Knapen_AOT/AOT_stimuli/rescaled_final/0668_fw.mp4	0.0	100.65115237236023	0.9917492866516113
10	84.36283850669861	pulse	0	t		8.0	2.5	/experiments/Knapen_AOT/AOT_stimuli/rescaled_final/0668_fw.mp4	0.0	101.6266393661499	
10	84.37910079956055	movie	1		291	8.0	2.5	/experiments/Knapen_AOT/AOT_stimuli/rescaled_final/0668_fw.mp4	0.0	101.64290165901184	2.500385284423828
10	85.96329426765442	pulse	1	t		8.0	2.5	/experiments/Knapen_AOT/AOT_stimuli/rescaled_final/0668_fw.mp4	0.0	103.22709512710571	
10	86.87948608398438	fix_post	2		12	8.0	2.5	/experiments/Knapen_AOT/AOT_stimuli/rescaled_final/0668_fw.mp4	0.0	104.14328694343567	0.10004210472106934
11	86.97952818870544	fix_pre	0		120	9.0	2.5	/experiments/Knapen_AOT/AOT_stimuli/rescaled_final/0809_rv.mp4	0.0	104.24332904815674	1.0084943771362305
11	87.56330871582031	pulse	0	t		9.0	2.5	/experiments/Knapen_AOT/AOT_stimuli/rescaled_final/0809_rv.mp4	0.0	104.8271095752716	
11	87.98802256584167	movie	1		280	9.0	2.5	/experiments/Knapen_AOT/AOT_stimuli/rescaled_final/0809_rv.mp4	0.0	105.25182342529297	2.4920237064361572
11	89.16342067718506	pulse	1	t		9.0	2.5	/experiments/Knapen_AOT/AOT_stimuli/rescaled_final/0809_rv.mp4	0.0	106.42722153663635	
11	90.48004627227783	fix_post	2		12	9.0	2.5	/experiments/Knapen_AOT/AOT_stimuli/rescaled_final/0809_rv.mp4	0.0	107.74384713172913	0.10004901885986328
12	90.5800952911377	fix_pre	0		120	10.0	2.5	/experiments/Knapen_AOT/AOT_stimuli/rescaled_final/0727_rv.mp4	0.0	107.84389615058899	1.0084712505340576
12	90.76376843452454	pulse	0	t		10.0	2.5	/experiments/Knapen_AOT/AOT_stimuli/rescaled_final/0727_rv.mp4	0.0	108.02756929397583	
12	91.58856654167175	movie	1		291	10.0	2.5	/experiments/Knapen_AOT/AOT_stimuli/rescaled_final/0727_rv.mp4	0.0	108.85236740112305	2.4921085834503174
12	92.36385798454285	pulse	1	t		10.0	2.5	/experiments/Knapen_AOT/AOT_stimuli/rescaled_final/0727_rv.mp4	0.0	109.62765884399414	
12	93.96409726142883	pulse	1	t		10.0	2.5	/experiments/Knapen_AOT/AOT_stimuli/rescaled_final/0727_rv.mp4	0.0	111.22789812088013	
12	94.08067512512207	fix_post	2		12	10.0	2.5	/experiments/Knapen_AOT/AOT_stimuli/rescaled_final/0727_rv.mp4	0.0	111.34447598457336	0.10001587867736816
13	94.18069100379944	fix_pre	0		120	11.0	2.5	/experiments/Knapen_AOT/AOT_stimuli/rescaled_final/0627_rv.mp4	0.0	111.44449186325073	1.0083973407745361
13	95.18908834457397	movie	1		284	11.0	2.5	/experiments/Knapen_AOT/AOT_stimuli/rescaled_final/0627_rv.mp4	0.0	112.45288920402527	2.492135524749756
13	95.56269884109497	pulse	1	t		11.0	2.5	/experiments/Knapen_AOT/AOT_stimuli/rescaled_final/0627_rv.mp4	0.0	112.82649970054626	
13	97.16268706321716	pulse	1	t		11.0	2.5	/experiments/Knapen_AOT/AOT_stimuli/rescaled_final/0627_rv.mp4	0.0	114.42648792266846	
13	97.68122386932373	fix_post	2		12	11.0	2.5	/experiments/Knapen_AOT/AOT_stimuli/rescaled_final/0627_rv.mp4	0.0	114.94502472877502	0.09996962547302246
14	97.78119349479675	fix_pre	0		119	12.0	2.5	blank	1.0	115.04499435424805	0.991774320602417
14	98.76492047309875	pulse	0	t		12.0	2.5	blank	1.0	116.02872133255005	
14	98.77296781539917	movie	1		301	12.0	2.5	blank	1.0	116.03676867485046	2.508729934692383
14	100.36512112617493	pulse	1	t		12.0	2.5	blank	1.0	117.62892198562622	
14	101.28169775009155	fix_post	2		12	12.0	2.5	blank	1.0	118.54549860954285	0.1000983715057373
15	101.38179612159729	fix_pre	0		120	13.0	2.5	/experiments/Knapen_AOT/AOT_stimuli/rescaled_final/0955_fw.mp4	0.0	118.64559698104858	1.0083847045898438
15	101.96537613868713	pulse	0	t		13.0	2.5	/experiments/Knapen_AOT/AOT_stimuli/rescaled_final/0955_fw.mp4	0.0	119.22917699813843	
15	102.39018082618713	movie	1		266	13.0	2.5	/experiments/Knapen_AOT/AOT_stimuli/rescaled_final/0955_fw.mp4	0.0	119.65398168563843	2.4920217990875244
15	103.56402564048767	pulse	1	t		13.0	2.5	/experiments/Knapen_AOT/AOT_stimuli/rescaled_final/0955_fw.mp4	0.0	120.82782649993896	
15	104.88220262527466	fix_post	2		12	13.0	2.5	/experiments/Knapen_AOT/AOT_stimuli/rescaled_final/0955_fw.mp4	0.0	122.14600348472595	0.10001897811889648
16	104.98222160339355	fix_pre	0		120	14.0	2.5	/experiments/Knapen_AOT/AOT_stimuli/rescaled_final/0627_rv.mp4	0.0	122.24602246284485	1.0085866451263428
16	105.16585063934326	pulse	0	t		14.0	2.5	/experiments/Knapen_AOT/AOT_stimuli/rescaled_final/0627_rv.mp4	0.0	122.42965149879456	
16	105.9908082485199	movie	1		288	14.0	2.5	/experiments/Knapen_AOT/AOT_stimuli/rescaled_final/0627_rv.mp4	0.0	123.25460910797119	2.49196457862854
16	106.76498889923096	pulse	1	t		14.0	2.5	/experiments/Knapen_AOT/AOT_stimuli/rescaled_final/0627_rv.mp4	0.0	124.02878975868225	
16	108.36439371109009	pulse	1	t		14.0	2.5	/experiments/Knapen_AOT/AOT_stimuli/rescaled_final/0627_rv.mp4	0.0	125.62819457054138	
16	108.48277282714844	fix_post	2		12	14.0	2.5	/experiments/Knapen_AOT/AOT_stimuli/rescaled_final/0627_rv.mp4	0.0	125.74657368659973	0.10005688667297363
17	108.58282971382141	fix_pre	0		120	15.0	2.5	/experiments/Knapen_AOT/AOT_stimuli/rescaled_final/0172_fw.mp4	0.0	125.8466305732727	1.0084753036499023
17	109.59130501747131	movie	1		282	15.0	2.5	/experiments/Knapen_AOT/AOT_stimuli/rescaled_final/0172_fw.mp4	0.0	126.85510587692261	2.4919846057891846
17	109.96590542793274	pulse	1	t		15.0	2.5	/experiments/Knapen_AOT/AOT_stimuli/rescaled_final/0172_fw.mp4	0.0	127.22970628738403	
17	111.56465339660645	pulse	1	t		15.0	2.5	/experiments/Knapen_AOT/AOT_stimuli/rescaled_final/0172_fw.mp4	0.0	128.82845425605774	
17	112.0832896232605	fix_post	2		12	15.0	2.5	/experiments/Knapen_AOT/AOT_stimuli/rescaled_final/0172_fw.mp4	0.0	129.3470904827118	0.10015511512756348
18	112.18344473838806	fix_pre	0		119	16.0	2.5	/experiments/Knapen_AOT/AOT_stimuli/rescaled_final/1772_rv.mp4	0.0	129.44724559783936	1.000150442123413
18	113.16722464561462	pulse	0	t		16.0	2.5	/experiments/Knapen_AOT/AOT_stimuli/rescaled_final/1772_rv.mp4	0.0	130.43102550506592	
18	113.18359518051147	movie	1		292	16.0	2.5	/experiments/Knapen_AOT/AOT_stimuli/rescaled_final/1772_rv.mp4	0.0	130.44739603996277	2.5004050731658936
18	114.76575803756714	pulse	1	t		16.0	2.5	/experiments/Knapen_AOT/AOT_stimuli/rescaled_final/1772_rv.mp4	0.0	132.02955889701843	
18	115.68400025367737	fix_post	2		12	16.0	2.5	/experiments/Knapen_AOT/AOT_stimuli/rescaled_final/1772_rv.mp4	0.0	132.94780111312866	0.09985756874084473
19	115.78385782241821	fix_pre	0		120	17.0	2.5	/experiments/Knapen_AOT/AOT_stimuli/rescaled_final/1150_fw.mp4	0.0	133.0476586818695	1.008540153503418
19	116.36751866340637	pulse	0	t		17.0	2.5	/experiments/Knapen_AOT/AOT_stimuli/rescaled_final/1150_fw.mp4	0.0	133.63131952285767	
19	116.79239797592163	movie	1		286	17.0	2.5	/experiments/Knapen_AOT/AOT_stimuli/rescaled_final/1150_fw.mp4	0.0	134.05619883537292	2.4919652938842773
19	117.96609282493591	pulse	1	t		17.0	2.5	/experiments/Knapen_AOT/AOT_stimuli/rescaled_final/1150_fw.mp4	0.0	135.2298936843872	
19	119.28436326980591	fix_post	2		12	17.0	2.5	/experiments/Knapen_AOT/AOT_stimuli/rescaled_final/1150_fw.mp4	0.0	136.5481641292572	0.10003018379211426
20	119.38439345359802	fix_pre	0		120	18.0	2.5	/experiments/Knapen_AOT/AOT_stimuli/rescaled_final/0726_rv.mp4	0.0	136.64819431304932	1.0085725784301758
20	119.56797313690186	pulse	0	t		18.0	2.5	/experiments/Knapen_AOT/AOT_stimuli/rescaled_final/0726_rv.mp4	0.0	136.83177399635315	
20	120.3929660320282	movie	1		289	18.0	2.5	/experiments/Knapen_AOT/AOT_stimuli/rescaled_final/0726_rv.mp4	0.0	137.6567668914795	2.491945505142212
20	121.16662502288818	pulse	1	t		18.0	2.5	/experiments/Knapen_AOT/AOT_stimuli/rescaled_final/0726_rv.mp4	0.0	138.43042588233948	
20	122.76656365394592	pulse	1	t		18.0	2.5	/experiments/Knapen_AOT/AOT_stimuli/rescaled_final/0726_rv.mp4	0.0	140.03036451339722	
20	122.88491153717041	fix_post	2		12	18.0	2.5	/experiments/Knapen_AOT/AOT_stimuli/rescaled_final/0726_rv.mp4	0.0	140.1487123966217	0.10008096694946289
21	122.98499250411987	fix_pre	0		120	19.0	2.5	/experiments/Knapen_AOT/AOT_stimuli/rescaled_final/0394_rv.mp4	0.0	140.24879336357117	1.008455753326416
21	123.99344825744629	movie	1		289	19.0	2.5	/experiments/Knapen_AOT/AOT_stimuli/rescaled_final/0394_rv.mp4	0.0	141.25724911689758	2.491986036300659
21	124.36715340614319	pulse	1	t		19.0	2.5	/experiments/Knapen_AOT/AOT_stimuli/rescaled_final/0394_rv.mp4	0.0	141.63095426559448	
21	125.96676588058472	pulse	1	t		19.0	2.5	/experiments/Knapen_AOT/AOT_stimuli/rescaled_final/0394_rv.mp4	0.0	143.230566740036	
21	126.48543429374695	fix_post	2		12	19.0	2.5	/experiments/Knapen_AOT/AOT_stimuli/rescaled_final/0394_rv.mp4	0.0	143.74923515319824	0.10004711151123047
22	126.58548140525818	fix_pre	0		119	20.0	2.5	/experiments/Knapen_AOT/AOT_stimuli/rescaled_final/2111_rv.mp4	0.0	143.84928226470947	1.0001282691955566
22	127.569162607193	pulse	0	t		20.0	2.5	/experiments/Knapen_AOT/AOT_stimuli/rescaled_final/2111_rv.mp4	0.0	144.8329634666443	
22	127.58560967445374	movie	1		285	20.0	2.5	/experiments/Knapen_AOT/AOT_stimuli/rescaled_final/2111_rv.mp4	0.0	144.84941053390503	2.5004184246063232
22	129.16787123680115	pulse	1	t		20.0	2.5	/experiments/Knapen_AOT/AOT_stimuli/rescaled_final/2111_rv.mp4	0.0	146.43167209625244	
22	130.08602809906006	fix_post	2		12	20.0	2.5	/experiments/Knapen_AOT/AOT_stimuli/rescaled_final/2111_rv.mp4	0.0	147.34982895851135	0.10000896453857422
23	130.18603706359863	fix_pre	0		120	21.0	2.5	blank	1.0	147.44983792304993	1.0001847743988037
23	130.7697606086731	pulse	0	t		21.0	2.5	blank	1.0	148.0335614681244	
23	131.18622183799744	movie	1		300	21.0	2.5	blank	1.0	148.45002269744873	2.5002920627593994
23	132.3700442314148	pulse	1	t		21.0	2.5	blank	1.0	149.6338450908661	
23	133.68651390075684	fix_post	2		12	21.0	2.5	blank	1.0	150.95031476020813	0.10004639625549316
24	133.78656029701233	fix_pre	0		120	22.0	2.5	/experiments/Knapen_AOT/AOT_stimuli/rescaled_final/1497_fw.mp4	0.0	151.05036115646362	1.008490800857544
24	133.97012042999268	pulse	0	t		22.0	2.5	/experiments/Knapen_AOT/AOT_stimuli/rescaled_final/1497_fw.mp4	0.0	151.23392128944397	
24	134.79505109786987	movie	1		286	22.0	2.5	/experiments/Knapen_AOT/AOT_stimuli/rescaled_final/1497_fw.mp4	0.0	152.05885195732117	2.4920740127563477
24	135.56866598129272	pulse	1	t		22.0	2.5	/experiments/Knapen_AOT/AOT_stimuli/rescaled_final/1497_fw.mp4	0.0	152.83246684074402	
24	137.1685254573822	pulse	1	t		22.0	2.5	/experiments/Knapen_AOT/AOT_stimuli/rescaled_final/1497_fw.mp4	0.0	154.4323263168335	
24	137.28712511062622	fix_post	2		12	22.0	2.5	/experiments/Knapen_AOT/AOT_stimuli/rescaled_final/1497_fw.mp4	0.0	154.55092597007751	0.10008478164672852
25	137.38720989227295	fix_pre	0		120	23.0	2.5	/experiments/Knapen_AOT/AOT_stimuli/rescaled_final/0482_rv.mp4	0.0	154.65101075172424	1.0085058212280273
25	138.39571571350098	movie	1		292	23.0	2.5	/experiments/Knapen_AOT/AOT_stimuli/rescaled_final/0482_rv.mp4	0.0	155.65951657295227	2.4919235706329346
25	138.76944851875305	pulse	1	t		23.0	2.5	/experiments/Knapen_AOT/AOT_stimuli/rescaled_final/0482_rv.mp4	0.0	156.03324937820435	
25	140.36329531669617	pulse	1	t		23.0	2.5	/experiments/Knapen_AOT/AOT_stimuli/rescaled_final/0482_rv.mp4	0.0	157.62709617614746	
25	140.8876392841339	fix_post	2		12	23.0	2.5	/experiments/Knapen_AOT/AOT_stimuli/rescaled_final/0482_rv.mp4	0.0	158.1514401435852	0.10003185272216797
26	140.98767113685608	fix_pre	0		118	24.0	2.5	/experiments/Knapen_AOT/AOT_stimuli/rescaled_final/0277_fw.mp4	0.0	158.25147199630737	0.9917833805084229
26	141.9630720615387	pulse	0	t		24.0	2.5	/experiments/Knapen_AOT/AOT_stimuli/rescaled_final/0277_fw.mp4	0.0	159.22687292099	
26	141.9794545173645	movie	1		295	24.0	2.5	/experiments/Knapen_AOT/AOT_stimuli/rescaled_final/0277_fw.mp4	0.0	159.2432553768158	2.5004658699035645
26	143.56335020065308	pulse	1	t		24.0	2.5	/experiments/Knapen_AOT/AOT_stimuli/rescaled_final/0277_fw.mp4	0.0	160.82715106010437	
26	144.47992038726807	fix_post	2		12	24.0	2.5	/experiments/Knapen_AOT/AOT_stimuli/rescaled_final/0277_fw.mp4	0.0	161.74372124671936	0.09991049766540527
27	144.57983088493347	fix_pre	0		120	25.0	2.5	/experiments/Knapen_AOT/AOT_stimuli/rescaled_final/0310_rv.mp4	0.0	161.84363174438477	1.0085034370422363
27	145.16357135772705	pulse	0	t		25.0	2.5	/experiments/Knapen_AOT/AOT_stimuli/rescaled_final/0310_rv.mp4	0.0	162.42737221717834	
27	145.5883343219757	movie	1		276	25.0	2.5	/experiments/Knapen_AOT/AOT_stimuli/rescaled_final/0310_rv.mp4	0.0	162.852135181427	2.49202823638916
27	146.76376914978027	pulse	1	t		25.0	2.5	/experiments/Knapen_AOT/AOT_stimuli/rescaled_final/0310_rv.mp4	0.0	164.02757000923157	
27	148.08036255836487	fix_post	2		12	25.0	2.5	/experiments/Knapen_AOT/AOT_stimuli/rescaled_final/0310_rv.mp4	0.0	165.34416341781616	0.10017514228820801
28	148.18053770065308	fix_pre	0		120	26.0	2.5	/experiments/Knapen_AOT/AOT_stimuli/rescaled_final/0825_rv.mp4	0.0	165.44433856010437	1.008331060409546
28	148.36448645591736	pulse	0	t		26.0	2.5	/experiments/Knapen_AOT/AOT_stimuli/rescaled_final/0825_rv.mp4	0.0	165.62828731536865	
28	149.18886876106262	movie	1		283	26.0	2.5	/experiments/Knapen_AOT/AOT_stimuli/rescaled_final/0825_rv.mp4	0.0	166.45266962051392	2.492032766342163
28	149.96431422233582	pulse	1	t		26.0	2.5	/experiments/Knapen_AOT/AOT_stimuli/rescaled_final/0825_rv.mp4	0.0	167.2281150817871	
28	151.56357860565186	pulse	1	t		26.0	2.5	/experiments/Knapen_AOT/AOT_stimuli/rescaled_final/0825_rv.mp4	0.0	168.82737946510315	
28	151.68090152740479	fix_post	2		12	26.0	2.5	/experiments/Knapen_AOT/AOT_stimuli/rescaled_final/0825_rv.mp4	0.0	168.94470238685608	0.10002708435058594
29	151.78092861175537	fix_pre	0		120	27.0	2.5	/experiments/Knapen_AOT/AOT_stimuli/rescaled_final/1497_rv.mp4	0.0	169.04472947120667	1.0085372924804688
29	152.78946590423584	movie	1		287	27.0	2.5	/experiments/Knapen_AOT/AOT_stimuli/rescaled_final/1497_rv.mp4	0.0	170.05326676368713	2.4920198917388916
29	153.1630527973175	pulse	1	t		27.0	2.5	/experiments/Knapen_AOT/AOT_stimuli/rescaled_final/1497_rv.mp4	0.0	170.4268536567688	
29	154.7631516456604	pulse	1	t		27.0	2.5	/experiments/Knapen_AOT/AOT_stimuli/rescaled_final/1497_rv.mp4	0.0	172.0269525051117	
29	155.28148579597473	fix_post	2		12	27.0	2.5	/experiments/Knapen_AOT/AOT_stimuli/rescaled_final/1497_rv.mp4	0.0	172.54528665542603	0.1000058650970459
30	155.38149166107178	fix_pre	0		119	28.0	2.5	blank	1.0	172.64529252052307	0.9917707443237305
30	156.36516213417053	pulse	0	t		28.0	2.5	blank	1.0	173.62896299362183	
30	156.3732624053955	movie	1		301	28.0	2.5	blank	1.0	173.6370632648468	2.508714437484741
30	157.96543073654175	pulse	1	t		28.0	2.5	blank	1.0	175.22923159599304	
30	158.88197684288025	fix_post	2		12	28.0	2.5	blank	1.0	176.14577770233154	0.10004448890686035
31	158.9820213317871	fix_pre	0		120	29.0	2.5	/experiments/Knapen_AOT/AOT_stimuli/rescaled_final/1909_rv.mp4	0.0	176.2458221912384	1.0085713863372803
31	159.56568026542664	pulse	0	t		29.0	2.5	/experiments/Knapen_AOT/AOT_stimuli/rescaled_final/1909_rv.mp4	0.0	176.82948112487793	
31	159.9905927181244	movie	1		287	29.0	2.5	/experiments/Knapen_AOT/AOT_stimuli/rescaled_final/1909_rv.mp4	0.0	177.25439357757568	2.4919304847717285
31	161.16448640823364	pulse	1	t		29.0	2.5	/experiments/Knapen_AOT/AOT_stimuli/rescaled_final/1909_rv.mp4	0.0	178.42828726768494	
31	162.48252320289612	fix_post	2		12	29.0	2.5	/experiments/Knapen_AOT/AOT_stimuli/rescaled_final/1909_rv.mp4	0.0	179.7463240623474	0.10002279281616211
32	162.58254599571228	fix_pre	0		120	30.0	2.5	/experiments/Knapen_AOT/AOT_stimuli/rescaled_final/1788_rv.mp4	0.0	179.84634685516357	1.008538007736206
32	162.76610279083252	pulse	0	t		30.0	2.5	/experiments/Knapen_AOT/AOT_stimuli/rescaled_final/1788_rv.mp4	0.0	180.0299036502838	
32	163.5910840034485	movie	1		288	30.0	2.5	/experiments/Knapen_AOT/AOT_stimuli/rescaled_final/1788_rv.mp4	0.0	180.85488486289978	2.491983413696289
32	164.3650312423706	pulse	1	t		30.0	2.5	/experiments/Knapen_AOT/AOT_stimuli/rescaled_final/1788_rv.mp4	0.0	181.6288321018219	
32	165.96459245681763	pulse	1	t		30.0	2.5	/experiments/Knapen_AOT/AOT_stimuli/rescaled_final/1788_rv.mp4	0.0	183.22839331626892	
32	166.08306741714478	fix_post	2		12	30.0	2.5	/experiments/Knapen_AOT/AOT_stimuli/rescaled_final/1788_rv.mp4	0.0	183.34686827659607	0.10014009475708008
33	166.18320751190186	fix_pre	0		120	31.0	2.5	/experiments/Knapen_AOT/AOT_stimuli/rescaled_final/0715_rv.mp4	0.0	183.44700837135315	1.008406639099121
33	167.19161415100098	movie	1		282	31.0	2.5	/experiments/Knapen_AOT/AOT_stimuli/rescaled_final/0715_rv.mp4	0.0	184.45541501045227	2.492008686065674
33	167.56526350975037	pulse	1	t		31.0	2.5	/experiments/Knapen_AOT/AOT_stimuli/rescaled_final/0715_rv.mp4	0.0	184.82906436920166	
33	169.16558837890625	pulse	1	t		31.0	2.5	/experiments/Knapen_AOT/AOT_stimuli/rescaled_final/0715_rv.mp4	0.0	186.42938923835754	
33	169.68362283706665	fix_post	2		12	31.0	2.5	/experiments/Knapen_AOT/AOT_stimuli/rescaled_final/0715_rv.mp4	0.0	186.94742369651794	0.10003209114074707
34	169.7836549282074	fix_pre	0		119	32.0	2.5	/experiments/Knapen_AOT/AOT_stimuli/rescaled_final/1294_rv.mp4	0.0	187.0474557876587	1.0001096725463867
34	170.76741123199463	pulse	0	t		32.0	2.5	/experiments/Knapen_AOT/AOT_stimuli/rescaled_final/1294_rv.mp4	0.0	188.03121209144592	
34	170.78376460075378	movie	1		284	32.0	2.5	/experiments/Knapen_AOT/AOT_stimuli/rescaled_final/1294_rv.mp4	0.0	188.04756546020508	2.5004000663757324
34	172.36607575416565	pulse	1	t		32.0	2.5	/experiments/Knapen_AOT/AOT_stimuli/rescaled_final/1294_rv.mp4	0.0	189.62987661361694	
34	173.28416466712952	fix_post	2		11	32.0	2.5	/experiments/Knapen_AOT/AOT_stimuli/rescaled_final/1294_rv.mp4	0.0	190.5479655265808	0.10011577606201172
35	173.38428044319153	fix_pre	0		120	33.0	2.5	blank	1.0	190.64808130264282	1.00006103515625
35	173.96782541275024	pulse	0	t		33.0	2.5	blank	1.0	191.23162627220154	
35	174.38434147834778	movie	1		300	33.0	2.5	blank	1.0	191.64814233779907	2.5003514289855957
35	175.56822419166565	pulse	1	t		33.0	2.5	blank	1.0	192.83202505111694	
35	176.88469290733337	fix_post	2		12	33.0	2.5	blank	1.0	194.14849376678467	0.10007691383361816
36	176.984769821167	fix_pre	0		120	34.0	2.5	/experiments/Knapen_AOT/AOT_stimuli/rescaled_final/0310_rv.mp4	0.0	194.2485706806183	1.0084419250488281
36	177.16831398010254	pulse	0	t		34.0	2.5	/experiments/Knapen_AOT/AOT_stimuli/rescaled_final/0310_rv.mp4	0.0	194.43211483955383	
36	177.99321174621582	movie	1		279	34.0	2.5	/experiments/Knapen_AOT/AOT_stimuli/rescaled_final/0310_rv.mp4	0.0	195.25701260566711	2.492072343826294
36	178.7669358253479	pulse	1	t		34.0	2.5	/experiments/Knapen_AOT/AOT_stimuli/rescaled_final/0310_rv.mp4	0.0	196.0307366847992	
36	180.3672866821289	pulse	1	t		34.0	2.5	/experiments/Knapen_AOT/AOT_stimuli/rescaled_final/0310_rv.mp4	0.0	197.6310875415802	
36	180.48528409004211	fix_post	2		12	34.0	2.5	/experiments/Knapen_AOT/AOT_stimuli/rescaled_final/0310_rv.mp4	0.0	197.7490849494934	0.10008811950683594
37	180.58537220954895	fix_pre	0		120	35.0	2.5	/experiments/Knapen_AOT/AOT_stimuli/rescaled_final/1980_rv.mp4	0.0	197.84917306900024	1.0084271430969238
37	181.59379935264587	movie	1		286	35.0	2.5	/experiments/Knapen_AOT/AOT_stimuli/rescaled_final/1980_rv.mp4	0.0	198.85760021209717	2.4919843673706055
37	181.96739172935486	pulse	1	t		35.0	2.5	/experiments/Knapen_AOT/AOT_stimuli/rescaled_final/1980_rv.mp4	0.0	199.23119258880615	
37	183.5674524307251	pulse	1	t		35.0	2.5	/experiments/Knapen_AOT/AOT_stimuli/rescaled_final/1980_rv.mp4	0.0	200.8312532901764	
37	184.08578372001648	fix_post	2		12	35.0	2.5	/experiments/Knapen_AOT/AOT_stimuli/rescaled_final/1980_rv.mp4	0.0	201.34958457946777	0.10002613067626953
38	184.18580985069275	fix_pre	0		119	36.0	2.5	/experiments/Knapen_AOT/AOT_stimuli/rescaled_final/0232_fw.mp4	0.0	201.44961071014404	1.0001893043518066
38	185.16957426071167	pulse	0	t		36.0	2.5	/experiments/Knapen_AOT/AOT_stimuli/rescaled_final/0232_fw.mp4	0.0	202.43337512016296	
38	185.18599915504456	movie	1		289	36.0	2.5	/experiments/Knapen_AOT/AOT_stimuli/rescaled_final/0232_fw.mp4	0.0	202.44980001449585	2.5003154277801514
38	186.76839995384216	pulse	1	t		36.0	2.5	/experiments/Knapen_AOT/AOT_stimuli/rescaled_final/0232_fw.mp4	0.0	204.03220081329346	
38	187.6863145828247	fix_post	2		12	36.0	2.5	/experiments/Knapen_AOT/AOT_stimuli/rescaled_final/0232_fw.mp4	0.0	204.950115442276	0.10004234313964844
39	187.78635692596436	fix_pre	0		120	37.0	2.5	/experiments/Knapen_AOT/AOT_stimuli/rescaled_final/1848_fw.mp4	0.0	205.05015778541565	1.0085203647613525
39	188.37004804611206	pulse	0	t		37.0	2.5	/experiments/Knapen_AOT/AOT_stimuli/rescaled_final/1848_fw.mp4	0.0	205.63384890556335	
39	188.7948772907257	movie	1		283	37.0	2.5	/experiments/Knapen_AOT/AOT_stimuli/rescaled_final/1848_fw.mp4	0.0	206.058678150177	2.491987943649292
39	189.96930980682373	pulse	1	t		37.0	2.5	/experiments/Knapen_AOT/AOT_stimuli/rescaled_final/1848_fw.mp4	0.0	207.23311066627502	
39	191.286865234375	fix_post	2		12	37.0	2.5	/experiments/Knapen_AOT/AOT_stimuli/rescaled_final/1848_fw.mp4	0.0	208.5506660938263	0.10004401206970215
40	191.3869092464447	fix_pre	0		120	38.0	2.5	/experiments/Knapen_AOT/AOT_stimuli/rescaled_final/1882_fw.mp4	0.0	208.650710105896	1.0084657669067383
40	191.57062077522278	pulse	0	t		38.0	2.5	/experiments/Knapen_AOT/AOT_stimuli/rescaled_final/1882_fw.mp4	0.0	208.83442163467407	
40	192.39537501335144	movie	1		284	38.0	2.5	/experiments/Knapen_AOT/AOT_stimuli/rescaled_final/1882_fw.mp4	0.0	209.65917587280273	2.4920337200164795
40	193.16934037208557	pulse	1	t		38.0	2.5	/experiments/Knapen_AOT/AOT_stimuli/rescaled_final/1882_fw.mp4	0.0	210.43314123153687	
40	194.768972158432	pulse	1	t		38.0	2.5	/experiments/Knapen_AOT/AOT_stimuli/rescaled_final/1882_fw.mp4	0.0	212.0327730178833	
40	194.88740873336792	fix_post	2		12	38.0	2.5	/experiments/Knapen_AOT/AOT_stimuli/rescaled_final/1882_fw.mp4	0.0	212.1512095928192	0.10003805160522461
41	194.98744678497314	fix_pre	0		120	39.0	2.5	/experiments/Knapen_AOT/AOT_stimuli/rescaled_final/1559_rv.mp4	0.0	212.25124764442444	1.0085110664367676
41	195.9959578514099	movie	1		287	39.0	2.5	/experiments/Knapen_AOT/AOT_stimuli/rescaled_final/1559_rv.mp4	0.0	213.2597587108612	2.491990566253662
41	196.369726896286	pulse	1	t		39.0	2.5	/experiments/Knapen_AOT/AOT_stimuli/rescaled_final/1559_rv.mp4	0.0	213.6335277557373	
41	197.96346259117126	pulse	1	t		39.0	2.5	/experiments/Knapen_AOT/AOT_stimuli/rescaled_final/1559_rv.mp4	0.0	215.22726345062256	
41	198.48794841766357	fix_post	2		12	39.0	2.5	/experiments/Knapen_AOT/AOT_stimuli/rescaled_final/1559_rv.mp4	0.0	215.75174927711487	0.10003376007080078
42	198.58798217773438	fix_pre	0		118	40.0	2.5	/experiments/Knapen_AOT/AOT_stimuli/rescaled_final/1310_fw.mp4	0.0	215.85178303718567	0.9917981624603271
42	199.5634479522705	pulse	0	t		40.0	2.5	/experiments/Knapen_AOT/AOT_stimuli/rescaled_final/1310_fw.mp4	0.0	216.8272488117218	
42	199.5797803401947	movie	1		291	40.0	2.5	/experiments/Knapen_AOT/AOT_stimuli/rescaled_final/1310_fw.mp4	0.0	216.843581199646	2.5003747940063477
42	201.1636381149292	pulse	1	t		40.0	2.5	/experiments/Knapen_AOT/AOT_stimuli/rescaled_final/1310_fw.mp4	0.0	218.4274389743805	
42	202.08015513420105	fix_post	2		12	40.0	2.5	/experiments/Knapen_AOT/AOT_stimuli/rescaled_final/1310_fw.mp4	0.0	219.34395599365234	0.10003328323364258
43	202.1801884174347	fix_pre	0		120	41.0	2.5	blank	1.0	219.443989276886	1.0001473426818848
43	202.76389861106873	pulse	0	t		41.0	2.5	blank	1.0	220.02769947052002	
43	203.18033576011658	movie	1		300	41.0	2.5	blank	1.0	220.44413661956787	2.500373363494873
43	204.36411476135254	pulse	1	t		41.0	2.5	blank	1.0	221.62791562080383	
43	205.68070912361145	fix_post	2		12	41.0	2.5	blank	1.0	222.94450998306274	0.10004806518554688
44	205.780757188797	fix_pre	0		120	42.0	2.5	/experiments/Knapen_AOT/AOT_stimuli/rescaled_final/0668_fw.mp4	0.0	223.0445580482483	1.0085046291351318
44	205.9643292427063	pulse	0	t		42.0	2.5	/experiments/Knapen_AOT/AOT_stimuli/rescaled_final/0668_fw.mp4	0.0	223.2281301021576	
44	206.78926181793213	movie	1		276	42.0	2.5	/experiments/Knapen_AOT/AOT_stimuli/rescaled_final/0668_fw.mp4	0.0	224.05306267738342	2.492056369781494
44	207.56334686279297	pulse	1	t		42.0	2.5	/experiments/Knapen_AOT/AOT_stimuli/rescaled_final/0668_fw.mp4	0.0	224.82714772224426	
44	209.16429567337036	pulse	1	t		42.0	2.5	/experiments/Knapen_AOT/AOT_stimuli/rescaled_final/0668_fw.mp4	0.0	226.42809653282166	
44	209.28131818771362	fix_post	2		12	42.0	2.5	/experiments/Knapen_AOT/AOT_stimuli/rescaled_final/0668_fw.mp4	0.0	226.54511904716492	0.10002422332763672
45	209.38134241104126	fix_pre	0		120	43.0	2.5	/experiments/Knapen_AOT/AOT_stimuli/rescaled_final/1760_fw.mp4	0.0	226.64514327049255	1.0084741115570068
45	210.38981652259827	movie	1		281	43.0	2.5	/experiments/Knapen_AOT/AOT_stimuli/rescaled_final/1760_fw.mp4	0.0	227.65361738204956	2.492082357406616
45	210.76374506950378	pulse	1	t		43.0	2.5	/experiments/Knapen_AOT/AOT_stimuli/rescaled_final/1760_fw.mp4	0.0	228.02754592895508	
45	212.36337852478027	pulse	1	t		43.0	2.5	/experiments/Knapen_AOT/AOT_stimuli/rescaled_final/1760_fw.mp4	0.0	229.62717938423157	
45	212.88189888000488	fix_post	2		12	43.0	2.5	/experiments/Knapen_AOT/AOT_stimuli/rescaled_final/1760_fw.mp4	0.0	230.14569973945618	0.0999751091003418
46	212.98187398910522	fix_pre	0		119	44.0	2.5	/experiments/Knapen_AOT/AOT_stimuli/rescaled_final/1980_rv.mp4	0.0	230.24567484855652	1.0000813007354736
46	213.96554374694824	pulse	0	t		44.0	2.5	/experiments/Knapen_AOT/AOT_stimuli/rescaled_final/1980_rv.mp4	0.0	231.22934460639954	
46	213.9819552898407	movie	1		280	44.0	2.5	/experiments/Knapen_AOT/AOT_stimuli/rescaled_final/1980_rv.mp4	0.0	231.245756149292	2.500375270843506
46	215.56412148475647	pulse	1	t		44.0	2.5	/experiments/Knapen_AOT/AOT_stimuli/rescaled_final/1980_rv.mp4	0.0	232.82792234420776	
46	216.4823305606842	fix_post	2		12	44.0	2.5	/experiments/Knapen_AOT/AOT_stimuli/rescaled_final/1980_rv.mp4	0.0	233.7461314201355	0.10009527206420898
47	216.5824258327484	fix_pre	0		104	45.0	2.5	/experiments/Knapen_AOT/AOT_stimuli/rescaled_final/1664_rv.mp4	0.0	233.8462266921997	1.0084030628204346
47	217.16604852676392	pulse	0	t		45.0	2.5	/experiments/Knapen_AOT/AOT_stimuli/rescaled_final/1664_rv.mp4	0.0	234.4298493862152	
47	217.59082889556885	movie	1		286	45.0	2.5	/experiments/Knapen_AOT/AOT_stimuli/rescaled_final/1664_rv.mp4	0.0	234.85462975502014	2.4920973777770996
47	218.76495480537415	pulse	1	t		45.0	2.5	/experiments/Knapen_AOT/AOT_stimuli/rescaled_final/1664_rv.mp4	0.0	236.02875566482544	
47	220.08292627334595	fix_post	2		12	45.0	2.5	/experiments/Knapen_AOT/AOT_stimuli/rescaled_final/1664_rv.mp4	0.0	237.34672713279724	0.10004568099975586
48	220.1829719543457	fix_pre	0		120	46.0	2.5	/experiments/Knapen_AOT/AOT_stimuli/rescaled_final/2054_rv.mp4	0.0	237.446772813797	1.0084311962127686
48	220.36671113967896	pulse	0	t		46.0	2.5	/experiments/Knapen_AOT/AOT_stimuli/rescaled_final/2054_rv.mp4	0.0	237.63051199913025	
48	221.19140315055847	movie	1		291	46.0	2.5	/experiments/Knapen_AOT/AOT_stimuli/rescaled_final/2054_rv.mp4	0.0	238.45520401000977	2.4920175075531006
48	221.96526408195496	pulse	1	t		46.0	2.5	/experiments/Knapen_AOT/AOT_stimuli/rescaled_final/2054_rv.mp4	0.0	239.22906494140625	
48	223.56498098373413	pulse	1	t		46.0	2.5	/experiments/Knapen_AOT/AOT_stimuli/rescaled_final/2054_rv.mp4	0.0	240.82878184318542	
48	223.68342065811157	fix_post	2		12	46.0	2.5	/experiments/Knapen_AOT/AOT_stimuli/rescaled_final/2054_rv.mp4	0.0	240.94722151756287	0.10004305839538574
49	223.78346371650696	fix_pre	0		120	47.0	2.5	blank	1.0	241.04726457595825	1.0001881122589111
49	224.78365182876587	movie	1		300	47.0	2.5	blank	1.0	242.04745268821716	2.500380039215088
49	225.16730380058289	pulse	1	t		47.0	2.5	blank	1.0	242.43110466003418	
49	226.76753568649292	pulse	1	t		47.0	2.5	blank	1.0	244.0313365459442	
49	227.28403186798096	fix_post	2		12	47.0	2.5	blank	1.0	244.54783272743225	0.10009384155273438
50	227.3841257095337	fix_pre	0		119	48.0	2.5	/experiments/Knapen_AOT/AOT_stimuli/rescaled_final/1589_fw.mp4	0.0	244.64792656898499	1.0000309944152832
50	228.3678538799286	pulse	0	t		48.0	2.5	/experiments/Knapen_AOT/AOT_stimuli/rescaled_final/1589_fw.mp4	0.0	245.63165473937988	
50	228.38415670394897	movie	1		287	48.0	2.5	/experiments/Knapen_AOT/AOT_stimuli/rescaled_final/1589_fw.mp4	0.0	245.64795756340027	2.5003364086151123
50	229.9665105342865	pulse	1	t		48.0	2.5	/experiments/Knapen_AOT/AOT_stimuli/rescaled_final/1589_fw.mp4	0.0	247.2303113937378	
50	230.8844931125641	fix_post	2		12	48.0	2.5	/experiments/Knapen_AOT/AOT_stimuli/rescaled_final/1589_fw.mp4	0.0	248.14829397201538	0.1000673770904541
51	230.98456048965454	fix_pre	0		120	49.0	2.5	/experiments/Knapen_AOT/AOT_stimuli/rescaled_final/1821_rv.mp4	0.0	248.24836134910583	1.0084736347198486
51	231.5682966709137	pulse	0	t		49.0	2.5	/experiments/Knapen_AOT/AOT_stimuli/rescaled_final/1821_rv.mp4	0.0	248.832097530365	
51	231.9930341243744	movie	1		281	49.0	2.5	/experiments/Knapen_AOT/AOT_stimuli/rescaled_final/1821_rv.mp4	0.0	249.25683498382568	2.4920082092285156
51	233.16669487953186	pulse	1	t		49.0	2.5	/experiments/Knapen_AOT/AOT_stimuli/rescaled_final/1821_rv.mp4	0.0	250.43049573898315	
51	234.4850423336029	fix_post	2		12	49.0	2.5	/experiments/Knapen_AOT/AOT_stimuli/rescaled_final/1821_rv.mp4	0.0	251.7488431930542	0.10007333755493164
52	234.58511567115784	fix_pre	0		120	50.0	2.5	/experiments/Knapen_AOT/AOT_stimuli/rescaled_final/2082_rv.mp4	0.0	251.84891653060913	1.0084624290466309
52	234.76864743232727	pulse	0	t		50.0	2.5	/experiments/Knapen_AOT/AOT_stimuli/rescaled_final/2082_rv.mp4	0.0	252.03244829177856	
52	235.59357810020447	movie	1		281	50.0	2.5	/experiments/Knapen_AOT/AOT_stimuli/rescaled_final/2082_rv.mp4	0.0	252.85737895965576	2.4919965267181396
52	236.36745691299438	pulse	1	t		50.0	2.5	/experiments/Knapen_AOT/AOT_stimuli/rescaled_final/2082_rv.mp4	0.0	253.63125777244568	
52	237.9672553539276	pulse	1	t		50.0	2.5	/experiments/Knapen_AOT/AOT_stimuli/rescaled_final/2082_rv.mp4	0.0	255.2310562133789	
52	238.0855746269226	fix_post	2		12	50.0	2.5	/experiments/Knapen_AOT/AOT_stimuli/rescaled_final/2082_rv.mp4	0.0	255.3493754863739	0.10013246536254883
53	238.18570709228516	fix_pre	0		120	51.0	2.5	/experiments/Knapen_AOT/AOT_stimuli/rescaled_final/1676_rv.mp4	0.0	255.44950795173645	1.0083844661712646
53	239.19409155845642	movie	1		270	51.0	2.5	/experiments/Knapen_AOT/AOT_stimuli/rescaled_final/1676_rv.mp4	0.0	256.4578924179077	2.4921202659606934
53	239.5695297718048	pulse	1	t		51.0	2.5	/experiments/Knapen_AOT/AOT_stimuli/rescaled_final/1676_rv.mp4	0.0	256.8333306312561	
53	241.1673378944397	pulse	1	t		51.0	2.5	/experiments/Knapen_AOT/AOT_stimuli/rescaled_final/1676_rv.mp4	0.0	258.431138753891	
53	241.68621182441711	fix_post	2		12	51.0	2.5	/experiments/Knapen_AOT/AOT_stimuli/rescaled_final/1676_rv.mp4	0.0	258.9500126838684	0.10003209114074707
54	241.78624391555786	fix_pre	0		119	52.0	2.5	/experiments/Knapen_AOT/AOT_stimuli/rescaled_final/0127_fw.mp4	0.0	259.05004477500916	1.0000932216644287
54	242.76320624351501	pulse	0	t		52.0	2.5	/experiments/Knapen_AOT/AOT_stimuli/rescaled_final/0127_fw.mp4	0.0	260.0270071029663	
54	242.7863371372223	movie	1		274	52.0	2.5	/experiments/Knapen_AOT/AOT_stimuli/rescaled_final/0127_fw.mp4	0.0	260.0501379966736	2.5003905296325684
54	244.36937642097473	pulse	1	t		52.0	2.5	/experiments/Knapen_AOT/AOT_stimuli/rescaled_final/0127_fw.mp4	0.0	261.633177280426	
54	245.28672766685486	fix_post	2		12	52.0	2.5	/experiments/Knapen_AOT/AOT_stimuli/rescaled_final/0127_fw.mp4	0.0	262.55052852630615	0.09996414184570312
55	245.38669180870056	fix_pre	0		120	53.0	2.5	/experiments/Knapen_AOT/AOT_stimuli/rescaled_final/0454_rv.mp4	0.0	262.65049266815186	1.0085089206695557
55	245.9704623222351	pulse	0	t		53.0	2.5	/experiments/Knapen_AOT/AOT_stimuli/rescaled_final/0454_rv.mp4	0.0	263.2342631816864	
55	246.39520072937012	movie	1		268	53.0	2.5	/experiments/Knapen_AOT/AOT_stimuli/rescaled_final/0454_rv.mp4	0.0	263.6590015888214	2.4920032024383545
55	247.5688455104828	pulse	1	t		53.0	2.5	/experiments/Knapen_AOT/AOT_stimuli/rescaled_final/0454_rv.mp4	0.0	264.8326463699341	
55	248.88720393180847	fix_post	2		12	53.0	2.5	/experiments/Knapen_AOT/AOT_stimuli/rescaled_final/0454_rv.mp4	0.0	266.15100479125977	0.10008573532104492
56	248.98728966712952	fix_pre	0		120	54.0	2.5	/experiments/Knapen_AOT/AOT_stimuli/rescaled_final/0042_fw.mp4	0.0	266.2510905265808	1.0084905624389648
56	249.16280698776245	pulse	0	t		54.0	2.5	/experiments/Knapen_AOT/AOT_stimuli/rescaled_final/0042_fw.mp4	0.0	266.42660784721375	
56	249.99578022956848	movie	1		282	54.0	2.5	/experiments/Knapen_AOT/AOT_stimuli/rescaled_final/0042_fw.mp4	0.0	267.2595810890198	2.4919934272766113
56	250.7627580165863	pulse	1	t		54.0	2.5	/experiments/Knapen_AOT/AOT_stimuli/rescaled_final/0042_fw.mp4	0.0	268.0265588760376	
56	252.36296606063843	pulse	1	t		54.0	2.5	/experiments/Knapen_AOT/AOT_stimuli/rescaled_final/0042_fw.mp4	0.0	269.6267669200897	
56	252.4877736568451	fix_post	2		12	54.0	2.5	/experiments/Knapen_AOT/AOT_stimuli/rescaled_final/0042_fw.mp4	0.0	269.7515745162964	0.10002756118774414
57	252.58780121803284	fix_pre	0		120	55.0	2.5	blank	1.0	269.85160207748413	1.0001718997955322
57	253.58797311782837	movie	1		300	55.0	2.5	blank	1.0	270.85177397727966	2.5003249645233154
57	253.96316528320312	pulse	1	t		55.0	2.5	blank	1.0	271.2269661426544	
57	255.56355381011963	pulse	1	t		55.0	2.5	blank	1.0	272.8273546695709	
57	256.0882980823517	fix_post	2		12	55.0	2.5	blank	1.0	273.352098941803	0.10002875328063965
58	256.1883268356323	fix_pre	0		118	56.0	2.5	/experiments/Knapen_AOT/AOT_stimuli/rescaled_final/0516_rv.mp4	0.0	273.4521276950836	1.0002896785736084
58	257.1637089252472	pulse	0	t		56.0	2.5	/experiments/Knapen_AOT/AOT_stimuli/rescaled_final/0516_rv.mp4	0.0	274.4275097846985	
58	257.18861651420593	movie	1		282	56.0	2.5	/experiments/Knapen_AOT/AOT_stimuli/rescaled_final/0516_rv.mp4	0.0	274.4524173736572	2.4918978214263916
58	258.7640235424042	pulse	1	t		56.0	2.5	/experiments/Knapen_AOT/AOT_stimuli/rescaled_final/0516_rv.mp4	0.0	276.02782440185547	
58	259.6805143356323	fix_post	2		12	56.0	2.5	/experiments/Knapen_AOT/AOT_stimuli/rescaled_final/0516_rv.mp4	0.0	276.9443151950836	0.10011053085327148
59	259.7806248664856	fix_pre	0		120	57.0	2.5	/experiments/Knapen_AOT/AOT_stimuli/rescaled_final/0602_fw.mp4	0.0	277.0444257259369	1.008493423461914
59	260.36429738998413	pulse	0	t		57.0	2.5	/experiments/Knapen_AOT/AOT_stimuli/rescaled_final/0602_fw.mp4	0.0	277.6280982494354	
59	260.7891182899475	movie	1		275	57.0	2.5	/experiments/Knapen_AOT/AOT_stimuli/rescaled_final/0602_fw.mp4	0.0	278.0529191493988	2.49191951751709
59	261.9648630619049	pulse	1	t		57.0	2.5	/experiments/Knapen_AOT/AOT_stimuli/rescaled_final/0602_fw.mp4	0.0	279.2286639213562	
59	263.2810378074646	fix_post	2		12	57.0	2.5	/experiments/Knapen_AOT/AOT_stimuli/rescaled_final/0602_fw.mp4	0.0	280.5448386669159	0.10006523132324219
60	263.38110303878784	fix_pre	0		120	58.0	2.5	/experiments/Knapen_AOT/AOT_stimuli/rescaled_final/0984_rv.mp4	0.0	280.64490389823914	1.0084598064422607
60	263.56488490104675	pulse	0	t		58.0	2.5	/experiments/Knapen_AOT/AOT_stimuli/rescaled_final/0984_rv.mp4	0.0	280.82868576049805	
60	264.3895628452301	movie	1		279	58.0	2.5	/experiments/Knapen_AOT/AOT_stimuli/rescaled_final/0984_rv.mp4	0.0	281.6533637046814	2.4919917583465576
60	265.16365027427673	pulse	1	t		58.0	2.5	/experiments/Knapen_AOT/AOT_stimuli/rescaled_final/0984_rv.mp4	0.0	282.427451133728	
60	266.7652339935303	pulse	1	t		58.0	2.5	/experiments/Knapen_AOT/AOT_stimuli/rescaled_final/0984_rv.mp4	0.0	284.02903485298157	
60	266.88155460357666	fix_post	2		12	58.0	2.5	/experiments/Knapen_AOT/AOT_stimuli/rescaled_final/0984_rv.mp4	0.0	284.14535546302795	0.10008668899536133
61	266.981641292572	fix_pre	0		120	59.0	2.5	/experiments/Knapen_AOT/AOT_stimuli/rescaled_final/2170_rv.mp4	0.0	284.2454421520233	1.0085020065307617
61	267.9901432991028	movie	1		267	59.0	2.5	/experiments/Knapen_AOT/AOT_stimuli/rescaled_final/2170_rv.mp4	0.0	285.2539441585541	2.491971492767334
61	268.3645339012146	pulse	1	t		59.0	2.5	/experiments/Knapen_AOT/AOT_stimuli/rescaled_final/2170_rv.mp4	0.0	285.6283347606659	
61	269.96342372894287	pulse	1	t		59.0	2.5	/experiments/Knapen_AOT/AOT_stimuli/rescaled_final/2170_rv.mp4	0.0	287.22722458839417	
61	270.4821147918701	fix_post	2		12	59.0	2.5	/experiments/Knapen_AOT/AOT_stimuli/rescaled_final/2170_rv.mp4	0.0	287.7459156513214	0.10004925727844238
62	270.58216404914856	fix_pre	0		119	60.0	2.5	/experiments/Knapen_AOT/AOT_stimuli/rescaled_final/1922_fw.mp4	0.0	287.84596490859985	1.0001928806304932
62	271.56596088409424	pulse	0	t		60.0	2.5	/experiments/Knapen_AOT/AOT_stimuli/rescaled_final/1922_fw.mp4	0.0	288.82976174354553	
62	271.58235692977905	movie	1		271	60.0	2.5	/experiments/Knapen_AOT/AOT_stimuli/rescaled_final/1922_fw.mp4	0.0	288.84615778923035	2.508639097213745
62	273.1646993160248	pulse	1	t		60.0	2.5	/experiments/Knapen_AOT/AOT_stimuli/rescaled_final/1922_fw.mp4	0.0	290.4285001754761	
62	274.0909960269928	fix_post	2		11	60.0	2.5	/experiments/Knapen_AOT/AOT_stimuli/rescaled_final/1922_fw.mp4	0.0	291.3547968864441	0.09181499481201172
63	274.1828110218048	fix_pre	0		120	61.0	2.5	/experiments/Knapen_AOT/AOT_stimuli/rescaled_final/2054_rv.mp4	0.0	291.4466118812561	1.0084202289581299
63	274.7663986682892	pulse	0	t		61.0	2.5	/experiments/Knapen_AOT/AOT_stimuli/rescaled_final/2054_rv.mp4	0.0	292.0301995277405	
63	275.19123125076294	movie	1		272	61.0	2.5	/experiments/Knapen_AOT/AOT_stimuli/rescaled_final/2054_rv.mp4	0.0	292.45503211021423	2.492053508758545
63	276.3684060573578	pulse	1	t		61.0	2.5	/experiments/Knapen_AOT/AOT_stimuli/rescaled_final/2054_rv.mp4	0.0	293.6322069168091	
63	277.6832847595215	fix_post	2		12	61.0	2.5	/experiments/Knapen_AOT/AOT_stimuli/rescaled_final/2054_rv.mp4	0.0	294.9470856189728	0.09998178482055664
64	277.78326654434204	fix_pre	0		120	62.0	2.5	/experiments/Knapen_AOT/AOT_stimuli/rescaled_final/2139_rv.mp4	0.0	295.04706740379333	1.008516788482666
64	277.9668719768524	pulse	0	t		62.0	2.5	/experiments/Knapen_AOT/AOT_stimuli/rescaled_final/2139_rv.mp4	0.0	295.2306728363037	
64	278.7917833328247	movie	1		278	62.0	2.5	/experiments/Knapen_AOT/AOT_stimuli/rescaled_final/2139_rv.mp4	0.0	296.055584192276	2.491956949234009
64	279.56541562080383	pulse	1	t		62.0	2.5	/experiments/Knapen_AOT/AOT_stimuli/rescaled_final/2139_rv.mp4	0.0	296.8292164802551	
64	281.16544461250305	pulse	1	t		62.0	2.5	/experiments/Knapen_AOT/AOT_stimuli/rescaled_final/2139_rv.mp4	0.0	298.42924547195435	
64	281.2837402820587	fix_post	2		12	62.0	2.5	/experiments/Knapen_AOT/AOT_stimuli/rescaled_final/2139_rv.mp4	0.0	298.54754114151	0.10002517700195312
65	281.38376545906067	fix_pre	0		120	63.0	2.5	blank	1.0	298.64756631851196	1.0001301765441895
65	282.38389563560486	movie	1		300	63.0	2.5	blank	1.0	299.64769649505615	2.5003790855407715
65	282.7676479816437	pulse	1	t		63.0	2.5	blank	1.0	300.03144884109497	
65	284.36776518821716	pulse	1	t		63.0	2.5	blank	1.0	301.63156604766846	
65	284.88427472114563	fix_post	2		12	63.0	2.5	blank	1.0	302.1480755805969	0.10016965866088867
66	284.9844443798065	fix_pre	0		119	64.0	2.5	/experiments/Knapen_AOT/AOT_stimuli/rescaled_final/1126_fw.mp4	0.0	302.2482452392578	1.0002124309539795
66	285.9681088924408	pulse	0	t		64.0	2.5	/experiments/Knapen_AOT/AOT_stimuli/rescaled_final/1126_fw.mp4	0.0	303.2319097518921	
66	285.9846568107605	movie	1		284	64.0	2.5	/experiments/Knapen_AOT/AOT_stimuli/rescaled_final/1126_fw.mp4	0.0	303.2484576702118	2.5003433227539062
66	287.56703186035156	pulse	1	t		64.0	2.5	/experiments/Knapen_AOT/AOT_stimuli/rescaled_final/1126_fw.mp4	0.0	304.83083271980286	
66	288.4850001335144	fix_post	2		12	64.0	2.5	/experiments/Knapen_AOT/AOT_stimuli/rescaled_final/1126_fw.mp4	0.0	305.7488009929657	0.09987878799438477
67	288.5848789215088	fix_pre	0		120	65.0	2.5	/experiments/Knapen_AOT/AOT_stimuli/rescaled_final/1156_fw.mp4	0.0	305.8486797809601	1.0084562301635742
67	289.1688075065613	pulse	0	t		65.0	2.5	/experiments/Knapen_AOT/AOT_stimuli/rescaled_final/1156_fw.mp4	0.0	306.4326083660126	
67	289.59333515167236	movie	1		279	65.0	2.5	/experiments/Knapen_AOT/AOT_stimuli/rescaled_final/1156_fw.mp4	0.0	306.85713601112366	2.4920220375061035
67	290.7671797275543	pulse	1	t		65.0	2.5	/experiments/Knapen_AOT/AOT_stimuli/rescaled_final/1156_fw.mp4	0.0	308.0309805870056	
67	292.08535718917847	fix_post	2		12	65.0	2.5	/experiments/Knapen_AOT/AOT_stimuli/rescaled_final/1156_fw.mp4	0.0	309.34915804862976	0.10001373291015625
68	292.1853709220886	fix_pre	0		120	66.0	2.5	/experiments/Knapen_AOT/AOT_stimuli/rescaled_final/0692_rv.mp4	0.0	309.4491717815399	1.0084896087646484
68	292.3689136505127	pulse	0	t		66.0	2.5	/experiments/Knapen_AOT/AOT_stimuli/rescaled_final/0692_rv.mp4	0.0	309.632714509964	
68	293.19386053085327	movie	1		279	66.0	2.5	/experiments/Knapen_AOT/AOT_stimuli/rescaled_final/0692_rv.mp4	0.0	310.45766139030457	2.492058277130127
68	293.96944427490234	pulse	1	t		66.0	2.5	/experiments/Knapen_AOT/AOT_stimuli/rescaled_final/0692_rv.mp4	0.0	311.23324513435364	
68	295.5675973892212	pulse	1	t		66.0	2.5	/experiments/Knapen_AOT/AOT_stimuli/rescaled_final/0692_rv.mp4	0.0	312.8313982486725	
68	295.6859188079834	fix_post	2		12	66.0	2.5	/experiments/Knapen_AOT/AOT_stimuli/rescaled_final/0692_rv.mp4	0.0	312.9497196674347	0.10009479522705078
69	295.78601360321045	fix_pre	0		120	67.0	2.5	/experiments/Knapen_AOT/AOT_stimuli/rescaled_final/0507_fw.mp4	0.0	313.04981446266174	1.0084989070892334
69	296.7945125102997	movie	1		275	67.0	2.5	/experiments/Knapen_AOT/AOT_stimuli/rescaled_final/0507_fw.mp4	0.0	314.058313369751	2.4919331073760986
69	297.16958260536194	pulse	1	t		67.0	2.5	/experiments/Knapen_AOT/AOT_stimuli/rescaled_final/0507_fw.mp4	0.0	314.43338346481323	
69	298.76787781715393	pulse	1	t		67.0	2.5	/experiments/Knapen_AOT/AOT_stimuli/rescaled_final/0507_fw.mp4	0.0	316.0316786766052	
69	299.2864456176758	fix_post	2		12	67.0	2.5	/experiments/Knapen_AOT/AOT_stimuli/rescaled_final/0507_fw.mp4	0.0	316.5502464771271	0.10005617141723633
70	299.386501789093	fix_pre	0		119	68.0	2.5	/experiments/Knapen_AOT/AOT_stimuli/rescaled_final/1927_rv.mp4	0.0	316.6503026485443	1.0001873970031738
70	300.37045097351074	pulse	0	t		68.0	2.5	/experiments/Knapen_AOT/AOT_stimuli/rescaled_final/1927_rv.mp4	0.0	317.63425183296204	
70	300.3866891860962	movie	1		275	68.0	2.5	/experiments/Knapen_AOT/AOT_stimuli/rescaled_final/1927_rv.mp4	0.0	317.6504900455475	2.500295877456665
70	301.97016167640686	pulse	1	t		68.0	2.5	/experiments/Knapen_AOT/AOT_stimuli/rescaled_final/1927_rv.mp4	0.0	319.23396253585815	
70	302.88698506355286	fix_post	2		12	68.0	2.5	/experiments/Knapen_AOT/AOT_stimuli/rescaled_final/1927_rv.mp4	0.0	320.15078592300415	0.10006856918334961
71	302.9870536327362	fix_pre	0		120	69.0	2.5	blank	1.0	320.2508544921875	1.0001540184020996
71	303.5629515647888	pulse	0	t		69.0	2.5	blank	1.0	320.8267524242401	
71	303.9872076511383	movie	1		300	69.0	2.5	blank	1.0	321.2510085105896	2.5003223419189453
71	305.16367292404175	pulse	1	t		69.0	2.5	blank	1.0	322.42747378349304	
71	306.48752999305725	fix_post	2		12	69.0	2.5	blank	1.0	323.75133085250854	0.10002803802490234
72	306.58755803108215	fix_pre	0		120	70.0	2.5	/experiments/Knapen_AOT/AOT_stimuli/rescaled_final/1543_rv.mp4	0.0	323.85135889053345	1.0085175037384033
72	306.7631621360779	pulse	0	t		70.0	2.5	/experiments/Knapen_AOT/AOT_stimuli/rescaled_final/1543_rv.mp4	0.0	324.0269629955292	
72	307.59607553482056	movie	1		265	70.0	2.5	/experiments/Knapen_AOT/AOT_stimuli/rescaled_final/1543_rv.mp4	0.0	324.85987639427185	2.4919967651367188
72	308.3631646633148	pulse	1	t		70.0	2.5	/experiments/Knapen_AOT/AOT_stimuli/rescaled_final/1543_rv.mp4	0.0	325.6269655227661	
72	309.96329045295715	pulse	1	t		70.0	2.5	/experiments/Knapen_AOT/AOT_stimuli/rescaled_final/1543_rv.mp4	0.0	327.22709131240845	
72	310.0880722999573	fix_post	2		12	70.0	2.5	/experiments/Knapen_AOT/AOT_stimuli/rescaled_final/1543_rv.mp4	0.0	327.35187315940857	0.10000276565551758
73	310.1880750656128	fix_pre	0		120	71.0	2.5	/experiments/Knapen_AOT/AOT_stimuli/rescaled_final/0812_rv.mp4	0.0	327.4518759250641	1.0085170269012451
73	311.19659209251404	movie	1		277	71.0	2.5	/experiments/Knapen_AOT/AOT_stimuli/rescaled_final/0812_rv.mp4	0.0	328.46039295196533	2.492030143737793
73	311.5640232563019	pulse	1	t		71.0	2.5	/experiments/Knapen_AOT/AOT_stimuli/rescaled_final/0812_rv.mp4	0.0	328.8278241157532	
73	313.1637806892395	pulse	1	t		71.0	2.5	/experiments/Knapen_AOT/AOT_stimuli/rescaled_final/0812_rv.mp4	0.0	330.4275815486908	
73	313.68862223625183	fix_post	2		12	71.0	2.5	/experiments/Knapen_AOT/AOT_stimuli/rescaled_final/0812_rv.mp4	0.0	330.9524230957031	0.10000824928283691
74	313.78863048553467	fix_pre	0		118	72.0	2.5	/experiments/Knapen_AOT/AOT_stimuli/rescaled_final/0853_rv.mp4	0.0	331.05243134498596	0.9918737411499023
74	314.76444935798645	pulse	0	t		72.0	2.5	/experiments/Knapen_AOT/AOT_stimuli/rescaled_final/0853_rv.mp4	0.0	332.02825021743774	
74	314.78050422668457	movie	1		280	72.0	2.5	/experiments/Knapen_AOT/AOT_stimuli/rescaled_final/0853_rv.mp4	0.0	332.04430508613586	2.5002987384796143
74	316.36480832099915	pulse	1	t		72.0	2.5	/experiments/Knapen_AOT/AOT_stimuli/rescaled_final/0853_rv.mp4	0.0	333.62860918045044	
74	317.2808029651642	fix_post	2		12	72.0	2.5	/experiments/Knapen_AOT/AOT_stimuli/rescaled_final/0853_rv.mp4	0.0	334.5446038246155	0.10002779960632324
75	317.3808307647705	fix_pre	0		120	73.0	2.5	/experiments/Knapen_AOT/AOT_stimuli/rescaled_final/0338_rv.mp4	0.0	334.6446316242218	1.008519172668457
75	317.9645130634308	pulse	0	t		73.0	2.5	/experiments/Knapen_AOT/AOT_stimuli/rescaled_final/0338_rv.mp4	0.0	335.2283139228821	
75	318.38934993743896	movie	1		262	73.0	2.5	/experiments/Knapen_AOT/AOT_stimuli/rescaled_final/0338_rv.mp4	0.0	335.65315079689026	2.4920432567596436
75	319.5641520023346	pulse	1	t		73.0	2.5	/experiments/Knapen_AOT/AOT_stimuli/rescaled_final/0338_rv.mp4	0.0	336.8279528617859	
75	320.8813931941986	fix_post	2		12	73.0	2.5	/experiments/Knapen_AOT/AOT_stimuli/rescaled_final/0338_rv.mp4	0.0	338.1451940536499	0.09999275207519531
76	320.9813859462738	fix_pre	0		120	74.0	2.5	/experiments/Knapen_AOT/AOT_stimuli/rescaled_final/0238_rv.mp4	0.0	338.2451868057251	1.0085082054138184
76	321.16498136520386	pulse	0	t		74.0	2.5	/experiments/Knapen_AOT/AOT_stimuli/rescaled_final/0238_rv.mp4	0.0	338.42878222465515	
76	321.9898941516876	movie	1		277	74.0	2.5	/experiments/Knapen_AOT/AOT_stimuli/rescaled_final/0238_rv.mp4	0.0	339.2536950111389	2.492011308670044
76	322.7635793685913	pulse	1	t		74.0	2.5	/experiments/Knapen_AOT/AOT_stimuli/rescaled_final/0238_rv.mp4	0.0	340.0273802280426	
76	324.36378479003906	pulse	1	t		74.0	2.5	/experiments/Knapen_AOT/AOT_stimuli/rescaled_final/0238_rv.mp4	0.0	341.62758564949036	
76	324.48190546035767	fix_post	2		12	74.0	2.5	/experiments/Knapen_AOT/AOT_stimuli/rescaled_final/0238_rv.mp4	0.0	341.74570631980896	0.1001591682434082
77	324.5820646286011	fix_pre	0		120	75.0	2.5	/experiments/Knapen_AOT/AOT_stimuli/rescaled_final/0516_rv.mp4	0.0	341.84586548805237	1.0083646774291992
77	325.5904293060303	movie	1		279	75.0	2.5	/experiments/Knapen_AOT/AOT_stimuli/rescaled_final/0516_rv.mp4	0.0	342.85423016548157	2.4920051097869873
77	325.96413826942444	pulse	1	t		75.0	2.5	/experiments/Knapen_AOT/AOT_stimuli/rescaled_final/0516_rv.mp4	0.0	343.22793912887573	
77	327.5640754699707	pulse	1	t		75.0	2.5	/experiments/Knapen_AOT/AOT_stimuli/rescaled_final/0516_rv.mp4	0.0	344.827876329422	
77	328.08243441581726	fix_post	2		12	75.0	2.5	/experiments/Knapen_AOT/AOT_stimuli/rescaled_final/0516_rv.mp4	0.0	345.34623527526855	0.1000523567199707
78	328.18248677253723	fix_pre	0		119	76.0	2.5	blank	1.0	345.4462876319885	0.9917933940887451
78	329.16726541519165	pulse	0	t		76.0	2.5	blank	1.0	346.43106627464294	
78	329.174280166626	movie	1		301	76.0	2.5	blank	1.0	346.43808102607727	2.508713483810425
78	330.7670187950134	pulse	1	t		76.0	2.5	blank	1.0	348.0308196544647	
78	331.6829936504364	fix_post	2		12	76.0	2.5	blank	1.0	348.9467945098877	0.10001683235168457
79	331.7830104827881	fix_pre	0		120	77.0	2.5	/experiments/Knapen_AOT/AOT_stimuli/rescaled_final/1574_rv.mp4	0.0	349.0468113422394	1.0084755420684814
79	332.3666925430298	pulse	0	t		77.0	2.5	/experiments/Knapen_AOT/AOT_stimuli/rescaled_final/1574_rv.mp4	0.0	349.6304934024811	
79	332.79148602485657	movie	1		282	77.0	2.5	/experiments/Knapen_AOT/AOT_stimuli/rescaled_final/1574_rv.mp4	0.0	350.05528688430786	2.4920401573181152
79	333.9652497768402	pulse	1	t		77.0	2.5	/experiments/Knapen_AOT/AOT_stimuli/rescaled_final/1574_rv.mp4	0.0	351.2290506362915	
79	335.2835261821747	fix_post	2		12	77.0	2.5	/experiments/Knapen_AOT/AOT_stimuli/rescaled_final/1574_rv.mp4	0.0	352.547327041626	0.10003471374511719
80	335.3835608959198	fix_pre	0		120	78.0	2.5	/experiments/Knapen_AOT/AOT_stimuli/rescaled_final/1865_rv.mp4	0.0	352.6473617553711	1.0084831714630127
80	335.5671260356903	pulse	0	t		78.0	2.5	/experiments/Knapen_AOT/AOT_stimuli/rescaled_final/1865_rv.mp4	0.0	352.8309268951416	
80	336.3920440673828	movie	1		281	78.0	2.5	/experiments/Knapen_AOT/AOT_stimuli/rescaled_final/1865_rv.mp4	0.0	353.6558449268341	2.492035388946533
80	337.1658251285553	pulse	1	t		78.0	2.5	/experiments/Knapen_AOT/AOT_stimuli/rescaled_final/1865_rv.mp4	0.0	354.4296259880066	
80	338.766019821167	pulse	1	t		78.0	2.5	/experiments/Knapen_AOT/AOT_stimuli/rescaled_final/1865_rv.mp4	0.0	356.0298206806183	
80	338.88407945632935	fix_post	2		12	78.0	2.5	/experiments/Knapen_AOT/AOT_stimuli/rescaled_final/1865_rv.mp4	0.0	356.14788031578064	0.10001683235168457
81	338.98409628868103	fix_pre	0		120	79.0	2.5	/experiments/Knapen_AOT/AOT_stimuli/rescaled_final/0314_rv.mp4	0.0	356.2478971481323	1.0085036754608154
81	339.99259996414185	movie	1		277	79.0	2.5	/experiments/Knapen_AOT/AOT_stimuli/rescaled_final/0314_rv.mp4	0.0	357.25640082359314	2.4920058250427246
81	340.3664782047272	pulse	1	t		79.0	2.5	/experiments/Knapen_AOT/AOT_stimuli/rescaled_final/0314_rv.mp4	0.0	357.63027906417847	
81	341.9661099910736	pulse	1	t		79.0	2.5	/experiments/Knapen_AOT/AOT_stimuli/rescaled_final/0314_rv.mp4	0.0	359.2299108505249	
81	342.48460578918457	fix_post	2		12	79.0	2.5	/experiments/Knapen_AOT/AOT_stimuli/rescaled_final/0314_rv.mp4	0.0	359.74840664863586	0.10008740425109863
82	342.58469319343567	fix_pre	0		119	80.0	2.5	/experiments/Knapen_AOT/AOT_stimuli/rescaled_final/0869_rv.mp4	0.0	359.84849405288696	1.0001096725463867
82	343.56834268569946	pulse	0	t		80.0	2.5	/experiments/Knapen_AOT/AOT_stimuli/rescaled_final/0869_rv.mp4	0.0	360.83214354515076	
82	343.58480286598206	movie	1		290	80.0	2.5	/experiments/Knapen_AOT/AOT_stimuli/rescaled_final/0869_rv.mp4	0.0	360.84860372543335	2.50044846534729
82	345.16723918914795	pulse	1	t		80.0	2.5	/experiments/Knapen_AOT/AOT_stimuli/rescaled_final/0869_rv.mp4	0.0	362.43104004859924	
82	346.08525133132935	fix_post	2		12	80.0	2.5	/experiments/Knapen_AOT/AOT_stimuli/rescaled_final/0869_rv.mp4	0.0	363.34905219078064	0.0999155044555664
83	346.1851668357849	fix_pre	0		120	81.0	2.5	/experiments/Knapen_AOT/AOT_stimuli/rescaled_final/2168_fw.mp4	0.0	363.4489676952362	1.0085351467132568
83	346.7688024044037	pulse	0	t		81.0	2.5	/experiments/Knapen_AOT/AOT_stimuli/rescaled_final/2168_fw.mp4	0.0	364.032603263855	
83	347.19370198249817	movie	1		271	81.0	2.5	/experiments/Knapen_AOT/AOT_stimuli/rescaled_final/2168_fw.mp4	0.0	364.45750284194946	2.4919962882995605
83	348.36727499961853	pulse	1	t		81.0	2.5	/experiments/Knapen_AOT/AOT_stimuli/rescaled_final/2168_fw.mp4	0.0	365.6310758590698	
83	349.68569827079773	fix_post	2		12	81.0	2.5	/experiments/Knapen_AOT/AOT_stimuli/rescaled_final/2168_fw.mp4	0.0	366.949499130249	0.10007047653198242
84	349.7857687473297	fix_pre	0		120	82.0	2.5	/experiments/Knapen_AOT/AOT_stimuli/rescaled_final/1002_fw.mp4	0.0	367.049569606781	1.0084640979766846
84	349.9692814350128	pulse	0	t		82.0	2.5	/experiments/Knapen_AOT/AOT_stimuli/rescaled_final/1002_fw.mp4	0.0	367.2330822944641	
84	350.7942328453064	movie	1		284	82.0	2.5	/experiments/Knapen_AOT/AOT_stimuli/rescaled_final/1002_fw.mp4	0.0	368.0580337047577	2.492018699645996
84	351.5680022239685	pulse	1	t		82.0	2.5	/experiments/Knapen_AOT/AOT_stimuli/rescaled_final/1002_fw.mp4	0.0	368.8318030834198	
84	353.168000459671	pulse	1	t		82.0	2.5	/experiments/Knapen_AOT/AOT_stimuli/rescaled_final/1002_fw.mp4	0.0	370.4318013191223	
84	353.2862515449524	fix_post	2		12	82.0	2.5	/experiments/Knapen_AOT/AOT_stimuli/rescaled_final/1002_fw.mp4	0.0	370.5500524044037	0.10001969337463379
85	353.386271238327	fix_pre	0		120	83.0	2.5	blank	1.0	370.6500720977783	1.000166893005371
85	354.3864381313324	movie	1		300	83.0	2.5	blank	1.0	371.6502389907837	2.50042986869812
85	354.77003169059753	pulse	1	t		83.0	2.5	blank	1.0	372.0338325500488	
85	356.3702926635742	pulse	1	t		83.0	2.5	blank	1.0	373.6340935230255	
85	356.8868680000305	fix_post	2		12	83.0	2.5	blank	1.0	374.1506688594818	0.09990072250366211
87	356.9867687225342	stim	0		1715					374.2505695819855	14.29384732246399
87	357.9706335067749	pulse	0	t						375.2344343662262	
87	359.563720703125	pulse	0	t						376.8275215625763	
87	361.1634154319763	pulse	0	t						378.4272162914276	
87	362.76359581947327	pulse	0	t						380.02739667892456	
87	364.36384296417236	pulse	0	t						381.62764382362366	
87	365.96378111839294	pulse	0	t						383.22758197784424	
87	367.56371903419495	pulse	0	t						384.82751989364624	
87	369.16399788856506	pulse	0	t						386.42779874801636	
87	370.76421785354614	pulse	0	t						388.02801871299744	
