trial_nr	onset	event_type	phase	response	nr_frames	movie_index	movie_duration	movie_file	blank	onset_abs	duration
0	0.14992308616638184	stim	0		147					22.680052042007446	1.2250139713287354
0	1.3668971061706543	response	0	space						23.89702606201172	
1	1.3749370574951172	stim	0		3219					23.90506601333618	26.824790000915527
1	28.193653106689453	pulse	0	t						50.72378206253052	
1	28.199727058410645	stim	1		1717					50.72985601425171	14.30836796760559
1	29.791598081588745	pulse	1	t						52.32172703742981	
1	31.391573905944824	pulse	1	t						53.92170286178589	
1	32.99157404899597	pulse	1	t						55.521703004837036	
1	34.59158492088318	pulse	1	t						57.12171387672424	
1	36.191548109054565	pulse	1	t						58.72167706489563	
1	37.79157495498657	pulse	1	t						60.32170391082764	
1	39.39152002334595	pulse	1	t						61.92164897918701	
1	40.99140191078186	pulse	1	t						63.521530866622925	
2	42.508095026016235	fix_pre	0		11	0.0	2.5	/experiments/AOT/AOT_stimuli/rescaled_final/1710_fw.mp4	0.0	65.0382239818573	0.09159493446350098
2	42.59147596359253	pulse	0	t		0.0	2.5	/experiments/AOT/AOT_stimuli/rescaled_final/1710_fw.mp4	0.0	65.1216049194336	
2	42.599689960479736	movie	1		245	0.0	2.5	/experiments/AOT/AOT_stimuli/rescaled_final/1710_fw.mp4	0.0	65.1298189163208	2.5083119869232178
2	44.1910560131073	pulse	1	t		0.0	2.5	/experiments/AOT/AOT_stimuli/rescaled_final/1710_fw.mp4	0.0	66.72118496894836	
2	45.108001947402954	fix_post	2		12	0.0	2.5	/experiments/AOT/AOT_stimuli/rescaled_final/1710_fw.mp4	0.0	67.63813090324402	0.09996700286865234
3	45.207968950271606	fix_pre	0		120	1.0	2.5	/experiments/AOT/AOT_stimuli/rescaled_final/1124_fw.mp4	0.0	67.73809790611267	1.0000619888305664
3	45.79150605201721	pulse	0	t		1.0	2.5	/experiments/AOT/AOT_stimuli/rescaled_final/1124_fw.mp4	0.0	68.32163500785828	
3	46.20803093910217	movie	1		247	1.0	2.5	/experiments/AOT/AOT_stimuli/rescaled_final/1124_fw.mp4	0.0	68.73815989494324	2.499958038330078
3	47.391534090042114	pulse	1	t		1.0	2.5	/experiments/AOT/AOT_stimuli/rescaled_final/1124_fw.mp4	0.0	69.92166304588318	
3	48.70798897743225	fix_post	2		12	1.0	2.5	/experiments/AOT/AOT_stimuli/rescaled_final/1124_fw.mp4	0.0	71.23811793327332	0.10005307197570801
4	48.80804204940796	fix_pre	0		120	2.0	2.5	/experiments/AOT/AOT_stimuli/rescaled_final/2002_rv.mp4	0.0	71.33817100524902	0.9994609355926514
4	48.9914710521698	pulse	0	t		2.0	2.5	/experiments/AOT/AOT_stimuli/rescaled_final/2002_rv.mp4	0.0	71.52160000801086	
4	49.80750298500061	movie	1		244	2.0	2.5	/experiments/AOT/AOT_stimuli/rescaled_final/2002_rv.mp4	0.0	72.33763194084167	2.5004611015319824
4	50.591439962387085	pulse	1	t		2.0	2.5	/experiments/AOT/AOT_stimuli/rescaled_final/2002_rv.mp4	0.0	73.12156891822815	
4	52.19005012512207	pulse	1	t		2.0	2.5	/experiments/AOT/AOT_stimuli/rescaled_final/2002_rv.mp4	0.0	74.72017908096313	
4	52.30796408653259	fix_post	2		12	2.0	2.5	/experiments/AOT/AOT_stimuli/rescaled_final/2002_rv.mp4	0.0	74.83809304237366	0.10002398490905762
5	52.40798807144165	fix_pre	0		120	3.0	2.5	/experiments/AOT/AOT_stimuli/rescaled_final/2071_fw.mp4	0.0	74.93811702728271	1.0000598430633545
5	53.408047914505005	movie	1		243	3.0	2.5	/experiments/AOT/AOT_stimuli/rescaled_final/2071_fw.mp4	0.0	75.93817687034607	2.499917984008789
5	53.79082107543945	pulse	1	t		3.0	2.5	/experiments/AOT/AOT_stimuli/rescaled_final/2071_fw.mp4	0.0	76.32095003128052	
5	55.39141297340393	pulse	1	t		3.0	2.5	/experiments/AOT/AOT_stimuli/rescaled_final/2071_fw.mp4	0.0	77.921541929245	
5	55.907965898513794	fix_post	2		12	3.0	2.5	/experiments/AOT/AOT_stimuli/rescaled_final/2071_fw.mp4	0.0	78.43809485435486	0.09993314743041992
6	56.007899045944214	fix_pre	0		119	4.0	2.5	/experiments/AOT/AOT_stimuli/rescaled_final/0275_rv.mp4	0.0	78.53802800178528	0.9916820526123047
6	56.99135708808899	pulse	0	t		4.0	2.5	/experiments/AOT/AOT_stimuli/rescaled_final/0275_rv.mp4	0.0	79.52148604393005	
6	56.99958109855652	movie	1		245	4.0	2.5	/experiments/AOT/AOT_stimuli/rescaled_final/0275_rv.mp4	0.0	79.52971005439758	2.508380889892578
6	58.591325998306274	pulse	1	t		4.0	2.5	/experiments/AOT/AOT_stimuli/rescaled_final/0275_rv.mp4	0.0	81.12145495414734	
6	59.5079619884491	fix_post	2		12	4.0	2.5	/experiments/AOT/AOT_stimuli/rescaled_final/0275_rv.mp4	0.0	82.03809094429016	0.09998106956481934
7	59.607943058013916	fix_pre	0		120	5.0	2.5	/experiments/AOT/AOT_stimuli/rescaled_final/1845_rv.mp4	0.0	82.13807201385498	1.0000379085540771
7	60.19149398803711	pulse	0	t		5.0	2.5	/experiments/AOT/AOT_stimuli/rescaled_final/1845_rv.mp4	0.0	82.72162294387817	
7	60.60798096656799	movie	1		245	5.0	2.5	/experiments/AOT/AOT_stimuli/rescaled_final/1845_rv.mp4	0.0	83.13810992240906	2.499587059020996
7	61.79096698760986	pulse	1	t		5.0	2.5	/experiments/AOT/AOT_stimuli/rescaled_final/1845_rv.mp4	0.0	84.32109594345093	
7	63.10756802558899	fix_post	2		12	5.0	2.5	/experiments/AOT/AOT_stimuli/rescaled_final/1845_rv.mp4	0.0	85.63769698143005	0.09999990463256836
8	63.20756793022156	fix_pre	0		120	6.0	2.5	/experiments/AOT/AOT_stimuli/rescaled_final/2113_fw.mp4	0.0	85.73769688606262	1.0006341934204102
8	63.39100909233093	pulse	0	t		6.0	2.5	/experiments/AOT/AOT_stimuli/rescaled_final/2113_fw.mp4	0.0	85.921138048172	
8	64.20820212364197	movie	1		245	6.0	2.5	/experiments/AOT/AOT_stimuli/rescaled_final/2113_fw.mp4	0.0	86.73833107948303	2.4993197917938232
8	64.99168491363525	pulse	1	t		6.0	2.5	/experiments/AOT/AOT_stimuli/rescaled_final/2113_fw.mp4	0.0	87.52181386947632	
8	66.59136199951172	pulse	1	t		6.0	2.5	/experiments/AOT/AOT_stimuli/rescaled_final/2113_fw.mp4	0.0	89.12149095535278	
8	66.70752191543579	fix_post	2		12	6.0	2.5	/experiments/AOT/AOT_stimuli/rescaled_final/2113_fw.mp4	0.0	89.23765087127686	0.10036897659301758
9	66.80789089202881	fix_pre	0		120	7.0	2.5	blank	1.0	89.33801984786987	1.0000011920928955
9	67.8078920841217	movie	1		300	7.0	2.5	blank	1.0	90.33802103996277	2.4999489784240723
9	68.19129800796509	pulse	1	t		7.0	2.5	blank	1.0	90.72142696380615	
9	69.7913990020752	pulse	1	t		7.0	2.5	blank	1.0	92.32152795791626	
9	70.30784106254578	fix_post	2		12	7.0	2.5	blank	1.0	92.83797001838684	0.09997892379760742
10	70.40781998634338	fix_pre	0		119	8.0	2.5	/experiments/AOT/AOT_stimuli/rescaled_final/1998_fw.mp4	0.0	92.93794894218445	0.991692066192627
10	71.39128398895264	pulse	0	t		8.0	2.5	/experiments/AOT/AOT_stimuli/rescaled_final/1998_fw.mp4	0.0	93.9214129447937	
10	71.39951205253601	movie	1		244	8.0	2.5	/experiments/AOT/AOT_stimuli/rescaled_final/1998_fw.mp4	0.0	93.92964100837708	2.507938861846924
10	72.99093294143677	pulse	1	t		8.0	2.5	/experiments/AOT/AOT_stimuli/rescaled_final/1998_fw.mp4	0.0	95.52106189727783	
10	73.90745091438293	fix_post	2		12	8.0	2.5	/experiments/AOT/AOT_stimuli/rescaled_final/1998_fw.mp4	0.0	96.437579870224	0.10030913352966309
11	74.0077600479126	fix_pre	0		120	9.0	2.5	/experiments/AOT/AOT_stimuli/rescaled_final/1033_fw.mp4	0.0	96.53788900375366	1.0000638961791992
11	74.59141898155212	pulse	0	t		9.0	2.5	/experiments/AOT/AOT_stimuli/rescaled_final/1033_fw.mp4	0.0	97.12154793739319	
11	75.0078239440918	movie	1		244	9.0	2.5	/experiments/AOT/AOT_stimuli/rescaled_final/1033_fw.mp4	0.0	97.53795289993286	2.500005006790161
11	76.19129490852356	pulse	1	t		9.0	2.5	/experiments/AOT/AOT_stimuli/rescaled_final/1033_fw.mp4	0.0	98.72142386436462	
11	77.50782895088196	fix_post	2		12	9.0	2.5	/experiments/AOT/AOT_stimuli/rescaled_final/1033_fw.mp4	0.0	100.03795790672302	0.10005712509155273
12	77.60788607597351	fix_pre	0		120	10.0	2.5	/experiments/AOT/AOT_stimuli/rescaled_final/0988_rv.mp4	0.0	100.13801503181458	0.9998838901519775
12	77.7912929058075	pulse	0	t		10.0	2.5	/experiments/AOT/AOT_stimuli/rescaled_final/0988_rv.mp4	0.0	100.32142186164856	
12	78.60776996612549	movie	1		242	10.0	2.5	/experiments/AOT/AOT_stimuli/rescaled_final/0988_rv.mp4	0.0	101.13789892196655	2.5000791549682617
12	79.39130592346191	pulse	1	t		10.0	2.5	/experiments/AOT/AOT_stimuli/rescaled_final/0988_rv.mp4	0.0	101.92143487930298	
12	80.98959398269653	pulse	1	t		10.0	2.5	/experiments/AOT/AOT_stimuli/rescaled_final/0988_rv.mp4	0.0	103.5197229385376	
12	81.10784912109375	fix_post	2		12	10.0	2.5	/experiments/AOT/AOT_stimuli/rescaled_final/0988_rv.mp4	0.0	103.63797807693481	0.09987783432006836
13	81.20772695541382	fix_pre	0		120	11.0	2.5	/experiments/AOT/AOT_stimuli/rescaled_final/0837_rv.mp4	0.0	103.73785591125488	1.0000791549682617
13	82.20780611038208	movie	1		243	11.0	2.5	/experiments/AOT/AOT_stimuli/rescaled_final/0837_rv.mp4	0.0	104.73793506622314	2.499945878982544
13	82.59102201461792	pulse	1	t		11.0	2.5	/experiments/AOT/AOT_stimuli/rescaled_final/0837_rv.mp4	0.0	105.12115097045898	
13	84.19141602516174	pulse	1	t		11.0	2.5	/experiments/AOT/AOT_stimuli/rescaled_final/0837_rv.mp4	0.0	106.72154498100281	
13	84.70775198936462	fix_post	2		12	11.0	2.5	/experiments/AOT/AOT_stimuli/rescaled_final/0837_rv.mp4	0.0	107.23788094520569	0.10008406639099121
14	84.80783605575562	fix_pre	0		119	12.0	2.5	blank	1.0	107.33796501159668	0.9915928840637207
14	85.79130911827087	pulse	0	t		12.0	2.5	blank	1.0	108.32143807411194	
14	85.79942893981934	movie	1		301	12.0	2.5	blank	1.0	108.3295578956604	2.5083541870117188
14	87.39126396179199	pulse	1	t		12.0	2.5	blank	1.0	109.92139291763306	
14	88.30778312683105	fix_post	2		12	12.0	2.5	blank	1.0	110.83791208267212	0.10002779960632324
15	88.40781092643738	fix_pre	0		120	13.0	2.5	/experiments/AOT/AOT_stimuli/rescaled_final/1112_rv.mp4	0.0	110.93793988227844	0.9999501705169678
15	88.99132299423218	pulse	0	t		13.0	2.5	/experiments/AOT/AOT_stimuli/rescaled_final/1112_rv.mp4	0.0	111.52145195007324	
15	89.40776109695435	movie	1		243	13.0	2.5	/experiments/AOT/AOT_stimuli/rescaled_final/1112_rv.mp4	0.0	111.93789005279541	2.500011920928955
15	90.59137105941772	pulse	1	t		13.0	2.5	/experiments/AOT/AOT_stimuli/rescaled_final/1112_rv.mp4	0.0	113.12150001525879	
15	91.9077730178833	fix_post	2		12	13.0	2.5	/experiments/AOT/AOT_stimuli/rescaled_final/1112_rv.mp4	0.0	114.43790197372437	0.09998607635498047
16	92.00775909423828	fix_pre	0		120	14.0	2.5	/experiments/AOT/AOT_stimuli/rescaled_final/0446_fw.mp4	0.0	114.53788805007935	0.9996190071105957
16	92.1913800239563	pulse	0	t		14.0	2.5	/experiments/AOT/AOT_stimuli/rescaled_final/0446_fw.mp4	0.0	114.72150897979736	
16	93.00737810134888	movie	1		245	14.0	2.5	/experiments/AOT/AOT_stimuli/rescaled_final/0446_fw.mp4	0.0	115.53750705718994	2.500437021255493
16	93.79122805595398	pulse	1	t		14.0	2.5	/experiments/AOT/AOT_stimuli/rescaled_final/0446_fw.mp4	0.0	116.32135701179504	
16	95.38969302177429	pulse	1	t		14.0	2.5	/experiments/AOT/AOT_stimuli/rescaled_final/0446_fw.mp4	0.0	117.91982197761536	
16	95.50781512260437	fix_post	2		12	14.0	2.5	/experiments/AOT/AOT_stimuli/rescaled_final/0446_fw.mp4	0.0	118.03794407844543	0.09996986389160156
17	95.60778498649597	fix_pre	0		120	15.0	2.5	/experiments/AOT/AOT_stimuli/rescaled_final/0261_fw.mp4	0.0	118.13791394233704	1.0000250339508057
17	96.60781002044678	movie	1		246	15.0	2.5	/experiments/AOT/AOT_stimuli/rescaled_final/0261_fw.mp4	0.0	119.13793897628784	2.4999210834503174
17	96.99088597297668	pulse	1	t		15.0	2.5	/experiments/AOT/AOT_stimuli/rescaled_final/0261_fw.mp4	0.0	119.52101492881775	
17	98.59118700027466	pulse	1	t		15.0	2.5	/experiments/AOT/AOT_stimuli/rescaled_final/0261_fw.mp4	0.0	121.12131595611572	
17	99.1077311038971	fix_post	2		12	15.0	2.5	/experiments/AOT/AOT_stimuli/rescaled_final/0261_fw.mp4	0.0	121.63786005973816	0.10004997253417969
18	99.20778107643127	fix_pre	0		119	16.0	2.5	/experiments/AOT/AOT_stimuli/rescaled_final/0679_fw.mp4	0.0	121.73791003227234	0.9916629791259766
18	100.19122791290283	pulse	0	t		16.0	2.5	/experiments/AOT/AOT_stimuli/rescaled_final/0679_fw.mp4	0.0	122.7213568687439	
18	100.19944405555725	movie	1		245	16.0	2.5	/experiments/AOT/AOT_stimuli/rescaled_final/0679_fw.mp4	0.0	122.72957301139832	2.507883071899414
18	101.7909939289093	pulse	1	t		16.0	2.5	/experiments/AOT/AOT_stimuli/rescaled_final/0679_fw.mp4	0.0	124.32112288475037	
18	102.70732712745667	fix_post	2		12	16.0	2.5	/experiments/AOT/AOT_stimuli/rescaled_final/0679_fw.mp4	0.0	125.23745608329773	0.10041189193725586
19	102.80773901939392	fix_pre	0		120	17.0	2.5	/experiments/AOT/AOT_stimuli/rescaled_final/0882_rv.mp4	0.0	125.33786797523499	0.9999809265136719
19	103.39125299453735	pulse	0	t		17.0	2.5	/experiments/AOT/AOT_stimuli/rescaled_final/0882_rv.mp4	0.0	125.92138195037842	
19	103.80771994590759	movie	1		245	17.0	2.5	/experiments/AOT/AOT_stimuli/rescaled_final/0882_rv.mp4	0.0	126.33784890174866	2.4999539852142334
19	104.99118399620056	pulse	1	t		17.0	2.5	/experiments/AOT/AOT_stimuli/rescaled_final/0882_rv.mp4	0.0	127.52131295204163	
19	106.30767393112183	fix_post	2		12	17.0	2.5	/experiments/AOT/AOT_stimuli/rescaled_final/0882_rv.mp4	0.0	128.8378028869629	0.09996700286865234
20	106.40764093399048	fix_pre	0		120	18.0	2.5	/experiments/AOT/AOT_stimuli/rescaled_final/1947_rv.mp4	0.0	128.93776988983154	1.0000791549682617
20	106.5911340713501	pulse	0	t		18.0	2.5	/experiments/AOT/AOT_stimuli/rescaled_final/1947_rv.mp4	0.0	129.12126302719116	
20	107.40772008895874	movie	1		244	18.0	2.5	/experiments/AOT/AOT_stimuli/rescaled_final/1947_rv.mp4	0.0	129.9378490447998	2.4998958110809326
20	108.19110012054443	pulse	1	t		18.0	2.5	/experiments/AOT/AOT_stimuli/rescaled_final/1947_rv.mp4	0.0	130.7212290763855	
20	109.78978991508484	pulse	1	t		18.0	2.5	/experiments/AOT/AOT_stimuli/rescaled_final/1947_rv.mp4	0.0	132.3199188709259	
20	109.90761590003967	fix_post	2		12	18.0	2.5	/experiments/AOT/AOT_stimuli/rescaled_final/1947_rv.mp4	0.0	132.43774485588074	0.10003018379211426
21	110.00764608383179	fix_pre	0		120	19.0	2.5	/experiments/AOT/AOT_stimuli/rescaled_final/1628_fw.mp4	0.0	132.53777503967285	1.0000410079956055
21	111.00768709182739	movie	1		243	19.0	2.5	/experiments/AOT/AOT_stimuli/rescaled_final/1628_fw.mp4	0.0	133.53781604766846	2.5000038146972656
21	111.39075589179993	pulse	1	t		19.0	2.5	/experiments/AOT/AOT_stimuli/rescaled_final/1628_fw.mp4	0.0	133.920884847641	
21	112.99110102653503	pulse	1	t		19.0	2.5	/experiments/AOT/AOT_stimuli/rescaled_final/1628_fw.mp4	0.0	135.5212299823761	
21	113.50769090652466	fix_post	2		12	19.0	2.5	/experiments/AOT/AOT_stimuli/rescaled_final/1628_fw.mp4	0.0	136.03781986236572	0.09994912147521973
22	113.60764002799988	fix_pre	0		119	20.0	2.5	blank	1.0	136.13776898384094	0.9916799068450928
22	114.59123611450195	pulse	0	t		20.0	2.5	blank	1.0	137.12136507034302	
22	114.59931993484497	movie	1		301	20.0	2.5	blank	1.0	137.12944889068604	2.508336067199707
22	116.19116306304932	pulse	1	t		20.0	2.5	blank	1.0	138.72129201889038	
22	117.10765600204468	fix_post	2		12	20.0	2.5	blank	1.0	139.63778495788574	0.09998798370361328
23	117.20764398574829	fix_pre	0		120	21.0	2.5	/experiments/AOT/AOT_stimuli/rescaled_final/0937_fw.mp4	0.0	139.73777294158936	1.0000100135803223
23	117.79116296768188	pulse	0	t		21.0	2.5	/experiments/AOT/AOT_stimuli/rescaled_final/0937_fw.mp4	0.0	140.32129192352295	
23	118.20765399932861	movie	1		243	21.0	2.5	/experiments/AOT/AOT_stimuli/rescaled_final/0937_fw.mp4	0.0	140.73778295516968	2.499891996383667
23	119.39131593704224	pulse	1	t		21.0	2.5	/experiments/AOT/AOT_stimuli/rescaled_final/0937_fw.mp4	0.0	141.9214448928833	
23	120.70754599571228	fix_post	2		12	21.0	2.5	/experiments/AOT/AOT_stimuli/rescaled_final/0937_fw.mp4	0.0	143.23767495155334	0.10039806365966797
24	120.80794405937195	fix_pre	0		120	22.0	2.5	/experiments/AOT/AOT_stimuli/rescaled_final/1917_rv.mp4	0.0	143.338073015213	0.9997498989105225
24	120.99111104011536	pulse	0	t		22.0	2.5	/experiments/AOT/AOT_stimuli/rescaled_final/1917_rv.mp4	0.0	143.52123999595642	
24	121.80769395828247	movie	1		245	22.0	2.5	/experiments/AOT/AOT_stimuli/rescaled_final/1917_rv.mp4	0.0	144.33782291412354	2.4998581409454346
24	122.59108996391296	pulse	1	t		22.0	2.5	/experiments/AOT/AOT_stimuli/rescaled_final/1917_rv.mp4	0.0	145.12121891975403	
24	124.19111704826355	pulse	1	t		22.0	2.5	/experiments/AOT/AOT_stimuli/rescaled_final/1917_rv.mp4	0.0	146.72124600410461	
24	124.3075520992279	fix_post	2		12	22.0	2.5	/experiments/AOT/AOT_stimuli/rescaled_final/1917_rv.mp4	0.0	146.83768105506897	0.10001802444458008
25	124.40757012367249	fix_pre	0		120	23.0	2.5	/experiments/AOT/AOT_stimuli/rescaled_final/1030_rv.mp4	0.0	146.93769907951355	1.0000529289245605
25	125.40762305259705	movie	1		244	23.0	2.5	/experiments/AOT/AOT_stimuli/rescaled_final/1030_rv.mp4	0.0	147.9377520084381	2.4999918937683105
25	125.79061794281006	pulse	1	t		23.0	2.5	/experiments/AOT/AOT_stimuli/rescaled_final/1030_rv.mp4	0.0	148.32074689865112	
25	127.39100003242493	pulse	1	t		23.0	2.5	/experiments/AOT/AOT_stimuli/rescaled_final/1030_rv.mp4	0.0	149.921128988266	
25	127.90761494636536	fix_post	2		12	23.0	2.5	/experiments/AOT/AOT_stimuli/rescaled_final/1030_rv.mp4	0.0	150.43774390220642	0.09989809989929199
26	128.00751304626465	fix_pre	0		119	24.0	2.5	/experiments/AOT/AOT_stimuli/rescaled_final/0571_rv.mp4	0.0	150.5376420021057	0.991710901260376
26	128.9911630153656	pulse	0	t		24.0	2.5	/experiments/AOT/AOT_stimuli/rescaled_final/0571_rv.mp4	0.0	151.52129197120667	
26	128.99922394752502	movie	1		244	24.0	2.5	/experiments/AOT/AOT_stimuli/rescaled_final/0571_rv.mp4	0.0	151.5293529033661	2.5083110332489014
26	130.59083199501038	pulse	1	t		24.0	2.5	/experiments/AOT/AOT_stimuli/rescaled_final/0571_rv.mp4	0.0	153.12096095085144	
26	131.50753498077393	fix_post	2		12	24.0	2.5	/experiments/AOT/AOT_stimuli/rescaled_final/0571_rv.mp4	0.0	154.037663936615	0.09998202323913574
27	131.60751700401306	fix_pre	0		120	25.0	2.5	/experiments/AOT/AOT_stimuli/rescaled_final/1239_fw.mp4	0.0	154.13764595985413	0.9999809265136719
27	132.19103503227234	pulse	0	t		25.0	2.5	/experiments/AOT/AOT_stimuli/rescaled_final/1239_fw.mp4	0.0	154.7211639881134	
27	132.60749793052673	movie	1		243	25.0	2.5	/experiments/AOT/AOT_stimuli/rescaled_final/1239_fw.mp4	0.0	155.1376268863678	2.5000550746917725
27	133.79112005233765	pulse	1	t		25.0	2.5	/experiments/AOT/AOT_stimuli/rescaled_final/1239_fw.mp4	0.0	156.3212490081787	
27	135.1075530052185	fix_post	2		12	25.0	2.5	/experiments/AOT/AOT_stimuli/rescaled_final/1239_fw.mp4	0.0	157.63768196105957	0.10001492500305176
28	135.20756793022156	fix_pre	0		120	26.0	2.5	blank	1.0	157.73769688606262	1.0000240802764893
28	135.3910529613495	pulse	0	t		26.0	2.5	blank	1.0	157.92118191719055	
28	136.20759201049805	movie	1		300	26.0	2.5	blank	1.0	158.7377209663391	2.499882936477661
28	136.99108600616455	pulse	1	t		26.0	2.5	blank	1.0	159.52121496200562	
28	138.59104108810425	pulse	1	t		26.0	2.5	blank	1.0	161.1211700439453	
28	138.7074749469757	fix_post	2		12	26.0	2.5	blank	1.0	161.23760390281677	0.10013318061828613
29	138.807608127594	fix_pre	0		120	27.0	2.5	/experiments/AOT/AOT_stimuli/rescaled_final/1023_fw.mp4	0.0	161.33773708343506	0.9999709129333496
29	139.80757904052734	movie	1		243	27.0	2.5	/experiments/AOT/AOT_stimuli/rescaled_final/1023_fw.mp4	0.0	162.3377079963684	2.499880075454712
29	140.19196796417236	pulse	1	t		27.0	2.5	/experiments/AOT/AOT_stimuli/rescaled_final/1023_fw.mp4	0.0	162.72209692001343	
29	141.79102301597595	pulse	1	t		27.0	2.5	/experiments/AOT/AOT_stimuli/rescaled_final/1023_fw.mp4	0.0	164.32115197181702	
29	142.30745911598206	fix_post	2		12	27.0	2.5	/experiments/AOT/AOT_stimuli/rescaled_final/1023_fw.mp4	0.0	164.83758807182312	0.10005784034729004
30	142.40751695632935	fix_pre	0		119	28.0	2.5	/experiments/AOT/AOT_stimuli/rescaled_final/0564_rv.mp4	0.0	164.9376459121704	0.991642951965332
30	143.39096093177795	pulse	0	t		28.0	2.5	/experiments/AOT/AOT_stimuli/rescaled_final/0564_rv.mp4	0.0	165.92108988761902	
30	143.39915990829468	movie	1		245	28.0	2.5	/experiments/AOT/AOT_stimuli/rescaled_final/0564_rv.mp4	0.0	165.92928886413574	2.508273124694824
30	144.99059104919434	pulse	1	t		28.0	2.5	/experiments/AOT/AOT_stimuli/rescaled_final/0564_rv.mp4	0.0	167.5207200050354	
30	145.9074330329895	fix_post	2		12	28.0	2.5	/experiments/AOT/AOT_stimuli/rescaled_final/0564_rv.mp4	0.0	168.43756198883057	0.10003805160522461
31	146.00747108459473	fix_pre	0		120	29.0	2.5	/experiments/AOT/AOT_stimuli/rescaled_final/1183_rv.mp4	0.0	168.5376000404358	0.9999778270721436
31	146.59101510047913	pulse	0	t		29.0	2.5	/experiments/AOT/AOT_stimuli/rescaled_final/1183_rv.mp4	0.0	169.1211440563202	
31	147.00744891166687	movie	1		244	29.0	2.5	/experiments/AOT/AOT_stimuli/rescaled_final/1183_rv.mp4	0.0	169.53757786750793	2.5000481605529785
31	148.19109511375427	pulse	1	t		29.0	2.5	/experiments/AOT/AOT_stimuli/rescaled_final/1183_rv.mp4	0.0	170.72122406959534	
31	149.50749707221985	fix_post	2		12	29.0	2.5	/experiments/AOT/AOT_stimuli/rescaled_final/1183_rv.mp4	0.0	172.0376260280609	0.09988689422607422
32	149.60738396644592	fix_pre	0		120	30.0	2.5	/experiments/AOT/AOT_stimuli/rescaled_final/1356_rv.mp4	0.0	172.137512922287	1.0001559257507324
32	149.79097700119019	pulse	0	t		30.0	2.5	/experiments/AOT/AOT_stimuli/rescaled_final/1356_rv.mp4	0.0	172.32110595703125	
32	150.60753989219666	movie	1		244	30.0	2.5	/experiments/AOT/AOT_stimuli/rescaled_final/1356_rv.mp4	0.0	173.13766884803772	2.499876022338867
32	151.39089703559875	pulse	1	t		30.0	2.5	/experiments/AOT/AOT_stimuli/rescaled_final/1356_rv.mp4	0.0	173.92102599143982	
32	152.9897038936615	pulse	1	t		30.0	2.5	/experiments/AOT/AOT_stimuli/rescaled_final/1356_rv.mp4	0.0	175.51983284950256	
32	153.10741591453552	fix_post	2		12	30.0	2.5	/experiments/AOT/AOT_stimuli/rescaled_final/1356_rv.mp4	0.0	175.6375448703766	0.10005021095275879
33	153.20746612548828	fix_pre	0		120	31.0	2.5	/experiments/AOT/AOT_stimuli/rescaled_final/1504_fw.mp4	0.0	175.73759508132935	1.0000109672546387
33	154.20747709274292	movie	1		245	31.0	2.5	/experiments/AOT/AOT_stimuli/rescaled_final/1504_fw.mp4	0.0	176.73760604858398	2.4999749660491943
33	154.59052395820618	pulse	1	t		31.0	2.5	/experiments/AOT/AOT_stimuli/rescaled_final/1504_fw.mp4	0.0	177.12065291404724	
33	156.19089889526367	pulse	1	t		31.0	2.5	/experiments/AOT/AOT_stimuli/rescaled_final/1504_fw.mp4	0.0	178.72102785110474	
33	156.70745205879211	fix_post	2		12	31.0	2.5	/experiments/AOT/AOT_stimuli/rescaled_final/1504_fw.mp4	0.0	179.23758101463318	0.09999990463256836
34	156.80745196342468	fix_pre	0		119	32.0	2.5	/experiments/AOT/AOT_stimuli/rescaled_final/1998_rv.mp4	0.0	179.33758091926575	0.9917480945587158
34	157.7909541130066	pulse	0	t		32.0	2.5	/experiments/AOT/AOT_stimuli/rescaled_final/1998_rv.mp4	0.0	180.32108306884766	
34	157.7992000579834	movie	1		244	32.0	2.5	/experiments/AOT/AOT_stimuli/rescaled_final/1998_rv.mp4	0.0	180.32932901382446	2.5082709789276123
34	159.39232397079468	pulse	1	t		32.0	2.5	/experiments/AOT/AOT_stimuli/rescaled_final/1998_rv.mp4	0.0	181.92245292663574	
34	160.307471036911	fix_post	2		12	32.0	2.5	/experiments/AOT/AOT_stimuli/rescaled_final/1998_rv.mp4	0.0	182.83759999275208	0.09995603561401367
35	160.40742707252502	fix_pre	0		120	33.0	2.5	blank	1.0	182.9375560283661	1.0000388622283936
35	160.9909589290619	pulse	0	t		33.0	2.5	blank	1.0	183.52108788490295	
35	161.40746593475342	movie	1		300	33.0	2.5	blank	1.0	183.93759489059448	2.4999780654907227
35	162.59092903137207	pulse	1	t		33.0	2.5	blank	1.0	185.12105798721313	
35	163.90744400024414	fix_post	2		12	33.0	2.5	blank	1.0	186.4375729560852	0.10000395774841309
36	164.00744795799255	fix_pre	0		120	34.0	2.5	/experiments/AOT/AOT_stimuli/rescaled_final/0567_rv.mp4	0.0	186.53757691383362	0.9999690055847168
36	164.19090795516968	pulse	0	t		34.0	2.5	/experiments/AOT/AOT_stimuli/rescaled_final/0567_rv.mp4	0.0	186.72103691101074	
36	165.00741696357727	movie	1		244	34.0	2.5	/experiments/AOT/AOT_stimuli/rescaled_final/0567_rv.mp4	0.0	187.53754591941833	2.4999821186065674
36	165.79092502593994	pulse	1	t		34.0	2.5	/experiments/AOT/AOT_stimuli/rescaled_final/0567_rv.mp4	0.0	188.321053981781	
36	167.38946795463562	pulse	1	t		34.0	2.5	/experiments/AOT/AOT_stimuli/rescaled_final/0567_rv.mp4	0.0	189.91959691047668	
36	167.50739908218384	fix_post	2		12	34.0	2.5	/experiments/AOT/AOT_stimuli/rescaled_final/0567_rv.mp4	0.0	190.0375280380249	0.09995698928833008
37	167.60735607147217	fix_pre	0		120	35.0	2.5	/experiments/AOT/AOT_stimuli/rescaled_final/0576_rv.mp4	0.0	190.13748502731323	1.0001089572906494
37	168.60746502876282	movie	1		245	35.0	2.5	/experiments/AOT/AOT_stimuli/rescaled_final/0576_rv.mp4	0.0	191.13759398460388	2.5000290870666504
37	168.99054503440857	pulse	1	t		35.0	2.5	/experiments/AOT/AOT_stimuli/rescaled_final/0576_rv.mp4	0.0	191.52067399024963	
37	170.59080290794373	pulse	1	t		35.0	2.5	/experiments/AOT/AOT_stimuli/rescaled_final/0576_rv.mp4	0.0	193.1209318637848	
37	171.10749411582947	fix_post	2		12	35.0	2.5	/experiments/AOT/AOT_stimuli/rescaled_final/0576_rv.mp4	0.0	193.63762307167053	0.09998893737792969
38	171.2074830532074	fix_pre	0		119	36.0	2.5	/experiments/AOT/AOT_stimuli/rescaled_final/2095_rv.mp4	0.0	193.73761200904846	0.9915299415588379
38	172.19093799591064	pulse	0	t		36.0	2.5	/experiments/AOT/AOT_stimuli/rescaled_final/2095_rv.mp4	0.0	194.7210669517517	
38	172.19901299476624	movie	1		246	36.0	2.5	/experiments/AOT/AOT_stimuli/rescaled_final/2095_rv.mp4	0.0	194.7291419506073	2.5083811283111572
38	173.79159307479858	pulse	1	t		36.0	2.5	/experiments/AOT/AOT_stimuli/rescaled_final/2095_rv.mp4	0.0	196.32172203063965	
38	174.7073941230774	fix_post	2		12	36.0	2.5	/experiments/AOT/AOT_stimuli/rescaled_final/2095_rv.mp4	0.0	197.23752307891846	0.09963393211364746
39	174.80702805519104	fix_pre	0		120	37.0	2.5	/experiments/AOT/AOT_stimuli/rescaled_final/0576_fw.mp4	0.0	197.3371570110321	1.000488042831421
39	175.39100289344788	pulse	0	t		37.0	2.5	/experiments/AOT/AOT_stimuli/rescaled_final/0576_fw.mp4	0.0	197.92113184928894	
39	175.80751609802246	movie	1		245	37.0	2.5	/experiments/AOT/AOT_stimuli/rescaled_final/0576_fw.mp4	0.0	198.33764505386353	2.499835968017578
39	176.99082207679749	pulse	1	t		37.0	2.5	/experiments/AOT/AOT_stimuli/rescaled_final/0576_fw.mp4	0.0	199.52095103263855	
39	178.30735206604004	fix_post	2		12	37.0	2.5	/experiments/AOT/AOT_stimuli/rescaled_final/0576_fw.mp4	0.0	200.8374810218811	0.09996485710144043
40	178.40731692314148	fix_pre	0		120	38.0	2.5	/experiments/AOT/AOT_stimuli/rescaled_final/1145_fw.mp4	0.0	200.93744587898254	1.0000221729278564
40	178.59077906608582	pulse	0	t		38.0	2.5	/experiments/AOT/AOT_stimuli/rescaled_final/1145_fw.mp4	0.0	201.12090802192688	
40	179.40733909606934	movie	1		244	38.0	2.5	/experiments/AOT/AOT_stimuli/rescaled_final/1145_fw.mp4	0.0	201.9374680519104	2.4999279975891113
40	180.19077706336975	pulse	1	t		38.0	2.5	/experiments/AOT/AOT_stimuli/rescaled_final/1145_fw.mp4	0.0	202.72090601921082	
40	181.79040694236755	pulse	1	t		38.0	2.5	/experiments/AOT/AOT_stimuli/rescaled_final/1145_fw.mp4	0.0	204.32053589820862	
40	181.90726709365845	fix_post	2		12	38.0	2.5	/experiments/AOT/AOT_stimuli/rescaled_final/1145_fw.mp4	0.0	204.4373960494995	0.10007095336914062
41	182.0073380470276	fix_pre	0		120	39.0	2.5	/experiments/AOT/AOT_stimuli/rescaled_final/0988_fw.mp4	0.0	204.53746700286865	0.9999408721923828
41	183.00727891921997	movie	1		244	39.0	2.5	/experiments/AOT/AOT_stimuli/rescaled_final/0988_fw.mp4	0.0	205.53740787506104	2.500075101852417
41	183.3905110359192	pulse	1	t		39.0	2.5	/experiments/AOT/AOT_stimuli/rescaled_final/0988_fw.mp4	0.0	205.92063999176025	
41	184.99078106880188	pulse	1	t		39.0	2.5	/experiments/AOT/AOT_stimuli/rescaled_final/0988_fw.mp4	0.0	207.52091002464294	
41	185.5073540210724	fix_post	2		12	39.0	2.5	/experiments/AOT/AOT_stimuli/rescaled_final/0988_fw.mp4	0.0	208.03748297691345	0.09994292259216309
42	185.60729694366455	fix_pre	0		119	40.0	2.5	/experiments/AOT/AOT_stimuli/rescaled_final/1969_rv.mp4	0.0	208.13742589950562	0.9916491508483887
42	186.5907440185547	pulse	0	t		40.0	2.5	/experiments/AOT/AOT_stimuli/rescaled_final/1969_rv.mp4	0.0	209.12087297439575	
42	186.59894609451294	movie	1		249	40.0	2.5	/experiments/AOT/AOT_stimuli/rescaled_final/1969_rv.mp4	0.0	209.129075050354	2.5083580017089844
42	188.19072103500366	pulse	1	t		40.0	2.5	/experiments/AOT/AOT_stimuli/rescaled_final/1969_rv.mp4	0.0	210.72084999084473	
42	189.10730409622192	fix_post	2		12	40.0	2.5	/experiments/AOT/AOT_stimuli/rescaled_final/1969_rv.mp4	0.0	211.637433052063	0.09994292259216309
43	189.2072470188141	fix_pre	0		120	41.0	2.5	blank	1.0	211.73737597465515	0.9999909400939941
43	189.79079794883728	pulse	0	t		41.0	2.5	blank	1.0	212.32092690467834	
43	190.20723795890808	movie	1		300	41.0	2.5	blank	1.0	212.73736691474915	2.4999520778656006
43	191.39079189300537	pulse	1	t		41.0	2.5	blank	1.0	213.92092084884644	
43	192.70719003677368	fix_post	2		12	41.0	2.5	blank	1.0	215.23731899261475	0.10002589225769043
44	192.80721592903137	fix_pre	0		120	42.0	2.5	/experiments/AOT/AOT_stimuli/rescaled_final/0988_rv.mp4	0.0	215.33734488487244	0.9999740123748779
44	192.99072790145874	pulse	0	t		42.0	2.5	/experiments/AOT/AOT_stimuli/rescaled_final/0988_rv.mp4	0.0	215.5208568572998	
44	193.80718994140625	movie	1		243	42.0	2.5	/experiments/AOT/AOT_stimuli/rescaled_final/0988_rv.mp4	0.0	216.33731889724731	2.500030040740967
44	194.59077191352844	pulse	1	t		42.0	2.5	/experiments/AOT/AOT_stimuli/rescaled_final/0988_rv.mp4	0.0	217.1209008693695	
44	196.18924808502197	pulse	1	t		42.0	2.5	/experiments/AOT/AOT_stimuli/rescaled_final/0988_rv.mp4	0.0	218.71937704086304	
44	196.30721998214722	fix_post	2		12	42.0	2.5	/experiments/AOT/AOT_stimuli/rescaled_final/0988_rv.mp4	0.0	218.83734893798828	0.10002803802490234
45	196.40724802017212	fix_pre	0		120	43.0	2.5	/experiments/AOT/AOT_stimuli/rescaled_final/1324_fw.mp4	0.0	218.93737697601318	0.9996750354766846
45	197.4069230556488	movie	1		244	43.0	2.5	/experiments/AOT/AOT_stimuli/rescaled_final/1324_fw.mp4	0.0	219.93705201148987	2.5003609657287598
45	197.79175209999084	pulse	1	t		43.0	2.5	/experiments/AOT/AOT_stimuli/rescaled_final/1324_fw.mp4	0.0	220.3218810558319	
45	199.39080595970154	pulse	1	t		43.0	2.5	/experiments/AOT/AOT_stimuli/rescaled_final/1324_fw.mp4	0.0	221.9209349155426	
45	199.90728402137756	fix_post	2		12	43.0	2.5	/experiments/AOT/AOT_stimuli/rescaled_final/1324_fw.mp4	0.0	222.43741297721863	0.09992694854736328
46	200.00721096992493	fix_pre	0		119	44.0	2.5	/experiments/AOT/AOT_stimuli/rescaled_final/1466_rv.mp4	0.0	222.537339925766	0.9916090965270996
46	200.99071598052979	pulse	0	t		44.0	2.5	/experiments/AOT/AOT_stimuli/rescaled_final/1466_rv.mp4	0.0	223.52084493637085	
46	200.99882006645203	movie	1		245	44.0	2.5	/experiments/AOT/AOT_stimuli/rescaled_final/1466_rv.mp4	0.0	223.5289490222931	2.5084259510040283
46	202.59011101722717	pulse	1	t		44.0	2.5	/experiments/AOT/AOT_stimuli/rescaled_final/1466_rv.mp4	0.0	225.12023997306824	
46	203.50724601745605	fix_post	2		12	44.0	2.5	/experiments/AOT/AOT_stimuli/rescaled_final/1466_rv.mp4	0.0	226.03737497329712	0.0999751091003418
47	203.6072211265564	fix_pre	0		120	45.0	2.5	/experiments/AOT/AOT_stimuli/rescaled_final/0871_rv.mp4	0.0	226.13735008239746	0.99997878074646
47	204.1907730102539	pulse	0	t		45.0	2.5	/experiments/AOT/AOT_stimuli/rescaled_final/0871_rv.mp4	0.0	226.72090196609497	
47	204.60719990730286	movie	1		248	45.0	2.5	/experiments/AOT/AOT_stimuli/rescaled_final/0871_rv.mp4	0.0	227.13732886314392	2.499972105026245
47	205.7908968925476	pulse	1	t		45.0	2.5	/experiments/AOT/AOT_stimuli/rescaled_final/0871_rv.mp4	0.0	228.32102584838867	
47	207.1071720123291	fix_post	2		12	45.0	2.5	/experiments/AOT/AOT_stimuli/rescaled_final/0871_rv.mp4	0.0	229.63730096817017	0.0999898910522461
48	207.20716190338135	fix_pre	0		120	46.0	2.5	/experiments/AOT/AOT_stimuli/rescaled_final/0874_fw.mp4	0.0	229.7372908592224	1.000016212463379
48	207.39068508148193	pulse	0	t		46.0	2.5	/experiments/AOT/AOT_stimuli/rescaled_final/0874_fw.mp4	0.0	229.920814037323	
48	208.20717811584473	movie	1		246	46.0	2.5	/experiments/AOT/AOT_stimuli/rescaled_final/0874_fw.mp4	0.0	230.7373070716858	2.499570846557617
48	208.9906780719757	pulse	1	t		46.0	2.5	/experiments/AOT/AOT_stimuli/rescaled_final/0874_fw.mp4	0.0	231.52080702781677	
48	210.58942794799805	pulse	1	t		46.0	2.5	/experiments/AOT/AOT_stimuli/rescaled_final/0874_fw.mp4	0.0	233.1195569038391	
48	210.70674896240234	fix_post	2		12	46.0	2.5	/experiments/AOT/AOT_stimuli/rescaled_final/0874_fw.mp4	0.0	233.2368779182434	0.10044598579406738
49	210.8071949481964	fix_pre	0		120	47.0	2.5	blank	1.0	233.33732390403748	0.9999780654907227
49	211.80717301368713	movie	1		300	47.0	2.5	blank	1.0	234.3373019695282	2.50007700920105
49	212.19074010849	pulse	1	t		47.0	2.5	blank	1.0	234.72086906433105	
49	213.79065608978271	pulse	1	t		47.0	2.5	blank	1.0	236.32078504562378	
49	214.30725002288818	fix_post	2		12	47.0	2.5	blank	1.0	236.83737897872925	0.09990501403808594
50	214.40715503692627	fix_pre	0		119	48.0	2.5	/experiments/AOT/AOT_stimuli/rescaled_final/1476_rv.mp4	0.0	236.93728399276733	0.9916009902954102
50	215.3905849456787	pulse	0	t		48.0	2.5	/experiments/AOT/AOT_stimuli/rescaled_final/1476_rv.mp4	0.0	237.92071390151978	
50	215.39875602722168	movie	1		246	48.0	2.5	/experiments/AOT/AOT_stimuli/rescaled_final/1476_rv.mp4	0.0	237.92888498306274	2.5083229541778564
50	216.99021100997925	pulse	1	t		48.0	2.5	/experiments/AOT/AOT_stimuli/rescaled_final/1476_rv.mp4	0.0	239.5203399658203	
50	217.90707898139954	fix_post	2		12	48.0	2.5	/experiments/AOT/AOT_stimuli/rescaled_final/1476_rv.mp4	0.0	240.4372079372406	0.10000896453857422
51	218.0070879459381	fix_pre	0		120	49.0	2.5	/experiments/AOT/AOT_stimuli/rescaled_final/0812_rv.mp4	0.0	240.53721690177917	0.9999799728393555
51	218.59066009521484	pulse	0	t		49.0	2.5	/experiments/AOT/AOT_stimuli/rescaled_final/0812_rv.mp4	0.0	241.1207890510559	
51	219.00706791877747	movie	1		244	49.0	2.5	/experiments/AOT/AOT_stimuli/rescaled_final/0812_rv.mp4	0.0	241.53719687461853	2.500044107437134
51	220.19069600105286	pulse	1	t		49.0	2.5	/experiments/AOT/AOT_stimuli/rescaled_final/0812_rv.mp4	0.0	242.72082495689392	
51	221.5071120262146	fix_post	2		12	49.0	2.5	/experiments/AOT/AOT_stimuli/rescaled_final/0812_rv.mp4	0.0	244.03724098205566	0.1000220775604248
52	221.60713410377502	fix_pre	0		120	50.0	2.5	/experiments/AOT/AOT_stimuli/rescaled_final/1977_fw.mp4	0.0	244.1372630596161	1.000011920928955
52	221.79059410095215	pulse	0	t		50.0	2.5	/experiments/AOT/AOT_stimuli/rescaled_final/1977_fw.mp4	0.0	244.3207230567932	
52	222.60714602470398	movie	1		245	50.0	2.5	/experiments/AOT/AOT_stimuli/rescaled_final/1977_fw.mp4	0.0	245.13727498054504	2.500006914138794
52	223.39061903953552	pulse	1	t		50.0	2.5	/experiments/AOT/AOT_stimuli/rescaled_final/1977_fw.mp4	0.0	245.9207479953766	
52	224.9901270866394	pulse	1	t		50.0	2.5	/experiments/AOT/AOT_stimuli/rescaled_final/1977_fw.mp4	0.0	247.52025604248047	
52	225.10715293884277	fix_post	2		12	50.0	2.5	/experiments/AOT/AOT_stimuli/rescaled_final/1977_fw.mp4	0.0	247.63728189468384	0.10000300407409668
53	225.20715594291687	fix_pre	0		120	51.0	2.5	/experiments/AOT/AOT_stimuli/rescaled_final/1542_rv.mp4	0.0	247.73728489875793	0.9999251365661621
53	226.20708107948303	movie	1		244	51.0	2.5	/experiments/AOT/AOT_stimuli/rescaled_final/1542_rv.mp4	0.0	248.7372100353241	2.500079870223999
53	226.5900959968567	pulse	1	t		51.0	2.5	/experiments/AOT/AOT_stimuli/rescaled_final/1542_rv.mp4	0.0	249.12022495269775	
53	228.19059705734253	pulse	1	t		51.0	2.5	/experiments/AOT/AOT_stimuli/rescaled_final/1542_rv.mp4	0.0	250.7207260131836	
53	228.70716094970703	fix_post	2		12	51.0	2.5	/experiments/AOT/AOT_stimuli/rescaled_final/1542_rv.mp4	0.0	251.2372899055481	0.09995317459106445
54	228.8071141242981	fix_pre	0		119	52.0	2.5	/experiments/AOT/AOT_stimuli/rescaled_final/1803_fw.mp4	0.0	251.33724308013916	0.9912419319152832
54	229.79014706611633	pulse	0	t		52.0	2.5	/experiments/AOT/AOT_stimuli/rescaled_final/1803_fw.mp4	0.0	252.3202760219574	
54	229.79835605621338	movie	1		247	52.0	2.5	/experiments/AOT/AOT_stimuli/rescaled_final/1803_fw.mp4	0.0	252.32848501205444	2.508615016937256
54	231.3904058933258	pulse	1	t		52.0	2.5	/experiments/AOT/AOT_stimuli/rescaled_final/1803_fw.mp4	0.0	253.92053484916687	
54	232.30697107315063	fix_post	2		12	52.0	2.5	/experiments/AOT/AOT_stimuli/rescaled_final/1803_fw.mp4	0.0	254.8371000289917	0.10003995895385742
55	232.4070110321045	fix_pre	0		120	53.0	2.5	/experiments/AOT/AOT_stimuli/rescaled_final/1925_rv.mp4	0.0	254.93713998794556	1.0001370906829834
55	232.99059200286865	pulse	0	t		53.0	2.5	/experiments/AOT/AOT_stimuli/rescaled_final/1925_rv.mp4	0.0	255.52072095870972	
55	233.40714812278748	movie	1		244	53.0	2.5	/experiments/AOT/AOT_stimuli/rescaled_final/1925_rv.mp4	0.0	255.93727707862854	2.499936819076538
55	234.59064602851868	pulse	1	t		53.0	2.5	/experiments/AOT/AOT_stimuli/rescaled_final/1925_rv.mp4	0.0	257.12077498435974	
55	235.907084941864	fix_post	2		12	53.0	2.5	/experiments/AOT/AOT_stimuli/rescaled_final/1925_rv.mp4	0.0	258.4372138977051	0.09999299049377441
56	236.0070779323578	fix_pre	0		120	54.0	2.5	/experiments/AOT/AOT_stimuli/rescaled_final/0543_rv.mp4	0.0	258.53720688819885	0.999920129776001
56	236.19051790237427	pulse	0	t		54.0	2.5	/experiments/AOT/AOT_stimuli/rescaled_final/0543_rv.mp4	0.0	258.72064685821533	
56	237.0069980621338	movie	1		247	54.0	2.5	/experiments/AOT/AOT_stimuli/rescaled_final/0543_rv.mp4	0.0	259.53712701797485	2.500108003616333
56	237.79045295715332	pulse	1	t		54.0	2.5	/experiments/AOT/AOT_stimuli/rescaled_final/0543_rv.mp4	0.0	260.3205819129944	
56	239.3904469013214	pulse	1	t		54.0	2.5	/experiments/AOT/AOT_stimuli/rescaled_final/0543_rv.mp4	0.0	261.9205758571625	
56	239.50710606575012	fix_post	2		12	54.0	2.5	/experiments/AOT/AOT_stimuli/rescaled_final/0543_rv.mp4	0.0	262.0372350215912	0.10002994537353516
57	239.60713601112366	fix_pre	0		120	55.0	2.5	blank	1.0	262.1372649669647	0.9998519420623779
57	240.60698795318604	movie	1		300	55.0	2.5	blank	1.0	263.1371169090271	2.5000531673431396
57	240.99042296409607	pulse	1	t		55.0	2.5	blank	1.0	263.52055191993713	
57	242.59045600891113	pulse	1	t		55.0	2.5	blank	1.0	265.1205849647522	
57	243.10704112052917	fix_post	2		12	55.0	2.5	blank	1.0	265.63717007637024	0.09998893737792969
58	243.2070300579071	fix_pre	0		119	56.0	2.5	/experiments/AOT/AOT_stimuli/rescaled_final/2115_rv.mp4	0.0	265.73715901374817	0.9916479587554932
58	244.19048810005188	pulse	0	t		56.0	2.5	/experiments/AOT/AOT_stimuli/rescaled_final/2115_rv.mp4	0.0	266.72061705589294	
58	244.1986780166626	movie	1		245	56.0	2.5	/experiments/AOT/AOT_stimuli/rescaled_final/2115_rv.mp4	0.0	266.72880697250366	2.5082809925079346
58	245.79056406021118	pulse	1	t		56.0	2.5	/experiments/AOT/AOT_stimuli/rescaled_final/2115_rv.mp4	0.0	268.32069301605225	
58	246.70695900917053	fix_post	2		12	56.0	2.5	/experiments/AOT/AOT_stimuli/rescaled_final/2115_rv.mp4	0.0	269.2370879650116	0.10004997253417969
59	246.8070089817047	fix_pre	0		120	57.0	2.5	/experiments/AOT/AOT_stimuli/rescaled_final/0574_rv.mp4	0.0	269.3371379375458	0.9999890327453613
59	247.3903820514679	pulse	0	t		57.0	2.5	/experiments/AOT/AOT_stimuli/rescaled_final/0574_rv.mp4	0.0	269.92051100730896	
59	247.80699801445007	movie	1		249	57.0	2.5	/experiments/AOT/AOT_stimuli/rescaled_final/0574_rv.mp4	0.0	270.33712697029114	2.500044107437134
59	248.9904580116272	pulse	1	t		57.0	2.5	/experiments/AOT/AOT_stimuli/rescaled_final/0574_rv.mp4	0.0	271.52058696746826	
59	250.3070421218872	fix_post	2		12	57.0	2.5	/experiments/AOT/AOT_stimuli/rescaled_final/0574_rv.mp4	0.0	272.83717107772827	0.09989500045776367
60	250.40693712234497	fix_pre	0		120	58.0	2.5	/experiments/AOT/AOT_stimuli/rescaled_final/2137_fw.mp4	0.0	272.93706607818604	0.9995629787445068
60	250.59044003486633	pulse	0	t		58.0	2.5	/experiments/AOT/AOT_stimuli/rescaled_final/2137_fw.mp4	0.0	273.1205689907074	
60	251.40650010108948	movie	1		245	58.0	2.5	/experiments/AOT/AOT_stimuli/rescaled_final/2137_fw.mp4	0.0	273.93662905693054	2.5004818439483643
60	252.19034790992737	pulse	1	t		58.0	2.5	/experiments/AOT/AOT_stimuli/rescaled_final/2137_fw.mp4	0.0	274.72047686576843	
60	253.7890980243683	pulse	1	t		58.0	2.5	/experiments/AOT/AOT_stimuli/rescaled_final/2137_fw.mp4	0.0	276.31922698020935	
60	253.90698194503784	fix_post	2		12	58.0	2.5	/experiments/AOT/AOT_stimuli/rescaled_final/2137_fw.mp4	0.0	276.4371109008789	0.09991097450256348
61	254.0068929195404	fix_pre	0		120	59.0	2.5	/experiments/AOT/AOT_stimuli/rescaled_final/0242_rv.mp4	0.0	276.53702187538147	0.9996211528778076
61	255.0065140724182	movie	1		245	59.0	2.5	/experiments/AOT/AOT_stimuli/rescaled_final/0242_rv.mp4	0.0	277.5366430282593	2.500361919403076
61	255.39000391960144	pulse	1	t		59.0	2.5	/experiments/AOT/AOT_stimuli/rescaled_final/0242_rv.mp4	0.0	277.9201328754425	
61	256.9905309677124	pulse	1	t		59.0	2.5	/experiments/AOT/AOT_stimuli/rescaled_final/0242_rv.mp4	0.0	279.52065992355347	
61	257.5068759918213	fix_post	2		12	59.0	2.5	/experiments/AOT/AOT_stimuli/rescaled_final/0242_rv.mp4	0.0	280.03700494766235	0.10002398490905762
62	257.60689997673035	fix_pre	0		119	60.0	2.5	/experiments/AOT/AOT_stimuli/rescaled_final/0901_fw.mp4	0.0	280.1370289325714	0.991657018661499
62	258.59039306640625	pulse	0	t		60.0	2.5	/experiments/AOT/AOT_stimuli/rescaled_final/0901_fw.mp4	0.0	281.1205220222473	
62	258.59855699539185	movie	1		248	60.0	2.5	/experiments/AOT/AOT_stimuli/rescaled_final/0901_fw.mp4	0.0	281.1286859512329	2.508291006088257
62	260.190141916275	pulse	1	t		60.0	2.5	/experiments/AOT/AOT_stimuli/rescaled_final/0901_fw.mp4	0.0	282.7202708721161	
62	261.1068480014801	fix_post	2		12	60.0	2.5	/experiments/AOT/AOT_stimuli/rescaled_final/0901_fw.mp4	0.0	283.63697695732117	0.10011410713195801
63	261.20696210861206	fix_pre	0		120	61.0	2.5	/experiments/AOT/AOT_stimuli/rescaled_final/1587_fw.mp4	0.0	283.7370910644531	0.9998908042907715
63	261.7906539440155	pulse	0	t		61.0	2.5	/experiments/AOT/AOT_stimuli/rescaled_final/1587_fw.mp4	0.0	284.32078289985657	
63	262.20685291290283	movie	1		245	61.0	2.5	/experiments/AOT/AOT_stimuli/rescaled_final/1587_fw.mp4	0.0	284.7369818687439	2.499675989151001
63	263.3904230594635	pulse	1	t		61.0	2.5	/experiments/AOT/AOT_stimuli/rescaled_final/1587_fw.mp4	0.0	285.92055201530457	
63	264.70652890205383	fix_post	2		12	61.0	2.5	/experiments/AOT/AOT_stimuli/rescaled_final/1587_fw.mp4	0.0	287.2366578578949	0.10038113594055176
64	264.8069100379944	fix_pre	0		120	62.0	2.5	blank	1.0	287.33703899383545	0.9999918937683105
64	264.99034905433655	pulse	0	t		62.0	2.5	blank	1.0	287.5204780101776	
64	265.8069019317627	movie	1		300	62.0	2.5	blank	1.0	288.33703088760376	2.4999141693115234
64	266.59042406082153	pulse	1	t		62.0	2.5	blank	1.0	289.1205530166626	
64	268.1903989315033	pulse	1	t		62.0	2.5	blank	1.0	290.72052788734436	
64	268.3068161010742	fix_post	2		12	62.0	2.5	blank	1.0	290.8369450569153	0.1000819206237793
65	268.406898021698	fix_pre	0		120	63.0	2.5	/experiments/AOT/AOT_stimuli/rescaled_final/0157_rv.mp4	0.0	290.93702697753906	1.000014066696167
65	269.40691208839417	movie	1		244	63.0	2.5	/experiments/AOT/AOT_stimuli/rescaled_final/0157_rv.mp4	0.0	291.93704104423523	2.4995508193969727
65	269.7905559539795	pulse	1	t		63.0	2.5	/experiments/AOT/AOT_stimuli/rescaled_final/0157_rv.mp4	0.0	292.32068490982056	
65	271.3904011249542	pulse	1	t		63.0	2.5	/experiments/AOT/AOT_stimuli/rescaled_final/0157_rv.mp4	0.0	293.9205300807953	
65	271.90646290779114	fix_post	2		12	63.0	2.5	/experiments/AOT/AOT_stimuli/rescaled_final/0157_rv.mp4	0.0	294.4365918636322	0.10053801536560059
66	272.00700092315674	fix_pre	0		119	64.0	2.5	/experiments/AOT/AOT_stimuli/rescaled_final/1845_fw.mp4	0.0	294.5371298789978	0.9914860725402832
66	272.9903140068054	pulse	0	t		64.0	2.5	/experiments/AOT/AOT_stimuli/rescaled_final/1845_fw.mp4	0.0	295.5204429626465	
66	272.998486995697	movie	1		244	64.0	2.5	/experiments/AOT/AOT_stimuli/rescaled_final/1845_fw.mp4	0.0	295.5286159515381	2.5083811283111572
66	274.58995604515076	pulse	1	t		64.0	2.5	/experiments/AOT/AOT_stimuli/rescaled_final/1845_fw.mp4	0.0	297.1200850009918	
66	275.5068681240082	fix_post	2		12	64.0	2.5	/experiments/AOT/AOT_stimuli/rescaled_final/1845_fw.mp4	0.0	298.03699707984924	0.10000276565551758
67	275.6068708896637	fix_pre	0		120	65.0	2.5	/experiments/AOT/AOT_stimuli/rescaled_final/1293_rv.mp4	0.0	298.13699984550476	1.0000090599060059
67	276.1902639865875	pulse	0	t		65.0	2.5	/experiments/AOT/AOT_stimuli/rescaled_final/1293_rv.mp4	0.0	298.7203929424286	
67	276.6068799495697	movie	1		243	65.0	2.5	/experiments/AOT/AOT_stimuli/rescaled_final/1293_rv.mp4	0.0	299.13700890541077	2.4999570846557617
67	277.7904109954834	pulse	1	t		65.0	2.5	/experiments/AOT/AOT_stimuli/rescaled_final/1293_rv.mp4	0.0	300.32053995132446	
67	279.10683703422546	fix_post	2		12	65.0	2.5	/experiments/AOT/AOT_stimuli/rescaled_final/1293_rv.mp4	0.0	301.6369659900665	0.09993600845336914
68	279.20677304267883	fix_pre	0		120	66.0	2.5	/experiments/AOT/AOT_stimuli/rescaled_final/1725_fw.mp4	0.0	301.7369019985199	1.000067949295044
68	279.3903660774231	pulse	0	t		66.0	2.5	/experiments/AOT/AOT_stimuli/rescaled_final/1725_fw.mp4	0.0	301.92049503326416	
68	280.2068409919739	movie	1		244	66.0	2.5	/experiments/AOT/AOT_stimuli/rescaled_final/1725_fw.mp4	0.0	302.73696994781494	2.5000970363616943
68	280.9903190135956	pulse	1	t		66.0	2.5	/experiments/AOT/AOT_stimuli/rescaled_final/1725_fw.mp4	0.0	303.52044796943665	
68	282.5891110897064	pulse	1	t		66.0	2.5	/experiments/AOT/AOT_stimuli/rescaled_final/1725_fw.mp4	0.0	305.1192400455475	
68	282.70693802833557	fix_post	2		12	66.0	2.5	/experiments/AOT/AOT_stimuli/rescaled_final/1725_fw.mp4	0.0	305.23706698417664	0.09985089302062988
69	282.8067889213562	fix_pre	0		120	67.0	2.5	/experiments/AOT/AOT_stimuli/rescaled_final/0571_fw.mp4	0.0	305.33691787719727	1.000150203704834
69	283.80693912506104	movie	1		246	67.0	2.5	/experiments/AOT/AOT_stimuli/rescaled_final/0571_fw.mp4	0.0	306.3370680809021	2.499457836151123
69	284.189857006073	pulse	1	t		67.0	2.5	/experiments/AOT/AOT_stimuli/rescaled_final/0571_fw.mp4	0.0	306.71998596191406	
69	285.78973293304443	pulse	1	t		67.0	2.5	/experiments/AOT/AOT_stimuli/rescaled_final/0571_fw.mp4	0.0	308.3198618888855	
69	286.30639696121216	fix_post	2		12	67.0	2.5	/experiments/AOT/AOT_stimuli/rescaled_final/0571_fw.mp4	0.0	308.8365259170532	0.10007715225219727
70	286.40647411346436	fix_pre	0		119	68.0	2.5	/experiments/AOT/AOT_stimuli/rescaled_final/1725_fw.mp4	0.0	308.9366030693054	0.991724967956543
70	287.39000511169434	pulse	0	t		68.0	2.5	/experiments/AOT/AOT_stimuli/rescaled_final/1725_fw.mp4	0.0	309.9201340675354	
70	287.3981990814209	movie	1		245	68.0	2.5	/experiments/AOT/AOT_stimuli/rescaled_final/1725_fw.mp4	0.0	309.92832803726196	2.508673906326294
70	288.99121499061584	pulse	1	t		68.0	2.5	/experiments/AOT/AOT_stimuli/rescaled_final/1725_fw.mp4	0.0	311.5213439464569	
70	289.9068729877472	fix_post	2		12	68.0	2.5	/experiments/AOT/AOT_stimuli/rescaled_final/1725_fw.mp4	0.0	312.43700194358826	0.09992098808288574
71	290.0067939758301	fix_pre	0		120	69.0	2.5	/experiments/AOT/AOT_stimuli/rescaled_final/1947_fw.mp4	0.0	312.53692293167114	1.0000131130218506
71	290.59021496772766	pulse	0	t		69.0	2.5	/experiments/AOT/AOT_stimuli/rescaled_final/1947_fw.mp4	0.0	313.1203439235687	
71	291.00680708885193	movie	1		244	69.0	2.5	/experiments/AOT/AOT_stimuli/rescaled_final/1947_fw.mp4	0.0	313.536936044693	2.4999279975891113
71	292.1902770996094	pulse	1	t		69.0	2.5	/experiments/AOT/AOT_stimuli/rescaled_final/1947_fw.mp4	0.0	314.72040605545044	
71	293.50673508644104	fix_post	2		12	69.0	2.5	/experiments/AOT/AOT_stimuli/rescaled_final/1947_fw.mp4	0.0	316.0368640422821	0.1000368595123291
72	293.60677194595337	fix_pre	0		120	70.0	2.5	blank	1.0	316.13690090179443	0.9999749660491943
72	293.79027795791626	pulse	0	t		70.0	2.5	blank	1.0	316.3204069137573	
72	294.60674691200256	movie	1		300	70.0	2.5	blank	1.0	317.1368758678436	2.5000650882720947
72	295.39022612571716	pulse	1	t		70.0	2.5	blank	1.0	317.9203550815582	
72	296.9901978969574	pulse	1	t		70.0	2.5	blank	1.0	319.52032685279846	
72	297.10681200027466	fix_post	2		12	70.0	2.5	blank	1.0	319.6369409561157	0.09989190101623535
73	297.2067039012909	fix_pre	0		120	71.0	2.5	/experiments/AOT/AOT_stimuli/rescaled_final/1884_rv.mp4	0.0	319.73683285713196	0.9999380111694336
73	298.2066419124603	movie	1		246	71.0	2.5	/experiments/AOT/AOT_stimuli/rescaled_final/1884_rv.mp4	0.0	320.7367708683014	2.5000410079956055
73	298.58981800079346	pulse	1	t		71.0	2.5	/experiments/AOT/AOT_stimuli/rescaled_final/1884_rv.mp4	0.0	321.1199469566345	
73	300.19016790390015	pulse	1	t		71.0	2.5	/experiments/AOT/AOT_stimuli/rescaled_final/1884_rv.mp4	0.0	322.7202968597412	
73	300.70668292045593	fix_post	2		12	71.0	2.5	/experiments/AOT/AOT_stimuli/rescaled_final/1884_rv.mp4	0.0	323.236811876297	0.10002708435058594
74	300.8067100048065	fix_pre	0		119	72.0	2.5	/experiments/AOT/AOT_stimuli/rescaled_final/0152_fw.mp4	0.0	323.3368389606476	0.9916510581970215
74	301.79022693634033	pulse	0	t		72.0	2.5	/experiments/AOT/AOT_stimuli/rescaled_final/0152_fw.mp4	0.0	324.3203558921814	
74	301.79836106300354	movie	1		245	72.0	2.5	/experiments/AOT/AOT_stimuli/rescaled_final/0152_fw.mp4	0.0	324.3284900188446	2.508342981338501
74	303.3906090259552	pulse	1	t		72.0	2.5	/experiments/AOT/AOT_stimuli/rescaled_final/0152_fw.mp4	0.0	325.92073798179626	
74	304.30670404434204	fix_post	2		12	72.0	2.5	/experiments/AOT/AOT_stimuli/rescaled_final/0152_fw.mp4	0.0	326.8368330001831	0.09998703002929688
75	304.40669107437134	fix_pre	0		120	73.0	2.5	/experiments/AOT/AOT_stimuli/rescaled_final/1117_fw.mp4	0.0	326.9368200302124	0.9999659061431885
75	304.99016308784485	pulse	0	t		73.0	2.5	/experiments/AOT/AOT_stimuli/rescaled_final/1117_fw.mp4	0.0	327.5202920436859	
75	305.4066569805145	movie	1		243	73.0	2.5	/experiments/AOT/AOT_stimuli/rescaled_final/1117_fw.mp4	0.0	327.9367859363556	2.4999639987945557
75	306.59017610549927	pulse	1	t		73.0	2.5	/experiments/AOT/AOT_stimuli/rescaled_final/1117_fw.mp4	0.0	329.12030506134033	
75	307.9066209793091	fix_post	2		12	73.0	2.5	/experiments/AOT/AOT_stimuli/rescaled_final/1117_fw.mp4	0.0	330.43674993515015	0.09999608993530273
76	308.0066170692444	fix_pre	0		120	74.0	2.5	/experiments/AOT/AOT_stimuli/rescaled_final/1414_fw.mp4	0.0	330.53674602508545	1.0000548362731934
76	308.1901800632477	pulse	0	t		74.0	2.5	/experiments/AOT/AOT_stimuli/rescaled_final/1414_fw.mp4	0.0	330.72030901908875	
76	309.0066719055176	movie	1		243	74.0	2.5	/experiments/AOT/AOT_stimuli/rescaled_final/1414_fw.mp4	0.0	331.53680086135864	2.4995532035827637
76	309.7901780605316	pulse	1	t		74.0	2.5	/experiments/AOT/AOT_stimuli/rescaled_final/1414_fw.mp4	0.0	332.3203070163727	
76	311.388610124588	pulse	1	t		74.0	2.5	/experiments/AOT/AOT_stimuli/rescaled_final/1414_fw.mp4	0.0	333.9187390804291	
76	311.50622510910034	fix_post	2		12	74.0	2.5	/experiments/AOT/AOT_stimuli/rescaled_final/1414_fw.mp4	0.0	334.0363540649414	0.10040092468261719
77	311.60662603378296	fix_pre	0		120	75.0	2.5	blank	1.0	334.136754989624	1.0000090599060059
77	312.60663509368896	movie	1		300	75.0	2.5	blank	1.0	335.13676404953003	2.4999678134918213
77	312.99014496803284	pulse	1	t		75.0	2.5	blank	1.0	335.5202739238739	
77	314.59018301963806	pulse	1	t		75.0	2.5	blank	1.0	337.1203119754791	
77	315.1066029071808	fix_post	2		12	75.0	2.5	blank	1.0	337.63673186302185	0.09955716133117676
78	315.20616006851196	fix_pre	0		119	76.0	2.5	/experiments/AOT/AOT_stimuli/rescaled_final/1629_fw.mp4	0.0	337.736289024353	0.9920759201049805
78	316.1901259422302	pulse	0	t		76.0	2.5	/experiments/AOT/AOT_stimuli/rescaled_final/1629_fw.mp4	0.0	338.7202548980713	
78	316.19823598861694	movie	1		245	76.0	2.5	/experiments/AOT/AOT_stimuli/rescaled_final/1629_fw.mp4	0.0	338.728364944458	2.5084221363067627
78	317.79004096984863	pulse	1	t		76.0	2.5	/experiments/AOT/AOT_stimuli/rescaled_final/1629_fw.mp4	0.0	340.3201699256897	
78	318.7066581249237	fix_post	2		12	76.0	2.5	/experiments/AOT/AOT_stimuli/rescaled_final/1629_fw.mp4	0.0	341.23678708076477	0.09998393058776855
79	318.8066420555115	fix_pre	0		120	77.0	2.5	/experiments/AOT/AOT_stimuli/rescaled_final/0250_rv.mp4	0.0	341.33677101135254	0.9999918937683105
79	319.3902039527893	pulse	0	t		77.0	2.5	/experiments/AOT/AOT_stimuli/rescaled_final/0250_rv.mp4	0.0	341.92033290863037	
79	319.8066339492798	movie	1		246	77.0	2.5	/experiments/AOT/AOT_stimuli/rescaled_final/0250_rv.mp4	0.0	342.33676290512085	2.499917984008789
79	320.9902150630951	pulse	1	t		77.0	2.5	/experiments/AOT/AOT_stimuli/rescaled_final/0250_rv.mp4	0.0	343.52034401893616	
79	322.3065519332886	fix_post	2		12	77.0	2.5	/experiments/AOT/AOT_stimuli/rescaled_final/0250_rv.mp4	0.0	344.83668088912964	0.10004615783691406
80	322.4065980911255	fix_pre	0		120	78.0	2.5	/experiments/AOT/AOT_stimuli/rescaled_final/0709_fw.mp4	0.0	344.93672704696655	0.9999339580535889
80	322.5901050567627	pulse	0	t		78.0	2.5	/experiments/AOT/AOT_stimuli/rescaled_final/0709_fw.mp4	0.0	345.12023401260376	
80	323.4065320491791	movie	1		246	78.0	2.5	/experiments/AOT/AOT_stimuli/rescaled_final/0709_fw.mp4	0.0	345.93666100502014	2.5001189708709717
80	324.1900460720062	pulse	1	t		78.0	2.5	/experiments/AOT/AOT_stimuli/rescaled_final/0709_fw.mp4	0.0	346.7201750278473	
80	325.78847002983093	pulse	1	t		78.0	2.5	/experiments/AOT/AOT_stimuli/rescaled_final/0709_fw.mp4	0.0	348.318598985672	
80	325.90665102005005	fix_post	2		12	78.0	2.5	/experiments/AOT/AOT_stimuli/rescaled_final/0709_fw.mp4	0.0	348.4367799758911	0.09997010231018066
81	326.00662112236023	fix_pre	0		120	79.0	2.5	/experiments/AOT/AOT_stimuli/rescaled_final/1144_fw.mp4	0.0	348.5367500782013	1.0000619888305664
81	327.0066831111908	movie	1		245	79.0	2.5	/experiments/AOT/AOT_stimuli/rescaled_final/1144_fw.mp4	0.0	349.53681206703186	2.4998319149017334
81	327.38970589637756	pulse	1	t		79.0	2.5	/experiments/AOT/AOT_stimuli/rescaled_final/1144_fw.mp4	0.0	349.9198348522186	
81	328.99025106430054	pulse	1	t		79.0	2.5	/experiments/AOT/AOT_stimuli/rescaled_final/1144_fw.mp4	0.0	351.5203800201416	
81	329.50651502609253	fix_post	2		12	79.0	2.5	/experiments/AOT/AOT_stimuli/rescaled_final/1144_fw.mp4	0.0	352.0366439819336	0.10008597373962402
82	329.60660099983215	fix_pre	0		119	80.0	2.5	/experiments/AOT/AOT_stimuli/rescaled_final/2153_fw.mp4	0.0	352.1367299556732	0.9916269779205322
82	330.59002900123596	pulse	0	t		80.0	2.5	/experiments/AOT/AOT_stimuli/rescaled_final/2153_fw.mp4	0.0	353.120157957077	
82	330.5982279777527	movie	1		246	80.0	2.5	/experiments/AOT/AOT_stimuli/rescaled_final/2153_fw.mp4	0.0	353.12835693359375	2.508419990539551
82	332.1896779537201	pulse	1	t		80.0	2.5	/experiments/AOT/AOT_stimuli/rescaled_final/2153_fw.mp4	0.0	354.71980690956116	
82	333.10664796829224	fix_post	2		12	80.0	2.5	/experiments/AOT/AOT_stimuli/rescaled_final/2153_fw.mp4	0.0	355.6367769241333	0.09990596771240234
83	333.20655393600464	fix_pre	0		120	81.0	2.5	/experiments/AOT/AOT_stimuli/rescaled_final/0690_rv.mp4	0.0	355.7366828918457	0.9999110698699951
83	333.7900650501251	pulse	0	t		81.0	2.5	/experiments/AOT/AOT_stimuli/rescaled_final/0690_rv.mp4	0.0	356.3201940059662	
83	334.20646500587463	movie	1		245	81.0	2.5	/experiments/AOT/AOT_stimuli/rescaled_final/0690_rv.mp4	0.0	356.7365939617157	2.500149965286255
83	335.39005994796753	pulse	1	t		81.0	2.5	/experiments/AOT/AOT_stimuli/rescaled_final/0690_rv.mp4	0.0	357.9201889038086	
83	336.7066149711609	fix_post	2		12	81.0	2.5	/experiments/AOT/AOT_stimuli/rescaled_final/0690_rv.mp4	0.0	359.23674392700195	0.09994292259216309
84	336.80655789375305	fix_pre	0		120	82.0	2.5	/experiments/AOT/AOT_stimuli/rescaled_final/0038_rv.mp4	0.0	359.3366868495941	0.99996018409729
84	336.9900178909302	pulse	0	t		82.0	2.5	/experiments/AOT/AOT_stimuli/rescaled_final/0038_rv.mp4	0.0	359.52014684677124	
84	337.80651807785034	movie	1		244	82.0	2.5	/experiments/AOT/AOT_stimuli/rescaled_final/0038_rv.mp4	0.0	360.3366470336914	2.5000159740448
84	338.5899119377136	pulse	1	t		82.0	2.5	/experiments/AOT/AOT_stimuli/rescaled_final/0038_rv.mp4	0.0	361.1200408935547	
84	340.19826889038086	pulse	1	t		82.0	2.5	/experiments/AOT/AOT_stimuli/rescaled_final/0038_rv.mp4	0.0	362.7283978462219	
84	340.30653405189514	fix_post	2		12	82.0	2.5	/experiments/AOT/AOT_stimuli/rescaled_final/0038_rv.mp4	0.0	362.8366630077362	0.10004091262817383
85	340.4065749645233	fix_pre	0		120	83.0	2.5	blank	1.0	362.9367039203644	0.9999690055847168
85	341.40654397010803	movie	1		300	83.0	2.5	blank	1.0	363.9366729259491	2.500214099884033
85	341.7895550727844	pulse	1	t		83.0	2.5	blank	1.0	364.3196840286255	
85	343.3897249698639	pulse	1	t		83.0	2.5	blank	1.0	365.91985392570496	
85	343.90675806999207	fix_post	2		12	83.0	2.5	blank	1.0	366.43688702583313	0.10000491142272949
87	344.0067629814148	stim	0		1716					366.53689193725586	14.29976511001587
87	344.98996591567993	pulse	0	t						367.520094871521	
87	346.5899589061737	pulse	0	t						369.12008786201477	
87	348.1899449825287	pulse	0	t						370.72007393836975	
87	349.7898840904236	pulse	0	t						372.32001304626465	
87	351.3898711204529	pulse	0	t						373.92000007629395	
87	352.9898359775543	pulse	0	t						375.5199649333954	
87	354.5899770259857	pulse	0	t						377.1201059818268	
87	356.18979692459106	pulse	0	t						378.71992588043213	
87	357.7899670600891	pulse	0	t						380.3200960159302	
