trial_nr	onset	event_type	phase	response	nr_frames	movie_index	movie_duration	movie_file	blank	onset_abs	duration
0	0.14990711212158203	stim	0		137					20.053194999694824	1.1416230201721191
0	1.2761070728302002	response	0	space						21.179394960403442	
1	1.2915301322937012	stim	0		5289					21.194818019866943	44.074824810028076
1	45.36240005493164	pulse	0	t						65.26568794250488	
1	45.36635494232178	stim	1		1717					65.26964282989502	14.30817198753357
1	46.9581401348114	pulse	1	t						66.86142802238464	
1	48.55809307098389	pulse	1	t						68.46138095855713	
1	50.157963037490845	pulse	1	t						70.06125092506409	
1	51.75811696052551	pulse	1	t						71.66140484809875	
1	53.35807394981384	pulse	1	t						73.26136183738708	
1	54.95807695388794	pulse	1	t						74.86136484146118	
1	56.55811095237732	pulse	1	t						76.46139883995056	
1	58.15800213813782	pulse	1	t						78.06129002571106	
2	59.67452692985535	fix_pre	0		11	0.0	2.5	/experiments/aot/R_S_yt-nn-8LZcafGs_25.mp4	0.0	79.57781481742859	0.09165811538696289
2	59.7580189704895	pulse	0	t		0.0	2.5	/experiments/aot/R_S_yt-nn-8LZcafGs_25.mp4	0.0	79.66130685806274	
2	59.76618504524231	movie	1		300	0.0	2.5	/experiments/aot/R_S_yt-nn-8LZcafGs_25.mp4	0.0	79.66947293281555	2.508368968963623
2	61.35808801651001	pulse	1	t		0.0	2.5	/experiments/aot/R_S_yt-nn-8LZcafGs_25.mp4	0.0	81.26137590408325	
2	62.27455401420593	fix_post	2		12	0.0	2.5	/experiments/aot/R_S_yt-nn-8LZcafGs_25.mp4	0.0	82.17784190177917	0.10002493858337402
3	62.37457895278931	fix_pre	0		120	1.0	2.5	/experiments/aot/R_S_yt-Pc1ZlCvsPpc_5.mp4	0.0	82.27786684036255	0.9999229907989502
3	62.958033084869385	pulse	0	t		1.0	2.5	/experiments/aot/R_S_yt-Pc1ZlCvsPpc_5.mp4	0.0	82.86132097244263	
3	63.37450194358826	movie	1		300	1.0	2.5	/experiments/aot/R_S_yt-Pc1ZlCvsPpc_5.mp4	0.0	83.2777898311615	2.500080108642578
3	64.55801892280579	pulse	1	t		1.0	2.5	/experiments/aot/R_S_yt-Pc1ZlCvsPpc_5.mp4	0.0	84.46130681037903	
3	65.87458205223083	fix_post	2		12	1.0	2.5	/experiments/aot/R_S_yt-Pc1ZlCvsPpc_5.mp4	0.0	85.77786993980408	0.09952902793884277
4	65.97411108016968	fix_pre	0		120	2.0	2.5	/experiments/aot/S_b3TCugtX0h0_108.mp4	0.0	85.87739896774292	1.0004918575286865
4	66.15803694725037	pulse	0	t		2.0	2.5	/experiments/aot/S_b3TCugtX0h0_108.mp4	0.0	86.06132483482361	
4	66.97460293769836	movie	1		299	2.0	2.5	/experiments/aot/S_b3TCugtX0h0_108.mp4	0.0	86.8778908252716	2.499986171722412
4	67.75809812545776	pulse	1	t		2.0	2.5	/experiments/aot/S_b3TCugtX0h0_108.mp4	0.0	87.661386013031	
4	69.35807609558105	pulse	1	t		2.0	2.5	/experiments/aot/S_b3TCugtX0h0_108.mp4	0.0	89.2613639831543	
4	69.47458910942078	fix_post	2		12	2.0	2.5	/experiments/aot/S_b3TCugtX0h0_108.mp4	0.0	89.37787699699402	0.10003399848937988
5	69.57462310791016	fix_pre	0		120	3.0	2.5	/experiments/aot/R_S_comp_CH_C002_C005_PSNK_v05_SDR_PS_FINAL_20180709_SDR_2K_AVC.mp4	0.0	89.4779109954834	0.9998598098754883
5	70.57448291778564	movie	1		169	3.0	2.5	/experiments/aot/R_S_comp_CH_C002_C005_PSNK_v05_SDR_PS_FINAL_20180709_SDR_2K_AVC.mp4	0.0	90.47777080535889	2.499617099761963
5	70.95820808410645	pulse	1	t		3.0	2.5	/experiments/aot/R_S_comp_CH_C002_C005_PSNK_v05_SDR_PS_FINAL_20180709_SDR_2K_AVC.mp4	0.0	90.86149597167969	
5	72.55812311172485	pulse	1	t		3.0	2.5	/experiments/aot/R_S_comp_CH_C002_C005_PSNK_v05_SDR_PS_FINAL_20180709_SDR_2K_AVC.mp4	0.0	92.4614109992981	
5	73.07410001754761	fix_post	2		12	3.0	2.5	/experiments/aot/R_S_comp_CH_C002_C005_PSNK_v05_SDR_PS_FINAL_20180709_SDR_2K_AVC.mp4	0.0	92.97738790512085	0.10040593147277832
6	73.17450594902039	fix_pre	0		119	4.0	2.5	/experiments/aot/S_production_ID_3923518.mp4	0.0	93.07779383659363	0.9916620254516602
6	74.15811204910278	pulse	0	t		4.0	2.5	/experiments/aot/S_production_ID_3923518.mp4	0.0	94.06139993667603	
6	74.16616797447205	movie	1		161	4.0	2.5	/experiments/aot/S_production_ID_3923518.mp4	0.0	94.06945586204529	2.5083539485931396
6	75.75800514221191	pulse	1	t		4.0	2.5	/experiments/aot/S_production_ID_3923518.mp4	0.0	95.66129302978516	
6	76.67452192306519	fix_post	2		12	4.0	2.5	/experiments/aot/S_production_ID_3923518.mp4	0.0	96.57780981063843	0.10010099411010742
7	76.7746229171753	fix_pre	0		120	5.0	2.5	blank	1.0	96.67791080474854	0.9999651908874512
7	77.35795092582703	pulse	0	t		5.0	2.5	blank	1.0	97.26123881340027	
7	77.77458810806274	movie	1		300	5.0	2.5	blank	1.0	97.67787599563599	2.5000159740448
7	78.95800709724426	pulse	1	t		5.0	2.5	blank	1.0	98.8612949848175	
7	80.27460408210754	fix_post	2		12	5.0	2.5	blank	1.0	100.17789196968079	0.10000205039978027
8	80.37460613250732	fix_pre	0		120	6.0	2.5	/experiments/aot/R_S_wc-jujp1kJRHrkJ_54.mp4	0.0	100.27789402008057	0.9994637966156006
8	80.55800795555115	pulse	0	t		6.0	2.5	/experiments/aot/R_S_wc-jujp1kJRHrkJ_54.mp4	0.0	100.46129584312439	
8	81.37406992912292	movie	1		298	6.0	2.5	/experiments/aot/R_S_wc-jujp1kJRHrkJ_54.mp4	0.0	101.27735781669617	2.5004560947418213
8	82.15800595283508	pulse	1	t		6.0	2.5	/experiments/aot/R_S_wc-jujp1kJRHrkJ_54.mp4	0.0	102.06129384040833	
8	83.75796008110046	pulse	1	t		6.0	2.5	/experiments/aot/R_S_wc-jujp1kJRHrkJ_54.mp4	0.0	103.6612479686737	
8	83.87452602386475	fix_post	2		12	6.0	2.5	/experiments/aot/R_S_wc-jujp1kJRHrkJ_54.mp4	0.0	103.77781391143799	0.100006103515625
9	83.97453212738037	fix_pre	0		120	7.0	2.5	/experiments/aot/S_yt-nn-8LZcafGs_25.mp4	0.0	103.87782001495361	0.9999349117279053
9	84.97446703910828	movie	1		300	7.0	2.5	/experiments/aot/S_yt-nn-8LZcafGs_25.mp4	0.0	104.87775492668152	2.499979019165039
9	85.35796999931335	pulse	1	t		7.0	2.5	/experiments/aot/S_yt-nn-8LZcafGs_25.mp4	0.0	105.2612578868866	
9	86.95802807807922	pulse	1	t		7.0	2.5	/experiments/aot/S_yt-nn-8LZcafGs_25.mp4	0.0	106.86131596565247	
9	87.47444605827332	fix_post	2		12	7.0	2.5	/experiments/aot/S_yt-nn-8LZcafGs_25.mp4	0.0	107.37773394584656	0.0999898910522461
10	87.57443594932556	fix_pre	0		119	8.0	2.5	/experiments/aot/R_S_yt-6MwA-jx56AQ_612.mp4	0.0	107.4777238368988	0.9916610717773438
10	88.55786395072937	pulse	0	t		8.0	2.5	/experiments/aot/R_S_yt-6MwA-jx56AQ_612.mp4	0.0	108.46115183830261	
10	88.5660970211029	movie	1		301	8.0	2.5	/experiments/aot/R_S_yt-6MwA-jx56AQ_612.mp4	0.0	108.46938490867615	2.508349895477295
10	90.15809297561646	pulse	1	t		8.0	2.5	/experiments/aot/R_S_yt-6MwA-jx56AQ_612.mp4	0.0	110.0613808631897	
10	91.0744469165802	fix_post	2		12	8.0	2.5	/experiments/aot/R_S_yt-6MwA-jx56AQ_612.mp4	0.0	110.97773480415344	0.09991812705993652
11	91.17436504364014	fix_pre	0		120	9.0	2.5	/experiments/aot/R_S_yt-r7brAHgxZSU_248.mp4	0.0	111.07765293121338	1.0000638961791992
11	91.75800108909607	pulse	0	t		9.0	2.5	/experiments/aot/R_S_yt-r7brAHgxZSU_248.mp4	0.0	111.66128897666931	
11	92.17442893981934	movie	1		300	9.0	2.5	/experiments/aot/R_S_yt-r7brAHgxZSU_248.mp4	0.0	112.07771682739258	2.4999911785125732
11	93.35789012908936	pulse	1	t		9.0	2.5	/experiments/aot/R_S_yt-r7brAHgxZSU_248.mp4	0.0	113.2611780166626	
11	94.67442011833191	fix_post	2		12	9.0	2.5	/experiments/aot/R_S_yt-r7brAHgxZSU_248.mp4	0.0	114.57770800590515	0.09996700286865234
12	94.77438712120056	fix_pre	0		120	10.0	2.5	/experiments/aot/R_S_yt-6mRpmfIvdew_1435.mp4	0.0	114.6776750087738	1.000065803527832
12	94.957848072052	pulse	0	t		10.0	2.5	/experiments/aot/R_S_yt-6mRpmfIvdew_1435.mp4	0.0	114.86113595962524	
12	95.7744529247284	movie	1		300	10.0	2.5	/experiments/aot/R_S_yt-6mRpmfIvdew_1435.mp4	0.0	115.67774081230164	2.49955415725708
12	96.55777597427368	pulse	1	t		10.0	2.5	/experiments/aot/R_S_yt-6mRpmfIvdew_1435.mp4	0.0	116.46106386184692	
12	98.1580560207367	pulse	1	t		10.0	2.5	/experiments/aot/R_S_yt-6mRpmfIvdew_1435.mp4	0.0	118.06134390830994	
12	98.27400708198547	fix_post	2		12	10.0	2.5	/experiments/aot/R_S_yt-6mRpmfIvdew_1435.mp4	0.0	118.17729496955872	0.09998488426208496
13	98.37399196624756	fix_pre	0		120	11.0	2.5	/experiments/aot/S_ILSVRC2015_train_00418004.mp4	0.0	118.2772798538208	1.0005300045013428
13	99.3745219707489	movie	1		300	11.0	2.5	/experiments/aot/S_ILSVRC2015_train_00418004.mp4	0.0	119.27780985832214	2.4998791217803955
13	99.75801992416382	pulse	1	t		11.0	2.5	/experiments/aot/S_ILSVRC2015_train_00418004.mp4	0.0	119.66130781173706	
13	101.35776901245117	pulse	1	t		11.0	2.5	/experiments/aot/S_ILSVRC2015_train_00418004.mp4	0.0	121.26105690002441	
13	101.8744010925293	fix_post	2		12	11.0	2.5	/experiments/aot/S_ILSVRC2015_train_00418004.mp4	0.0	121.77768898010254	0.1000969409942627
14	101.97449803352356	fix_pre	0		119	12.0	2.5	blank	1.0	121.8777859210968	0.9915900230407715
14	102.95784997940063	pulse	0	t		12.0	2.5	blank	1.0	122.86113786697388	
14	102.96608805656433	movie	1		301	12.0	2.5	blank	1.0	122.86937594413757	2.508291006088257
14	104.55784296989441	pulse	1	t		12.0	2.5	blank	1.0	124.46113085746765	
14	105.47437906265259	fix_post	2		12	12.0	2.5	blank	1.0	125.37766695022583	0.10004401206970215
15	105.57442307472229	fix_pre	0		120	13.0	2.5	/experiments/aot/R_S_yt-Bx2kLEUuN0E_456.mp4	0.0	125.47771096229553	0.9999179840087891
15	106.15778303146362	pulse	0	t		13.0	2.5	/experiments/aot/R_S_yt-Bx2kLEUuN0E_456.mp4	0.0	126.06107091903687	
15	106.57434105873108	movie	1		300	13.0	2.5	/experiments/aot/R_S_yt-Bx2kLEUuN0E_456.mp4	0.0	126.47762894630432	2.5000369548797607
15	107.75778603553772	pulse	1	t		13.0	2.5	/experiments/aot/R_S_yt-Bx2kLEUuN0E_456.mp4	0.0	127.66107392311096	
15	109.07437801361084	fix_post	2		12	13.0	2.5	/experiments/aot/R_S_yt-Bx2kLEUuN0E_456.mp4	0.0	128.97766590118408	0.09993600845336914
16	109.17431402206421	fix_pre	0		120	14.0	2.5	/experiments/aot/S_yt-K_gHa2x2OQA_319.mp4	0.0	129.07760190963745	1.0000760555267334
16	109.35775899887085	pulse	0	t		14.0	2.5	/experiments/aot/S_yt-K_gHa2x2OQA_319.mp4	0.0	129.2610468864441	
16	110.17439007759094	movie	1		300	14.0	2.5	/experiments/aot/S_yt-K_gHa2x2OQA_319.mp4	0.0	130.07767796516418	2.499937057495117
16	110.95782613754272	pulse	1	t		14.0	2.5	/experiments/aot/S_yt-K_gHa2x2OQA_319.mp4	0.0	130.86111402511597	
16	112.55776309967041	pulse	1	t		14.0	2.5	/experiments/aot/S_yt-K_gHa2x2OQA_319.mp4	0.0	132.46105098724365	
16	112.67432713508606	fix_post	2		12	14.0	2.5	/experiments/aot/S_yt-K_gHa2x2OQA_319.mp4	0.0	132.5776150226593	0.09961891174316406
17	112.77394604682922	fix_pre	0		120	15.0	2.5	/experiments/aot/S_yt-xqjVM0Vj4mI_161.mp4	0.0	132.67723393440247	1.000025987625122
17	113.77397203445435	movie	1		299	15.0	2.5	/experiments/aot/S_yt-xqjVM0Vj4mI_161.mp4	0.0	133.6772599220276	2.500319004058838
17	114.16185998916626	pulse	1	t		15.0	2.5	/experiments/aot/S_yt-xqjVM0Vj4mI_161.mp4	0.0	134.0651478767395	
17	115.75775194168091	pulse	1	t		15.0	2.5	/experiments/aot/S_yt-xqjVM0Vj4mI_161.mp4	0.0	135.66103982925415	
17	116.27429103851318	fix_post	2		12	15.0	2.5	/experiments/aot/S_yt-xqjVM0Vj4mI_161.mp4	0.0	136.17757892608643	0.10008096694946289
18	116.37437200546265	fix_pre	0		119	16.0	2.5	/experiments/aot/R_S_yt-EuyfT0PuOoQ_91.mp4	0.0	136.2776598930359	0.9916419982910156
18	117.3578360080719	pulse	0	t		16.0	2.5	/experiments/aot/R_S_yt-EuyfT0PuOoQ_91.mp4	0.0	137.26112389564514	
18	117.36601400375366	movie	1		301	16.0	2.5	/experiments/aot/R_S_yt-EuyfT0PuOoQ_91.mp4	0.0	137.2693018913269	2.5079119205474854
18	118.95784592628479	pulse	1	t		16.0	2.5	/experiments/aot/R_S_yt-EuyfT0PuOoQ_91.mp4	0.0	138.86113381385803	
18	119.87392592430115	fix_post	2		12	16.0	2.5	/experiments/aot/R_S_yt-EuyfT0PuOoQ_91.mp4	0.0	139.7772138118744	0.10042214393615723
19	119.9743480682373	fix_pre	0		120	17.0	2.5	/experiments/aot/R_S_pexels-rodnae-productions-5993671.mp4	0.0	139.87763595581055	0.9996039867401123
19	120.5577940940857	pulse	0	t		17.0	2.5	/experiments/aot/R_S_pexels-rodnae-productions-5993671.mp4	0.0	140.46108198165894	
19	120.97395205497742	movie	1		159	17.0	2.5	/experiments/aot/R_S_pexels-rodnae-productions-5993671.mp4	0.0	140.87723994255066	2.499958038330078
19	122.15791893005371	pulse	1	t		17.0	2.5	/experiments/aot/R_S_pexels-rodnae-productions-5993671.mp4	0.0	142.06120681762695	
19	123.4739100933075	fix_post	2		12	17.0	2.5	/experiments/aot/R_S_pexels-rodnae-productions-5993671.mp4	0.0	143.37719798088074	0.10039997100830078
20	123.5743100643158	fix_pre	0		120	18.0	2.5	/experiments/aot/S_yt-wrfAMDCg93Y_8.mp4	0.0	143.47759795188904	0.9999809265136719
20	123.75777697563171	pulse	0	t		18.0	2.5	/experiments/aot/S_yt-wrfAMDCg93Y_8.mp4	0.0	143.66106486320496	
20	124.57429099082947	movie	1		300	18.0	2.5	/experiments/aot/S_yt-wrfAMDCg93Y_8.mp4	0.0	144.4775788784027	2.5000219345092773
20	125.3578200340271	pulse	1	t		18.0	2.5	/experiments/aot/S_yt-wrfAMDCg93Y_8.mp4	0.0	145.26110792160034	
20	126.95785307884216	pulse	1	t		18.0	2.5	/experiments/aot/S_yt-wrfAMDCg93Y_8.mp4	0.0	146.8611409664154	
20	127.07431292533875	fix_post	2		12	18.0	2.5	/experiments/aot/S_yt-wrfAMDCg93Y_8.mp4	0.0	146.977600812912	0.10001111030578613
21	127.17432403564453	fix_pre	0		120	19.0	2.5	blank	1.0	147.07761192321777	0.9999558925628662
21	128.1742799282074	movie	1		300	19.0	2.5	blank	1.0	148.07756781578064	2.499929189682007
21	128.5578010082245	pulse	1	t		19.0	2.5	blank	1.0	148.46108889579773	
21	130.15775203704834	pulse	1	t		19.0	2.5	blank	1.0	150.06103992462158	
21	130.6742091178894	fix_post	2		12	19.0	2.5	blank	1.0	150.57749700546265	0.09995388984680176
22	130.7741630077362	fix_pre	0		119	20.0	2.5	/experiments/aot/R_S_pexels-kindel-media-8165572.mp4	0.0	150.67745089530945	0.9917421340942383
22	131.75782108306885	pulse	0	t		20.0	2.5	/experiments/aot/R_S_pexels-kindel-media-8165572.mp4	0.0	151.6611089706421	
22	131.76590514183044	movie	1		165	20.0	2.5	/experiments/aot/R_S_pexels-kindel-media-8165572.mp4	0.0	151.6691930294037	2.5082919597625732
22	133.35797810554504	pulse	1	t		20.0	2.5	/experiments/aot/R_S_pexels-kindel-media-8165572.mp4	0.0	153.2612659931183	
22	134.27419710159302	fix_post	2		12	20.0	2.5	/experiments/aot/R_S_pexels-kindel-media-8165572.mp4	0.0	154.17748498916626	0.10001182556152344
23	134.37420892715454	fix_pre	0		120	21.0	2.5	/experiments/aot/S_yt-kkbtZP78JxQ_96.mp4	0.0	154.27749681472778	1.0000460147857666
23	134.95767903327942	pulse	0	t		21.0	2.5	/experiments/aot/S_yt-kkbtZP78JxQ_96.mp4	0.0	154.86096692085266	
23	135.3742549419403	movie	1		300	21.0	2.5	/experiments/aot/S_yt-kkbtZP78JxQ_96.mp4	0.0	155.27754282951355	2.499566078186035
23	136.55770802497864	pulse	1	t		21.0	2.5	/experiments/aot/S_yt-kkbtZP78JxQ_96.mp4	0.0	156.46099591255188	
23	137.87382102012634	fix_post	2		12	21.0	2.5	/experiments/aot/S_yt-kkbtZP78JxQ_96.mp4	0.0	157.77710890769958	0.10043096542358398
24	137.97425198554993	fix_pre	0		120	22.0	2.5	/experiments/aot/S_yt-R-SETZtYWaA_336.mp4	0.0	157.87753987312317	0.9999251365661621
24	138.1578540802002	pulse	0	t		22.0	2.5	/experiments/aot/S_yt-R-SETZtYWaA_336.mp4	0.0	158.06114196777344	
24	138.9741771221161	movie	1		299	22.0	2.5	/experiments/aot/S_yt-R-SETZtYWaA_336.mp4	0.0	158.87746500968933	2.499579906463623
24	139.7576720714569	pulse	1	t		22.0	2.5	/experiments/aot/S_yt-R-SETZtYWaA_336.mp4	0.0	159.66095995903015	
24	141.35771012306213	pulse	1	t		22.0	2.5	/experiments/aot/S_yt-R-SETZtYWaA_336.mp4	0.0	161.26099801063538	
24	141.4737570285797	fix_post	2		12	22.0	2.5	/experiments/aot/S_yt-R-SETZtYWaA_336.mp4	0.0	161.37704491615295	0.10035109519958496
25	141.5741081237793	fix_pre	0		120	23.0	2.5	/experiments/aot/S__6qAy77ODUI_175.mp4	0.0	161.47739601135254	1.0003368854522705
25	142.57444500923157	movie	1		300	23.0	2.5	/experiments/aot/S__6qAy77ODUI_175.mp4	0.0	162.4777328968048	2.4997270107269287
25	142.95772004127502	pulse	1	t		23.0	2.5	/experiments/aot/S__6qAy77ODUI_175.mp4	0.0	162.86100792884827	
25	144.55768203735352	pulse	1	t		23.0	2.5	/experiments/aot/S__6qAy77ODUI_175.mp4	0.0	164.46096992492676	
25	145.0741720199585	fix_post	2		12	23.0	2.5	/experiments/aot/S__6qAy77ODUI_175.mp4	0.0	164.97745990753174	0.09998393058776855
26	145.17415595054626	fix_pre	0		119	24.0	2.5	/experiments/aot/S_yt-GaJaxp546lc_22.mp4	0.0	165.0774438381195	0.9916870594024658
26	146.157732963562	pulse	0	t		24.0	2.5	/experiments/aot/S_yt-GaJaxp546lc_22.mp4	0.0	166.06102085113525	
26	146.16584300994873	movie	1		301	24.0	2.5	/experiments/aot/S_yt-GaJaxp546lc_22.mp4	0.0	166.06913089752197	2.508296012878418
26	147.7577669620514	pulse	1	t		24.0	2.5	/experiments/aot/S_yt-GaJaxp546lc_22.mp4	0.0	167.66105484962463	
26	148.67413902282715	fix_post	2		12	24.0	2.5	/experiments/aot/S_yt-GaJaxp546lc_22.mp4	0.0	168.5774269104004	0.09961390495300293
27	148.77375292778015	fix_pre	0		120	25.0	2.5	/experiments/aot/R_S_yt-_HuBzj8EPBc_62.mp4	0.0	168.6770408153534	1.000441074371338
27	149.35770511627197	pulse	0	t		25.0	2.5	/experiments/aot/R_S_yt-_HuBzj8EPBc_62.mp4	0.0	169.26099300384521	
27	149.7741940021515	movie	1		300	25.0	2.5	/experiments/aot/R_S_yt-_HuBzj8EPBc_62.mp4	0.0	169.67748188972473	2.499959945678711
27	150.95773601531982	pulse	1	t		25.0	2.5	/experiments/aot/R_S_yt-_HuBzj8EPBc_62.mp4	0.0	170.86102390289307	
27	152.2741539478302	fix_post	2		12	25.0	2.5	/experiments/aot/R_S_yt-_HuBzj8EPBc_62.mp4	0.0	172.17744183540344	0.09960508346557617
28	152.37375903129578	fix_pre	0		120	26.0	2.5	/experiments/aot/S_comp_GMT308_139K_142NC_CARIBBEAN_DAY_v09_SDR_FINAL_22062018_SDR_2K_AVC.mp4	0.0	172.27704691886902	1.0000779628753662
28	152.55780291557312	pulse	0	t		26.0	2.5	/experiments/aot/S_comp_GMT308_139K_142NC_CARIBBEAN_DAY_v09_SDR_FINAL_22062018_SDR_2K_AVC.mp4	0.0	172.46109080314636	
28	153.37383699417114	movie	1		163	26.0	2.5	/experiments/aot/S_comp_GMT308_139K_142NC_CARIBBEAN_DAY_v09_SDR_FINAL_22062018_SDR_2K_AVC.mp4	0.0	173.27712488174438	2.5001630783081055
28	154.15725994110107	pulse	1	t		26.0	2.5	/experiments/aot/S_comp_GMT308_139K_142NC_CARIBBEAN_DAY_v09_SDR_FINAL_22062018_SDR_2K_AVC.mp4	0.0	174.06054782867432	
28	155.757807970047	pulse	1	t		26.0	2.5	/experiments/aot/S_comp_GMT308_139K_142NC_CARIBBEAN_DAY_v09_SDR_FINAL_22062018_SDR_2K_AVC.mp4	0.0	175.66109585762024	
28	155.87400007247925	fix_post	2		12	26.0	2.5	/experiments/aot/S_comp_GMT308_139K_142NC_CARIBBEAN_DAY_v09_SDR_FINAL_22062018_SDR_2K_AVC.mp4	0.0	175.7772879600525	0.1003408432006836
29	155.97434091567993	fix_pre	0		120	27.0	2.5	blank	1.0	175.87762880325317	0.9997730255126953
29	156.97411394119263	movie	1		300	27.0	2.5	blank	1.0	176.87740182876587	2.5000181198120117
29	157.35776901245117	pulse	1	t		27.0	2.5	blank	1.0	177.2610569000244	
29	158.95775508880615	pulse	1	t		27.0	2.5	blank	1.0	178.8610429763794	
29	159.47413206100464	fix_post	2		12	27.0	2.5	blank	1.0	179.37741994857788	0.10003495216369629
30	159.57416701316833	fix_pre	0		119	28.0	2.5	/experiments/aot/S_yt-EvKV7iY1_HM_193.mp4	0.0	179.47745490074158	0.9916620254516602
30	160.55766201019287	pulse	0	t		28.0	2.5	/experiments/aot/S_yt-EvKV7iY1_HM_193.mp4	0.0	180.4609498977661	
30	160.56582903862	movie	1		301	28.0	2.5	/experiments/aot/S_yt-EvKV7iY1_HM_193.mp4	0.0	180.46911692619324	2.507798910140991
30	162.15853095054626	pulse	1	t		28.0	2.5	/experiments/aot/S_yt-EvKV7iY1_HM_193.mp4	0.0	182.0618188381195	
30	163.073627948761	fix_post	2		12	28.0	2.5	/experiments/aot/S_yt-EvKV7iY1_HM_193.mp4	0.0	182.97691583633423	0.10047316551208496
31	163.17410111427307	fix_pre	0		120	29.0	2.5	/experiments/aot/S_yt-4rwBpRuHg-c_1308.mp4	0.0	183.0773890018463	0.9995520114898682
31	163.75848603248596	pulse	0	t		29.0	2.5	/experiments/aot/S_yt-4rwBpRuHg-c_1308.mp4	0.0	183.6617739200592	
31	164.17365312576294	movie	1		300	29.0	2.5	/experiments/aot/S_yt-4rwBpRuHg-c_1308.mp4	0.0	184.07694101333618	2.5003409385681152
31	165.3615119457245	pulse	1	t		29.0	2.5	/experiments/aot/S_yt-4rwBpRuHg-c_1308.mp4	0.0	185.26479983329773	
31	166.67399406433105	fix_post	2		12	29.0	2.5	/experiments/aot/S_yt-4rwBpRuHg-c_1308.mp4	0.0	186.5772819519043	0.10000300407409668
32	166.77399706840515	fix_pre	0		120	30.0	2.5	/experiments/aot/S_yt-MEfljVFL0xw_375.mp4	0.0	186.6772849559784	1.0000579357147217
32	166.9574999809265	pulse	0	t		30.0	2.5	/experiments/aot/S_yt-MEfljVFL0xw_375.mp4	0.0	186.86078786849976	
32	167.77405500411987	movie	1		300	30.0	2.5	/experiments/aot/S_yt-MEfljVFL0xw_375.mp4	0.0	187.67734289169312	2.499596118927002
32	168.5574939250946	pulse	1	t		30.0	2.5	/experiments/aot/S_yt-MEfljVFL0xw_375.mp4	0.0	188.46078181266785	
32	170.157457113266	pulse	1	t		30.0	2.5	/experiments/aot/S_yt-MEfljVFL0xw_375.mp4	0.0	190.06074500083923	
32	170.27365112304688	fix_post	2		12	30.0	2.5	/experiments/aot/S_yt-MEfljVFL0xw_375.mp4	0.0	190.17693901062012	0.10045790672302246
33	170.3741090297699	fix_pre	0		120	31.0	2.5	/experiments/aot/R_S_ILSVRC2015_train_00743006.mp4	0.0	190.27739691734314	0.9999699592590332
33	171.37407898902893	movie	1		300	31.0	2.5	/experiments/aot/R_S_ILSVRC2015_train_00743006.mp4	0.0	191.27736687660217	2.499541997909546
33	171.75753211975098	pulse	1	t		31.0	2.5	/experiments/aot/R_S_ILSVRC2015_train_00743006.mp4	0.0	191.66082000732422	
33	173.3575279712677	pulse	1	t		31.0	2.5	/experiments/aot/R_S_ILSVRC2015_train_00743006.mp4	0.0	193.26081585884094	
33	173.87362098693848	fix_post	2		12	31.0	2.5	/experiments/aot/R_S_ILSVRC2015_train_00743006.mp4	0.0	193.77690887451172	0.1004180908203125
34	173.9740390777588	fix_pre	0		119	32.0	2.5	/experiments/aot/S_yt-EuyfT0PuOoQ_91.mp4	0.0	193.87732696533203	0.991631031036377
34	174.95747113227844	pulse	0	t		32.0	2.5	/experiments/aot/S_yt-EuyfT0PuOoQ_91.mp4	0.0	194.86075901985168	
34	174.96567010879517	movie	1		301	32.0	2.5	/experiments/aot/S_yt-EuyfT0PuOoQ_91.mp4	0.0	194.8689579963684	2.508359909057617
34	176.55751991271973	pulse	1	t		32.0	2.5	/experiments/aot/S_yt-EuyfT0PuOoQ_91.mp4	0.0	196.46080780029297	
34	177.47403001785278	fix_post	2		12	32.0	2.5	/experiments/aot/S_yt-EuyfT0PuOoQ_91.mp4	0.0	197.37731790542603	0.09998798370361328
35	177.5740180015564	fix_pre	0		120	33.0	2.5	/experiments/aot/R_S_yt-h8wy6x6oytA_25.mp4	0.0	197.47730588912964	1.0000250339508057
35	178.15830302238464	pulse	0	t		33.0	2.5	/experiments/aot/R_S_yt-h8wy6x6oytA_25.mp4	0.0	198.06159090995789	
35	178.5740430355072	movie	1		300	33.0	2.5	/experiments/aot/R_S_yt-h8wy6x6oytA_25.mp4	0.0	198.47733092308044	2.4995920658111572
35	179.76157593727112	pulse	1	t		33.0	2.5	/experiments/aot/R_S_yt-h8wy6x6oytA_25.mp4	0.0	199.66486382484436	
35	181.07363510131836	fix_post	2		12	33.0	2.5	/experiments/aot/R_S_yt-h8wy6x6oytA_25.mp4	0.0	200.9769229888916	0.10039997100830078
36	181.17403507232666	fix_pre	0		120	34.0	2.5	/experiments/aot/R_S_yt-sPhtPyQM00c_106.mp4	0.0	201.0773229598999	0.9999709129333496
36	181.35823798179626	pulse	0	t		34.0	2.5	/experiments/aot/R_S_yt-sPhtPyQM00c_106.mp4	0.0	201.2615258693695	
36	182.17400598526	movie	1		300	34.0	2.5	/experiments/aot/R_S_yt-sPhtPyQM00c_106.mp4	0.0	202.07729387283325	2.499580144882202
36	182.957612991333	pulse	1	t		34.0	2.5	/experiments/aot/R_S_yt-sPhtPyQM00c_106.mp4	0.0	202.86090087890625	
36	184.55751299858093	pulse	1	t		34.0	2.5	/experiments/aot/R_S_yt-sPhtPyQM00c_106.mp4	0.0	204.46080088615417	
36	184.6735861301422	fix_post	2		12	34.0	2.5	/experiments/aot/R_S_yt-sPhtPyQM00c_106.mp4	0.0	204.57687401771545	0.10045886039733887
37	184.77404499053955	fix_pre	0		120	35.0	2.5	blank	1.0	204.6773328781128	0.999946117401123
37	185.77399110794067	movie	1		300	35.0	2.5	blank	1.0	205.67727899551392	2.500025987625122
37	186.15752792358398	pulse	1	t		35.0	2.5	blank	1.0	206.06081581115723	
37	187.7575249671936	pulse	1	t		35.0	2.5	blank	1.0	207.66081285476685	
37	188.2740170955658	fix_post	2		12	35.0	2.5	blank	1.0	208.17730498313904	0.09991288185119629
38	188.373929977417	fix_pre	0		119	36.0	2.5	/experiments/aot/R_S_wc-jujp1kJRHrkJ_54.mp4	0.0	208.27721786499023	0.9917540550231934
38	189.3575279712677	pulse	0	t		36.0	2.5	/experiments/aot/R_S_wc-jujp1kJRHrkJ_54.mp4	0.0	209.26081585884094	
38	189.36568403244019	movie	1		301	36.0	2.5	/experiments/aot/R_S_wc-jujp1kJRHrkJ_54.mp4	0.0	209.26897192001343	2.508328914642334
38	190.95745301246643	pulse	1	t		36.0	2.5	/experiments/aot/R_S_wc-jujp1kJRHrkJ_54.mp4	0.0	210.86074090003967	
38	191.87401294708252	fix_post	2		12	36.0	2.5	/experiments/aot/R_S_wc-jujp1kJRHrkJ_54.mp4	0.0	211.77730083465576	0.0995941162109375
39	191.97360706329346	fix_pre	0		120	37.0	2.5	/experiments/aot/S_comp_CH_C002_C005_PSNK_v05_SDR_PS_FINAL_20180709_SDR_2K_AVC.mp4	0.0	211.8768949508667	1.0003159046173096
39	192.55745601654053	pulse	0	t		37.0	2.5	/experiments/aot/S_comp_CH_C002_C005_PSNK_v05_SDR_PS_FINAL_20180709_SDR_2K_AVC.mp4	0.0	212.46074390411377	
39	192.97392296791077	movie	1		165	37.0	2.5	/experiments/aot/S_comp_CH_C002_C005_PSNK_v05_SDR_PS_FINAL_20180709_SDR_2K_AVC.mp4	0.0	212.877210855484	2.500014066696167
39	194.16608595848083	pulse	1	t		37.0	2.5	/experiments/aot/S_comp_CH_C002_C005_PSNK_v05_SDR_PS_FINAL_20180709_SDR_2K_AVC.mp4	0.0	214.06937384605408	
39	195.47393703460693	fix_post	2		12	37.0	2.5	/experiments/aot/S_comp_CH_C002_C005_PSNK_v05_SDR_PS_FINAL_20180709_SDR_2K_AVC.mp4	0.0	215.37722492218018	0.10009407997131348
40	195.57403111457825	fix_pre	0		120	38.0	2.5	/experiments/aot/R_S_yt--I4Ggi6-QOE_23.mp4	0.0	215.4773190021515	0.999687910079956
40	195.7582790851593	pulse	0	t		38.0	2.5	/experiments/aot/R_S_yt--I4Ggi6-QOE_23.mp4	0.0	215.66156697273254	
40	196.5737190246582	movie	1		300	38.0	2.5	/experiments/aot/R_S_yt--I4Ggi6-QOE_23.mp4	0.0	216.47700691223145	2.500325918197632
40	197.3614490032196	pulse	1	t		38.0	2.5	/experiments/aot/R_S_yt--I4Ggi6-QOE_23.mp4	0.0	217.26473689079285	
40	198.96115612983704	pulse	1	t		38.0	2.5	/experiments/aot/R_S_yt--I4Ggi6-QOE_23.mp4	0.0	218.86444401741028	
40	199.07404494285583	fix_post	2		12	38.0	2.5	/experiments/aot/R_S_yt--I4Ggi6-QOE_23.mp4	0.0	218.97733283042908	0.09992504119873047
41	199.17396998405457	fix_pre	0		120	39.0	2.5	/experiments/aot/S_Pexels_Videos_2791797.mp4	0.0	219.0772578716278	0.9999511241912842
41	200.17392110824585	movie	1		162	39.0	2.5	/experiments/aot/S_Pexels_Videos_2791797.mp4	0.0	220.0772089958191	2.4999918937683105
41	200.56656193733215	pulse	1	t		39.0	2.5	/experiments/aot/S_Pexels_Videos_2791797.mp4	0.0	220.4698498249054	
41	202.1574671268463	pulse	1	t		39.0	2.5	/experiments/aot/S_Pexels_Videos_2791797.mp4	0.0	222.06075501441956	
41	202.67391300201416	fix_post	2		12	39.0	2.5	/experiments/aot/S_Pexels_Videos_2791797.mp4	0.0	222.5772008895874	0.10000014305114746
42	202.7739131450653	fix_pre	0		119	40.0	2.5	/experiments/aot/S_video_inspire_california_big-sur_landscape_054.1080-h264.mp4	0.0	222.67720103263855	0.9916379451751709
42	203.75740313529968	pulse	0	t		40.0	2.5	/experiments/aot/S_video_inspire_california_big-sur_landscape_054.1080-h264.mp4	0.0	223.66069102287292	
42	203.76555109024048	movie	1		166	40.0	2.5	/experiments/aot/S_video_inspire_california_big-sur_landscape_054.1080-h264.mp4	0.0	223.66883897781372	2.508424997329712
42	205.359610080719	pulse	1	t		40.0	2.5	/experiments/aot/S_video_inspire_california_big-sur_landscape_054.1080-h264.mp4	0.0	225.26289796829224	
42	206.2739760875702	fix_post	2		12	40.0	2.5	/experiments/aot/S_video_inspire_california_big-sur_landscape_054.1080-h264.mp4	0.0	226.17726397514343	0.09989595413208008
43	206.37387204170227	fix_pre	0		120	41.0	2.5	blank	1.0	226.2771599292755	1.0001049041748047
43	206.9575071334839	pulse	0	t		41.0	2.5	blank	1.0	226.86079502105713	
43	207.37397694587708	movie	1		300	41.0	2.5	blank	1.0	227.27726483345032	2.4995150566101074
43	208.55744695663452	pulse	1	t		41.0	2.5	blank	1.0	228.46073484420776	
43	209.87349200248718	fix_post	2		12	41.0	2.5	blank	1.0	229.77677989006042	0.10050392150878906
44	209.97399592399597	fix_pre	0		120	42.0	2.5	/experiments/aot/R_S_yt-G_eNNzNB-hU_1.mp4	0.0	229.8772838115692	0.9999790191650391
44	210.16531991958618	pulse	0	t		42.0	2.5	/experiments/aot/R_S_yt-G_eNNzNB-hU_1.mp4	0.0	230.06860780715942	
44	210.973974943161	movie	1		300	42.0	2.5	/experiments/aot/R_S_yt-G_eNNzNB-hU_1.mp4	0.0	230.87726283073425	2.4995369911193848
44	211.76178312301636	pulse	1	t		42.0	2.5	/experiments/aot/R_S_yt-G_eNNzNB-hU_1.mp4	0.0	231.6650710105896	
44	213.36094093322754	pulse	1	t		42.0	2.5	/experiments/aot/R_S_yt-G_eNNzNB-hU_1.mp4	0.0	233.26422882080078	
44	213.4735119342804	fix_post	2		12	42.0	2.5	/experiments/aot/R_S_yt-G_eNNzNB-hU_1.mp4	0.0	233.37679982185364	0.10033702850341797
45	213.5738489627838	fix_pre	0		120	43.0	2.5	/experiments/aot/R_S_yt-sTBOjPxix5c_1072.mp4	0.0	233.47713685035706	1.0000619888305664
45	214.57391095161438	movie	1		300	43.0	2.5	/experiments/aot/R_S_yt-sTBOjPxix5c_1072.mp4	0.0	234.47719883918762	2.4999539852142334
45	214.96220111846924	pulse	1	t		43.0	2.5	/experiments/aot/R_S_yt-sTBOjPxix5c_1072.mp4	0.0	234.86548900604248	
45	216.56140995025635	pulse	1	t		43.0	2.5	/experiments/aot/R_S_yt-sTBOjPxix5c_1072.mp4	0.0	236.4646978378296	
45	217.0738649368286	fix_post	2		12	43.0	2.5	/experiments/aot/R_S_yt-sTBOjPxix5c_1072.mp4	0.0	236.97715282440186	0.09996700286865234
46	217.17383193969727	fix_pre	0		120	44.0	2.5	/experiments/aot/R_S_yt-VQtbKGzI9SE_431.mp4	0.0	237.0771198272705	0.9999830722808838
46	218.1580491065979	pulse	0	t		44.0	2.5	/experiments/aot/R_S_yt-VQtbKGzI9SE_431.mp4	0.0	238.06133699417114	
46	218.17381501197815	movie	1		301	44.0	2.5	/experiments/aot/R_S_yt-VQtbKGzI9SE_431.mp4	0.0	238.0771028995514	2.509099006652832
46	219.76234102249146	pulse	1	t		44.0	2.5	/experiments/aot/R_S_yt-VQtbKGzI9SE_431.mp4	0.0	239.6656289100647	
46	220.68291401863098	fix_post	2		12	44.0	2.5	/experiments/aot/R_S_yt-VQtbKGzI9SE_431.mp4	0.0	240.58620190620422	0.09916901588439941
47	220.78208303451538	fix_pre	0		120	45.0	2.5	/experiments/aot/R_S_SE_A016_C009_SDR_20190717_SDR_2K_AVC.mp4	0.0	240.68537092208862	1.0000910758972168
47	221.35728096961975	pulse	0	t		45.0	2.5	/experiments/aot/R_S_SE_A016_C009_SDR_20190717_SDR_2K_AVC.mp4	0.0	241.260568857193	
47	221.7821741104126	movie	1		160	45.0	2.5	/experiments/aot/R_S_SE_A016_C009_SDR_20190717_SDR_2K_AVC.mp4	0.0	241.68546199798584	2.499980926513672
47	222.95743203163147	pulse	1	t		45.0	2.5	/experiments/aot/R_S_SE_A016_C009_SDR_20190717_SDR_2K_AVC.mp4	0.0	242.8607199192047	
47	224.28215503692627	fix_post	2		12	45.0	2.5	/experiments/aot/R_S_SE_A016_C009_SDR_20190717_SDR_2K_AVC.mp4	0.0	244.1854429244995	0.09995794296264648
48	224.38211297988892	fix_pre	0		120	46.0	2.5	/experiments/aot/R_S_yt-AbJBxqEYoMg_27.mp4	0.0	244.28540086746216	0.9999289512634277
48	224.55724000930786	pulse	0	t		46.0	2.5	/experiments/aot/R_S_yt-AbJBxqEYoMg_27.mp4	0.0	244.4605278968811	
48	225.38204193115234	movie	1		300	46.0	2.5	/experiments/aot/R_S_yt-AbJBxqEYoMg_27.mp4	0.0	245.2853298187256	2.4997000694274902
48	226.15822196006775	pulse	1	t		46.0	2.5	/experiments/aot/R_S_yt-AbJBxqEYoMg_27.mp4	0.0	246.061509847641	
48	227.75835704803467	pulse	1	t		46.0	2.5	/experiments/aot/R_S_yt-AbJBxqEYoMg_27.mp4	0.0	247.6616449356079	
48	227.88174200057983	fix_post	2		12	46.0	2.5	/experiments/aot/R_S_yt-AbJBxqEYoMg_27.mp4	0.0	247.78502988815308	0.10034894943237305
49	227.9820909500122	fix_pre	0		120	47.0	2.5	/experiments/aot/S_wc-ujHd_fPVcSlX_10.mp4	0.0	247.88537883758545	0.9999830722808838
49	228.9820740222931	movie	1		159	47.0	2.5	/experiments/aot/S_wc-ujHd_fPVcSlX_10.mp4	0.0	248.88536190986633	2.4999639987945557
49	229.36577105522156	pulse	1	t		47.0	2.5	/experiments/aot/S_wc-ujHd_fPVcSlX_10.mp4	0.0	249.2690589427948	
49	230.9657061100006	pulse	1	t		47.0	2.5	/experiments/aot/S_wc-ujHd_fPVcSlX_10.mp4	0.0	250.86899399757385	
49	231.48203802108765	fix_post	2		12	47.0	2.5	/experiments/aot/S_wc-ujHd_fPVcSlX_10.mp4	0.0	251.3853259086609	0.10004997253417969
50	231.58208799362183	fix_pre	0		119	48.0	2.5	/experiments/aot/R_S_pexels-cottonbro-5310858.mp4	0.0	251.48537588119507	0.9916789531707764
50	232.55827498435974	pulse	0	t		48.0	2.5	/experiments/aot/R_S_pexels-cottonbro-5310858.mp4	0.0	252.46156287193298	
50	232.5737669467926	movie	1		163	48.0	2.5	/experiments/aot/R_S_pexels-cottonbro-5310858.mp4	0.0	252.47705483436584	2.508263111114502
50	234.16495513916016	pulse	1	t		48.0	2.5	/experiments/aot/R_S_pexels-cottonbro-5310858.mp4	0.0	254.0682430267334	
50	235.0820300579071	fix_post	2		12	48.0	2.5	/experiments/aot/R_S_pexels-cottonbro-5310858.mp4	0.0	254.98531794548035	0.10006499290466309
51	235.18209505081177	fix_pre	0		120	49.0	2.5	blank	1.0	255.085382938385	0.9999630451202393
51	235.75729203224182	pulse	0	t		49.0	2.5	blank	1.0	255.66057991981506	
51	236.182058095932	movie	1		300	49.0	2.5	blank	1.0	256.08534598350525	2.499626874923706
51	237.35722303390503	pulse	1	t		49.0	2.5	blank	1.0	257.26051092147827	
51	238.6816849708557	fix_post	2		12	49.0	2.5	blank	1.0	258.58497285842896	0.10031700134277344
52	238.7820019721985	fix_pre	0		120	50.0	2.5	/experiments/aot/R_S_yt-kYMffy4hTMo_107.mp4	0.0	258.68528985977173	0.9996490478515625
52	238.9572069644928	pulse	0	t		50.0	2.5	/experiments/aot/R_S_yt-kYMffy4hTMo_107.mp4	0.0	258.86049485206604	
52	239.78165102005005	movie	1		300	50.0	2.5	/experiments/aot/R_S_yt-kYMffy4hTMo_107.mp4	0.0	259.6849389076233	2.500386953353882
52	240.55809497833252	pulse	1	t		50.0	2.5	/experiments/aot/R_S_yt-kYMffy4hTMo_107.mp4	0.0	260.46138286590576	
52	242.15814805030823	pulse	1	t		50.0	2.5	/experiments/aot/R_S_yt-kYMffy4hTMo_107.mp4	0.0	262.06143593788147	
52	242.28203797340393	fix_post	2		12	50.0	2.5	/experiments/aot/R_S_yt-kYMffy4hTMo_107.mp4	0.0	262.1853258609772	0.10004210472106934
53	242.382080078125	fix_pre	0		120	51.0	2.5	/experiments/aot/S_yt-ebzrQh5ErI4_3.mp4	0.0	262.28536796569824	0.999547004699707
53	243.3816270828247	movie	1		300	51.0	2.5	/experiments/aot/S_yt-ebzrQh5ErI4_3.mp4	0.0	263.28491497039795	2.500398874282837
53	243.758229970932	pulse	1	t		51.0	2.5	/experiments/aot/S_yt-ebzrQh5ErI4_3.mp4	0.0	263.66151785850525	
53	245.3581509590149	pulse	1	t		51.0	2.5	/experiments/aot/S_yt-ebzrQh5ErI4_3.mp4	0.0	265.26143884658813	
53	245.88202595710754	fix_post	2		12	51.0	2.5	/experiments/aot/S_yt-ebzrQh5ErI4_3.mp4	0.0	265.7853138446808	0.09996414184570312
54	245.98199009895325	fix_pre	0		119	52.0	2.5	/experiments/aot/R_S_production_ID_3923518.mp4	0.0	265.8852779865265	0.991628885269165
54	246.95793104171753	pulse	0	t		52.0	2.5	/experiments/aot/R_S_production_ID_3923518.mp4	0.0	266.86121892929077	
54	246.9736189842224	movie	1		163	52.0	2.5	/experiments/aot/R_S_production_ID_3923518.mp4	0.0	266.87690687179565	2.5079550743103027
54	248.56539106369019	pulse	1	t		52.0	2.5	/experiments/aot/R_S_production_ID_3923518.mp4	0.0	268.4686789512634	
54	249.48157405853271	fix_post	2		12	52.0	2.5	/experiments/aot/R_S_production_ID_3923518.mp4	0.0	269.38486194610596	0.1004178524017334
55	249.58199191093445	fix_pre	0		120	53.0	2.5	/experiments/aot/S_yt-r7brAHgxZSU_248.mp4	0.0	269.4852797985077	0.9996180534362793
55	250.15843296051025	pulse	0	t		53.0	2.5	/experiments/aot/S_yt-r7brAHgxZSU_248.mp4	0.0	270.0617208480835	
55	250.58160996437073	movie	1		300	53.0	2.5	/experiments/aot/S_yt-r7brAHgxZSU_248.mp4	0.0	270.48489785194397	2.5000271797180176
55	251.75866794586182	pulse	1	t		53.0	2.5	/experiments/aot/S_yt-r7brAHgxZSU_248.mp4	0.0	271.66195583343506	
55	253.08163714408875	fix_post	2		12	53.0	2.5	/experiments/aot/S_yt-r7brAHgxZSU_248.mp4	0.0	272.984925031662	0.10036897659301758
56	253.18200612068176	fix_pre	0		120	54.0	2.5	/experiments/aot/S_yt-4sSV4iIs8gQ_55.mp4	0.0	273.085294008255	0.9999828338623047
56	253.3572211265564	pulse	0	t		54.0	2.5	/experiments/aot/S_yt-4sSV4iIs8gQ_55.mp4	0.0	273.26050901412964	
56	254.18198895454407	movie	1		300	54.0	2.5	/experiments/aot/S_yt-4sSV4iIs8gQ_55.mp4	0.0	274.0852768421173	2.499610185623169
56	254.9572229385376	pulse	1	t		54.0	2.5	/experiments/aot/S_yt-4sSV4iIs8gQ_55.mp4	0.0	274.86051082611084	
56	256.55809593200684	pulse	1	t		54.0	2.5	/experiments/aot/S_yt-4sSV4iIs8gQ_55.mp4	0.0	276.4613838195801	
56	256.68159914016724	fix_post	2		12	54.0	2.5	/experiments/aot/S_yt-4sSV4iIs8gQ_55.mp4	0.0	276.5848870277405	0.10033178329467773
57	256.7819309234619	fix_pre	0		120	55.0	2.5	blank	1.0	276.68521881103516	1.0000481605529785
57	257.7819790840149	movie	1		300	55.0	2.5	blank	1.0	277.68526697158813	2.499966859817505
57	258.1580169200897	pulse	1	t		55.0	2.5	blank	1.0	278.06130480766296	
57	259.7580029964447	pulse	1	t		55.0	2.5	blank	1.0	279.66129088401794	
57	260.2819459438324	fix_post	2		12	55.0	2.5	blank	1.0	280.18523383140564	0.09957408905029297
58	260.3815200328827	fix_pre	0		119	56.0	2.5	/experiments/aot/S_yt-eF5J5Kjt6oY_23.mp4	0.0	280.28480792045593	0.9920868873596191
58	261.35806608200073	pulse	0	t		56.0	2.5	/experiments/aot/S_yt-eF5J5Kjt6oY_23.mp4	0.0	281.261353969574	
58	261.3736069202423	movie	1		301	56.0	2.5	/experiments/aot/S_yt-eF5J5Kjt6oY_23.mp4	0.0	281.27689480781555	2.508427143096924
58	262.9622709751129	pulse	1	t		56.0	2.5	/experiments/aot/S_yt-eF5J5Kjt6oY_23.mp4	0.0	282.86555886268616	
58	263.88203406333923	fix_post	2		12	56.0	2.5	/experiments/aot/S_yt-eF5J5Kjt6oY_23.mp4	0.0	283.7853219509125	0.1000220775604248
59	263.98205614089966	fix_pre	0		120	57.0	2.5	/experiments/aot/R_S_yt-2V2tq9-O_Nc_1669.mp4	0.0	283.8853440284729	0.9999058246612549
59	264.55805802345276	pulse	0	t		57.0	2.5	/experiments/aot/R_S_yt-2V2tq9-O_Nc_1669.mp4	0.0	284.461345911026	
59	264.9819619655609	movie	1		300	57.0	2.5	/experiments/aot/R_S_yt-2V2tq9-O_Nc_1669.mp4	0.0	284.88524985313416	2.500185012817383
59	266.1579520702362	pulse	1	t		57.0	2.5	/experiments/aot/R_S_yt-2V2tq9-O_Nc_1669.mp4	0.0	286.06123995780945	
59	267.4821469783783	fix_post	2		12	57.0	2.5	/experiments/aot/R_S_yt-2V2tq9-O_Nc_1669.mp4	0.0	287.38543486595154	0.10058999061584473
60	267.58273696899414	fix_pre	0		120	58.0	2.5	/experiments/aot/S_yt-Ub5Xx5BqIOk_74.mp4	0.0	287.4860248565674	0.9990899562835693
60	267.75734090805054	pulse	0	t		58.0	2.5	/experiments/aot/S_yt-Ub5Xx5BqIOk_74.mp4	0.0	287.6606287956238	
60	268.5818269252777	movie	1		300	58.0	2.5	/experiments/aot/S_yt-Ub5Xx5BqIOk_74.mp4	0.0	288.48511481285095	2.5001070499420166
60	269.3580889701843	pulse	1	t		58.0	2.5	/experiments/aot/S_yt-Ub5Xx5BqIOk_74.mp4	0.0	289.26137685775757	
60	270.95723009109497	pulse	1	t		58.0	2.5	/experiments/aot/S_yt-Ub5Xx5BqIOk_74.mp4	0.0	290.8605179786682	
60	271.0819339752197	fix_post	2		12	58.0	2.5	/experiments/aot/S_yt-Ub5Xx5BqIOk_74.mp4	0.0	290.98522186279297	0.0999610424041748
61	271.1818950176239	fix_pre	0		120	59.0	2.5	/experiments/aot/R_S_yt-R9Iabv0XgOQ_80.mp4	0.0	291.08518290519714	1.0000290870666504
61	272.18192410469055	movie	1		300	59.0	2.5	/experiments/aot/R_S_yt-R9Iabv0XgOQ_80.mp4	0.0	292.0852119922638	2.499936819076538
61	272.5571060180664	pulse	1	t		59.0	2.5	/experiments/aot/R_S_yt-R9Iabv0XgOQ_80.mp4	0.0	292.46039390563965	
61	274.1579749584198	pulse	1	t		59.0	2.5	/experiments/aot/R_S_yt-R9Iabv0XgOQ_80.mp4	0.0	294.06126284599304	
61	274.6818609237671	fix_post	2		12	59.0	2.5	/experiments/aot/R_S_yt-R9Iabv0XgOQ_80.mp4	0.0	294.58514881134033	0.10002613067626953
62	274.78188705444336	fix_pre	0		119	60.0	2.5	/experiments/aot/R_S_yt-nMWqezngycw_10.mp4	0.0	294.6851749420166	0.991628885269165
62	275.7578139305115	pulse	0	t		60.0	2.5	/experiments/aot/R_S_yt-nMWqezngycw_10.mp4	0.0	295.6611018180847	
62	275.7735159397125	movie	1		301	60.0	2.5	/experiments/aot/R_S_yt-nMWqezngycw_10.mp4	0.0	295.67680382728577	2.5084280967712402
62	277.3610451221466	pulse	1	t		60.0	2.5	/experiments/aot/R_S_yt-nMWqezngycw_10.mp4	0.0	297.26433300971985	
62	278.28194403648376	fix_post	2		12	60.0	2.5	/experiments/aot/R_S_yt-nMWqezngycw_10.mp4	0.0	298.185231924057	0.09993696212768555
63	278.38188099861145	fix_pre	0		120	61.0	2.5	/experiments/aot/S_ILSVRC2015_train_00165009.mp4	0.0	298.2851688861847	0.9996631145477295
63	278.9578220844269	pulse	0	t		61.0	2.5	/experiments/aot/S_ILSVRC2015_train_00165009.mp4	0.0	298.8611099720001	
63	279.3815441131592	movie	1		300	61.0	2.5	/experiments/aot/S_ILSVRC2015_train_00165009.mp4	0.0	299.2848320007324	2.500337839126587
63	280.5578761100769	pulse	1	t		61.0	2.5	/experiments/aot/S_ILSVRC2015_train_00165009.mp4	0.0	300.46116399765015	
63	281.88188195228577	fix_post	2		12	61.0	2.5	/experiments/aot/S_ILSVRC2015_train_00165009.mp4	0.0	301.785169839859	0.10002517700195312
64	281.9819071292877	fix_pre	0		120	62.0	2.5	/experiments/aot/R_S_yt-lfDIg8kaXhA_169.mp4	0.0	301.88519501686096	0.9995419979095459
64	282.15793204307556	pulse	0	t		62.0	2.5	/experiments/aot/R_S_yt-lfDIg8kaXhA_169.mp4	0.0	302.0612199306488	
64	282.98144912719727	movie	1		300	62.0	2.5	/experiments/aot/R_S_yt-lfDIg8kaXhA_169.mp4	0.0	302.8847370147705	2.499943971633911
64	283.75806498527527	pulse	1	t		62.0	2.5	/experiments/aot/R_S_yt-lfDIg8kaXhA_169.mp4	0.0	303.6613528728485	
64	285.3575110435486	pulse	1	t		62.0	2.5	/experiments/aot/R_S_yt-lfDIg8kaXhA_169.mp4	0.0	305.2607989311218	
64	285.4813930988312	fix_post	2		12	62.0	2.5	/experiments/aot/R_S_yt-lfDIg8kaXhA_169.mp4	0.0	305.3846809864044	0.10039496421813965
65	285.5817880630493	fix_pre	0		120	63.0	2.5	blank	1.0	305.48507595062256	0.9995980262756348
65	286.58138608932495	movie	1		300	63.0	2.5	blank	1.0	306.4846739768982	2.5004799365997314
65	286.95778012275696	pulse	1	t		63.0	2.5	blank	1.0	306.8610680103302	
65	288.55709409713745	pulse	1	t		63.0	2.5	blank	1.0	308.4603819847107	
65	289.0818660259247	fix_post	2		12	63.0	2.5	blank	1.0	308.9851539134979	0.09994196891784668
66	289.18180799484253	fix_pre	0		119	64.0	2.5	/experiments/aot/S_yt-Pc1ZlCvsPpc_5.mp4	0.0	309.08509588241577	0.9917070865631104
66	290.1653850078583	pulse	0	t		64.0	2.5	/experiments/aot/S_yt-Pc1ZlCvsPpc_5.mp4	0.0	310.0686728954315	
66	290.17351508140564	movie	1		301	64.0	2.5	/experiments/aot/S_yt-Pc1ZlCvsPpc_5.mp4	0.0	310.0768029689789	2.508340835571289
66	291.7610430717468	pulse	1	t		64.0	2.5	/experiments/aot/S_yt-Pc1ZlCvsPpc_5.mp4	0.0	311.66433095932007	
66	292.68185591697693	fix_post	2		12	64.0	2.5	/experiments/aot/S_yt-Pc1ZlCvsPpc_5.mp4	0.0	312.58514380455017	0.09992718696594238
67	292.78178310394287	fix_pre	0		120	65.0	2.5	/experiments/aot/S_yt-EBuE7GbFw7U_180.mp4	0.0	312.6850709915161	1.0000498294830322
67	293.357892036438	pulse	0	t		65.0	2.5	/experiments/aot/S_yt-EBuE7GbFw7U_180.mp4	0.0	313.26117992401123	
67	293.7818329334259	movie	1		300	65.0	2.5	/experiments/aot/S_yt-EBuE7GbFw7U_180.mp4	0.0	313.68512082099915	2.500030994415283
67	294.9579200744629	pulse	1	t		65.0	2.5	/experiments/aot/S_yt-EBuE7GbFw7U_180.mp4	0.0	314.86120796203613	
67	296.2818639278412	fix_post	2		12	65.0	2.5	/experiments/aot/S_yt-EBuE7GbFw7U_180.mp4	0.0	316.18515181541443	0.09996819496154785
68	296.38183212280273	fix_pre	0		120	66.0	2.5	/experiments/aot/R_S_yt-etQaTgGOhR4_69.mp4	0.0	316.285120010376	0.9999308586120605
68	296.55782103538513	pulse	0	t		66.0	2.5	/experiments/aot/R_S_yt-etQaTgGOhR4_69.mp4	0.0	316.4611089229584	
68	297.3817629814148	movie	1		300	66.0	2.5	/experiments/aot/R_S_yt-etQaTgGOhR4_69.mp4	0.0	317.28505086898804	2.499998092651367
68	298.1579430103302	pulse	1	t		66.0	2.5	/experiments/aot/R_S_yt-etQaTgGOhR4_69.mp4	0.0	318.06123089790344	
68	299.75810194015503	pulse	1	t		66.0	2.5	/experiments/aot/R_S_yt-etQaTgGOhR4_69.mp4	0.0	319.66138982772827	
68	299.88176107406616	fix_post	2		12	66.0	2.5	/experiments/aot/R_S_yt-etQaTgGOhR4_69.mp4	0.0	319.7850489616394	0.09997797012329102
69	299.98173904418945	fix_pre	0		120	67.0	2.5	/experiments/aot/R_S_yt-HFiRYTnMZxE_338.mp4	0.0	319.8850269317627	1.0000789165496826
69	300.98181796073914	movie	1		300	67.0	2.5	/experiments/aot/R_S_yt-HFiRYTnMZxE_338.mp4	0.0	320.8851058483124	2.499936103820801
69	301.3578360080719	pulse	1	t		67.0	2.5	/experiments/aot/R_S_yt-HFiRYTnMZxE_338.mp4	0.0	321.26112389564514	
69	302.95794701576233	pulse	1	t		67.0	2.5	/experiments/aot/R_S_yt-HFiRYTnMZxE_338.mp4	0.0	322.86123490333557	
69	303.48175406455994	fix_post	2		12	67.0	2.5	/experiments/aot/R_S_yt-HFiRYTnMZxE_338.mp4	0.0	323.3850419521332	0.09999203681945801
70	303.5817461013794	fix_pre	0		119	68.0	2.5	/experiments/aot/S_yt-AbJBxqEYoMg_27.mp4	0.0	323.48503398895264	0.9917209148406982
70	304.55771112442017	pulse	0	t		68.0	2.5	/experiments/aot/S_yt-AbJBxqEYoMg_27.mp4	0.0	324.4609990119934	
70	304.5734670162201	movie	1		301	68.0	2.5	/experiments/aot/S_yt-AbJBxqEYoMg_27.mp4	0.0	324.47675490379333	2.5082719326019287
70	306.161190032959	pulse	1	t		68.0	2.5	/experiments/aot/S_yt-AbJBxqEYoMg_27.mp4	0.0	326.0644779205322	
70	307.081738948822	fix_post	2		12	68.0	2.5	/experiments/aot/S_yt-AbJBxqEYoMg_27.mp4	0.0	326.98502683639526	0.10001897811889648
71	307.1817579269409	fix_pre	0		120	69.0	2.5	/experiments/aot/S_ILSVRC2015_train_00417000.mp4	0.0	327.08504581451416	0.9999420642852783
71	307.76527309417725	pulse	0	t		69.0	2.5	/experiments/aot/S_ILSVRC2015_train_00417000.mp4	0.0	327.6685609817505	
71	308.1816999912262	movie	1		300	69.0	2.5	/experiments/aot/S_ILSVRC2015_train_00417000.mp4	0.0	328.08498787879944	2.499979019165039
71	309.3578610420227	pulse	1	t		69.0	2.5	/experiments/aot/S_ILSVRC2015_train_00417000.mp4	0.0	329.26114892959595	
71	310.68167901039124	fix_post	2		12	69.0	2.5	/experiments/aot/S_ILSVRC2015_train_00417000.mp4	0.0	330.5849668979645	0.10000491142272949
72	310.78168392181396	fix_pre	0		120	70.0	2.5	blank	1.0	330.6849718093872	1.0000321865081787
72	310.95765709877014	pulse	0	t		70.0	2.5	blank	1.0	330.8609449863434	
72	311.78171610832214	movie	1		300	70.0	2.5	blank	1.0	331.6850039958954	2.499955892562866
72	312.5576310157776	pulse	1	t		70.0	2.5	blank	1.0	332.46091890335083	
72	314.15756011009216	pulse	1	t		70.0	2.5	blank	1.0	334.0608479976654	
72	314.281672000885	fix_post	2		12	70.0	2.5	blank	1.0	334.18495988845825	0.09998512268066406
73	314.3816571235657	fix_pre	0		120	71.0	2.5	/experiments/aot/S_yt-UzWRbs9Syf4_7.mp4	0.0	334.2849450111389	1.0000019073486328
73	315.3816590309143	movie	1		300	71.0	2.5	/experiments/aot/S_yt-UzWRbs9Syf4_7.mp4	0.0	335.28494691848755	2.5000369548797607
73	315.75763511657715	pulse	1	t		71.0	2.5	/experiments/aot/S_yt-UzWRbs9Syf4_7.mp4	0.0	335.6609230041504	
73	317.35772013664246	pulse	1	t		71.0	2.5	/experiments/aot/S_yt-UzWRbs9Syf4_7.mp4	0.0	337.2610080242157	
73	317.88169598579407	fix_post	2		12	71.0	2.5	/experiments/aot/S_yt-UzWRbs9Syf4_7.mp4	0.0	337.7849838733673	0.0999600887298584
74	317.9816560745239	fix_pre	0		119	72.0	2.5	/experiments/aot/S_pexels-laker-5793000.mp4	0.0	337.88494396209717	0.991724967956543
74	318.9577040672302	pulse	0	t		72.0	2.5	/experiments/aot/S_pexels-laker-5793000.mp4	0.0	338.86099195480347	
74	318.97338104248047	movie	1		162	72.0	2.5	/experiments/aot/S_pexels-laker-5793000.mp4	0.0	338.8766689300537	2.5079150199890137
74	320.5648820400238	pulse	1	t		72.0	2.5	/experiments/aot/S_pexels-laker-5793000.mp4	0.0	340.46816992759705	
74	321.4812960624695	fix_post	2		12	72.0	2.5	/experiments/aot/S_pexels-laker-5793000.mp4	0.0	341.3845839500427	0.10037899017333984
75	321.5816750526428	fix_pre	0		120	73.0	2.5	/experiments/aot/S_yt-HFiRYTnMZxE_338.mp4	0.0	341.48496294021606	0.9996800422668457
75	322.1648299694061	pulse	0	t		73.0	2.5	/experiments/aot/S_yt-HFiRYTnMZxE_338.mp4	0.0	342.06811785697937	
75	322.58135509490967	movie	1		300	73.0	2.5	/experiments/aot/S_yt-HFiRYTnMZxE_338.mp4	0.0	342.4846429824829	2.5003278255462646
75	323.7649691104889	pulse	1	t		73.0	2.5	/experiments/aot/S_yt-HFiRYTnMZxE_338.mp4	0.0	343.66825699806213	
75	325.08168292045593	fix_post	2		12	73.0	2.5	/experiments/aot/S_yt-HFiRYTnMZxE_338.mp4	0.0	344.9849708080292	0.10000920295715332
76	325.1816921234131	fix_pre	0		120	74.0	2.5	/experiments/aot/S_ILSVRC2015_train_00165012.mp4	0.0	345.0849800109863	1.000082015991211
76	325.3650760650635	pulse	0	t		74.0	2.5	/experiments/aot/S_ILSVRC2015_train_00165012.mp4	0.0	345.2683639526367	
76	326.1817741394043	movie	1		300	74.0	2.5	/experiments/aot/S_ILSVRC2015_train_00165012.mp4	0.0	346.08506202697754	2.4998438358306885
76	326.95773100852966	pulse	1	t		74.0	2.5	/experiments/aot/S_ILSVRC2015_train_00165012.mp4	0.0	346.8610188961029	
76	328.55969500541687	pulse	1	t		74.0	2.5	/experiments/aot/S_ILSVRC2015_train_00165012.mp4	0.0	348.4629828929901	
76	328.681617975235	fix_post	2		12	74.0	2.5	/experiments/aot/S_ILSVRC2015_train_00165012.mp4	0.0	348.5849058628082	0.10006093978881836
77	328.7816789150238	fix_pre	0		120	75.0	2.5	blank	1.0	348.68496680259705	0.9999351501464844
77	329.7816140651703	movie	1		300	75.0	2.5	blank	1.0	349.68490195274353	2.5000829696655273
77	330.1576249599457	pulse	1	t		75.0	2.5	blank	1.0	350.0609128475189	
77	331.75771498680115	pulse	1	t		75.0	2.5	blank	1.0	351.6610028743744	
77	332.2816970348358	fix_post	2		12	75.0	2.5	blank	1.0	352.18498492240906	0.09949994087219238
78	332.381196975708	fix_pre	0		119	76.0	2.5	/experiments/aot/R_S_video-2_copy.mp4	0.0	352.28448486328125	0.9920330047607422
78	333.3576030731201	pulse	0	t		76.0	2.5	/experiments/aot/R_S_video-2_copy.mp4	0.0	353.26089096069336	
78	333.37322998046875	movie	1		162	76.0	2.5	/experiments/aot/R_S_video-2_copy.mp4	0.0	353.276517868042	2.508341073989868
78	334.96634793281555	pulse	1	t		76.0	2.5	/experiments/aot/R_S_video-2_copy.mp4	0.0	354.8696358203888	
78	335.8815710544586	fix_post	2		12	76.0	2.5	/experiments/aot/R_S_video-2_copy.mp4	0.0	355.78485894203186	0.10005593299865723
79	335.9816269874573	fix_pre	0		120	77.0	2.5	/experiments/aot/R_S_ILnEDG_aP1A_35.mp4	0.0	355.8849148750305	0.9995651245117188
79	336.55753898620605	pulse	0	t		77.0	2.5	/experiments/aot/R_S_ILnEDG_aP1A_35.mp4	0.0	356.4608268737793	
79	336.981192111969	movie	1		300	77.0	2.5	/experiments/aot/R_S_ILnEDG_aP1A_35.mp4	0.0	356.88447999954224	2.5003228187561035
79	338.1650071144104	pulse	1	t		77.0	2.5	/experiments/aot/R_S_ILnEDG_aP1A_35.mp4	0.0	358.06829500198364	
79	339.4815149307251	fix_post	2		12	77.0	2.5	/experiments/aot/R_S_ILnEDG_aP1A_35.mp4	0.0	359.38480281829834	0.10008120536804199
80	339.58159613609314	fix_pre	0		120	78.0	2.5	/experiments/aot/R_S_PA_A004_C003_SDR_20190719_SDR_2K_AVC.mp4	0.0	359.4848840236664	0.99993896484375
80	339.7651081085205	pulse	0	t		78.0	2.5	/experiments/aot/R_S_PA_A004_C003_SDR_20190719_SDR_2K_AVC.mp4	0.0	359.66839599609375	
80	340.5815351009369	movie	1		166	78.0	2.5	/experiments/aot/R_S_PA_A004_C003_SDR_20190719_SDR_2K_AVC.mp4	0.0	360.48482298851013	2.500056028366089
80	341.3651659488678	pulse	1	t		78.0	2.5	/experiments/aot/R_S_PA_A004_C003_SDR_20190719_SDR_2K_AVC.mp4	0.0	361.26845383644104	
80	342.95777201652527	pulse	1	t		78.0	2.5	/experiments/aot/R_S_PA_A004_C003_SDR_20190719_SDR_2K_AVC.mp4	0.0	362.8610599040985	
80	343.081591129303	fix_post	2		12	78.0	2.5	/experiments/aot/R_S_PA_A004_C003_SDR_20190719_SDR_2K_AVC.mp4	0.0	362.9848790168762	0.10003089904785156
81	343.18162202835083	fix_pre	0		120	79.0	2.5	/experiments/aot/R_S_yt-ycfVJyrFgB4_15.mp4	0.0	363.0849099159241	0.99993896484375
81	344.1815609931946	movie	1		300	79.0	2.5	/experiments/aot/R_S_yt-ycfVJyrFgB4_15.mp4	0.0	364.0848488807678	2.499566078186035
81	344.5577480792999	pulse	1	t		79.0	2.5	/experiments/aot/R_S_yt-ycfVJyrFgB4_15.mp4	0.0	364.46103596687317	
81	346.1576569080353	pulse	1	t		79.0	2.5	/experiments/aot/R_S_yt-ycfVJyrFgB4_15.mp4	0.0	366.0609447956085	
81	346.6811270713806	fix_post	2		12	79.0	2.5	/experiments/aot/R_S_yt-ycfVJyrFgB4_15.mp4	0.0	366.58441495895386	0.10039997100830078
82	346.7815270423889	fix_pre	0		119	80.0	2.5	/experiments/aot/S_flickr-southeasternstar-3464778323_10.mp4	0.0	366.68481492996216	0.9916799068450928
82	347.7575960159302	pulse	0	t		80.0	2.5	/experiments/aot/S_flickr-southeasternstar-3464778323_10.mp4	0.0	367.6608839035034	
82	347.773206949234	movie	1		300	80.0	2.5	/experiments/aot/S_flickr-southeasternstar-3464778323_10.mp4	0.0	367.67649483680725	2.507934093475342
82	349.3614709377289	pulse	1	t		80.0	2.5	/experiments/aot/S_flickr-southeasternstar-3464778323_10.mp4	0.0	369.2647588253021	
82	350.28114104270935	fix_post	2		12	80.0	2.5	/experiments/aot/S_flickr-southeasternstar-3464778323_10.mp4	0.0	370.1844289302826	0.10041689872741699
83	350.38155794143677	fix_pre	0		120	81.0	2.5	/experiments/aot/S_3WAnGcPubBY_143.mp4	0.0	370.28484582901	0.999934196472168
83	350.9575800895691	pulse	0	t		81.0	2.5	/experiments/aot/S_3WAnGcPubBY_143.mp4	0.0	370.86086797714233	
83	351.38149213790894	movie	1		300	81.0	2.5	/experiments/aot/S_3WAnGcPubBY_143.mp4	0.0	371.2847800254822	2.499562978744507
83	352.5582399368286	pulse	1	t		81.0	2.5	/experiments/aot/S_3WAnGcPubBY_143.mp4	0.0	372.46152782440186	
83	353.88105511665344	fix_post	2		12	81.0	2.5	/experiments/aot/S_3WAnGcPubBY_143.mp4	0.0	373.7843430042267	0.10046792030334473
84	353.9815230369568	fix_pre	0		120	82.0	2.5	/experiments/aot/R_S_yt-VfASxEzDrvc_145.mp4	0.0	373.88481092453003	0.9995310306549072
84	354.16506791114807	pulse	0	t		82.0	2.5	/experiments/aot/R_S_yt-VfASxEzDrvc_145.mp4	0.0	374.0683557987213	
84	354.9810540676117	movie	1		299	82.0	2.5	/experiments/aot/R_S_yt-VfASxEzDrvc_145.mp4	0.0	374.88434195518494	2.500412940979004
84	355.7649700641632	pulse	1	t		82.0	2.5	/experiments/aot/R_S_yt-VfASxEzDrvc_145.mp4	0.0	375.66825795173645	
84	357.3650550842285	pulse	1	t		82.0	2.5	/experiments/aot/R_S_yt-VfASxEzDrvc_145.mp4	0.0	377.26834297180176	
84	357.4814670085907	fix_post	2		12	82.0	2.5	/experiments/aot/R_S_yt-VfASxEzDrvc_145.mp4	0.0	377.38475489616394	0.09999394416809082
85	357.5814609527588	fix_pre	0		120	83.0	2.5	blank	1.0	377.48474884033203	1.0000309944152832
85	358.5814919471741	movie	1		300	83.0	2.5	blank	1.0	378.4847798347473	2.5000150203704834
85	358.96501207351685	pulse	1	t		83.0	2.5	blank	1.0	378.8682999610901	
85	360.56495809555054	pulse	1	t		83.0	2.5	blank	1.0	380.4682459831238	
85	361.08150696754456	fix_post	2		12	83.0	2.5	blank	1.0	380.9847948551178	0.09999203681945801
87	361.181499004364	stim	0		1716					381.08478689193726	14.299978971481323
87	362.15754294395447	pulse	0	t						382.0608308315277	
87	363.75761103630066	pulse	0	t						383.6608989238739	
87	365.3574900627136	pulse	0	t						385.26077795028687	
87	366.9575629234314	pulse	0	t						386.86085081100464	
87	368.5574929714203	pulse	0	t						388.46078085899353	
87	370.16493797302246	pulse	0	t						390.0682258605957	
87	371.76497411727905	pulse	0	t						391.6682620048523	
87	373.36494493484497	pulse	0	t						393.2682328224182	
87	374.96492409706116	pulse	0	t						394.8682119846344	
