trial_nr	onset	event_type	phase	response	nr_frames	movie_index	movie_duration	movie_file	blank	onset_abs	duration
0	0.2081589698791504	stim	0		4					18.57440495491028	0.03343987464904785
0	0.23361802101135254	response	0	space						18.59986400604248	
1	0.24159884452819824	stim	0		4455					18.607844829559326	37.143768072128296
1	37.370277881622314	pulse	0	t						55.73652386665344	
1	37.385366916656494	stim	1		1715					55.75161290168762	14.297194957733154
1	38.964146852493286	pulse	1	t						57.330392837524414	
1	40.56458401679993	pulse	1	t						58.930830001831055	
1	42.164762020111084	pulse	1	t						60.53100800514221	
1	43.7648868560791	pulse	1	t						62.13113284111023	
1	45.36502695083618	pulse	1	t						63.73127293586731	
1	46.9653639793396	pulse	1	t						65.33160996437073	
1	48.56560802459717	pulse	1	t						66.9318540096283	
1	50.165855884552	pulse	1	t						68.53210186958313	
2	51.68256187438965	fix_pre	0		11	0.0	2.5	/experiments/knapen_AOT/AOT_stimuli/rescaled_final/0893_fw.mp4	0.0	70.04880785942078	0.09161806106567383
2	51.76605296134949	pulse	0	t		0.0	2.5	/experiments/knapen_AOT/AOT_stimuli/rescaled_final/0893_fw.mp4	0.0	70.13229894638062	
2	51.77417993545532	movie	1		242	0.0	2.5	/experiments/knapen_AOT/AOT_stimuli/rescaled_final/0893_fw.mp4	0.0	70.14042592048645	2.50871205329895
2	53.36824893951416	pulse	1	t		0.0	2.5	/experiments/knapen_AOT/AOT_stimuli/rescaled_final/0893_fw.mp4	0.0	71.73449492454529	
2	54.28289198875427	fix_post	2		12	0.0	2.5	/experiments/knapen_AOT/AOT_stimuli/rescaled_final/0893_fw.mp4	0.0	72.6491379737854	0.10001587867736816
3	54.38290786743164	fix_pre	0		120	1.0	2.5	/experiments/knapen_AOT/AOT_stimuli/rescaled_final/1005_rv.mp4	0.0	72.74915385246277	1.000230073928833
3	54.95909786224365	pulse	0	t		1.0	2.5	/experiments/knapen_AOT/AOT_stimuli/rescaled_final/1005_rv.mp4	0.0	73.32534384727478	
3	55.383137941360474	movie	1		243	1.0	2.5	/experiments/knapen_AOT/AOT_stimuli/rescaled_final/1005_rv.mp4	0.0	73.7493839263916	2.500485897064209
3	56.56685185432434	pulse	1	t		1.0	2.5	/experiments/knapen_AOT/AOT_stimuli/rescaled_final/1005_rv.mp4	0.0	74.93309783935547	
3	57.88362383842468	fix_post	2		12	1.0	2.5	/experiments/knapen_AOT/AOT_stimuli/rescaled_final/1005_rv.mp4	0.0	76.24986982345581	0.09988713264465332
4	57.983510971069336	fix_pre	0		120	2.0	2.5	/experiments/knapen_AOT/AOT_stimuli/rescaled_final/0822_rv.mp4	0.0	76.34975695610046	1.0001518726348877
4	58.15955090522766	pulse	0	t		2.0	2.5	/experiments/knapen_AOT/AOT_stimuli/rescaled_final/0822_rv.mp4	0.0	76.52579689025879	
4	58.983662843704224	movie	1		243	2.0	2.5	/experiments/knapen_AOT/AOT_stimuli/rescaled_final/0822_rv.mp4	0.0	77.34990882873535	2.5003561973571777
4	59.759902000427246	pulse	1	t		2.0	2.5	/experiments/knapen_AOT/AOT_stimuli/rescaled_final/0822_rv.mp4	0.0	78.12614798545837	
4	61.35919189453125	pulse	1	t		2.0	2.5	/experiments/knapen_AOT/AOT_stimuli/rescaled_final/0822_rv.mp4	0.0	79.72543787956238	
4	61.4840190410614	fix_post	2		12	2.0	2.5	/experiments/knapen_AOT/AOT_stimuli/rescaled_final/0822_rv.mp4	0.0	79.85026502609253	0.09996294975280762
5	61.58398199081421	fix_pre	0		120	3.0	2.5	/experiments/knapen_AOT/AOT_stimuli/rescaled_final/0995_rv.mp4	0.0	79.95022797584534	1.000196933746338
5	62.58417892456055	movie	1		242	3.0	2.5	/experiments/knapen_AOT/AOT_stimuli/rescaled_final/0995_rv.mp4	0.0	80.95042490959167	2.492089033126831
5	62.95933294296265	pulse	1	t		3.0	2.5	/experiments/knapen_AOT/AOT_stimuli/rescaled_final/0995_rv.mp4	0.0	81.32557892799377	
5	64.55973386764526	pulse	1	t		3.0	2.5	/experiments/knapen_AOT/AOT_stimuli/rescaled_final/0995_rv.mp4	0.0	82.92597985267639	
5	65.07626795768738	fix_post	2		12	3.0	2.5	/experiments/knapen_AOT/AOT_stimuli/rescaled_final/0995_rv.mp4	0.0	83.4425139427185	0.09997010231018066
6	65.17623805999756	fix_pre	0		119	4.0	2.5	/experiments/knapen_AOT/AOT_stimuli/rescaled_final/0685_fw.mp4	0.0	83.54248404502869	0.9917449951171875
6	66.15986585617065	pulse	0	t		4.0	2.5	/experiments/knapen_AOT/AOT_stimuli/rescaled_final/0685_fw.mp4	0.0	84.52611184120178	
6	66.16798305511475	movie	1		244	4.0	2.5	/experiments/knapen_AOT/AOT_stimuli/rescaled_final/0685_fw.mp4	0.0	84.53422904014587	2.5087850093841553
6	67.76120686531067	pulse	1	t		4.0	2.5	/experiments/knapen_AOT/AOT_stimuli/rescaled_final/0685_fw.mp4	0.0	86.1274528503418	
6	68.6767680644989	fix_post	2		12	4.0	2.5	/experiments/knapen_AOT/AOT_stimuli/rescaled_final/0685_fw.mp4	0.0	87.04301404953003	0.09998893737792969
7	68.77675700187683	fix_pre	0		120	5.0	2.5	blank	1.0	87.14300298690796	1.000121831893921
7	69.3603458404541	pulse	0	t		5.0	2.5	blank	1.0	87.72659182548523	
7	69.77687883377075	movie	1		300	5.0	2.5	blank	1.0	88.14312481880188	2.500434160232544
7	70.96057891845703	pulse	1	t		5.0	2.5	blank	1.0	89.32682490348816	
7	72.2773129940033	fix_post	2		12	5.0	2.5	blank	1.0	90.64355897903442	0.10001587867736816
8	72.37732887268066	fix_pre	0		120	6.0	2.5	/experiments/knapen_AOT/AOT_stimuli/rescaled_final/1556_rv.mp4	0.0	90.74357485771179	1.0001330375671387
8	72.56089496612549	pulse	0	t		6.0	2.5	/experiments/knapen_AOT/AOT_stimuli/rescaled_final/1556_rv.mp4	0.0	90.92714095115662	
8	73.3774619102478	movie	1		243	6.0	2.5	/experiments/knapen_AOT/AOT_stimuli/rescaled_final/1556_rv.mp4	0.0	91.74370789527893	2.500415086746216
8	74.16103792190552	pulse	1	t		6.0	2.5	/experiments/knapen_AOT/AOT_stimuli/rescaled_final/1556_rv.mp4	0.0	92.52728390693665	
8	75.76118183135986	pulse	1	t		6.0	2.5	/experiments/knapen_AOT/AOT_stimuli/rescaled_final/1556_rv.mp4	0.0	94.12742781639099	
8	75.87787699699402	fix_post	2		12	6.0	2.5	/experiments/knapen_AOT/AOT_stimuli/rescaled_final/1556_rv.mp4	0.0	94.24412298202515	0.09993195533752441
9	75.97780895233154	fix_pre	0		119	7.0	2.5	/experiments/knapen_AOT/AOT_stimuli/rescaled_final/0158_rv.mp4	0.0	94.34405493736267	0.9918160438537598
9	76.9696249961853	movie	1		242	7.0	2.5	/experiments/knapen_AOT/AOT_stimuli/rescaled_final/0158_rv.mp4	0.0	95.33587098121643	2.500396966934204
9	77.36168384552002	pulse	1	t		7.0	2.5	/experiments/knapen_AOT/AOT_stimuli/rescaled_final/0158_rv.mp4	0.0	95.72792983055115	
9	78.9618239402771	pulse	1	t		7.0	2.5	/experiments/knapen_AOT/AOT_stimuli/rescaled_final/0158_rv.mp4	0.0	97.32806992530823	
9	79.4700219631195	fix_post	2		12	7.0	2.5	/experiments/knapen_AOT/AOT_stimuli/rescaled_final/0158_rv.mp4	0.0	97.83626794815063	0.10000395774841309
10	79.57002592086792	fix_pre	0		120	8.0	2.5	/experiments/knapen_AOT/AOT_stimuli/rescaled_final/1088_fw.mp4	0.0	97.93627190589905	1.0001120567321777
10	80.56198501586914	pulse	0	t		8.0	2.5	/experiments/knapen_AOT/AOT_stimuli/rescaled_final/1088_fw.mp4	0.0	98.92823100090027	
10	80.5701379776001	movie	1		245	8.0	2.5	/experiments/knapen_AOT/AOT_stimuli/rescaled_final/1088_fw.mp4	0.0	98.93638396263123	2.508749008178711
10	82.16275906562805	pulse	1	t		8.0	2.5	/experiments/knapen_AOT/AOT_stimuli/rescaled_final/1088_fw.mp4	0.0	100.52900505065918	
10	83.07888698577881	fix_post	2		12	8.0	2.5	/experiments/knapen_AOT/AOT_stimuli/rescaled_final/1088_fw.mp4	0.0	101.44513297080994	0.09998607635498047
11	83.17887306213379	fix_pre	0		120	9.0	2.5	/experiments/knapen_AOT/AOT_stimuli/rescaled_final/1717_rv.mp4	0.0	101.54511904716492	1.0001499652862549
11	83.76257491111755	pulse	0	t		9.0	2.5	/experiments/knapen_AOT/AOT_stimuli/rescaled_final/1717_rv.mp4	0.0	102.12882089614868	
11	84.17902302742004	movie	1		242	9.0	2.5	/experiments/knapen_AOT/AOT_stimuli/rescaled_final/1717_rv.mp4	0.0	102.54526901245117	2.5005228519439697
11	85.36295199394226	pulse	1	t		9.0	2.5	/experiments/knapen_AOT/AOT_stimuli/rescaled_final/1717_rv.mp4	0.0	103.72919797897339	
11	86.67954587936401	fix_post	2		12	9.0	2.5	/experiments/knapen_AOT/AOT_stimuli/rescaled_final/1717_rv.mp4	0.0	105.04579186439514	0.09993505477905273
12	86.77948093414307	fix_pre	0		120	10.0	2.5	/experiments/knapen_AOT/AOT_stimuli/rescaled_final/0616_fw.mp4	0.0	105.1457269191742	1.0001320838928223
12	86.96300196647644	pulse	0	t		10.0	2.5	/experiments/knapen_AOT/AOT_stimuli/rescaled_final/0616_fw.mp4	0.0	105.32924795150757	
12	87.77961301803589	movie	1		242	10.0	2.5	/experiments/knapen_AOT/AOT_stimuli/rescaled_final/0616_fw.mp4	0.0	106.14585900306702	2.534010887145996
12	88.56318283081055	pulse	1	t		10.0	2.5	/experiments/knapen_AOT/AOT_stimuli/rescaled_final/0616_fw.mp4	0.0	106.92942881584167	
12	90.16397190093994	pulse	1	t		10.0	2.5	/experiments/knapen_AOT/AOT_stimuli/rescaled_final/0616_fw.mp4	0.0	108.53021788597107	
12	90.31362390518188	fix_post	2		8	10.0	2.5	/experiments/knapen_AOT/AOT_stimuli/rescaled_final/0616_fw.mp4	0.0	108.67986989021301	0.06634211540222168
13	90.3799660205841	fix_pre	0		120	11.0	2.5	/experiments/knapen_AOT/AOT_stimuli/rescaled_final/0840_fw.mp4	0.0	108.74621200561523	1.0001859664916992
13	91.3801519870758	movie	1		242	11.0	2.5	/experiments/knapen_AOT/AOT_stimuli/rescaled_final/0840_fw.mp4	0.0	109.74639797210693	2.4921109676361084
13	91.76437902450562	pulse	1	t		11.0	2.5	/experiments/knapen_AOT/AOT_stimuli/rescaled_final/0840_fw.mp4	0.0	110.13062500953674	
13	93.36401391029358	pulse	1	t		11.0	2.5	/experiments/knapen_AOT/AOT_stimuli/rescaled_final/0840_fw.mp4	0.0	111.7302598953247	
13	93.87226295471191	fix_post	2		12	11.0	2.5	/experiments/knapen_AOT/AOT_stimuli/rescaled_final/0840_fw.mp4	0.0	112.23850893974304	0.09996390342712402
14	93.97222685813904	fix_pre	0		120	12.0	2.5	/experiments/knapen_AOT/AOT_stimuli/rescaled_final/0155_rv.mp4	0.0	112.33847284317017	1.0001041889190674
14	94.96423292160034	pulse	0	t		12.0	2.5	/experiments/knapen_AOT/AOT_stimuli/rescaled_final/0155_rv.mp4	0.0	113.33047890663147	
14	94.9723310470581	movie	1		243	12.0	2.5	/experiments/knapen_AOT/AOT_stimuli/rescaled_final/0155_rv.mp4	0.0	113.33857703208923	2.5087039470672607
14	96.5652060508728	pulse	1	t		12.0	2.5	/experiments/knapen_AOT/AOT_stimuli/rescaled_final/0155_rv.mp4	0.0	114.93145203590393	
14	97.48103499412537	fix_post	2		12	12.0	2.5	/experiments/knapen_AOT/AOT_stimuli/rescaled_final/0155_rv.mp4	0.0	115.8472809791565	0.09999489784240723
15	97.58102989196777	fix_pre	0		120	13.0	2.5	/experiments/knapen_AOT/AOT_stimuli/rescaled_final/1461_fw.mp4	0.0	115.9472758769989	1.0002219676971436
15	98.16464495658875	pulse	0	t		13.0	2.5	/experiments/knapen_AOT/AOT_stimuli/rescaled_final/1461_fw.mp4	0.0	116.53089094161987	
15	98.58125185966492	movie	1		244	13.0	2.5	/experiments/knapen_AOT/AOT_stimuli/rescaled_final/1461_fw.mp4	0.0	116.94749784469604	2.500298023223877
15	99.76115489006042	pulse	1	t		13.0	2.5	/experiments/knapen_AOT/AOT_stimuli/rescaled_final/1461_fw.mp4	0.0	118.12740087509155	
15	101.0815498828888	fix_post	2		12	13.0	2.5	/experiments/knapen_AOT/AOT_stimuli/rescaled_final/1461_fw.mp4	0.0	119.44779586791992	0.10011100769042969
16	101.18166089057922	fix_pre	0		120	14.0	2.5	blank	1.0	119.54790687561035	1.0001089572906494
16	101.36509704589844	pulse	0	t		14.0	2.5	blank	1.0	119.73134303092957	
16	102.18176984786987	movie	1		300	14.0	2.5	blank	1.0	120.548015832901	2.5004470348358154
16	102.96548199653625	pulse	1	t		14.0	2.5	blank	1.0	121.33172798156738	
16	104.56557297706604	pulse	1	t		14.0	2.5	blank	1.0	122.93181896209717	
16	104.68221688270569	fix_post	2		12	14.0	2.5	blank	1.0	123.04846286773682	0.09995317459106445
17	104.78217005729675	fix_pre	0		120	15.0	2.5	/experiments/knapen_AOT/AOT_stimuli/rescaled_final/0264_fw.mp4	0.0	123.14841604232788	1.0001249313354492
17	105.7822949886322	movie	1		241	15.0	2.5	/experiments/knapen_AOT/AOT_stimuli/rescaled_final/0264_fw.mp4	0.0	124.14854097366333	2.4921000003814697
17	106.16649603843689	pulse	1	t		15.0	2.5	/experiments/knapen_AOT/AOT_stimuli/rescaled_final/0264_fw.mp4	0.0	124.53274202346802	
17	107.76607489585876	pulse	1	t		15.0	2.5	/experiments/knapen_AOT/AOT_stimuli/rescaled_final/0264_fw.mp4	0.0	126.13232088088989	
17	108.27439498901367	fix_post	2		12	15.0	2.5	/experiments/knapen_AOT/AOT_stimuli/rescaled_final/0264_fw.mp4	0.0	126.6406409740448	0.0999598503112793
18	108.37435483932495	fix_pre	0		120	16.0	2.5	/experiments/knapen_AOT/AOT_stimuli/rescaled_final/0588_rv.mp4	0.0	126.74060082435608	1.0001170635223389
18	109.36639189720154	pulse	0	t		16.0	2.5	/experiments/knapen_AOT/AOT_stimuli/rescaled_final/0588_rv.mp4	0.0	127.73263788223267	
18	109.37447190284729	movie	1		243	16.0	2.5	/experiments/knapen_AOT/AOT_stimuli/rescaled_final/0588_rv.mp4	0.0	127.74071788787842	2.5087881088256836
18	110.96815085411072	pulse	1	t		16.0	2.5	/experiments/knapen_AOT/AOT_stimuli/rescaled_final/0588_rv.mp4	0.0	129.33439683914185	
18	111.88326001167297	fix_post	2		12	16.0	2.5	/experiments/knapen_AOT/AOT_stimuli/rescaled_final/0588_rv.mp4	0.0	130.2495059967041	0.09995603561401367
19	111.98321604728699	fix_pre	0		120	17.0	2.5	/experiments/knapen_AOT/AOT_stimuli/rescaled_final/0023_fw.mp4	0.0	130.34946203231812	1.0001518726348877
19	112.56676483154297	pulse	0	t		17.0	2.5	/experiments/knapen_AOT/AOT_stimuli/rescaled_final/0023_fw.mp4	0.0	130.9330108165741	
19	112.98336791992188	movie	1		243	17.0	2.5	/experiments/knapen_AOT/AOT_stimuli/rescaled_final/0023_fw.mp4	0.0	131.349613904953	2.5004899501800537
19	114.16710901260376	pulse	1	t		17.0	2.5	/experiments/knapen_AOT/AOT_stimuli/rescaled_final/0023_fw.mp4	0.0	132.5333549976349	
19	115.48385787010193	fix_post	2		12	17.0	2.5	/experiments/knapen_AOT/AOT_stimuli/rescaled_final/0023_fw.mp4	0.0	133.85010385513306	0.09989213943481445
20	115.58375000953674	fix_pre	0		120	18.0	2.5	/experiments/knapen_AOT/AOT_stimuli/rescaled_final/1737_rv.mp4	0.0	133.94999599456787	1.0001120567321777
20	115.75968384742737	pulse	0	t		18.0	2.5	/experiments/knapen_AOT/AOT_stimuli/rescaled_final/1737_rv.mp4	0.0	134.1259298324585	
20	116.58386206626892	movie	1		242	18.0	2.5	/experiments/knapen_AOT/AOT_stimuli/rescaled_final/1737_rv.mp4	0.0	134.95010805130005	2.5005428791046143
20	117.36037993431091	pulse	1	t		18.0	2.5	/experiments/knapen_AOT/AOT_stimuli/rescaled_final/1737_rv.mp4	0.0	135.72662591934204	
20	118.96775484085083	pulse	1	t		18.0	2.5	/experiments/knapen_AOT/AOT_stimuli/rescaled_final/1737_rv.mp4	0.0	137.33400082588196	
20	119.08440494537354	fix_post	2		12	18.0	2.5	/experiments/knapen_AOT/AOT_stimuli/rescaled_final/1737_rv.mp4	0.0	137.45065093040466	0.09989809989929199
21	119.18430304527283	fix_pre	0		120	19.0	2.5	/experiments/knapen_AOT/AOT_stimuli/rescaled_final/0840_rv.mp4	0.0	137.55054903030396	1.0001118183135986
21	120.18441486358643	movie	1		242	19.0	2.5	/experiments/knapen_AOT/AOT_stimuli/rescaled_final/0840_rv.mp4	0.0	138.55066084861755	2.4922471046447754
21	120.56869983673096	pulse	1	t		19.0	2.5	/experiments/knapen_AOT/AOT_stimuli/rescaled_final/0840_rv.mp4	0.0	138.93494582176208	
21	122.16004586219788	pulse	1	t		19.0	2.5	/experiments/knapen_AOT/AOT_stimuli/rescaled_final/0840_rv.mp4	0.0	140.526291847229	
21	122.6766619682312	fix_post	2		12	19.0	2.5	/experiments/knapen_AOT/AOT_stimuli/rescaled_final/0840_rv.mp4	0.0	141.04290795326233	0.09981393814086914
22	122.77647590637207	fix_pre	0		119	20.0	2.5	blank	1.0	141.1427218914032	0.9918570518493652
22	123.76005101203918	pulse	0	t		20.0	2.5	blank	1.0	142.1262969970703	
22	123.76833295822144	movie	1		301	20.0	2.5	blank	1.0	142.13457894325256	2.5086669921875
22	125.3603789806366	pulse	1	t		20.0	2.5	blank	1.0	143.72662496566772	
22	126.27699995040894	fix_post	2		12	20.0	2.5	blank	1.0	144.64324593544006	0.10006308555603027
23	126.37706303596497	fix_pre	0		120	21.0	2.5	/experiments/knapen_AOT/AOT_stimuli/rescaled_final/1635_rv.mp4	0.0	144.7433090209961	1.0001428127288818
23	126.96065306663513	pulse	0	t		21.0	2.5	/experiments/knapen_AOT/AOT_stimuli/rescaled_final/1635_rv.mp4	0.0	145.32689905166626	
23	127.37720584869385	movie	1		243	21.0	2.5	/experiments/knapen_AOT/AOT_stimuli/rescaled_final/1635_rv.mp4	0.0	145.74345183372498	2.5003511905670166
23	128.5609109401703	pulse	1	t		21.0	2.5	/experiments/knapen_AOT/AOT_stimuli/rescaled_final/1635_rv.mp4	0.0	146.92715692520142	
23	129.87755703926086	fix_post	2		12	21.0	2.5	/experiments/knapen_AOT/AOT_stimuli/rescaled_final/1635_rv.mp4	0.0	148.243803024292	0.10001182556152344
24	129.9775688648224	fix_pre	0		120	22.0	2.5	/experiments/knapen_AOT/AOT_stimuli/rescaled_final/2149_rv.mp4	0.0	148.34381484985352	1.0001270771026611
24	130.16103887557983	pulse	0	t		22.0	2.5	/experiments/knapen_AOT/AOT_stimuli/rescaled_final/2149_rv.mp4	0.0	148.52728486061096	
24	130.97769594192505	movie	1		242	22.0	2.5	/experiments/knapen_AOT/AOT_stimuli/rescaled_final/2149_rv.mp4	0.0	149.34394192695618	2.500427007675171
24	131.7612988948822	pulse	1	t		22.0	2.5	/experiments/knapen_AOT/AOT_stimuli/rescaled_final/2149_rv.mp4	0.0	150.12754487991333	
24	133.36139702796936	pulse	1	t		22.0	2.5	/experiments/knapen_AOT/AOT_stimuli/rescaled_final/2149_rv.mp4	0.0	151.7276430130005	
24	133.47812294960022	fix_post	2		12	22.0	2.5	/experiments/knapen_AOT/AOT_stimuli/rescaled_final/2149_rv.mp4	0.0	151.84436893463135	0.09995007514953613
25	133.57807302474976	fix_pre	0		119	23.0	2.5	/experiments/knapen_AOT/AOT_stimuli/rescaled_final/0794_fw.mp4	0.0	151.94431900978088	0.991797924041748
25	134.5698709487915	movie	1		244	23.0	2.5	/experiments/knapen_AOT/AOT_stimuli/rescaled_final/0794_fw.mp4	0.0	152.93611693382263	2.5004100799560547
25	134.961895942688	pulse	1	t		23.0	2.5	/experiments/knapen_AOT/AOT_stimuli/rescaled_final/0794_fw.mp4	0.0	153.32814192771912	
25	136.56211304664612	pulse	1	t		23.0	2.5	/experiments/knapen_AOT/AOT_stimuli/rescaled_final/0794_fw.mp4	0.0	154.92835903167725	
25	137.07028102874756	fix_post	2		12	23.0	2.5	/experiments/knapen_AOT/AOT_stimuli/rescaled_final/0794_fw.mp4	0.0	155.4365270137787	0.10006189346313477
26	137.1703429222107	fix_pre	0		120	24.0	2.5	/experiments/knapen_AOT/AOT_stimuli/rescaled_final/1832_fw.mp4	0.0	155.53658890724182	1.0000829696655273
26	138.16230487823486	pulse	0	t		24.0	2.5	/experiments/knapen_AOT/AOT_stimuli/rescaled_final/1832_fw.mp4	0.0	156.528550863266	
26	138.17042589187622	movie	1		244	24.0	2.5	/experiments/knapen_AOT/AOT_stimuli/rescaled_final/1832_fw.mp4	0.0	156.53667187690735	2.508784055709839
26	139.7630078792572	pulse	1	t		24.0	2.5	/experiments/knapen_AOT/AOT_stimuli/rescaled_final/1832_fw.mp4	0.0	158.12925386428833	
26	140.67920994758606	fix_post	2		12	24.0	2.5	/experiments/knapen_AOT/AOT_stimuli/rescaled_final/1832_fw.mp4	0.0	159.0454559326172	0.09999608993530273
27	140.77920603752136	fix_pre	0		120	25.0	2.5	/experiments/knapen_AOT/AOT_stimuli/rescaled_final/1123_fw.mp4	0.0	159.1454520225525	1.0001490116119385
27	141.36282992362976	pulse	0	t		25.0	2.5	/experiments/knapen_AOT/AOT_stimuli/rescaled_final/1123_fw.mp4	0.0	159.7290759086609	
27	141.7793550491333	movie	1		243	25.0	2.5	/experiments/knapen_AOT/AOT_stimuli/rescaled_final/1123_fw.mp4	0.0	160.14560103416443	2.5004849433898926
27	142.96298789978027	pulse	1	t		25.0	2.5	/experiments/knapen_AOT/AOT_stimuli/rescaled_final/1123_fw.mp4	0.0	161.3292338848114	
27	144.2798399925232	fix_post	2		12	25.0	2.5	/experiments/knapen_AOT/AOT_stimuli/rescaled_final/1123_fw.mp4	0.0	162.64608597755432	0.09988093376159668
28	144.3797209262848	fix_pre	0		120	26.0	2.5	/experiments/knapen_AOT/AOT_stimuli/rescaled_final/1123_rv.mp4	0.0	162.74596691131592	1.000093936920166
28	144.56316590309143	pulse	0	t		26.0	2.5	/experiments/knapen_AOT/AOT_stimuli/rescaled_final/1123_rv.mp4	0.0	162.92941188812256	
28	145.37981486320496	movie	1		243	26.0	2.5	/experiments/knapen_AOT/AOT_stimuli/rescaled_final/1123_rv.mp4	0.0	163.74606084823608	2.500509023666382
28	146.16358184814453	pulse	1	t		26.0	2.5	/experiments/knapen_AOT/AOT_stimuli/rescaled_final/1123_rv.mp4	0.0	164.52982783317566	
28	147.76358103752136	pulse	1	t		26.0	2.5	/experiments/knapen_AOT/AOT_stimuli/rescaled_final/1123_rv.mp4	0.0	166.1298270225525	
28	147.88032388687134	fix_post	2		12	26.0	2.5	/experiments/knapen_AOT/AOT_stimuli/rescaled_final/1123_rv.mp4	0.0	166.24656987190247	0.09994316101074219
29	147.98026704788208	fix_pre	0		120	27.0	2.5	blank	1.0	166.3465130329132	1.0002198219299316
29	148.980486869812	movie	1		299	27.0	2.5	blank	1.0	167.34673285484314	2.4919941425323486
29	149.36397695541382	pulse	1	t		27.0	2.5	blank	1.0	167.73022294044495	
29	150.96408796310425	pulse	1	t		27.0	2.5	blank	1.0	169.33033394813538	
29	151.47248101234436	fix_post	2		8	27.0	2.5	blank	1.0	169.8387269973755	0.09998583793640137
30	151.57246685028076	fix_pre	0		120	28.0	2.5	/experiments/knapen_AOT/AOT_stimuli/rescaled_final/0993_rv.mp4	0.0	169.9387128353119	1.0001351833343506
30	152.56451392173767	pulse	0	t		28.0	2.5	/experiments/knapen_AOT/AOT_stimuli/rescaled_final/0993_rv.mp4	0.0	170.9307599067688	
30	152.5726020336151	movie	1		243	28.0	2.5	/experiments/knapen_AOT/AOT_stimuli/rescaled_final/0993_rv.mp4	0.0	170.93884801864624	2.5087218284606934
30	154.16859984397888	pulse	1	t		28.0	2.5	/experiments/knapen_AOT/AOT_stimuli/rescaled_final/0993_rv.mp4	0.0	172.53484582901	
30	155.0813238620758	fix_post	2		12	28.0	2.5	/experiments/knapen_AOT/AOT_stimuli/rescaled_final/0993_rv.mp4	0.0	173.44756984710693	0.10002517700195312
31	155.18134903907776	fix_pre	0		120	29.0	2.5	/experiments/knapen_AOT/AOT_stimuli/rescaled_final/0144_rv.mp4	0.0	173.5475950241089	1.0001418590545654
31	155.76494002342224	pulse	0	t		29.0	2.5	/experiments/knapen_AOT/AOT_stimuli/rescaled_final/0144_rv.mp4	0.0	174.13118600845337	
31	156.18149089813232	movie	1		242	29.0	2.5	/experiments/knapen_AOT/AOT_stimuli/rescaled_final/0144_rv.mp4	0.0	174.54773688316345	2.5004000663757324
31	157.36521291732788	pulse	1	t		29.0	2.5	/experiments/knapen_AOT/AOT_stimuli/rescaled_final/0144_rv.mp4	0.0	175.731458902359	
31	158.68189096450806	fix_post	2		12	29.0	2.5	/experiments/knapen_AOT/AOT_stimuli/rescaled_final/0144_rv.mp4	0.0	177.04813694953918	0.09993505477905273
32	158.7818260192871	fix_pre	0		120	30.0	2.5	/experiments/knapen_AOT/AOT_stimuli/rescaled_final/1248_fw.mp4	0.0	177.14807200431824	1.0001440048217773
32	158.96541786193848	pulse	0	t		30.0	2.5	/experiments/knapen_AOT/AOT_stimuli/rescaled_final/1248_fw.mp4	0.0	177.3316638469696	
32	159.7819700241089	movie	1		243	30.0	2.5	/experiments/knapen_AOT/AOT_stimuli/rescaled_final/1248_fw.mp4	0.0	178.14821600914001	2.500541925430298
32	160.5657720565796	pulse	1	t		30.0	2.5	/experiments/knapen_AOT/AOT_stimuli/rescaled_final/1248_fw.mp4	0.0	178.93201804161072	
32	162.16577100753784	pulse	1	t		30.0	2.5	/experiments/knapen_AOT/AOT_stimuli/rescaled_final/1248_fw.mp4	0.0	180.53201699256897	
32	162.28251194953918	fix_post	2		12	30.0	2.5	/experiments/knapen_AOT/AOT_stimuli/rescaled_final/1248_fw.mp4	0.0	180.6487579345703	0.09989500045776367
33	162.38240694999695	fix_pre	0		120	31.0	2.5	/experiments/knapen_AOT/AOT_stimuli/rescaled_final/0978_rv.mp4	0.0	180.74865293502808	1.000195026397705
33	163.38260197639465	movie	1		241	31.0	2.5	/experiments/knapen_AOT/AOT_stimuli/rescaled_final/0978_rv.mp4	0.0	181.74884796142578	2.4921300411224365
33	163.7675130367279	pulse	1	t		31.0	2.5	/experiments/knapen_AOT/AOT_stimuli/rescaled_final/0978_rv.mp4	0.0	182.13375902175903	
33	165.36632084846497	pulse	1	t		31.0	2.5	/experiments/knapen_AOT/AOT_stimuli/rescaled_final/0978_rv.mp4	0.0	183.7325668334961	
33	165.8747320175171	fix_post	2		12	31.0	2.5	/experiments/knapen_AOT/AOT_stimuli/rescaled_final/0978_rv.mp4	0.0	184.24097800254822	0.09986686706542969
34	165.97459888458252	fix_pre	0		120	32.0	2.5	/experiments/knapen_AOT/AOT_stimuli/rescaled_final/1522_fw.mp4	0.0	184.34084486961365	1.000154972076416
34	166.96669793128967	pulse	0	t		32.0	2.5	/experiments/knapen_AOT/AOT_stimuli/rescaled_final/1522_fw.mp4	0.0	185.3329439163208	
34	166.97475385665894	movie	1		244	32.0	2.5	/experiments/knapen_AOT/AOT_stimuli/rescaled_final/1522_fw.mp4	0.0	185.34099984169006	2.5087389945983887
34	168.57122802734375	pulse	1	t		32.0	2.5	/experiments/knapen_AOT/AOT_stimuli/rescaled_final/1522_fw.mp4	0.0	186.93747401237488	
34	169.48349285125732	fix_post	2		12	32.0	2.5	/experiments/knapen_AOT/AOT_stimuli/rescaled_final/1522_fw.mp4	0.0	187.84973883628845	0.10001301765441895
35	169.58350586891174	fix_pre	0		120	33.0	2.5	/experiments/knapen_AOT/AOT_stimuli/rescaled_final/1628_fw.mp4	0.0	187.94975185394287	1.000089168548584
35	170.15963888168335	pulse	0	t		33.0	2.5	/experiments/knapen_AOT/AOT_stimuli/rescaled_final/1628_fw.mp4	0.0	188.52588486671448	
35	170.58359503746033	movie	1		242	33.0	2.5	/experiments/knapen_AOT/AOT_stimuli/rescaled_final/1628_fw.mp4	0.0	188.94984102249146	2.5004019737243652
35	171.75973105430603	pulse	1	t		33.0	2.5	/experiments/knapen_AOT/AOT_stimuli/rescaled_final/1628_fw.mp4	0.0	190.12597703933716	
35	173.0839970111847	fix_post	2		12	33.0	2.5	/experiments/knapen_AOT/AOT_stimuli/rescaled_final/1628_fw.mp4	0.0	191.45024299621582	0.10000896453857422
36	173.18400597572327	fix_pre	0		120	34.0	2.5	/experiments/knapen_AOT/AOT_stimuli/rescaled_final/0631_fw.mp4	0.0	191.5502519607544	1.0001418590545654
36	173.3598780632019	pulse	0	t		34.0	2.5	/experiments/knapen_AOT/AOT_stimuli/rescaled_final/0631_fw.mp4	0.0	191.72612404823303	
36	174.18414783477783	movie	1		243	34.0	2.5	/experiments/knapen_AOT/AOT_stimuli/rescaled_final/0631_fw.mp4	0.0	192.55039381980896	2.500514030456543
36	174.95949697494507	pulse	1	t		34.0	2.5	/experiments/knapen_AOT/AOT_stimuli/rescaled_final/0631_fw.mp4	0.0	193.3257429599762	
36	176.55961799621582	pulse	1	t		34.0	2.5	/experiments/knapen_AOT/AOT_stimuli/rescaled_final/0631_fw.mp4	0.0	194.92586398124695	
36	176.68466186523438	fix_post	2		12	34.0	2.5	/experiments/knapen_AOT/AOT_stimuli/rescaled_final/0631_fw.mp4	0.0	195.0509078502655	0.09990119934082031
37	176.7845630645752	fix_pre	0		120	35.0	2.5	blank	1.0	195.15080904960632	1.000187873840332
37	177.78475093841553	movie	1		299	35.0	2.5	blank	1.0	196.15099692344666	2.491987943649292
37	178.1599760055542	pulse	1	t		35.0	2.5	blank	1.0	196.52622199058533	
37	179.76008200645447	pulse	1	t		35.0	2.5	blank	1.0	198.1263279914856	
37	180.27673888206482	fix_post	2		12	35.0	2.5	blank	1.0	198.64298486709595	0.10003113746643066
38	180.37677001953125	fix_pre	0		119	36.0	2.5	/experiments/knapen_AOT/AOT_stimuli/rescaled_final/2045_rv.mp4	0.0	198.74301600456238	0.9918398857116699
38	181.3603858947754	pulse	0	t		36.0	2.5	/experiments/knapen_AOT/AOT_stimuli/rescaled_final/2045_rv.mp4	0.0	199.72663187980652	
38	181.36860990524292	movie	1		243	36.0	2.5	/experiments/knapen_AOT/AOT_stimuli/rescaled_final/2045_rv.mp4	0.0	199.73485589027405	2.5086350440979004
38	182.96128392219543	pulse	1	t		36.0	2.5	/experiments/knapen_AOT/AOT_stimuli/rescaled_final/2045_rv.mp4	0.0	201.32752990722656	
38	183.87724494934082	fix_post	2		12	36.0	2.5	/experiments/knapen_AOT/AOT_stimuli/rescaled_final/2045_rv.mp4	0.0	202.24349093437195	0.10001611709594727
39	183.97726106643677	fix_pre	0		120	37.0	2.5	/experiments/knapen_AOT/AOT_stimuli/rescaled_final/0831_rv.mp4	0.0	202.3435070514679	1.0001728534698486
39	184.56096601486206	pulse	0	t		37.0	2.5	/experiments/knapen_AOT/AOT_stimuli/rescaled_final/0831_rv.mp4	0.0	202.9272119998932	
39	184.97743391990662	movie	1		242	37.0	2.5	/experiments/knapen_AOT/AOT_stimuli/rescaled_final/0831_rv.mp4	0.0	203.34367990493774	2.500422954559326
39	186.1611590385437	pulse	1	t		37.0	2.5	/experiments/knapen_AOT/AOT_stimuli/rescaled_final/0831_rv.mp4	0.0	204.52740502357483	
39	187.47785687446594	fix_post	2		12	37.0	2.5	/experiments/knapen_AOT/AOT_stimuli/rescaled_final/0831_rv.mp4	0.0	205.84410285949707	0.09997296333312988
40	187.57782983779907	fix_pre	0		120	38.0	2.5	/experiments/knapen_AOT/AOT_stimuli/rescaled_final/0047_fw.mp4	0.0	205.9440758228302	1.000143051147461
40	187.76133799552917	pulse	0	t		38.0	2.5	/experiments/knapen_AOT/AOT_stimuli/rescaled_final/0047_fw.mp4	0.0	206.1275839805603	
40	188.57797288894653	movie	1		242	38.0	2.5	/experiments/knapen_AOT/AOT_stimuli/rescaled_final/0047_fw.mp4	0.0	206.94421887397766	2.5004141330718994
40	189.36156606674194	pulse	1	t		38.0	2.5	/experiments/knapen_AOT/AOT_stimuli/rescaled_final/0047_fw.mp4	0.0	207.72781205177307	
40	190.96197390556335	pulse	1	t		38.0	2.5	/experiments/knapen_AOT/AOT_stimuli/rescaled_final/0047_fw.mp4	0.0	209.32821989059448	
40	191.07838702201843	fix_post	2		12	38.0	2.5	/experiments/knapen_AOT/AOT_stimuli/rescaled_final/0047_fw.mp4	0.0	209.44463300704956	0.0999460220336914
41	191.17833304405212	fix_pre	0		119	39.0	2.5	/experiments/knapen_AOT/AOT_stimuli/rescaled_final/1558_rv.mp4	0.0	209.54457902908325	0.9918859004974365
41	192.17021894454956	movie	1		243	39.0	2.5	/experiments/knapen_AOT/AOT_stimuli/rescaled_final/1558_rv.mp4	0.0	210.5364649295807	2.500322103500366
41	192.5621359348297	pulse	1	t		39.0	2.5	/experiments/knapen_AOT/AOT_stimuli/rescaled_final/1558_rv.mp4	0.0	210.92838191986084	
41	194.1623809337616	pulse	1	t		39.0	2.5	/experiments/knapen_AOT/AOT_stimuli/rescaled_final/1558_rv.mp4	0.0	212.52862691879272	
41	194.67054104804993	fix_post	2		12	39.0	2.5	/experiments/knapen_AOT/AOT_stimuli/rescaled_final/1558_rv.mp4	0.0	213.03678703308105	0.10001897811889648
42	194.77056002616882	fix_pre	0		120	40.0	2.5	blank	1.0	213.13680601119995	1.0001280307769775
42	195.76257586479187	pulse	0	t		40.0	2.5	blank	1.0	214.128821849823	
42	195.7706880569458	movie	1		301	40.0	2.5	blank	1.0	214.13693404197693	2.508727788925171
42	197.3627278804779	pulse	1	t		40.0	2.5	blank	1.0	215.72897386550903	
42	198.27941584587097	fix_post	2		12	40.0	2.5	blank	1.0	216.6456618309021	0.10000205039978027
43	198.37941789627075	fix_pre	0		120	41.0	2.5	/experiments/knapen_AOT/AOT_stimuli/rescaled_final/0004_fw.mp4	0.0	216.74566388130188	1.0001220703125
43	198.96299695968628	pulse	0	t		41.0	2.5	/experiments/knapen_AOT/AOT_stimuli/rescaled_final/0004_fw.mp4	0.0	217.3292429447174	
43	199.37953996658325	movie	1		242	41.0	2.5	/experiments/knapen_AOT/AOT_stimuli/rescaled_final/0004_fw.mp4	0.0	217.74578595161438	2.5004420280456543
43	200.56342005729675	pulse	1	t		41.0	2.5	/experiments/knapen_AOT/AOT_stimuli/rescaled_final/0004_fw.mp4	0.0	218.92966604232788	
43	201.8799819946289	fix_post	2		12	41.0	2.5	/experiments/knapen_AOT/AOT_stimuli/rescaled_final/0004_fw.mp4	0.0	220.24622797966003	0.09997701644897461
44	201.97995901107788	fix_pre	0		120	42.0	2.5	/experiments/knapen_AOT/AOT_stimuli/rescaled_final/0719_rv.mp4	0.0	220.346204996109	1.0002100467681885
44	202.1636199951172	pulse	0	t		42.0	2.5	/experiments/knapen_AOT/AOT_stimuli/rescaled_final/0719_rv.mp4	0.0	220.52986598014832	
44	202.98016905784607	movie	1		243	42.0	2.5	/experiments/knapen_AOT/AOT_stimuli/rescaled_final/0719_rv.mp4	0.0	221.3464150428772	2.5004098415374756
44	203.76370882987976	pulse	1	t		42.0	2.5	/experiments/knapen_AOT/AOT_stimuli/rescaled_final/0719_rv.mp4	0.0	222.1299548149109	
44	205.36410784721375	pulse	1	t		42.0	2.5	/experiments/knapen_AOT/AOT_stimuli/rescaled_final/0719_rv.mp4	0.0	223.73035383224487	
44	205.48057889938354	fix_post	2		12	42.0	2.5	/experiments/knapen_AOT/AOT_stimuli/rescaled_final/0719_rv.mp4	0.0	223.84682488441467	0.09990501403808594
45	205.58048391342163	fix_pre	0		120	43.0	2.5	/experiments/knapen_AOT/AOT_stimuli/rescaled_final/1301_fw.mp4	0.0	223.94672989845276	1.0001411437988281
45	206.58062505722046	movie	1		242	43.0	2.5	/experiments/knapen_AOT/AOT_stimuli/rescaled_final/1301_fw.mp4	0.0	224.9468710422516	2.492158889770508
45	206.9646120071411	pulse	1	t		43.0	2.5	/experiments/knapen_AOT/AOT_stimuli/rescaled_final/1301_fw.mp4	0.0	225.33085799217224	
45	208.56471800804138	pulse	1	t		43.0	2.5	/experiments/knapen_AOT/AOT_stimuli/rescaled_final/1301_fw.mp4	0.0	226.9309639930725	
45	209.07278394699097	fix_post	2		12	43.0	2.5	/experiments/knapen_AOT/AOT_stimuli/rescaled_final/1301_fw.mp4	0.0	227.4390299320221	0.09987998008728027
46	209.17266392707825	fix_pre	0		120	44.0	2.5	/experiments/knapen_AOT/AOT_stimuli/rescaled_final/0288_fw.mp4	0.0	227.53890991210938	1.0001659393310547
46	210.16467189788818	pulse	0	t		44.0	2.5	/experiments/knapen_AOT/AOT_stimuli/rescaled_final/0288_fw.mp4	0.0	228.5309178829193	
46	210.1728298664093	movie	1		241	44.0	2.5	/experiments/knapen_AOT/AOT_stimuli/rescaled_final/0288_fw.mp4	0.0	228.53907585144043	2.5087430477142334
46	211.76544785499573	pulse	1	t		44.0	2.5	/experiments/knapen_AOT/AOT_stimuli/rescaled_final/0288_fw.mp4	0.0	230.13169384002686	
46	212.68157291412354	fix_post	2		12	44.0	2.5	/experiments/knapen_AOT/AOT_stimuli/rescaled_final/0288_fw.mp4	0.0	231.04781889915466	0.09998512268066406
47	212.7815580368042	fix_pre	0		120	45.0	2.5	/experiments/knapen_AOT/AOT_stimuli/rescaled_final/0011_fw.mp4	0.0	231.14780402183533	1.0001449584960938
47	213.36506390571594	pulse	0	t		45.0	2.5	/experiments/knapen_AOT/AOT_stimuli/rescaled_final/0011_fw.mp4	0.0	231.73130989074707	
47	213.7817029953003	movie	1		243	45.0	2.5	/experiments/knapen_AOT/AOT_stimuli/rescaled_final/0011_fw.mp4	0.0	232.14794898033142	2.500455856323242
47	214.96114897727966	pulse	1	t		45.0	2.5	/experiments/knapen_AOT/AOT_stimuli/rescaled_final/0011_fw.mp4	0.0	233.3273949623108	
47	216.28215885162354	fix_post	2		12	45.0	2.5	/experiments/knapen_AOT/AOT_stimuli/rescaled_final/0011_fw.mp4	0.0	234.64840483665466	0.10003113746643066
48	216.38218998908997	fix_pre	0		120	46.0	2.5	/experiments/knapen_AOT/AOT_stimuli/rescaled_final/0545_fw.mp4	0.0	234.7484359741211	1.0001020431518555
48	216.56566095352173	pulse	0	t		46.0	2.5	/experiments/knapen_AOT/AOT_stimuli/rescaled_final/0545_fw.mp4	0.0	234.93190693855286	
48	217.38229203224182	movie	1		243	46.0	2.5	/experiments/knapen_AOT/AOT_stimuli/rescaled_final/0545_fw.mp4	0.0	235.74853801727295	2.500459909439087
48	218.16585302352905	pulse	1	t		46.0	2.5	/experiments/knapen_AOT/AOT_stimuli/rescaled_final/0545_fw.mp4	0.0	236.53209900856018	
48	219.7659878730774	pulse	1	t		46.0	2.5	/experiments/knapen_AOT/AOT_stimuli/rescaled_final/0545_fw.mp4	0.0	238.13223385810852	
48	219.8827519416809	fix_post	2		12	46.0	2.5	/experiments/knapen_AOT/AOT_stimuli/rescaled_final/0545_fw.mp4	0.0	238.24899792671204	0.09990501403808594
49	219.982656955719	fix_pre	0		119	47.0	2.5	/experiments/knapen_AOT/AOT_stimuli/rescaled_final/1966_fw.mp4	0.0	238.34890294075012	0.991832971572876
49	220.97448992729187	movie	1		242	47.0	2.5	/experiments/knapen_AOT/AOT_stimuli/rescaled_final/1966_fw.mp4	0.0	239.340735912323	2.500347137451172
49	221.36645984649658	pulse	1	t		47.0	2.5	/experiments/knapen_AOT/AOT_stimuli/rescaled_final/1966_fw.mp4	0.0	239.7327058315277	
49	222.96671986579895	pulse	1	t		47.0	2.5	/experiments/knapen_AOT/AOT_stimuli/rescaled_final/1966_fw.mp4	0.0	241.33296585083008	
49	223.47483706474304	fix_post	2		12	47.0	2.5	/experiments/knapen_AOT/AOT_stimuli/rescaled_final/1966_fw.mp4	0.0	241.84108304977417	0.09996891021728516
50	223.57480597496033	fix_pre	0		120	48.0	2.5	blank	1.0	241.94105195999146	1.0002520084381104
50	224.56687688827515	pulse	0	t		48.0	2.5	blank	1.0	242.93312287330627	
50	224.57505798339844	movie	1		301	48.0	2.5	blank	1.0	242.94130396842957	2.5086400508880615
50	226.16698598861694	pulse	1	t		48.0	2.5	blank	1.0	244.53323197364807	
50	227.0836980342865	fix_post	2		12	48.0	2.5	blank	1.0	245.44994401931763	0.09999394416809082
51	227.1836919784546	fix_pre	0		120	49.0	2.5	/experiments/knapen_AOT/AOT_stimuli/rescaled_final/0882_fw.mp4	0.0	245.54993796348572	1.0001368522644043
51	227.76728892326355	pulse	0	t		49.0	2.5	/experiments/knapen_AOT/AOT_stimuli/rescaled_final/0882_fw.mp4	0.0	246.13353490829468	
51	228.183828830719	movie	1		243	49.0	2.5	/experiments/knapen_AOT/AOT_stimuli/rescaled_final/0882_fw.mp4	0.0	246.55007481575012	2.500552177429199
51	229.36343598365784	pulse	1	t		49.0	2.5	/experiments/knapen_AOT/AOT_stimuli/rescaled_final/0882_fw.mp4	0.0	247.72968196868896	
51	230.6843810081482	fix_post	2		12	49.0	2.5	/experiments/knapen_AOT/AOT_stimuli/rescaled_final/0882_fw.mp4	0.0	249.05062699317932	0.09994983673095703
52	230.78433084487915	fix_pre	0		120	50.0	2.5	/experiments/knapen_AOT/AOT_stimuli/rescaled_final/1192_rv.mp4	0.0	249.15057682991028	1.0001192092895508
52	230.960275888443	pulse	0	t		50.0	2.5	/experiments/knapen_AOT/AOT_stimuli/rescaled_final/1192_rv.mp4	0.0	249.32652187347412	
52	231.7844500541687	movie	1		242	50.0	2.5	/experiments/knapen_AOT/AOT_stimuli/rescaled_final/1192_rv.mp4	0.0	250.15069603919983	2.5004138946533203
52	232.56083703041077	pulse	1	t		50.0	2.5	/experiments/knapen_AOT/AOT_stimuli/rescaled_final/1192_rv.mp4	0.0	250.9270830154419	
52	234.16807103157043	pulse	1	t		50.0	2.5	/experiments/knapen_AOT/AOT_stimuli/rescaled_final/1192_rv.mp4	0.0	252.53431701660156	
52	234.28486394882202	fix_post	2		12	50.0	2.5	/experiments/knapen_AOT/AOT_stimuli/rescaled_final/1192_rv.mp4	0.0	252.65110993385315	0.09990596771240234
53	234.38476991653442	fix_pre	0		120	51.0	2.5	/experiments/knapen_AOT/AOT_stimuli/rescaled_final/0893_fw.mp4	0.0	252.75101590156555	1.0001490116119385
53	235.38491892814636	movie	1		241	51.0	2.5	/experiments/knapen_AOT/AOT_stimuli/rescaled_final/0893_fw.mp4	0.0	253.7511649131775	2.492018938064575
53	235.7601170539856	pulse	1	t		51.0	2.5	/experiments/knapen_AOT/AOT_stimuli/rescaled_final/0893_fw.mp4	0.0	254.12636303901672	
53	237.36052703857422	pulse	1	t		51.0	2.5	/experiments/knapen_AOT/AOT_stimuli/rescaled_final/0893_fw.mp4	0.0	255.72677302360535	
53	237.87693786621094	fix_post	2		12	51.0	2.5	/experiments/knapen_AOT/AOT_stimuli/rescaled_final/0893_fw.mp4	0.0	256.24318385124207	0.10003018379211426
54	237.97696805000305	fix_pre	0		119	52.0	2.5	/experiments/knapen_AOT/AOT_stimuli/rescaled_final/0264_fw.mp4	0.0	256.3432140350342	0.9917938709259033
54	238.96062183380127	pulse	0	t		52.0	2.5	/experiments/knapen_AOT/AOT_stimuli/rescaled_final/0264_fw.mp4	0.0	257.3268678188324	
54	238.96876192092896	movie	1		243	52.0	2.5	/experiments/knapen_AOT/AOT_stimuli/rescaled_final/0264_fw.mp4	0.0	257.3350079059601	2.508754014968872
54	240.56154894828796	pulse	1	t		52.0	2.5	/experiments/knapen_AOT/AOT_stimuli/rescaled_final/0264_fw.mp4	0.0	258.9277949333191	
54	241.47751593589783	fix_post	2		12	52.0	2.5	/experiments/knapen_AOT/AOT_stimuli/rescaled_final/0264_fw.mp4	0.0	259.84376192092896	0.10004711151123047
55	241.57756304740906	fix_pre	0		120	53.0	2.5	/experiments/knapen_AOT/AOT_stimuli/rescaled_final/1717_fw.mp4	0.0	259.9438090324402	1.0001349449157715
55	242.16105389595032	pulse	0	t		53.0	2.5	/experiments/knapen_AOT/AOT_stimuli/rescaled_final/1717_fw.mp4	0.0	260.52729988098145	
55	242.57769799232483	movie	1		243	53.0	2.5	/experiments/knapen_AOT/AOT_stimuli/rescaled_final/1717_fw.mp4	0.0	260.94394397735596	2.500427007675171
55	243.76151990890503	pulse	1	t		53.0	2.5	/experiments/knapen_AOT/AOT_stimuli/rescaled_final/1717_fw.mp4	0.0	262.12776589393616	
55	245.078125	fix_post	2		12	53.0	2.5	/experiments/knapen_AOT/AOT_stimuli/rescaled_final/1717_fw.mp4	0.0	263.4443709850311	0.10003185272216797
56	245.17815685272217	fix_pre	0		120	54.0	2.5	/experiments/knapen_AOT/AOT_stimuli/rescaled_final/1839_fw.mp4	0.0	263.5444028377533	1.0001170635223389
56	245.36166906356812	pulse	0	t		54.0	2.5	/experiments/knapen_AOT/AOT_stimuli/rescaled_final/1839_fw.mp4	0.0	263.72791504859924	
56	246.1782739162445	movie	1		242	54.0	2.5	/experiments/knapen_AOT/AOT_stimuli/rescaled_final/1839_fw.mp4	0.0	264.54451990127563	2.5004589557647705
56	246.9618799686432	pulse	1	t		54.0	2.5	/experiments/knapen_AOT/AOT_stimuli/rescaled_final/1839_fw.mp4	0.0	265.3281259536743	
56	248.5627920627594	pulse	1	t		54.0	2.5	/experiments/knapen_AOT/AOT_stimuli/rescaled_final/1839_fw.mp4	0.0	266.9290380477905	
56	248.67873287200928	fix_post	2		12	54.0	2.5	/experiments/knapen_AOT/AOT_stimuli/rescaled_final/1839_fw.mp4	0.0	267.0449788570404	0.09985208511352539
57	248.7785849571228	fix_pre	0		120	55.0	2.5	/experiments/knapen_AOT/AOT_stimuli/rescaled_final/0187_rv.mp4	0.0	267.14483094215393	1.000216007232666
57	249.77880096435547	movie	1		243	55.0	2.5	/experiments/knapen_AOT/AOT_stimuli/rescaled_final/0187_rv.mp4	0.0	268.1450469493866	2.4919819831848145
57	250.16310286521912	pulse	1	t		55.0	2.5	/experiments/knapen_AOT/AOT_stimuli/rescaled_final/0187_rv.mp4	0.0	268.52934885025024	
57	251.76268601417542	pulse	1	t		55.0	2.5	/experiments/knapen_AOT/AOT_stimuli/rescaled_final/0187_rv.mp4	0.0	270.12893199920654	
57	252.27078294754028	fix_post	2		12	55.0	2.5	/experiments/knapen_AOT/AOT_stimuli/rescaled_final/0187_rv.mp4	0.0	270.6370289325714	0.10002589225769043
58	252.37080883979797	fix_pre	0		120	56.0	2.5	blank	1.0	270.7370548248291	1.0001161098480225
58	253.36291098594666	pulse	0	t		56.0	2.5	blank	1.0	271.7291569709778	
58	253.370924949646	movie	1		301	56.0	2.5	blank	1.0	271.7371709346771	2.508765935897827
58	254.96302390098572	pulse	1	t		56.0	2.5	blank	1.0	273.32926988601685	
58	255.87969088554382	fix_post	2		12	56.0	2.5	blank	1.0	274.24593687057495	0.10002303123474121
59	255.97971391677856	fix_pre	0		120	57.0	2.5	/experiments/knapen_AOT/AOT_stimuli/rescaled_final/1737_rv.mp4	0.0	274.3459599018097	1.0001039505004883
59	256.56324887275696	pulse	0	t		57.0	2.5	/experiments/knapen_AOT/AOT_stimuli/rescaled_final/1737_rv.mp4	0.0	274.9294948577881	
59	256.97981786727905	movie	1		242	57.0	2.5	/experiments/knapen_AOT/AOT_stimuli/rescaled_final/1737_rv.mp4	0.0	275.3460638523102	2.500378131866455
59	258.1635699272156	pulse	1	t		57.0	2.5	/experiments/knapen_AOT/AOT_stimuli/rescaled_final/1737_rv.mp4	0.0	276.5298159122467	
59	259.4801959991455	fix_post	2		12	57.0	2.5	/experiments/knapen_AOT/AOT_stimuli/rescaled_final/1737_rv.mp4	0.0	277.84644198417664	0.10001683235168457
60	259.5802128314972	fix_pre	0		120	58.0	2.5	/experiments/knapen_AOT/AOT_stimuli/rescaled_final/1683_fw.mp4	0.0	277.9464588165283	1.000209093093872
60	259.7638199329376	pulse	0	t		58.0	2.5	/experiments/knapen_AOT/AOT_stimuli/rescaled_final/1683_fw.mp4	0.0	278.13006591796875	
60	260.58042192459106	movie	1		242	58.0	2.5	/experiments/knapen_AOT/AOT_stimuli/rescaled_final/1683_fw.mp4	0.0	278.9466679096222	2.5004260540008545
60	261.3640558719635	pulse	1	t		58.0	2.5	/experiments/knapen_AOT/AOT_stimuli/rescaled_final/1683_fw.mp4	0.0	279.73030185699463	
60	262.96411895751953	pulse	1	t		58.0	2.5	/experiments/knapen_AOT/AOT_stimuli/rescaled_final/1683_fw.mp4	0.0	281.33036494255066	
60	263.0808479785919	fix_post	2		12	58.0	2.5	/experiments/knapen_AOT/AOT_stimuli/rescaled_final/1683_fw.mp4	0.0	281.44709396362305	0.09990596771240234
61	263.1807539463043	fix_pre	0		120	59.0	2.5	/experiments/knapen_AOT/AOT_stimuli/rescaled_final/1205_fw.mp4	0.0	281.54699993133545	1.0001070499420166
61	264.18086099624634	movie	1		242	59.0	2.5	/experiments/knapen_AOT/AOT_stimuli/rescaled_final/1205_fw.mp4	0.0	282.54710698127747	2.4920599460601807
61	264.5648739337921	pulse	1	t		59.0	2.5	/experiments/knapen_AOT/AOT_stimuli/rescaled_final/1205_fw.mp4	0.0	282.93111991882324	
61	266.16492199897766	pulse	1	t		59.0	2.5	/experiments/knapen_AOT/AOT_stimuli/rescaled_final/1205_fw.mp4	0.0	284.5311679840088	
61	266.6729209423065	fix_post	2		12	59.0	2.5	/experiments/knapen_AOT/AOT_stimuli/rescaled_final/1205_fw.mp4	0.0	285.03916692733765	0.10001492500305176
62	266.77293586730957	fix_pre	0		120	60.0	2.5	/experiments/knapen_AOT/AOT_stimuli/rescaled_final/0448_rv.mp4	0.0	285.1391818523407	1.0001351833343506
62	267.76486706733704	pulse	0	t		60.0	2.5	/experiments/knapen_AOT/AOT_stimuli/rescaled_final/0448_rv.mp4	0.0	286.13111305236816	
62	267.7730710506439	movie	1		243	60.0	2.5	/experiments/knapen_AOT/AOT_stimuli/rescaled_final/0448_rv.mp4	0.0	286.13931703567505	2.5087268352508545
62	269.36572790145874	pulse	1	t		60.0	2.5	/experiments/knapen_AOT/AOT_stimuli/rescaled_final/0448_rv.mp4	0.0	287.73197388648987	
62	270.2817978858948	fix_post	2		12	60.0	2.5	/experiments/knapen_AOT/AOT_stimuli/rescaled_final/0448_rv.mp4	0.0	288.6480438709259	0.09998416900634766
63	270.3817820549011	fix_pre	0		120	61.0	2.5	/experiments/knapen_AOT/AOT_stimuli/rescaled_final/0391_rv.mp4	0.0	288.74802803993225	1.0001628398895264
63	270.96538400650024	pulse	0	t		61.0	2.5	/experiments/knapen_AOT/AOT_stimuli/rescaled_final/0391_rv.mp4	0.0	289.3316299915314	
63	271.38194489479065	movie	1		243	61.0	2.5	/experiments/knapen_AOT/AOT_stimuli/rescaled_final/0391_rv.mp4	0.0	289.7481908798218	2.5004379749298096
63	272.56570982933044	pulse	1	t		61.0	2.5	/experiments/knapen_AOT/AOT_stimuli/rescaled_final/0391_rv.mp4	0.0	290.9319558143616	
63	273.88238286972046	fix_post	2		12	61.0	2.5	/experiments/knapen_AOT/AOT_stimuli/rescaled_final/0391_rv.mp4	0.0	292.2486288547516	0.09996700286865234
64	273.9823498725891	fix_pre	0		117	62.0	2.5	blank	1.0	292.34859585762024	1.0002260208129883
64	274.16596698760986	pulse	0	t		62.0	2.5	blank	1.0	292.532212972641	
64	274.9825758934021	movie	1		300	62.0	2.5	blank	1.0	293.3488218784332	2.500265121459961
64	275.7661199569702	pulse	1	t		62.0	2.5	blank	1.0	294.13236594200134	
64	277.36635303497314	pulse	1	t		62.0	2.5	blank	1.0	295.7325990200043	
64	277.48284101486206	fix_post	2		12	62.0	2.5	blank	1.0	295.8490869998932	0.1000218391418457
65	277.5828628540039	fix_pre	0		120	63.0	2.5	/experiments/knapen_AOT/AOT_stimuli/rescaled_final/1419_fw.mp4	0.0	295.94910883903503	1.0001590251922607
65	278.58302187919617	movie	1		242	63.0	2.5	/experiments/knapen_AOT/AOT_stimuli/rescaled_final/1419_fw.mp4	0.0	296.9492678642273	2.4921090602874756
65	278.968092918396	pulse	1	t		63.0	2.5	/experiments/knapen_AOT/AOT_stimuli/rescaled_final/1419_fw.mp4	0.0	297.3343389034271	
65	280.56696605682373	pulse	1	t		63.0	2.5	/experiments/knapen_AOT/AOT_stimuli/rescaled_final/1419_fw.mp4	0.0	298.93321204185486	
65	281.07513093948364	fix_post	2		12	63.0	2.5	/experiments/knapen_AOT/AOT_stimuli/rescaled_final/1419_fw.mp4	0.0	299.44137692451477	0.09996700286865234
66	281.1750979423523	fix_pre	0		120	64.0	2.5	/experiments/knapen_AOT/AOT_stimuli/rescaled_final/1583_fw.mp4	0.0	299.5413439273834	1.0001740455627441
66	282.16706895828247	pulse	0	t		64.0	2.5	/experiments/knapen_AOT/AOT_stimuli/rescaled_final/1583_fw.mp4	0.0	300.5333149433136	
66	282.17527198791504	movie	1		244	64.0	2.5	/experiments/knapen_AOT/AOT_stimuli/rescaled_final/1583_fw.mp4	0.0	300.54151797294617	2.508678913116455
66	283.7687840461731	pulse	1	t		64.0	2.5	/experiments/knapen_AOT/AOT_stimuli/rescaled_final/1583_fw.mp4	0.0	302.1350300312042	
66	284.6839509010315	fix_post	2		12	64.0	2.5	/experiments/knapen_AOT/AOT_stimuli/rescaled_final/1583_fw.mp4	0.0	303.0501968860626	0.09998393058776855
67	284.78393483161926	fix_pre	0		120	65.0	2.5	/experiments/knapen_AOT/AOT_stimuli/rescaled_final/1791_fw.mp4	0.0	303.1501808166504	1.0001890659332275
67	285.360004901886	pulse	0	t		65.0	2.5	/experiments/knapen_AOT/AOT_stimuli/rescaled_final/1791_fw.mp4	0.0	303.7262508869171	
67	285.7841238975525	movie	1		243	65.0	2.5	/experiments/knapen_AOT/AOT_stimuli/rescaled_final/1791_fw.mp4	0.0	304.1503698825836	2.5003459453582764
67	286.96019196510315	pulse	1	t		65.0	2.5	/experiments/knapen_AOT/AOT_stimuli/rescaled_final/1791_fw.mp4	0.0	305.3264379501343	
67	288.28446984291077	fix_post	2		12	65.0	2.5	/experiments/knapen_AOT/AOT_stimuli/rescaled_final/1791_fw.mp4	0.0	306.6507158279419	0.10002803802490234
68	288.38449788093567	fix_pre	0		120	66.0	2.5	/experiments/knapen_AOT/AOT_stimuli/rescaled_final/1088_rv.mp4	0.0	306.7507438659668	1.0001530647277832
68	288.5604410171509	pulse	0	t		66.0	2.5	/experiments/knapen_AOT/AOT_stimuli/rescaled_final/1088_rv.mp4	0.0	306.926687002182	
68	289.38465094566345	movie	1		244	66.0	2.5	/experiments/knapen_AOT/AOT_stimuli/rescaled_final/1088_rv.mp4	0.0	307.7508969306946	2.500441074371338
68	290.1598918437958	pulse	1	t		66.0	2.5	/experiments/knapen_AOT/AOT_stimuli/rescaled_final/1088_rv.mp4	0.0	308.5261378288269	
68	291.76014399528503	pulse	1	t		66.0	2.5	/experiments/knapen_AOT/AOT_stimuli/rescaled_final/1088_rv.mp4	0.0	310.12638998031616	
68	291.8850920200348	fix_post	2		12	66.0	2.5	/experiments/knapen_AOT/AOT_stimuli/rescaled_final/1088_rv.mp4	0.0	310.2513380050659	0.0999898910522461
69	291.98508191108704	fix_pre	0		120	67.0	2.5	/experiments/knapen_AOT/AOT_stimuli/rescaled_final/0460_rv.mp4	0.0	310.35132789611816	1.0001161098480225
69	292.98519802093506	movie	1		241	67.0	2.5	/experiments/knapen_AOT/AOT_stimuli/rescaled_final/0460_rv.mp4	0.0	311.3514440059662	2.4921820163726807
69	293.36054706573486	pulse	1	t		67.0	2.5	/experiments/knapen_AOT/AOT_stimuli/rescaled_final/0460_rv.mp4	0.0	311.726793050766	
69	294.9607820510864	pulse	1	t		67.0	2.5	/experiments/knapen_AOT/AOT_stimuli/rescaled_final/0460_rv.mp4	0.0	313.32702803611755	
69	295.47738003730774	fix_post	2		12	67.0	2.5	/experiments/knapen_AOT/AOT_stimuli/rescaled_final/0460_rv.mp4	0.0	313.84362602233887	0.09991002082824707
70	295.577290058136	fix_pre	0		119	68.0	2.5	/experiments/knapen_AOT/AOT_stimuli/rescaled_final/1611_rv.mp4	0.0	313.9435360431671	0.9918267726898193
70	296.56094884872437	pulse	0	t		68.0	2.5	/experiments/knapen_AOT/AOT_stimuli/rescaled_final/1611_rv.mp4	0.0	314.9271948337555	
70	296.5691168308258	movie	1		243	68.0	2.5	/experiments/knapen_AOT/AOT_stimuli/rescaled_final/1611_rv.mp4	0.0	314.93536281585693	2.508711099624634
70	298.1617069244385	pulse	1	t		68.0	2.5	/experiments/knapen_AOT/AOT_stimuli/rescaled_final/1611_rv.mp4	0.0	316.5279529094696	
70	299.07782793045044	fix_post	2		12	68.0	2.5	/experiments/knapen_AOT/AOT_stimuli/rescaled_final/1611_rv.mp4	0.0	317.44407391548157	0.09998011589050293
71	299.17780804634094	fix_pre	0		120	69.0	2.5	/experiments/knapen_AOT/AOT_stimuli/rescaled_final/0405_rv.mp4	0.0	317.54405403137207	1.0001518726348877
71	299.76135897636414	pulse	0	t		69.0	2.5	/experiments/knapen_AOT/AOT_stimuli/rescaled_final/0405_rv.mp4	0.0	318.12760496139526	
71	300.17795991897583	movie	1		242	69.0	2.5	/experiments/knapen_AOT/AOT_stimuli/rescaled_final/0405_rv.mp4	0.0	318.54420590400696	2.500499963760376
71	301.3617088794708	pulse	1	t		69.0	2.5	/experiments/knapen_AOT/AOT_stimuli/rescaled_final/0405_rv.mp4	0.0	319.72795486450195	
71	302.6784598827362	fix_post	2		12	69.0	2.5	/experiments/knapen_AOT/AOT_stimuli/rescaled_final/0405_rv.mp4	0.0	321.04470586776733	0.09990310668945312
72	302.77836298942566	fix_pre	0		120	70.0	2.5	blank	1.0	321.1446089744568	1.0001318454742432
72	302.96185302734375	pulse	0	t		70.0	2.5	blank	1.0	321.3280990123749	
72	303.7784948348999	movie	1		300	70.0	2.5	blank	1.0	322.14474081993103	2.5003581047058105
72	304.5621008872986	pulse	1	t		70.0	2.5	blank	1.0	322.9283468723297	
72	306.1622748374939	pulse	1	t		70.0	2.5	blank	1.0	324.528520822525	
72	306.2788529396057	fix_post	2		12	70.0	2.5	blank	1.0	324.64509892463684	0.09999203681945801
73	306.37884497642517	fix_pre	0		120	71.0	2.5	/experiments/knapen_AOT/AOT_stimuli/rescaled_final/0617_rv.mp4	0.0	324.7450909614563	1.0002219676971436
73	307.3790669441223	movie	1		242	71.0	2.5	/experiments/knapen_AOT/AOT_stimuli/rescaled_final/0617_rv.mp4	0.0	325.74531292915344	2.4919769763946533
73	307.76384687423706	pulse	1	t		71.0	2.5	/experiments/knapen_AOT/AOT_stimuli/rescaled_final/0617_rv.mp4	0.0	326.1300928592682	
73	309.3627920150757	pulse	1	t		71.0	2.5	/experiments/knapen_AOT/AOT_stimuli/rescaled_final/0617_rv.mp4	0.0	327.7290380001068	
73	309.87104392051697	fix_post	2		12	71.0	2.5	/experiments/knapen_AOT/AOT_stimuli/rescaled_final/0617_rv.mp4	0.0	328.2372899055481	0.10008597373962402
74	309.9711298942566	fix_pre	0		120	72.0	2.5	/experiments/knapen_AOT/AOT_stimuli/rescaled_final/1581_fw.mp4	0.0	328.3373758792877	1.0000920295715332
74	310.9629969596863	pulse	0	t		72.0	2.5	/experiments/knapen_AOT/AOT_stimuli/rescaled_final/1581_fw.mp4	0.0	329.3292429447174	
74	310.9712219238281	movie	1		246	72.0	2.5	/experiments/knapen_AOT/AOT_stimuli/rescaled_final/1581_fw.mp4	0.0	329.33746790885925	2.5086910724639893
74	312.56745886802673	pulse	1	t		72.0	2.5	/experiments/knapen_AOT/AOT_stimuli/rescaled_final/1581_fw.mp4	0.0	330.93370485305786	
74	313.4799129962921	fix_post	2		12	72.0	2.5	/experiments/knapen_AOT/AOT_stimuli/rescaled_final/1581_fw.mp4	0.0	331.84615898132324	0.1000070571899414
75	313.57992005348206	fix_pre	0		120	73.0	2.5	/experiments/knapen_AOT/AOT_stimuli/rescaled_final/2120_rv.mp4	0.0	331.9461660385132	1.0001800060272217
75	314.163605928421	pulse	0	t		73.0	2.5	/experiments/knapen_AOT/AOT_stimuli/rescaled_final/2120_rv.mp4	0.0	332.52985191345215	
75	314.5801000595093	movie	1		242	73.0	2.5	/experiments/knapen_AOT/AOT_stimuli/rescaled_final/2120_rv.mp4	0.0	332.9463460445404	2.5005128383636475
75	315.7639579772949	pulse	1	t		73.0	2.5	/experiments/knapen_AOT/AOT_stimuli/rescaled_final/2120_rv.mp4	0.0	334.13020396232605	
75	317.0806128978729	fix_post	2		12	73.0	2.5	/experiments/knapen_AOT/AOT_stimuli/rescaled_final/2120_rv.mp4	0.0	335.44685888290405	0.09988999366760254
76	317.1805028915405	fix_pre	0		120	74.0	2.5	/experiments/knapen_AOT/AOT_stimuli/rescaled_final/0995_fw.mp4	0.0	335.54674887657166	1.0001461505889893
76	317.3639769554138	pulse	0	t		74.0	2.5	/experiments/knapen_AOT/AOT_stimuli/rescaled_final/0995_fw.mp4	0.0	335.73022294044495	
76	318.1806490421295	movie	1		244	74.0	2.5	/experiments/knapen_AOT/AOT_stimuli/rescaled_final/0995_fw.mp4	0.0	336.54689502716064	2.500356912612915
76	318.96427488327026	pulse	1	t		74.0	2.5	/experiments/knapen_AOT/AOT_stimuli/rescaled_final/0995_fw.mp4	0.0	337.3305208683014	
76	320.5645830631256	pulse	1	t		74.0	2.5	/experiments/knapen_AOT/AOT_stimuli/rescaled_final/0995_fw.mp4	0.0	338.93082904815674	
76	320.68100595474243	fix_post	2		12	74.0	2.5	/experiments/knapen_AOT/AOT_stimuli/rescaled_final/0995_fw.mp4	0.0	339.04725193977356	0.10000395774841309
77	320.78100991249084	fix_pre	0		119	75.0	2.5	blank	1.0	339.147255897522	0.9917950630187988
77	321.77280497550964	movie	1		300	75.0	2.5	blank	1.0	340.13905096054077	2.500398874282837
77	322.1648418903351	pulse	1	t		75.0	2.5	blank	1.0	340.5310878753662	
77	323.7649359703064	pulse	1	t		75.0	2.5	blank	1.0	342.1311819553375	
77	324.2732038497925	fix_post	2		12	75.0	2.5	blank	1.0	342.6394498348236	0.10003900527954102
78	324.373242855072	fix_pre	0		120	76.0	2.5	/experiments/knapen_AOT/AOT_stimuli/rescaled_final/1582_rv.mp4	0.0	342.73948884010315	1.0001170635223389
78	325.3651599884033	pulse	0	t		76.0	2.5	/experiments/knapen_AOT/AOT_stimuli/rescaled_final/1582_rv.mp4	0.0	343.73140597343445	
78	325.37335991859436	movie	1		243	76.0	2.5	/experiments/knapen_AOT/AOT_stimuli/rescaled_final/1582_rv.mp4	0.0	343.7396059036255	2.5086939334869385
78	326.9659049510956	pulse	1	t		76.0	2.5	/experiments/knapen_AOT/AOT_stimuli/rescaled_final/1582_rv.mp4	0.0	345.3321509361267	
78	327.8820538520813	fix_post	2		12	76.0	2.5	/experiments/knapen_AOT/AOT_stimuli/rescaled_final/1582_rv.mp4	0.0	346.2482998371124	0.1000680923461914
79	327.9821219444275	fix_pre	0		120	77.0	2.5	/experiments/knapen_AOT/AOT_stimuli/rescaled_final/0288_rv.mp4	0.0	346.3483679294586	1.0001740455627441
79	328.5657410621643	pulse	0	t		77.0	2.5	/experiments/knapen_AOT/AOT_stimuli/rescaled_final/0288_rv.mp4	0.0	346.93198704719543	
79	328.98229598999023	movie	1		238	77.0	2.5	/experiments/knapen_AOT/AOT_stimuli/rescaled_final/0288_rv.mp4	0.0	347.34854197502136	2.500462055206299
79	330.1660349369049	pulse	1	t		77.0	2.5	/experiments/knapen_AOT/AOT_stimuli/rescaled_final/0288_rv.mp4	0.0	348.53228092193604	
79	331.48275804519653	fix_post	2		12	77.0	2.5	/experiments/knapen_AOT/AOT_stimuli/rescaled_final/0288_rv.mp4	0.0	349.84900403022766	0.09991884231567383
80	331.5826768875122	fix_pre	0		120	78.0	2.5	/experiments/knapen_AOT/AOT_stimuli/rescaled_final/1807_rv.mp4	0.0	349.94892287254333	1.0001060962677002
80	331.76607489585876	pulse	0	t		78.0	2.5	/experiments/knapen_AOT/AOT_stimuli/rescaled_final/1807_rv.mp4	0.0	350.1323208808899	
80	332.5827829837799	movie	1		243	78.0	2.5	/experiments/knapen_AOT/AOT_stimuli/rescaled_final/1807_rv.mp4	0.0	350.94902896881104	2.5003740787506104
80	333.3665289878845	pulse	1	t		78.0	2.5	/experiments/knapen_AOT/AOT_stimuli/rescaled_final/1807_rv.mp4	0.0	351.73277497291565	
80	334.9664750099182	pulse	1	t		78.0	2.5	/experiments/knapen_AOT/AOT_stimuli/rescaled_final/1807_rv.mp4	0.0	353.33272099494934	
80	335.0831570625305	fix_post	2		12	78.0	2.5	/experiments/knapen_AOT/AOT_stimuli/rescaled_final/1807_rv.mp4	0.0	353.44940304756165	0.1000518798828125
81	335.18320894241333	fix_pre	0		119	79.0	2.5	/experiments/knapen_AOT/AOT_stimuli/rescaled_final/0042_fw.mp4	0.0	353.54945492744446	0.991736888885498
81	336.1749458312988	movie	1		244	79.0	2.5	/experiments/knapen_AOT/AOT_stimuli/rescaled_final/0042_fw.mp4	0.0	354.54119181632996	2.5004091262817383
81	336.56696701049805	pulse	1	t		79.0	2.5	/experiments/knapen_AOT/AOT_stimuli/rescaled_final/0042_fw.mp4	0.0	354.9332129955292	
81	338.1598148345947	pulse	1	t		79.0	2.5	/experiments/knapen_AOT/AOT_stimuli/rescaled_final/0042_fw.mp4	0.0	356.52606081962585	
81	338.67535495758057	fix_post	2		12	79.0	2.5	/experiments/knapen_AOT/AOT_stimuli/rescaled_final/0042_fw.mp4	0.0	357.0416009426117	0.1000370979309082
82	338.7753920555115	fix_pre	0		120	80.0	2.5	/experiments/knapen_AOT/AOT_stimuli/rescaled_final/0008_fw.mp4	0.0	357.1416380405426	1.0001378059387207
82	339.75985288619995	pulse	0	t		80.0	2.5	/experiments/knapen_AOT/AOT_stimuli/rescaled_final/0008_fw.mp4	0.0	358.1260988712311	
82	339.7755298614502	movie	1		243	80.0	2.5	/experiments/knapen_AOT/AOT_stimuli/rescaled_final/0008_fw.mp4	0.0	358.1417758464813	2.508769989013672
82	341.367919921875	pulse	1	t		80.0	2.5	/experiments/knapen_AOT/AOT_stimuli/rescaled_final/0008_fw.mp4	0.0	359.7341659069061	
82	342.28429985046387	fix_post	2		12	80.0	2.5	/experiments/knapen_AOT/AOT_stimuli/rescaled_final/0008_fw.mp4	0.0	360.650545835495	0.09993815422058105
83	342.38423800468445	fix_pre	0		120	81.0	2.5	/experiments/knapen_AOT/AOT_stimuli/rescaled_final/1841_rv.mp4	0.0	360.7504839897156	1.0001468658447266
83	342.9595010280609	pulse	0	t		81.0	2.5	/experiments/knapen_AOT/AOT_stimuli/rescaled_final/1841_rv.mp4	0.0	361.32574701309204	
83	343.3843848705292	movie	1		243	81.0	2.5	/experiments/knapen_AOT/AOT_stimuli/rescaled_final/1841_rv.mp4	0.0	361.7506308555603	2.500499963760376
83	344.560222864151	pulse	1	t		81.0	2.5	/experiments/knapen_AOT/AOT_stimuli/rescaled_final/1841_rv.mp4	0.0	362.92646884918213	
83	345.88488483428955	fix_post	2		12	81.0	2.5	/experiments/knapen_AOT/AOT_stimuli/rescaled_final/1841_rv.mp4	0.0	364.2511308193207	0.09989809989929199
84	345.98478293418884	fix_pre	0		120	82.0	2.5	blank	1.0	364.35102891921997	1.0001211166381836
84	346.16000485420227	pulse	0	t		82.0	2.5	blank	1.0	364.5262508392334	
84	346.984904050827	movie	1		300	82.0	2.5	blank	1.0	365.35115003585815	2.50044584274292
84	347.76017594337463	pulse	1	t		82.0	2.5	blank	1.0	366.12642192840576	
84	349.3604609966278	pulse	1	t		82.0	2.5	blank	1.0	367.72670698165894	
84	349.48534989356995	fix_post	2		12	82.0	2.5	blank	1.0	367.8515958786011	0.09994316101074219
85	349.5852930545807	fix_pre	0		119	83.0	2.5	/experiments/knapen_AOT/AOT_stimuli/rescaled_final/1994_fw.mp4	0.0	367.9515390396118	0.9918148517608643
85	350.57710790634155	movie	1		244	83.0	2.5	/experiments/knapen_AOT/AOT_stimuli/rescaled_final/1994_fw.mp4	0.0	368.9433538913727	2.500430107116699
85	350.9611279964447	pulse	1	t		83.0	2.5	/experiments/knapen_AOT/AOT_stimuli/rescaled_final/1994_fw.mp4	0.0	369.32737398147583	
85	352.5609459877014	pulse	1	t		83.0	2.5	/experiments/knapen_AOT/AOT_stimuli/rescaled_final/1994_fw.mp4	0.0	370.92719197273254	
85	353.07753801345825	fix_post	2		12	83.0	2.5	/experiments/knapen_AOT/AOT_stimuli/rescaled_final/1994_fw.mp4	0.0	371.4437839984894	0.09998583793640137
87	353.17752385139465	stim	0		1716					371.5437698364258	14.302196025848389
87	354.16109704971313	pulse	0	t						372.52734303474426	
87	355.7613868713379	pulse	0	t						374.127632856369	
87	357.36165499687195	pulse	0	t						375.7279009819031	
87	358.96191596984863	pulse	0	t						377.32816195487976	
87	360.56202697753906	pulse	0	t						378.9282729625702	
87	362.16235399246216	pulse	0	t						380.5285999774933	
87	363.76252698898315	pulse	0	t						382.1287729740143	
87	365.3628749847412	pulse	0	t						383.72912096977234	
87	366.96297883987427	pulse	0	t						385.3292248249054	
