trial_nr	onset	event_type	phase	response	nr_frames	movie_index	movie_duration	movie_file	blank	onset_abs	duration
0	0.20818614959716797	stim	0		1					56.82592535018921	0.008308887481689453
0	0.20238113403320312	response	0	space						56.820120334625244	
1	0.21649503707885742	stim	0		4712					56.8342342376709	39.28191900253296
1	39.488452196121216	pulse	0	t						96.10619139671326	
1	39.498414039611816	stim	1		1716					96.11615324020386	14.301039934158325
1	41.08114814758301	pulse	1	t						97.69888734817505	
1	42.68130612373352	pulse	1	t						99.29904532432556	
1	44.28167104721069	pulse	1	t						100.89941024780273	
1	45.881856203079224	pulse	1	t						102.49959540367126	
1	47.48207211494446	pulse	1	t						104.0998113155365	
1	49.08226013183594	pulse	1	t						105.69999933242798	
1	50.682483196258545	pulse	1	t						107.30022239685059	
1	52.28276705741882	pulse	1	t						108.90050625801086	
2	53.79945397377014	fix_pre	0		11	0.0	2.5	/experiments/knapen_AOT/AOT_stimuli/rescaled_final/1607_fw.mp4	0.0	110.41719317436218	0.10023021697998047
2	53.88305401802063	pulse	0	t		0.0	2.5	/experiments/knapen_AOT/AOT_stimuli/rescaled_final/1607_fw.mp4	0.0	110.50079321861267	
2	53.89968419075012	movie	1		242	0.0	2.5	/experiments/knapen_AOT/AOT_stimuli/rescaled_final/1607_fw.mp4	0.0	110.51742339134216	2.5002739429473877
2	55.48374915122986	pulse	1	t		0.0	2.5	/experiments/knapen_AOT/AOT_stimuli/rescaled_final/1607_fw.mp4	0.0	112.1014883518219	
2	56.39995813369751	fix_post	2		12	0.0	2.5	/experiments/knapen_AOT/AOT_stimuli/rescaled_final/1607_fw.mp4	0.0	113.01769733428955	0.09991693496704102
3	56.49987506866455	fix_pre	0		120	1.0	2.5	/experiments/knapen_AOT/AOT_stimuli/rescaled_final/1252_fw.mp4	0.0	113.11761426925659	1.0001440048217773
3	57.08349800109863	pulse	0	t		1.0	2.5	/experiments/knapen_AOT/AOT_stimuli/rescaled_final/1252_fw.mp4	0.0	113.70123720169067	
3	57.50001907348633	movie	1		242	1.0	2.5	/experiments/knapen_AOT/AOT_stimuli/rescaled_final/1252_fw.mp4	0.0	114.11775827407837	2.5005009174346924
3	58.679357051849365	pulse	1	t		1.0	2.5	/experiments/knapen_AOT/AOT_stimuli/rescaled_final/1252_fw.mp4	0.0	115.2970962524414	
3	60.00051999092102	fix_post	2		12	1.0	2.5	/experiments/knapen_AOT/AOT_stimuli/rescaled_final/1252_fw.mp4	0.0	116.61825919151306	0.09987902641296387
4	60.100399017333984	fix_pre	0		120	2.0	2.5	/experiments/knapen_AOT/AOT_stimuli/rescaled_final/1948_rv.mp4	0.0	116.71813821792603	1.000143051147461
4	60.28400206565857	pulse	0	t		2.0	2.5	/experiments/knapen_AOT/AOT_stimuli/rescaled_final/1948_rv.mp4	0.0	116.90174126625061	
4	61.100542068481445	movie	1		243	2.0	2.5	/experiments/knapen_AOT/AOT_stimuli/rescaled_final/1948_rv.mp4	0.0	117.71828126907349	2.500504970550537
4	61.884292125701904	pulse	1	t		2.0	2.5	/experiments/knapen_AOT/AOT_stimuli/rescaled_final/1948_rv.mp4	0.0	118.50203132629395	
4	63.48433303833008	pulse	1	t		2.0	2.5	/experiments/knapen_AOT/AOT_stimuli/rescaled_final/1948_rv.mp4	0.0	120.10207223892212	
4	63.60104703903198	fix_post	2		12	2.0	2.5	/experiments/knapen_AOT/AOT_stimuli/rescaled_final/1948_rv.mp4	0.0	120.21878623962402	0.09987711906433105
5	63.70092415809631	fix_pre	0		120	3.0	2.5	/experiments/knapen_AOT/AOT_stimuli/rescaled_final/1210_rv.mp4	0.0	120.31866335868835	1.0001509189605713
5	64.70107507705688	movie	1		241	3.0	2.5	/experiments/knapen_AOT/AOT_stimuli/rescaled_final/1210_rv.mp4	0.0	121.31881427764893	2.492110013961792
5	65.08530902862549	pulse	1	t		3.0	2.5	/experiments/knapen_AOT/AOT_stimuli/rescaled_final/1210_rv.mp4	0.0	121.70304822921753	
5	66.68505907058716	pulse	1	t		3.0	2.5	/experiments/knapen_AOT/AOT_stimuli/rescaled_final/1210_rv.mp4	0.0	123.3027982711792	
5	67.19318509101868	fix_post	2		12	3.0	2.5	/experiments/knapen_AOT/AOT_stimuli/rescaled_final/1210_rv.mp4	0.0	123.81092429161072	0.09993910789489746
6	67.29312419891357	fix_pre	0		120	4.0	2.5	/experiments/knapen_AOT/AOT_stimuli/rescaled_final/0041_fw.mp4	0.0	123.91086339950562	1.0001628398895264
6	68.28523802757263	pulse	0	t		4.0	2.5	/experiments/knapen_AOT/AOT_stimuli/rescaled_final/0041_fw.mp4	0.0	124.90297722816467	
6	68.2932870388031	movie	1		247	4.0	2.5	/experiments/knapen_AOT/AOT_stimuli/rescaled_final/0041_fw.mp4	0.0	124.91102623939514	2.5086829662323
6	69.88630819320679	pulse	1	t		4.0	2.5	/experiments/knapen_AOT/AOT_stimuli/rescaled_final/0041_fw.mp4	0.0	126.50404739379883	
6	70.8019700050354	fix_post	2		12	4.0	2.5	/experiments/knapen_AOT/AOT_stimuli/rescaled_final/0041_fw.mp4	0.0	127.41970920562744	0.10006499290466309
7	70.90203499794006	fix_pre	0		120	5.0	2.5	/experiments/knapen_AOT/AOT_stimuli/rescaled_final/0778_rv.mp4	0.0	127.5197741985321	1.0001180171966553
7	71.48574209213257	pulse	0	t		5.0	2.5	/experiments/knapen_AOT/AOT_stimuli/rescaled_final/0778_rv.mp4	0.0	128.1034812927246	
7	71.90215301513672	movie	1		244	5.0	2.5	/experiments/knapen_AOT/AOT_stimuli/rescaled_final/0778_rv.mp4	0.0	128.51989221572876	2.500352144241333
7	73.07870507240295	pulse	1	t		5.0	2.5	/experiments/knapen_AOT/AOT_stimuli/rescaled_final/0778_rv.mp4	0.0	129.696444272995	
7	74.40250515937805	fix_post	2		12	5.0	2.5	/experiments/knapen_AOT/AOT_stimuli/rescaled_final/0778_rv.mp4	0.0	131.0202443599701	0.10003089904785156
8	74.5025360584259	fix_pre	0		120	6.0	2.5	blank	1.0	131.12027525901794	1.0001590251922607
8	74.67862701416016	pulse	0	t		6.0	2.5	blank	1.0	131.2963662147522	
8	75.50269508361816	movie	1		300	6.0	2.5	blank	1.0	132.1204342842102	2.5003769397735596
8	76.2788290977478	pulse	1	t		6.0	2.5	blank	1.0	132.89656829833984	
8	77.87895798683167	pulse	1	t		6.0	2.5	blank	1.0	134.4966971874237	
8	78.00307202339172	fix_post	2		12	6.0	2.5	blank	1.0	134.62081122398376	0.10000205039978027
9	78.1030740737915	fix_pre	0		119	7.0	2.5	/experiments/knapen_AOT/AOT_stimuli/rescaled_final/1268_fw.mp4	0.0	134.72081327438354	0.9918360710144043
9	79.09491014480591	movie	1		244	7.0	2.5	/experiments/knapen_AOT/AOT_stimuli/rescaled_final/1268_fw.mp4	0.0	135.71264934539795	2.5003390312194824
9	79.47885298728943	pulse	1	t		7.0	2.5	/experiments/knapen_AOT/AOT_stimuli/rescaled_final/1268_fw.mp4	0.0	136.09659218788147	
9	81.07867002487183	pulse	1	t		7.0	2.5	/experiments/knapen_AOT/AOT_stimuli/rescaled_final/1268_fw.mp4	0.0	137.69640922546387	
9	81.59524917602539	fix_post	2		12	7.0	2.5	/experiments/knapen_AOT/AOT_stimuli/rescaled_final/1268_fw.mp4	0.0	138.21298837661743	0.10004687309265137
10	81.69529604911804	fix_pre	0		119	8.0	2.5	/experiments/knapen_AOT/AOT_stimuli/rescaled_final/0669_fw.mp4	0.0	138.31303524971008	0.9918179512023926
10	82.67906618118286	pulse	0	t		8.0	2.5	/experiments/knapen_AOT/AOT_stimuli/rescaled_final/0669_fw.mp4	0.0	139.2968053817749	
10	82.68711400032043	movie	1		240	8.0	2.5	/experiments/knapen_AOT/AOT_stimuli/rescaled_final/0669_fw.mp4	0.0	139.30485320091248	2.508747100830078
10	84.28000903129578	pulse	1	t		8.0	2.5	/experiments/knapen_AOT/AOT_stimuli/rescaled_final/0669_fw.mp4	0.0	140.89774823188782	
10	85.19586110115051	fix_post	2		12	8.0	2.5	/experiments/knapen_AOT/AOT_stimuli/rescaled_final/0669_fw.mp4	0.0	141.81360030174255	0.10008001327514648
11	85.29594111442566	fix_pre	0		120	9.0	2.5	/experiments/knapen_AOT/AOT_stimuli/rescaled_final/2176_fw.mp4	0.0	141.9136803150177	1.0000779628753662
11	85.87941002845764	pulse	0	t		9.0	2.5	/experiments/knapen_AOT/AOT_stimuli/rescaled_final/2176_fw.mp4	0.0	142.49714922904968	
11	86.29601907730103	movie	1		243	9.0	2.5	/experiments/knapen_AOT/AOT_stimuli/rescaled_final/2176_fw.mp4	0.0	142.91375827789307	2.50056791305542
11	87.47973799705505	pulse	1	t		9.0	2.5	/experiments/knapen_AOT/AOT_stimuli/rescaled_final/2176_fw.mp4	0.0	144.0974771976471	
11	88.79658699035645	fix_post	2		12	9.0	2.5	/experiments/knapen_AOT/AOT_stimuli/rescaled_final/2176_fw.mp4	0.0	145.4143261909485	0.09989118576049805
12	88.89647817611694	fix_pre	0		120	10.0	2.5	/experiments/knapen_AOT/AOT_stimuli/rescaled_final/1828_fw.mp4	0.0	145.51421737670898	1.0000379085540771
12	89.07990312576294	pulse	0	t		10.0	2.5	/experiments/knapen_AOT/AOT_stimuli/rescaled_final/1828_fw.mp4	0.0	145.69764232635498	
12	89.89651608467102	movie	1		243	10.0	2.5	/experiments/knapen_AOT/AOT_stimuli/rescaled_final/1828_fw.mp4	0.0	146.51425528526306	2.5005059242248535
12	90.6802270412445	pulse	1	t		10.0	2.5	/experiments/knapen_AOT/AOT_stimuli/rescaled_final/1828_fw.mp4	0.0	147.29796624183655	
12	92.2803521156311	pulse	1	t		10.0	2.5	/experiments/knapen_AOT/AOT_stimuli/rescaled_final/1828_fw.mp4	0.0	148.89809131622314	
12	92.39702200889587	fix_post	2		12	10.0	2.5	/experiments/knapen_AOT/AOT_stimuli/rescaled_final/1828_fw.mp4	0.0	149.01476120948792	0.09992599487304688
13	92.49694800376892	fix_pre	0		120	11.0	2.5	/experiments/knapen_AOT/AOT_stimuli/rescaled_final/1955_fw.mp4	0.0	149.11468720436096	1.0001201629638672
13	93.49706816673279	movie	1		241	11.0	2.5	/experiments/knapen_AOT/AOT_stimuli/rescaled_final/1955_fw.mp4	0.0	150.11480736732483	2.492095947265625
13	93.88111519813538	pulse	1	t		11.0	2.5	/experiments/knapen_AOT/AOT_stimuli/rescaled_final/1955_fw.mp4	0.0	150.49885439872742	
13	95.48090314865112	pulse	1	t		11.0	2.5	/experiments/knapen_AOT/AOT_stimuli/rescaled_final/1955_fw.mp4	0.0	152.09864234924316	
13	95.98916411399841	fix_post	2		12	11.0	2.5	/experiments/knapen_AOT/AOT_stimuli/rescaled_final/1955_fw.mp4	0.0	152.60690331459045	0.09995388984680176
14	96.08911800384521	fix_pre	0		120	12.0	2.5	/experiments/knapen_AOT/AOT_stimuli/rescaled_final/1476_fw.mp4	0.0	152.70685720443726	1.0001230239868164
14	97.08110499382019	pulse	0	t		12.0	2.5	/experiments/knapen_AOT/AOT_stimuli/rescaled_final/1476_fw.mp4	0.0	153.69884419441223	
14	97.08924102783203	movie	1		244	12.0	2.5	/experiments/knapen_AOT/AOT_stimuli/rescaled_final/1476_fw.mp4	0.0	153.70698022842407	2.5087921619415283
14	98.68198013305664	pulse	1	t		12.0	2.5	/experiments/knapen_AOT/AOT_stimuli/rescaled_final/1476_fw.mp4	0.0	155.29971933364868	
14	99.59803318977356	fix_post	2		12	12.0	2.5	/experiments/knapen_AOT/AOT_stimuli/rescaled_final/1476_fw.mp4	0.0	156.2157723903656	0.09996294975280762
15	99.69799613952637	fix_pre	0		120	13.0	2.5	blank	1.0	156.3157353401184	1.0001800060272217
15	100.28158617019653	pulse	0	t		13.0	2.5	blank	1.0	156.89932537078857	
15	100.69817614555359	movie	1		300	13.0	2.5	blank	1.0	157.31591534614563	2.5003509521484375
15	101.8818290233612	pulse	1	t		13.0	2.5	blank	1.0	158.49956822395325	
15	103.19852709770203	fix_post	2		12	13.0	2.5	blank	1.0	159.81626629829407	0.09998393058776855
16	103.2985110282898	fix_pre	0		120	14.0	2.5	/experiments/knapen_AOT/AOT_stimuli/rescaled_final/1289_fw.mp4	0.0	159.91625022888184	1.0001261234283447
16	103.48228812217712	pulse	0	t		14.0	2.5	/experiments/knapen_AOT/AOT_stimuli/rescaled_final/1289_fw.mp4	0.0	160.10002732276917	
16	104.29863715171814	movie	1		242	14.0	2.5	/experiments/knapen_AOT/AOT_stimuli/rescaled_final/1289_fw.mp4	0.0	160.91637635231018	2.50055193901062
16	105.08225417137146	pulse	1	t		14.0	2.5	/experiments/knapen_AOT/AOT_stimuli/rescaled_final/1289_fw.mp4	0.0	161.6999933719635	
16	106.68323516845703	pulse	1	t		14.0	2.5	/experiments/knapen_AOT/AOT_stimuli/rescaled_final/1289_fw.mp4	0.0	163.30097436904907	
16	106.79918909072876	fix_post	2		12	14.0	2.5	/experiments/knapen_AOT/AOT_stimuli/rescaled_final/1289_fw.mp4	0.0	163.4169282913208	0.09984087944030762
17	106.89902997016907	fix_pre	0		120	15.0	2.5	/experiments/knapen_AOT/AOT_stimuli/rescaled_final/1959_fw.mp4	0.0	163.5167691707611	1.0001981258392334
17	107.8992280960083	movie	1		241	15.0	2.5	/experiments/knapen_AOT/AOT_stimuli/rescaled_final/1959_fw.mp4	0.0	164.51696729660034	2.492155075073242
17	108.28347396850586	pulse	1	t		15.0	2.5	/experiments/knapen_AOT/AOT_stimuli/rescaled_final/1959_fw.mp4	0.0	164.9012131690979	
17	109.88300514221191	pulse	1	t		15.0	2.5	/experiments/knapen_AOT/AOT_stimuli/rescaled_final/1959_fw.mp4	0.0	166.50074434280396	
17	110.39138317108154	fix_post	2		12	15.0	2.5	/experiments/knapen_AOT/AOT_stimuli/rescaled_final/1959_fw.mp4	0.0	167.00912237167358	0.09986996650695801
18	110.4912531375885	fix_pre	0		120	16.0	2.5	/experiments/knapen_AOT/AOT_stimuli/rescaled_final/0092_fw.mp4	0.0	167.10899233818054	1.0002169609069824
18	111.48329019546509	pulse	0	t		16.0	2.5	/experiments/knapen_AOT/AOT_stimuli/rescaled_final/0092_fw.mp4	0.0	168.10102939605713	
18	111.49147009849548	movie	1		243	16.0	2.5	/experiments/knapen_AOT/AOT_stimuli/rescaled_final/0092_fw.mp4	0.0	168.10920929908752	2.5086700916290283
18	113.08748602867126	pulse	1	t		16.0	2.5	/experiments/knapen_AOT/AOT_stimuli/rescaled_final/0092_fw.mp4	0.0	169.7052252292633	
18	114.00014019012451	fix_post	2		12	16.0	2.5	/experiments/knapen_AOT/AOT_stimuli/rescaled_final/0092_fw.mp4	0.0	170.61787939071655	0.09999990463256836
19	114.10014009475708	fix_pre	0		120	17.0	2.5	/experiments/knapen_AOT/AOT_stimuli/rescaled_final/2110_fw.mp4	0.0	170.71787929534912	1.0001890659332275
19	114.68374419212341	pulse	0	t		17.0	2.5	/experiments/knapen_AOT/AOT_stimuli/rescaled_final/2110_fw.mp4	0.0	171.30148339271545	
19	115.10032916069031	movie	1		244	17.0	2.5	/experiments/knapen_AOT/AOT_stimuli/rescaled_final/2110_fw.mp4	0.0	171.71806836128235	2.500308036804199
19	116.27974319458008	pulse	1	t		17.0	2.5	/experiments/knapen_AOT/AOT_stimuli/rescaled_final/2110_fw.mp4	0.0	172.89748239517212	
19	117.6006371974945	fix_post	2		12	17.0	2.5	/experiments/knapen_AOT/AOT_stimuli/rescaled_final/2110_fw.mp4	0.0	174.21837639808655	0.10006189346313477
20	117.70069909095764	fix_pre	0		120	18.0	2.5	/experiments/knapen_AOT/AOT_stimuli/rescaled_final/2135_fw.mp4	0.0	174.31843829154968	1.0001020431518555
20	117.88426399230957	pulse	0	t		18.0	2.5	/experiments/knapen_AOT/AOT_stimuli/rescaled_final/2135_fw.mp4	0.0	174.5020031929016	
20	118.7008011341095	movie	1		243	18.0	2.5	/experiments/knapen_AOT/AOT_stimuli/rescaled_final/2135_fw.mp4	0.0	175.31854033470154	2.5004818439483643
20	119.4845290184021	pulse	1	t		18.0	2.5	/experiments/knapen_AOT/AOT_stimuli/rescaled_final/2135_fw.mp4	0.0	176.10226821899414	
20	121.08454203605652	pulse	1	t		18.0	2.5	/experiments/knapen_AOT/AOT_stimuli/rescaled_final/2135_fw.mp4	0.0	177.70228123664856	
20	121.20128297805786	fix_post	2		12	18.0	2.5	/experiments/knapen_AOT/AOT_stimuli/rescaled_final/2135_fw.mp4	0.0	177.8190221786499	0.09989500045776367
21	121.30117797851562	fix_pre	0		120	19.0	2.5	/experiments/knapen_AOT/AOT_stimuli/rescaled_final/0756_rv.mp4	0.0	177.91891717910767	1.0002281665802002
21	122.30140614509583	movie	1		243	19.0	2.5	/experiments/knapen_AOT/AOT_stimuli/rescaled_final/0756_rv.mp4	0.0	178.91914534568787	2.491957902908325
21	122.68630909919739	pulse	1	t		19.0	2.5	/experiments/knapen_AOT/AOT_stimuli/rescaled_final/0756_rv.mp4	0.0	179.30404829978943	
21	124.28517699241638	pulse	1	t		19.0	2.5	/experiments/knapen_AOT/AOT_stimuli/rescaled_final/0756_rv.mp4	0.0	180.90291619300842	
21	124.79336404800415	fix_post	2		12	19.0	2.5	/experiments/knapen_AOT/AOT_stimuli/rescaled_final/0756_rv.mp4	0.0	181.4111032485962	0.10009312629699707
22	124.89345717430115	fix_pre	0		120	20.0	2.5	blank	1.0	181.5111963748932	1.0001039505004883
22	125.88549399375916	pulse	0	t		20.0	2.5	blank	1.0	182.5032331943512	
22	125.89356112480164	movie	1		301	20.0	2.5	blank	1.0	182.51130032539368	2.508683919906616
22	127.47807002067566	pulse	1	t		20.0	2.5	blank	1.0	184.0958092212677	
22	128.40224504470825	fix_post	2		12	20.0	2.5	blank	1.0	185.0199842453003	0.10004615783691406
23	128.50229120254517	fix_pre	0		120	21.0	2.5	/experiments/knapen_AOT/AOT_stimuli/rescaled_final/0939_rv.mp4	0.0	185.1200304031372	1.0001709461212158
23	129.07848405838013	pulse	0	t		21.0	2.5	/experiments/knapen_AOT/AOT_stimuli/rescaled_final/0939_rv.mp4	0.0	185.69622325897217	
23	129.50246214866638	movie	1		243	21.0	2.5	/experiments/knapen_AOT/AOT_stimuli/rescaled_final/0939_rv.mp4	0.0	186.12020134925842	2.5005619525909424
23	130.6783480644226	pulse	1	t		21.0	2.5	/experiments/knapen_AOT/AOT_stimuli/rescaled_final/0939_rv.mp4	0.0	187.29608726501465	
23	132.00302410125732	fix_post	2		12	21.0	2.5	/experiments/knapen_AOT/AOT_stimuli/rescaled_final/0939_rv.mp4	0.0	188.62076330184937	0.09978508949279785
24	132.10280919075012	fix_pre	0		120	22.0	2.5	/experiments/knapen_AOT/AOT_stimuli/rescaled_final/2105_fw.mp4	0.0	188.72054839134216	1.000128984451294
24	132.2787570953369	pulse	0	t		22.0	2.5	/experiments/knapen_AOT/AOT_stimuli/rescaled_final/2105_fw.mp4	0.0	188.89649629592896	
24	133.10293817520142	movie	1		242	22.0	2.5	/experiments/knapen_AOT/AOT_stimuli/rescaled_final/2105_fw.mp4	0.0	189.72067737579346	2.500593900680542
24	133.87818098068237	pulse	1	t		22.0	2.5	/experiments/knapen_AOT/AOT_stimuli/rescaled_final/2105_fw.mp4	0.0	190.4959201812744	
24	135.47853803634644	pulse	1	t		22.0	2.5	/experiments/knapen_AOT/AOT_stimuli/rescaled_final/2105_fw.mp4	0.0	192.09627723693848	
24	135.60353207588196	fix_post	2		12	22.0	2.5	/experiments/knapen_AOT/AOT_stimuli/rescaled_final/2105_fw.mp4	0.0	192.221271276474	0.09983205795288086
25	135.70336413383484	fix_pre	0		120	23.0	2.5	/experiments/knapen_AOT/AOT_stimuli/rescaled_final/0137_rv.mp4	0.0	192.32110333442688	1.0001740455627441
25	136.70353817939758	movie	1		241	23.0	2.5	/experiments/knapen_AOT/AOT_stimuli/rescaled_final/0137_rv.mp4	0.0	193.32127737998962	2.4920740127563477
25	137.07884311676025	pulse	1	t		23.0	2.5	/experiments/knapen_AOT/AOT_stimuli/rescaled_final/0137_rv.mp4	0.0	193.6965823173523	
25	138.67931199073792	pulse	1	t		23.0	2.5	/experiments/knapen_AOT/AOT_stimuli/rescaled_final/0137_rv.mp4	0.0	195.29705119132996	
25	139.19561219215393	fix_post	2		12	23.0	2.5	/experiments/knapen_AOT/AOT_stimuli/rescaled_final/0137_rv.mp4	0.0	195.81335139274597	0.0999598503112793
26	139.2955720424652	fix_pre	0		119	24.0	2.5	/experiments/knapen_AOT/AOT_stimuli/rescaled_final/1408_fw.mp4	0.0	195.91331124305725	0.9918351173400879
26	140.27916717529297	pulse	0	t		24.0	2.5	/experiments/knapen_AOT/AOT_stimuli/rescaled_final/1408_fw.mp4	0.0	196.896906375885	
26	140.2874071598053	movie	1		243	24.0	2.5	/experiments/knapen_AOT/AOT_stimuli/rescaled_final/1408_fw.mp4	0.0	196.90514636039734	2.5087668895721436
26	141.88004899024963	pulse	1	t		24.0	2.5	/experiments/knapen_AOT/AOT_stimuli/rescaled_final/1408_fw.mp4	0.0	198.49778819084167	
26	142.79617404937744	fix_post	2		12	24.0	2.5	/experiments/knapen_AOT/AOT_stimuli/rescaled_final/1408_fw.mp4	0.0	199.41391324996948	0.09991598129272461
27	142.89609003067017	fix_pre	0		120	25.0	2.5	/experiments/knapen_AOT/AOT_stimuli/rescaled_final/0575_fw.mp4	0.0	199.5138292312622	1.0001261234283447
27	143.4796760082245	pulse	0	t		25.0	2.5	/experiments/knapen_AOT/AOT_stimuli/rescaled_final/0575_fw.mp4	0.0	200.09741520881653	
27	143.8962161540985	movie	1		242	25.0	2.5	/experiments/knapen_AOT/AOT_stimuli/rescaled_final/0575_fw.mp4	0.0	200.51395535469055	2.5006630420684814
27	145.08006715774536	pulse	1	t		25.0	2.5	/experiments/knapen_AOT/AOT_stimuli/rescaled_final/0575_fw.mp4	0.0	201.6978063583374	
27	146.396879196167	fix_post	2		12	25.0	2.5	/experiments/knapen_AOT/AOT_stimuli/rescaled_final/0575_fw.mp4	0.0	203.01461839675903	0.09981679916381836
28	146.4966959953308	fix_pre	0		120	26.0	2.5	/experiments/knapen_AOT/AOT_stimuli/rescaled_final/1070_rv.mp4	0.0	203.11443519592285	1.0000901222229004
28	146.6801881790161	pulse	0	t		26.0	2.5	/experiments/knapen_AOT/AOT_stimuli/rescaled_final/1070_rv.mp4	0.0	203.29792737960815	
28	147.4967861175537	movie	1		242	26.0	2.5	/experiments/knapen_AOT/AOT_stimuli/rescaled_final/1070_rv.mp4	0.0	204.11452531814575	2.5004398822784424
28	148.28038811683655	pulse	1	t		26.0	2.5	/experiments/knapen_AOT/AOT_stimuli/rescaled_final/1070_rv.mp4	0.0	204.8981273174286	
28	149.881667137146	pulse	1	t		26.0	2.5	/experiments/knapen_AOT/AOT_stimuli/rescaled_final/1070_rv.mp4	0.0	206.49940633773804	
28	149.99722599983215	fix_post	2		12	26.0	2.5	/experiments/knapen_AOT/AOT_stimuli/rescaled_final/1070_rv.mp4	0.0	206.6149652004242	0.09993219375610352
29	150.09715819358826	fix_pre	0		116	27.0	2.5	/experiments/knapen_AOT/AOT_stimuli/rescaled_final/1897_fw.mp4	0.0	206.7148973941803	0.9918079376220703
29	151.08896613121033	movie	1		245	27.0	2.5	/experiments/knapen_AOT/AOT_stimuli/rescaled_final/1897_fw.mp4	0.0	207.70670533180237	2.500369071960449
29	151.4809591770172	pulse	1	t		27.0	2.5	/experiments/knapen_AOT/AOT_stimuli/rescaled_final/1897_fw.mp4	0.0	208.09869837760925	
29	153.08114910125732	pulse	1	t		27.0	2.5	/experiments/knapen_AOT/AOT_stimuli/rescaled_final/1897_fw.mp4	0.0	209.69888830184937	
29	153.58933520317078	fix_post	2		12	27.0	2.5	/experiments/knapen_AOT/AOT_stimuli/rescaled_final/1897_fw.mp4	0.0	210.20707440376282	0.10005497932434082
30	153.68939018249512	fix_pre	0		120	28.0	2.5	blank	1.0	210.30712938308716	1.000190019607544
30	154.68131017684937	pulse	0	t		28.0	2.5	blank	1.0	211.2990493774414	
30	154.68958020210266	movie	1		301	28.0	2.5	blank	1.0	211.3073194026947	2.508647918701172
30	156.28165698051453	pulse	1	t		28.0	2.5	blank	1.0	212.89939618110657	
30	157.19822812080383	fix_post	2		12	28.0	2.5	blank	1.0	213.81596732139587	0.10004496574401855
31	157.29827308654785	fix_pre	0		120	29.0	2.5	/experiments/knapen_AOT/AOT_stimuli/rescaled_final/1238_fw.mp4	0.0	213.9160122871399	1.0000920295715332
31	157.8819191455841	pulse	0	t		29.0	2.5	/experiments/knapen_AOT/AOT_stimuli/rescaled_final/1238_fw.mp4	0.0	214.49965834617615	
31	158.29836511611938	movie	1		242	29.0	2.5	/experiments/knapen_AOT/AOT_stimuli/rescaled_final/1238_fw.mp4	0.0	214.91610431671143	2.500678062438965
31	159.48223614692688	pulse	1	t		29.0	2.5	/experiments/knapen_AOT/AOT_stimuli/rescaled_final/1238_fw.mp4	0.0	216.09997534751892	
31	160.79904317855835	fix_post	2		12	29.0	2.5	/experiments/knapen_AOT/AOT_stimuli/rescaled_final/1238_fw.mp4	0.0	217.4167823791504	0.09974479675292969
32	160.89878797531128	fix_pre	0		120	30.0	2.5	/experiments/knapen_AOT/AOT_stimuli/rescaled_final/1239_rv.mp4	0.0	217.51652717590332	1.0001640319824219
32	161.0822970867157	pulse	0	t		30.0	2.5	/experiments/knapen_AOT/AOT_stimuli/rescaled_final/1239_rv.mp4	0.0	217.70003628730774	
32	161.8989520072937	movie	1		242	30.0	2.5	/experiments/knapen_AOT/AOT_stimuli/rescaled_final/1239_rv.mp4	0.0	218.51669120788574	2.492238998413086
32	162.68262314796448	pulse	1	t		30.0	2.5	/experiments/knapen_AOT/AOT_stimuli/rescaled_final/1239_rv.mp4	0.0	219.30036234855652	
32	164.2825710773468	pulse	1	t		30.0	2.5	/experiments/knapen_AOT/AOT_stimuli/rescaled_final/1239_rv.mp4	0.0	220.90031027793884	
32	164.3911910057068	fix_post	2		13	30.0	2.5	/experiments/knapen_AOT/AOT_stimuli/rescaled_final/1239_rv.mp4	0.0	221.00893020629883	0.10810303688049316
33	164.49929404258728	fix_pre	0		119	31.0	2.5	/experiments/knapen_AOT/AOT_stimuli/rescaled_final/1594_fw.mp4	0.0	221.11703324317932	0.9918050765991211
33	165.4910991191864	movie	1		244	31.0	2.5	/experiments/knapen_AOT/AOT_stimuli/rescaled_final/1594_fw.mp4	0.0	222.10883831977844	2.5003788471221924
33	165.87904500961304	pulse	1	t		31.0	2.5	/experiments/knapen_AOT/AOT_stimuli/rescaled_final/1594_fw.mp4	0.0	222.49678421020508	
33	167.4832661151886	pulse	1	t		31.0	2.5	/experiments/knapen_AOT/AOT_stimuli/rescaled_final/1594_fw.mp4	0.0	224.10100531578064	
33	167.9914779663086	fix_post	2		12	31.0	2.5	/experiments/knapen_AOT/AOT_stimuli/rescaled_final/1594_fw.mp4	0.0	224.60921716690063	0.100067138671875
34	168.09154510498047	fix_pre	0		120	32.0	2.5	/experiments/knapen_AOT/AOT_stimuli/rescaled_final/0876_rv.mp4	0.0	224.7092843055725	1.0001130104064941
34	169.08358311653137	pulse	0	t		32.0	2.5	/experiments/knapen_AOT/AOT_stimuli/rescaled_final/0876_rv.mp4	0.0	225.7013223171234	
34	169.09165811538696	movie	1		243	32.0	2.5	/experiments/knapen_AOT/AOT_stimuli/rescaled_final/0876_rv.mp4	0.0	225.709397315979	2.5087778568267822
34	170.68423509597778	pulse	1	t		32.0	2.5	/experiments/knapen_AOT/AOT_stimuli/rescaled_final/0876_rv.mp4	0.0	227.30197429656982	
34	171.60043597221375	fix_post	2		12	32.0	2.5	/experiments/knapen_AOT/AOT_stimuli/rescaled_final/0876_rv.mp4	0.0	228.2181751728058	0.09995317459106445
35	171.7003891468048	fix_pre	0		120	33.0	2.5	/experiments/knapen_AOT/AOT_stimuli/rescaled_final/2111_rv.mp4	0.0	228.31812834739685	1.0001699924468994
35	172.28408908843994	pulse	0	t		33.0	2.5	/experiments/knapen_AOT/AOT_stimuli/rescaled_final/2111_rv.mp4	0.0	228.90182828903198	
35	172.7005591392517	movie	1		243	33.0	2.5	/experiments/knapen_AOT/AOT_stimuli/rescaled_final/2111_rv.mp4	0.0	229.31829833984375	2.5005099773406982
35	173.8842589855194	pulse	1	t		33.0	2.5	/experiments/knapen_AOT/AOT_stimuli/rescaled_final/2111_rv.mp4	0.0	230.50199818611145	
35	175.2010691165924	fix_post	2		12	33.0	2.5	/experiments/knapen_AOT/AOT_stimuli/rescaled_final/2111_rv.mp4	0.0	231.81880831718445	0.09987401962280273
36	175.3009431362152	fix_pre	0		120	34.0	2.5	blank	1.0	231.91868233680725	1.0001170635223389
36	175.48439598083496	pulse	0	t		34.0	2.5	blank	1.0	232.102135181427	
36	176.30106019973755	movie	1		300	34.0	2.5	blank	1.0	232.9187994003296	2.500412940979004
36	177.08473896980286	pulse	1	t		34.0	2.5	blank	1.0	233.7024781703949	
36	178.68497920036316	pulse	1	t		34.0	2.5	blank	1.0	235.3027184009552	
36	178.80147314071655	fix_post	2		12	34.0	2.5	blank	1.0	235.4192123413086	0.0999748706817627
37	178.90144801139832	fix_pre	0		120	35.0	2.5	/experiments/knapen_AOT/AOT_stimuli/rescaled_final/1230_fw.mp4	0.0	235.51918721199036	1.0001561641693115
37	179.90160417556763	movie	1		243	35.0	2.5	/experiments/knapen_AOT/AOT_stimuli/rescaled_final/1230_fw.mp4	0.0	236.51934337615967	2.4920380115509033
37	180.28569197654724	pulse	1	t		35.0	2.5	/experiments/knapen_AOT/AOT_stimuli/rescaled_final/1230_fw.mp4	0.0	236.90343117713928	
37	181.88540697097778	pulse	1	t		35.0	2.5	/experiments/knapen_AOT/AOT_stimuli/rescaled_final/1230_fw.mp4	0.0	238.50314617156982	
37	182.39364218711853	fix_post	2		12	35.0	2.5	/experiments/knapen_AOT/AOT_stimuli/rescaled_final/1230_fw.mp4	0.0	239.01138138771057	0.10001587867736816
38	182.4936580657959	fix_pre	0		120	36.0	2.5	/experiments/knapen_AOT/AOT_stimuli/rescaled_final/1963_fw.mp4	0.0	239.11139726638794	1.000157117843628
38	183.4857041835785	pulse	0	t		36.0	2.5	/experiments/knapen_AOT/AOT_stimuli/rescaled_final/1963_fw.mp4	0.0	240.10344338417053	
38	183.49381518363953	movie	1		244	36.0	2.5	/experiments/knapen_AOT/AOT_stimuli/rescaled_final/1963_fw.mp4	0.0	240.11155438423157	2.5087358951568604
38	185.08710503578186	pulse	1	t		36.0	2.5	/experiments/knapen_AOT/AOT_stimuli/rescaled_final/1963_fw.mp4	0.0	241.7048442363739	
38	186.0025510787964	fix_post	2		12	36.0	2.5	/experiments/knapen_AOT/AOT_stimuli/rescaled_final/1963_fw.mp4	0.0	242.62029027938843	0.0999460220336914
39	186.10249710083008	fix_pre	0		120	37.0	2.5	/experiments/knapen_AOT/AOT_stimuli/rescaled_final/1766_rv.mp4	0.0	242.72023630142212	1.0001790523529053
39	186.67871117591858	pulse	0	t		37.0	2.5	/experiments/knapen_AOT/AOT_stimuli/rescaled_final/1766_rv.mp4	0.0	243.29645037651062	
39	187.10267615318298	movie	1		243	37.0	2.5	/experiments/knapen_AOT/AOT_stimuli/rescaled_final/1766_rv.mp4	0.0	243.72041535377502	2.5005099773406982
39	188.27866506576538	pulse	1	t		37.0	2.5	/experiments/knapen_AOT/AOT_stimuli/rescaled_final/1766_rv.mp4	0.0	244.89640426635742	
39	189.60318613052368	fix_post	2		12	37.0	2.5	/experiments/knapen_AOT/AOT_stimuli/rescaled_final/1766_rv.mp4	0.0	246.22092533111572	0.09993505477905273
40	189.70312118530273	fix_pre	0		120	38.0	2.5	/experiments/knapen_AOT/AOT_stimuli/rescaled_final/0021_fw.mp4	0.0	246.32086038589478	1.0001089572906494
40	189.87899708747864	pulse	0	t		38.0	2.5	/experiments/knapen_AOT/AOT_stimuli/rescaled_final/0021_fw.mp4	0.0	246.49673628807068	
40	190.70323014259338	movie	1		244	38.0	2.5	/experiments/knapen_AOT/AOT_stimuli/rescaled_final/0021_fw.mp4	0.0	247.32096934318542	2.500337839126587
40	191.47942399978638	pulse	1	t		38.0	2.5	/experiments/knapen_AOT/AOT_stimuli/rescaled_final/0021_fw.mp4	0.0	248.09716320037842	
40	193.08706903457642	pulse	1	t		38.0	2.5	/experiments/knapen_AOT/AOT_stimuli/rescaled_final/0021_fw.mp4	0.0	249.70480823516846	
40	193.20356798171997	fix_post	2		12	38.0	2.5	/experiments/knapen_AOT/AOT_stimuli/rescaled_final/0021_fw.mp4	0.0	249.821307182312	0.10003113746643066
41	193.3035991191864	fix_pre	0		120	39.0	2.5	/experiments/knapen_AOT/AOT_stimuli/rescaled_final/0246_rv.mp4	0.0	249.92133831977844	1.0001320838928223
41	194.30373120307922	movie	1		242	39.0	2.5	/experiments/knapen_AOT/AOT_stimuli/rescaled_final/0246_rv.mp4	0.0	250.92147040367126	2.492234945297241
41	194.67895007133484	pulse	1	t		39.0	2.5	/experiments/knapen_AOT/AOT_stimuli/rescaled_final/0246_rv.mp4	0.0	251.29668927192688	
41	196.27926516532898	pulse	1	t		39.0	2.5	/experiments/knapen_AOT/AOT_stimuli/rescaled_final/0246_rv.mp4	0.0	252.89700436592102	
41	196.79596614837646	fix_post	2		12	39.0	2.5	/experiments/knapen_AOT/AOT_stimuli/rescaled_final/0246_rv.mp4	0.0	253.4137053489685	0.09992003440856934
42	196.89588618278503	fix_pre	0		119	40.0	2.5	/experiments/knapen_AOT/AOT_stimuli/rescaled_final/0933_fw.mp4	0.0	253.51362538337708	0.9917478561401367
42	197.8795042037964	pulse	0	t		40.0	2.5	/experiments/knapen_AOT/AOT_stimuli/rescaled_final/0933_fw.mp4	0.0	254.49724340438843	
42	197.88763403892517	movie	1		244	40.0	2.5	/experiments/knapen_AOT/AOT_stimuli/rescaled_final/0933_fw.mp4	0.0	254.5053732395172	2.50872802734375
42	199.4803340435028	pulse	1	t		40.0	2.5	/experiments/knapen_AOT/AOT_stimuli/rescaled_final/0933_fw.mp4	0.0	256.09807324409485	
42	200.39636206626892	fix_post	2		12	40.0	2.5	/experiments/knapen_AOT/AOT_stimuli/rescaled_final/0933_fw.mp4	0.0	257.01410126686096	0.10000395774841309
43	200.49636602401733	fix_pre	0		120	41.0	2.5	blank	1.0	257.1141052246094	1.0001449584960938
43	201.0799720287323	pulse	0	t		41.0	2.5	blank	1.0	257.69771122932434	
43	201.49651098251343	movie	1		300	41.0	2.5	blank	1.0	258.11425018310547	2.5003859996795654
43	202.6801791191101	pulse	1	t		41.0	2.5	blank	1.0	259.29791831970215	
43	203.996896982193	fix_post	2		12	41.0	2.5	blank	1.0	260.61463618278503	0.10003900527954102
44	204.09693598747253	fix_pre	0		120	42.0	2.5	/experiments/knapen_AOT/AOT_stimuli/rescaled_final/1256_rv.mp4	0.0	260.7146751880646	1.0001070499420166
44	204.28045415878296	pulse	0	t		42.0	2.5	/experiments/knapen_AOT/AOT_stimuli/rescaled_final/1256_rv.mp4	0.0	260.898193359375	
44	205.09704303741455	movie	1		244	42.0	2.5	/experiments/knapen_AOT/AOT_stimuli/rescaled_final/1256_rv.mp4	0.0	261.7147822380066	2.5003321170806885
44	205.8807201385498	pulse	1	t		42.0	2.5	/experiments/knapen_AOT/AOT_stimuli/rescaled_final/1256_rv.mp4	0.0	262.49845933914185	
44	207.48120999336243	pulse	1	t		42.0	2.5	/experiments/knapen_AOT/AOT_stimuli/rescaled_final/1256_rv.mp4	0.0	264.09894919395447	
44	207.59737515449524	fix_post	2		12	42.0	2.5	/experiments/knapen_AOT/AOT_stimuli/rescaled_final/1256_rv.mp4	0.0	264.2151143550873	0.10003900527954102
45	207.69741415977478	fix_pre	0		120	43.0	2.5	/experiments/knapen_AOT/AOT_stimuli/rescaled_final/1519_rv.mp4	0.0	264.3151533603668	1.0002188682556152
45	208.6976330280304	movie	1		241	43.0	2.5	/experiments/knapen_AOT/AOT_stimuli/rescaled_final/1519_rv.mp4	0.0	265.31537222862244	2.492100954055786
45	209.08187198638916	pulse	1	t		43.0	2.5	/experiments/knapen_AOT/AOT_stimuli/rescaled_final/1519_rv.mp4	0.0	265.6996111869812	
45	210.6813941001892	pulse	1	t		43.0	2.5	/experiments/knapen_AOT/AOT_stimuli/rescaled_final/1519_rv.mp4	0.0	267.29913330078125	
45	211.18973398208618	fix_post	2		12	43.0	2.5	/experiments/knapen_AOT/AOT_stimuli/rescaled_final/1519_rv.mp4	0.0	267.8074731826782	0.09991717338562012
46	211.2896511554718	fix_pre	0		118	44.0	2.5	/experiments/knapen_AOT/AOT_stimuli/rescaled_final/0469_rv.mp4	0.0	267.90739035606384	1.000087022781372
46	212.28172206878662	pulse	0	t		44.0	2.5	/experiments/knapen_AOT/AOT_stimuli/rescaled_final/0469_rv.mp4	0.0	268.89946126937866	
46	212.28973817825317	movie	1		243	44.0	2.5	/experiments/knapen_AOT/AOT_stimuli/rescaled_final/0469_rv.mp4	0.0	268.9074773788452	2.508920907974243
46	213.88668417930603	pulse	1	t		44.0	2.5	/experiments/knapen_AOT/AOT_stimuli/rescaled_final/0469_rv.mp4	0.0	270.50442337989807	
46	214.79865908622742	fix_post	2		12	44.0	2.5	/experiments/knapen_AOT/AOT_stimuli/rescaled_final/0469_rv.mp4	0.0	271.41639828681946	0.09987807273864746
47	214.89853715896606	fix_pre	0		120	45.0	2.5	/experiments/knapen_AOT/AOT_stimuli/rescaled_final/1219_fw.mp4	0.0	271.5162763595581	1.0001068115234375
47	215.48208713531494	pulse	0	t		45.0	2.5	/experiments/knapen_AOT/AOT_stimuli/rescaled_final/1219_fw.mp4	0.0	272.099826335907	
47	215.8986439704895	movie	1		243	45.0	2.5	/experiments/knapen_AOT/AOT_stimuli/rescaled_final/1219_fw.mp4	0.0	272.51638317108154	2.5003511905670166
47	217.08244705200195	pulse	1	t		45.0	2.5	/experiments/knapen_AOT/AOT_stimuli/rescaled_final/1219_fw.mp4	0.0	273.700186252594	
47	218.39899516105652	fix_post	2		12	45.0	2.5	/experiments/knapen_AOT/AOT_stimuli/rescaled_final/1219_fw.mp4	0.0	275.01673436164856	0.10004186630249023
48	218.499037027359	fix_pre	0		120	46.0	2.5	/experiments/knapen_AOT/AOT_stimuli/rescaled_final/1852_fw.mp4	0.0	275.11677622795105	1.0001230239868164
48	218.6827311515808	pulse	0	t		46.0	2.5	/experiments/knapen_AOT/AOT_stimuli/rescaled_final/1852_fw.mp4	0.0	275.30047035217285	
48	219.49916005134583	movie	1		243	46.0	2.5	/experiments/knapen_AOT/AOT_stimuli/rescaled_final/1852_fw.mp4	0.0	276.11689925193787	2.5004420280456543
48	220.28292107582092	pulse	1	t		46.0	2.5	/experiments/knapen_AOT/AOT_stimuli/rescaled_final/1852_fw.mp4	0.0	276.90066027641296	
48	221.88301420211792	pulse	1	t		46.0	2.5	/experiments/knapen_AOT/AOT_stimuli/rescaled_final/1852_fw.mp4	0.0	278.50075340270996	
48	221.99960207939148	fix_post	2		12	46.0	2.5	/experiments/knapen_AOT/AOT_stimuli/rescaled_final/1852_fw.mp4	0.0	278.6173412799835	0.09998703002929688
49	222.09958910942078	fix_pre	0		120	47.0	2.5	blank	1.0	278.7173283100128	1.0001189708709717
49	223.09970808029175	movie	1		299	47.0	2.5	blank	1.0	279.7174472808838	2.492098093032837
49	223.4832479953766	pulse	1	t		47.0	2.5	blank	1.0	280.1009871959686	
49	225.08365297317505	pulse	1	t		47.0	2.5	blank	1.0	281.7013921737671	
49	225.59180617332458	fix_post	2		12	47.0	2.5	blank	1.0	282.2095453739166	0.09997701644897461
50	225.69178318977356	fix_pre	0		120	48.0	2.5	/experiments/knapen_AOT/AOT_stimuli/rescaled_final/2015_rv.mp4	0.0	282.3095223903656	1.000121831893921
50	226.6838891506195	pulse	0	t		48.0	2.5	/experiments/knapen_AOT/AOT_stimuli/rescaled_final/2015_rv.mp4	0.0	283.30162835121155	
50	226.69190502166748	movie	1		243	48.0	2.5	/experiments/knapen_AOT/AOT_stimuli/rescaled_final/2015_rv.mp4	0.0	283.3096442222595	2.508780002593994
50	228.284588098526	pulse	1	t		48.0	2.5	/experiments/knapen_AOT/AOT_stimuli/rescaled_final/2015_rv.mp4	0.0	284.90232729911804	
50	229.20068502426147	fix_post	2		12	48.0	2.5	/experiments/knapen_AOT/AOT_stimuli/rescaled_final/2015_rv.mp4	0.0	285.8184242248535	0.10002303123474121
51	229.30070805549622	fix_pre	0		120	49.0	2.5	/experiments/knapen_AOT/AOT_stimuli/rescaled_final/0041_rv.mp4	0.0	285.91844725608826	1.000049114227295
51	229.8841769695282	pulse	0	t		49.0	2.5	/experiments/knapen_AOT/AOT_stimuli/rescaled_final/0041_rv.mp4	0.0	286.50191617012024	
51	230.3007571697235	movie	1		244	49.0	2.5	/experiments/knapen_AOT/AOT_stimuli/rescaled_final/0041_rv.mp4	0.0	286.91849637031555	2.5003809928894043
51	231.48453617095947	pulse	1	t		49.0	2.5	/experiments/knapen_AOT/AOT_stimuli/rescaled_final/0041_rv.mp4	0.0	288.1022753715515	
51	232.80113816261292	fix_post	2		12	49.0	2.5	/experiments/knapen_AOT/AOT_stimuli/rescaled_final/0041_rv.mp4	0.0	289.41887736320496	0.1000208854675293
52	232.90115904808044	fix_pre	0		120	50.0	2.5	/experiments/knapen_AOT/AOT_stimuli/rescaled_final/1854_fw.mp4	0.0	289.5188982486725	1.000175952911377
52	233.0848250389099	pulse	0	t		50.0	2.5	/experiments/knapen_AOT/AOT_stimuli/rescaled_final/1854_fw.mp4	0.0	289.70256423950195	
52	233.90133500099182	movie	1		242	50.0	2.5	/experiments/knapen_AOT/AOT_stimuli/rescaled_final/1854_fw.mp4	0.0	290.51907420158386	2.500575065612793
52	234.68505716323853	pulse	1	t		50.0	2.5	/experiments/knapen_AOT/AOT_stimuli/rescaled_final/1854_fw.mp4	0.0	291.30279636383057	
52	236.28507900238037	pulse	1	t		50.0	2.5	/experiments/knapen_AOT/AOT_stimuli/rescaled_final/1854_fw.mp4	0.0	292.9028182029724	
52	236.40191006660461	fix_post	2		12	50.0	2.5	/experiments/knapen_AOT/AOT_stimuli/rescaled_final/1854_fw.mp4	0.0	293.01964926719666	0.09981513023376465
53	236.50172519683838	fix_pre	0		120	51.0	2.5	/experiments/knapen_AOT/AOT_stimuli/rescaled_final/1557_rv.mp4	0.0	293.1194643974304	1.000126838684082
53	237.50185203552246	movie	1		242	51.0	2.5	/experiments/knapen_AOT/AOT_stimuli/rescaled_final/1557_rv.mp4	0.0	294.1195912361145	2.4922261238098145
53	237.8860251903534	pulse	1	t		51.0	2.5	/experiments/knapen_AOT/AOT_stimuli/rescaled_final/1557_rv.mp4	0.0	294.50376439094543	
53	239.47837710380554	pulse	1	t		51.0	2.5	/experiments/knapen_AOT/AOT_stimuli/rescaled_final/1557_rv.mp4	0.0	296.0961163043976	
53	239.99407815933228	fix_post	2		12	51.0	2.5	/experiments/knapen_AOT/AOT_stimuli/rescaled_final/1557_rv.mp4	0.0	296.6118173599243	0.09987592697143555
54	240.0939540863037	fix_pre	0		120	52.0	2.5	/experiments/knapen_AOT/AOT_stimuli/rescaled_final/1144_fw.mp4	0.0	296.71169328689575	1.0000810623168945
54	241.07847213745117	pulse	0	t		52.0	2.5	/experiments/knapen_AOT/AOT_stimuli/rescaled_final/1144_fw.mp4	0.0	297.6962113380432	
54	241.0940351486206	movie	1		243	52.0	2.5	/experiments/knapen_AOT/AOT_stimuli/rescaled_final/1144_fw.mp4	0.0	297.71177434921265	2.5087809562683105
54	242.68747305870056	pulse	1	t		52.0	2.5	/experiments/knapen_AOT/AOT_stimuli/rescaled_final/1144_fw.mp4	0.0	299.3052122592926	
54	243.60281610488892	fix_post	2		12	52.0	2.5	/experiments/knapen_AOT/AOT_stimuli/rescaled_final/1144_fw.mp4	0.0	300.22055530548096	0.10000205039978027
55	243.7028181552887	fix_pre	0		120	53.0	2.5	/experiments/knapen_AOT/AOT_stimuli/rescaled_final/1840_rv.mp4	0.0	300.32055735588074	1.0001449584960938
55	244.2789340019226	pulse	0	t		53.0	2.5	/experiments/knapen_AOT/AOT_stimuli/rescaled_final/1840_rv.mp4	0.0	300.89667320251465	
55	244.7029631137848	movie	1		242	53.0	2.5	/experiments/knapen_AOT/AOT_stimuli/rescaled_final/1840_rv.mp4	0.0	301.32070231437683	2.50049090385437
55	245.87932920455933	pulse	1	t		53.0	2.5	/experiments/knapen_AOT/AOT_stimuli/rescaled_final/1840_rv.mp4	0.0	302.49706840515137	
55	247.20345401763916	fix_post	2		12	53.0	2.5	/experiments/knapen_AOT/AOT_stimuli/rescaled_final/1840_rv.mp4	0.0	303.8211932182312	0.09986305236816406
56	247.30331707000732	fix_pre	0		120	54.0	2.5	/experiments/knapen_AOT/AOT_stimuli/rescaled_final/2000_rv.mp4	0.0	303.92105627059937	1.0001440048217773
56	247.47846603393555	pulse	0	t		54.0	2.5	/experiments/knapen_AOT/AOT_stimuli/rescaled_final/2000_rv.mp4	0.0	304.0962052345276	
56	248.3034610748291	movie	1		242	54.0	2.5	/experiments/knapen_AOT/AOT_stimuli/rescaled_final/2000_rv.mp4	0.0	304.92120027542114	2.5005950927734375
56	249.07879400253296	pulse	1	t		54.0	2.5	/experiments/knapen_AOT/AOT_stimuli/rescaled_final/2000_rv.mp4	0.0	305.696533203125	
56	250.67912411689758	pulse	1	t		54.0	2.5	/experiments/knapen_AOT/AOT_stimuli/rescaled_final/2000_rv.mp4	0.0	307.2968633174896	
56	250.80405616760254	fix_post	2		12	54.0	2.5	/experiments/knapen_AOT/AOT_stimuli/rescaled_final/2000_rv.mp4	0.0	307.4217953681946	0.0998239517211914
57	250.90388011932373	fix_pre	0		119	55.0	2.5	/experiments/knapen_AOT/AOT_stimuli/rescaled_final/1132_fw.mp4	0.0	307.52161931991577	0.991811990737915
57	251.89569211006165	movie	1		244	55.0	2.5	/experiments/knapen_AOT/AOT_stimuli/rescaled_final/1132_fw.mp4	0.0	308.5134313106537	2.5003528594970703
57	252.28014612197876	pulse	1	t		55.0	2.5	/experiments/knapen_AOT/AOT_stimuli/rescaled_final/1132_fw.mp4	0.0	308.8978853225708	
57	253.8795521259308	pulse	1	t		55.0	2.5	/experiments/knapen_AOT/AOT_stimuli/rescaled_final/1132_fw.mp4	0.0	310.4972913265228	
57	254.39604496955872	fix_post	2		12	55.0	2.5	/experiments/knapen_AOT/AOT_stimuli/rescaled_final/1132_fw.mp4	0.0	311.01378417015076	0.1000051498413086
58	254.49605011940002	fix_pre	0		119	56.0	2.5	blank	1.0	311.11378931999207	0.991826057434082
58	255.4797911643982	pulse	0	t		56.0	2.5	blank	1.0	312.09753036499023	
58	255.4878761768341	movie	1		301	56.0	2.5	blank	1.0	312.10561537742615	2.5087478160858154
58	257.08000802993774	pulse	1	t		56.0	2.5	blank	1.0	313.6977472305298	
58	257.9966239929199	fix_post	2		12	56.0	2.5	blank	1.0	314.61436319351196	0.09995698928833008
59	258.09658098220825	fix_pre	0		120	57.0	2.5	/experiments/knapen_AOT/AOT_stimuli/rescaled_final/2139_rv.mp4	0.0	314.7143201828003	1.000143051147461
59	258.68023204803467	pulse	0	t		57.0	2.5	/experiments/knapen_AOT/AOT_stimuli/rescaled_final/2139_rv.mp4	0.0	315.2979712486267	
59	259.0967240333557	movie	1		243	57.0	2.5	/experiments/knapen_AOT/AOT_stimuli/rescaled_final/2139_rv.mp4	0.0	315.71446323394775	2.5005390644073486
59	260.2804980278015	pulse	1	t		57.0	2.5	/experiments/knapen_AOT/AOT_stimuli/rescaled_final/2139_rv.mp4	0.0	316.89823722839355	
59	261.59726309776306	fix_post	2		12	57.0	2.5	/experiments/knapen_AOT/AOT_stimuli/rescaled_final/2139_rv.mp4	0.0	318.2150022983551	0.09986209869384766
60	261.6971251964569	fix_pre	0		120	58.0	2.5	/experiments/knapen_AOT/AOT_stimuli/rescaled_final/1492_rv.mp4	0.0	318.31486439704895	1.000175952911377
60	261.8807990550995	pulse	0	t		58.0	2.5	/experiments/knapen_AOT/AOT_stimuli/rescaled_final/1492_rv.mp4	0.0	318.4985382556915	
60	262.6973011493683	movie	1		243	58.0	2.5	/experiments/knapen_AOT/AOT_stimuli/rescaled_final/1492_rv.mp4	0.0	319.3150403499603	2.5005500316619873
60	263.48095512390137	pulse	1	t		58.0	2.5	/experiments/knapen_AOT/AOT_stimuli/rescaled_final/1492_rv.mp4	0.0	320.0986943244934	
60	265.0811080932617	pulse	1	t		58.0	2.5	/experiments/knapen_AOT/AOT_stimuli/rescaled_final/1492_rv.mp4	0.0	321.69884729385376	
60	265.1978511810303	fix_post	2		12	58.0	2.5	/experiments/knapen_AOT/AOT_stimuli/rescaled_final/1492_rv.mp4	0.0	321.8155903816223	0.09987783432006836
61	265.29772901535034	fix_pre	0		120	59.0	2.5	/experiments/knapen_AOT/AOT_stimuli/rescaled_final/0226_rv.mp4	0.0	321.9154682159424	1.0001041889190674
61	266.2978332042694	movie	1		242	59.0	2.5	/experiments/knapen_AOT/AOT_stimuli/rescaled_final/0226_rv.mp4	0.0	322.91557240486145	2.492285966873169
61	266.6819221973419	pulse	1	t		59.0	2.5	/experiments/knapen_AOT/AOT_stimuli/rescaled_final/0226_rv.mp4	0.0	323.29966139793396	
61	268.2816710472107	pulse	1	t		59.0	2.5	/experiments/knapen_AOT/AOT_stimuli/rescaled_final/0226_rv.mp4	0.0	324.89941024780273	
61	268.7901191711426	fix_post	2		12	59.0	2.5	/experiments/knapen_AOT/AOT_stimuli/rescaled_final/0226_rv.mp4	0.0	325.4078583717346	0.09975481033325195
62	268.88987398147583	fix_pre	0		120	60.0	2.5	/experiments/knapen_AOT/AOT_stimuli/rescaled_final/0716_rv.mp4	0.0	325.50761318206787	1.000143051147461
62	269.8818850517273	pulse	0	t		60.0	2.5	/experiments/knapen_AOT/AOT_stimuli/rescaled_final/0716_rv.mp4	0.0	326.49962425231934	
62	269.8900170326233	movie	1		243	60.0	2.5	/experiments/knapen_AOT/AOT_stimuli/rescaled_final/0716_rv.mp4	0.0	326.50775623321533	2.508759021759033
62	271.48293805122375	pulse	1	t		60.0	2.5	/experiments/knapen_AOT/AOT_stimuli/rescaled_final/0716_rv.mp4	0.0	328.1006772518158	
62	272.3987760543823	fix_post	2		12	60.0	2.5	/experiments/knapen_AOT/AOT_stimuli/rescaled_final/0716_rv.mp4	0.0	329.01651525497437	0.1000521183013916
63	272.4988281726837	fix_pre	0		120	61.0	2.5	/experiments/knapen_AOT/AOT_stimuli/rescaled_final/0630_rv.mp4	0.0	329.11656737327576	1.000065803527832
63	273.0823709964752	pulse	0	t		61.0	2.5	/experiments/knapen_AOT/AOT_stimuli/rescaled_final/0630_rv.mp4	0.0	329.70011019706726	
63	273.49889397621155	movie	1		243	61.0	2.5	/experiments/knapen_AOT/AOT_stimuli/rescaled_final/0630_rv.mp4	0.0	330.1166331768036	2.500349998474121
63	274.68270111083984	pulse	1	t		61.0	2.5	/experiments/knapen_AOT/AOT_stimuli/rescaled_final/0630_rv.mp4	0.0	331.3004403114319	
63	275.99924397468567	fix_post	2		12	61.0	2.5	/experiments/knapen_AOT/AOT_stimuli/rescaled_final/0630_rv.mp4	0.0	332.6169831752777	0.10002803802490234
64	276.09927201271057	fix_pre	0		120	62.0	2.5	blank	1.0	332.7170112133026	1.0001740455627441
64	276.2828440666199	pulse	0	t		62.0	2.5	blank	1.0	332.9005832672119	
64	277.0994460582733	movie	1		300	62.0	2.5	blank	1.0	333.71718525886536	2.5003581047058105
64	277.883180141449	pulse	1	t		62.0	2.5	blank	1.0	334.500919342041	
64	279.4832580089569	pulse	1	t		62.0	2.5	blank	1.0	336.10099720954895	
64	279.5998041629791	fix_post	2		12	62.0	2.5	blank	1.0	336.21754336357117	0.10001683235168457
65	279.6998209953308	fix_pre	0		120	63.0	2.5	/experiments/knapen_AOT/AOT_stimuli/rescaled_final/2156_rv.mp4	0.0	336.31756019592285	1.000209093093872
65	280.7000300884247	movie	1		243	63.0	2.5	/experiments/knapen_AOT/AOT_stimuli/rescaled_final/2156_rv.mp4	0.0	337.3177692890167	2.4919660091400146
65	281.08503007888794	pulse	1	t		63.0	2.5	/experiments/knapen_AOT/AOT_stimuli/rescaled_final/2156_rv.mp4	0.0	337.70276927948	
65	282.683776140213	pulse	1	t		63.0	2.5	/experiments/knapen_AOT/AOT_stimuli/rescaled_final/2156_rv.mp4	0.0	339.30151534080505	
65	283.1919960975647	fix_post	2		12	63.0	2.5	/experiments/knapen_AOT/AOT_stimuli/rescaled_final/2156_rv.mp4	0.0	339.80973529815674	0.10003495216369629
66	283.2920310497284	fix_pre	0		120	64.0	2.5	/experiments/knapen_AOT/AOT_stimuli/rescaled_final/0200_fw.mp4	0.0	339.90977025032043	1.0001399517059326
66	284.28411197662354	pulse	0	t		64.0	2.5	/experiments/knapen_AOT/AOT_stimuli/rescaled_final/0200_fw.mp4	0.0	340.9018511772156	
66	284.2921710014343	movie	1		247	64.0	2.5	/experiments/knapen_AOT/AOT_stimuli/rescaled_final/0200_fw.mp4	0.0	340.90991020202637	2.508761167526245
66	285.88494515419006	pulse	1	t		64.0	2.5	/experiments/knapen_AOT/AOT_stimuli/rescaled_final/0200_fw.mp4	0.0	342.5026843547821	
66	286.80093216896057	fix_post	2		8	64.0	2.5	/experiments/knapen_AOT/AOT_stimuli/rescaled_final/0200_fw.mp4	0.0	343.4186713695526	0.1000208854675293
67	286.9009530544281	fix_pre	0		120	65.0	2.5	/experiments/knapen_AOT/AOT_stimuli/rescaled_final/1788_rv.mp4	0.0	343.51869225502014	1.0000779628753662
67	287.4845471382141	pulse	0	t		65.0	2.5	/experiments/knapen_AOT/AOT_stimuli/rescaled_final/1788_rv.mp4	0.0	344.10228633880615	
67	287.90103101730347	movie	1		243	65.0	2.5	/experiments/knapen_AOT/AOT_stimuli/rescaled_final/1788_rv.mp4	0.0	344.5187702178955	2.5003650188446045
67	289.0813241004944	pulse	1	t		65.0	2.5	/experiments/knapen_AOT/AOT_stimuli/rescaled_final/1788_rv.mp4	0.0	345.6990633010864	
67	290.40139603614807	fix_post	2		12	65.0	2.5	/experiments/knapen_AOT/AOT_stimuli/rescaled_final/1788_rv.mp4	0.0	347.0191352367401	0.10001206398010254
68	290.5014081001282	fix_pre	0		120	66.0	2.5	/experiments/knapen_AOT/AOT_stimuli/rescaled_final/0866_rv.mp4	0.0	347.1191473007202	1.0001599788665771
68	290.6849801540375	pulse	0	t		66.0	2.5	/experiments/knapen_AOT/AOT_stimuli/rescaled_final/0866_rv.mp4	0.0	347.3027193546295	
68	291.50156807899475	movie	1		242	66.0	2.5	/experiments/knapen_AOT/AOT_stimuli/rescaled_final/0866_rv.mp4	0.0	348.1193072795868	2.5005600452423096
68	292.28522300720215	pulse	1	t		66.0	2.5	/experiments/knapen_AOT/AOT_stimuli/rescaled_final/0866_rv.mp4	0.0	348.9029622077942	
68	293.8854250907898	pulse	1	t		66.0	2.5	/experiments/knapen_AOT/AOT_stimuli/rescaled_final/0866_rv.mp4	0.0	350.50316429138184	
68	294.00212812423706	fix_post	2		12	66.0	2.5	/experiments/knapen_AOT/AOT_stimuli/rescaled_final/0866_rv.mp4	0.0	350.6198673248291	0.09982800483703613
69	294.1019561290741	fix_pre	0		120	67.0	2.5	/experiments/knapen_AOT/AOT_stimuli/rescaled_final/0820_fw.mp4	0.0	350.71969532966614	1.000187873840332
69	295.10214400291443	movie	1		241	67.0	2.5	/experiments/knapen_AOT/AOT_stimuli/rescaled_final/0820_fw.mp4	0.0	351.71988320350647	2.4920551776885986
69	295.4863040447235	pulse	1	t		67.0	2.5	/experiments/knapen_AOT/AOT_stimuli/rescaled_final/0820_fw.mp4	0.0	352.10404324531555	
69	297.0859282016754	pulse	1	t		67.0	2.5	/experiments/knapen_AOT/AOT_stimuli/rescaled_final/0820_fw.mp4	0.0	353.70366740226746	
69	297.594199180603	fix_post	2		12	67.0	2.5	/experiments/knapen_AOT/AOT_stimuli/rescaled_final/0820_fw.mp4	0.0	354.21193838119507	0.09998083114624023
70	297.69418001174927	fix_pre	0		120	68.0	2.5	/experiments/knapen_AOT/AOT_stimuli/rescaled_final/0403_rv.mp4	0.0	354.3119192123413	1.000204086303711
70	298.67866706848145	pulse	0	t		68.0	2.5	/experiments/knapen_AOT/AOT_stimuli/rescaled_final/0403_rv.mp4	0.0	355.2964062690735	
70	298.694384098053	movie	1		243	68.0	2.5	/experiments/knapen_AOT/AOT_stimuli/rescaled_final/0403_rv.mp4	0.0	355.312123298645	2.5086848735809326
70	300.28701400756836	pulse	1	t		68.0	2.5	/experiments/knapen_AOT/AOT_stimuli/rescaled_final/0403_rv.mp4	0.0	356.9047532081604	
70	301.2030689716339	fix_post	2		12	68.0	2.5	/experiments/knapen_AOT/AOT_stimuli/rescaled_final/0403_rv.mp4	0.0	357.82080817222595	0.09997105598449707
71	301.3030400276184	fix_pre	0		120	69.0	2.5	blank	1.0	357.92077922821045	1.0001301765441895
71	301.87826013565063	pulse	0	t		69.0	2.5	blank	1.0	358.4959993362427	
71	302.3031702041626	movie	1		300	69.0	2.5	blank	1.0	358.92090940475464	2.500480890274048
71	303.47944617271423	pulse	1	t		69.0	2.5	blank	1.0	360.0971853733063	
71	304.80365109443665	fix_post	2		12	69.0	2.5	blank	1.0	361.4213902950287	0.09992289543151855
72	304.90357398986816	fix_pre	0		120	70.0	2.5	/experiments/knapen_AOT/AOT_stimuli/rescaled_final/1236_fw.mp4	0.0	361.5213131904602	1.0001721382141113
72	305.07888102531433	pulse	0	t		70.0	2.5	/experiments/knapen_AOT/AOT_stimuli/rescaled_final/1236_fw.mp4	0.0	361.6966202259064	
72	305.9037461280823	movie	1		241	70.0	2.5	/experiments/knapen_AOT/AOT_stimuli/rescaled_final/1236_fw.mp4	0.0	362.5214853286743	2.4920690059661865
72	306.6790289878845	pulse	1	t		70.0	2.5	/experiments/knapen_AOT/AOT_stimuli/rescaled_final/1236_fw.mp4	0.0	363.29676818847656	
72	308.2792069911957	pulse	1	t		70.0	2.5	/experiments/knapen_AOT/AOT_stimuli/rescaled_final/1236_fw.mp4	0.0	364.8969461917877	
72	308.39581513404846	fix_post	2		12	70.0	2.5	/experiments/knapen_AOT/AOT_stimuli/rescaled_final/1236_fw.mp4	0.0	365.0135543346405	0.09994792938232422
73	308.4957630634308	fix_pre	0		120	71.0	2.5	/experiments/knapen_AOT/AOT_stimuli/rescaled_final/1476_fw.mp4	0.0	365.1135022640228	1.0001599788665771
73	309.49592304229736	movie	1		243	71.0	2.5	/experiments/knapen_AOT/AOT_stimuli/rescaled_final/1476_fw.mp4	0.0	366.1136622428894	2.5003819465637207
73	309.8847379684448	pulse	1	t		71.0	2.5	/experiments/knapen_AOT/AOT_stimuli/rescaled_final/1476_fw.mp4	0.0	366.50247716903687	
73	311.47975397109985	pulse	1	t		71.0	2.5	/experiments/knapen_AOT/AOT_stimuli/rescaled_final/1476_fw.mp4	0.0	368.0974931716919	
73	311.9963049888611	fix_post	2		12	71.0	2.5	/experiments/knapen_AOT/AOT_stimuli/rescaled_final/1476_fw.mp4	0.0	368.6140441894531	0.09998917579650879
74	312.0962941646576	fix_pre	0		119	72.0	2.5	/experiments/knapen_AOT/AOT_stimuli/rescaled_final/1164_fw.mp4	0.0	368.71403336524963	0.9918379783630371
74	313.08000206947327	pulse	0	t		72.0	2.5	/experiments/knapen_AOT/AOT_stimuli/rescaled_final/1164_fw.mp4	0.0	369.6977412700653	
74	313.08813214302063	movie	1		244	72.0	2.5	/experiments/knapen_AOT/AOT_stimuli/rescaled_final/1164_fw.mp4	0.0	369.70587134361267	2.5087928771972656
74	314.6808340549469	pulse	1	t		72.0	2.5	/experiments/knapen_AOT/AOT_stimuli/rescaled_final/1164_fw.mp4	0.0	371.29857325553894	
74	315.5969250202179	fix_post	2		12	72.0	2.5	/experiments/knapen_AOT/AOT_stimuli/rescaled_final/1164_fw.mp4	0.0	372.21466422080994	0.09990596771240234
75	315.6968309879303	fix_pre	0		120	73.0	2.5	/experiments/knapen_AOT/AOT_stimuli/rescaled_final/0881_fw.mp4	0.0	372.31457018852234	1.000162124633789
75	316.2805230617523	pulse	0	t		73.0	2.5	/experiments/knapen_AOT/AOT_stimuli/rescaled_final/0881_fw.mp4	0.0	372.89826226234436	
75	316.6969931125641	movie	1		245	73.0	2.5	/experiments/knapen_AOT/AOT_stimuli/rescaled_final/0881_fw.mp4	0.0	373.3147323131561	2.5004019737243652
75	317.880912065506	pulse	1	t		73.0	2.5	/experiments/knapen_AOT/AOT_stimuli/rescaled_final/0881_fw.mp4	0.0	374.498651266098	
75	319.19739508628845	fix_post	2		12	73.0	2.5	/experiments/knapen_AOT/AOT_stimuli/rescaled_final/0881_fw.mp4	0.0	375.8151342868805	0.09999608993530273
76	319.29739117622375	fix_pre	0		120	74.0	2.5	/experiments/knapen_AOT/AOT_stimuli/rescaled_final/2111_fw.mp4	0.0	375.9151303768158	1.0002210140228271
76	319.48095512390137	pulse	0	t		74.0	2.5	/experiments/knapen_AOT/AOT_stimuli/rescaled_final/2111_fw.mp4	0.0	376.0986943244934	
76	320.2976121902466	movie	1		244	74.0	2.5	/experiments/knapen_AOT/AOT_stimuli/rescaled_final/2111_fw.mp4	0.0	376.9153513908386	2.5003349781036377
76	321.0811929702759	pulse	1	t		74.0	2.5	/experiments/knapen_AOT/AOT_stimuli/rescaled_final/2111_fw.mp4	0.0	377.6989321708679	
76	322.68145203590393	pulse	1	t		74.0	2.5	/experiments/knapen_AOT/AOT_stimuli/rescaled_final/2111_fw.mp4	0.0	379.299191236496	
76	322.7979471683502	fix_post	2		12	74.0	2.5	/experiments/knapen_AOT/AOT_stimuli/rescaled_final/2111_fw.mp4	0.0	379.41568636894226	0.09997987747192383
77	322.89792704582214	fix_pre	0		119	75.0	2.5	/experiments/knapen_AOT/AOT_stimuli/rescaled_final/0931_fw.mp4	0.0	379.5156662464142	0.9918980598449707
77	323.8898251056671	movie	1		243	75.0	2.5	/experiments/knapen_AOT/AOT_stimuli/rescaled_final/0931_fw.mp4	0.0	380.50756430625916	2.500391960144043
77	324.28174901008606	pulse	1	t		75.0	2.5	/experiments/knapen_AOT/AOT_stimuli/rescaled_final/0931_fw.mp4	0.0	380.8994882106781	
77	325.8819751739502	pulse	1	t		75.0	2.5	/experiments/knapen_AOT/AOT_stimuli/rescaled_final/0931_fw.mp4	0.0	382.49971437454224	
77	326.39021706581116	fix_post	2		12	75.0	2.5	/experiments/knapen_AOT/AOT_stimuli/rescaled_final/0931_fw.mp4	0.0	383.0079562664032	0.09989190101623535
78	326.4901089668274	fix_pre	0		120	76.0	2.5	/experiments/knapen_AOT/AOT_stimuli/rescaled_final/1897_rv.mp4	0.0	383.10784816741943	1.0001580715179443
78	327.4821560382843	pulse	0	t		76.0	2.5	/experiments/knapen_AOT/AOT_stimuli/rescaled_final/1897_rv.mp4	0.0	384.09989523887634	
78	327.49026703834534	movie	1		246	76.0	2.5	/experiments/knapen_AOT/AOT_stimuli/rescaled_final/1897_rv.mp4	0.0	384.1080062389374	2.5087339878082275
78	329.0864260196686	pulse	1	t		76.0	2.5	/experiments/knapen_AOT/AOT_stimuli/rescaled_final/1897_rv.mp4	0.0	385.7041652202606	
78	329.99900102615356	fix_post	2		12	76.0	2.5	/experiments/knapen_AOT/AOT_stimuli/rescaled_final/1897_rv.mp4	0.0	386.6167402267456	0.09999704360961914
79	330.0989980697632	fix_pre	0		120	77.0	2.5	blank	1.0	386.7167372703552	1.0001521110534668
79	330.6827301979065	pulse	0	t		77.0	2.5	blank	1.0	387.30046939849854	
79	331.09915018081665	movie	1		300	77.0	2.5	blank	1.0	387.7168893814087	2.500389814376831
79	332.2829849720001	pulse	1	t		77.0	2.5	blank	1.0	388.90072417259216	
79	333.5995399951935	fix_post	2		12	77.0	2.5	blank	1.0	390.2172791957855	0.10001015663146973
80	333.69955015182495	fix_pre	0		120	78.0	2.5	/experiments/knapen_AOT/AOT_stimuli/rescaled_final/1299_rv.mp4	0.0	390.317289352417	1.000143051147461
80	333.8831579685211	pulse	0	t		78.0	2.5	/experiments/knapen_AOT/AOT_stimuli/rescaled_final/1299_rv.mp4	0.0	390.50089716911316	
80	334.6996932029724	movie	1		242	78.0	2.5	/experiments/knapen_AOT/AOT_stimuli/rescaled_final/1299_rv.mp4	0.0	391.31743240356445	2.5005059242248535
80	335.48329305648804	pulse	1	t		78.0	2.5	/experiments/knapen_AOT/AOT_stimuli/rescaled_final/1299_rv.mp4	0.0	392.1010322570801	
80	337.0834581851959	pulse	1	t		78.0	2.5	/experiments/knapen_AOT/AOT_stimuli/rescaled_final/1299_rv.mp4	0.0	393.70119738578796	
80	337.20019912719727	fix_post	2		12	78.0	2.5	/experiments/knapen_AOT/AOT_stimuli/rescaled_final/1299_rv.mp4	0.0	393.8179383277893	0.09986090660095215
81	337.3000600337982	fix_pre	0		120	79.0	2.5	/experiments/knapen_AOT/AOT_stimuli/rescaled_final/1230_rv.mp4	0.0	393.91779923439026	1.0001649856567383
81	338.30022501945496	movie	1		243	79.0	2.5	/experiments/knapen_AOT/AOT_stimuli/rescaled_final/1230_rv.mp4	0.0	394.917964220047	2.4920129776000977
81	338.6843659877777	pulse	1	t		79.0	2.5	/experiments/knapen_AOT/AOT_stimuli/rescaled_final/1230_rv.mp4	0.0	395.30210518836975	
81	340.28416109085083	pulse	1	t		79.0	2.5	/experiments/knapen_AOT/AOT_stimuli/rescaled_final/1230_rv.mp4	0.0	396.90190029144287	
81	340.79223799705505	fix_post	2		12	79.0	2.5	/experiments/knapen_AOT/AOT_stimuli/rescaled_final/1230_rv.mp4	0.0	397.4099771976471	0.10006403923034668
82	340.8923020362854	fix_pre	0		120	80.0	2.5	/experiments/knapen_AOT/AOT_stimuli/rescaled_final/1187_rv.mp4	0.0	397.51004123687744	1.000157117843628
82	341.8842360973358	pulse	0	t		80.0	2.5	/experiments/knapen_AOT/AOT_stimuli/rescaled_final/1187_rv.mp4	0.0	398.50197529792786	
82	341.892459154129	movie	1		243	80.0	2.5	/experiments/knapen_AOT/AOT_stimuli/rescaled_final/1187_rv.mp4	0.0	398.51019835472107	2.508713960647583
82	343.48510217666626	pulse	1	t		80.0	2.5	/experiments/knapen_AOT/AOT_stimuli/rescaled_final/1187_rv.mp4	0.0	400.1028413772583	
82	344.4011731147766	fix_post	2		12	80.0	2.5	/experiments/knapen_AOT/AOT_stimuli/rescaled_final/1187_rv.mp4	0.0	401.01891231536865	0.09995698928833008
83	344.50113010406494	fix_pre	0		120	81.0	2.5	/experiments/knapen_AOT/AOT_stimuli/rescaled_final/0856_rv.mp4	0.0	401.118869304657	1.0001800060272217
83	345.08490800857544	pulse	0	t		81.0	2.5	/experiments/knapen_AOT/AOT_stimuli/rescaled_final/0856_rv.mp4	0.0	401.7026472091675	
83	345.50131011009216	movie	1		242	81.0	2.5	/experiments/knapen_AOT/AOT_stimuli/rescaled_final/0856_rv.mp4	0.0	402.1190493106842	2.5005879402160645
83	346.6851921081543	pulse	1	t		81.0	2.5	/experiments/knapen_AOT/AOT_stimuli/rescaled_final/0856_rv.mp4	0.0	403.30293130874634	
83	348.0018980503082	fix_post	2		12	81.0	2.5	/experiments/knapen_AOT/AOT_stimuli/rescaled_final/0856_rv.mp4	0.0	404.61963725090027	0.09982609748840332
84	348.10172414779663	fix_pre	0		120	82.0	2.5	blank	1.0	404.7194633483887	1.0001518726348877
84	348.2852461338043	pulse	0	t		82.0	2.5	blank	1.0	404.90298533439636	
84	349.1018760204315	movie	1		300	82.0	2.5	blank	1.0	405.71961522102356	2.500375986099243
84	349.88543009757996	pulse	1	t		82.0	2.5	blank	1.0	406.503169298172	
84	351.48582220077515	pulse	1	t		82.0	2.5	blank	1.0	408.1035614013672	
84	351.60225200653076	fix_post	2		12	82.0	2.5	blank	1.0	408.2199912071228	0.09996604919433594
85	351.7022180557251	fix_pre	0		120	83.0	2.5	/experiments/knapen_AOT/AOT_stimuli/rescaled_final/1861_fw.mp4	0.0	408.31995725631714	1.0002050399780273
85	352.7024230957031	movie	1		241	83.0	2.5	/experiments/knapen_AOT/AOT_stimuli/rescaled_final/1861_fw.mp4	0.0	409.32016229629517	2.492042064666748
85	353.08712100982666	pulse	1	t		83.0	2.5	/experiments/knapen_AOT/AOT_stimuli/rescaled_final/1861_fw.mp4	0.0	409.7048602104187	
85	354.67894315719604	pulse	1	t		83.0	2.5	/experiments/knapen_AOT/AOT_stimuli/rescaled_final/1861_fw.mp4	0.0	411.2966823577881	
85	355.1944651603699	fix_post	2		10	83.0	2.5	/experiments/knapen_AOT/AOT_stimuli/rescaled_final/1861_fw.mp4	0.0	411.8122043609619	0.10000181198120117
87	355.2944669723511	stim	0		1716					411.9122061729431	14.302142143249512
87	356.27915501594543	pulse	0	t						412.8968942165375	
87	357.8792381286621	pulse	0	t						414.49697732925415	
87	359.47858905792236	pulse	0	t						416.0963282585144	
87	361.07880115509033	pulse	0	t						417.6965403556824	
87	362.6789810657501	pulse	0	t						419.29672026634216	
87	364.2792110443115	pulse	0	t						420.89695024490356	
87	365.8794860839844	pulse	0	t						422.4972252845764	
87	367.47969007492065	pulse	0	t						424.0974292755127	
87	369.0800211429596	pulse	0	t						425.69776034355164	
