trial_nr	onset	event_type	phase	response	nr_frames	movie_index	movie_duration	movie_file	blank	onset_abs	duration
0	0.16645574569702148	stim	0		1					16.41291332244873	0.008322477340698242
0	0.1678011417388916	response	0	space						16.4142587184906	
1	0.17477822303771973	stim	0		4700					16.42123579978943	39.185240268707275
1	39.34501051902771	pulse	0	t						55.59146809577942	
1	39.360018491744995	stim	1		1714					55.606476068496704	14.297772645950317
1	40.93963289260864	pulse	1	t						57.18609046936035	
1	42.539652824401855	pulse	1	t						58.786110401153564	
1	44.139859199523926	pulse	1	t						60.386316776275635	
1	45.740209341049194	pulse	1	t						61.9866669178009	
1	47.34034872055054	pulse	1	t						63.586806297302246	
1	48.94056725502014	pulse	1	t						65.18702483177185	
1	50.540897607803345	pulse	1	t						66.78735518455505	
1	52.14112997055054	pulse	1	t						68.38758754730225	
2	53.65779113769531	fix_pre	0		11	0.0	2.5	/experiments/Knapen_AOT/AOT_stimuli/rescaled_final/2081_rv.mp4	0.0	69.90424871444702	0.10840487480163574
2	53.74148893356323	pulse	0	t		0.0	2.5	/experiments/Knapen_AOT/AOT_stimuli/rescaled_final/2081_rv.mp4	0.0	69.98794651031494	
2	53.76619601249695	movie	1		280	0.0	2.5	/experiments/Knapen_AOT/AOT_stimuli/rescaled_final/2081_rv.mp4	0.0	70.01265358924866	2.492004156112671
2	55.33974623680115	pulse	1	t		0.0	2.5	/experiments/Knapen_AOT/AOT_stimuli/rescaled_final/2081_rv.mp4	0.0	71.58620381355286	
2	56.25820016860962	fix_post	2		12	0.0	2.5	/experiments/Knapen_AOT/AOT_stimuli/rescaled_final/2081_rv.mp4	0.0	72.50465774536133	0.09997987747192383
3	56.35818004608154	fix_pre	0		120	1.0	2.5	/experiments/Knapen_AOT/AOT_stimuli/rescaled_final/0725_rv.mp4	0.0	72.60463762283325	1.0085053443908691
3	56.941842794418335	pulse	0	t		1.0	2.5	/experiments/Knapen_AOT/AOT_stimuli/rescaled_final/0725_rv.mp4	0.0	73.18830037117004	
3	57.36668539047241	movie	1		280	1.0	2.5	/experiments/Knapen_AOT/AOT_stimuli/rescaled_final/0725_rv.mp4	0.0	73.61314296722412	2.492050886154175
3	58.54039001464844	pulse	1	t		1.0	2.5	/experiments/Knapen_AOT/AOT_stimuli/rescaled_final/0725_rv.mp4	0.0	74.78684759140015	
3	59.85873627662659	fix_post	2		12	1.0	2.5	/experiments/Knapen_AOT/AOT_stimuli/rescaled_final/0725_rv.mp4	0.0	76.1051938533783	0.1000356674194336
4	59.95877194404602	fix_pre	0		120	2.0	2.5	/experiments/Knapen_AOT/AOT_stimuli/rescaled_final/0902_rv.mp4	0.0	76.20522952079773	1.008467435836792
4	60.13435745239258	pulse	0	t		2.0	2.5	/experiments/Knapen_AOT/AOT_stimuli/rescaled_final/0902_rv.mp4	0.0	76.38081502914429	
4	60.96723937988281	movie	1		281	2.0	2.5	/experiments/Knapen_AOT/AOT_stimuli/rescaled_final/0902_rv.mp4	0.0	77.21369695663452	2.4920413494110107
4	61.73460865020752	pulse	1	t		2.0	2.5	/experiments/Knapen_AOT/AOT_stimuli/rescaled_final/0902_rv.mp4	0.0	77.98106622695923	
4	63.3344566822052	pulse	1	t		2.0	2.5	/experiments/Knapen_AOT/AOT_stimuli/rescaled_final/0902_rv.mp4	0.0	79.58091425895691	
4	63.45928072929382	fix_post	2		12	2.0	2.5	/experiments/Knapen_AOT/AOT_stimuli/rescaled_final/0902_rv.mp4	0.0	79.70573830604553	0.09999895095825195
5	63.559279680252075	fix_pre	0		120	3.0	2.5	/experiments/Knapen_AOT/AOT_stimuli/rescaled_final/0653_rv.mp4	0.0	79.80573725700378	1.00850248336792
5	64.56778216362	movie	1		272	3.0	2.5	/experiments/Knapen_AOT/AOT_stimuli/rescaled_final/0653_rv.mp4	0.0	80.8142397403717	2.4920120239257812
5	64.93477439880371	pulse	1	t		3.0	2.5	/experiments/Knapen_AOT/AOT_stimuli/rescaled_final/0653_rv.mp4	0.0	81.18123197555542	
5	66.53490805625916	pulse	1	t		3.0	2.5	/experiments/Knapen_AOT/AOT_stimuli/rescaled_final/0653_rv.mp4	0.0	82.78136563301086	
5	67.05979418754578	fix_post	2		12	3.0	2.5	/experiments/Knapen_AOT/AOT_stimuli/rescaled_final/0653_rv.mp4	0.0	83.30625176429749	0.10000801086425781
6	67.15980219841003	fix_pre	0		118	4.0	2.5	/experiments/Knapen_AOT/AOT_stimuli/rescaled_final/1379_fw.mp4	0.0	83.40625977516174	0.9918220043182373
6	68.1351535320282	pulse	0	t		4.0	2.5	/experiments/Knapen_AOT/AOT_stimuli/rescaled_final/1379_fw.mp4	0.0	84.38161110877991	
6	68.15162420272827	movie	1		280	4.0	2.5	/experiments/Knapen_AOT/AOT_stimuli/rescaled_final/1379_fw.mp4	0.0	84.39808177947998	2.50036883354187
6	69.73548936843872	pulse	1	t		4.0	2.5	/experiments/Knapen_AOT/AOT_stimuli/rescaled_final/1379_fw.mp4	0.0	85.98194694519043	
6	70.65199303627014	fix_post	2		12	4.0	2.5	/experiments/Knapen_AOT/AOT_stimuli/rescaled_final/1379_fw.mp4	0.0	86.89845061302185	0.10004019737243652
7	70.75203323364258	fix_pre	0		120	5.0	2.5	/experiments/Knapen_AOT/AOT_stimuli/rescaled_final/1972_rv.mp4	0.0	86.99849081039429	1.008518934249878
7	71.33571577072144	pulse	0	t		5.0	2.5	/experiments/Knapen_AOT/AOT_stimuli/rescaled_final/1972_rv.mp4	0.0	87.58217334747314	
7	71.76055216789246	movie	1		278	5.0	2.5	/experiments/Knapen_AOT/AOT_stimuli/rescaled_final/1972_rv.mp4	0.0	88.00700974464417	2.492089033126831
7	72.93448042869568	pulse	1	t		5.0	2.5	/experiments/Knapen_AOT/AOT_stimuli/rescaled_final/1972_rv.mp4	0.0	89.18093800544739	
7	74.25264120101929	fix_post	2		12	5.0	2.5	/experiments/Knapen_AOT/AOT_stimuli/rescaled_final/1972_rv.mp4	0.0	90.499098777771	0.09996938705444336
8	74.35261058807373	fix_pre	0		120	6.0	2.5	blank	1.0	90.59906816482544	1.0000877380371094
8	74.53610682487488	pulse	0	t		6.0	2.5	blank	1.0	90.78256440162659	
8	75.35269832611084	movie	1		300	6.0	2.5	blank	1.0	91.59915590286255	2.5003726482391357
8	76.13634634017944	pulse	1	t		6.0	2.5	blank	1.0	92.38280391693115	
8	77.736576795578	pulse	1	t		6.0	2.5	blank	1.0	93.98303437232971	
8	77.85307097434998	fix_post	2		12	6.0	2.5	blank	1.0	94.09952855110168	0.10007953643798828
9	77.95315051078796	fix_pre	0		120	7.0	2.5	/experiments/Knapen_AOT/AOT_stimuli/rescaled_final/0627_fw.mp4	0.0	94.19960808753967	1.0084562301635742
9	78.96160674095154	movie	1		273	7.0	2.5	/experiments/Knapen_AOT/AOT_stimuli/rescaled_final/0627_fw.mp4	0.0	95.20806431770325	2.492007255554199
9	79.33525109291077	pulse	1	t		7.0	2.5	/experiments/Knapen_AOT/AOT_stimuli/rescaled_final/0627_fw.mp4	0.0	95.58170866966248	
9	80.93517827987671	pulse	1	t		7.0	2.5	/experiments/Knapen_AOT/AOT_stimuli/rescaled_final/0627_fw.mp4	0.0	97.18163585662842	
9	81.45361399650574	fix_post	2		12	7.0	2.5	/experiments/Knapen_AOT/AOT_stimuli/rescaled_final/0627_fw.mp4	0.0	97.70007157325745	0.1000208854675293
10	81.55363488197327	fix_pre	0		119	8.0	2.5	/experiments/Knapen_AOT/AOT_stimuli/rescaled_final/2143_fw.mp4	0.0	97.80009245872498	1.00016188621521
10	82.5374083518982	pulse	0	t		8.0	2.5	/experiments/Knapen_AOT/AOT_stimuli/rescaled_final/2143_fw.mp4	0.0	98.7838659286499	
10	82.55379676818848	movie	1		275	8.0	2.5	/experiments/Knapen_AOT/AOT_stimuli/rescaled_final/2143_fw.mp4	0.0	98.80025434494019	2.50042724609375
10	84.1365180015564	pulse	1	t		8.0	2.5	/experiments/Knapen_AOT/AOT_stimuli/rescaled_final/2143_fw.mp4	0.0	100.3829755783081	
10	85.05422401428223	fix_post	2		12	8.0	2.5	/experiments/Knapen_AOT/AOT_stimuli/rescaled_final/2143_fw.mp4	0.0	101.30068159103394	0.09995365142822266
11	85.15417766571045	fix_pre	0		120	9.0	2.5	/experiments/Knapen_AOT/AOT_stimuli/rescaled_final/1561_fw.mp4	0.0	101.40063524246216	1.0084989070892334
11	85.73808741569519	pulse	0	t		9.0	2.5	/experiments/Knapen_AOT/AOT_stimuli/rescaled_final/1561_fw.mp4	0.0	101.9845449924469	
11	86.16267657279968	movie	1		277	9.0	2.5	/experiments/Knapen_AOT/AOT_stimuli/rescaled_final/1561_fw.mp4	0.0	102.40913414955139	2.4920449256896973
11	87.33604860305786	pulse	1	t		9.0	2.5	/experiments/Knapen_AOT/AOT_stimuli/rescaled_final/1561_fw.mp4	0.0	103.58250617980957	
11	88.65472149848938	fix_post	2		12	9.0	2.5	/experiments/Knapen_AOT/AOT_stimuli/rescaled_final/1561_fw.mp4	0.0	104.90117907524109	0.1000070571899414
12	88.75472855567932	fix_pre	0		120	10.0	2.5	/experiments/Knapen_AOT/AOT_stimuli/rescaled_final/1874_rv.mp4	0.0	105.00118613243103	1.0084843635559082
12	88.93827486038208	pulse	0	t		10.0	2.5	/experiments/Knapen_AOT/AOT_stimuli/rescaled_final/1874_rv.mp4	0.0	105.18473243713379	
12	89.76321291923523	movie	1		283	10.0	2.5	/experiments/Knapen_AOT/AOT_stimuli/rescaled_final/1874_rv.mp4	0.0	106.00967049598694	2.492044687271118
12	90.536536693573	pulse	1	t		10.0	2.5	/experiments/Knapen_AOT/AOT_stimuli/rescaled_final/1874_rv.mp4	0.0	106.7829942703247	
12	92.13836598396301	pulse	1	t		10.0	2.5	/experiments/Knapen_AOT/AOT_stimuli/rescaled_final/1874_rv.mp4	0.0	108.38482356071472	
12	92.25525760650635	fix_post	2		12	10.0	2.5	/experiments/Knapen_AOT/AOT_stimuli/rescaled_final/1874_rv.mp4	0.0	108.50171518325806	0.10001063346862793
13	92.35526823997498	fix_pre	0		120	11.0	2.5	/experiments/Knapen_AOT/AOT_stimuli/rescaled_final/1614_rv.mp4	0.0	108.60172581672668	1.0085053443908691
13	93.36377358436584	movie	1		267	11.0	2.5	/experiments/Knapen_AOT/AOT_stimuli/rescaled_final/1614_rv.mp4	0.0	109.61023116111755	2.492030143737793
13	93.73710012435913	pulse	1	t		11.0	2.5	/experiments/Knapen_AOT/AOT_stimuli/rescaled_final/1614_rv.mp4	0.0	109.98355770111084	
13	95.33742356300354	pulse	1	t		11.0	2.5	/experiments/Knapen_AOT/AOT_stimuli/rescaled_final/1614_rv.mp4	0.0	111.58388113975525	
13	95.85580372810364	fix_post	2		12	11.0	2.5	/experiments/Knapen_AOT/AOT_stimuli/rescaled_final/1614_rv.mp4	0.0	112.10226130485535	0.10002756118774414
14	95.95583128929138	fix_pre	0		119	12.0	2.5	/experiments/Knapen_AOT/AOT_stimuli/rescaled_final/0188_fw.mp4	0.0	112.20228886604309	1.000152587890625
14	96.93951559066772	pulse	0	t		12.0	2.5	/experiments/Knapen_AOT/AOT_stimuli/rescaled_final/0188_fw.mp4	0.0	113.18597316741943	
14	96.955983877182	movie	1		279	12.0	2.5	/experiments/Knapen_AOT/AOT_stimuli/rescaled_final/0188_fw.mp4	0.0	113.20244145393372	2.500338554382324
14	98.54006290435791	pulse	1	t		12.0	2.5	/experiments/Knapen_AOT/AOT_stimuli/rescaled_final/0188_fw.mp4	0.0	114.78652048110962	
14	99.45632243156433	fix_post	2		12	12.0	2.5	/experiments/Knapen_AOT/AOT_stimuli/rescaled_final/0188_fw.mp4	0.0	115.70278000831604	0.10001873970031738
15	99.55634117126465	fix_pre	0		120	13.0	2.5	blank	1.0	115.80279874801636	1.000166893005371
15	100.14005041122437	pulse	0	t		13.0	2.5	blank	1.0	116.38650798797607	
15	100.55650806427002	movie	1		300	13.0	2.5	blank	1.0	116.80296564102173	2.5003609657287598
15	101.74018120765686	pulse	1	t		13.0	2.5	blank	1.0	117.98663878440857	
15	103.05686902999878	fix_post	2		12	13.0	2.5	blank	1.0	119.30332660675049	0.10001182556152344
16	103.1568808555603	fix_pre	0		120	14.0	2.5	/experiments/Knapen_AOT/AOT_stimuli/rescaled_final/1884_rv.mp4	0.0	119.40333843231201	1.0084877014160156
16	103.34045815467834	pulse	0	t		14.0	2.5	/experiments/Knapen_AOT/AOT_stimuli/rescaled_final/1884_rv.mp4	0.0	119.58691573143005	
16	104.16536855697632	movie	1		286	14.0	2.5	/experiments/Knapen_AOT/AOT_stimuli/rescaled_final/1884_rv.mp4	0.0	120.41182613372803	2.49220871925354
16	104.93857336044312	pulse	1	t		14.0	2.5	/experiments/Knapen_AOT/AOT_stimuli/rescaled_final/1884_rv.mp4	0.0	121.18503093719482	
16	106.53900027275085	pulse	1	t		14.0	2.5	/experiments/Knapen_AOT/AOT_stimuli/rescaled_final/1884_rv.mp4	0.0	122.78545784950256	
16	106.65757727622986	fix_post	2		12	14.0	2.5	/experiments/Knapen_AOT/AOT_stimuli/rescaled_final/1884_rv.mp4	0.0	122.90403485298157	0.09985709190368652
17	106.75743436813354	fix_pre	0		120	15.0	2.5	/experiments/Knapen_AOT/AOT_stimuli/rescaled_final/1325_fw.mp4	0.0	123.00389194488525	1.0084996223449707
17	107.76593399047852	movie	1		277	15.0	2.5	/experiments/Knapen_AOT/AOT_stimuli/rescaled_final/1325_fw.mp4	0.0	124.01239156723022	2.4920365810394287
17	108.13925385475159	pulse	1	t		15.0	2.5	/experiments/Knapen_AOT/AOT_stimuli/rescaled_final/1325_fw.mp4	0.0	124.3857114315033	
17	109.73909115791321	pulse	1	t		15.0	2.5	/experiments/Knapen_AOT/AOT_stimuli/rescaled_final/1325_fw.mp4	0.0	125.98554873466492	
17	110.25797057151794	fix_post	2		12	15.0	2.5	/experiments/Knapen_AOT/AOT_stimuli/rescaled_final/1325_fw.mp4	0.0	126.50442814826965	0.09999608993530273
18	110.35796666145325	fix_pre	0		119	16.0	2.5	/experiments/Knapen_AOT/AOT_stimuli/rescaled_final/1996_rv.mp4	0.0	126.60442423820496	1.000154733657837
18	111.34194684028625	pulse	0	t		16.0	2.5	/experiments/Knapen_AOT/AOT_stimuli/rescaled_final/1996_rv.mp4	0.0	127.58840441703796	
18	111.35812139511108	movie	1		286	16.0	2.5	/experiments/Knapen_AOT/AOT_stimuli/rescaled_final/1996_rv.mp4	0.0	127.6045789718628	2.500398874282837
18	112.94070196151733	pulse	1	t		16.0	2.5	/experiments/Knapen_AOT/AOT_stimuli/rescaled_final/1996_rv.mp4	0.0	129.18715953826904	
18	113.85852026939392	fix_post	2		12	16.0	2.5	/experiments/Knapen_AOT/AOT_stimuli/rescaled_final/1996_rv.mp4	0.0	130.10497784614563	0.10000205039978027
19	113.9585223197937	fix_pre	0		120	17.0	2.5	/experiments/Knapen_AOT/AOT_stimuli/rescaled_final/0068_fw.mp4	0.0	130.2049798965454	1.0084764957427979
19	114.54214835166931	pulse	0	t		17.0	2.5	/experiments/Knapen_AOT/AOT_stimuli/rescaled_final/0068_fw.mp4	0.0	130.78860592842102	
19	114.9669988155365	movie	1		287	17.0	2.5	/experiments/Knapen_AOT/AOT_stimuli/rescaled_final/0068_fw.mp4	0.0	131.2134563922882	2.492053270339966
19	116.14061903953552	pulse	1	t		17.0	2.5	/experiments/Knapen_AOT/AOT_stimuli/rescaled_final/0068_fw.mp4	0.0	132.38707661628723	
19	117.45905208587646	fix_post	2		12	17.0	2.5	/experiments/Knapen_AOT/AOT_stimuli/rescaled_final/0068_fw.mp4	0.0	133.70550966262817	0.10002875328063965
20	117.5590808391571	fix_pre	0		120	18.0	2.5	/experiments/Knapen_AOT/AOT_stimuli/rescaled_final/1540_rv.mp4	0.0	133.8055384159088	1.0084748268127441
20	117.73483633995056	pulse	0	t		18.0	2.5	/experiments/Knapen_AOT/AOT_stimuli/rescaled_final/1540_rv.mp4	0.0	133.98129391670227	
20	118.56755566596985	movie	1		288	18.0	2.5	/experiments/Knapen_AOT/AOT_stimuli/rescaled_final/1540_rv.mp4	0.0	134.81401324272156	2.4920270442962646
20	119.33488869667053	pulse	1	t		18.0	2.5	/experiments/Knapen_AOT/AOT_stimuli/rescaled_final/1540_rv.mp4	0.0	135.58134627342224	
20	120.93497896194458	pulse	1	t		18.0	2.5	/experiments/Knapen_AOT/AOT_stimuli/rescaled_final/1540_rv.mp4	0.0	137.1814365386963	
20	121.05958271026611	fix_post	2		12	18.0	2.5	/experiments/Knapen_AOT/AOT_stimuli/rescaled_final/1540_rv.mp4	0.0	137.30604028701782	0.10002684593200684
21	121.15960955619812	fix_pre	0		120	19.0	2.5	/experiments/Knapen_AOT/AOT_stimuli/rescaled_final/0329_fw.mp4	0.0	137.40606713294983	1.008516788482666
21	122.16812634468079	movie	1		283	19.0	2.5	/experiments/Knapen_AOT/AOT_stimuli/rescaled_final/0329_fw.mp4	0.0	138.4145839214325	2.4920120239257812
21	122.535076379776	pulse	1	t		19.0	2.5	/experiments/Knapen_AOT/AOT_stimuli/rescaled_final/0329_fw.mp4	0.0	138.7815339565277	
21	124.13529014587402	pulse	1	t		19.0	2.5	/experiments/Knapen_AOT/AOT_stimuli/rescaled_final/0329_fw.mp4	0.0	140.38174772262573	
21	124.66013836860657	fix_post	2		12	19.0	2.5	/experiments/Knapen_AOT/AOT_stimuli/rescaled_final/0329_fw.mp4	0.0	140.90659594535828	0.10001754760742188
22	124.76015591621399	fix_pre	0		118	20.0	2.5	blank	1.0	141.0066134929657	0.983447790145874
22	125.73553156852722	pulse	0	t		20.0	2.5	blank	1.0	141.98198914527893	
22	125.74360370635986	movie	1		301	20.0	2.5	blank	1.0	141.99006128311157	2.508744478225708
22	127.33587574958801	pulse	1	t		20.0	2.5	blank	1.0	143.58233332633972	
22	128.25234818458557	fix_post	2		12	20.0	2.5	blank	1.0	144.49880576133728	0.1000218391418457
23	128.35237002372742	fix_pre	0		120	21.0	2.5	/experiments/Knapen_AOT/AOT_stimuli/rescaled_final/1607_fw.mp4	0.0	144.59882760047913	1.0085484981536865
23	128.93632745742798	pulse	0	t		21.0	2.5	/experiments/Knapen_AOT/AOT_stimuli/rescaled_final/1607_fw.mp4	0.0	145.1827850341797	
23	129.3609185218811	movie	1		288	21.0	2.5	/experiments/Knapen_AOT/AOT_stimuli/rescaled_final/1607_fw.mp4	0.0	145.6073760986328	2.491994619369507
23	130.53619861602783	pulse	1	t		21.0	2.5	/experiments/Knapen_AOT/AOT_stimuli/rescaled_final/1607_fw.mp4	0.0	146.78265619277954	
23	131.8529131412506	fix_post	2		12	21.0	2.5	/experiments/Knapen_AOT/AOT_stimuli/rescaled_final/1607_fw.mp4	0.0	148.09937071800232	0.10000228881835938
24	131.95291543006897	fix_pre	0		120	22.0	2.5	/experiments/Knapen_AOT/AOT_stimuli/rescaled_final/0500_fw.mp4	0.0	148.19937300682068	1.0085084438323975
24	132.13703083992004	pulse	0	t		22.0	2.5	/experiments/Knapen_AOT/AOT_stimuli/rescaled_final/0500_fw.mp4	0.0	148.38348841667175	
24	132.96142387390137	movie	1		289	22.0	2.5	/experiments/Knapen_AOT/AOT_stimuli/rescaled_final/0500_fw.mp4	0.0	149.20788145065308	2.4920194149017334
24	133.73667860031128	pulse	1	t		22.0	2.5	/experiments/Knapen_AOT/AOT_stimuli/rescaled_final/0500_fw.mp4	0.0	149.983136177063	
24	135.3352439403534	pulse	1	t		22.0	2.5	/experiments/Knapen_AOT/AOT_stimuli/rescaled_final/0500_fw.mp4	0.0	151.5817015171051	
24	135.4534432888031	fix_post	2		12	22.0	2.5	/experiments/Knapen_AOT/AOT_stimuli/rescaled_final/0500_fw.mp4	0.0	151.6999008655548	0.1000368595123291
25	135.55348014831543	fix_pre	0		120	23.0	2.5	/experiments/Knapen_AOT/AOT_stimuli/rescaled_final/2086_rv.mp4	0.0	151.79993772506714	1.0085127353668213
25	136.56199288368225	movie	1		274	23.0	2.5	/experiments/Knapen_AOT/AOT_stimuli/rescaled_final/2086_rv.mp4	0.0	152.80845046043396	2.491995096206665
25	136.93613004684448	pulse	1	t		23.0	2.5	/experiments/Knapen_AOT/AOT_stimuli/rescaled_final/2086_rv.mp4	0.0	153.1825876235962	
25	138.5350832939148	pulse	1	t		23.0	2.5	/experiments/Knapen_AOT/AOT_stimuli/rescaled_final/2086_rv.mp4	0.0	154.7815408706665	
25	139.05398797988892	fix_post	2		12	23.0	2.5	/experiments/Knapen_AOT/AOT_stimuli/rescaled_final/2086_rv.mp4	0.0	155.30044555664062	0.10001254081726074
26	139.15400052070618	fix_pre	0		119	24.0	2.5	/experiments/Knapen_AOT/AOT_stimuli/rescaled_final/1466_fw.mp4	0.0	155.40045809745789	1.0001893043518066
26	140.13769555091858	pulse	0	t		24.0	2.5	/experiments/Knapen_AOT/AOT_stimuli/rescaled_final/1466_fw.mp4	0.0	156.3841531276703	
26	140.15418982505798	movie	1		279	24.0	2.5	/experiments/Knapen_AOT/AOT_stimuli/rescaled_final/1466_fw.mp4	0.0	156.4006474018097	2.500347137451172
26	141.73655080795288	pulse	1	t		24.0	2.5	/experiments/Knapen_AOT/AOT_stimuli/rescaled_final/1466_fw.mp4	0.0	157.9830083847046	
26	142.65453696250916	fix_post	2		12	24.0	2.5	/experiments/Knapen_AOT/AOT_stimuli/rescaled_final/1466_fw.mp4	0.0	158.90099453926086	0.10011529922485352
27	142.754652261734	fix_pre	0		120	25.0	2.5	/experiments/Knapen_AOT/AOT_stimuli/rescaled_final/0627_rv.mp4	0.0	159.00110983848572	1.0083808898925781
27	143.33817529678345	pulse	0	t		25.0	2.5	/experiments/Knapen_AOT/AOT_stimuli/rescaled_final/0627_rv.mp4	0.0	159.58463287353516	
27	143.7630331516266	movie	1		287	25.0	2.5	/experiments/Knapen_AOT/AOT_stimuli/rescaled_final/0627_rv.mp4	0.0	160.0094907283783	2.4920365810394287
27	144.9363386631012	pulse	1	t		25.0	2.5	/experiments/Knapen_AOT/AOT_stimuli/rescaled_final/0627_rv.mp4	0.0	161.1827962398529	
27	146.25506973266602	fix_post	2		12	25.0	2.5	/experiments/Knapen_AOT/AOT_stimuli/rescaled_final/0627_rv.mp4	0.0	162.50152730941772	0.1000356674194336
28	146.35510540008545	fix_pre	0		120	26.0	2.5	blank	1.0	162.60156297683716	1.0001287460327148
28	146.5386998653412	pulse	0	t		26.0	2.5	blank	1.0	162.7851574420929	
28	147.35523414611816	movie	1		300	26.0	2.5	blank	1.0	163.60169172286987	2.500382900238037
28	148.13888335227966	pulse	1	t		26.0	2.5	blank	1.0	164.38534092903137	
28	149.73914456367493	pulse	1	t		26.0	2.5	blank	1.0	165.98560214042664	
28	149.8556170463562	fix_post	2		12	26.0	2.5	blank	1.0	166.1020746231079	0.1000204086303711
29	149.95563745498657	fix_pre	0		120	27.0	2.5	/experiments/Knapen_AOT/AOT_stimuli/rescaled_final/1674_rv.mp4	0.0	166.20209503173828	1.0086395740509033
29	150.96427702903748	movie	1		278	27.0	2.5	/experiments/Knapen_AOT/AOT_stimuli/rescaled_final/1674_rv.mp4	0.0	167.21073460578918	2.4919373989105225
29	151.33931422233582	pulse	1	t		27.0	2.5	/experiments/Knapen_AOT/AOT_stimuli/rescaled_final/1674_rv.mp4	0.0	167.58577179908752	
29	152.93734645843506	pulse	1	t		27.0	2.5	/experiments/Knapen_AOT/AOT_stimuli/rescaled_final/1674_rv.mp4	0.0	169.18380403518677	
29	153.456214427948	fix_post	2		12	27.0	2.5	/experiments/Knapen_AOT/AOT_stimuli/rescaled_final/1674_rv.mp4	0.0	169.7026720046997	0.10000157356262207
30	153.55621600151062	fix_pre	0		119	28.0	2.5	/experiments/Knapen_AOT/AOT_stimuli/rescaled_final/0399_rv.mp4	0.0	169.80267357826233	1.0001294612884521
30	154.54013204574585	pulse	0	t		28.0	2.5	/experiments/Knapen_AOT/AOT_stimuli/rescaled_final/0399_rv.mp4	0.0	170.78658962249756	
30	154.55634546279907	movie	1		277	28.0	2.5	/experiments/Knapen_AOT/AOT_stimuli/rescaled_final/0399_rv.mp4	0.0	170.80280303955078	2.5003952980041504
30	156.13834166526794	pulse	1	t		28.0	2.5	/experiments/Knapen_AOT/AOT_stimuli/rescaled_final/0399_rv.mp4	0.0	172.38479924201965	
30	157.05674076080322	fix_post	2		12	28.0	2.5	/experiments/Knapen_AOT/AOT_stimuli/rescaled_final/0399_rv.mp4	0.0	173.30319833755493	0.10000276565551758
31	157.15674352645874	fix_pre	0		120	29.0	2.5	/experiments/Knapen_AOT/AOT_stimuli/rescaled_final/1885_rv.mp4	0.0	173.40320110321045	1.0085020065307617
31	157.74045395851135	pulse	0	t		29.0	2.5	/experiments/Knapen_AOT/AOT_stimuli/rescaled_final/1885_rv.mp4	0.0	173.98691153526306	
31	158.1652455329895	movie	1		280	29.0	2.5	/experiments/Knapen_AOT/AOT_stimuli/rescaled_final/1885_rv.mp4	0.0	174.4117031097412	2.500401496887207
31	159.33877539634705	pulse	1	t		29.0	2.5	/experiments/Knapen_AOT/AOT_stimuli/rescaled_final/1885_rv.mp4	0.0	175.58523297309875	
31	160.6656470298767	fix_post	2		11	29.0	2.5	/experiments/Knapen_AOT/AOT_stimuli/rescaled_final/1885_rv.mp4	0.0	176.91210460662842	0.09162735939025879
32	160.75727438926697	fix_pre	0		120	30.0	2.5	/experiments/Knapen_AOT/AOT_stimuli/rescaled_final/1133_fw.mp4	0.0	177.00373196601868	1.008491039276123
32	160.9408392906189	pulse	0	t		30.0	2.5	/experiments/Knapen_AOT/AOT_stimuli/rescaled_final/1133_fw.mp4	0.0	177.1872968673706	
32	161.7657654285431	movie	1		278	30.0	2.5	/experiments/Knapen_AOT/AOT_stimuli/rescaled_final/1133_fw.mp4	0.0	178.0122230052948	2.49210262298584
32	162.53902578353882	pulse	1	t		30.0	2.5	/experiments/Knapen_AOT/AOT_stimuli/rescaled_final/1133_fw.mp4	0.0	178.78548336029053	
32	164.1402759552002	pulse	1	t		30.0	2.5	/experiments/Knapen_AOT/AOT_stimuli/rescaled_final/1133_fw.mp4	0.0	180.3867335319519	
32	164.25786805152893	fix_post	2		12	30.0	2.5	/experiments/Knapen_AOT/AOT_stimuli/rescaled_final/1133_fw.mp4	0.0	180.50432562828064	0.09995603561401367
33	164.35782408714294	fix_pre	0		120	31.0	2.5	/experiments/Knapen_AOT/AOT_stimuli/rescaled_final/1874_fw.mp4	0.0	180.60428166389465	1.0085372924804688
33	165.3663613796234	movie	1		281	31.0	2.5	/experiments/Knapen_AOT/AOT_stimuli/rescaled_final/1874_fw.mp4	0.0	181.61281895637512	2.4921133518218994
33	165.73988151550293	pulse	1	t		31.0	2.5	/experiments/Knapen_AOT/AOT_stimuli/rescaled_final/1874_fw.mp4	0.0	181.98633909225464	
33	167.33977222442627	pulse	1	t		31.0	2.5	/experiments/Knapen_AOT/AOT_stimuli/rescaled_final/1874_fw.mp4	0.0	183.58622980117798	
33	167.8584747314453	fix_post	2		12	31.0	2.5	/experiments/Knapen_AOT/AOT_stimuli/rescaled_final/1874_fw.mp4	0.0	184.10493230819702	0.09997200965881348
34	167.95844674110413	fix_pre	0		119	32.0	2.5	/experiments/Knapen_AOT/AOT_stimuli/rescaled_final/2146_rv.mp4	0.0	184.20490431785583	1.000084638595581
34	168.942218542099	pulse	0	t		32.0	2.5	/experiments/Knapen_AOT/AOT_stimuli/rescaled_final/2146_rv.mp4	0.0	185.1886761188507	
34	168.9585313796997	movie	1		286	32.0	2.5	/experiments/Knapen_AOT/AOT_stimuli/rescaled_final/2146_rv.mp4	0.0	185.20498895645142	2.5005946159362793
34	170.54056096076965	pulse	1	t		32.0	2.5	/experiments/Knapen_AOT/AOT_stimuli/rescaled_final/2146_rv.mp4	0.0	186.78701853752136	
34	171.459125995636	fix_post	2		12	32.0	2.5	/experiments/Knapen_AOT/AOT_stimuli/rescaled_final/2146_rv.mp4	0.0	187.7055835723877	0.09984588623046875
35	171.55897188186646	fix_pre	0		120	33.0	2.5	blank	1.0	187.80542945861816	1.0001633167266846
35	172.14253497123718	pulse	0	t		33.0	2.5	blank	1.0	188.3889925479889	
35	172.55913519859314	movie	1		300	33.0	2.5	blank	1.0	188.80559277534485	2.500321626663208
35	173.7427773475647	pulse	1	t		33.0	2.5	blank	1.0	189.9892349243164	
35	175.05945682525635	fix_post	2		12	33.0	2.5	blank	1.0	191.30591440200806	0.10003209114074707
36	175.1594889163971	fix_pre	0		120	34.0	2.5	/experiments/Knapen_AOT/AOT_stimuli/rescaled_final/1648_rv.mp4	0.0	191.4059464931488	1.008561611175537
36	175.33574223518372	pulse	0	t		34.0	2.5	/experiments/Knapen_AOT/AOT_stimuli/rescaled_final/1648_rv.mp4	0.0	191.58219981193542	
36	176.16805052757263	movie	1		289	34.0	2.5	/experiments/Knapen_AOT/AOT_stimuli/rescaled_final/1648_rv.mp4	0.0	192.41450810432434	2.4919471740722656
36	176.93528056144714	pulse	1	t		34.0	2.5	/experiments/Knapen_AOT/AOT_stimuli/rescaled_final/1648_rv.mp4	0.0	193.18173813819885	
36	178.53534317016602	pulse	1	t		34.0	2.5	/experiments/Knapen_AOT/AOT_stimuli/rescaled_final/1648_rv.mp4	0.0	194.78180074691772	
36	178.6599977016449	fix_post	2		12	34.0	2.5	/experiments/Knapen_AOT/AOT_stimuli/rescaled_final/1648_rv.mp4	0.0	194.9064552783966	0.10006165504455566
37	178.76005935668945	fix_pre	0		120	35.0	2.5	/experiments/Knapen_AOT/AOT_stimuli/rescaled_final/1341_rv.mp4	0.0	195.00651693344116	1.008453130722046
37	179.7685124874115	movie	1		281	35.0	2.5	/experiments/Knapen_AOT/AOT_stimuli/rescaled_final/1341_rv.mp4	0.0	196.0149700641632	2.4921135902404785
37	180.13545536994934	pulse	1	t		35.0	2.5	/experiments/Knapen_AOT/AOT_stimuli/rescaled_final/1341_rv.mp4	0.0	196.38191294670105	
37	181.73575949668884	pulse	1	t		35.0	2.5	/experiments/Knapen_AOT/AOT_stimuli/rescaled_final/1341_rv.mp4	0.0	197.98221707344055	
37	182.26062607765198	fix_post	2		12	35.0	2.5	/experiments/Knapen_AOT/AOT_stimuli/rescaled_final/1341_rv.mp4	0.0	198.5070836544037	0.09994173049926758
38	182.36056780815125	fix_pre	0		118	36.0	2.5	/experiments/Knapen_AOT/AOT_stimuli/rescaled_final/0222_fw.mp4	0.0	198.60702538490295	0.9918105602264404
38	183.33596563339233	pulse	0	t		36.0	2.5	/experiments/Knapen_AOT/AOT_stimuli/rescaled_final/0222_fw.mp4	0.0	199.58242321014404	
38	183.35237836837769	movie	1		279	36.0	2.5	/experiments/Knapen_AOT/AOT_stimuli/rescaled_final/0222_fw.mp4	0.0	199.5988359451294	2.500382900238037
38	184.93626189231873	pulse	1	t		36.0	2.5	/experiments/Knapen_AOT/AOT_stimuli/rescaled_final/0222_fw.mp4	0.0	201.18271946907043	
38	185.85276126861572	fix_post	2		12	36.0	2.5	/experiments/Knapen_AOT/AOT_stimuli/rescaled_final/0222_fw.mp4	0.0	202.09921884536743	0.10001993179321289
39	185.95278120040894	fix_pre	0		120	37.0	2.5	/experiments/Knapen_AOT/AOT_stimuli/rescaled_final/1525_rv.mp4	0.0	202.19923877716064	1.0084850788116455
39	186.53645849227905	pulse	0	t		37.0	2.5	/experiments/Knapen_AOT/AOT_stimuli/rescaled_final/1525_rv.mp4	0.0	202.78291606903076	
39	186.96126627922058	movie	1		279	37.0	2.5	/experiments/Knapen_AOT/AOT_stimuli/rescaled_final/1525_rv.mp4	0.0	203.2077238559723	2.492065906524658
39	188.13667798042297	pulse	1	t		37.0	2.5	/experiments/Knapen_AOT/AOT_stimuli/rescaled_final/1525_rv.mp4	0.0	204.38313555717468	
39	189.45333218574524	fix_post	2		12	37.0	2.5	/experiments/Knapen_AOT/AOT_stimuli/rescaled_final/1525_rv.mp4	0.0	205.69978976249695	0.10001778602600098
40	189.55334997177124	fix_pre	0		120	38.0	2.5	/experiments/Knapen_AOT/AOT_stimuli/rescaled_final/0700_fw.mp4	0.0	205.79980754852295	1.0084757804870605
40	189.73707747459412	pulse	0	t		38.0	2.5	/experiments/Knapen_AOT/AOT_stimuli/rescaled_final/0700_fw.mp4	0.0	205.98353505134583	
40	190.5618257522583	movie	1		281	38.0	2.5	/experiments/Knapen_AOT/AOT_stimuli/rescaled_final/0700_fw.mp4	0.0	206.80828332901	2.4920265674591064
40	191.33746600151062	pulse	1	t		38.0	2.5	/experiments/Knapen_AOT/AOT_stimuli/rescaled_final/0700_fw.mp4	0.0	207.58392357826233	
40	192.9355652332306	pulse	1	t		38.0	2.5	/experiments/Knapen_AOT/AOT_stimuli/rescaled_final/0700_fw.mp4	0.0	209.1820228099823	
40	193.0538523197174	fix_post	2		12	38.0	2.5	/experiments/Knapen_AOT/AOT_stimuli/rescaled_final/0700_fw.mp4	0.0	209.30030989646912	0.10002660751342773
41	193.15387892723083	fix_pre	0		120	39.0	2.5	/experiments/Knapen_AOT/AOT_stimuli/rescaled_final/0874_fw.mp4	0.0	209.40033650398254	1.0085346698760986
41	194.16241359710693	movie	1		278	39.0	2.5	/experiments/Knapen_AOT/AOT_stimuli/rescaled_final/0874_fw.mp4	0.0	210.40887117385864	2.491976499557495
41	194.5363097190857	pulse	1	t		39.0	2.5	/experiments/Knapen_AOT/AOT_stimuli/rescaled_final/0874_fw.mp4	0.0	210.7827672958374	
41	196.13649487495422	pulse	1	t		39.0	2.5	/experiments/Knapen_AOT/AOT_stimuli/rescaled_final/0874_fw.mp4	0.0	212.38295245170593	
41	196.65439009666443	fix_post	2		12	39.0	2.5	/experiments/Knapen_AOT/AOT_stimuli/rescaled_final/0874_fw.mp4	0.0	212.90084767341614	0.10003280639648438
42	196.7544229030609	fix_pre	0		119	40.0	2.5	/experiments/Knapen_AOT/AOT_stimuli/rescaled_final/1583_fw.mp4	0.0	213.00088047981262	1.0001864433288574
42	197.7382354736328	pulse	0	t		40.0	2.5	/experiments/Knapen_AOT/AOT_stimuli/rescaled_final/1583_fw.mp4	0.0	213.98469305038452	
42	197.75460934638977	movie	1		280	40.0	2.5	/experiments/Knapen_AOT/AOT_stimuli/rescaled_final/1583_fw.mp4	0.0	214.00106692314148	2.5003244876861572
42	199.33728909492493	pulse	1	t		40.0	2.5	/experiments/Knapen_AOT/AOT_stimuli/rescaled_final/1583_fw.mp4	0.0	215.58374667167664	
42	200.25493383407593	fix_post	2		12	40.0	2.5	/experiments/Knapen_AOT/AOT_stimuli/rescaled_final/1583_fw.mp4	0.0	216.50139141082764	0.10008668899536133
43	200.3550205230713	fix_pre	0		120	41.0	2.5	/experiments/Knapen_AOT/AOT_stimuli/rescaled_final/1881_fw.mp4	0.0	216.601478099823	1.0085060596466064
43	200.938618183136	pulse	0	t		41.0	2.5	/experiments/Knapen_AOT/AOT_stimuli/rescaled_final/1881_fw.mp4	0.0	217.1850757598877	
43	201.3635265827179	movie	1		282	41.0	2.5	/experiments/Knapen_AOT/AOT_stimuli/rescaled_final/1881_fw.mp4	0.0	217.6099841594696	2.4921083450317383
43	202.5378942489624	pulse	1	t		41.0	2.5	/experiments/Knapen_AOT/AOT_stimuli/rescaled_final/1881_fw.mp4	0.0	218.7843518257141	
43	203.85563492774963	fix_post	2		12	41.0	2.5	/experiments/Knapen_AOT/AOT_stimuli/rescaled_final/1881_fw.mp4	0.0	220.10209250450134	0.0998842716217041
44	203.95551919937134	fix_pre	0		120	42.0	2.5	blank	1.0	220.20197677612305	1.0001628398895264
44	204.13906955718994	pulse	0	t		42.0	2.5	blank	1.0	220.38552713394165	
44	204.95568203926086	movie	1		300	42.0	2.5	blank	1.0	221.20213961601257	2.5003464221954346
44	205.73932695388794	pulse	1	t		42.0	2.5	blank	1.0	221.98578453063965	
44	207.33961033821106	pulse	1	t		42.0	2.5	blank	1.0	223.58606791496277	
44	207.4560284614563	fix_post	2		12	42.0	2.5	blank	1.0	223.702486038208	0.10007119178771973
45	207.55609965324402	fix_pre	0		120	43.0	2.5	/experiments/Knapen_AOT/AOT_stimuli/rescaled_final/1996_fw.mp4	0.0	223.80255722999573	1.0084757804870605
45	208.56457543373108	movie	1		273	43.0	2.5	/experiments/Knapen_AOT/AOT_stimuli/rescaled_final/1996_fw.mp4	0.0	224.8110330104828	2.492060899734497
45	208.939208984375	pulse	1	t		43.0	2.5	/experiments/Knapen_AOT/AOT_stimuli/rescaled_final/1996_fw.mp4	0.0	225.1856665611267	
45	210.53777480125427	pulse	1	t		43.0	2.5	/experiments/Knapen_AOT/AOT_stimuli/rescaled_final/1996_fw.mp4	0.0	226.78423237800598	
45	211.05663633346558	fix_post	2		12	43.0	2.5	/experiments/Knapen_AOT/AOT_stimuli/rescaled_final/1996_fw.mp4	0.0	227.30309391021729	0.09996795654296875
46	211.15660429000854	fix_pre	0		119	44.0	2.5	/experiments/Knapen_AOT/AOT_stimuli/rescaled_final/2161_fw.mp4	0.0	227.40306186676025	1.0001599788665771
46	212.14032697677612	pulse	0	t		44.0	2.5	/experiments/Knapen_AOT/AOT_stimuli/rescaled_final/2161_fw.mp4	0.0	228.38678455352783	
46	212.15676426887512	movie	1		282	44.0	2.5	/experiments/Knapen_AOT/AOT_stimuli/rescaled_final/2161_fw.mp4	0.0	228.40322184562683	2.5003581047058105
46	213.73901081085205	pulse	1	t		44.0	2.5	/experiments/Knapen_AOT/AOT_stimuli/rescaled_final/2161_fw.mp4	0.0	229.98546838760376	
46	214.65712237358093	fix_post	2		12	44.0	2.5	/experiments/Knapen_AOT/AOT_stimuli/rescaled_final/2161_fw.mp4	0.0	230.90357995033264	0.10000205039978027
47	214.7571244239807	fix_pre	0		120	45.0	2.5	/experiments/Knapen_AOT/AOT_stimuli/rescaled_final/2109_rv.mp4	0.0	231.00358200073242	1.0085625648498535
47	215.34077763557434	pulse	0	t		45.0	2.5	/experiments/Knapen_AOT/AOT_stimuli/rescaled_final/2109_rv.mp4	0.0	231.58723521232605	
47	215.76568698883057	movie	1		283	45.0	2.5	/experiments/Knapen_AOT/AOT_stimuli/rescaled_final/2109_rv.mp4	0.0	232.01214456558228	2.4920225143432617
47	216.93928027153015	pulse	1	t		45.0	2.5	/experiments/Knapen_AOT/AOT_stimuli/rescaled_final/2109_rv.mp4	0.0	233.18573784828186	
47	218.25770950317383	fix_post	2		12	45.0	2.5	/experiments/Knapen_AOT/AOT_stimuli/rescaled_final/2109_rv.mp4	0.0	234.50416707992554	0.09998488426208496
48	218.3576943874359	fix_pre	0		103	46.0	2.5	/experiments/Knapen_AOT/AOT_stimuli/rescaled_final/1990_rv.mp4	0.0	234.60415196418762	1.0085079669952393
48	218.5412495136261	pulse	0	t		46.0	2.5	/experiments/Knapen_AOT/AOT_stimuli/rescaled_final/1990_rv.mp4	0.0	234.7877070903778	
48	219.36620235443115	movie	1		289	46.0	2.5	/experiments/Knapen_AOT/AOT_stimuli/rescaled_final/1990_rv.mp4	0.0	235.61265993118286	2.4920153617858887
48	220.1392204761505	pulse	1	t		46.0	2.5	/experiments/Knapen_AOT/AOT_stimuli/rescaled_final/1990_rv.mp4	0.0	236.38567805290222	
48	221.7397940158844	pulse	1	t		46.0	2.5	/experiments/Knapen_AOT/AOT_stimuli/rescaled_final/1990_rv.mp4	0.0	237.9862515926361	
48	221.85821771621704	fix_post	2		12	46.0	2.5	/experiments/Knapen_AOT/AOT_stimuli/rescaled_final/1990_rv.mp4	0.0	238.10467529296875	0.09999442100524902
49	221.9582121372223	fix_pre	0		120	47.0	2.5	/experiments/Knapen_AOT/AOT_stimuli/rescaled_final/1200_fw.mp4	0.0	238.204669713974	1.008530855178833
49	222.96674299240112	movie	1		290	47.0	2.5	/experiments/Knapen_AOT/AOT_stimuli/rescaled_final/1200_fw.mp4	0.0	239.21320056915283	2.4920337200164795
49	223.34036469459534	pulse	1	t		47.0	2.5	/experiments/Knapen_AOT/AOT_stimuli/rescaled_final/1200_fw.mp4	0.0	239.58682227134705	
49	224.94207072257996	pulse	1	t		47.0	2.5	/experiments/Knapen_AOT/AOT_stimuli/rescaled_final/1200_fw.mp4	0.0	241.18852829933167	
49	225.4587767124176	fix_post	2		12	47.0	2.5	/experiments/Knapen_AOT/AOT_stimuli/rescaled_final/1200_fw.mp4	0.0	241.7052342891693	0.10000300407409668
50	225.5587797164917	fix_pre	0		119	48.0	2.5	/experiments/Knapen_AOT/AOT_stimuli/rescaled_final/1606_rv.mp4	0.0	241.8052372932434	1.0001471042633057
50	226.53468799591064	pulse	0	t		48.0	2.5	/experiments/Knapen_AOT/AOT_stimuli/rescaled_final/1606_rv.mp4	0.0	242.78114557266235	
50	226.558926820755	movie	1		290	48.0	2.5	/experiments/Knapen_AOT/AOT_stimuli/rescaled_final/1606_rv.mp4	0.0	242.8053843975067	2.500370979309082
50	228.14141130447388	pulse	1	t		48.0	2.5	/experiments/Knapen_AOT/AOT_stimuli/rescaled_final/1606_rv.mp4	0.0	244.3878688812256	
50	229.0592978000641	fix_post	2		12	48.0	2.5	/experiments/Knapen_AOT/AOT_stimuli/rescaled_final/1606_rv.mp4	0.0	245.3057553768158	0.10000491142272949
51	229.15930271148682	fix_pre	0		120	49.0	2.5	blank	1.0	245.40576028823853	1.0001745223999023
51	229.7347593307495	pulse	0	t		49.0	2.5	blank	1.0	245.98121690750122	
51	230.15947723388672	movie	1		300	49.0	2.5	blank	1.0	246.40593481063843	2.5003557205200195
51	231.33489751815796	pulse	1	t		49.0	2.5	blank	1.0	247.58135509490967	
51	232.65983295440674	fix_post	2		12	49.0	2.5	blank	1.0	248.90629053115845	0.10010433197021484
52	232.75993728637695	fix_pre	0		120	50.0	2.5	/experiments/Knapen_AOT/AOT_stimuli/rescaled_final/2025_rv.mp4	0.0	249.00639486312866	1.0084924697875977
52	232.93517303466797	pulse	0	t		50.0	2.5	/experiments/Knapen_AOT/AOT_stimuli/rescaled_final/2025_rv.mp4	0.0	249.18163061141968	
52	233.76842975616455	movie	1		283	50.0	2.5	/experiments/Knapen_AOT/AOT_stimuli/rescaled_final/2025_rv.mp4	0.0	250.01488733291626	2.491943359375
52	234.53533124923706	pulse	1	t		50.0	2.5	/experiments/Knapen_AOT/AOT_stimuli/rescaled_final/2025_rv.mp4	0.0	250.78178882598877	
52	236.1356177330017	pulse	1	t		50.0	2.5	/experiments/Knapen_AOT/AOT_stimuli/rescaled_final/2025_rv.mp4	0.0	252.38207530975342	
52	236.26037311553955	fix_post	2		12	50.0	2.5	/experiments/Knapen_AOT/AOT_stimuli/rescaled_final/2025_rv.mp4	0.0	252.50683069229126	0.10002708435058594
53	236.36040019989014	fix_pre	0		120	51.0	2.5	/experiments/Knapen_AOT/AOT_stimuli/rescaled_final/1140_rv.mp4	0.0	252.60685777664185	1.0085296630859375
53	237.36892986297607	movie	1		282	51.0	2.5	/experiments/Knapen_AOT/AOT_stimuli/rescaled_final/1140_rv.mp4	0.0	253.61538743972778	2.4920051097869873
53	237.73485207557678	pulse	1	t		51.0	2.5	/experiments/Knapen_AOT/AOT_stimuli/rescaled_final/1140_rv.mp4	0.0	253.9813096523285	
53	239.33623504638672	pulse	1	t		51.0	2.5	/experiments/Knapen_AOT/AOT_stimuli/rescaled_final/1140_rv.mp4	0.0	255.58269262313843	
53	239.86093497276306	fix_post	2		12	51.0	2.5	/experiments/Knapen_AOT/AOT_stimuli/rescaled_final/1140_rv.mp4	0.0	256.10739254951477	0.10000371932983398
54	239.9609386920929	fix_pre	0		118	52.0	2.5	/experiments/Knapen_AOT/AOT_stimuli/rescaled_final/0769_fw.mp4	0.0	256.2073962688446	0.991823673248291
54	240.9363031387329	pulse	0	t		52.0	2.5	/experiments/Knapen_AOT/AOT_stimuli/rescaled_final/0769_fw.mp4	0.0	257.1827607154846	
54	240.9527623653412	movie	1		286	52.0	2.5	/experiments/Knapen_AOT/AOT_stimuli/rescaled_final/0769_fw.mp4	0.0	257.1992199420929	2.5003888607025146
54	242.53473496437073	pulse	1	t		52.0	2.5	/experiments/Knapen_AOT/AOT_stimuli/rescaled_final/0769_fw.mp4	0.0	258.78119254112244	
54	243.4531512260437	fix_post	2		12	52.0	2.5	/experiments/Knapen_AOT/AOT_stimuli/rescaled_final/0769_fw.mp4	0.0	259.6996088027954	0.10003995895385742
55	243.55319118499756	fix_pre	0		120	53.0	2.5	/experiments/Knapen_AOT/AOT_stimuli/rescaled_final/1124_fw.mp4	0.0	259.79964876174927	1.0084550380706787
55	244.1367883682251	pulse	0	t		53.0	2.5	/experiments/Knapen_AOT/AOT_stimuli/rescaled_final/1124_fw.mp4	0.0	260.3832459449768	
55	244.56164622306824	movie	1		280	53.0	2.5	/experiments/Knapen_AOT/AOT_stimuli/rescaled_final/1124_fw.mp4	0.0	260.80810379981995	2.4920217990875244
55	245.73722076416016	pulse	1	t		53.0	2.5	/experiments/Knapen_AOT/AOT_stimuli/rescaled_final/1124_fw.mp4	0.0	261.98367834091187	
55	247.05366802215576	fix_post	2		12	53.0	2.5	/experiments/Knapen_AOT/AOT_stimuli/rescaled_final/1124_fw.mp4	0.0	263.30012559890747	0.09999537467956543
56	247.15366339683533	fix_pre	0		120	54.0	2.5	blank	1.0	263.40012097358704	1.0002050399780273
56	247.3373203277588	pulse	0	t		54.0	2.5	blank	1.0	263.5837779045105	
56	248.15386843681335	movie	1		300	54.0	2.5	blank	1.0	264.40032601356506	2.5003292560577393
56	248.9376540184021	pulse	1	t		54.0	2.5	blank	1.0	265.1841115951538	
56	250.53776240348816	pulse	1	t		54.0	2.5	blank	1.0	266.78421998023987	
56	250.6541976928711	fix_post	2		12	54.0	2.5	blank	1.0	266.9006552696228	0.10003924369812012
57	250.7542369365692	fix_pre	0		120	55.0	2.5	/experiments/Knapen_AOT/AOT_stimuli/rescaled_final/0505_fw.mp4	0.0	267.0006945133209	1.0084474086761475
57	251.76268434524536	movie	1		283	55.0	2.5	/experiments/Knapen_AOT/AOT_stimuli/rescaled_final/0505_fw.mp4	0.0	268.00914192199707	2.4921045303344727
57	252.1367678642273	pulse	1	t		55.0	2.5	/experiments/Knapen_AOT/AOT_stimuli/rescaled_final/0505_fw.mp4	0.0	268.383225440979	
57	253.73613572120667	pulse	1	t		55.0	2.5	/experiments/Knapen_AOT/AOT_stimuli/rescaled_final/0505_fw.mp4	0.0	269.9825932979584	
57	254.25478887557983	fix_post	2		12	55.0	2.5	/experiments/Knapen_AOT/AOT_stimuli/rescaled_final/0505_fw.mp4	0.0	270.50124645233154	0.10003185272216797
58	254.354820728302	fix_pre	0		119	56.0	2.5	/experiments/Knapen_AOT/AOT_stimuli/rescaled_final/0608_rv.mp4	0.0	270.6012783050537	1.0001370906829834
58	255.3385260105133	pulse	0	t		56.0	2.5	/experiments/Knapen_AOT/AOT_stimuli/rescaled_final/0608_rv.mp4	0.0	271.584983587265	
58	255.35495781898499	movie	1		287	56.0	2.5	/experiments/Knapen_AOT/AOT_stimuli/rescaled_final/0608_rv.mp4	0.0	271.6014153957367	2.5003483295440674
58	256.93705773353577	pulse	1	t		56.0	2.5	/experiments/Knapen_AOT/AOT_stimuli/rescaled_final/0608_rv.mp4	0.0	273.1835153102875	
58	257.85530614852905	fix_post	2		12	56.0	2.5	/experiments/Knapen_AOT/AOT_stimuli/rescaled_final/0608_rv.mp4	0.0	274.10176372528076	0.10000038146972656
59	257.9553065299988	fix_pre	0		120	57.0	2.5	/experiments/Knapen_AOT/AOT_stimuli/rescaled_final/2095_fw.mp4	0.0	274.2017641067505	1.0085175037384033
59	258.53896713256836	pulse	0	t		57.0	2.5	/experiments/Knapen_AOT/AOT_stimuli/rescaled_final/2095_fw.mp4	0.0	274.78542470932007	
59	258.9638240337372	movie	1		291	57.0	2.5	/experiments/Knapen_AOT/AOT_stimuli/rescaled_final/2095_fw.mp4	0.0	275.2102816104889	2.4921624660491943
59	260.13733077049255	pulse	1	t		57.0	2.5	/experiments/Knapen_AOT/AOT_stimuli/rescaled_final/2095_fw.mp4	0.0	276.38378834724426	
59	261.4559864997864	fix_post	2		12	57.0	2.5	/experiments/Knapen_AOT/AOT_stimuli/rescaled_final/2095_fw.mp4	0.0	277.7024440765381	0.09984683990478516
60	261.55583333969116	fix_pre	0		120	58.0	2.5	/experiments/Knapen_AOT/AOT_stimuli/rescaled_final/0444_fw.mp4	0.0	277.80229091644287	1.008497953414917
60	261.7394325733185	pulse	0	t		58.0	2.5	/experiments/Knapen_AOT/AOT_stimuli/rescaled_final/0444_fw.mp4	0.0	277.9858901500702	
60	262.5643312931061	movie	1		280	58.0	2.5	/experiments/Knapen_AOT/AOT_stimuli/rescaled_final/0444_fw.mp4	0.0	278.8107888698578	2.492072582244873
60	263.3373372554779	pulse	1	t		58.0	2.5	/experiments/Knapen_AOT/AOT_stimuli/rescaled_final/0444_fw.mp4	0.0	279.5837948322296	
60	264.9378819465637	pulse	1	t		58.0	2.5	/experiments/Knapen_AOT/AOT_stimuli/rescaled_final/0444_fw.mp4	0.0	281.18433952331543	
60	265.05640387535095	fix_post	2		12	58.0	2.5	/experiments/Knapen_AOT/AOT_stimuli/rescaled_final/0444_fw.mp4	0.0	281.30286145210266	0.10000133514404297
61	265.156405210495	fix_pre	0		119	59.0	2.5	/experiments/Knapen_AOT/AOT_stimuli/rescaled_final/0544_fw.mp4	0.0	281.4028627872467	1.0084903240203857
61	266.1648955345154	movie	1		282	59.0	2.5	/experiments/Knapen_AOT/AOT_stimuli/rescaled_final/0544_fw.mp4	0.0	282.4113531112671	2.492030382156372
61	266.5382535457611	pulse	1	t		59.0	2.5	/experiments/Knapen_AOT/AOT_stimuli/rescaled_final/0544_fw.mp4	0.0	282.7847111225128	
61	268.1390583515167	pulse	1	t		59.0	2.5	/experiments/Knapen_AOT/AOT_stimuli/rescaled_final/0544_fw.mp4	0.0	284.38551592826843	
61	268.65692591667175	fix_post	2		12	59.0	2.5	/experiments/Knapen_AOT/AOT_stimuli/rescaled_final/0544_fw.mp4	0.0	284.90338349342346	0.10001349449157715
62	268.75693941116333	fix_pre	0		119	60.0	2.5	/experiments/Knapen_AOT/AOT_stimuli/rescaled_final/0950_rv.mp4	0.0	285.00339698791504	1.0001301765441895
62	269.7406542301178	pulse	0	t		60.0	2.5	/experiments/Knapen_AOT/AOT_stimuli/rescaled_final/0950_rv.mp4	0.0	285.9871118068695	
62	269.7570695877075	movie	1		291	60.0	2.5	/experiments/Knapen_AOT/AOT_stimuli/rescaled_final/0950_rv.mp4	0.0	286.00352716445923	2.5004055500030518
62	271.3390471935272	pulse	1	t		60.0	2.5	/experiments/Knapen_AOT/AOT_stimuli/rescaled_final/0950_rv.mp4	0.0	287.58550477027893	
62	272.25747513771057	fix_post	2		12	60.0	2.5	/experiments/Knapen_AOT/AOT_stimuli/rescaled_final/0950_rv.mp4	0.0	288.5039327144623	0.09999966621398926
63	272.35747480392456	fix_pre	0		120	61.0	2.5	/experiments/Knapen_AOT/AOT_stimuli/rescaled_final/1200_rv.mp4	0.0	288.60393238067627	1.008495807647705
63	272.94152998924255	pulse	0	t		61.0	2.5	/experiments/Knapen_AOT/AOT_stimuli/rescaled_final/1200_rv.mp4	0.0	289.18798756599426	
63	273.36597061157227	movie	1		278	61.0	2.5	/experiments/Knapen_AOT/AOT_stimuli/rescaled_final/1200_rv.mp4	0.0	289.612428188324	2.492023468017578
63	274.5415301322937	pulse	1	t		61.0	2.5	/experiments/Knapen_AOT/AOT_stimuli/rescaled_final/1200_rv.mp4	0.0	290.7879877090454	
63	275.85799407958984	fix_post	2		12	61.0	2.5	/experiments/Knapen_AOT/AOT_stimuli/rescaled_final/1200_rv.mp4	0.0	292.10445165634155	0.1000220775604248
64	275.95801615715027	fix_pre	0		120	62.0	2.5	/experiments/Knapen_AOT/AOT_stimuli/rescaled_final/0632_rv.mp4	0.0	292.204473733902	1.0085113048553467
64	276.14158177375793	pulse	0	t		62.0	2.5	/experiments/Knapen_AOT/AOT_stimuli/rescaled_final/0632_rv.mp4	0.0	292.38803935050964	
64	276.9665274620056	movie	1		287	62.0	2.5	/experiments/Knapen_AOT/AOT_stimuli/rescaled_final/0632_rv.mp4	0.0	293.2129850387573	2.492006778717041
64	277.7399504184723	pulse	1	t		62.0	2.5	/experiments/Knapen_AOT/AOT_stimuli/rescaled_final/0632_rv.mp4	0.0	293.986407995224	
64	279.34024953842163	pulse	1	t		62.0	2.5	/experiments/Knapen_AOT/AOT_stimuli/rescaled_final/0632_rv.mp4	0.0	295.58670711517334	
64	279.45853424072266	fix_post	2		12	62.0	2.5	/experiments/Knapen_AOT/AOT_stimuli/rescaled_final/0632_rv.mp4	0.0	295.70499181747437	0.10002326965332031
65	279.558557510376	fix_pre	0		120	63.0	2.5	blank	1.0	295.8050150871277	1.0001564025878906
65	280.55871391296387	movie	1		300	63.0	2.5	blank	1.0	296.8051714897156	2.50036358833313
65	280.94280982017517	pulse	1	t		63.0	2.5	blank	1.0	297.1892673969269	
65	282.5425236225128	pulse	1	t		63.0	2.5	blank	1.0	298.7889811992645	
65	283.059077501297	fix_post	2		12	63.0	2.5	blank	1.0	299.3055350780487	0.10012412071228027
66	283.1592016220093	fix_pre	0		119	64.0	2.5	/experiments/Knapen_AOT/AOT_stimuli/rescaled_final/0036_rv.mp4	0.0	299.405659198761	1.0002350807189941
66	284.1359257698059	pulse	0	t		64.0	2.5	/experiments/Knapen_AOT/AOT_stimuli/rescaled_final/0036_rv.mp4	0.0	300.3823833465576	
66	284.15943670272827	movie	1		278	64.0	2.5	/experiments/Knapen_AOT/AOT_stimuli/rescaled_final/0036_rv.mp4	0.0	300.40589427948	2.500183582305908
66	285.7361671924591	pulse	1	t		64.0	2.5	/experiments/Knapen_AOT/AOT_stimuli/rescaled_final/0036_rv.mp4	0.0	301.9826247692108	
66	286.6596202850342	fix_post	2		12	64.0	2.5	/experiments/Knapen_AOT/AOT_stimuli/rescaled_final/0036_rv.mp4	0.0	302.9060778617859	0.1000223159790039
67	286.7596426010132	fix_pre	0		120	65.0	2.5	/experiments/Knapen_AOT/AOT_stimuli/rescaled_final/1413_fw.mp4	0.0	303.0061001777649	1.0084924697875977
67	287.3351628780365	pulse	0	t		65.0	2.5	/experiments/Knapen_AOT/AOT_stimuli/rescaled_final/1413_fw.mp4	0.0	303.5816204547882	
67	287.7681350708008	movie	1		277	65.0	2.5	/experiments/Knapen_AOT/AOT_stimuli/rescaled_final/1413_fw.mp4	0.0	304.0145926475525	2.4920341968536377
67	288.93533968925476	pulse	1	t		65.0	2.5	/experiments/Knapen_AOT/AOT_stimuli/rescaled_final/1413_fw.mp4	0.0	305.18179726600647	
67	290.2601692676544	fix_post	2		12	65.0	2.5	/experiments/Knapen_AOT/AOT_stimuli/rescaled_final/1413_fw.mp4	0.0	306.5066268444061	0.10001635551452637
68	290.36018562316895	fix_pre	0		120	66.0	2.5	/experiments/Knapen_AOT/AOT_stimuli/rescaled_final/0711_rv.mp4	0.0	306.60664319992065	1.008526086807251
68	290.535427570343	pulse	0	t		66.0	2.5	/experiments/Knapen_AOT/AOT_stimuli/rescaled_final/0711_rv.mp4	0.0	306.7818851470947	
68	291.3687117099762	movie	1		278	66.0	2.5	/experiments/Knapen_AOT/AOT_stimuli/rescaled_final/0711_rv.mp4	0.0	307.6151692867279	2.4919614791870117
68	292.13584208488464	pulse	1	t		66.0	2.5	/experiments/Knapen_AOT/AOT_stimuli/rescaled_final/0711_rv.mp4	0.0	308.38229966163635	
68	293.7359097003937	pulse	1	t		66.0	2.5	/experiments/Knapen_AOT/AOT_stimuli/rescaled_final/0711_rv.mp4	0.0	309.9823672771454	
68	293.8606731891632	fix_post	2		12	66.0	2.5	/experiments/Knapen_AOT/AOT_stimuli/rescaled_final/0711_rv.mp4	0.0	310.1071307659149	0.1000833511352539
69	293.96075654029846	fix_pre	0		120	67.0	2.5	/experiments/Knapen_AOT/AOT_stimuli/rescaled_final/0068_fw.mp4	0.0	310.20721411705017	1.0084786415100098
69	294.9692351818085	movie	1		284	67.0	2.5	/experiments/Knapen_AOT/AOT_stimuli/rescaled_final/0068_fw.mp4	0.0	311.2156927585602	2.492058515548706
69	295.3350257873535	pulse	1	t		67.0	2.5	/experiments/Knapen_AOT/AOT_stimuli/rescaled_final/0068_fw.mp4	0.0	311.5814833641052	
69	296.935777425766	pulse	1	t		67.0	2.5	/experiments/Knapen_AOT/AOT_stimuli/rescaled_final/0068_fw.mp4	0.0	313.1822350025177	
69	297.4612936973572	fix_post	2		12	67.0	2.5	/experiments/Knapen_AOT/AOT_stimuli/rescaled_final/0068_fw.mp4	0.0	313.7077512741089	0.0999903678894043
70	297.5612840652466	fix_pre	0		118	68.0	2.5	/experiments/Knapen_AOT/AOT_stimuli/rescaled_final/1512_fw.mp4	0.0	313.8077416419983	0.9918241500854492
70	298.53670740127563	pulse	0	t		68.0	2.5	/experiments/Knapen_AOT/AOT_stimuli/rescaled_final/1512_fw.mp4	0.0	314.78316497802734	
70	298.55310821533203	movie	1		287	68.0	2.5	/experiments/Knapen_AOT/AOT_stimuli/rescaled_final/1512_fw.mp4	0.0	314.79956579208374	2.50038480758667
70	300.1353826522827	pulse	1	t		68.0	2.5	/experiments/Knapen_AOT/AOT_stimuli/rescaled_final/1512_fw.mp4	0.0	316.3818402290344	
70	301.0534930229187	fix_post	2		12	68.0	2.5	/experiments/Knapen_AOT/AOT_stimuli/rescaled_final/1512_fw.mp4	0.0	317.2999505996704	0.10004734992980957
71	301.1535403728485	fix_pre	0		120	69.0	2.5	/experiments/Knapen_AOT/AOT_stimuli/rescaled_final/0409_rv.mp4	0.0	317.3999979496002	1.0084316730499268
71	301.7371542453766	pulse	0	t		69.0	2.5	/experiments/Knapen_AOT/AOT_stimuli/rescaled_final/0409_rv.mp4	0.0	317.9836118221283	
71	302.16197204589844	movie	1		285	69.0	2.5	/experiments/Knapen_AOT/AOT_stimuli/rescaled_final/0409_rv.mp4	0.0	318.40842962265015	2.4920156002044678
71	303.33522963523865	pulse	1	t		69.0	2.5	/experiments/Knapen_AOT/AOT_stimuli/rescaled_final/0409_rv.mp4	0.0	319.58168721199036	
71	304.6539876461029	fix_post	2		12	69.0	2.5	/experiments/Knapen_AOT/AOT_stimuli/rescaled_final/0409_rv.mp4	0.0	320.9004452228546	0.10003209114074707
72	304.75401973724365	fix_pre	0		120	70.0	2.5	blank	1.0	321.00047731399536	1.0001869201660156
72	304.93758749961853	pulse	0	t		70.0	2.5	blank	1.0	321.18404507637024	
72	305.75420665740967	movie	1		300	70.0	2.5	blank	1.0	322.0006642341614	2.5004830360412598
72	306.53786540031433	pulse	1	t		70.0	2.5	blank	1.0	322.78432297706604	
72	308.1381130218506	pulse	1	t		70.0	2.5	blank	1.0	324.3845705986023	
72	308.2546896934509	fix_post	2		12	70.0	2.5	blank	1.0	324.50114727020264	0.0999150276184082
73	308.35460472106934	fix_pre	0		120	71.0	2.5	/experiments/Knapen_AOT/AOT_stimuli/rescaled_final/2043_rv.mp4	0.0	324.60106229782104	1.008455514907837
73	309.3630602359772	movie	1		274	71.0	2.5	/experiments/Knapen_AOT/AOT_stimuli/rescaled_final/2043_rv.mp4	0.0	325.6095178127289	2.49202299118042
73	309.73640990257263	pulse	1	t		71.0	2.5	/experiments/Knapen_AOT/AOT_stimuli/rescaled_final/2043_rv.mp4	0.0	325.98286747932434	
73	311.336617231369	pulse	1	t		71.0	2.5	/experiments/Knapen_AOT/AOT_stimuli/rescaled_final/2043_rv.mp4	0.0	327.5830748081207	
73	311.8550832271576	fix_post	2		12	71.0	2.5	/experiments/Knapen_AOT/AOT_stimuli/rescaled_final/2043_rv.mp4	0.0	328.1015408039093	0.10007452964782715
74	311.9551577568054	fix_pre	0		119	72.0	2.5	/experiments/Knapen_AOT/AOT_stimuli/rescaled_final/1340_fw.mp4	0.0	328.20161533355713	1.0000991821289062
74	312.9388515949249	pulse	0	t		72.0	2.5	/experiments/Knapen_AOT/AOT_stimuli/rescaled_final/1340_fw.mp4	0.0	329.18530917167664	
74	312.9552569389343	movie	1		285	72.0	2.5	/experiments/Knapen_AOT/AOT_stimuli/rescaled_final/1340_fw.mp4	0.0	329.20171451568604	2.500445604324341
74	314.537556886673	pulse	1	t		72.0	2.5	/experiments/Knapen_AOT/AOT_stimuli/rescaled_final/1340_fw.mp4	0.0	330.7840144634247	
74	315.45570254325867	fix_post	2		12	72.0	2.5	/experiments/Knapen_AOT/AOT_stimuli/rescaled_final/1340_fw.mp4	0.0	331.7021601200104	0.0999763011932373
75	315.5556788444519	fix_pre	0		120	73.0	2.5	/experiments/Knapen_AOT/AOT_stimuli/rescaled_final/2062_rv.mp4	0.0	331.8021364212036	1.008573055267334
75	316.13925290107727	pulse	0	t		73.0	2.5	/experiments/Knapen_AOT/AOT_stimuli/rescaled_final/2062_rv.mp4	0.0	332.385710477829	
75	316.56425189971924	movie	1		288	73.0	2.5	/experiments/Knapen_AOT/AOT_stimuli/rescaled_final/2062_rv.mp4	0.0	332.81070947647095	2.4918949604034424
75	317.7378261089325	pulse	1	t		73.0	2.5	/experiments/Knapen_AOT/AOT_stimuli/rescaled_final/2062_rv.mp4	0.0	333.9842836856842	
75	319.0561468601227	fix_post	2		12	73.0	2.5	/experiments/Knapen_AOT/AOT_stimuli/rescaled_final/2062_rv.mp4	0.0	335.3026044368744	0.10003542900085449
76	319.15618228912354	fix_pre	0		120	74.0	2.5	/experiments/Knapen_AOT/AOT_stimuli/rescaled_final/0623_fw.mp4	0.0	335.40263986587524	1.0085601806640625
76	319.33975481987	pulse	0	t		74.0	2.5	/experiments/Knapen_AOT/AOT_stimuli/rescaled_final/0623_fw.mp4	0.0	335.5862123966217	
76	320.1647424697876	movie	1		284	74.0	2.5	/experiments/Knapen_AOT/AOT_stimuli/rescaled_final/0623_fw.mp4	0.0	336.4112000465393	2.4920294284820557
76	320.9380509853363	pulse	1	t		74.0	2.5	/experiments/Knapen_AOT/AOT_stimuli/rescaled_final/0623_fw.mp4	0.0	337.184508562088	
76	322.53841519355774	pulse	1	t		74.0	2.5	/experiments/Knapen_AOT/AOT_stimuli/rescaled_final/0623_fw.mp4	0.0	338.78487277030945	
76	322.65677189826965	fix_post	2		12	74.0	2.5	/experiments/Knapen_AOT/AOT_stimuli/rescaled_final/0623_fw.mp4	0.0	338.90322947502136	0.09999585151672363
77	322.7567677497864	fix_pre	0		120	75.0	2.5	blank	1.0	339.0032253265381	1.000091791152954
77	323.75685954093933	movie	1		300	75.0	2.5	blank	1.0	340.00331711769104	2.5003767013549805
77	324.14049553871155	pulse	1	t		75.0	2.5	blank	1.0	340.38695311546326	
77	325.7407088279724	pulse	1	t		75.0	2.5	blank	1.0	341.9871664047241	
77	326.2572362422943	fix_post	2		12	75.0	2.5	blank	1.0	342.503693819046	0.10000276565551758
78	326.35723900794983	fix_pre	0		119	76.0	2.5	/experiments/Knapen_AOT/AOT_stimuli/rescaled_final/0136_fw.mp4	0.0	342.60369658470154	1.0001835823059082
78	327.3410151004791	pulse	0	t		76.0	2.5	/experiments/Knapen_AOT/AOT_stimuli/rescaled_final/0136_fw.mp4	0.0	343.58747267723083	
78	327.35742259025574	movie	1		264	76.0	2.5	/experiments/Knapen_AOT/AOT_stimuli/rescaled_final/0136_fw.mp4	0.0	343.60388016700745	2.500420570373535
78	328.939820766449	pulse	1	t		76.0	2.5	/experiments/Knapen_AOT/AOT_stimuli/rescaled_final/0136_fw.mp4	0.0	345.1862783432007	
78	329.8578431606293	fix_post	2		12	76.0	2.5	/experiments/Knapen_AOT/AOT_stimuli/rescaled_final/0136_fw.mp4	0.0	346.104300737381	0.10003805160522461
79	329.9578812122345	fix_pre	0		120	77.0	2.5	/experiments/Knapen_AOT/AOT_stimuli/rescaled_final/0838_rv.mp4	0.0	346.2043387889862	1.0084211826324463
79	330.54143238067627	pulse	0	t		77.0	2.5	/experiments/Knapen_AOT/AOT_stimuli/rescaled_final/0838_rv.mp4	0.0	346.787889957428	
79	330.96630239486694	movie	1		280	77.0	2.5	/experiments/Knapen_AOT/AOT_stimuli/rescaled_final/0838_rv.mp4	0.0	347.21275997161865	2.4920871257781982
79	332.1400513648987	pulse	1	t		77.0	2.5	/experiments/Knapen_AOT/AOT_stimuli/rescaled_final/0838_rv.mp4	0.0	348.3865089416504	
79	333.45838952064514	fix_post	2		12	77.0	2.5	/experiments/Knapen_AOT/AOT_stimuli/rescaled_final/0838_rv.mp4	0.0	349.70484709739685	0.09995412826538086
80	333.5583436489105	fix_pre	0		120	78.0	2.5	/experiments/Knapen_AOT/AOT_stimuli/rescaled_final/1576_fw.mp4	0.0	349.80480122566223	1.008526086807251
80	333.7419934272766	pulse	0	t		78.0	2.5	/experiments/Knapen_AOT/AOT_stimuli/rescaled_final/1576_fw.mp4	0.0	349.9884510040283	
80	334.5668697357178	movie	1		271	78.0	2.5	/experiments/Knapen_AOT/AOT_stimuli/rescaled_final/1576_fw.mp4	0.0	350.8133273124695	2.4920411109924316
80	335.3404541015625	pulse	1	t		78.0	2.5	/experiments/Knapen_AOT/AOT_stimuli/rescaled_final/1576_fw.mp4	0.0	351.5869116783142	
80	336.9405438899994	pulse	1	t		78.0	2.5	/experiments/Knapen_AOT/AOT_stimuli/rescaled_final/1576_fw.mp4	0.0	353.1870014667511	
80	337.0589108467102	fix_post	2		12	78.0	2.5	/experiments/Knapen_AOT/AOT_stimuli/rescaled_final/1576_fw.mp4	0.0	353.3053684234619	0.10004091262817383
81	337.1589517593384	fix_pre	0		120	79.0	2.5	/experiments/Knapen_AOT/AOT_stimuli/rescaled_final/0036_fw.mp4	0.0	353.4054093360901	1.0084209442138672
81	338.16737270355225	movie	1		282	79.0	2.5	/experiments/Knapen_AOT/AOT_stimuli/rescaled_final/0036_fw.mp4	0.0	354.41383028030396	2.4921672344207764
81	338.5409154891968	pulse	1	t		79.0	2.5	/experiments/Knapen_AOT/AOT_stimuli/rescaled_final/0036_fw.mp4	0.0	354.7873730659485	
81	340.14067482948303	pulse	1	t		79.0	2.5	/experiments/Knapen_AOT/AOT_stimuli/rescaled_final/0036_fw.mp4	0.0	356.38713240623474	
81	340.659539937973	fix_post	2		12	79.0	2.5	/experiments/Knapen_AOT/AOT_stimuli/rescaled_final/0036_fw.mp4	0.0	356.90599751472473	0.09990072250366211
82	340.7594406604767	fix_pre	0		119	80.0	2.5	/experiments/Knapen_AOT/AOT_stimuli/rescaled_final/0711_fw.mp4	0.0	357.0058982372284	1.008568286895752
82	341.73540329933167	pulse	0	t		80.0	2.5	/experiments/Knapen_AOT/AOT_stimuli/rescaled_final/0711_fw.mp4	0.0	357.9818608760834	
82	341.76800894737244	movie	1		285	80.0	2.5	/experiments/Knapen_AOT/AOT_stimuli/rescaled_final/0711_fw.mp4	0.0	358.01446652412415	2.491978645324707
82	343.34379029273987	pulse	1	t		80.0	2.5	/experiments/Knapen_AOT/AOT_stimuli/rescaled_final/0711_fw.mp4	0.0	359.5902478694916	
82	344.25998759269714	fix_post	2		12	80.0	2.5	/experiments/Knapen_AOT/AOT_stimuli/rescaled_final/0711_fw.mp4	0.0	360.50644516944885	0.10000872611999512
83	344.35999631881714	fix_pre	0		120	81.0	2.5	/experiments/Knapen_AOT/AOT_stimuli/rescaled_final/1198_fw.mp4	0.0	360.60645389556885	1.0084619522094727
83	344.9356207847595	pulse	0	t		81.0	2.5	/experiments/Knapen_AOT/AOT_stimuli/rescaled_final/1198_fw.mp4	0.0	361.18207836151123	
83	345.3684582710266	movie	1		286	81.0	2.5	/experiments/Knapen_AOT/AOT_stimuli/rescaled_final/1198_fw.mp4	0.0	361.6149158477783	2.4922449588775635
83	346.53558588027954	pulse	1	t		81.0	2.5	/experiments/Knapen_AOT/AOT_stimuli/rescaled_final/1198_fw.mp4	0.0	362.78204345703125	
83	347.8607032299042	fix_post	2		12	81.0	2.5	/experiments/Knapen_AOT/AOT_stimuli/rescaled_final/1198_fw.mp4	0.0	364.1071608066559	0.09982800483703613
84	347.9605312347412	fix_pre	0		120	82.0	2.5	blank	1.0	364.2069888114929	1.0001161098480225
84	348.13614678382874	pulse	0	t		82.0	2.5	blank	1.0	364.38260436058044	
84	348.96064734458923	movie	1		300	82.0	2.5	blank	1.0	365.20710492134094	2.500394105911255
84	349.7363655567169	pulse	1	t		82.0	2.5	blank	1.0	365.9828231334686	
84	351.3364522457123	pulse	1	t		82.0	2.5	blank	1.0	367.582909822464	
84	351.4610414505005	fix_post	2		12	82.0	2.5	blank	1.0	367.7074990272522	0.1000669002532959
85	351.5611083507538	fix_pre	0		120	83.0	2.5	/experiments/Knapen_AOT/AOT_stimuli/rescaled_final/1540_fw.mp4	0.0	367.8075659275055	1.0084640979766846
85	352.56957244873047	movie	1		280	83.0	2.5	/experiments/Knapen_AOT/AOT_stimuli/rescaled_final/1540_fw.mp4	0.0	368.8160300254822	2.491992473602295
85	352.93644881248474	pulse	1	t		83.0	2.5	/experiments/Knapen_AOT/AOT_stimuli/rescaled_final/1540_fw.mp4	0.0	369.18290638923645	
85	354.5367274284363	pulse	1	t		83.0	2.5	/experiments/Knapen_AOT/AOT_stimuli/rescaled_final/1540_fw.mp4	0.0	370.783185005188	
85	355.06156492233276	fix_post	2		12	83.0	2.5	/experiments/Knapen_AOT/AOT_stimuli/rescaled_final/1540_fw.mp4	0.0	371.3080224990845	0.09999442100524902
87	355.161559343338	stim	0		1716					371.4080169200897	14.302304744720459
87	356.13696551322937	pulse	0	t						372.3834230899811	
87	357.73750162124634	pulse	0	t						373.98395919799805	
87	359.3377182483673	pulse	0	t						375.584175825119	
87	360.9379963874817	pulse	0	t						377.1844539642334	
87	362.5381736755371	pulse	0	t						378.7846312522888	
87	364.13812613487244	pulse	0	t						380.38458371162415	
87	365.73839044570923	pulse	0	t						381.98484802246094	
87	367.3386604785919	pulse	0	t						383.5851180553436	
87	368.9388689994812	pulse	0	t						385.1853265762329	
