trial_nr	onset	event_type	phase	response	nr_frames	movie_index	movie_duration	movie_file	blank	onset_abs	duration
0	0.20835304260253906	stim	0		3					16.670274019241333	0.025041818618774414
0	0.2253429889678955	response	0	space						16.68726396560669	
1	0.23339486122131348	stim	0		4663					16.695315837860107	38.874988079071045
1	39.098464012145996	pulse	0	t						55.56038498878479	
1	39.10838294029236	stim	1		1715					55.57030391693115	14.299560070037842
1	40.689470052719116	pulse	1	t						57.15139102935791	
1	42.289756059646606	pulse	1	t						58.7516770362854	
1	43.890018939971924	pulse	1	t						60.35193991661072	
1	45.4902720451355	pulse	1	t						61.95219302177429	
1	47.090431928634644	pulse	1	t						63.55235290527344	
1	48.69069290161133	pulse	1	t						65.15261387825012	
1	50.29099893569946	pulse	1	t						66.75291991233826	
1	51.891183853149414	pulse	1	t						68.35310482978821	
2	53.4079430103302	fix_pre	0		11	0.0	2.5	/experiments/knapen_AOT/AOT_stimuli/rescaled_final/1264_fw.mp4	0.0	69.869863986969	0.10009098052978516
2	53.49142003059387	pulse	0	t		0.0	2.5	/experiments/knapen_AOT/AOT_stimuli/rescaled_final/1264_fw.mp4	0.0	69.95334100723267	
2	53.508033990859985	movie	1		242	0.0	2.5	/experiments/knapen_AOT/AOT_stimuli/rescaled_final/1264_fw.mp4	0.0	69.96995496749878	2.500262975692749
2	55.09568691253662	pulse	1	t		0.0	2.5	/experiments/knapen_AOT/AOT_stimuli/rescaled_final/1264_fw.mp4	0.0	71.55760788917542	
2	56.008296966552734	fix_post	2		12	0.0	2.5	/experiments/knapen_AOT/AOT_stimuli/rescaled_final/1264_fw.mp4	0.0	72.47021794319153	0.09997797012329102
3	56.108274936676025	fix_pre	0		120	1.0	2.5	/experiments/knapen_AOT/AOT_stimuli/rescaled_final/0294_rv.mp4	0.0	72.57019591331482	1.0001819133758545
3	56.69195103645325	pulse	0	t		1.0	2.5	/experiments/knapen_AOT/AOT_stimuli/rescaled_final/0294_rv.mp4	0.0	73.15387201309204	
3	57.10845685005188	movie	1		243	1.0	2.5	/experiments/knapen_AOT/AOT_stimuli/rescaled_final/0294_rv.mp4	0.0	73.57037782669067	2.5006330013275146
3	58.29231095314026	pulse	1	t		1.0	2.5	/experiments/knapen_AOT/AOT_stimuli/rescaled_final/0294_rv.mp4	0.0	74.75423192977905	
3	59.609089851379395	fix_post	2		12	1.0	2.5	/experiments/knapen_AOT/AOT_stimuli/rescaled_final/0294_rv.mp4	0.0	76.07101082801819	0.09979701042175293
4	59.70888686180115	fix_pre	0		120	2.0	2.5	/experiments/knapen_AOT/AOT_stimuli/rescaled_final/1557_fw.mp4	0.0	76.17080783843994	1.0000929832458496
4	59.89234900474548	pulse	0	t		2.0	2.5	/experiments/knapen_AOT/AOT_stimuli/rescaled_final/1557_fw.mp4	0.0	76.35426998138428	
4	60.708979845047	movie	1		243	2.0	2.5	/experiments/knapen_AOT/AOT_stimuli/rescaled_final/1557_fw.mp4	0.0	77.17090082168579	2.5005152225494385
4	61.492756843566895	pulse	1	t		2.0	2.5	/experiments/knapen_AOT/AOT_stimuli/rescaled_final/1557_fw.mp4	0.0	77.95467782020569	
4	63.09291386604309	pulse	1	t		2.0	2.5	/experiments/knapen_AOT/AOT_stimuli/rescaled_final/1557_fw.mp4	0.0	79.55483484268188	
4	63.209495067596436	fix_post	2		12	2.0	2.5	/experiments/knapen_AOT/AOT_stimuli/rescaled_final/1557_fw.mp4	0.0	79.67141604423523	0.09992384910583496
5	63.30941891670227	fix_pre	0		120	3.0	2.5	/experiments/knapen_AOT/AOT_stimuli/rescaled_final/1504_rv.mp4	0.0	79.77133989334106	1.000093936920166
5	64.30951285362244	movie	1		243	3.0	2.5	/experiments/knapen_AOT/AOT_stimuli/rescaled_final/1504_rv.mp4	0.0	80.77143383026123	2.4920451641082764
5	64.69360899925232	pulse	1	t		3.0	2.5	/experiments/knapen_AOT/AOT_stimuli/rescaled_final/1504_rv.mp4	0.0	81.15552997589111	
5	66.29333996772766	pulse	1	t		3.0	2.5	/experiments/knapen_AOT/AOT_stimuli/rescaled_final/1504_rv.mp4	0.0	82.75526094436646	
5	66.80155801773071	fix_post	2		12	3.0	2.5	/experiments/knapen_AOT/AOT_stimuli/rescaled_final/1504_rv.mp4	0.0	83.2634789943695	0.09998703002929688
6	66.90154504776001	fix_pre	0		120	4.0	2.5	/experiments/knapen_AOT/AOT_stimuli/rescaled_final/2135_fw.mp4	0.0	83.3634660243988	1.000288963317871
6	67.89367485046387	pulse	0	t		4.0	2.5	/experiments/knapen_AOT/AOT_stimuli/rescaled_final/2135_fw.mp4	0.0	84.35559582710266	
6	67.90183401107788	movie	1		244	4.0	2.5	/experiments/knapen_AOT/AOT_stimuli/rescaled_final/2135_fw.mp4	0.0	84.36375498771667	2.5086660385131836
6	69.49414587020874	pulse	1	t		4.0	2.5	/experiments/knapen_AOT/AOT_stimuli/rescaled_final/2135_fw.mp4	0.0	85.95606684684753	
6	70.41050004959106	fix_post	2		12	4.0	2.5	/experiments/knapen_AOT/AOT_stimuli/rescaled_final/2135_fw.mp4	0.0	86.87242102622986	0.09997081756591797
7	70.51047086715698	fix_pre	0		120	5.0	2.5	blank	1.0	86.97239184379578	1.0001120567321777
7	71.09403586387634	pulse	0	t		5.0	2.5	blank	1.0	87.55595684051514	
7	71.51058292388916	movie	1		300	5.0	2.5	blank	1.0	87.97250390052795	2.5004160404205322
7	72.6942629814148	pulse	1	t		5.0	2.5	blank	1.0	89.15618395805359	
7	74.01099896430969	fix_post	2		12	5.0	2.5	blank	1.0	90.47291994094849	0.10001707077026367
8	74.11101603507996	fix_pre	0		120	6.0	2.5	/experiments/knapen_AOT/AOT_stimuli/rescaled_final/0899_fw.mp4	0.0	90.57293701171875	1.000119924545288
8	74.29453492164612	pulse	0	t		6.0	2.5	/experiments/knapen_AOT/AOT_stimuli/rescaled_final/0899_fw.mp4	0.0	90.75645589828491	
8	75.11113595962524	movie	1		242	6.0	2.5	/experiments/knapen_AOT/AOT_stimuli/rescaled_final/0899_fw.mp4	0.0	91.57305693626404	2.5005879402160645
8	75.887286901474	pulse	1	t		6.0	2.5	/experiments/knapen_AOT/AOT_stimuli/rescaled_final/0899_fw.mp4	0.0	92.3492078781128	
8	77.4950339794159	pulse	1	t		6.0	2.5	/experiments/knapen_AOT/AOT_stimuli/rescaled_final/0899_fw.mp4	0.0	93.95695495605469	
8	77.61172389984131	fix_post	2		12	6.0	2.5	/experiments/knapen_AOT/AOT_stimuli/rescaled_final/0899_fw.mp4	0.0	94.0736448764801	0.09981703758239746
9	77.7115409374237	fix_pre	0		120	7.0	2.5	/experiments/knapen_AOT/AOT_stimuli/rescaled_final/1029_fw.mp4	0.0	94.1734619140625	1.0001099109649658
9	78.71165084838867	movie	1		241	7.0	2.5	/experiments/knapen_AOT/AOT_stimuli/rescaled_final/1029_fw.mp4	0.0	95.17357182502747	2.4921979904174805
9	79.09602499008179	pulse	1	t		7.0	2.5	/experiments/knapen_AOT/AOT_stimuli/rescaled_final/1029_fw.mp4	0.0	95.55794596672058	
9	80.68813586235046	pulse	1	t		7.0	2.5	/experiments/knapen_AOT/AOT_stimuli/rescaled_final/1029_fw.mp4	0.0	97.15005683898926	
9	81.20384883880615	fix_post	2		12	7.0	2.5	/experiments/knapen_AOT/AOT_stimuli/rescaled_final/1029_fw.mp4	0.0	97.66576981544495	0.09989809989929199
10	81.30374693870544	fix_pre	0		119	8.0	2.5	/experiments/knapen_AOT/AOT_stimuli/rescaled_final/0718_fw.mp4	0.0	97.76566791534424	0.9918451309204102
10	82.287348985672	pulse	0	t		8.0	2.5	/experiments/knapen_AOT/AOT_stimuli/rescaled_final/0718_fw.mp4	0.0	98.74926996231079	
10	82.29559206962585	movie	1		244	8.0	2.5	/experiments/knapen_AOT/AOT_stimuli/rescaled_final/0718_fw.mp4	0.0	98.75751304626465	2.5086939334869385
10	83.88801383972168	pulse	1	t		8.0	2.5	/experiments/knapen_AOT/AOT_stimuli/rescaled_final/0718_fw.mp4	0.0	100.34993481636047	
10	84.8042860031128	fix_post	2		12	8.0	2.5	/experiments/knapen_AOT/AOT_stimuli/rescaled_final/0718_fw.mp4	0.0	101.26620697975159	0.09997797012329102
11	84.90426397323608	fix_pre	0		117	9.0	2.5	/experiments/knapen_AOT/AOT_stimuli/rescaled_final/1959_rv.mp4	0.0	101.36618494987488	1.0001959800720215
11	85.48791098594666	pulse	0	t		9.0	2.5	/experiments/knapen_AOT/AOT_stimuli/rescaled_final/1959_rv.mp4	0.0	101.94983196258545	
11	85.9044599533081	movie	1		242	9.0	2.5	/experiments/knapen_AOT/AOT_stimuli/rescaled_final/1959_rv.mp4	0.0	102.3663809299469	2.5005249977111816
11	87.08818697929382	pulse	1	t		9.0	2.5	/experiments/knapen_AOT/AOT_stimuli/rescaled_final/1959_rv.mp4	0.0	103.55010795593262	
11	88.40498495101929	fix_post	2		12	9.0	2.5	/experiments/knapen_AOT/AOT_stimuli/rescaled_final/1959_rv.mp4	0.0	104.86690592765808	0.09983301162719727
12	88.50481796264648	fix_pre	0		120	10.0	2.5	/experiments/knapen_AOT/AOT_stimuli/rescaled_final/0016_fw.mp4	0.0	104.96673893928528	1.0001099109649658
12	88.68830394744873	pulse	0	t		10.0	2.5	/experiments/knapen_AOT/AOT_stimuli/rescaled_final/0016_fw.mp4	0.0	105.15022492408752	
12	89.50492787361145	movie	1		243	10.0	2.5	/experiments/knapen_AOT/AOT_stimuli/rescaled_final/0016_fw.mp4	0.0	105.96684885025024	2.500383138656616
12	90.28865003585815	pulse	1	t		10.0	2.5	/experiments/knapen_AOT/AOT_stimuli/rescaled_final/0016_fw.mp4	0.0	106.75057101249695	
12	91.88861894607544	pulse	1	t		10.0	2.5	/experiments/knapen_AOT/AOT_stimuli/rescaled_final/0016_fw.mp4	0.0	108.35053992271423	
12	92.00531101226807	fix_post	2		12	10.0	2.5	/experiments/knapen_AOT/AOT_stimuli/rescaled_final/0016_fw.mp4	0.0	108.46723198890686	0.10006594657897949
13	92.10537695884705	fix_pre	0		120	11.0	2.5	/experiments/knapen_AOT/AOT_stimuli/rescaled_final/0006_fw.mp4	0.0	108.56729793548584	1.0001029968261719
13	93.10547995567322	movie	1		241	11.0	2.5	/experiments/knapen_AOT/AOT_stimuli/rescaled_final/0006_fw.mp4	0.0	109.56740093231201	2.4922239780426025
13	93.49037504196167	pulse	1	t		11.0	2.5	/experiments/knapen_AOT/AOT_stimuli/rescaled_final/0006_fw.mp4	0.0	109.95229601860046	
13	95.0892379283905	pulse	1	t		11.0	2.5	/experiments/knapen_AOT/AOT_stimuli/rescaled_final/0006_fw.mp4	0.0	111.5511589050293	
13	95.59770393371582	fix_post	2		12	11.0	2.5	/experiments/knapen_AOT/AOT_stimuli/rescaled_final/0006_fw.mp4	0.0	112.05962491035461	0.0998539924621582
14	95.69755792617798	fix_pre	0		120	12.0	2.5	blank	1.0	112.15947890281677	1.0001730918884277
14	96.68957185745239	pulse	0	t		12.0	2.5	blank	1.0	113.15149283409119	
14	96.6977310180664	movie	1		301	12.0	2.5	blank	1.0	113.1596519947052	2.508704900741577
14	98.28979706764221	pulse	1	t		12.0	2.5	blank	1.0	114.751718044281	
14	99.20643591880798	fix_post	2		12	12.0	2.5	blank	1.0	115.66835689544678	0.10005807876586914
15	99.30649399757385	fix_pre	0		120	13.0	2.5	/experiments/knapen_AOT/AOT_stimuli/rescaled_final/1236_fw.mp4	0.0	115.76841497421265	1.0001130104064941
15	99.89002895355225	pulse	0	t		13.0	2.5	/experiments/knapen_AOT/AOT_stimuli/rescaled_final/1236_fw.mp4	0.0	116.35194993019104	
15	100.30660700798035	movie	1		242	13.0	2.5	/experiments/knapen_AOT/AOT_stimuli/rescaled_final/1236_fw.mp4	0.0	116.76852798461914	2.5005030632019043
15	101.49032998085022	pulse	1	t		13.0	2.5	/experiments/knapen_AOT/AOT_stimuli/rescaled_final/1236_fw.mp4	0.0	117.95225095748901	
15	102.80711007118225	fix_post	2		12	13.0	2.5	/experiments/knapen_AOT/AOT_stimuli/rescaled_final/1236_fw.mp4	0.0	119.26903104782104	0.09983086585998535
16	102.90694093704224	fix_pre	0		120	14.0	2.5	/experiments/knapen_AOT/AOT_stimuli/rescaled_final/1910_rv.mp4	0.0	119.36886191368103	1.0001609325408936
16	103.09047985076904	pulse	0	t		14.0	2.5	/experiments/knapen_AOT/AOT_stimuli/rescaled_final/1910_rv.mp4	0.0	119.55240082740784	
16	103.90710186958313	movie	1		243	14.0	2.5	/experiments/knapen_AOT/AOT_stimuli/rescaled_final/1910_rv.mp4	0.0	120.36902284622192	2.5005571842193604
16	104.69086790084839	pulse	1	t		14.0	2.5	/experiments/knapen_AOT/AOT_stimuli/rescaled_final/1910_rv.mp4	0.0	121.15278887748718	
16	106.29080486297607	pulse	1	t		14.0	2.5	/experiments/knapen_AOT/AOT_stimuli/rescaled_final/1910_rv.mp4	0.0	122.75272583961487	
16	106.40765905380249	fix_post	2		12	14.0	2.5	/experiments/knapen_AOT/AOT_stimuli/rescaled_final/1910_rv.mp4	0.0	122.86958003044128	0.09983992576599121
17	106.50749897956848	fix_pre	0		120	15.0	2.5	/experiments/knapen_AOT/AOT_stimuli/rescaled_final/2101_rv.mp4	0.0	122.96941995620728	1.000114917755127
17	107.50761389732361	movie	1		242	15.0	2.5	/experiments/knapen_AOT/AOT_stimuli/rescaled_final/2101_rv.mp4	0.0	123.9695348739624	2.492051124572754
17	107.89177584648132	pulse	1	t		15.0	2.5	/experiments/knapen_AOT/AOT_stimuli/rescaled_final/2101_rv.mp4	0.0	124.35369682312012	
17	109.49142694473267	pulse	1	t		15.0	2.5	/experiments/knapen_AOT/AOT_stimuli/rescaled_final/2101_rv.mp4	0.0	125.95334792137146	
17	109.99966502189636	fix_post	2		12	15.0	2.5	/experiments/knapen_AOT/AOT_stimuli/rescaled_final/2101_rv.mp4	0.0	126.46158599853516	0.1000359058380127
18	110.09970092773438	fix_pre	0		120	16.0	2.5	/experiments/knapen_AOT/AOT_stimuli/rescaled_final/0890_fw.mp4	0.0	126.56162190437317	1.0000979900360107
18	111.09178900718689	pulse	0	t		16.0	2.5	/experiments/knapen_AOT/AOT_stimuli/rescaled_final/0890_fw.mp4	0.0	127.55370998382568	
18	111.09979891777039	movie	1		244	16.0	2.5	/experiments/knapen_AOT/AOT_stimuli/rescaled_final/0890_fw.mp4	0.0	127.56171989440918	2.5087199211120605
18	112.69331502914429	pulse	1	t		16.0	2.5	/experiments/knapen_AOT/AOT_stimuli/rescaled_final/0890_fw.mp4	0.0	129.15523600578308	
18	113.60851883888245	fix_post	2		12	16.0	2.5	/experiments/knapen_AOT/AOT_stimuli/rescaled_final/0890_fw.mp4	0.0	130.07043981552124	0.10010504722595215
19	113.7086238861084	fix_pre	0		120	17.0	2.5	/experiments/knapen_AOT/AOT_stimuli/rescaled_final/2105_fw.mp4	0.0	130.1705448627472	1.0000619888305664
19	114.29222393035889	pulse	0	t		17.0	2.5	/experiments/knapen_AOT/AOT_stimuli/rescaled_final/2105_fw.mp4	0.0	130.75414490699768	
19	114.70868587493896	movie	1		242	17.0	2.5	/experiments/knapen_AOT/AOT_stimuli/rescaled_final/2105_fw.mp4	0.0	131.17060685157776	2.50058913230896
19	115.89242601394653	pulse	1	t		17.0	2.5	/experiments/knapen_AOT/AOT_stimuli/rescaled_final/2105_fw.mp4	0.0	132.35434699058533	
19	117.20927500724792	fix_post	2		12	17.0	2.5	/experiments/knapen_AOT/AOT_stimuli/rescaled_final/2105_fw.mp4	0.0	133.67119598388672	0.0998220443725586
20	117.30909705162048	fix_pre	0		120	18.0	2.5	/experiments/knapen_AOT/AOT_stimuli/rescaled_final/2103_fw.mp4	0.0	133.77101802825928	1.0001499652862549
20	117.49270105361938	pulse	0	t		18.0	2.5	/experiments/knapen_AOT/AOT_stimuli/rescaled_final/2103_fw.mp4	0.0	133.95462203025818	
20	118.30924701690674	movie	1		242	18.0	2.5	/experiments/knapen_AOT/AOT_stimuli/rescaled_final/2103_fw.mp4	0.0	134.77116799354553	2.5005810260772705
20	119.09303689002991	pulse	1	t		18.0	2.5	/experiments/knapen_AOT/AOT_stimuli/rescaled_final/2103_fw.mp4	0.0	135.5549578666687	
20	120.69308304786682	pulse	1	t		18.0	2.5	/experiments/knapen_AOT/AOT_stimuli/rescaled_final/2103_fw.mp4	0.0	137.15500402450562	
20	120.80982804298401	fix_post	2		12	18.0	2.5	/experiments/knapen_AOT/AOT_stimuli/rescaled_final/2103_fw.mp4	0.0	137.2717490196228	0.09980583190917969
21	120.90963387489319	fix_pre	0		120	19.0	2.5	/experiments/knapen_AOT/AOT_stimuli/rescaled_final/0228_fw.mp4	0.0	137.37155485153198	1.0001230239868164
21	121.90975689888	movie	1		241	19.0	2.5	/experiments/knapen_AOT/AOT_stimuli/rescaled_final/0228_fw.mp4	0.0	138.3716778755188	2.49212908744812
21	122.29451298713684	pulse	1	t		19.0	2.5	/experiments/knapen_AOT/AOT_stimuli/rescaled_final/0228_fw.mp4	0.0	138.75643396377563	
21	123.89363503456116	pulse	1	t		19.0	2.5	/experiments/knapen_AOT/AOT_stimuli/rescaled_final/0228_fw.mp4	0.0	140.35555601119995	
21	124.40188598632812	fix_post	2		12	19.0	2.5	/experiments/knapen_AOT/AOT_stimuli/rescaled_final/0228_fw.mp4	0.0	140.86380696296692	0.09999799728393555
22	124.50188398361206	fix_pre	0		120	20.0	2.5	/experiments/knapen_AOT/AOT_stimuli/rescaled_final/0394_fw.mp4	0.0	140.96380496025085	1.0001120567321777
22	125.4939239025116	pulse	0	t		20.0	2.5	/experiments/knapen_AOT/AOT_stimuli/rescaled_final/0394_fw.mp4	0.0	141.9558448791504	
22	125.50199604034424	movie	1		243	20.0	2.5	/experiments/knapen_AOT/AOT_stimuli/rescaled_final/0394_fw.mp4	0.0	141.96391701698303	2.5087478160858154
22	127.09442400932312	pulse	1	t		20.0	2.5	/experiments/knapen_AOT/AOT_stimuli/rescaled_final/0394_fw.mp4	0.0	143.5563449859619	
22	128.01074385643005	fix_post	2		12	20.0	2.5	/experiments/knapen_AOT/AOT_stimuli/rescaled_final/0394_fw.mp4	0.0	144.47266483306885	0.09997916221618652
23	128.11072301864624	fix_pre	0		120	21.0	2.5	blank	1.0	144.57264399528503	1.0001258850097656
23	128.6943109035492	pulse	0	t		21.0	2.5	blank	1.0	145.156231880188	
23	129.110848903656	movie	1		300	21.0	2.5	blank	1.0	145.5727698802948	2.5003550052642822
23	130.2946949005127	pulse	1	t		21.0	2.5	blank	1.0	146.7566158771515	
23	131.6112039089203	fix_post	2		12	21.0	2.5	blank	1.0	148.07312488555908	0.10002899169921875
24	131.7112329006195	fix_pre	0		120	22.0	2.5	/experiments/knapen_AOT/AOT_stimuli/rescaled_final/1880_fw.mp4	0.0	148.1731538772583	1.0001931190490723
24	131.8948838710785	pulse	0	t		22.0	2.5	/experiments/knapen_AOT/AOT_stimuli/rescaled_final/1880_fw.mp4	0.0	148.35680484771729	
24	132.71142601966858	movie	1		243	22.0	2.5	/experiments/knapen_AOT/AOT_stimuli/rescaled_final/1880_fw.mp4	0.0	149.17334699630737	2.500537872314453
24	133.49516201019287	pulse	1	t		22.0	2.5	/experiments/knapen_AOT/AOT_stimuli/rescaled_final/1880_fw.mp4	0.0	149.95708298683167	
24	135.0951108932495	pulse	1	t		22.0	2.5	/experiments/knapen_AOT/AOT_stimuli/rescaled_final/1880_fw.mp4	0.0	151.5570318698883	
24	135.21196389198303	fix_post	2		12	22.0	2.5	/experiments/knapen_AOT/AOT_stimuli/rescaled_final/1880_fw.mp4	0.0	151.67388486862183	0.0998680591583252
25	135.31183195114136	fix_pre	0		120	23.0	2.5	/experiments/knapen_AOT/AOT_stimuli/rescaled_final/0325_fw.mp4	0.0	151.77375292778015	1.0000660419464111
25	136.31189799308777	movie	1		241	23.0	2.5	/experiments/knapen_AOT/AOT_stimuli/rescaled_final/0325_fw.mp4	0.0	152.77381896972656	2.492166042327881
25	136.7000720500946	pulse	1	t		23.0	2.5	/experiments/knapen_AOT/AOT_stimuli/rescaled_final/0325_fw.mp4	0.0	153.1619930267334	
25	138.28850388526917	pulse	1	t		23.0	2.5	/experiments/knapen_AOT/AOT_stimuli/rescaled_final/0325_fw.mp4	0.0	154.75042486190796	
25	138.80406403541565	fix_post	2		12	23.0	2.5	/experiments/knapen_AOT/AOT_stimuli/rescaled_final/0325_fw.mp4	0.0	155.26598501205444	0.09998393058776855
26	138.90404796600342	fix_pre	0		120	24.0	2.5	/experiments/knapen_AOT/AOT_stimuli/rescaled_final/1161_rv.mp4	0.0	155.3659689426422	1.0000700950622559
26	139.88847494125366	pulse	0	t		24.0	2.5	/experiments/knapen_AOT/AOT_stimuli/rescaled_final/1161_rv.mp4	0.0	156.35039591789246	
26	139.90411806106567	movie	1		243	24.0	2.5	/experiments/knapen_AOT/AOT_stimuli/rescaled_final/1161_rv.mp4	0.0	156.36603903770447	2.5088279247283936
26	141.49666905403137	pulse	1	t		24.0	2.5	/experiments/knapen_AOT/AOT_stimuli/rescaled_final/1161_rv.mp4	0.0	157.95859003067017	
26	142.41294598579407	fix_post	2		12	24.0	2.5	/experiments/knapen_AOT/AOT_stimuli/rescaled_final/1161_rv.mp4	0.0	158.87486696243286	0.09988689422607422
27	142.51283288002014	fix_pre	0		120	25.0	2.5	/experiments/knapen_AOT/AOT_stimuli/rescaled_final/0866_rv.mp4	0.0	158.97475385665894	1.000162124633789
27	143.08808994293213	pulse	0	t		25.0	2.5	/experiments/knapen_AOT/AOT_stimuli/rescaled_final/0866_rv.mp4	0.0	159.55001091957092	
27	143.51299500465393	movie	1		242	25.0	2.5	/experiments/knapen_AOT/AOT_stimuli/rescaled_final/0866_rv.mp4	0.0	159.97491598129272	2.500548839569092
27	144.68880891799927	pulse	1	t		25.0	2.5	/experiments/knapen_AOT/AOT_stimuli/rescaled_final/0866_rv.mp4	0.0	161.15072989463806	
27	146.01354384422302	fix_post	2		12	25.0	2.5	/experiments/knapen_AOT/AOT_stimuli/rescaled_final/0866_rv.mp4	0.0	162.47546482086182	0.0999000072479248
28	146.11344385147095	fix_pre	0		120	26.0	2.5	blank	1.0	162.57536482810974	1.0001001358032227
28	146.28868889808655	pulse	0	t		26.0	2.5	blank	1.0	162.75060987472534	
28	147.11354398727417	movie	1		300	26.0	2.5	blank	1.0	163.57546496391296	2.500403881072998
28	147.88881587982178	pulse	1	t		26.0	2.5	blank	1.0	164.35073685646057	
28	149.48906302452087	pulse	1	t		26.0	2.5	blank	1.0	165.95098400115967	
28	149.61394786834717	fix_post	2		12	26.0	2.5	blank	1.0	166.07586884498596	0.09995508193969727
29	149.71390295028687	fix_pre	0		120	27.0	2.5	/experiments/knapen_AOT/AOT_stimuli/rescaled_final/1959_rv.mp4	0.0	166.17582392692566	1.000195026397705
29	150.71409797668457	movie	1		241	27.0	2.5	/experiments/knapen_AOT/AOT_stimuli/rescaled_final/1959_rv.mp4	0.0	167.17601895332336	2.4920010566711426
29	151.08930802345276	pulse	1	t		27.0	2.5	/experiments/knapen_AOT/AOT_stimuli/rescaled_final/1959_rv.mp4	0.0	167.55122900009155	
29	152.68964886665344	pulse	1	t		27.0	2.5	/experiments/knapen_AOT/AOT_stimuli/rescaled_final/1959_rv.mp4	0.0	169.15156984329224	
29	153.2060990333557	fix_post	2		12	27.0	2.5	/experiments/knapen_AOT/AOT_stimuli/rescaled_final/1959_rv.mp4	0.0	169.6680200099945	0.1000208854675293
30	153.30611991882324	fix_pre	0		119	28.0	2.5	/experiments/knapen_AOT/AOT_stimuli/rescaled_final/2110_fw.mp4	0.0	169.76804089546204	0.9918861389160156
30	154.28979897499084	pulse	0	t		28.0	2.5	/experiments/knapen_AOT/AOT_stimuli/rescaled_final/2110_fw.mp4	0.0	170.75171995162964	
30	154.29800605773926	movie	1		239	28.0	2.5	/experiments/knapen_AOT/AOT_stimuli/rescaled_final/2110_fw.mp4	0.0	170.75992703437805	2.5086188316345215
30	155.8912169933319	pulse	1	t		28.0	2.5	/experiments/knapen_AOT/AOT_stimuli/rescaled_final/2110_fw.mp4	0.0	172.3531379699707	
30	156.80662488937378	fix_post	2		12	28.0	2.5	/experiments/knapen_AOT/AOT_stimuli/rescaled_final/2110_fw.mp4	0.0	173.26854586601257	0.10005712509155273
31	156.90668201446533	fix_pre	0		120	29.0	2.5	/experiments/knapen_AOT/AOT_stimuli/rescaled_final/0485_rv.mp4	0.0	173.36860299110413	1.0001249313354492
31	157.49032497406006	pulse	0	t		29.0	2.5	/experiments/knapen_AOT/AOT_stimuli/rescaled_final/0485_rv.mp4	0.0	173.95224595069885	
31	157.90680694580078	movie	1		243	29.0	2.5	/experiments/knapen_AOT/AOT_stimuli/rescaled_final/0485_rv.mp4	0.0	174.36872792243958	2.500478982925415
31	159.09058094024658	pulse	1	t		29.0	2.5	/experiments/knapen_AOT/AOT_stimuli/rescaled_final/0485_rv.mp4	0.0	175.55250191688538	
31	160.4072859287262	fix_post	2		12	29.0	2.5	/experiments/knapen_AOT/AOT_stimuli/rescaled_final/0485_rv.mp4	0.0	176.869206905365	0.0999600887298584
32	160.50724601745605	fix_pre	0		120	30.0	2.5	/experiments/knapen_AOT/AOT_stimuli/rescaled_final/1492_rv.mp4	0.0	176.96916699409485	1.0001089572906494
32	160.69083499908447	pulse	0	t		30.0	2.5	/experiments/knapen_AOT/AOT_stimuli/rescaled_final/1492_rv.mp4	0.0	177.15275597572327	
32	161.5073549747467	movie	1		243	30.0	2.5	/experiments/knapen_AOT/AOT_stimuli/rescaled_final/1492_rv.mp4	0.0	177.9692759513855	2.5005390644073486
32	162.29096293449402	pulse	1	t		30.0	2.5	/experiments/knapen_AOT/AOT_stimuli/rescaled_final/1492_rv.mp4	0.0	178.7528839111328	
32	163.89119291305542	pulse	1	t		30.0	2.5	/experiments/knapen_AOT/AOT_stimuli/rescaled_final/1492_rv.mp4	0.0	180.3531138896942	
32	164.00789403915405	fix_post	2		12	30.0	2.5	/experiments/knapen_AOT/AOT_stimuli/rescaled_final/1492_rv.mp4	0.0	180.46981501579285	0.09985899925231934
33	164.10775303840637	fix_pre	0		120	31.0	2.5	/experiments/knapen_AOT/AOT_stimuli/rescaled_final/1483_rv.mp4	0.0	180.56967401504517	1.0001578330993652
33	165.10791087150574	movie	1		241	31.0	2.5	/experiments/knapen_AOT/AOT_stimuli/rescaled_final/1483_rv.mp4	0.0	181.56983184814453	2.492112159729004
33	165.49303102493286	pulse	1	t		31.0	2.5	/experiments/knapen_AOT/AOT_stimuli/rescaled_final/1483_rv.mp4	0.0	181.95495200157166	
33	167.09183502197266	pulse	1	t		31.0	2.5	/experiments/knapen_AOT/AOT_stimuli/rescaled_final/1483_rv.mp4	0.0	183.55375599861145	
33	167.60002303123474	fix_post	2		12	31.0	2.5	/experiments/knapen_AOT/AOT_stimuli/rescaled_final/1483_rv.mp4	0.0	184.06194400787354	0.09994101524353027
34	167.69996404647827	fix_pre	0		120	32.0	2.5	/experiments/knapen_AOT/AOT_stimuli/rescaled_final/1603_rv.mp4	0.0	184.16188502311707	1.0001499652862549
34	168.69199085235596	pulse	0	t		32.0	2.5	/experiments/knapen_AOT/AOT_stimuli/rescaled_final/1603_rv.mp4	0.0	185.15391182899475	
34	168.70011401176453	movie	1		243	32.0	2.5	/experiments/knapen_AOT/AOT_stimuli/rescaled_final/1603_rv.mp4	0.0	185.16203498840332	2.5087568759918213
34	170.2929859161377	pulse	1	t		32.0	2.5	/experiments/knapen_AOT/AOT_stimuli/rescaled_final/1603_rv.mp4	0.0	186.7549068927765	
34	171.20887088775635	fix_post	2		12	32.0	2.5	/experiments/knapen_AOT/AOT_stimuli/rescaled_final/1603_rv.mp4	0.0	187.67079186439514	0.0999760627746582
35	171.308846950531	fix_pre	0		120	33.0	2.5	/experiments/knapen_AOT/AOT_stimuli/rescaled_final/1852_fw.mp4	0.0	187.7707679271698	1.0001471042633057
35	171.89242601394653	pulse	0	t		33.0	2.5	/experiments/knapen_AOT/AOT_stimuli/rescaled_final/1852_fw.mp4	0.0	188.35434699058533	
35	172.3089940547943	movie	1		243	33.0	2.5	/experiments/knapen_AOT/AOT_stimuli/rescaled_final/1852_fw.mp4	0.0	188.7709150314331	2.5003268718719482
35	173.49283504486084	pulse	1	t		33.0	2.5	/experiments/knapen_AOT/AOT_stimuli/rescaled_final/1852_fw.mp4	0.0	189.95475602149963	
35	174.80932092666626	fix_post	2		12	33.0	2.5	/experiments/knapen_AOT/AOT_stimuli/rescaled_final/1852_fw.mp4	0.0	191.27124190330505	0.10002303123474121
36	174.909343957901	fix_pre	0		120	34.0	2.5	blank	1.0	191.3712649345398	1.0002000331878662
36	175.09297394752502	pulse	0	t		34.0	2.5	blank	1.0	191.55489492416382	
36	175.90954399108887	movie	1		300	34.0	2.5	blank	1.0	192.37146496772766	2.5003349781036377
36	176.69313287734985	pulse	1	t		34.0	2.5	blank	1.0	193.15505385398865	
36	178.29329800605774	pulse	1	t		34.0	2.5	blank	1.0	194.75521898269653	
36	178.4098789691925	fix_post	2		12	34.0	2.5	blank	1.0	194.8717999458313	0.10000109672546387
37	178.50988006591797	fix_pre	0		120	35.0	2.5	/experiments/knapen_AOT/AOT_stimuli/rescaled_final/1029_rv.mp4	0.0	194.97180104255676	1.0001718997955322
37	179.5100519657135	movie	1		241	35.0	2.5	/experiments/knapen_AOT/AOT_stimuli/rescaled_final/1029_rv.mp4	0.0	195.9719729423523	2.492103099822998
37	179.89429306983948	pulse	1	t		35.0	2.5	/experiments/knapen_AOT/AOT_stimuli/rescaled_final/1029_rv.mp4	0.0	196.35621404647827	
37	181.49398589134216	pulse	1	t		35.0	2.5	/experiments/knapen_AOT/AOT_stimuli/rescaled_final/1029_rv.mp4	0.0	197.95590686798096	
37	182.0021550655365	fix_post	2		12	35.0	2.5	/experiments/knapen_AOT/AOT_stimuli/rescaled_final/1029_rv.mp4	0.0	198.4640760421753	0.09997391700744629
38	182.10212898254395	fix_pre	0		120	36.0	2.5	/experiments/knapen_AOT/AOT_stimuli/rescaled_final/1264_fw.mp4	0.0	198.56404995918274	1.0001440048217773
38	183.09409403800964	pulse	0	t		36.0	2.5	/experiments/knapen_AOT/AOT_stimuli/rescaled_final/1264_fw.mp4	0.0	199.55601501464844	
38	183.10227298736572	movie	1		244	36.0	2.5	/experiments/knapen_AOT/AOT_stimuli/rescaled_final/1264_fw.mp4	0.0	199.56419396400452	2.5086898803710938
38	184.6948208808899	pulse	1	t		36.0	2.5	/experiments/knapen_AOT/AOT_stimuli/rescaled_final/1264_fw.mp4	0.0	201.1567418575287	
38	185.61096286773682	fix_post	2		12	36.0	2.5	/experiments/knapen_AOT/AOT_stimuli/rescaled_final/1264_fw.mp4	0.0	202.0728838443756	0.10000801086425781
39	185.71097087860107	fix_pre	0		120	37.0	2.5	/experiments/knapen_AOT/AOT_stimuli/rescaled_final/1741_rv.mp4	0.0	202.17289185523987	1.0001180171966553
39	186.29472088813782	pulse	0	t		37.0	2.5	/experiments/knapen_AOT/AOT_stimuli/rescaled_final/1741_rv.mp4	0.0	202.7566418647766	
39	186.71108889579773	movie	1		242	37.0	2.5	/experiments/knapen_AOT/AOT_stimuli/rescaled_final/1741_rv.mp4	0.0	203.17300987243652	2.50065016746521
39	187.8877980709076	pulse	1	t		37.0	2.5	/experiments/knapen_AOT/AOT_stimuli/rescaled_final/1741_rv.mp4	0.0	204.3497190475464	
39	189.21173906326294	fix_post	2		12	37.0	2.5	/experiments/knapen_AOT/AOT_stimuli/rescaled_final/1741_rv.mp4	0.0	205.67366003990173	0.09982800483703613
40	189.31156706809998	fix_pre	0		120	38.0	2.5	/experiments/knapen_AOT/AOT_stimuli/rescaled_final/0660_rv.mp4	0.0	205.77348804473877	1.0001068115234375
40	189.49501705169678	pulse	0	t		38.0	2.5	/experiments/knapen_AOT/AOT_stimuli/rescaled_final/0660_rv.mp4	0.0	205.95693802833557	
40	190.3116738796234	movie	1		242	38.0	2.5	/experiments/knapen_AOT/AOT_stimuli/rescaled_final/0660_rv.mp4	0.0	206.7735948562622	2.500521183013916
40	191.08796787261963	pulse	1	t		38.0	2.5	/experiments/knapen_AOT/AOT_stimuli/rescaled_final/0660_rv.mp4	0.0	207.54988884925842	
40	192.69529604911804	pulse	1	t		38.0	2.5	/experiments/knapen_AOT/AOT_stimuli/rescaled_final/0660_rv.mp4	0.0	209.15721702575684	
40	192.81219506263733	fix_post	2		12	38.0	2.5	/experiments/knapen_AOT/AOT_stimuli/rescaled_final/0660_rv.mp4	0.0	209.27411603927612	0.09986400604248047
41	192.9120590686798	fix_pre	0		119	39.0	2.5	/experiments/knapen_AOT/AOT_stimuli/rescaled_final/0954_fw.mp4	0.0	209.3739800453186	0.9917609691619873
41	193.9038200378418	movie	1		244	39.0	2.5	/experiments/knapen_AOT/AOT_stimuli/rescaled_final/0954_fw.mp4	0.0	210.3657410144806	2.500389814376831
41	194.28796100616455	pulse	1	t		39.0	2.5	/experiments/knapen_AOT/AOT_stimuli/rescaled_final/0954_fw.mp4	0.0	210.74988198280334	
41	195.88775205612183	pulse	1	t		39.0	2.5	/experiments/knapen_AOT/AOT_stimuli/rescaled_final/0954_fw.mp4	0.0	212.34967303276062	
41	196.40420985221863	fix_post	2		12	39.0	2.5	/experiments/knapen_AOT/AOT_stimuli/rescaled_final/0954_fw.mp4	0.0	212.86613082885742	0.10004019737243652
42	196.50425004959106	fix_pre	0		119	40.0	2.5	blank	1.0	212.96617102622986	0.9917960166931152
42	197.4878330230713	pulse	0	t		40.0	2.5	blank	1.0	213.94975399971008	
42	197.49604606628418	movie	1		301	40.0	2.5	blank	1.0	213.95796704292297	2.508737802505493
42	199.08814692497253	pulse	1	t		40.0	2.5	blank	1.0	215.55006790161133	
42	200.00478386878967	fix_post	2		12	40.0	2.5	blank	1.0	216.46670484542847	0.10002613067626953
43	200.10480999946594	fix_pre	0		120	41.0	2.5	/experiments/knapen_AOT/AOT_stimuli/rescaled_final/2121_rv.mp4	0.0	216.56673097610474	1.0001590251922607
43	200.68833088874817	pulse	0	t		41.0	2.5	/experiments/knapen_AOT/AOT_stimuli/rescaled_final/2121_rv.mp4	0.0	217.15025186538696	
43	201.1049690246582	movie	1		242	41.0	2.5	/experiments/knapen_AOT/AOT_stimuli/rescaled_final/2121_rv.mp4	0.0	217.566890001297	2.500452995300293
43	202.28882598876953	pulse	1	t		41.0	2.5	/experiments/knapen_AOT/AOT_stimuli/rescaled_final/2121_rv.mp4	0.0	218.75074696540833	
43	203.6054220199585	fix_post	2		12	41.0	2.5	/experiments/knapen_AOT/AOT_stimuli/rescaled_final/2121_rv.mp4	0.0	220.0673429965973	0.0999000072479248
44	203.70532202720642	fix_pre	0		120	42.0	2.5	/experiments/knapen_AOT/AOT_stimuli/rescaled_final/0744_fw.mp4	0.0	220.16724300384521	1.0001640319824219
44	203.8889889717102	pulse	0	t		42.0	2.5	/experiments/knapen_AOT/AOT_stimuli/rescaled_final/0744_fw.mp4	0.0	220.350909948349	
44	204.70548605918884	movie	1		243	42.0	2.5	/experiments/knapen_AOT/AOT_stimuli/rescaled_final/0744_fw.mp4	0.0	221.16740703582764	2.5005898475646973
44	205.4891219139099	pulse	1	t		42.0	2.5	/experiments/knapen_AOT/AOT_stimuli/rescaled_final/0744_fw.mp4	0.0	221.9510428905487	
44	207.08918404579163	pulse	1	t		42.0	2.5	/experiments/knapen_AOT/AOT_stimuli/rescaled_final/0744_fw.mp4	0.0	223.55110502243042	
44	207.20607590675354	fix_post	2		12	42.0	2.5	/experiments/knapen_AOT/AOT_stimuli/rescaled_final/0744_fw.mp4	0.0	223.66799688339233	0.09979605674743652
45	207.30587196350098	fix_pre	0		119	43.0	2.5	/experiments/knapen_AOT/AOT_stimuli/rescaled_final/0052_rv.mp4	0.0	223.76779294013977	0.9918038845062256
45	208.2976758480072	movie	1		243	43.0	2.5	/experiments/knapen_AOT/AOT_stimuli/rescaled_final/0052_rv.mp4	0.0	224.759596824646	2.5003600120544434
45	208.68974995613098	pulse	1	t		43.0	2.5	/experiments/knapen_AOT/AOT_stimuli/rescaled_final/0052_rv.mp4	0.0	225.15167093276978	
45	210.29000687599182	pulse	1	t		43.0	2.5	/experiments/knapen_AOT/AOT_stimuli/rescaled_final/0052_rv.mp4	0.0	226.75192785263062	
45	210.79803586006165	fix_post	2		12	43.0	2.5	/experiments/knapen_AOT/AOT_stimuli/rescaled_final/0052_rv.mp4	0.0	227.25995683670044	0.10002708435058594
46	210.89806294441223	fix_pre	0		120	44.0	2.5	/experiments/knapen_AOT/AOT_stimuli/rescaled_final/0549_fw.mp4	0.0	227.35998392105103	1.0001280307769775
46	211.89014291763306	pulse	0	t		44.0	2.5	/experiments/knapen_AOT/AOT_stimuli/rescaled_final/0549_fw.mp4	0.0	228.35206389427185	
46	211.8981909751892	movie	1		243	44.0	2.5	/experiments/knapen_AOT/AOT_stimuli/rescaled_final/0549_fw.mp4	0.0	228.360111951828	2.5087649822235107
46	213.49168491363525	pulse	1	t		44.0	2.5	/experiments/knapen_AOT/AOT_stimuli/rescaled_final/0549_fw.mp4	0.0	229.95360589027405	
46	214.40695595741272	fix_post	2		12	44.0	2.5	/experiments/knapen_AOT/AOT_stimuli/rescaled_final/0549_fw.mp4	0.0	230.8688769340515	0.09998488426208496
47	214.5069408416748	fix_pre	0		120	45.0	2.5	/experiments/knapen_AOT/AOT_stimuli/rescaled_final/1451_rv.mp4	0.0	230.9688618183136	1.0001411437988281
47	215.0905258655548	pulse	0	t		45.0	2.5	/experiments/knapen_AOT/AOT_stimuli/rescaled_final/1451_rv.mp4	0.0	231.5524468421936	
47	215.50708198547363	movie	1		242	45.0	2.5	/experiments/knapen_AOT/AOT_stimuli/rescaled_final/1451_rv.mp4	0.0	231.96900296211243	2.500488042831421
47	216.69092392921448	pulse	1	t		45.0	2.5	/experiments/knapen_AOT/AOT_stimuli/rescaled_final/1451_rv.mp4	0.0	233.15284490585327	
47	218.00757002830505	fix_post	2		12	45.0	2.5	/experiments/knapen_AOT/AOT_stimuli/rescaled_final/1451_rv.mp4	0.0	234.46949100494385	0.09992194175720215
48	218.10749197006226	fix_pre	0		120	46.0	2.5	/experiments/knapen_AOT/AOT_stimuli/rescaled_final/1026_fw.mp4	0.0	234.56941294670105	1.000128984451294
48	218.2911479473114	pulse	0	t		46.0	2.5	/experiments/knapen_AOT/AOT_stimuli/rescaled_final/1026_fw.mp4	0.0	234.7530689239502	
48	219.10762095451355	movie	1		243	46.0	2.5	/experiments/knapen_AOT/AOT_stimuli/rescaled_final/1026_fw.mp4	0.0	235.56954193115234	2.500570058822632
48	219.8913538455963	pulse	1	t		46.0	2.5	/experiments/knapen_AOT/AOT_stimuli/rescaled_final/1026_fw.mp4	0.0	236.3532748222351	
48	221.49136686325073	pulse	1	t		46.0	2.5	/experiments/knapen_AOT/AOT_stimuli/rescaled_final/1026_fw.mp4	0.0	237.95328783988953	
48	221.60819101333618	fix_post	2		12	46.0	2.5	/experiments/knapen_AOT/AOT_stimuli/rescaled_final/1026_fw.mp4	0.0	238.07011198997498	0.09988188743591309
49	221.7080729007721	fix_pre	0		120	47.0	2.5	/experiments/knapen_AOT/AOT_stimuli/rescaled_final/1036_fw.mp4	0.0	238.1699938774109	1.000075101852417
49	222.7081480026245	movie	1		241	47.0	2.5	/experiments/knapen_AOT/AOT_stimuli/rescaled_final/1036_fw.mp4	0.0	239.1700689792633	2.492495059967041
49	223.09309601783752	pulse	1	t		47.0	2.5	/experiments/knapen_AOT/AOT_stimuli/rescaled_final/1036_fw.mp4	0.0	239.55501699447632	
49	224.69212889671326	pulse	1	t		47.0	2.5	/experiments/knapen_AOT/AOT_stimuli/rescaled_final/1036_fw.mp4	0.0	241.15404987335205	
49	225.20064306259155	fix_post	2		10	47.0	2.5	/experiments/knapen_AOT/AOT_stimuli/rescaled_final/1036_fw.mp4	0.0	241.66256403923035	0.09956693649291992
50	225.30020999908447	fix_pre	0		120	48.0	2.5	/experiments/knapen_AOT/AOT_stimuli/rescaled_final/0771_rv.mp4	0.0	241.76213097572327	1.000154972076416
50	226.29231786727905	pulse	0	t		48.0	2.5	/experiments/knapen_AOT/AOT_stimuli/rescaled_final/0771_rv.mp4	0.0	242.75423884391785	
50	226.3003649711609	movie	1		244	48.0	2.5	/experiments/knapen_AOT/AOT_stimuli/rescaled_final/0771_rv.mp4	0.0	242.76228594779968	2.5087790489196777
50	227.89312887191772	pulse	1	t		48.0	2.5	/experiments/knapen_AOT/AOT_stimuli/rescaled_final/0771_rv.mp4	0.0	244.35504984855652	
50	228.80914402008057	fix_post	2		12	48.0	2.5	/experiments/knapen_AOT/AOT_stimuli/rescaled_final/0771_rv.mp4	0.0	245.27106499671936	0.09994292259216309
51	228.90908694267273	fix_pre	0		120	49.0	2.5	blank	1.0	245.37100791931152	1.0001630783081055
51	229.49266505241394	pulse	0	t		49.0	2.5	blank	1.0	245.95458602905273	
51	229.90925002098083	movie	1		300	49.0	2.5	blank	1.0	246.37117099761963	2.5003879070281982
51	231.09301900863647	pulse	1	t		49.0	2.5	blank	1.0	247.55493998527527	
51	232.40963792800903	fix_post	2		12	49.0	2.5	blank	1.0	248.87155890464783	0.10001611709594727
52	232.50965404510498	fix_pre	0		120	50.0	2.5	/experiments/knapen_AOT/AOT_stimuli/rescaled_final/0033_fw.mp4	0.0	248.97157502174377	1.0001249313354492
52	232.69324803352356	pulse	0	t		50.0	2.5	/experiments/knapen_AOT/AOT_stimuli/rescaled_final/0033_fw.mp4	0.0	249.15516901016235	
52	233.50977897644043	movie	1		244	50.0	2.5	/experiments/knapen_AOT/AOT_stimuli/rescaled_final/0033_fw.mp4	0.0	249.97169995307922	2.5003440380096436
52	234.29339289665222	pulse	1	t		50.0	2.5	/experiments/knapen_AOT/AOT_stimuli/rescaled_final/0033_fw.mp4	0.0	250.75531387329102	
52	235.89375495910645	pulse	1	t		50.0	2.5	/experiments/knapen_AOT/AOT_stimuli/rescaled_final/0033_fw.mp4	0.0	252.35567593574524	
52	236.01012301445007	fix_post	2		12	50.0	2.5	/experiments/knapen_AOT/AOT_stimuli/rescaled_final/0033_fw.mp4	0.0	252.47204399108887	0.10003805160522461
53	236.1101610660553	fix_pre	0		120	51.0	2.5	/experiments/knapen_AOT/AOT_stimuli/rescaled_final/1594_rv.mp4	0.0	252.5720820426941	1.0001299381256104
53	237.1102910041809	movie	1		243	51.0	2.5	/experiments/knapen_AOT/AOT_stimuli/rescaled_final/1594_rv.mp4	0.0	253.5722119808197	2.492086887359619
53	237.49437499046326	pulse	1	t		51.0	2.5	/experiments/knapen_AOT/AOT_stimuli/rescaled_final/1594_rv.mp4	0.0	253.95629596710205	
53	239.09419107437134	pulse	1	t		51.0	2.5	/experiments/knapen_AOT/AOT_stimuli/rescaled_final/1594_rv.mp4	0.0	255.55611205101013	
53	239.60237789154053	fix_post	2		12	51.0	2.5	/experiments/knapen_AOT/AOT_stimuli/rescaled_final/1594_rv.mp4	0.0	256.0642988681793	0.10005712509155273
54	239.70243501663208	fix_pre	0		120	52.0	2.5	/experiments/knapen_AOT/AOT_stimuli/rescaled_final/1264_rv.mp4	0.0	256.1643559932709	1.0000829696655273
54	240.6943290233612	pulse	0	t		52.0	2.5	/experiments/knapen_AOT/AOT_stimuli/rescaled_final/1264_rv.mp4	0.0	257.15625	
54	240.7025179862976	movie	1		244	52.0	2.5	/experiments/knapen_AOT/AOT_stimuli/rescaled_final/1264_rv.mp4	0.0	257.1644389629364	2.5087828636169434
54	242.29937100410461	pulse	1	t		52.0	2.5	/experiments/knapen_AOT/AOT_stimuli/rescaled_final/1264_rv.mp4	0.0	258.7612919807434	
54	243.21130084991455	fix_post	2		12	52.0	2.5	/experiments/knapen_AOT/AOT_stimuli/rescaled_final/1264_rv.mp4	0.0	259.67322182655334	0.0999441146850586
55	243.3112449645996	fix_pre	0		120	53.0	2.5	/experiments/knapen_AOT/AOT_stimuli/rescaled_final/1948_fw.mp4	0.0	259.7731659412384	1.0001320838928223
55	243.89486598968506	pulse	0	t		53.0	2.5	/experiments/knapen_AOT/AOT_stimuli/rescaled_final/1948_fw.mp4	0.0	260.35678696632385	
55	244.31137704849243	movie	1		243	53.0	2.5	/experiments/knapen_AOT/AOT_stimuli/rescaled_final/1948_fw.mp4	0.0	260.7732980251312	2.500530958175659
55	245.49099588394165	pulse	1	t		53.0	2.5	/experiments/knapen_AOT/AOT_stimuli/rescaled_final/1948_fw.mp4	0.0	261.95291686058044	
55	246.8119080066681	fix_post	2		12	53.0	2.5	/experiments/knapen_AOT/AOT_stimuli/rescaled_final/1948_fw.mp4	0.0	263.2738289833069	0.09987688064575195
56	246.91178488731384	fix_pre	0		120	54.0	2.5	blank	1.0	263.37370586395264	1.0001661777496338
56	247.09543585777283	pulse	0	t		54.0	2.5	blank	1.0	263.5573568344116	
56	247.91195106506348	movie	1		300	54.0	2.5	blank	1.0	264.37387204170227	2.5003459453582764
56	248.69555807113647	pulse	1	t		54.0	2.5	blank	1.0	265.15747904777527	
56	250.28756999969482	pulse	1	t		54.0	2.5	blank	1.0	266.7494909763336	
56	250.41229701042175	fix_post	2		12	54.0	2.5	blank	1.0	266.87421798706055	0.10004091262817383
57	250.51233792304993	fix_pre	0		120	55.0	2.5	/experiments/knapen_AOT/AOT_stimuli/rescaled_final/1426_rv.mp4	0.0	266.9742588996887	1.0001389980316162
57	251.51247692108154	movie	1		245	55.0	2.5	/experiments/knapen_AOT/AOT_stimuli/rescaled_final/1426_rv.mp4	0.0	267.97439789772034	2.492039918899536
57	251.89676094055176	pulse	1	t		55.0	2.5	/experiments/knapen_AOT/AOT_stimuli/rescaled_final/1426_rv.mp4	0.0	268.35868191719055	
57	253.48801183700562	pulse	1	t		55.0	2.5	/experiments/knapen_AOT/AOT_stimuli/rescaled_final/1426_rv.mp4	0.0	269.9499328136444	
57	254.00451683998108	fix_post	2		12	55.0	2.5	/experiments/knapen_AOT/AOT_stimuli/rescaled_final/1426_rv.mp4	0.0	270.4664378166199	0.10004615783691406
58	254.104562997818	fix_pre	0		119	56.0	2.5	/experiments/knapen_AOT/AOT_stimuli/rescaled_final/1219_rv.mp4	0.0	270.5664839744568	0.9917418956756592
58	255.08826684951782	pulse	0	t		56.0	2.5	/experiments/knapen_AOT/AOT_stimuli/rescaled_final/1219_rv.mp4	0.0	271.5501878261566	
58	255.09630489349365	movie	1		244	56.0	2.5	/experiments/knapen_AOT/AOT_stimuli/rescaled_final/1219_rv.mp4	0.0	271.55822587013245	2.508707046508789
58	256.68895292282104	pulse	1	t		56.0	2.5	/experiments/knapen_AOT/AOT_stimuli/rescaled_final/1219_rv.mp4	0.0	273.15087389945984	
58	257.60501194000244	fix_post	2		12	56.0	2.5	/experiments/knapen_AOT/AOT_stimuli/rescaled_final/1219_rv.mp4	0.0	274.06693291664124	0.10005497932434082
59	257.7050669193268	fix_pre	0		120	57.0	2.5	/experiments/knapen_AOT/AOT_stimuli/rescaled_final/0549_rv.mp4	0.0	274.1669878959656	1.0001220703125
59	258.28864884376526	pulse	0	t		57.0	2.5	/experiments/knapen_AOT/AOT_stimuli/rescaled_final/0549_rv.mp4	0.0	274.75056982040405	
59	258.7051889896393	movie	1		242	57.0	2.5	/experiments/knapen_AOT/AOT_stimuli/rescaled_final/0549_rv.mp4	0.0	275.1671099662781	2.5005860328674316
59	259.8889708518982	pulse	1	t		57.0	2.5	/experiments/knapen_AOT/AOT_stimuli/rescaled_final/0549_rv.mp4	0.0	276.350891828537	
59	261.2057750225067	fix_post	2		12	57.0	2.5	/experiments/knapen_AOT/AOT_stimuli/rescaled_final/0549_rv.mp4	0.0	277.6676959991455	0.0997779369354248
60	261.30555295944214	fix_pre	0		120	58.0	2.5	/experiments/knapen_AOT/AOT_stimuli/rescaled_final/1770_rv.mp4	0.0	277.76747393608093	1.000230073928833
60	261.48913288116455	pulse	0	t		58.0	2.5	/experiments/knapen_AOT/AOT_stimuli/rescaled_final/1770_rv.mp4	0.0	277.95105385780334	
60	262.305783033371	movie	1		242	58.0	2.5	/experiments/knapen_AOT/AOT_stimuli/rescaled_final/1770_rv.mp4	0.0	278.76770401000977	2.5005178451538086
60	263.0893888473511	pulse	1	t		58.0	2.5	/experiments/knapen_AOT/AOT_stimuli/rescaled_final/1770_rv.mp4	0.0	279.55130982398987	
60	264.6894860267639	pulse	1	t		58.0	2.5	/experiments/knapen_AOT/AOT_stimuli/rescaled_final/1770_rv.mp4	0.0	281.1514070034027	
60	264.8063008785248	fix_post	2		12	58.0	2.5	/experiments/knapen_AOT/AOT_stimuli/rescaled_final/1770_rv.mp4	0.0	281.2682218551636	0.09983015060424805
61	264.906131029129	fix_pre	0		120	59.0	2.5	/experiments/knapen_AOT/AOT_stimuli/rescaled_final/0881_rv.mp4	0.0	281.3680520057678	1.0001208782196045
61	265.90625190734863	movie	1		244	59.0	2.5	/experiments/knapen_AOT/AOT_stimuli/rescaled_final/0881_rv.mp4	0.0	282.3681728839874	2.492069959640503
61	266.2903518676758	pulse	1	t		59.0	2.5	/experiments/knapen_AOT/AOT_stimuli/rescaled_final/0881_rv.mp4	0.0	282.7522728443146	
61	267.8900480270386	pulse	1	t		59.0	2.5	/experiments/knapen_AOT/AOT_stimuli/rescaled_final/0881_rv.mp4	0.0	284.35196900367737	
61	268.39832186698914	fix_post	2		12	59.0	2.5	/experiments/knapen_AOT/AOT_stimuli/rescaled_final/0881_rv.mp4	0.0	284.86024284362793	0.10000205039978027
62	268.4983239173889	fix_pre	0		120	60.0	2.5	/experiments/knapen_AOT/AOT_stimuli/rescaled_final/0180_fw.mp4	0.0	284.9602448940277	1.0001330375671387
62	269.49027585983276	pulse	0	t		60.0	2.5	/experiments/knapen_AOT/AOT_stimuli/rescaled_final/0180_fw.mp4	0.0	285.95219683647156	
62	269.49845695495605	movie	1		243	60.0	2.5	/experiments/knapen_AOT/AOT_stimuli/rescaled_final/0180_fw.mp4	0.0	285.96037793159485	2.5087530612945557
62	271.094694852829	pulse	1	t		60.0	2.5	/experiments/knapen_AOT/AOT_stimuli/rescaled_final/0180_fw.mp4	0.0	287.5566158294678	
62	272.0072100162506	fix_post	2		12	60.0	2.5	/experiments/knapen_AOT/AOT_stimuli/rescaled_final/0180_fw.mp4	0.0	288.4691309928894	0.0999758243560791
63	272.1071858406067	fix_pre	0		120	61.0	2.5	/experiments/knapen_AOT/AOT_stimuli/rescaled_final/0293_rv.mp4	0.0	288.5691068172455	1.0001270771026611
63	272.690927028656	pulse	0	t		61.0	2.5	/experiments/knapen_AOT/AOT_stimuli/rescaled_final/0293_rv.mp4	0.0	289.1528480052948	
63	273.10731291770935	movie	1		242	61.0	2.5	/experiments/knapen_AOT/AOT_stimuli/rescaled_final/0293_rv.mp4	0.0	289.56923389434814	2.5005710124969482
63	274.2912039756775	pulse	1	t		61.0	2.5	/experiments/knapen_AOT/AOT_stimuli/rescaled_final/0293_rv.mp4	0.0	290.7531249523163	
63	275.6078839302063	fix_post	2		12	61.0	2.5	/experiments/knapen_AOT/AOT_stimuli/rescaled_final/0293_rv.mp4	0.0	292.0698049068451	0.099884033203125
64	275.7077679634094	fix_pre	0		120	62.0	2.5	/experiments/knapen_AOT/AOT_stimuli/rescaled_final/0440_rv.mp4	0.0	292.1696889400482	1.0001258850097656
64	275.89123487472534	pulse	0	t		62.0	2.5	/experiments/knapen_AOT/AOT_stimuli/rescaled_final/0440_rv.mp4	0.0	292.35315585136414	
64	276.7078938484192	movie	1		243	62.0	2.5	/experiments/knapen_AOT/AOT_stimuli/rescaled_final/0440_rv.mp4	0.0	293.169814825058	2.5005180835723877
64	277.49148893356323	pulse	1	t		62.0	2.5	/experiments/knapen_AOT/AOT_stimuli/rescaled_final/0440_rv.mp4	0.0	293.953409910202	
64	279.0916268825531	pulse	1	t		62.0	2.5	/experiments/knapen_AOT/AOT_stimuli/rescaled_final/0440_rv.mp4	0.0	295.5535478591919	
64	279.2084119319916	fix_post	2		12	62.0	2.5	/experiments/knapen_AOT/AOT_stimuli/rescaled_final/0440_rv.mp4	0.0	295.67033290863037	0.0998220443725586
65	279.30823397636414	fix_pre	0		119	63.0	2.5	blank	1.0	295.77015495300293	0.9918289184570312
65	280.30006289482117	movie	1		300	63.0	2.5	blank	1.0	296.76198387145996	2.500447988510132
65	280.6920850276947	pulse	1	t		63.0	2.5	blank	1.0	297.1540060043335	
65	282.2922079563141	pulse	1	t		63.0	2.5	blank	1.0	298.7541289329529	
65	282.8005108833313	fix_post	2		12	63.0	2.5	blank	1.0	299.2624318599701	0.0999441146850586
66	282.90045499801636	fix_pre	0		120	64.0	2.5	/experiments/knapen_AOT/AOT_stimuli/rescaled_final/2139_fw.mp4	0.0	299.36237597465515	1.000201940536499
66	283.89245796203613	pulse	0	t		64.0	2.5	/experiments/knapen_AOT/AOT_stimuli/rescaled_final/2139_fw.mp4	0.0	300.3543789386749	
66	283.90065693855286	movie	1		244	64.0	2.5	/experiments/knapen_AOT/AOT_stimuli/rescaled_final/2139_fw.mp4	0.0	300.36257791519165	2.508723020553589
66	285.4930729866028	pulse	1	t		64.0	2.5	/experiments/knapen_AOT/AOT_stimuli/rescaled_final/2139_fw.mp4	0.0	301.9549939632416	
66	286.40937995910645	fix_post	2		12	64.0	2.5	/experiments/knapen_AOT/AOT_stimuli/rescaled_final/2139_fw.mp4	0.0	302.87130093574524	0.10003495216369629
67	286.50941491127014	fix_pre	0		120	65.0	2.5	/experiments/knapen_AOT/AOT_stimuli/rescaled_final/0773_rv.mp4	0.0	302.97133588790894	1.0001599788665771
67	287.093092918396	pulse	0	t		65.0	2.5	/experiments/knapen_AOT/AOT_stimuli/rescaled_final/0773_rv.mp4	0.0	303.5550138950348	
67	287.5095748901367	movie	1		243	65.0	2.5	/experiments/knapen_AOT/AOT_stimuli/rescaled_final/0773_rv.mp4	0.0	303.9714958667755	2.500481128692627
67	288.6932690143585	pulse	1	t		65.0	2.5	/experiments/knapen_AOT/AOT_stimuli/rescaled_final/0773_rv.mp4	0.0	305.1551899909973	
67	290.01005601882935	fix_post	2		10	65.0	2.5	/experiments/knapen_AOT/AOT_stimuli/rescaled_final/0773_rv.mp4	0.0	306.47197699546814	0.0998389720916748
68	290.109894990921	fix_pre	0		120	66.0	2.5	/experiments/knapen_AOT/AOT_stimuli/rescaled_final/1416_rv.mp4	0.0	306.5718159675598	1.0001699924468994
68	290.2933909893036	pulse	0	t		66.0	2.5	/experiments/knapen_AOT/AOT_stimuli/rescaled_final/1416_rv.mp4	0.0	306.7553119659424	
68	291.1100649833679	movie	1		243	66.0	2.5	/experiments/knapen_AOT/AOT_stimuli/rescaled_final/1416_rv.mp4	0.0	307.5719859600067	2.5004730224609375
68	291.8936939239502	pulse	1	t		66.0	2.5	/experiments/knapen_AOT/AOT_stimuli/rescaled_final/1416_rv.mp4	0.0	308.355614900589	
68	293.49367594718933	pulse	1	t		66.0	2.5	/experiments/knapen_AOT/AOT_stimuli/rescaled_final/1416_rv.mp4	0.0	309.9555969238281	
68	293.61053800582886	fix_post	2		12	66.0	2.5	/experiments/knapen_AOT/AOT_stimuli/rescaled_final/1416_rv.mp4	0.0	310.07245898246765	0.099884033203125
69	293.710422039032	fix_pre	0		120	67.0	2.5	/experiments/knapen_AOT/AOT_stimuli/rescaled_final/1858_rv.mp4	0.0	310.1723430156708	1.0001859664916992
69	294.7106080055237	movie	1		241	67.0	2.5	/experiments/knapen_AOT/AOT_stimuli/rescaled_final/1858_rv.mp4	0.0	311.1725289821625	2.492064952850342
69	295.0953600406647	pulse	1	t		67.0	2.5	/experiments/knapen_AOT/AOT_stimuli/rescaled_final/1858_rv.mp4	0.0	311.55728101730347	
69	296.69431591033936	pulse	1	t		67.0	2.5	/experiments/knapen_AOT/AOT_stimuli/rescaled_final/1858_rv.mp4	0.0	313.15623688697815	
69	297.202672958374	fix_post	2		12	67.0	2.5	/experiments/knapen_AOT/AOT_stimuli/rescaled_final/1858_rv.mp4	0.0	313.6645939350128	0.09998703002929688
70	297.3026599884033	fix_pre	0		120	68.0	2.5	blank	1.0	313.7645809650421	1.0001819133758545
70	298.2946469783783	pulse	0	t		68.0	2.5	blank	1.0	314.7565679550171	
70	298.3028419017792	movie	1		301	68.0	2.5	blank	1.0	314.76476287841797	2.5087010860443115
70	299.8950049877167	pulse	1	t		68.0	2.5	blank	1.0	316.35692596435547	
70	300.8115429878235	fix_post	2		12	68.0	2.5	blank	1.0	317.2734639644623	0.09995794296264648
71	300.91150093078613	fix_pre	0		120	69.0	2.5	/experiments/knapen_AOT/AOT_stimuli/rescaled_final/0718_fw.mp4	0.0	317.3734219074249	1.0001389980316162
71	301.495169878006	pulse	0	t		69.0	2.5	/experiments/knapen_AOT/AOT_stimuli/rescaled_final/0718_fw.mp4	0.0	317.9570908546448	
71	301.91163992881775	movie	1		243	69.0	2.5	/experiments/knapen_AOT/AOT_stimuli/rescaled_final/0718_fw.mp4	0.0	318.37356090545654	2.5004451274871826
71	303.09545493125916	pulse	1	t		69.0	2.5	/experiments/knapen_AOT/AOT_stimuli/rescaled_final/0718_fw.mp4	0.0	319.55737590789795	
71	304.41208505630493	fix_post	2		12	69.0	2.5	/experiments/knapen_AOT/AOT_stimuli/rescaled_final/0718_fw.mp4	0.0	320.8740060329437	0.0999448299407959
72	304.5120298862457	fix_pre	0		120	70.0	2.5	/experiments/knapen_AOT/AOT_stimuli/rescaled_final/1252_rv.mp4	0.0	320.9739508628845	1.0001740455627441
72	304.6881470680237	pulse	0	t		70.0	2.5	/experiments/knapen_AOT/AOT_stimuli/rescaled_final/1252_rv.mp4	0.0	321.1500680446625	
72	305.5122039318085	movie	1		242	70.0	2.5	/experiments/knapen_AOT/AOT_stimuli/rescaled_final/1252_rv.mp4	0.0	321.97412490844727	2.5005791187286377
72	306.28835105895996	pulse	1	t		70.0	2.5	/experiments/knapen_AOT/AOT_stimuli/rescaled_final/1252_rv.mp4	0.0	322.75027203559875	
72	307.8956530094147	pulse	1	t		70.0	2.5	/experiments/knapen_AOT/AOT_stimuli/rescaled_final/1252_rv.mp4	0.0	324.35757398605347	
72	308.0127830505371	fix_post	2		12	70.0	2.5	/experiments/knapen_AOT/AOT_stimuli/rescaled_final/1252_rv.mp4	0.0	324.4747040271759	0.09977293014526367
73	308.1125559806824	fix_pre	0		120	71.0	2.5	/experiments/knapen_AOT/AOT_stimuli/rescaled_final/0200_rv.mp4	0.0	324.57447695732117	1.000148057937622
73	309.11270403862	movie	1		244	71.0	2.5	/experiments/knapen_AOT/AOT_stimuli/rescaled_final/0200_rv.mp4	0.0	325.5746250152588	2.4920458793640137
73	309.4975039958954	pulse	1	t		71.0	2.5	/experiments/knapen_AOT/AOT_stimuli/rescaled_final/0200_rv.mp4	0.0	325.9594249725342	
73	311.08837699890137	pulse	1	t		71.0	2.5	/experiments/knapen_AOT/AOT_stimuli/rescaled_final/0200_rv.mp4	0.0	327.55029797554016	
73	311.604749917984	fix_post	2		12	71.0	2.5	/experiments/knapen_AOT/AOT_stimuli/rescaled_final/0200_rv.mp4	0.0	328.0666708946228	0.10003900527954102
74	311.70478892326355	fix_pre	0		119	72.0	2.5	/experiments/knapen_AOT/AOT_stimuli/rescaled_final/1440_rv.mp4	0.0	328.16670989990234	0.9917840957641602
74	312.6883728504181	pulse	0	t		72.0	2.5	/experiments/knapen_AOT/AOT_stimuli/rescaled_final/1440_rv.mp4	0.0	329.1502938270569	
74	312.6965730190277	movie	1		244	72.0	2.5	/experiments/knapen_AOT/AOT_stimuli/rescaled_final/1440_rv.mp4	0.0	329.1584939956665	2.508718967437744
74	314.28914403915405	pulse	1	t		72.0	2.5	/experiments/knapen_AOT/AOT_stimuli/rescaled_final/1440_rv.mp4	0.0	330.75106501579285	
74	315.20529198646545	fix_post	2		12	72.0	2.5	/experiments/knapen_AOT/AOT_stimuli/rescaled_final/1440_rv.mp4	0.0	331.66721296310425	0.10005307197570801
75	315.30534505844116	fix_pre	0		120	73.0	2.5	/experiments/knapen_AOT/AOT_stimuli/rescaled_final/0440_rv.mp4	0.0	331.76726603507996	1.0001139640808105
75	315.8890309333801	pulse	0	t		73.0	2.5	/experiments/knapen_AOT/AOT_stimuli/rescaled_final/0440_rv.mp4	0.0	332.3509519100189	
75	316.305459022522	movie	1		243	73.0	2.5	/experiments/knapen_AOT/AOT_stimuli/rescaled_final/0440_rv.mp4	0.0	332.76737999916077	2.500488042831421
75	317.4892258644104	pulse	1	t		73.0	2.5	/experiments/knapen_AOT/AOT_stimuli/rescaled_final/0440_rv.mp4	0.0	333.9511468410492	
75	318.8059470653534	fix_post	2		12	73.0	2.5	/experiments/knapen_AOT/AOT_stimuli/rescaled_final/0440_rv.mp4	0.0	335.2678680419922	0.0999000072479248
76	318.9058470726013	fix_pre	0		120	74.0	2.5	/experiments/knapen_AOT/AOT_stimuli/rescaled_final/1877_rv.mp4	0.0	335.3677680492401	1.0001928806304932
76	319.0893590450287	pulse	0	t		74.0	2.5	/experiments/knapen_AOT/AOT_stimuli/rescaled_final/1877_rv.mp4	0.0	335.5512800216675	
76	319.9060399532318	movie	1		244	74.0	2.5	/experiments/knapen_AOT/AOT_stimuli/rescaled_final/1877_rv.mp4	0.0	336.3679609298706	2.5003280639648438
76	320.68959283828735	pulse	1	t		74.0	2.5	/experiments/knapen_AOT/AOT_stimuli/rescaled_final/1877_rv.mp4	0.0	337.15151381492615	
76	322.2897779941559	pulse	1	t		74.0	2.5	/experiments/knapen_AOT/AOT_stimuli/rescaled_final/1877_rv.mp4	0.0	338.7516989707947	
76	322.40636801719666	fix_post	2		12	74.0	2.5	/experiments/knapen_AOT/AOT_stimuli/rescaled_final/1877_rv.mp4	0.0	338.86828899383545	0.10002899169921875
77	322.5063970088959	fix_pre	0		119	75.0	2.5	blank	1.0	338.96831798553467	0.9917738437652588
77	323.49817085266113	movie	1		300	75.0	2.5	blank	1.0	339.9600918292999	2.5004022121429443
77	323.89016795158386	pulse	1	t		75.0	2.5	blank	1.0	340.35208892822266	
77	325.49029994010925	pulse	1	t		75.0	2.5	blank	1.0	341.95222091674805	
77	325.9985730648041	fix_post	2		12	75.0	2.5	blank	1.0	342.46049404144287	0.09999990463256836
78	326.09857296943665	fix_pre	0		120	76.0	2.5	/experiments/knapen_AOT/AOT_stimuli/rescaled_final/0058_fw.mp4	0.0	342.56049394607544	1.0002670288085938
78	327.0906329154968	pulse	0	t		76.0	2.5	/experiments/knapen_AOT/AOT_stimuli/rescaled_final/0058_fw.mp4	0.0	343.5525538921356	
78	327.09883999824524	movie	1		247	76.0	2.5	/experiments/knapen_AOT/AOT_stimuli/rescaled_final/0058_fw.mp4	0.0	343.56076097488403	2.508633852005005
78	328.69135093688965	pulse	1	t		76.0	2.5	/experiments/knapen_AOT/AOT_stimuli/rescaled_final/0058_fw.mp4	0.0	345.15327191352844	
78	329.60747385025024	fix_post	2		12	76.0	2.5	/experiments/knapen_AOT/AOT_stimuli/rescaled_final/0058_fw.mp4	0.0	346.06939482688904	0.10001206398010254
79	329.70748591423035	fix_pre	0		120	77.0	2.5	/experiments/knapen_AOT/AOT_stimuli/rescaled_final/1766_fw.mp4	0.0	346.16940689086914	1.000148057937622
79	330.2910969257355	pulse	0	t		77.0	2.5	/experiments/knapen_AOT/AOT_stimuli/rescaled_final/1766_fw.mp4	0.0	346.75301790237427	
79	330.70763397216797	movie	1		243	77.0	2.5	/experiments/knapen_AOT/AOT_stimuli/rescaled_final/1766_fw.mp4	0.0	347.16955494880676	2.50050687789917
79	331.89144706726074	pulse	1	t		77.0	2.5	/experiments/knapen_AOT/AOT_stimuli/rescaled_final/1766_fw.mp4	0.0	348.35336804389954	
79	333.20814085006714	fix_post	2		12	77.0	2.5	/experiments/knapen_AOT/AOT_stimuli/rescaled_final/1766_fw.mp4	0.0	349.67006182670593	0.0999610424041748
80	333.3081018924713	fix_pre	0		120	78.0	2.5	/experiments/knapen_AOT/AOT_stimuli/rescaled_final/0394_fw.mp4	0.0	349.7700228691101	1.0000531673431396
80	333.49153184890747	pulse	0	t		78.0	2.5	/experiments/knapen_AOT/AOT_stimuli/rescaled_final/0394_fw.mp4	0.0	349.95345282554626	
80	334.30815505981445	movie	1		242	78.0	2.5	/experiments/knapen_AOT/AOT_stimuli/rescaled_final/0394_fw.mp4	0.0	350.77007603645325	2.5004048347473145
80	335.091835975647	pulse	1	t		78.0	2.5	/experiments/knapen_AOT/AOT_stimuli/rescaled_final/0394_fw.mp4	0.0	351.55375695228577	
80	336.6928200721741	pulse	1	t		78.0	2.5	/experiments/knapen_AOT/AOT_stimuli/rescaled_final/0394_fw.mp4	0.0	353.15474104881287	
80	336.80855989456177	fix_post	2		12	78.0	2.5	/experiments/knapen_AOT/AOT_stimuli/rescaled_final/0394_fw.mp4	0.0	353.27048087120056	0.09995508193969727
81	336.90851497650146	fix_pre	0		119	79.0	2.5	/experiments/knapen_AOT/AOT_stimuli/rescaled_final/1872_rv.mp4	0.0	353.37043595314026	0.9918239116668701
81	337.90033888816833	movie	1		242	79.0	2.5	/experiments/knapen_AOT/AOT_stimuli/rescaled_final/1872_rv.mp4	0.0	354.36225986480713	2.5005221366882324
81	338.29244589805603	pulse	1	t		79.0	2.5	/experiments/knapen_AOT/AOT_stimuli/rescaled_final/1872_rv.mp4	0.0	354.7543668746948	
81	339.89259004592896	pulse	1	t		79.0	2.5	/experiments/knapen_AOT/AOT_stimuli/rescaled_final/1872_rv.mp4	0.0	356.35451102256775	
81	340.40086102485657	fix_post	2		12	79.0	2.5	/experiments/knapen_AOT/AOT_stimuli/rescaled_final/1872_rv.mp4	0.0	356.86278200149536	0.09986686706542969
82	340.500727891922	fix_pre	0		120	80.0	2.5	/experiments/knapen_AOT/AOT_stimuli/rescaled_final/1003_rv.mp4	0.0	356.9626488685608	1.000133991241455
82	341.4928059577942	pulse	0	t		80.0	2.5	/experiments/knapen_AOT/AOT_stimuli/rescaled_final/1003_rv.mp4	0.0	357.954726934433	
82	341.50086188316345	movie	1		244	80.0	2.5	/experiments/knapen_AOT/AOT_stimuli/rescaled_final/1003_rv.mp4	0.0	357.96278285980225	2.5088000297546387
82	343.09353590011597	pulse	1	t		80.0	2.5	/experiments/knapen_AOT/AOT_stimuli/rescaled_final/1003_rv.mp4	0.0	359.55545687675476	
82	344.0096619129181	fix_post	2		12	80.0	2.5	/experiments/knapen_AOT/AOT_stimuli/rescaled_final/1003_rv.mp4	0.0	360.4715828895569	0.09995293617248535
83	344.1096148490906	fix_pre	0		120	81.0	2.5	/experiments/knapen_AOT/AOT_stimuli/rescaled_final/0716_rv.mp4	0.0	360.57153582572937	1.0001521110534668
83	344.6932530403137	pulse	0	t		81.0	2.5	/experiments/knapen_AOT/AOT_stimuli/rescaled_final/0716_rv.mp4	0.0	361.1551740169525	
83	345.10976696014404	movie	1		243	81.0	2.5	/experiments/knapen_AOT/AOT_stimuli/rescaled_final/0716_rv.mp4	0.0	361.57168793678284	2.5003890991210938
83	346.2894768714905	pulse	1	t		81.0	2.5	/experiments/knapen_AOT/AOT_stimuli/rescaled_final/0716_rv.mp4	0.0	362.7513978481293	
83	347.61015605926514	fix_post	2		12	81.0	2.5	/experiments/knapen_AOT/AOT_stimuli/rescaled_final/0716_rv.mp4	0.0	364.07207703590393	0.09996795654296875
84	347.7101240158081	fix_pre	0		120	82.0	2.5	blank	1.0	364.1720449924469	1.000166893005371
84	347.8937418460846	pulse	0	t		82.0	2.5	blank	1.0	364.3556628227234	
84	348.7102909088135	movie	1		300	82.0	2.5	blank	1.0	365.17221188545227	2.5003960132598877
84	349.4939239025116	pulse	1	t		82.0	2.5	blank	1.0	365.9558448791504	
84	351.09418201446533	pulse	1	t		82.0	2.5	blank	1.0	367.5561029911041	
84	351.21068692207336	fix_post	2		12	82.0	2.5	blank	1.0	367.67260789871216	0.10000014305114746
85	351.3106870651245	fix_pre	0		120	83.0	2.5	/experiments/knapen_AOT/AOT_stimuli/rescaled_final/1935_fw.mp4	0.0	367.7726080417633	1.0001068115234375
85	352.31079387664795	movie	1		243	83.0	2.5	/experiments/knapen_AOT/AOT_stimuli/rescaled_final/1935_fw.mp4	0.0	368.77271485328674	2.4920880794525146
85	352.6949579715729	pulse	1	t		83.0	2.5	/experiments/knapen_AOT/AOT_stimuli/rescaled_final/1935_fw.mp4	0.0	369.15687894821167	
85	354.29475688934326	pulse	1	t		83.0	2.5	/experiments/knapen_AOT/AOT_stimuli/rescaled_final/1935_fw.mp4	0.0	370.75667786598206	
85	354.80288195610046	fix_post	2		12	83.0	2.5	/experiments/knapen_AOT/AOT_stimuli/rescaled_final/1935_fw.mp4	0.0	371.26480293273926	0.1000208854675293
87	354.902902841568	stim	0		1713					371.3648238182068	14.302135229110718
87	355.8876769542694	pulse	0	t						372.3495979309082	
87	357.487774848938	pulse	0	t						373.9496958255768	
87	359.08800196647644	pulse	0	t						375.54992294311523	
87	360.68828797340393	pulse	0	t						377.1502089500427	
87	362.2883789539337	pulse	0	t						378.7502999305725	
87	363.8877718448639	pulse	0	t						380.3496928215027	
87	365.48798394203186	pulse	0	t						381.94990491867065	
87	367.0881350040436	pulse	0	t						383.5500559806824	
87	368.6883988380432	pulse	0	t						385.150319814682	
