trial_nr	onset	event_type	phase	response	nr_frames	movie_index	movie_duration	movie_file	blank	onset_abs	duration
0	0.1915569305419922	stim	0		627					23.610987901687622	5.225672006607056
0	5.401814937591553	response	0	space						28.821245908737183	
1	5.417228937149048	stim	0		4557					28.836659908294678	37.99275088310242
1	43.394866943359375	pulse	0	t						66.814297914505	
1	43.409979820251465	stim	1		1715					66.8294107913971	14.29837703704834
1	44.98999881744385	pulse	1	t						68.40942978858948	
1	46.59014892578125	pulse	1	t						70.00957989692688	
1	48.19051384925842	pulse	1	t						71.60994482040405	
1	49.79075503349304	pulse	1	t						73.21018600463867	
1	51.39095497131348	pulse	1	t						74.8103859424591	
1	52.99108099937439	pulse	1	t						76.41051197052002	
1	54.59144186973572	pulse	1	t						78.01087284088135	
1	56.19168496131897	pulse	1	t						79.6111159324646	
2	57.708356857299805	fix_pre	0		11	0.0	2.5	/experiments/knapen_AOT/AOT_stimuli/rescaled_final/0755_fw.mp4	0.0	81.12778782844543	0.10014510154724121
2	57.79196882247925	pulse	0	t		0.0	2.5	/experiments/knapen_AOT/AOT_stimuli/rescaled_final/0755_fw.mp4	0.0	81.21139979362488	
2	57.808501958847046	movie	1		244	0.0	2.5	/experiments/knapen_AOT/AOT_stimuli/rescaled_final/0755_fw.mp4	0.0	81.22793292999268	2.50026798248291
2	59.39283299446106	pulse	1	t		0.0	2.5	/experiments/knapen_AOT/AOT_stimuli/rescaled_final/0755_fw.mp4	0.0	82.81226396560669	
2	60.308769941329956	fix_post	2		12	0.0	2.5	/experiments/knapen_AOT/AOT_stimuli/rescaled_final/0755_fw.mp4	0.0	83.72820091247559	0.09997105598449707
3	60.40874099731445	fix_pre	0		120	1.0	2.5	/experiments/knapen_AOT/AOT_stimuli/rescaled_final/0276_fw.mp4	0.0	83.82817196846008	1.000180959701538
3	60.99236297607422	pulse	0	t		1.0	2.5	/experiments/knapen_AOT/AOT_stimuli/rescaled_final/0276_fw.mp4	0.0	84.41179394721985	
3	61.40892195701599	movie	1		245	1.0	2.5	/experiments/knapen_AOT/AOT_stimuli/rescaled_final/0276_fw.mp4	0.0	84.82835292816162	2.500375986099243
3	62.592808961868286	pulse	1	t		1.0	2.5	/experiments/knapen_AOT/AOT_stimuli/rescaled_final/0276_fw.mp4	0.0	86.01223993301392	
3	63.909297943115234	fix_post	2		12	1.0	2.5	/experiments/knapen_AOT/AOT_stimuli/rescaled_final/0276_fw.mp4	0.0	87.32872891426086	0.09997892379760742
4	64.00927686691284	fix_pre	0		120	2.0	2.5	/experiments/knapen_AOT/AOT_stimuli/rescaled_final/0317_rv.mp4	0.0	87.42870783805847	1.0001871585845947
4	64.19294285774231	pulse	0	t		2.0	2.5	/experiments/knapen_AOT/AOT_stimuli/rescaled_final/0317_rv.mp4	0.0	87.61237382888794	
4	65.00946402549744	movie	1		245	2.0	2.5	/experiments/knapen_AOT/AOT_stimuli/rescaled_final/0317_rv.mp4	0.0	88.42889499664307	2.5003719329833984
4	65.79311680793762	pulse	1	t		2.0	2.5	/experiments/knapen_AOT/AOT_stimuli/rescaled_final/0317_rv.mp4	0.0	89.21254777908325	
4	67.39077186584473	pulse	1	t		2.0	2.5	/experiments/knapen_AOT/AOT_stimuli/rescaled_final/0317_rv.mp4	0.0	90.81020283699036	
4	67.50983595848083	fix_post	2		12	2.0	2.5	/experiments/knapen_AOT/AOT_stimuli/rescaled_final/0317_rv.mp4	0.0	90.92926692962646	0.09999990463256836
5	67.6098358631134	fix_pre	0		120	3.0	2.5	/experiments/knapen_AOT/AOT_stimuli/rescaled_final/0478_rv.mp4	0.0	91.02926683425903	1.0001411437988281
5	68.60997700691223	movie	1		244	3.0	2.5	/experiments/knapen_AOT/AOT_stimuli/rescaled_final/0478_rv.mp4	0.0	92.02940797805786	2.4920058250427246
5	68.99759292602539	pulse	1	t		3.0	2.5	/experiments/knapen_AOT/AOT_stimuli/rescaled_final/0478_rv.mp4	0.0	92.41702389717102	
5	70.59387397766113	pulse	1	t		3.0	2.5	/experiments/knapen_AOT/AOT_stimuli/rescaled_final/0478_rv.mp4	0.0	94.01330494880676	
5	71.10198283195496	fix_post	2		12	3.0	2.5	/experiments/knapen_AOT/AOT_stimuli/rescaled_final/0478_rv.mp4	0.0	94.52141380310059	0.10004997253417969
6	71.20203280448914	fix_pre	0		120	4.0	2.5	/experiments/knapen_AOT/AOT_stimuli/rescaled_final/0619_fw.mp4	0.0	94.62146377563477	1.0001490116119385
6	72.19407391548157	pulse	0	t		4.0	2.5	/experiments/knapen_AOT/AOT_stimuli/rescaled_final/0619_fw.mp4	0.0	95.6135048866272	
6	72.20218181610107	movie	1		245	4.0	2.5	/experiments/knapen_AOT/AOT_stimuli/rescaled_final/0619_fw.mp4	0.0	95.6216127872467	2.5087270736694336
6	73.7957398891449	pulse	1	t		4.0	2.5	/experiments/knapen_AOT/AOT_stimuli/rescaled_final/0619_fw.mp4	0.0	97.21517086029053	
6	74.71090888977051	fix_post	2		12	4.0	2.5	/experiments/knapen_AOT/AOT_stimuli/rescaled_final/0619_fw.mp4	0.0	98.13033986091614	0.10003900527954102
7	74.81094789505005	fix_pre	0		120	5.0	2.5	/experiments/knapen_AOT/AOT_stimuli/rescaled_final/1140_fw.mp4	0.0	98.23037886619568	1.0001220703125
7	75.39457988739014	pulse	0	t		5.0	2.5	/experiments/knapen_AOT/AOT_stimuli/rescaled_final/1140_fw.mp4	0.0	98.81401085853577	
7	75.81106996536255	movie	1		244	5.0	2.5	/experiments/knapen_AOT/AOT_stimuli/rescaled_final/1140_fw.mp4	0.0	99.23050093650818	2.500324010848999
7	76.99492502212524	pulse	1	t		5.0	2.5	/experiments/knapen_AOT/AOT_stimuli/rescaled_final/1140_fw.mp4	0.0	100.41435599327087	
7	78.31139397621155	fix_post	2		12	5.0	2.5	/experiments/knapen_AOT/AOT_stimuli/rescaled_final/1140_fw.mp4	0.0	101.73082494735718	0.1000518798828125
8	78.41144585609436	fix_pre	0		120	6.0	2.5	/experiments/knapen_AOT/AOT_stimuli/rescaled_final/1852_fw.mp4	0.0	101.83087682723999	1.000157117843628
8	78.59508681297302	pulse	0	t		6.0	2.5	/experiments/knapen_AOT/AOT_stimuli/rescaled_final/1852_fw.mp4	0.0	102.01451778411865	
8	79.41160297393799	movie	1		244	6.0	2.5	/experiments/knapen_AOT/AOT_stimuli/rescaled_final/1852_fw.mp4	0.0	102.83103394508362	2.5003468990325928
8	80.19517302513123	pulse	1	t		6.0	2.5	/experiments/knapen_AOT/AOT_stimuli/rescaled_final/1852_fw.mp4	0.0	103.61460399627686	
8	81.7955219745636	pulse	1	t		6.0	2.5	/experiments/knapen_AOT/AOT_stimuli/rescaled_final/1852_fw.mp4	0.0	105.21495294570923	
8	81.91194987297058	fix_post	2		12	6.0	2.5	/experiments/knapen_AOT/AOT_stimuli/rescaled_final/1852_fw.mp4	0.0	105.33138084411621	0.10006093978881836
9	82.0120108127594	fix_pre	0		119	7.0	2.5	blank	1.0	105.43144178390503	0.9918391704559326
9	83.00384998321533	movie	1		300	7.0	2.5	blank	1.0	106.42328095436096	2.500332832336426
9	83.39582300186157	pulse	1	t		7.0	2.5	blank	1.0	106.8152539730072	
9	84.996022939682	pulse	1	t		7.0	2.5	blank	1.0	108.41545391082764	
9	85.50418281555176	fix_post	2		12	7.0	2.5	blank	1.0	108.92361378669739	0.09998321533203125
10	85.60416603088379	fix_pre	0		117	8.0	2.5	/experiments/knapen_AOT/AOT_stimuli/rescaled_final/0079_rv.mp4	0.0	109.02359700202942	1.0001678466796875
10	86.59616494178772	pulse	0	t		8.0	2.5	/experiments/knapen_AOT/AOT_stimuli/rescaled_final/0079_rv.mp4	0.0	110.01559591293335	
10	86.60433387756348	movie	1		244	8.0	2.5	/experiments/knapen_AOT/AOT_stimuli/rescaled_final/0079_rv.mp4	0.0	110.0237648487091	2.5086870193481445
10	88.19690489768982	pulse	1	t		8.0	2.5	/experiments/knapen_AOT/AOT_stimuli/rescaled_final/0079_rv.mp4	0.0	111.61633586883545	
10	89.11302089691162	fix_post	2		12	8.0	2.5	/experiments/knapen_AOT/AOT_stimuli/rescaled_final/0079_rv.mp4	0.0	112.53245186805725	0.10006594657897949
11	89.2130868434906	fix_pre	0		120	9.0	2.5	/experiments/knapen_AOT/AOT_stimuli/rescaled_final/0760_fw.mp4	0.0	112.63251781463623	1.0001251697540283
11	89.79662203788757	pulse	0	t		9.0	2.5	/experiments/knapen_AOT/AOT_stimuli/rescaled_final/0760_fw.mp4	0.0	113.2160530090332	
11	90.21321201324463	movie	1		244	9.0	2.5	/experiments/knapen_AOT/AOT_stimuli/rescaled_final/0760_fw.mp4	0.0	113.63264298439026	2.500365972518921
11	91.39709281921387	pulse	1	t		9.0	2.5	/experiments/knapen_AOT/AOT_stimuli/rescaled_final/0760_fw.mp4	0.0	114.8165237903595	
11	92.71357798576355	fix_post	2		12	9.0	2.5	/experiments/knapen_AOT/AOT_stimuli/rescaled_final/0760_fw.mp4	0.0	116.13300895690918	0.09999704360961914
12	92.81357502937317	fix_pre	0		117	10.0	2.5	/experiments/knapen_AOT/AOT_stimuli/rescaled_final/1429_fw.mp4	0.0	116.2330060005188	1.0005409717559814
12	92.99714398384094	pulse	0	t		10.0	2.5	/experiments/knapen_AOT/AOT_stimuli/rescaled_final/1429_fw.mp4	0.0	116.41657495498657	
12	93.81411600112915	movie	1		243	10.0	2.5	/experiments/knapen_AOT/AOT_stimuli/rescaled_final/1429_fw.mp4	0.0	117.23354697227478	2.5000360012054443
12	94.59738492965698	pulse	1	t		10.0	2.5	/experiments/knapen_AOT/AOT_stimuli/rescaled_final/1429_fw.mp4	0.0	118.01681590080261	
12	96.19952893257141	pulse	1	t		10.0	2.5	/experiments/knapen_AOT/AOT_stimuli/rescaled_final/1429_fw.mp4	0.0	119.61895990371704	
12	96.3141520023346	fix_post	2		12	10.0	2.5	/experiments/knapen_AOT/AOT_stimuli/rescaled_final/1429_fw.mp4	0.0	119.73358297348022	0.09998393058776855
13	96.41413593292236	fix_pre	0		119	11.0	2.5	/experiments/knapen_AOT/AOT_stimuli/rescaled_final/1699_rv.mp4	0.0	119.833566904068	0.991826057434082
13	97.40596199035645	movie	1		244	11.0	2.5	/experiments/knapen_AOT/AOT_stimuli/rescaled_final/1699_rv.mp4	0.0	120.82539296150208	2.500361919403076
13	97.79099798202515	pulse	1	t		11.0	2.5	/experiments/knapen_AOT/AOT_stimuli/rescaled_final/1699_rv.mp4	0.0	121.21042895317078	
13	99.39079689979553	pulse	1	t		11.0	2.5	/experiments/knapen_AOT/AOT_stimuli/rescaled_final/1699_rv.mp4	0.0	122.81022787094116	
13	99.90632390975952	fix_post	2		12	11.0	2.5	/experiments/knapen_AOT/AOT_stimuli/rescaled_final/1699_rv.mp4	0.0	123.32575488090515	0.09999299049377441
14	100.0063169002533	fix_pre	0		120	12.0	2.5	blank	1.0	123.42574787139893	1.000169038772583
14	100.9908549785614	pulse	0	t		12.0	2.5	blank	1.0	124.41028594970703	
14	101.00648593902588	movie	1		301	12.0	2.5	blank	1.0	124.42591691017151	2.5087060928344727
14	102.59098982810974	pulse	1	t		12.0	2.5	blank	1.0	126.01042079925537	
14	103.51519203186035	fix_post	2		12	12.0	2.5	blank	1.0	126.93462300300598	0.10001492500305176
15	103.6152069568634	fix_pre	0		120	13.0	2.5	/experiments/knapen_AOT/AOT_stimuli/rescaled_final/0808_rv.mp4	0.0	127.03463792800903	1.0001790523529053
15	104.19044899940491	pulse	0	t		13.0	2.5	/experiments/knapen_AOT/AOT_stimuli/rescaled_final/0808_rv.mp4	0.0	127.60987997055054	
15	104.61538600921631	movie	1		244	13.0	2.5	/experiments/knapen_AOT/AOT_stimuli/rescaled_final/0808_rv.mp4	0.0	128.03481698036194	2.5003960132598877
15	105.79173994064331	pulse	1	t		13.0	2.5	/experiments/knapen_AOT/AOT_stimuli/rescaled_final/0808_rv.mp4	0.0	129.21117091178894	
15	107.1157820224762	fix_post	2		12	13.0	2.5	/experiments/knapen_AOT/AOT_stimuli/rescaled_final/0808_rv.mp4	0.0	130.53521299362183	0.09995293617248535
16	107.21573495864868	fix_pre	0		120	14.0	2.5	/experiments/knapen_AOT/AOT_stimuli/rescaled_final/1043_fw.mp4	0.0	130.6351659297943	1.0001490116119385
16	107.39109301567078	pulse	0	t		14.0	2.5	/experiments/knapen_AOT/AOT_stimuli/rescaled_final/1043_fw.mp4	0.0	130.8105239868164	
16	108.21588397026062	movie	1		244	14.0	2.5	/experiments/knapen_AOT/AOT_stimuli/rescaled_final/1043_fw.mp4	0.0	131.63531494140625	2.4920108318328857
16	108.99115681648254	pulse	1	t		14.0	2.5	/experiments/knapen_AOT/AOT_stimuli/rescaled_final/1043_fw.mp4	0.0	132.41058778762817	
16	110.591481924057	pulse	1	t		14.0	2.5	/experiments/knapen_AOT/AOT_stimuli/rescaled_final/1043_fw.mp4	0.0	134.01091289520264	
16	110.7078948020935	fix_post	2		12	14.0	2.5	/experiments/knapen_AOT/AOT_stimuli/rescaled_final/1043_fw.mp4	0.0	134.12732577323914	0.10003399848937988
17	110.80792880058289	fix_pre	0		120	15.0	2.5	/experiments/knapen_AOT/AOT_stimuli/rescaled_final/0900_fw.mp4	0.0	134.22735977172852	1.0001552104949951
17	111.80808401107788	movie	1		247	15.0	2.5	/experiments/knapen_AOT/AOT_stimuli/rescaled_final/0900_fw.mp4	0.0	135.2275149822235	2.5003809928894043
17	112.1921808719635	pulse	1	t		15.0	2.5	/experiments/knapen_AOT/AOT_stimuli/rescaled_final/0900_fw.mp4	0.0	135.61161184310913	
17	113.79193997383118	pulse	1	t		15.0	2.5	/experiments/knapen_AOT/AOT_stimuli/rescaled_final/0900_fw.mp4	0.0	137.2113709449768	
17	114.30846500396729	fix_post	2		12	15.0	2.5	/experiments/knapen_AOT/AOT_stimuli/rescaled_final/0900_fw.mp4	0.0	137.72789597511292	0.10005784034729004
18	114.40852284431458	fix_pre	0		119	16.0	2.5	/experiments/knapen_AOT/AOT_stimuli/rescaled_final/1445_fw.mp4	0.0	137.8279538154602	0.9917869567871094
18	115.39215683937073	pulse	0	t		16.0	2.5	/experiments/knapen_AOT/AOT_stimuli/rescaled_final/1445_fw.mp4	0.0	138.81158781051636	
18	115.40030980110168	movie	1		245	16.0	2.5	/experiments/knapen_AOT/AOT_stimuli/rescaled_final/1445_fw.mp4	0.0	138.81974077224731	2.508697032928467
18	116.99397802352905	pulse	1	t		16.0	2.5	/experiments/knapen_AOT/AOT_stimuli/rescaled_final/1445_fw.mp4	0.0	140.41340899467468	
18	117.90900683403015	fix_post	2		12	16.0	2.5	/experiments/knapen_AOT/AOT_stimuli/rescaled_final/1445_fw.mp4	0.0	141.32843780517578	0.09999418258666992
19	118.00900101661682	fix_pre	0		120	17.0	2.5	/experiments/knapen_AOT/AOT_stimuli/rescaled_final/1010_fw.mp4	0.0	141.42843198776245	1.0001819133758545
19	118.59264588356018	pulse	0	t		17.0	2.5	/experiments/knapen_AOT/AOT_stimuli/rescaled_final/1010_fw.mp4	0.0	142.0120768547058	
19	119.00918292999268	movie	1		244	17.0	2.5	/experiments/knapen_AOT/AOT_stimuli/rescaled_final/1010_fw.mp4	0.0	142.4286139011383	2.500314950942993
19	120.1929578781128	pulse	1	t		17.0	2.5	/experiments/knapen_AOT/AOT_stimuli/rescaled_final/1010_fw.mp4	0.0	143.61238884925842	
19	121.50949788093567	fix_post	2		12	17.0	2.5	/experiments/knapen_AOT/AOT_stimuli/rescaled_final/1010_fw.mp4	0.0	144.9289288520813	0.10006499290466309
20	121.60956287384033	fix_pre	0		120	18.0	2.5	/experiments/knapen_AOT/AOT_stimuli/rescaled_final/1322_fw.mp4	0.0	145.02899384498596	1.0001530647277832
20	121.79310488700867	pulse	0	t		18.0	2.5	/experiments/knapen_AOT/AOT_stimuli/rescaled_final/1322_fw.mp4	0.0	145.2125358581543	
20	122.60971593856812	movie	1		245	18.0	2.5	/experiments/knapen_AOT/AOT_stimuli/rescaled_final/1322_fw.mp4	0.0	146.02914690971375	2.500393867492676
20	123.39335799217224	pulse	1	t		18.0	2.5	/experiments/knapen_AOT/AOT_stimuli/rescaled_final/1322_fw.mp4	0.0	146.81278896331787	
20	124.9911618232727	pulse	1	t		18.0	2.5	/experiments/knapen_AOT/AOT_stimuli/rescaled_final/1322_fw.mp4	0.0	148.41059279441833	
20	125.11010980606079	fix_post	2		12	18.0	2.5	/experiments/knapen_AOT/AOT_stimuli/rescaled_final/1322_fw.mp4	0.0	148.52954077720642	0.0999460220336914
21	125.21005582809448	fix_pre	0		120	19.0	2.5	/experiments/knapen_AOT/AOT_stimuli/rescaled_final/1597_fw.mp4	0.0	148.6294867992401	1.0001931190490723
21	126.21024894714355	movie	1		243	19.0	2.5	/experiments/knapen_AOT/AOT_stimuli/rescaled_final/1597_fw.mp4	0.0	149.62967991828918	2.492002010345459
21	126.59440493583679	pulse	1	t		19.0	2.5	/experiments/knapen_AOT/AOT_stimuli/rescaled_final/1597_fw.mp4	0.0	150.01383590698242	
21	128.19405388832092	pulse	1	t		19.0	2.5	/experiments/knapen_AOT/AOT_stimuli/rescaled_final/1597_fw.mp4	0.0	151.61348485946655	
21	128.702250957489	fix_post	2		12	19.0	2.5	/experiments/knapen_AOT/AOT_stimuli/rescaled_final/1597_fw.mp4	0.0	152.12168192863464	0.10009002685546875
22	128.80234098434448	fix_pre	0		120	20.0	2.5	blank	1.0	152.2217719554901	1.0001239776611328
22	129.794291973114	pulse	0	t		20.0	2.5	blank	1.0	153.21372294425964	
22	129.80246496200562	movie	1		301	20.0	2.5	blank	1.0	153.22189593315125	2.5087039470672607
22	131.3946089744568	pulse	1	t		20.0	2.5	blank	1.0	154.81403994560242	
22	132.31116890907288	fix_post	2		12	20.0	2.5	blank	1.0	155.7305998802185	0.09995794296264648
23	132.41112685203552	fix_pre	0		120	21.0	2.5	/experiments/knapen_AOT/AOT_stimuli/rescaled_final/1429_rv.mp4	0.0	155.83055782318115	1.000175952911377
23	132.9948799610138	pulse	0	t		21.0	2.5	/experiments/knapen_AOT/AOT_stimuli/rescaled_final/1429_rv.mp4	0.0	156.41431093215942	
23	133.4113028049469	movie	1		244	21.0	2.5	/experiments/knapen_AOT/AOT_stimuli/rescaled_final/1429_rv.mp4	0.0	156.83073377609253	2.500349998474121
23	134.59508395195007	pulse	1	t		21.0	2.5	/experiments/knapen_AOT/AOT_stimuli/rescaled_final/1429_rv.mp4	0.0	158.0145149230957	
23	135.91165280342102	fix_post	2		12	21.0	2.5	/experiments/knapen_AOT/AOT_stimuli/rescaled_final/1429_rv.mp4	0.0	159.33108377456665	0.10003018379211426
24	136.01168298721313	fix_pre	0		120	22.0	2.5	/experiments/knapen_AOT/AOT_stimuli/rescaled_final/0071_rv.mp4	0.0	159.43111395835876	1.0001869201660156
24	136.19531297683716	pulse	0	t		22.0	2.5	/experiments/knapen_AOT/AOT_stimuli/rescaled_final/0071_rv.mp4	0.0	159.6147439479828	
24	137.01186990737915	movie	1		246	22.0	2.5	/experiments/knapen_AOT/AOT_stimuli/rescaled_final/0071_rv.mp4	0.0	160.43130087852478	2.5003509521484375
24	137.7955629825592	pulse	1	t		22.0	2.5	/experiments/knapen_AOT/AOT_stimuli/rescaled_final/0071_rv.mp4	0.0	161.21499395370483	
24	139.39581680297852	pulse	1	t		22.0	2.5	/experiments/knapen_AOT/AOT_stimuli/rescaled_final/0071_rv.mp4	0.0	162.81524777412415	
24	139.5122208595276	fix_post	2		12	22.0	2.5	/experiments/knapen_AOT/AOT_stimuli/rescaled_final/0071_rv.mp4	0.0	162.93165183067322	0.10012507438659668
25	139.61234593391418	fix_pre	0		120	23.0	2.5	/experiments/knapen_AOT/AOT_stimuli/rescaled_final/1219_rv.mp4	0.0	163.03177690505981	1.0000340938568115
25	140.612380027771	movie	1		243	23.0	2.5	/experiments/knapen_AOT/AOT_stimuli/rescaled_final/1219_rv.mp4	0.0	164.03181099891663	2.492015838623047
25	140.99726796150208	pulse	1	t		23.0	2.5	/experiments/knapen_AOT/AOT_stimuli/rescaled_final/1219_rv.mp4	0.0	164.4166989326477	
25	142.59622502326965	pulse	1	t		23.0	2.5	/experiments/knapen_AOT/AOT_stimuli/rescaled_final/1219_rv.mp4	0.0	166.01565599441528	
25	143.10439586639404	fix_post	2		12	23.0	2.5	/experiments/knapen_AOT/AOT_stimuli/rescaled_final/1219_rv.mp4	0.0	166.52382683753967	0.10001897811889648
26	143.20441484451294	fix_pre	0		120	24.0	2.5	/experiments/knapen_AOT/AOT_stimuli/rescaled_final/0218_fw.mp4	0.0	166.62384581565857	1.0001859664916992
26	144.1965048313141	pulse	0	t		24.0	2.5	/experiments/knapen_AOT/AOT_stimuli/rescaled_final/0218_fw.mp4	0.0	167.61593580245972	
26	144.20460081100464	movie	1		246	24.0	2.5	/experiments/knapen_AOT/AOT_stimuli/rescaled_final/0218_fw.mp4	0.0	167.62403178215027	2.5087170600891113
26	145.79718494415283	pulse	1	t		24.0	2.5	/experiments/knapen_AOT/AOT_stimuli/rescaled_final/0218_fw.mp4	0.0	169.21661591529846	
26	146.71331787109375	fix_post	2		12	24.0	2.5	/experiments/knapen_AOT/AOT_stimuli/rescaled_final/0218_fw.mp4	0.0	170.13274884223938	0.0999910831451416
27	146.8133089542389	fix_pre	0		120	25.0	2.5	/experiments/knapen_AOT/AOT_stimuli/rescaled_final/1503_rv.mp4	0.0	170.23273992538452	1.0001959800720215
27	147.39699292182922	pulse	0	t		25.0	2.5	/experiments/knapen_AOT/AOT_stimuli/rescaled_final/1503_rv.mp4	0.0	170.81642389297485	
27	147.8135049343109	movie	1		245	25.0	2.5	/experiments/knapen_AOT/AOT_stimuli/rescaled_final/1503_rv.mp4	0.0	171.23293590545654	2.5002989768981934
27	148.99021291732788	pulse	1	t		25.0	2.5	/experiments/knapen_AOT/AOT_stimuli/rescaled_final/1503_rv.mp4	0.0	172.4096438884735	
27	150.3138039112091	fix_post	2		12	25.0	2.5	/experiments/knapen_AOT/AOT_stimuli/rescaled_final/1503_rv.mp4	0.0	173.73323488235474	0.10005712509155273
28	150.41386103630066	fix_pre	0		120	26.0	2.5	/experiments/knapen_AOT/AOT_stimuli/rescaled_final/1920_fw.mp4	0.0	173.8332920074463	1.0001468658447266
28	150.58990502357483	pulse	0	t		26.0	2.5	/experiments/knapen_AOT/AOT_stimuli/rescaled_final/1920_fw.mp4	0.0	174.00933599472046	
28	151.41400790214539	movie	1		241	26.0	2.5	/experiments/knapen_AOT/AOT_stimuli/rescaled_final/1920_fw.mp4	0.0	174.83343887329102	2.4951159954071045
28	152.19018387794495	pulse	1	t		26.0	2.5	/experiments/knapen_AOT/AOT_stimuli/rescaled_final/1920_fw.mp4	0.0	175.60961484909058	
28	153.798024892807	pulse	1	t		26.0	2.5	/experiments/knapen_AOT/AOT_stimuli/rescaled_final/1920_fw.mp4	0.0	177.21745586395264	
28	153.9091238975525	fix_post	2		13	26.0	2.5	/experiments/knapen_AOT/AOT_stimuli/rescaled_final/1920_fw.mp4	0.0	177.32855486869812	0.10524606704711914
29	154.0143699645996	fix_pre	0		120	27.0	2.5	blank	1.0	177.43380093574524	1.0001609325408936
29	155.0145308971405	movie	1		299	27.0	2.5	blank	1.0	178.43396186828613	2.492056131362915
29	155.38998293876648	pulse	1	t		27.0	2.5	blank	1.0	178.8094139099121	
29	156.98992085456848	pulse	1	t		27.0	2.5	blank	1.0	180.4093518257141	
29	157.50658702850342	fix_post	2		12	27.0	2.5	blank	1.0	180.92601799964905	0.09998488426208496
30	157.6065719127655	fix_pre	0		119	28.0	2.5	/experiments/knapen_AOT/AOT_stimuli/rescaled_final/1863_rv.mp4	0.0	181.02600288391113	0.9918310642242432
30	158.59020686149597	pulse	0	t		28.0	2.5	/experiments/knapen_AOT/AOT_stimuli/rescaled_final/1863_rv.mp4	0.0	182.0096378326416	
30	158.59840297698975	movie	1		246	28.0	2.5	/experiments/knapen_AOT/AOT_stimuli/rescaled_final/1863_rv.mp4	0.0	182.01783394813538	2.508683919906616
30	160.1909339427948	pulse	1	t		28.0	2.5	/experiments/knapen_AOT/AOT_stimuli/rescaled_final/1863_rv.mp4	0.0	183.61036491394043	
30	161.10708689689636	fix_post	2		12	28.0	2.5	/experiments/knapen_AOT/AOT_stimuli/rescaled_final/1863_rv.mp4	0.0	184.526517868042	0.10001993179321289
31	161.20710682868958	fix_pre	0		120	29.0	2.5	/experiments/knapen_AOT/AOT_stimuli/rescaled_final/0892_fw.mp4	0.0	184.6265377998352	1.0001890659332275
31	161.79080486297607	pulse	0	t		29.0	2.5	/experiments/knapen_AOT/AOT_stimuli/rescaled_final/0892_fw.mp4	0.0	185.2102358341217	
31	162.2072958946228	movie	1		243	29.0	2.5	/experiments/knapen_AOT/AOT_stimuli/rescaled_final/0892_fw.mp4	0.0	185.62672686576843	2.5004420280456543
31	163.391117811203	pulse	1	t		29.0	2.5	/experiments/knapen_AOT/AOT_stimuli/rescaled_final/0892_fw.mp4	0.0	186.81054878234863	
31	164.70773792266846	fix_post	2		12	29.0	2.5	/experiments/knapen_AOT/AOT_stimuli/rescaled_final/0892_fw.mp4	0.0	188.1271688938141	0.09996891021728516
32	164.80770683288574	fix_pre	0		120	30.0	2.5	/experiments/knapen_AOT/AOT_stimuli/rescaled_final/1984_fw.mp4	0.0	188.22713780403137	1.000101089477539
32	164.9911608695984	pulse	0	t		30.0	2.5	/experiments/knapen_AOT/AOT_stimuli/rescaled_final/1984_fw.mp4	0.0	188.41059184074402	
32	165.80780792236328	movie	1		245	30.0	2.5	/experiments/knapen_AOT/AOT_stimuli/rescaled_final/1984_fw.mp4	0.0	189.2272388935089	2.5003650188446045
32	166.59145402908325	pulse	1	t		30.0	2.5	/experiments/knapen_AOT/AOT_stimuli/rescaled_final/1984_fw.mp4	0.0	190.01088500022888	
32	168.1917748451233	pulse	1	t		30.0	2.5	/experiments/knapen_AOT/AOT_stimuli/rescaled_final/1984_fw.mp4	0.0	191.61120581626892	
32	168.30817294120789	fix_post	2		12	30.0	2.5	/experiments/knapen_AOT/AOT_stimuli/rescaled_final/1984_fw.mp4	0.0	191.72760391235352	0.10001301765441895
33	168.4081859588623	fix_pre	0		119	31.0	2.5	/experiments/knapen_AOT/AOT_stimuli/rescaled_final/0026_fw.mp4	0.0	191.82761693000793	0.9918320178985596
33	169.40001797676086	movie	1		245	31.0	2.5	/experiments/knapen_AOT/AOT_stimuli/rescaled_final/0026_fw.mp4	0.0	192.8194489479065	2.500347852706909
33	169.79203581809998	pulse	1	t		31.0	2.5	/experiments/knapen_AOT/AOT_stimuli/rescaled_final/0026_fw.mp4	0.0	193.2114667892456	
33	171.39222192764282	pulse	1	t		31.0	2.5	/experiments/knapen_AOT/AOT_stimuli/rescaled_final/0026_fw.mp4	0.0	194.81165289878845	
33	171.90036582946777	fix_post	2		12	31.0	2.5	/experiments/knapen_AOT/AOT_stimuli/rescaled_final/0026_fw.mp4	0.0	195.3197968006134	0.10002517700195312
34	172.00039100646973	fix_pre	0		120	32.0	2.5	/experiments/knapen_AOT/AOT_stimuli/rescaled_final/0989_rv.mp4	0.0	195.41982197761536	1.000187873840332
34	172.9924328327179	pulse	0	t		32.0	2.5	/experiments/knapen_AOT/AOT_stimuli/rescaled_final/0989_rv.mp4	0.0	196.41186380386353	
34	173.00057888031006	movie	1		246	32.0	2.5	/experiments/knapen_AOT/AOT_stimuli/rescaled_final/0989_rv.mp4	0.0	196.4200098514557	2.5086491107940674
34	174.59327387809753	pulse	1	t		32.0	2.5	/experiments/knapen_AOT/AOT_stimuli/rescaled_final/0989_rv.mp4	0.0	198.01270484924316	
34	175.50922799110413	fix_post	2		12	32.0	2.5	/experiments/knapen_AOT/AOT_stimuli/rescaled_final/0989_rv.mp4	0.0	198.92865896224976	0.1000509262084961
35	175.60927891731262	fix_pre	0		120	33.0	2.5	/experiments/knapen_AOT/AOT_stimuli/rescaled_final/1327_fw.mp4	0.0	199.02870988845825	1.0001490116119385
35	176.19301390647888	pulse	0	t		33.0	2.5	/experiments/knapen_AOT/AOT_stimuli/rescaled_final/1327_fw.mp4	0.0	199.6124448776245	
35	176.60942792892456	movie	1		244	33.0	2.5	/experiments/knapen_AOT/AOT_stimuli/rescaled_final/1327_fw.mp4	0.0	200.0288589000702	2.5003960132598877
35	177.79316592216492	pulse	1	t		33.0	2.5	/experiments/knapen_AOT/AOT_stimuli/rescaled_final/1327_fw.mp4	0.0	201.21259689331055	
35	179.10982394218445	fix_post	2		12	33.0	2.5	/experiments/knapen_AOT/AOT_stimuli/rescaled_final/1327_fw.mp4	0.0	202.52925491333008	0.10000896453857422
36	179.20983290672302	fix_pre	0		120	34.0	2.5	blank	1.0	202.62926387786865	1.0001490116119385
36	179.3934359550476	pulse	0	t		34.0	2.5	blank	1.0	202.81286692619324	
36	180.20998191833496	movie	1		300	34.0	2.5	blank	1.0	203.6294128894806	2.50039005279541
36	180.9936399459839	pulse	1	t		34.0	2.5	blank	1.0	204.41307091712952	
36	182.59396290779114	pulse	1	t		34.0	2.5	blank	1.0	206.01339387893677	
36	182.71037197113037	fix_post	2		12	34.0	2.5	blank	1.0	206.129802942276	0.09994888305664062
37	182.810320854187	fix_pre	0		120	35.0	2.5	/experiments/knapen_AOT/AOT_stimuli/rescaled_final/0437_fw.mp4	0.0	206.22975182533264	1.0001871585845947
37	183.8105080127716	movie	1		242	35.0	2.5	/experiments/knapen_AOT/AOT_stimuli/rescaled_final/0437_fw.mp4	0.0	207.22993898391724	2.4920079708099365
37	184.1948218345642	pulse	1	t		35.0	2.5	/experiments/knapen_AOT/AOT_stimuli/rescaled_final/0437_fw.mp4	0.0	207.61425280570984	
37	185.79438996315002	pulse	1	t		35.0	2.5	/experiments/knapen_AOT/AOT_stimuli/rescaled_final/0437_fw.mp4	0.0	209.21382093429565	
37	186.30251598358154	fix_post	2		12	35.0	2.5	/experiments/knapen_AOT/AOT_stimuli/rescaled_final/0437_fw.mp4	0.0	209.72194695472717	0.10003900527954102
38	186.40255498886108	fix_pre	0		120	36.0	2.5	/experiments/knapen_AOT/AOT_stimuli/rescaled_final/0914_rv.mp4	0.0	209.8219859600067	1.000195026397705
38	187.39463186264038	pulse	0	t		36.0	2.5	/experiments/knapen_AOT/AOT_stimuli/rescaled_final/0914_rv.mp4	0.0	210.814062833786	
38	187.4027500152588	movie	1		247	36.0	2.5	/experiments/knapen_AOT/AOT_stimuli/rescaled_final/0914_rv.mp4	0.0	210.82218098640442	2.5086729526519775
38	188.99534702301025	pulse	1	t		36.0	2.5	/experiments/knapen_AOT/AOT_stimuli/rescaled_final/0914_rv.mp4	0.0	212.41477799415588	
38	189.91142296791077	fix_post	2		12	36.0	2.5	/experiments/knapen_AOT/AOT_stimuli/rescaled_final/0914_rv.mp4	0.0	213.3308539390564	0.10000801086425781
39	190.01143097877502	fix_pre	0		120	37.0	2.5	/experiments/knapen_AOT/AOT_stimuli/rescaled_final/0319_fw.mp4	0.0	213.43086194992065	1.0001819133758545
39	190.59512281417847	pulse	0	t		37.0	2.5	/experiments/knapen_AOT/AOT_stimuli/rescaled_final/0319_fw.mp4	0.0	214.0145537853241	
39	191.01161289215088	movie	1		244	37.0	2.5	/experiments/knapen_AOT/AOT_stimuli/rescaled_final/0319_fw.mp4	0.0	214.4310438632965	2.500308036804199
39	192.19534301757812	pulse	1	t		37.0	2.5	/experiments/knapen_AOT/AOT_stimuli/rescaled_final/0319_fw.mp4	0.0	215.61477398872375	
39	193.51192092895508	fix_post	2		12	37.0	2.5	/experiments/knapen_AOT/AOT_stimuli/rescaled_final/0319_fw.mp4	0.0	216.9313519001007	0.10001087188720703
40	193.61193180084229	fix_pre	0		120	38.0	2.5	/experiments/knapen_AOT/AOT_stimuli/rescaled_final/0960_rv.mp4	0.0	217.03136277198792	1.0001890659332275
40	193.79549598693848	pulse	0	t		38.0	2.5	/experiments/knapen_AOT/AOT_stimuli/rescaled_final/0960_rv.mp4	0.0	217.2149269580841	
40	194.6121208667755	movie	1		243	38.0	2.5	/experiments/knapen_AOT/AOT_stimuli/rescaled_final/0960_rv.mp4	0.0	218.03155183792114	2.5003271102905273
40	195.39576983451843	pulse	1	t		38.0	2.5	/experiments/knapen_AOT/AOT_stimuli/rescaled_final/0960_rv.mp4	0.0	218.81520080566406	
40	196.99593901634216	pulse	1	t		38.0	2.5	/experiments/knapen_AOT/AOT_stimuli/rescaled_final/0960_rv.mp4	0.0	220.4153699874878	
40	197.11244797706604	fix_post	2		12	38.0	2.5	/experiments/knapen_AOT/AOT_stimuli/rescaled_final/0960_rv.mp4	0.0	220.53187894821167	0.10003805160522461
41	197.21248602867126	fix_pre	0		120	39.0	2.5	/experiments/knapen_AOT/AOT_stimuli/rescaled_final/0696_rv.mp4	0.0	220.6319169998169	1.0001699924468994
41	198.21265602111816	movie	1		242	39.0	2.5	/experiments/knapen_AOT/AOT_stimuli/rescaled_final/0696_rv.mp4	0.0	221.6320869922638	2.492003917694092
41	198.59699892997742	pulse	1	t		39.0	2.5	/experiments/knapen_AOT/AOT_stimuli/rescaled_final/0696_rv.mp4	0.0	222.01642990112305	
41	200.19650888442993	pulse	1	t		39.0	2.5	/experiments/knapen_AOT/AOT_stimuli/rescaled_final/0696_rv.mp4	0.0	223.61593985557556	
41	200.70465993881226	fix_post	2		12	39.0	2.5	/experiments/knapen_AOT/AOT_stimuli/rescaled_final/0696_rv.mp4	0.0	224.12409090995789	0.10003304481506348
42	200.80469298362732	fix_pre	0		120	40.0	2.5	/experiments/knapen_AOT/AOT_stimuli/rescaled_final/0049_rv.mp4	0.0	224.22412395477295	1.0001678466796875
42	201.79682898521423	pulse	0	t		40.0	2.5	/experiments/knapen_AOT/AOT_stimuli/rescaled_final/0049_rv.mp4	0.0	225.21625995635986	
42	201.804860830307	movie	1		244	40.0	2.5	/experiments/knapen_AOT/AOT_stimuli/rescaled_final/0049_rv.mp4	0.0	225.22429180145264	2.508665084838867
42	203.39846992492676	pulse	1	t		40.0	2.5	/experiments/knapen_AOT/AOT_stimuli/rescaled_final/0049_rv.mp4	0.0	226.8179008960724	
42	204.31352591514587	fix_post	2		12	40.0	2.5	/experiments/knapen_AOT/AOT_stimuli/rescaled_final/0049_rv.mp4	0.0	227.7329568862915	0.10003089904785156
43	204.41355681419373	fix_pre	0		120	41.0	2.5	/experiments/knapen_AOT/AOT_stimuli/rescaled_final/1903_fw.mp4	0.0	227.83298778533936	1.000223159790039
43	204.99718594551086	pulse	0	t		41.0	2.5	/experiments/knapen_AOT/AOT_stimuli/rescaled_final/1903_fw.mp4	0.0	228.4166169166565	
43	205.41377997398376	movie	1		245	41.0	2.5	/experiments/knapen_AOT/AOT_stimuli/rescaled_final/1903_fw.mp4	0.0	228.8332109451294	2.500308036804199
43	206.59754490852356	pulse	1	t		41.0	2.5	/experiments/knapen_AOT/AOT_stimuli/rescaled_final/1903_fw.mp4	0.0	230.0169758796692	
43	207.91408801078796	fix_post	2		12	41.0	2.5	/experiments/knapen_AOT/AOT_stimuli/rescaled_final/1903_fw.mp4	0.0	231.3335189819336	0.10003185272216797
44	208.01411986351013	fix_pre	0		120	42.0	2.5	blank	1.0	231.43355083465576	1.0001370906829834
44	208.19769287109375	pulse	0	t		42.0	2.5	blank	1.0	231.61712384223938	
44	209.01425695419312	movie	1		297	42.0	2.5	blank	1.0	232.43368792533875	2.5004470348358154
44	209.79042291641235	pulse	1	t		42.0	2.5	blank	1.0	233.20985388755798	
44	211.39063501358032	pulse	1	t		42.0	2.5	blank	1.0	234.81006598472595	
44	211.51470398902893	fix_post	2		12	42.0	2.5	blank	1.0	234.93413496017456	0.09996604919433594
45	211.61467003822327	fix_pre	0		120	43.0	2.5	/experiments/knapen_AOT/AOT_stimuli/rescaled_final/1327_rv.mp4	0.0	235.0341010093689	1.0001118183135986
45	212.61478185653687	movie	1		243	43.0	2.5	/experiments/knapen_AOT/AOT_stimuli/rescaled_final/1327_rv.mp4	0.0	236.0342128276825	2.4920780658721924
45	213.00338101387024	pulse	1	t		43.0	2.5	/experiments/knapen_AOT/AOT_stimuli/rescaled_final/1327_rv.mp4	0.0	236.42281198501587	
45	214.5912959575653	pulse	1	t		43.0	2.5	/experiments/knapen_AOT/AOT_stimuli/rescaled_final/1327_rv.mp4	0.0	238.01072692871094	
45	215.10685992240906	fix_post	2		12	43.0	2.5	/experiments/knapen_AOT/AOT_stimuli/rescaled_final/1327_rv.mp4	0.0	238.5262908935547	0.1000070571899414
46	215.206866979599	fix_pre	0		119	44.0	2.5	/experiments/knapen_AOT/AOT_stimuli/rescaled_final/1281_fw.mp4	0.0	238.62629795074463	0.9917778968811035
46	216.1906599998474	pulse	0	t		44.0	2.5	/experiments/knapen_AOT/AOT_stimuli/rescaled_final/1281_fw.mp4	0.0	239.61009097099304	
46	216.1986448764801	movie	1		247	44.0	2.5	/experiments/knapen_AOT/AOT_stimuli/rescaled_final/1281_fw.mp4	0.0	239.61807584762573	2.5087499618530273
46	217.79148602485657	pulse	1	t		44.0	2.5	/experiments/knapen_AOT/AOT_stimuli/rescaled_final/1281_fw.mp4	0.0	241.2109169960022	
46	218.70739483833313	fix_post	2		12	44.0	2.5	/experiments/knapen_AOT/AOT_stimuli/rescaled_final/1281_fw.mp4	0.0	242.12682580947876	0.1000370979309082
47	218.80743193626404	fix_pre	0		120	45.0	2.5	/experiments/knapen_AOT/AOT_stimuli/rescaled_final/0483_fw.mp4	0.0	242.22686290740967	1.0001399517059326
47	219.39092803001404	pulse	0	t		45.0	2.5	/experiments/knapen_AOT/AOT_stimuli/rescaled_final/0483_fw.mp4	0.0	242.81035900115967	
47	219.80757188796997	movie	1		245	45.0	2.5	/experiments/knapen_AOT/AOT_stimuli/rescaled_final/0483_fw.mp4	0.0	243.2270028591156	2.500312089920044
47	220.99132800102234	pulse	1	t		45.0	2.5	/experiments/knapen_AOT/AOT_stimuli/rescaled_final/0483_fw.mp4	0.0	244.41075897216797	
47	222.30788397789001	fix_post	2		12	45.0	2.5	/experiments/knapen_AOT/AOT_stimuli/rescaled_final/0483_fw.mp4	0.0	245.72731494903564	0.10002493858337402
48	222.4079089164734	fix_pre	0		120	46.0	2.5	/experiments/knapen_AOT/AOT_stimuli/rescaled_final/0190_rv.mp4	0.0	245.82733988761902	1.0001859664916992
48	222.5915949344635	pulse	0	t		46.0	2.5	/experiments/knapen_AOT/AOT_stimuli/rescaled_final/0190_rv.mp4	0.0	246.01102590560913	
48	223.4080948829651	movie	1		243	46.0	2.5	/experiments/knapen_AOT/AOT_stimuli/rescaled_final/0190_rv.mp4	0.0	246.82752585411072	2.5003409385681152
48	224.1918079853058	pulse	1	t		46.0	2.5	/experiments/knapen_AOT/AOT_stimuli/rescaled_final/0190_rv.mp4	0.0	247.61123895645142	
48	225.79182600975037	pulse	1	t		46.0	2.5	/experiments/knapen_AOT/AOT_stimuli/rescaled_final/0190_rv.mp4	0.0	249.211256980896	
48	225.9084358215332	fix_post	2		12	46.0	2.5	/experiments/knapen_AOT/AOT_stimuli/rescaled_final/0190_rv.mp4	0.0	249.32786679267883	0.10001015663146973
49	226.00844597816467	fix_pre	0		120	47.0	2.5	blank	1.0	249.4278769493103	1.0001869201660156
49	227.0086328983307	movie	1		299	47.0	2.5	blank	1.0	250.42806386947632	2.4920060634613037
49	227.39214491844177	pulse	1	t		47.0	2.5	blank	1.0	250.8115758895874	
49	228.99244093894958	pulse	1	t		47.0	2.5	blank	1.0	252.41187191009521	
49	229.500638961792	fix_post	2		12	47.0	2.5	blank	1.0	252.92006993293762	0.10004305839538574
50	229.60068202018738	fix_pre	0		120	48.0	2.5	/experiments/knapen_AOT/AOT_stimuli/rescaled_final/1817_rv.mp4	0.0	253.020112991333	1.0001258850097656
50	230.5928089618683	pulse	0	t		48.0	2.5	/experiments/knapen_AOT/AOT_stimuli/rescaled_final/1817_rv.mp4	0.0	254.01223993301392	
50	230.60080790519714	movie	1		246	48.0	2.5	/experiments/knapen_AOT/AOT_stimuli/rescaled_final/1817_rv.mp4	0.0	254.02023887634277	2.5086989402770996
50	232.19329595565796	pulse	1	t		48.0	2.5	/experiments/knapen_AOT/AOT_stimuli/rescaled_final/1817_rv.mp4	0.0	255.6127269268036	
50	233.10950684547424	fix_post	2		12	48.0	2.5	/experiments/knapen_AOT/AOT_stimuli/rescaled_final/1817_rv.mp4	0.0	256.5289378166199	0.10003304481506348
51	233.2095398902893	fix_pre	0		120	49.0	2.5	/experiments/knapen_AOT/AOT_stimuli/rescaled_final/1802_rv.mp4	0.0	256.62897086143494	1.0001559257507324
51	233.7930989265442	pulse	0	t		49.0	2.5	/experiments/knapen_AOT/AOT_stimuli/rescaled_final/1802_rv.mp4	0.0	257.2125298976898	
51	234.20969581604004	movie	1		244	49.0	2.5	/experiments/knapen_AOT/AOT_stimuli/rescaled_final/1802_rv.mp4	0.0	257.62912678718567	2.5003440380096436
51	235.3935649394989	pulse	1	t		49.0	2.5	/experiments/knapen_AOT/AOT_stimuli/rescaled_final/1802_rv.mp4	0.0	258.81299591064453	
51	236.71003985404968	fix_post	2		12	49.0	2.5	/experiments/knapen_AOT/AOT_stimuli/rescaled_final/1802_rv.mp4	0.0	260.1294708251953	0.1000211238861084
52	236.8100609779358	fix_pre	0		120	50.0	2.5	/experiments/knapen_AOT/AOT_stimuli/rescaled_final/1268_fw.mp4	0.0	260.2294919490814	1.000195026397705
52	236.99370193481445	pulse	0	t		50.0	2.5	/experiments/knapen_AOT/AOT_stimuli/rescaled_final/1268_fw.mp4	0.0	260.4131329059601	
52	237.8102560043335	movie	1		246	50.0	2.5	/experiments/knapen_AOT/AOT_stimuli/rescaled_final/1268_fw.mp4	0.0	261.2296869754791	2.50034499168396
52	238.59396386146545	pulse	1	t		50.0	2.5	/experiments/knapen_AOT/AOT_stimuli/rescaled_final/1268_fw.mp4	0.0	262.0133948326111	
52	240.1941738128662	pulse	1	t		50.0	2.5	/experiments/knapen_AOT/AOT_stimuli/rescaled_final/1268_fw.mp4	0.0	263.61360478401184	
52	240.31060099601746	fix_post	2		12	50.0	2.5	/experiments/knapen_AOT/AOT_stimuli/rescaled_final/1268_fw.mp4	0.0	263.7300319671631	0.10000395774841309
53	240.41060495376587	fix_pre	0		120	51.0	2.5	/experiments/knapen_AOT/AOT_stimuli/rescaled_final/1607_rv.mp4	0.0	263.8300359249115	1.0001769065856934
53	241.41078186035156	movie	1		242	51.0	2.5	/experiments/knapen_AOT/AOT_stimuli/rescaled_final/1607_rv.mp4	0.0	264.8302128314972	2.4920201301574707
53	241.7946698665619	pulse	1	t		51.0	2.5	/experiments/knapen_AOT/AOT_stimuli/rescaled_final/1607_rv.mp4	0.0	265.2141008377075	
53	243.3947148323059	pulse	1	t		51.0	2.5	/experiments/knapen_AOT/AOT_stimuli/rescaled_final/1607_rv.mp4	0.0	266.81414580345154	
53	243.90280199050903	fix_post	2		12	51.0	2.5	/experiments/knapen_AOT/AOT_stimuli/rescaled_final/1607_rv.mp4	0.0	267.32223296165466	0.10005593299865723
54	244.0028579235077	fix_pre	0		120	52.0	2.5	/experiments/knapen_AOT/AOT_stimuli/rescaled_final/1830_rv.mp4	0.0	267.4222888946533	1.0000860691070557
54	244.99489092826843	pulse	0	t		52.0	2.5	/experiments/knapen_AOT/AOT_stimuli/rescaled_final/1830_rv.mp4	0.0	268.41432189941406	
54	245.00294399261475	movie	1		245	52.0	2.5	/experiments/knapen_AOT/AOT_stimuli/rescaled_final/1830_rv.mp4	0.0	268.4223749637604	2.5087199211120605
54	246.59641480445862	pulse	1	t		52.0	2.5	/experiments/knapen_AOT/AOT_stimuli/rescaled_final/1830_rv.mp4	0.0	270.01584577560425	
54	247.5116639137268	fix_post	2		12	52.0	2.5	/experiments/knapen_AOT/AOT_stimuli/rescaled_final/1830_rv.mp4	0.0	270.93109488487244	0.10001206398010254
55	247.6116759777069	fix_pre	0		120	53.0	2.5	/experiments/knapen_AOT/AOT_stimuli/rescaled_final/1688_fw.mp4	0.0	271.03110694885254	1.000201940536499
55	248.19522094726562	pulse	0	t		53.0	2.5	/experiments/knapen_AOT/AOT_stimuli/rescaled_final/1688_fw.mp4	0.0	271.61465191841125	
55	248.6118779182434	movie	1		250	53.0	2.5	/experiments/knapen_AOT/AOT_stimuli/rescaled_final/1688_fw.mp4	0.0	272.03130888938904	2.500296115875244
55	249.79565382003784	pulse	1	t		53.0	2.5	/experiments/knapen_AOT/AOT_stimuli/rescaled_final/1688_fw.mp4	0.0	273.2150847911835	
55	251.11217403411865	fix_post	2		12	53.0	2.5	/experiments/knapen_AOT/AOT_stimuli/rescaled_final/1688_fw.mp4	0.0	274.5316050052643	0.10005879402160645
56	251.21223282814026	fix_pre	0		120	54.0	2.5	/experiments/knapen_AOT/AOT_stimuli/rescaled_final/0510_rv.mp4	0.0	274.6316637992859	1.0001411437988281
56	251.395840883255	pulse	0	t		54.0	2.5	/experiments/knapen_AOT/AOT_stimuli/rescaled_final/0510_rv.mp4	0.0	274.81527185440063	
56	252.2123739719391	movie	1		247	54.0	2.5	/experiments/knapen_AOT/AOT_stimuli/rescaled_final/0510_rv.mp4	0.0	275.6318049430847	2.5003669261932373
56	252.99603080749512	pulse	1	t		54.0	2.5	/experiments/knapen_AOT/AOT_stimuli/rescaled_final/0510_rv.mp4	0.0	276.41546177864075	
56	254.59621381759644	pulse	1	t		54.0	2.5	/experiments/knapen_AOT/AOT_stimuli/rescaled_final/0510_rv.mp4	0.0	278.01564478874207	
56	254.71274089813232	fix_post	2		12	54.0	2.5	/experiments/knapen_AOT/AOT_stimuli/rescaled_final/0510_rv.mp4	0.0	278.13217186927795	0.10003900527954102
57	254.81277990341187	fix_pre	0		120	55.0	2.5	blank	1.0	278.2322108745575	1.0001449584960938
57	255.81292486190796	movie	1		299	55.0	2.5	blank	1.0	279.2323558330536	2.4920461177825928
57	256.1966128349304	pulse	1	t		55.0	2.5	blank	1.0	279.61604380607605	
57	257.7968578338623	pulse	1	t		55.0	2.5	blank	1.0	281.21628880500793	
57	258.30497097969055	fix_post	2		12	55.0	2.5	blank	1.0	281.7244019508362	0.1000058650970459
58	258.4049768447876	fix_pre	0		120	56.0	2.5	/experiments/knapen_AOT/AOT_stimuli/rescaled_final/1454_fw.mp4	0.0	281.8244078159332	1.000110149383545
58	259.3970718383789	pulse	0	t		56.0	2.5	/experiments/knapen_AOT/AOT_stimuli/rescaled_final/1454_fw.mp4	0.0	282.81650280952454	
58	259.40508699417114	movie	1		249	56.0	2.5	/experiments/knapen_AOT/AOT_stimuli/rescaled_final/1454_fw.mp4	0.0	282.8245179653168	2.508694887161255
58	260.99781584739685	pulse	1	t		56.0	2.5	/experiments/knapen_AOT/AOT_stimuli/rescaled_final/1454_fw.mp4	0.0	284.4172468185425	
58	261.9137818813324	fix_post	2		12	56.0	2.5	/experiments/knapen_AOT/AOT_stimuli/rescaled_final/1454_fw.mp4	0.0	285.333212852478	0.10007309913635254
59	262.01385498046875	fix_pre	0		120	57.0	2.5	/experiments/knapen_AOT/AOT_stimuli/rescaled_final/0437_rv.mp4	0.0	285.4332859516144	1.0001239776611328
59	262.5975019931793	pulse	0	t		57.0	2.5	/experiments/knapen_AOT/AOT_stimuli/rescaled_final/0437_rv.mp4	0.0	286.01693296432495	
59	263.0139789581299	movie	1		244	57.0	2.5	/experiments/knapen_AOT/AOT_stimuli/rescaled_final/0437_rv.mp4	0.0	286.4334099292755	2.500382900238037
59	264.1932740211487	pulse	1	t		57.0	2.5	/experiments/knapen_AOT/AOT_stimuli/rescaled_final/0437_rv.mp4	0.0	287.6127049922943	
59	265.5143618583679	fix_post	2		12	57.0	2.5	/experiments/knapen_AOT/AOT_stimuli/rescaled_final/0437_rv.mp4	0.0	288.93379282951355	0.10001206398010254
60	265.614373922348	fix_pre	0		120	58.0	2.5	/experiments/knapen_AOT/AOT_stimuli/rescaled_final/0293_rv.mp4	0.0	289.03380489349365	1.0001420974731445
60	265.79040789604187	pulse	0	t		58.0	2.5	/experiments/knapen_AOT/AOT_stimuli/rescaled_final/0293_rv.mp4	0.0	289.2098388671875	
60	266.61451601982117	movie	1		244	58.0	2.5	/experiments/knapen_AOT/AOT_stimuli/rescaled_final/0293_rv.mp4	0.0	290.0339469909668	2.5003697872161865
60	267.39080786705017	pulse	1	t		58.0	2.5	/experiments/knapen_AOT/AOT_stimuli/rescaled_final/0293_rv.mp4	0.0	290.8102388381958	
60	268.99847984313965	pulse	1	t		58.0	2.5	/experiments/knapen_AOT/AOT_stimuli/rescaled_final/0293_rv.mp4	0.0	292.4179108142853	
60	269.11488580703735	fix_post	2		12	58.0	2.5	/experiments/knapen_AOT/AOT_stimuli/rescaled_final/0293_rv.mp4	0.0	292.534316778183	0.10001015663146973
61	269.2148959636688	fix_pre	0		120	59.0	2.5	/experiments/knapen_AOT/AOT_stimuli/rescaled_final/0746_fw.mp4	0.0	292.63432693481445	1.0001568794250488
61	270.2150528430939	movie	1		245	59.0	2.5	/experiments/knapen_AOT/AOT_stimuli/rescaled_final/0746_fw.mp4	0.0	293.6344838142395	2.4920079708099365
61	270.59034991264343	pulse	1	t		59.0	2.5	/experiments/knapen_AOT/AOT_stimuli/rescaled_final/0746_fw.mp4	0.0	294.00978088378906	
61	272.19060802459717	pulse	1	t		59.0	2.5	/experiments/knapen_AOT/AOT_stimuli/rescaled_final/0746_fw.mp4	0.0	295.6100389957428	
61	272.7070608139038	fix_post	2		12	59.0	2.5	/experiments/knapen_AOT/AOT_stimuli/rescaled_final/0746_fw.mp4	0.0	296.12649178504944	0.10005521774291992
62	272.80711603164673	fix_pre	0		119	60.0	2.5	/experiments/knapen_AOT/AOT_stimuli/rescaled_final/0641_rv.mp4	0.0	296.22654700279236	0.9918069839477539
62	273.7907748222351	pulse	0	t		60.0	2.5	/experiments/knapen_AOT/AOT_stimuli/rescaled_final/0641_rv.mp4	0.0	297.21020579338074	
62	273.7989230155945	movie	1		245	60.0	2.5	/experiments/knapen_AOT/AOT_stimuli/rescaled_final/0641_rv.mp4	0.0	297.2183539867401	2.508683919906616
62	275.3914279937744	pulse	1	t		60.0	2.5	/experiments/knapen_AOT/AOT_stimuli/rescaled_final/0641_rv.mp4	0.0	298.81085896492004	
62	276.3076069355011	fix_post	2		12	60.0	2.5	/experiments/knapen_AOT/AOT_stimuli/rescaled_final/0641_rv.mp4	0.0	299.72703790664673	0.10003209114074707
63	276.40763902664185	fix_pre	0		120	61.0	2.5	/experiments/knapen_AOT/AOT_stimuli/rescaled_final/1547_rv.mp4	0.0	299.8270699977875	1.0001909732818604
63	276.9912338256836	pulse	0	t		61.0	2.5	/experiments/knapen_AOT/AOT_stimuli/rescaled_final/1547_rv.mp4	0.0	300.4106647968292	
63	277.4078299999237	movie	1		245	61.0	2.5	/experiments/knapen_AOT/AOT_stimuli/rescaled_final/1547_rv.mp4	0.0	300.82726097106934	2.500349998474121
63	278.5916109085083	pulse	1	t		61.0	2.5	/experiments/knapen_AOT/AOT_stimuli/rescaled_final/1547_rv.mp4	0.0	302.01104187965393	
63	279.9081799983978	fix_post	2		12	61.0	2.5	/experiments/knapen_AOT/AOT_stimuli/rescaled_final/1547_rv.mp4	0.0	303.32761096954346	0.09999394416809082
64	280.0081739425659	fix_pre	0		120	62.0	2.5	/experiments/knapen_AOT/AOT_stimuli/rescaled_final/0968_fw.mp4	0.0	303.42760491371155	1.0002570152282715
64	280.19180393218994	pulse	0	t		62.0	2.5	/experiments/knapen_AOT/AOT_stimuli/rescaled_final/0968_fw.mp4	0.0	303.61123490333557	
64	281.0084309577942	movie	1		243	62.0	2.5	/experiments/knapen_AOT/AOT_stimuli/rescaled_final/0968_fw.mp4	0.0	304.4278619289398	2.5003020763397217
64	281.79213094711304	pulse	1	t		62.0	2.5	/experiments/knapen_AOT/AOT_stimuli/rescaled_final/0968_fw.mp4	0.0	305.21156191825867	
64	283.39246582984924	pulse	1	t		62.0	2.5	/experiments/knapen_AOT/AOT_stimuli/rescaled_final/0968_fw.mp4	0.0	306.8118968009949	
64	283.5087330341339	fix_post	2		12	62.0	2.5	/experiments/knapen_AOT/AOT_stimuli/rescaled_final/0968_fw.mp4	0.0	306.92816400527954	0.09999680519104004
65	283.60872983932495	fix_pre	0		120	63.0	2.5	blank	1.0	307.0281608104706	1.0001440048217773
65	284.60887384414673	movie	1		299	63.0	2.5	blank	1.0	308.02830481529236	2.492043972015381
65	284.9925489425659	pulse	1	t		63.0	2.5	blank	1.0	308.41197991371155	
65	286.59267497062683	pulse	1	t		63.0	2.5	blank	1.0	310.01210594177246	
65	287.1009178161621	fix_post	2		12	63.0	2.5	blank	1.0	310.52034878730774	0.09999704360961914
66	287.20091485977173	fix_pre	0		120	64.0	2.5	/experiments/knapen_AOT/AOT_stimuli/rescaled_final/0510_fw.mp4	0.0	310.62034583091736	1.0001440048217773
66	288.1929268836975	pulse	0	t		64.0	2.5	/experiments/knapen_AOT/AOT_stimuli/rescaled_final/0510_fw.mp4	0.0	311.61235785484314	
66	288.2010588645935	movie	1		246	64.0	2.5	/experiments/knapen_AOT/AOT_stimuli/rescaled_final/0510_fw.mp4	0.0	311.62048983573914	2.508747100830078
66	289.7938039302826	pulse	1	t		64.0	2.5	/experiments/knapen_AOT/AOT_stimuli/rescaled_final/0510_fw.mp4	0.0	313.2132349014282	
66	290.7098059654236	fix_post	2		12	64.0	2.5	/experiments/knapen_AOT/AOT_stimuli/rescaled_final/0510_fw.mp4	0.0	314.1292369365692	0.10001587867736816
67	290.80982184410095	fix_pre	0		120	65.0	2.5	/experiments/knapen_AOT/AOT_stimuli/rescaled_final/0144_rv.mp4	0.0	314.2292528152466	1.0000879764556885
67	291.39344692230225	pulse	0	t		65.0	2.5	/experiments/knapen_AOT/AOT_stimuli/rescaled_final/0144_rv.mp4	0.0	314.8128778934479	
67	291.80990982055664	movie	1		244	65.0	2.5	/experiments/knapen_AOT/AOT_stimuli/rescaled_final/0144_rv.mp4	0.0	315.22934079170227	2.5003840923309326
67	292.99377703666687	pulse	1	t		65.0	2.5	/experiments/knapen_AOT/AOT_stimuli/rescaled_final/0144_rv.mp4	0.0	316.4132080078125	
67	294.3102939128876	fix_post	2		12	65.0	2.5	/experiments/knapen_AOT/AOT_stimuli/rescaled_final/0144_rv.mp4	0.0	317.7297248840332	0.10004496574401855
68	294.4103388786316	fix_pre	0		120	66.0	2.5	/experiments/knapen_AOT/AOT_stimuli/rescaled_final/0223_rv.mp4	0.0	317.8297698497772	1.0001630783081055
68	294.5939350128174	pulse	0	t		66.0	2.5	/experiments/knapen_AOT/AOT_stimuli/rescaled_final/0223_rv.mp4	0.0	318.013365983963	
68	295.4105019569397	movie	1		243	66.0	2.5	/experiments/knapen_AOT/AOT_stimuli/rescaled_final/0223_rv.mp4	0.0	318.8299329280853	2.5003268718719482
68	296.1941559314728	pulse	1	t		66.0	2.5	/experiments/knapen_AOT/AOT_stimuli/rescaled_final/0223_rv.mp4	0.0	319.6135869026184	
68	297.79451298713684	pulse	1	t		66.0	2.5	/experiments/knapen_AOT/AOT_stimuli/rescaled_final/0223_rv.mp4	0.0	321.21394395828247	
68	297.91082882881165	fix_post	2		12	66.0	2.5	/experiments/knapen_AOT/AOT_stimuli/rescaled_final/0223_rv.mp4	0.0	321.3302597999573	0.10003900527954102
69	298.0108678340912	fix_pre	0		120	67.0	2.5	/experiments/knapen_AOT/AOT_stimuli/rescaled_final/1547_fw.mp4	0.0	321.4302988052368	1.0001471042633057
69	299.0110149383545	movie	1		244	67.0	2.5	/experiments/knapen_AOT/AOT_stimuli/rescaled_final/1547_fw.mp4	0.0	322.4304459095001	2.492076873779297
69	299.3955969810486	pulse	1	t		67.0	2.5	/experiments/knapen_AOT/AOT_stimuli/rescaled_final/1547_fw.mp4	0.0	322.8150279521942	
69	300.9948408603668	pulse	1	t		67.0	2.5	/experiments/knapen_AOT/AOT_stimuli/rescaled_final/1547_fw.mp4	0.0	324.41427183151245	
69	301.5030918121338	fix_post	2		12	67.0	2.5	/experiments/knapen_AOT/AOT_stimuli/rescaled_final/1547_fw.mp4	0.0	324.9225227832794	0.09995698928833008
70	301.6030488014221	fix_pre	0		118	68.0	2.5	blank	1.0	325.02247977256775	1.0001640319824219
70	302.5950880050659	pulse	0	t		68.0	2.5	blank	1.0	326.01451897621155	
70	302.60321283340454	movie	1		301	68.0	2.5	blank	1.0	326.02264380455017	2.5087339878082275
70	304.19545698165894	pulse	1	t		68.0	2.5	blank	1.0	327.61488795280457	
70	305.11194682121277	fix_post	2		12	68.0	2.5	blank	1.0	328.5313777923584	0.10001921653747559
71	305.21196603775024	fix_pre	0		120	69.0	2.5	/experiments/knapen_AOT/AOT_stimuli/rescaled_final/0946_fw.mp4	0.0	328.6313970088959	1.000166893005371
71	305.7956829071045	pulse	0	t		69.0	2.5	/experiments/knapen_AOT/AOT_stimuli/rescaled_final/0946_fw.mp4	0.0	329.2151138782501	
71	306.2121329307556	movie	1		244	69.0	2.5	/experiments/knapen_AOT/AOT_stimuli/rescaled_final/0946_fw.mp4	0.0	329.63156390190125	2.5003790855407715
71	307.39591884613037	pulse	1	t		69.0	2.5	/experiments/knapen_AOT/AOT_stimuli/rescaled_final/0946_fw.mp4	0.0	330.815349817276	
71	308.7125120162964	fix_post	2		12	69.0	2.5	/experiments/knapen_AOT/AOT_stimuli/rescaled_final/0946_fw.mp4	0.0	332.131942987442	0.09998178482055664
72	308.81249380111694	fix_pre	0		120	70.0	2.5	/experiments/knapen_AOT/AOT_stimuli/rescaled_final/0293_rv.mp4	0.0	332.2319247722626	1.0001251697540283
72	308.9960210323334	pulse	0	t		70.0	2.5	/experiments/knapen_AOT/AOT_stimuli/rescaled_final/0293_rv.mp4	0.0	332.415452003479	
72	309.812618970871	movie	1		243	70.0	2.5	/experiments/knapen_AOT/AOT_stimuli/rescaled_final/0293_rv.mp4	0.0	333.2320499420166	2.5003859996795654
72	310.5963020324707	pulse	1	t		70.0	2.5	/experiments/knapen_AOT/AOT_stimuli/rescaled_final/0293_rv.mp4	0.0	334.01573300361633	
72	312.19638299942017	pulse	1	t		70.0	2.5	/experiments/knapen_AOT/AOT_stimuli/rescaled_final/0293_rv.mp4	0.0	335.6158139705658	
72	312.31300497055054	fix_post	2		12	70.0	2.5	/experiments/knapen_AOT/AOT_stimuli/rescaled_final/0293_rv.mp4	0.0	335.73243594169617	0.09999990463256836
73	312.4130048751831	fix_pre	0		120	71.0	2.5	/experiments/knapen_AOT/AOT_stimuli/rescaled_final/1830_rv.mp4	0.0	335.83243584632874	1.0001599788665771
73	313.4131648540497	movie	1		243	71.0	2.5	/experiments/knapen_AOT/AOT_stimuli/rescaled_final/1830_rv.mp4	0.0	336.8325958251953	2.4920670986175537
73	313.79778385162354	pulse	1	t		71.0	2.5	/experiments/knapen_AOT/AOT_stimuli/rescaled_final/1830_rv.mp4	0.0	337.21721482276917	
73	315.39697194099426	pulse	1	t		71.0	2.5	/experiments/knapen_AOT/AOT_stimuli/rescaled_final/1830_rv.mp4	0.0	338.8164029121399	
73	315.90523195266724	fix_post	2		12	71.0	2.5	/experiments/knapen_AOT/AOT_stimuli/rescaled_final/1830_rv.mp4	0.0	339.32466292381287	0.09996604919433594
74	316.0051980018616	fix_pre	0		120	72.0	2.5	/experiments/knapen_AOT/AOT_stimuli/rescaled_final/0158_fw.mp4	0.0	339.4246289730072	1.0001838207244873
74	316.9973909854889	pulse	0	t		72.0	2.5	/experiments/knapen_AOT/AOT_stimuli/rescaled_final/0158_fw.mp4	0.0	340.4168219566345	
74	317.00538182258606	movie	1		245	72.0	2.5	/experiments/knapen_AOT/AOT_stimuli/rescaled_final/0158_fw.mp4	0.0	340.4248127937317	2.5087320804595947
74	318.5980079174042	pulse	1	t		72.0	2.5	/experiments/knapen_AOT/AOT_stimuli/rescaled_final/0158_fw.mp4	0.0	342.0174388885498	
74	319.51411390304565	fix_post	2		12	72.0	2.5	/experiments/knapen_AOT/AOT_stimuli/rescaled_final/0158_fw.mp4	0.0	342.9335448741913	0.09996604919433594
75	319.61407995224	fix_pre	0		120	73.0	2.5	/experiments/knapen_AOT/AOT_stimuli/rescaled_final/1415_rv.mp4	0.0	343.0335109233856	1.0001559257507324
75	320.19777393341064	pulse	0	t		73.0	2.5	/experiments/knapen_AOT/AOT_stimuli/rescaled_final/1415_rv.mp4	0.0	343.6172049045563	
75	320.6142358779907	movie	1		243	73.0	2.5	/experiments/knapen_AOT/AOT_stimuli/rescaled_final/1415_rv.mp4	0.0	344.03366684913635	2.500429153442383
75	321.79001903533936	pulse	1	t		73.0	2.5	/experiments/knapen_AOT/AOT_stimuli/rescaled_final/1415_rv.mp4	0.0	345.209450006485	
75	323.1146650314331	fix_post	2		12	73.0	2.5	/experiments/knapen_AOT/AOT_stimuli/rescaled_final/1415_rv.mp4	0.0	346.53409600257874	0.09993195533752441
76	323.21459698677063	fix_pre	0		120	74.0	2.5	/experiments/knapen_AOT/AOT_stimuli/rescaled_final/1435_rv.mp4	0.0	346.63402795791626	1.0002989768981934
76	323.39066886901855	pulse	0	t		74.0	2.5	/experiments/knapen_AOT/AOT_stimuli/rescaled_final/1435_rv.mp4	0.0	346.8100998401642	
76	324.2148959636688	movie	1		243	74.0	2.5	/experiments/knapen_AOT/AOT_stimuli/rescaled_final/1435_rv.mp4	0.0	347.63432693481445	2.5002410411834717
76	324.9900770187378	pulse	1	t		74.0	2.5	/experiments/knapen_AOT/AOT_stimuli/rescaled_final/1435_rv.mp4	0.0	348.4095079898834	
76	326.590322971344	pulse	1	t		74.0	2.5	/experiments/knapen_AOT/AOT_stimuli/rescaled_final/1435_rv.mp4	0.0	350.0097539424896	
76	326.7151370048523	fix_post	2		12	74.0	2.5	/experiments/knapen_AOT/AOT_stimuli/rescaled_final/1435_rv.mp4	0.0	350.1345679759979	0.10002684593200684
77	326.8151638507843	fix_pre	0		120	75.0	2.5	blank	1.0	350.23459482192993	1.0001721382141113
77	327.8153359889984	movie	1		299	75.0	2.5	blank	1.0	351.23476696014404	2.492008924484253
77	328.1906099319458	pulse	1	t		75.0	2.5	blank	1.0	351.61004090309143	
77	329.79088592529297	pulse	1	t		75.0	2.5	blank	1.0	353.2103168964386	
77	330.30734491348267	fix_post	2		12	75.0	2.5	blank	1.0	353.7267758846283	0.10001492500305176
78	330.4073598384857	fix_pre	0		119	76.0	2.5	/experiments/knapen_AOT/AOT_stimuli/rescaled_final/1007_fw.mp4	0.0	353.82679080963135	0.9918019771575928
78	331.39107298851013	pulse	0	t		76.0	2.5	/experiments/knapen_AOT/AOT_stimuli/rescaled_final/1007_fw.mp4	0.0	354.81050395965576	
78	331.3991618156433	movie	1		246	76.0	2.5	/experiments/knapen_AOT/AOT_stimuli/rescaled_final/1007_fw.mp4	0.0	354.81859278678894	2.508711099624634
78	332.99231481552124	pulse	1	t		76.0	2.5	/experiments/knapen_AOT/AOT_stimuli/rescaled_final/1007_fw.mp4	0.0	356.41174578666687	
78	333.90787291526794	fix_post	2		12	76.0	2.5	/experiments/knapen_AOT/AOT_stimuli/rescaled_final/1007_fw.mp4	0.0	357.3273038864136	0.1000208854675293
79	334.0078938007355	fix_pre	0		120	77.0	2.5	/experiments/knapen_AOT/AOT_stimuli/rescaled_final/0413_rv.mp4	0.0	357.4273247718811	1.000176191329956
79	334.59149980545044	pulse	0	t		77.0	2.5	/experiments/knapen_AOT/AOT_stimuli/rescaled_final/0413_rv.mp4	0.0	358.01093077659607	
79	335.00806999206543	movie	1		246	77.0	2.5	/experiments/knapen_AOT/AOT_stimuli/rescaled_final/0413_rv.mp4	0.0	358.42750096321106	2.500339984893799
79	336.1918089389801	pulse	1	t		77.0	2.5	/experiments/knapen_AOT/AOT_stimuli/rescaled_final/0413_rv.mp4	0.0	359.61123991012573	
79	337.50840997695923	fix_post	2		12	77.0	2.5	/experiments/knapen_AOT/AOT_stimuli/rescaled_final/0413_rv.mp4	0.0	360.92784094810486	0.1000208854675293
80	337.60843086242676	fix_pre	0		120	78.0	2.5	/experiments/knapen_AOT/AOT_stimuli/rescaled_final/0900_fw.mp4	0.0	361.0278618335724	1.0001611709594727
80	337.7920458316803	pulse	0	t		78.0	2.5	/experiments/knapen_AOT/AOT_stimuli/rescaled_final/0900_fw.mp4	0.0	361.2114768028259	
80	338.60859203338623	movie	1		246	78.0	2.5	/experiments/knapen_AOT/AOT_stimuli/rescaled_final/0900_fw.mp4	0.0	362.02802300453186	2.500365972518921
80	339.3921768665314	pulse	1	t		78.0	2.5	/experiments/knapen_AOT/AOT_stimuli/rescaled_final/0900_fw.mp4	0.0	362.811607837677	
80	340.99258494377136	pulse	1	t		78.0	2.5	/experiments/knapen_AOT/AOT_stimuli/rescaled_final/0900_fw.mp4	0.0	364.412015914917	
80	341.10895800590515	fix_post	2		12	78.0	2.5	/experiments/knapen_AOT/AOT_stimuli/rescaled_final/0900_fw.mp4	0.0	364.5283889770508	0.10001897811889648
81	341.20897698402405	fix_pre	0		119	79.0	2.5	/experiments/knapen_AOT/AOT_stimuli/rescaled_final/2062_rv.mp4	0.0	364.6284079551697	0.9918229579925537
81	342.2007999420166	movie	1		244	79.0	2.5	/experiments/knapen_AOT/AOT_stimuli/rescaled_final/2062_rv.mp4	0.0	365.62023091316223	2.500338077545166
81	342.59294080734253	pulse	1	t		79.0	2.5	/experiments/knapen_AOT/AOT_stimuli/rescaled_final/2062_rv.mp4	0.0	366.01237177848816	
81	344.1930139064789	pulse	1	t		79.0	2.5	/experiments/knapen_AOT/AOT_stimuli/rescaled_final/2062_rv.mp4	0.0	367.6124448776245	
81	344.70113801956177	fix_post	2		12	79.0	2.5	/experiments/knapen_AOT/AOT_stimuli/rescaled_final/2062_rv.mp4	0.0	368.1205689907074	0.1000669002532959
82	344.80120491981506	fix_pre	0		120	80.0	2.5	/experiments/knapen_AOT/AOT_stimuli/rescaled_final/1863_fw.mp4	0.0	368.2206358909607	1.0001800060272217
82	345.79320883750916	pulse	0	t		80.0	2.5	/experiments/knapen_AOT/AOT_stimuli/rescaled_final/1863_fw.mp4	0.0	369.2126398086548	
82	345.8013849258423	movie	1		246	80.0	2.5	/experiments/knapen_AOT/AOT_stimuli/rescaled_final/1863_fw.mp4	0.0	369.2208158969879	2.5086379051208496
82	347.3948209285736	pulse	1	t		80.0	2.5	/experiments/knapen_AOT/AOT_stimuli/rescaled_final/1863_fw.mp4	0.0	370.81425189971924	
82	348.31002283096313	fix_post	2		12	80.0	2.5	/experiments/knapen_AOT/AOT_stimuli/rescaled_final/1863_fw.mp4	0.0	371.72945380210876	0.10009312629699707
83	348.41011595726013	fix_pre	0		120	81.0	2.5	/experiments/knapen_AOT/AOT_stimuli/rescaled_final/0884_fw.mp4	0.0	371.82954692840576	1.000105857849121
83	348.9937388896942	pulse	0	t		81.0	2.5	/experiments/knapen_AOT/AOT_stimuli/rescaled_final/0884_fw.mp4	0.0	372.41316986083984	
83	349.41022181510925	movie	1		245	81.0	2.5	/experiments/knapen_AOT/AOT_stimuli/rescaled_final/0884_fw.mp4	0.0	372.8296527862549	2.500308036804199
83	350.5940589904785	pulse	1	t		81.0	2.5	/experiments/knapen_AOT/AOT_stimuli/rescaled_final/0884_fw.mp4	0.0	374.01348996162415	
83	351.91052985191345	fix_post	2		12	81.0	2.5	/experiments/knapen_AOT/AOT_stimuli/rescaled_final/0884_fw.mp4	0.0	375.3299608230591	0.10007309913635254
84	352.0106029510498	fix_pre	0		120	82.0	2.5	/experiments/knapen_AOT/AOT_stimuli/rescaled_final/1854_rv.mp4	0.0	375.43003392219543	1.000180959701538
84	352.1941628456116	pulse	0	t		82.0	2.5	/experiments/knapen_AOT/AOT_stimuli/rescaled_final/1854_rv.mp4	0.0	375.6135938167572	
84	353.01078391075134	movie	1		244	82.0	2.5	/experiments/knapen_AOT/AOT_stimuli/rescaled_final/1854_rv.mp4	0.0	376.430214881897	2.5003089904785156
84	353.7943148612976	pulse	1	t		82.0	2.5	/experiments/knapen_AOT/AOT_stimuli/rescaled_final/1854_rv.mp4	0.0	377.21374583244324	
84	355.39544796943665	pulse	1	t		82.0	2.5	/experiments/knapen_AOT/AOT_stimuli/rescaled_final/1854_rv.mp4	0.0	378.8148789405823	
84	355.51109290122986	fix_post	2		12	82.0	2.5	/experiments/knapen_AOT/AOT_stimuli/rescaled_final/1854_rv.mp4	0.0	378.9305238723755	0.10004806518554688
85	355.6111409664154	fix_pre	0		120	83.0	2.5	blank	1.0	379.03057193756104	1.0000998973846436
85	356.61124086380005	movie	1		299	83.0	2.5	blank	1.0	380.0306718349457	2.492079019546509
85	356.9949519634247	pulse	1	t		83.0	2.5	blank	1.0	380.4143829345703	
85	358.5950708389282	pulse	1	t		83.0	2.5	blank	1.0	382.01450181007385	
85	359.10331988334656	fix_post	2		12	83.0	2.5	blank	1.0	382.5227508544922	0.10002708435058594
87	359.20334696769714	stim	0		1716					382.6227779388428	14.302125930786133
87	360.1953299045563	pulse	0	t						383.6147608757019	
87	361.7955849170685	pulse	0	t						385.2150158882141	
87	363.39579796791077	pulse	0	t						386.8152289390564	
87	364.9960939884186	pulse	0	t						388.4155249595642	
87	366.5962088108063	pulse	0	t						390.0156397819519	
87	368.1964659690857	pulse	0	t						391.6158969402313	
87	369.7967779636383	pulse	0	t						393.21620893478394	
87	371.3970320224762	pulse	0	t						394.8164629936218	
87	372.99715995788574	pulse	0	t						396.4165909290314	
